Folder: fsri_materials_database/02_Data/Polyurethane_Foam/Cone (part 3)

File: Polyurethane_Foam_Cone_HF75Scan_210325_R3.csv
Names,Time,Stack TC,Smoke TC,Exh Press,Smoke Comp,Smoke Meas,CO Meter,CO2 Meter,O2 Meter,Sample Mass,Ext Coeff,Start Test,Flame Verif
Chan Gain,,500,500,1,1,1,1,1,1,1,1,1.0,1.0
Offset,,0,0,0.138348,0,0,0,0,0,0,0,0.0,0.0
Gain,,1,1,25.011,13.5067,16.616,1,1,1,1.00091,1.04608,1.0,1.0
Units,sec,C,C,Pa,%,%,%,%,%,g,/m,,
Baseline,,40.2302,43.8108,157.662,101.26,98.8888,-0.000277164,0.0847467,20.8609,-1.62256,0.217454,,
7,1.5,35.8152,38.5053,149.383,101.761,90.8361,0.00163473,0.0954114,20.8428,473.851,1.04213,0.0,1.0
14,3.25,38.338,42.0852,136.508,101.778,77.1191,0.00393861,0.119952,20.7386,473.311,2.54583,0.0,1.0
21,5,40.0333,46.0151,146.552,101.789,73.7435,0.00701738,0.180965,20.5425,472.931,2.95755,0.0,1.0
28,6.75,42.0269,50.0195,133.519,101.803,70.9885,0.0099394,0.258138,20.3773,472.63,3.30819,0.0,0.0
35,8.5,44.9432,54.8223,131.051,101.819,71.6929,0.012509,0.340387,20.2471,472.32,3.21908,0.0,0.0
42,10.25,47.7888,58.8361,127.656,101.829,74.0143,0.0143908,0.413089,20.1424,471.99,2.92748,0.0,0.0
49,12,50.2918,62.7043,137.203,101.855,74.3743,0.0158448,0.480295,20.0762,471.749,2.88537,0.0,0.0
56,13.75,51.4217,65.2227,131.37,101.869,72.3881,0.0179508,0.538964,19.9949,471.379,3.13498,0.0,0.0
63,15.5,55.68,72.6265,120.065,101.881,72.0331,0.0210065,0.620633,19.7727,470.799,3.1812,0.0,0.0
70,17.25,65.4028,92.1967,97.1142,101.885,84.4976,0.0240843,0.790966,19.2515,469.978,1.71705,0.0,0.0
77,19,77.1228,114.655,91.1271,101.863,90.7093,0.025618,1.07775,18.5006,469.297,1.06412,0.0,0.0
84,20.75,88.2013,136.115,82.422,101.933,94.4551,0.0257004,1.45112,17.883,468.627,0.699158,0.0,0.0
91,22.5,98.5695,153.755,96.1594,101.923,94.2239,0.0248067,1.79225,17.4606,467.886,0.720759,0.0,0.0
98,24.25,107.892,170.341,84.6606,101.943,94.7472,0.0235076,2.08881,17.215,467.165,0.671719,0.0,0.0
105,26,114.464,181.87,90.6127,101.966,96.5676,0.0215162,2.29817,17.1459,466.535,0.499163,0.0,0.0
112,27.75,118.658,186.254,109.172,101.983,94.3345,0.0191503,2.37435,17.3498,466.194,0.715379,0.0,0.0
119,29.5,117.762,180.637,128.124,101.991,93.6266,0.0156445,2.28522,17.8535,466.014,0.785238,0.0,0.0
126,31.25,112.808,168.917,136.901,102.003,99.4778,0.0129036,2.07961,18.4769,465.984,0.230021,0.0,0.0
133,33,107.149,157.18,145.109,102.017,99.4519,0.0103415,1.74287,19.1791,466.004,0.23363,0.0,0.0
140,34.75,101.765,147,149.992,102.051,99.8976,0.00863473,1.47179,19.6511,465.964,0.195711,0.0,0.0
147,36.5,96.6423,136.405,153.287,102.054,100.165,0.00753614,1.19328,19.9849,465.984,0.171372,0.0,0.0
154,38.25,90.933,127.148,151.199,102.052,100.719,0.00669278,0.969427,20.2227,466.024,0.1206,0.0,0.0
161,40,86.9057,118.77,151.086,102.06,100.233,0.00587181,0.780515,20.4098,465.994,0.16579,0.0,0.0
168,41.75,83.0678,111.517,147.823,102.107,100.214,0.00511377,0.634162,20.5313,466.014,0.171731,0.0,0.0
175,43.5,79.7125,105.749,148.028,102.099,100.521,0.00422061,0.522112,20.6159,466.104,0.142942,0.0,0.0
182,45.25,76.4875,100.385,150.396,102.1,100.312,0.00347144,0.438142,20.673,466.064,0.162144,0.0,0.0
189,47,74.1666,95.2597,154.574,102.109,100.169,0.00289924,0.367054,20.7166,466.034,0.175966,0.0,0.0
196,48.75,71.3186,90.6913,156.619,102.12,100.521,0.00236598,0.315743,20.745,465.994,0.144748,0.0,0.0
203,50.5,69.4417,86.8592,152.489,102.133,100.479,0.00170525,0.270058,20.7664,465.994,0.149813,0.0,0.0
210,52.25,67.2044,82.5948,153.539,102.129,100.183,0.00118577,0.236802,20.7858,465.984,0.176527,0.0,0.0
217,54,65.9423,79.4175,155.932,102.135,100.272,0.000807606,0.209473,20.8016,465.974,0.168875,0.0,0.0
224,55.75,64.054,76.9008,151.637,102.148,100.49,0.00051921,0.187821,20.8126,465.944,0.150091,0.0,0.0
231,57.5,62.2066,74.2343,154.01,102.162,100.419,0.000284953,0.17054,20.822,465.974,0.157881,0.0,0.0
238,59.25,61.2703,71.2676,150.478,102.17,100.463,0.000134666,0.156524,20.8299,465.984,0.154628,0.0,0.0
245,61,59.6406,69.7257,153.454,102.161,100.213,0.000129999,0.14475,20.8357,465.974,0.176676,0.0,0.0
252,62.75,58.9779,67.5038,155.41,102.181,100.761,0.000246226,0.135132,20.8413,465.954,0.128406,0.0,0.0
259,64.5,57.9158,66.6735,154.493,102.185,100.183,0.000354575,0.127037,20.8447,465.964,0.181524,0.0,0.0
266,66.25,56.5669,64.7976,156.802,102.192,100.267,0.000257452,0.120526,20.8472,465.954,0.174532,0.0,0.0
273,68,55.9757,62.7408,151.443,102.191,100.392,3.59316e-05,0.114906,20.8502,465.924,0.163049,0.0,0.0
280,69.75,55.6063,61.4215,153.396,102.195,100.213,-0.000161663,0.110088,20.8518,465.934,0.179674,0.0,0.0
287,71.5,54.6228,60.6024,150.676,102.208,100.422,-0.000393668,0.106125,20.8528,465.934,0.161701,0.0,0.0
294,73.25,53.847,59.4286,156.377,102.226,100.655,-0.000515619,0.103124,20.8541,465.914,0.14205,0.0,0.0
301,75,53.2053,57.9131,152.481,102.214,100.499,-0.000562648,0.100502,20.8552,465.924,0.15531,0.0,0.0
308,76.75,52.6333,57.3853,152.488,102.219,100.81,-0.000580441,0.0980929,20.8569,465.914,0.127361,0.0,0.0
315,78.5,52.0864,56.6188,150.943,102.218,100.265,-0.000557103,0.0961285,20.8577,465.964,0.176964,0.0,0.0
322,80.25,51.7428,56.1008,153.852,102.239,100.42,-0.000500953,0.0946352,20.8594,465.954,0.164699,0.0,0.0
329,82,51.2709,55.1658,152.371,102.239,100.29,-0.00047851,0.0933789,20.8606,465.964,0.176578,0.0,0.0
336,83.75,50.7159,54.6341,156.359,102.229,100.333,-0.000513684,0.0921489,20.8611,465.974,0.171831,0.0,0.0
343,85.5,50.7433,54.0509,154.462,102.235,100.08,-0.00058819,0.0909933,20.8614,465.964,0.19551,0.0,0.0
350,87.25,50.2223,53.5708,157.153,102.235,100.663,-0.000623531,0.089994,20.8615,465.964,0.142198,0.0,0.0
357,89,49.9042,53.3065,156.508,102.229,100.58,-0.000551528,0.0891777,20.8625,465.984,0.149228,0.0,0.0
364,90.75,49.6006,52.9415,154.207,102.226,100.338,-0.000415678,0.0885715,20.8631,465.964,0.171072,0.0,0.0
371,92.5,49.3228,52.6347,151.14,102.225,100.411,-0.000277849,0.0879733,20.8631,465.984,0.164285,0.0,0.0
378,94.25,49.1759,51.7439,149.607,102.232,100.177,-0.000274143,0.0873212,20.8634,465.964,0.186301,0.0,0.0
385,96,48.9042,51.7709,153.616,102.241,101.126,-0.000348939,0.0868567,20.8636,465.954,0.10062,0.0,0.0
392,97.75,48.264,51.9004,148.931,102.238,100.572,-0.00036548,0.0864045,20.8629,465.944,0.150744,0.0,0.0
399,99.5,48.1702,51.3311,155.171,102.216,100.196,-0.000356852,0.0859725,20.8633,465.954,0.183139,0.0,0.0
406,101.25,47.8941,51.5387,155.909,102.209,100.3,-0.000416945,0.0856322,20.8639,465.944,0.172996,0.0,0.0
413,103,48.1352,50.943,158.296,102.22,100.349,-0.000483451,0.0853005,20.8643,465.944,0.169497,0.0,0.0
420,104.75,47.6901,50.5845,154.45,102.216,100.468,-0.00052592,0.085052,20.8645,465.954,0.15831,0.0,0.0
427,106.5,47.4058,50.4397,151.012,102.211,100.82,-0.000528418,0.0847979,20.8645,465.944,0.125781,0.0,0.0
434,108.25,47.1765,50.0527,154.45,102.207,100.117,-0.000517409,0.0845407,20.8646,465.904,0.189647,0.0,0.0
441,110,47.2397,49.8629,158.331,102.207,100.35,-0.000528491,0.0843399,20.8655,465.914,0.168294,0.0,0.0
448,111.75,46.7493,49.724,157.1,102.233,100.184,-0.000559088,0.0840735,20.866,465.904,0.185808,0.0,0.0
455,113.5,46.7827,49.2603,153.587,102.214,100.528,-0.000576192,0.0838733,20.866,465.894,0.152625,0.0,0.0
462,115.25,47.1532,49.3121,151.055,102.211,100.356,-0.000568212,0.0835241,20.8661,465.914,0.168069,0.0,0.0
469,117,46.9768,49.5161,155.164,102.215,100.619,-0.000538635,0.0832535,20.8665,465.924,0.14437,0.0,0.0
476,118.75,47.2157,49.3596,153.297,102.21,100.326,-0.000525857,0.0830178,20.867,465.924,0.170731,0.0,0.0
483,120.5,46.0089,49.435,156.251,102.225,100.289,-0.000508568,0.0829541,20.8672,465.984,0.175496,0.0,0.0
490,122.25,46.7835,48.8171,152.223,102.22,100.171,-0.000434562,0.0827595,20.8673,465.924,0.185739,0.0,0.0
497,124,46.3557,48.8459,155.228,102.208,100.046,-0.000368415,0.0825708,20.8665,465.934,0.19623,0.0,0.0
504,125.75,46.0135,48.4688,150.089,102.214,100.186,-0.000378164,0.0823935,20.8658,465.994,0.183958,0.0,0.0
511,127.5,46.1777,48.4505,152.11,102.222,100.098,-0.000480293,0.0823086,20.8654,465.994,0.192653,0.0,0.0
518,129.25,45.6554,48.6487,149.35,102.212,100.423,-0.000505152,0.0822952,20.8652,465.924,0.162026,0.0,0.0
525,131,45.9594,48.5361,153.055,102.22,100.116,-0.000435948,0.0823503,20.8651,465.934,0.19085,0.0,0.0
532,132.75,45.899,48.5677,154.322,102.216,100.282,-0.000372131,0.0824526,20.8653,465.924,0.175201,0.0,0.0
539,134.5,45.5361,48.3595,149.454,102.217,100.05,-0.000337367,0.0825989,20.8656,465.924,0.196625,0.0,0.0
546,136.25,45.4781,48.5252,156.527,102.223,100.234,-0.000359989,0.0828017,20.8658,465.904,0.180314,0.0,0.0
553,138,45.4317,48.4315,156.389,102.208,100.048,-0.000437033,0.0831956,20.8658,465.944,0.196007,0.0,0.0
560,139.75,45.3771,47.8542,153.584,102.228,100.562,-0.000496432,0.0834517,20.866,465.904,0.150819,0.0,0.0
567,141.5,44.9105,48.1217,151.789,102.221,100.138,-0.000539806,0.0835615,20.8667,465.904,0.188834,0.0,0.0
574,143.25,45.1902,47.9965,154.629,102.221,100.628,-0.000592916,0.0835733,20.8666,465.954,0.14414,0.0,0.0
581,145,45.2654,47.2613,150.682,102.215,100.054,-0.000624346,0.0834329,20.8666,465.944,0.196115,0.0,0.0
588,146.75,45.2807,48.158,153.547,102.207,100.195,,0.083327,,465.944,0.182456,0.0,0.0
595,148.5,45.7487,47.9986,155.332,102.216,100.149,,0.0832095,,465.974,0.18745,0.0,0.0
602,150.25,44.6156,47.7684,151,102.229,100.356,,,,466.004,0.169697,0.0,0.0
609,152,44.3901,47.9744,154.667,102.225,101.173,,,,465.964,0.0948895,0.0,0.0
616,153.75,45.4137,47.8434,156.518,102.223,100.106,,,,465.974,0.192113,0.0,0.0
623,155.5,45.0058,47.5266,151.63,102.214,100.067,,,,465.954,0.194712,0.0,0.0
630,157.25,45.0042,47.5858,152.662,102.221,100.154,,,,465.904,0.187439,0.0,0.0
631,157.5,44.6315,48.0493,153.561,102.22,100.347,,,,465.914,0.169635,0.0,0.0