Folder: fsri_materials_database/01_Data/Pipe_Heat_Cable/MCC (part 2)

File: Pipe_Heat_Cable_MCC_30K_min_220126_R3.txt
Sample ID:	C:\MCC\MCC Cal\Test\Pipe_Heat_Cable_MCC_30K_min_220126_R3.txt
Sample Weight (mg):	4.82
Heating Rate (C/s):	0.5
Combustor Temp (C):	900
N2 Flow Rate (cc/min):	80
O2 Flow Rate (cc/min):	20
Calibration File:	C:\MCC\MCC Cal\Coeff1 JN10440_30_210304.txt.txt
T Correction Coefficients:	0	1.024463	0
Time Shift (s):	14
*
Time (s)	Temperature (C)	N2 flow rate (cc/min)	O2 flow rate (cc/min)	Flow Rate (cc/min)	Oxygen (%)	HRR (W/g)	Heating rate (C/s)
0.000	112.968	80.009	19.993	103.746	20.128	-0.145	0.013
7.500	112.865	80.008	19.993	103.749	20.127	-0.077	-0.012
15.000	113.030	80.010	19.993	103.793	20.118	0.526	0.029
22.500	113.381	80.008	19.993	103.836	20.110	1.061	0.066
30.000	113.914	80.007	19.994	103.888	20.100	1.755	0.096
37.500	114.834	80.007	19.993	103.941	20.092	2.229	0.137
45.000	116.145	80.007	19.993	103.999	20.083	2.901	0.188
52.500	117.927	80.007	19.995	103.979	20.081	2.986	0.240
60.000	120.069	80.007	19.994	104.019	20.079	3.147	0.292
67.500	122.559	80.007	19.994	104.019	20.081	3.031	0.356
75.000	125.246	80.009	19.994	104.005	20.076	3.325	0.366
82.500	128.135	80.007	19.994	104.021	20.078	3.216	0.392
90.000	131.261	80.010	19.994	104.019	20.076	3.338	0.436
97.500	134.564	80.010	19.993	104.015	20.073	3.509	0.465
105.000	137.963	80.009	19.993	104.017	20.077	3.264	0.476
112.500	141.512	80.007	19.993	104.012	20.078	3.219	0.473
120.000	145.140	80.007	19.994	104.008	20.076	3.332	0.489
127.501	148.850	80.009	19.994	104.000	20.081	2.993	0.473
135.000	152.574	80.007	19.995	103.985	20.085	2.742	0.490
142.501	156.287	80.007	19.993	103.981	20.087	2.586	0.496
150.000	159.941	80.007	19.994	103.981	20.084	2.814	0.456
157.500	163.526	80.009	19.993	103.969	20.087	2.626	0.451
165.000	167.280	80.007	19.995	103.962	20.083	2.861	0.519
172.500	170.831	80.009	19.994	103.961	20.084	2.817	0.481
180.000	174.399	80.010	19.994	103.942	20.086	2.661	0.453
187.500	178.005	80.009	19.993	103.945	20.086	2.674	0.475
195.000	181.578	80.007	19.993	103.950	20.083	2.858	0.518
202.500	185.117	80.007	19.994	103.950	20.081	2.990	0.457
210.000	188.773	80.007	19.994	103.944	20.082	2.966	0.464
217.500	192.400	80.008	19.994	103.948	20.080	3.051	0.495
225.000	196.030	80.006	19.993	103.943	20.080	3.058	0.492
232.500	199.658	80.009	19.993	103.944	20.074	3.472	0.503
240.000	203.349	80.009	19.993	103.941	20.068	3.870	0.492
247.500	207.066	80.010	19.994	103.947	20.060	4.429	0.520
255.000	210.747	80.009	19.993	103.945	20.053	4.889	0.486
262.501	214.513	80.009	19.995	103.941	20.043	5.545	0.493
270.000	218.240	80.009	19.993	103.938	20.032	6.320	0.502
277.500	222.012	80.007	19.994	103.926	20.021	7.011	0.522
285.000	225.752	80.007	19.993	103.923	20.009	7.833	0.513
292.500	229.578	80.008	19.994	103.919	19.993	8.921	0.532
300.000	233.327	80.007	19.993	103.916	19.976	10.092	0.503
307.500	237.137	80.007	19.993	103.903	19.954	11.515	0.501
315.000	240.908	80.008	19.994	103.906	19.924	13.567	0.480
322.500	244.746	80.009	19.994	103.911	19.895	15.511	0.511
330.000	248.542	80.008	19.993	103.907	19.866	17.487	0.483
337.500	252.491	80.010	19.994	103.904	19.828	20.047	0.524
345.000	256.245	80.011	19.994	103.905	19.788	22.724	0.493
352.500	259.904	80.008	19.995	103.895	19.732	26.452	0.468
360.000	263.471	80.007	19.996	103.898	19.674	30.346	0.473
367.500	267.060	80.008	19.996	103.894	19.613	34.445	0.472
375.000	270.677	80.009	19.994	103.897	19.550	38.727	0.494
382.500	274.240	80.009	19.995	103.907	19.474	43.882	0.479
390.000	277.794	80.008	19.994	103.972	19.332	53.515	0.440
397.500	281.421	80.008	19.994	104.162	19.016	74.580	0.479
405.000	285.014	80.008	19.993	103.955	18.500	109.305	0.462
412.500	288.701	80.008	19.994	103.799	18.287	123.643	0.485
420.000	292.423	80.007	19.993	103.876	18.227	127.582	0.502
427.500	296.183	80.009	19.994	103.846	18.195	129.692	0.483
435.000	299.934	80.008	19.994	103.749	18.321	121.309	0.472
442.500	303.796	80.007	19.994	103.822	18.510	108.607	0.499
450.000	307.627	80.008	19.995	103.843	18.701	95.725	0.500
457.500	311.488	80.007	19.995	103.825	18.946	79.264	0.521
465.000	315.314	80.007	19.994	103.824	19.232	60.069	0.501
472.500	319.132	80.007	19.993	103.827	19.517	40.876	0.486
480.000	322.940	80.007	19.995	103.867	19.749	25.307	0.532
487.500	326.749	80.009	19.994	103.830	19.909	14.578	0.512
495.000	330.534	80.008	19.995	103.837	19.989	9.161	0.485
502.500	334.463	80.009	19.993	103.825	20.037	5.930	0.531
510.000	338.323	80.011	19.994	103.848	20.065	4.083	0.535
517.500	342.104	80.009	19.994	103.850	20.078	3.168	0.521
525.000	345.870	80.007	19.996	103.867	20.087	2.598	0.499
532.500	349.731	80.007	19.993	103.889	20.094	2.120	0.546
540.000	353.574	80.007	19.993	103.869	20.100	1.723	0.527
547.500	357.283	80.007	19.995	103.877	20.102	1.556	0.501
555.000	360.999	80.006	19.995	103.891	20.105	1.414	0.475
562.500	364.739	80.009	19.994	103.869	20.099	1.764	0.492
570.000	368.451	80.008	19.994	103.873	20.102	1.581	0.487
577.500	372.198	80.008	19.995	103.864	20.100	1.699	0.490
585.000	375.988	80.009	19.994	103.906	20.097	1.937	0.477
592.500	379.774	80.010	19.992	103.875	20.090	2.383	0.518
600.000	383.533	80.009	19.994	103.903	20.085	2.699	0.531
607.500	387.317	80.007	19.994	103.905	20.074	3.470	0.528
615.000	391.070	80.006	19.995	103.901	20.068	3.877	0.526
622.500	394.856	80.009	19.995	103.896	20.055	4.739	0.508
630.000	398.637	80.008	19.995	103.900	20.044	5.468	0.521
637.500	402.439	80.006	19.995	103.902	20.033	6.229	0.520
645.000	406.267	80.006	19.995	103.900	20.018	7.256	0.500
652.500	410.080	80.007	19.994	103.901	19.993	8.905	0.513
660.000	413.897	80.007	19.993	103.902	19.969	10.553	0.499
667.500	417.691	80.007	19.993	103.892	19.940	12.457	0.523
675.001	421.503	80.008	19.995	103.899	19.907	14.702	0.492
682.500	425.207	80.008	19.993	103.885	19.866	17.472	0.491
690.000	428.908	80.007	19.995	103.893	19.824	20.281	0.523
697.500	432.575	80.008	19.994	103.878	19.777	23.410	0.500
705.000	436.224	80.007	19.996	103.896	19.732	26.456	0.477
712.500	439.861	80.006	19.994	103.878	19.696	28.913	0.489
720.000	443.496	80.006	19.993	103.893	19.658	31.443	0.474
727.500	447.173	80.007	19.996	103.897	19.631	33.236	0.508
735.000	450.935	80.007	19.993	103.896	19.622	33.873	0.502
742.500	454.706	80.008	19.995	103.875	19.624	33.705	0.507
750.000	458.593	80.008	19.995	103.880	19.626	33.590	0.533
757.500	462.529	80.010	19.994	103.877	19.632	33.184	0.529
765.000	466.399	80.009	19.994	103.881	19.643	32.449	0.514
772.500	470.269	80.008	19.994	103.892	19.668	30.797	0.502
780.000	474.188	80.007	19.994	103.893	19.697	28.794	0.535
787.500	478.130	80.008	19.993	103.872	19.734	26.365	0.532
795.000	482.057	80.008	19.993	103.867	19.770	23.888	0.530
802.500	485.912	80.006	19.995	103.870	19.814	20.970	0.493
810.000	489.859	80.007	19.994	103.865	19.858	17.960	0.552
817.500	493.745	80.008	19.994	103.864	19.901	15.124	0.508
825.000	497.648	80.008	19.994	103.865	19.939	12.542	0.484
832.500	501.489	80.007	19.995	103.861	19.976	10.075	0.526
840.000	505.294	80.009	19.995	103.860	19.996	8.744	0.456
847.500	508.913	80.007	19.994	103.859	20.022	6.941	0.371
855.000	512.893	80.007	19.994	103.864	20.041	5.674	0.616
862.500	516.618	80.007	19.994	103.867	20.052	4.916	0.531
870.000	520.530	80.009	19.993	103.865	20.060	4.398	0.511
877.500	524.494	80.007	19.995	103.863	20.068	3.903	0.502
885.000	528.475	80.006	19.995	103.870	20.080	3.074	0.540
892.500	532.428	80.008	19.993	103.863	20.085	2.747	0.536
900.000	536.470	80.008	19.993	103.861	20.088	2.515	0.529
907.500	540.447	80.008	19.994	103.858	20.093	2.195	0.519
915.000	544.334	80.009	19.994	103.868	20.100	1.734	0.489
922.500	548.236	80.010	19.994	103.864	20.106	1.309	0.511
930.001	552.141	80.006	19.994	103.861	20.107	1.263	0.541
937.500	556.081	80.006	19.994	103.858	20.107	1.230	0.536
945.000	559.960	80.008	19.995	103.848	20.105	1.394	0.503
952.500	563.797	80.007	19.993	103.860	20.106	1.298	0.504
960.000	567.600	80.006	19.995	103.861	20.111	1.011	0.512
967.500	571.478	80.008	19.995	103.845	20.109	1.142	0.541
975.000	575.370	80.008	19.994	103.861	20.111	0.967	0.549
982.500	579.198	80.009	19.994	103.863	20.114	0.789	0.542
990.000	583.013	80.008	19.994	103.864	20.116	0.618	0.539
997.500	586.803	80.006	19.994	103.859	20.118	0.483	0.496
1005.000	590.568	80.011	19.994	103.860	20.115	0.706	0.466
1012.500	594.329	80.007	19.993	103.853	20.120	0.395	0.511
1020.000	598.067	80.007	19.994	103.855	20.126	-0.037	0.483
1027.500	601.846	80.006	19.997	103.855	20.123	0.149	0.475
1035.000	605.615	80.007	19.994	103.849	20.124	0.142	0.485
1042.501	609.474	80.007	19.995	103.862	20.124	0.110	0.533
1050.000	613.285	80.007	19.992	103.842	20.125	0.051	0.513
1057.500	617.265	80.008	19.994	103.862	20.126	-0.020	0.516
1065.000	621.120	80.009	19.993	103.854	20.126	-0.039	0.511
1072.500	624.987	80.008	19.993	103.852	20.129	-0.200	0.494
1080.000	628.816	80.009	19.993	103.854	20.129	-0.254	0.502
1087.500	632.665	80.010	19.994	103.845	20.129	-0.197	0.497
1095.000	636.486	80.009	19.994	103.851	20.131	-0.377	0.500
1102.501	640.332	80.006	19.995	103.849	20.137	-0.774	0.504
1110.000	644.101	80.007	19.995	103.856	20.141	-1.018	0.507
1117.500	647.928	80.006	19.995	103.845	20.140	-0.982	0.523
1125.000	651.711	80.007	19.995	103.835	20.143	-1.169	0.473
1132.501	655.578	80.007	19.994	103.830	20.141	-1.062	0.526
1140.000	659.444	80.010	19.994	103.837	20.147	-1.445	0.544
1147.500	663.118	80.009	19.995	103.836	20.143	-1.154	0.488
1155.000	666.809	80.009	19.994	103.826	20.145	-1.281	0.465
1162.500	670.450	80.010	19.995	103.829	20.147	-1.413	0.477
1170.000	674.127	80.010	19.994	103.830	20.151	-1.680	0.502
1177.501	678.160	80.007	19.994	103.845	20.147	-1.414	0.570
1185.000	682.338	80.008	19.995	103.839	20.149	-1.546	0.559
1192.500	686.593	80.008	19.994	103.833	20.147	-1.467	0.569
1200.000	690.673	80.006	19.994	103.826	20.148	-1.520	0.532
1207.500	694.779	80.005	19.994	103.840	20.149	-1.577	0.549
1215.000	699.013	80.008	19.997	103.844	20.149	-1.588	0.581
1222.500	703.184	80.011	19.994	103.846	20.147	-1.452	0.576
1230.001	707.392	80.007	19.993	103.828	20.149	-1.544	0.567
1237.500	711.526	80.008	19.993	103.833	20.144	-1.237	0.556
1245.000	715.700	80.010	19.994	103.836	20.148	-1.494	0.575
1252.501	719.746	80.008	19.993	103.834	20.147	-1.413	0.524
1260.000	723.793	80.008	19.994	103.840	20.150	-1.658	0.541
1267.501	727.797	80.008	19.994	103.825	20.148	-1.516	0.517
1275.000	731.759	80.009	19.995	103.840	20.150	-1.641	0.529
1282.501	735.700	80.008	19.994	103.836	20.152	-1.786	0.543
1290.000	739.571	80.006	19.994	103.828	20.146	-1.402	0.534
1297.500	743.390	80.007	19.995	103.825	20.147	-1.417	0.524
1298.500	743.879	80.007	19.995	103.831	20.149	-1.538	0.503

File: Pipe_Heat_Cable_MCC_30K_min_220201_R4.txt
Sample ID:	C:\MCC\MCC Cal\Test\Pipe_Heat_Cable\Pipe_Heat_Cable_MCC_30K_min_220201_R4.txt
Sample Weight (mg):	4.73
Heating Rate (C/s):	0.5
Combustor Temp (C):	900
N2 Flow Rate (cc/min):	80
O2 Flow Rate (cc/min):	20
Calibration File:	C:\MCC\MCC Cal\Coeff1 JN10440_30_210304.txt.txt
T Correction Coefficients:	0	1.024463	0
Time Shift (s):	14
*
Time (s)	Temperature (C)	N2 flow rate (cc/min)	O2 flow rate (cc/min)	Flow Rate (cc/min)	Oxygen (%)	HRR (W/g)	Heating rate (C/s)
0.000	114.176	80.011	19.993	103.795	20.042	0.158	0.012
8.000	114.202	80.009	19.994	103.786	20.039	0.319	0.016
16.000	114.222	80.012	19.993	103.824	20.035	0.582	0.022
24.000	114.366	80.009	19.994	103.897	20.018	1.753	0.033
32.000	114.811	80.008	19.995	103.897	20.020	1.657	0.078
40.000	115.512	80.009	19.995	103.959	20.007	2.542	0.104
48.001	116.635	80.008	19.993	103.979	20.003	2.808	0.139
56.000	118.062	80.008	19.994	103.992	19.998	3.178	0.222
64.000	119.799	80.008	19.996	104.024	19.992	3.592	0.241
72.000	122.042	80.009	19.994	104.025	19.994	3.433	0.332
80.000	124.456	80.011	19.994	104.023	19.986	4.007	0.320
88.000	127.161	80.009	19.993	104.004	19.987	3.920	0.330
96.000	130.152	80.011	19.993	104.060	19.987	3.933	0.386
104.000	133.333	80.013	19.995	104.056	19.987	3.922	0.422
112.000	136.758	80.009	19.993	104.056	19.981	4.308	0.470
120.000	140.286	80.008	19.993	104.055	19.982	4.271	0.403
128.000	144.014	80.006	19.994	104.051	19.987	3.882	0.475
136.000	147.741	80.009	19.995	104.040	19.984	4.121	0.452
144.000	151.624	80.010	19.995	104.093	19.982	4.244	0.461
152.000	155.523	80.010	19.995	104.026	19.981	4.290	0.475
160.000	159.470	80.011	19.995	104.026	19.978	4.498	0.480
168.000	163.506	80.010	19.994	104.025	19.976	4.664	0.504
176.000	167.486	80.010	19.995	104.022	19.974	4.777	0.475
184.000	171.562	80.011	19.993	104.022	19.974	4.771	0.532
192.000	175.588	80.010	19.993	104.011	19.974	4.830	0.536
200.000	179.662	80.009	19.994	103.991	19.976	4.638	0.515
208.000	183.619	80.009	19.994	103.982	19.973	4.888	0.509
216.000	187.645	80.009	19.994	103.984	19.971	5.028	0.487
224.000	191.624	80.010	19.994	103.980	19.968	5.220	0.495
232.000	195.558	80.008	19.995	103.979	19.964	5.468	0.496
240.000	199.425	80.009	19.994	103.990	19.962	5.605	0.489
248.000	203.381	80.010	19.993	103.984	19.954	6.189	0.504
256.000	207.379	80.009	19.993	103.982	19.946	6.733	0.524
264.000	211.390	80.012	19.993	103.981	19.939	7.195	0.511
272.000	215.433	80.013	19.994	103.970	19.925	8.185	0.521
280.000	219.440	80.010	19.993	103.975	19.913	8.988	0.506
288.000	223.430	80.011	19.994	103.969	19.899	9.933	0.507
296.000	227.358	80.009	19.993	103.966	19.878	11.355	0.498
304.000	231.330	80.008	19.995	103.967	19.856	12.857	0.484
312.000	235.338	80.009	19.995	103.972	19.834	14.375	0.505
320.000	239.253	80.009	19.992	103.968	19.806	16.311	0.489
328.000	243.199	80.011	19.995	103.960	19.776	18.358	0.496
336.000	247.114	80.011	19.993	103.949	19.738	20.994	0.480
344.000	251.210	80.010	19.994	103.939	19.697	23.795	0.526
352.000	255.145	80.013	19.993	103.943	19.646	27.306	0.499
360.000	259.053	80.014	19.993	103.936	19.586	31.378	0.491
368.000	262.889	80.009	19.994	103.948	19.521	35.888	0.461
376.000	266.786	80.009	19.994	103.948	19.448	40.918	0.467
384.000	270.707	80.009	19.993	103.980	19.356	47.261	0.539
392.000	274.592	80.011	19.992	104.084	19.162	60.539	0.490
400.000	278.514	80.009	19.995	104.167	18.737	89.556	0.335
408.000	282.489	80.009	19.995	103.933	18.341	116.684	0.446
416.000	286.509	80.010	19.993	103.901	18.167	128.626	0.526
424.000	290.606	80.010	19.994	103.925	18.122	131.652	0.501
432.000	294.734	80.010	19.994	103.881	18.106	132.922	0.498
440.000	298.883	80.010	19.995	103.909	18.131	131.084	0.502
448.000	303.049	80.011	19.993	103.959	18.064	135.551	0.531
456.000	307.201	80.010	19.994	103.941	18.168	128.474	0.516
464.000	311.356	80.010	19.994	103.509	19.002	71.397	0.536
472.000	315.512	80.013	19.994	103.966	19.596	30.659	0.490
480.000	319.594	80.011	19.993	103.875	19.818	15.449	0.515
488.000	323.642	80.010	19.993	103.858	19.897	10.060	0.532
496.000	327.699	80.011	19.993	103.869	19.938	7.287	0.479
504.000	331.672	80.013	19.994	103.888	19.953	6.219	0.514
512.000	335.702	80.010	19.994	103.897	19.961	5.667	0.513
520.000	339.619	80.010	19.993	103.902	19.965	5.424	0.466
528.000	343.627	80.012	19.995	103.908	19.969	5.113	0.508
536.000	347.579	80.011	19.996	103.908	19.974	4.783	0.489
544.000	351.596	80.011	19.995	103.905	19.971	5.005	0.474
552.000	355.661	80.011	19.995	103.900	19.971	5.011	0.510
560.000	359.652	80.012	19.996	103.913	19.972	4.940	0.521
568.000	363.677	80.010	19.993	103.921	19.970	5.077	0.520
576.000	367.799	80.011	19.993	103.913	19.966	5.309	0.478
584.000	371.857	80.011	19.993	103.904	19.961	5.683	0.508
592.000	375.944	80.011	19.994	103.906	19.955	6.062	0.502
600.000	380.041	80.013	19.992	103.902	19.943	6.895	0.521
608.000	384.139	80.011	19.996	103.901	19.937	7.308	0.513
616.000	388.254	80.014	19.994	103.903	19.928	7.940	0.503
624.000	392.336	80.010	19.995	103.900	19.915	8.815	0.525
632.000	396.515	80.010	19.993	103.930	19.910	9.167	0.540
640.000	400.528	80.009	19.994	103.906	19.899	9.947	0.522
648.000	404.594	80.010	19.993	103.907	19.868	12.063	0.512
656.000	408.617	80.010	19.994	103.899	19.835	14.352	0.477
664.000	412.590	80.010	19.994	103.895	19.804	16.443	0.471
672.000	416.563	80.013	19.993	103.897	19.765	19.137	0.511
680.000	420.602	80.011	19.993	103.892	19.727	21.718	0.510
688.000	424.662	80.011	19.993	103.894	19.684	24.691	0.520
696.000	428.708	80.014	19.993	103.830	19.633	28.136	0.506
704.000	432.804	80.012	19.994	103.893	19.589	31.201	0.524
712.000	436.815	80.010	19.993	103.900	19.547	34.046	0.481
720.000	440.877	80.010	19.993	103.900	19.509	36.651	0.454
728.000	444.895	80.010	19.993	103.902	19.489	38.002	0.494
736.000	448.905	80.011	19.995	103.895	19.477	38.838	0.526
744.000	452.922	80.009	19.995	103.896	19.476	38.922	0.485
752.000	456.994	80.011	19.994	103.889	19.478	38.774	0.515
760.000	461.113	80.014	19.993	103.897	19.495	37.600	0.541
768.000	465.188	80.012	19.994	103.889	19.516	36.190	0.537
776.000	469.357	80.011	19.994	103.900	19.547	34.074	0.521
784.000	473.441	80.012	19.993	103.882	19.590	31.109	0.508
792.000	477.599	80.013	19.992	103.886	19.631	28.304	0.503
800.000	481.719	80.011	19.995	103.883	19.677	25.114	0.498
808.000	485.806	80.012	19.994	103.889	19.725	21.881	0.520
816.000	489.878	80.010	19.995	103.875	19.767	18.988	0.511
824.000	493.885	80.011	19.994	103.877	19.804	16.423	0.518
832.000	497.891	80.009	19.995	103.882	19.835	14.304	0.505
840.000	501.918	80.010	19.994	103.882	19.863	12.388	0.514
848.000	505.954	80.012	19.992	103.880	19.885	10.906	0.527
856.000	510.003	80.012	19.993	103.879	19.898	9.970	0.488
864.000	514.057	80.011	19.994	103.871	19.914	8.911	0.492
872.000	518.204	80.014	19.993	103.872	19.921	8.419	0.507
880.000	522.291	80.013	19.994	103.877	19.925	8.129	0.522
888.000	526.335	80.013	19.994	103.861	19.934	7.530	0.490
896.000	530.463	80.010	19.993	103.863	19.935	7.446	0.503
904.000	534.523	80.013	19.995	103.861	19.941	7.024	0.495
912.000	538.597	80.011	19.994	103.861	19.945	6.768	0.508
920.000	542.618	80.011	19.993	103.867	19.945	6.747	0.511
928.000	546.559	80.011	19.994	103.862	19.948	6.548	0.495
936.000	550.552	80.010	19.995	103.859	19.949	6.485	0.516
944.000	554.611	80.011	19.995	103.863	19.953	6.262	0.516
952.000	558.727	80.013	19.993	103.862	19.952	6.278	0.521
960.000	562.900	80.014	19.993	103.859	19.955	6.103	0.509
968.000	567.071	80.011	19.994	103.861	19.952	6.292	0.525
976.000	571.219	80.011	19.993	103.861	19.956	6.032	0.517
984.000	575.384	80.012	19.993	103.861	19.953	6.252	0.510
992.000	579.489	80.011	19.993	103.863	19.954	6.155	0.479
1000.000	583.568	80.010	19.994	103.866	19.955	6.127	0.508
1008.000	587.654	80.011	19.995	103.858	19.957	5.942	0.527
1016.000	591.733	80.013	19.994	103.859	19.959	5.814	0.514
1024.000	595.879	80.012	19.995	103.863	19.963	5.562	0.520
1032.000	599.958	80.011	19.994	103.862	19.960	5.724	0.486
1040.000	604.005	80.013	19.996	103.858	19.960	5.776	0.523
1048.000	608.066	80.013	19.995	103.856	19.959	5.853	0.491
1056.000	612.169	80.010	19.994	103.860	19.961	5.699	0.508
1064.000	616.195	80.010	19.994	103.865	19.963	5.512	0.512
1072.000	620.133	80.011	19.993	103.854	19.961	5.674	0.507
1080.000	624.103	80.011	19.993	103.862	19.958	5.917	0.504
1088.000	628.044	80.010	19.992	103.858	19.966	5.359	0.486
1096.000	632.044	80.012	19.994	103.860	19.967	5.247	0.525
1104.000	636.169	80.012	19.995	103.858	19.968	5.229	0.502
1112.000	640.258	80.012	19.994	103.860	19.970	5.080	0.521
1120.000	644.373	80.012	19.993	103.861	19.971	4.978	0.516
1128.000	648.632	80.012	19.994	103.862	19.968	5.208	0.547
1136.000	652.870	80.011	19.994	103.860	19.969	5.129	0.543
1144.000	657.235	80.010	19.993	103.857	19.970	5.057	0.540
1152.001	661.512	80.011	19.994	103.858	19.972	4.918	0.530
1160.000	665.756	80.011	19.994	103.859	19.973	4.843	0.519
1168.000	669.805	80.011	19.995	103.857	19.974	4.772	0.476
1176.000	673.970	80.012	19.994	103.860	19.980	4.398	0.537
1184.000	678.053	80.013	19.994	103.851	19.979	4.479	0.500
1192.000	682.110	80.012	19.993	103.853	19.980	4.367	0.501
1200.000	686.096	80.012	19.995	103.858	19.980	4.401	0.498
1208.000	690.146	80.013	19.993	103.848	19.981	4.321	0.507
1216.000	694.166	80.014	19.993	103.853	19.981	4.298	0.502
1224.000	698.415	80.010	19.993	103.857	19.981	4.294	0.557
1232.001	702.704	80.010	19.995	103.855	19.978	4.512	0.530
1240.000	706.987	80.011	19.995	103.847	19.981	4.314	0.542
1248.000	711.098	80.012	19.994	103.828	19.988	3.850	0.491
1256.001	715.140	80.011	19.993	103.834	19.987	3.902	0.503
1264.000	719.150	80.013	19.995	103.836	19.986	3.977	0.471
1272.000	723.055	80.012	19.994	103.839	19.984	4.111	0.453
1280.000	726.998	80.013	19.993	103.844	19.992	3.576	0.479
1288.000	730.941	80.013	19.992	103.831	19.988	3.842	0.502
1296.000	734.936	80.013	19.994	103.831	19.990	3.682	0.477
1304.000	738.879	80.011	19.995	103.831	19.987	3.896	0.472
1312.001	742.867	80.012	19.995	103.834	19.985	4.008	0.488
1313.501	743.611	80.010	19.994	103.827	19.988	3.809	0.499