Folder: fsri_materials_database/01_Data/Bamboo_Rug_B/STA/N2/10K_min

Note: 01_Data/README.md
# Materials and Products Database
## 01_Data

Raw data generated from each apparatus are included here in plain-text format. The data is organized first by material, next by the short name of test apparatus used, and where applicable additional filtering by test settings.

### material.json

Each material directory contains a json file of the same name as the material. This file links the data stored in the repository as well as data and graphs produced by the accompanying scripts (__02_Scripts__) to the respective landing page for the material on the front-end website.

File: Bamboo_Rug_B_STA_N2_10KData_220124_R2.csv
##Temp./Â°C,Time/min,Mass loss(subtr.2)/mg,DSC(subtr.2)/(mW/mg),Sensit./(uV/mW)
49.171,10.01,0.00591,0.004849158,1.07448
52.471,11.3336,0.007934621,0.1108,1.07424
55.771,11.79703,0.00641698,0.15982,1.07398
59.071,12.19475,0.005750365,0.18911,1.07369
62.371,12.56748,0.006320511,0.20849,1.07338
65.671,12.92793,0.006545217,0.22568,1.07304
68.971,13.2833,0.003718472,0.23135,1.07268
72.271,13.63313,0.00504454,0.23596,1.07229
75.571,13.9806,0.003720701,0.24123,1.07187
78.871,14.32337,0.00376577,0.24595,1.07143
82.171,14.6641,0.002411327,0.2494,1.07097
85.471,14.99951,0.001096797,0.24918,1.07048
88.771,15.3319,0.00109187,0.25054,1.06996
92.071,15.66271,0.0004223494,0.24774,1.06942
95.371,15.9899,-0.000889995,0.2528,1.06886
98.671,16.3151,-0.001921945,0.25578,1.06826
101.971,16.6386,-0.000881129,0.2561,1.06765
105.271,16.9628,-0.002525784,0.25682,1.06701
108.571,17.2866,-0.004160917,0.25709,1.06634
111.871,17.60943,-0.00515998,0.25893,1.06565
115.171,17.93253,-0.003543819,0.25918,1.06494
118.471,18.2546,-0.005160009,0.26389,1.0642
121.771,18.57635,-0.005160071,0.26509,1.06344
125.071,18.8975,-0.005173002,0.26756,1.06265
128.371,19.218,-0.00763917,0.27153,1.06184
131.671,19.53793,-0.006480005,0.27185,1.061
134.971,19.8576,-0.00614999,0.27711,1.06014
138.271,20.17616,-0.00779547,0.2824,1.05926
141.571,20.4943,-0.008449991,0.28531,1.05835
144.871,20.81119,-0.00779207,0.28723,1.05742
148.171,21.12874,-0.009109996,0.29366,1.05646
151.471,21.4459,-0.009100214,0.30036,1.05548
154.771,21.76264,-0.01039563,0.30324,1.05448
158.071,22.0789,-0.00973731,0.30645,1.05345
161.371,22.39515,-0.01173993,0.31171,1.0524
164.671,22.71183,-0.01056591,0.31316,1.05133
167.971,23.02864,-0.0117466,0.31713,1.05023
171.271,23.34528,-0.01304998,0.32317,1.04911
174.571,23.66166,-0.01503,0.32665,1.04797
177.871,23.9792,-0.01503203,0.33112,1.0468
181.171,24.2956,-0.01799037,0.33247,1.04561
184.471,24.61208,-0.01933786,0.33582,1.0444
187.771,24.9271,-0.02060704,0.33995,1.04317
191.071,25.2411,-0.02195,0.34561,1.04191
194.371,25.55554,-0.02194645,0.35043,1.04063
197.671,25.87017,-0.02457,0.35847,1.03933
200.971,26.1842,-0.02753009,0.35903,1.038
204.271,26.49835,-0.02903433,0.36328,1.03666
207.571,26.8133,-0.03095304,0.361,1.03529
210.871,27.12919,-0.03404532,0.36252,1.0339
214.171,27.44487,-0.03774009,0.36617,1.03249
217.471,27.7605,-0.04136,0.37,1.03105
220.771,28.07524,-0.04497,0.37785,1.0296
224.071,28.39017,-0.04925528,0.38317,1.02812
227.371,28.7052,-0.05319737,0.38913,1.02662
230.671,29.0193,-0.05681098,0.39758,1.0251
233.971,29.3346,-0.06105358,0.40209,1.02356
237.271,29.6494,-0.06767058,0.41632,1.022
240.571,29.9643,-0.07426686,0.43954,1.02042
243.871,30.2796,-0.08094767,0.47612,1.01881
247.171,30.5951,-0.08780375,0.53617,1.01719
250.471,30.91136,-0.09691776,0.63357,1.01554
253.771,31.2275,-0.10742,0.63516,1.01388
257.071,31.5425,-0.11756,0.51362,1.01219
260.371,31.85603,-0.13142,0.43759,1.01049
263.671,32.16968,-0.1452,0.42225,1.00876
266.971,32.48348,-0.16214,0.42458,1.00702
270.271,32.7981,-0.18327,0.43016,1.00525
273.571,33.1143,-0.20609,0.43459,1.00347
276.871,33.42947,-0.23246,0.43763,1.00167
280.171,33.7458,-0.25909,0.44127,0.99984
283.471,34.0612,-0.28891,0.44492,0.998
286.771,34.37738,-0.31874,0.44354,0.99614
290.071,34.69341,-0.35236,0.4457,0.99426
293.371,35.00878,-0.3856,0.44468,0.99236
296.671,35.32476,-0.42067,0.44941,0.99044
299.971,35.6406,-0.45734,0.4523,0.98851
303.271,35.9563,-0.49664,0.46077,0.98655
306.571,36.2729,-0.53764,0.47118,0.98458
309.871,36.58878,-0.58227,0.48428,0.98259
313.171,36.90625,-0.62981,0.49944,0.98058
316.471,37.22421,-0.68043,0.52532,0.97855
319.771,37.54198,-0.7366,0.55404,0.97651
323.071,37.86031,-0.80046,0.5956,0.97445
326.371,38.17868,-0.87497,0.64434,0.97237
329.671,38.49673,-0.95789,0.7084,0.97027
332.971,38.81541,-1.06085,0.7838,0.96816
336.271,39.13427,-1.18525,0.86034,0.96603
339.571,39.4531,-1.33456,0.90744,0.96388
342.871,39.772,-1.50136,0.86358,0.96172
346.171,40.09005,-1.66924,0.67075,0.95954
349.471,40.40735,-1.80737,0.46534,0.95734
352.771,40.72497,-1.90885,0.3357,0.95513
356.071,41.04285,-1.97926,0.26311,0.9529
359.371,41.3645,-2.03156,0.22372,0.95066
362.671,41.687,-2.07376,0.20939,0.9484
365.971,42.00995,-2.11134,0.20199,0.94612
369.271,42.33256,-2.15072,0.20155,0.94383
372.571,42.6544,-2.18304,0.1969,0.94153
375.871,42.97661,-2.2189,0.20032,0.93921
379.171,43.29743,-2.25653,0.19945,0.93687
382.471,43.61792,-2.29264,0.19936,0.93452
385.771,43.93943,-2.32725,0.19279,0.93216
389.071,44.26084,-2.36596,0.19189,0.92978
392.371,44.58247,-2.40462,0.18948,0.92738
395.671,44.90331,-2.44357,0.18506,0.92498
398.971,45.225,-2.48485,0.18748,0.92255
402.271,45.5471,-2.52872,0.18576,0.92012
405.571,45.86938,-2.57525,0.18527,0.91767
408.871,46.19208,-2.62232,0.19289,0.91521
412.171,46.51482,-2.66882,0.19349,0.91273
415.471,46.83763,-2.71764,0.1925,0.91024
418.771,47.1607,-2.76547,0.19466,0.90774
422.071,47.48388,-2.8107,0.1955,0.90522
425.371,47.80715,-2.85429,0.19638,0.9027
428.671,48.13066,-2.89495,0.1962,0.90016
431.971,48.4538,-2.93265,0.19083,0.8976
435.271,48.77641,-2.96852,0.18489,0.89504
438.571,49.0987,-3.00025,0.17942,0.89246
441.871,49.42089,-3.03103,0.16482,0.88987
445.171,49.74418,-3.05775,0.14697,0.88727
448.471,50.06797,-3.08339,0.12874,0.88466
451.771,50.3912,-3.10318,0.1112,0.88204
455.071,50.7156,-3.12213,0.09108566,0.8794
458.371,51.0394,-3.13711,0.07817715,0.87676
461.671,51.3634,-3.15101,0.06604582,0.8741
464.971,51.68795,-3.16301,0.05938775,0.87143
468.271,52.0137,-3.17312,0.05415674,0.86876
471.571,52.3401,-3.18156,0.04724009,0.86607
474.871,52.6661,-3.18835,0.04352815,0.86337
478.171,52.9922,-3.19514,0.04112328,0.86066
481.471,53.3181,-3.20272,0.03805439,0.85794
484.771,53.64329,-3.20892,0.04099041,0.85521
488.071,53.9692,-3.21359,0.04544852,0.85248
491.371,54.2952,-3.21852,0.04865118,0.84973
494.671,54.621,-3.22245,0.0531907,0.84697
497.971,54.9466,-3.22939,0.05465587,0.84421
501.271,55.27295,-3.23311,0.05751914,0.84143
504.571,55.5999,-3.23716,0.05302218,0.83865
507.871,55.9264,-3.24254,0.05227952,0.83586
511.171,56.2526,-3.24634,0.05537167,0.83306
514.471,56.57864,-3.24913,0.05213469,0.83025
517.771,56.9052,-3.2531,0.04978893,0.82743
521.071,57.23166,-3.25638,0.04508085,0.82461
524.371,57.55865,-3.259,0.04408011,0.82177
527.671,57.8852,-3.26286,0.04183496,0.81893
530.971,58.2131,-3.26688,0.04043549,0.81609
534.271,58.54136,-3.2702,0.0392074,0.81323
537.571,58.8697,-3.27414,0.03562431,0.81037
540.871,59.19771,-3.27562,0.0336849,0.8075
544.171,59.52553,-3.27816,0.03550163,0.80462
547.471,59.85435,-3.28137,0.03222549,0.80174
550.771,60.1835,-3.28534,0.03442871,0.79885
554.071,60.51206,-3.28796,0.03223604,0.79595
557.371,60.84061,-3.29125,0.03024215,0.79305
560.671,61.1703,-3.29388,0.03157775,0.79014
563.971,61.5,-3.29618,0.03238554,0.78723
567.271,61.83002,-3.29793,0.03203508,0.78431
570.571,62.1602,-3.30221,0.03216325,0.78138
573.871,62.48998,-3.30353,0.03346603,0.77845
577.171,62.8213,-3.3068,0.02678154,0.77552
580.471,63.15084,-3.30946,0.02268539,0.77258
583.771,63.4801,-3.31341,0.01523755,0.76963
587.071,63.80956,-3.3157,0.00842941,0.76668
590.371,64.13908,-3.32098,0.00394962,0.76372
593.671,64.4688,-3.32229,0.00364763,0.76076
596.971,64.7989,-3.32623,-0.000746003,0.7578
600.271,65.1297,-3.32788,0.0002711051,0.75483
603.571,65.46125,-3.33096,0.001529613,0.75185
606.871,65.7925,-3.33446,0.01015227,0.74888
610.171,66.12266,-3.33713,0.01173971,0.7459
613.471,66.45198,-3.33725,0.02171214,0.74291
616.771,66.7813,-3.34105,0.02935218,0.73992
620.071,67.11234,-3.34351,0.03355447,0.73693
623.371,67.4437,-3.34235,0.03465089,0.73394
626.671,67.77458,-3.34598,0.03534236,0.73094
629.971,68.1058,-3.34598,0.03226044,0.72794
633.271,68.43757,-3.34763,0.02959463,0.72494
636.571,68.76884,-3.34895,0.03048293,0.72193
639.871,69.10005,-3.35124,0.02873686,0.71892
643.171,69.43133,-3.35289,0.03104388,0.71591
646.471,69.76335,-3.35457,0.03179471,0.7129
649.771,70.09529,-3.35456,0.03282997,0.70988
653.071,70.4269,-3.35586,0.03088997,0.70687
656.371,70.75883,-3.35717,0.02936811,0.70385
659.671,71.0909,-3.35914,0.0292067,0.70083
662.971,71.4225,-3.3611,0.02653433,0.69781
666.271,71.7535,-3.36112,0.03301715,0.69478
669.571,72.08406,-3.36177,0.03300476,0.69176
672.871,72.41466,-3.36309,0.03253339,0.68873
676.171,72.74622,-3.36441,0.03256813,0.68571
679.471,73.07822,-3.36441,0.03077673,0.68268
682.771,73.4101,-3.36703,0.02902352,0.67965
686.071,73.74308,-3.36845,0.03100014,0.67663
689.371,74.07593,-3.36841,0.03213872,0.6736
692.671,74.41067,-3.36967,0.03355462,0.67057
695.971,74.74455,-3.37196,0.02562415,0.66754
699.271,75.0775,-3.37066,0.02655157,0.66451
702.571,75.4095,-3.3736,0.02421137,0.66148
705.871,75.74172,-3.37559,0.02251303,0.65846
709.171,76.0736,-3.37494,0.02270727,0.65543
712.471,76.40604,-3.37494,0.02027038,0.6524
715.771,76.73935,-3.37724,0.0113928,0.64938
719.071,77.07376,-3.37658,0.00934343,0.64635
722.371,77.40924,-3.3792,0.003705,0.64332
725.671,77.7448,-3.3779,0.007074937,0.6403
728.971,78.07951,-3.37988,-0.001921811,0.63728
732.271,78.4144,-3.37974,-0.007349169,0.63426
735.571,78.7488,-3.38053,-0.005326845,0.63124
738.871,79.08287,-3.38185,-0.01024551,0.62822
742.171,79.41547,-3.38217,-0.00865248,0.6252
745.471,79.75004,-3.38217,-0.008666016,0.62219
748.771,80.08389,-3.3829,-0.009432328,0.61918
752.071,80.41864,-3.38551,-0.007702668,0.61617
755.371,80.75404,-3.3861,-0.01133014,0.61316
758.671,81.0885,-3.38612,-0.01436564,0.61015
761.971,81.42183,-3.38695,-0.01965284,0.60715
765.271,81.756,-3.38776,-0.01554357,0.60415
768.571,82.09094,-3.38908,-0.01985427,0.60115
771.871,82.42627,-3.38944,-0.0187604,0.59815
775.171,82.7618,-3.39102,-0.01975972,0.59516
778.471,83.09764,-3.39022,-0.02683946,0.59217
781.771,83.43189,-3.39172,-0.02892775,0.58918
785.071,83.76656,-3.39303,-0.02593377,0.5862
788.371,84.10076,-3.39402,-0.0335144,0.58322
791.671,84.43541,-3.39172,-0.03836622,0.58024
794.971,84.7713,-3.39401,-0.03856325,0.57726
797.171,84.99481,-3.39435,-0.0388237,0.57528

File: Bamboo_Rug_B_STA_N2_10KData_220125_R3.csv
##Temp./Â°C,Time/min,Mass loss(subtr.2)/mg,DSC(subtr.2)/(mW/mg),Sensit./(uV/mW)
49.296,10.00917,-0.00955,0.01920514,1.07447
52.596,11.3329,-0.008893485,0.1283,1.07423
55.896,11.79572,-0.009373576,0.17729,1.07397
59.196,12.19098,-0.009503509,0.20648,1.07368
62.496,12.56473,-0.00915639,0.22445,1.07337
65.796,12.92592,-0.009353634,0.2391,1.07303
69.096,13.28241,-0.009431199,0.24614,1.07266
72.396,13.63419,-0.01074948,0.24676,1.07227
75.696,13.9826,-0.01156539,0.25286,1.07186
78.996,14.32646,-0.01316862,0.25699,1.07141
82.296,14.66683,-0.01492176,0.25755,1.07095
85.596,15.0039,-0.01624633,0.26057,1.07046
88.896,15.3373,-0.02120865,0.26113,1.06994
92.196,15.6674,-0.01779545,0.25895,1.0694
95.496,15.9962,-0.01485607,0.25768,1.06883
98.796,16.32299,-0.01800606,0.25664,1.06824
102.096,16.6493,-0.01909014,0.25588,1.06763
105.396,16.97304,-0.01909257,0.25953,1.06698
108.696,17.29648,-0.01777567,0.25978,1.06632
111.996,17.61975,-0.01876996,0.26518,1.06563
115.296,17.94166,-0.01909331,0.26696,1.06491
118.596,18.26309,-0.01909,0.2679,1.06417
121.896,18.5843,-0.01788935,0.2707,1.06341
125.196,18.90598,-0.01755463,0.27319,1.06262
128.496,19.22673,-0.01621485,0.27628,1.06181
131.796,19.54756,-0.01624675,0.28113,1.06097
135.096,19.86767,-0.01756052,0.28356,1.06011
138.396,20.18743,-0.01888071,0.28613,1.05923
141.696,20.50647,-0.02052001,0.28588,1.05832
144.996,20.82508,-0.02054303,0.29086,1.05738
148.296,21.14255,-0.02183,0.29562,1.05643
151.596,21.46033,-0.02315,0.30112,1.05545
154.896,21.7778,-0.02436682,0.30571,1.05444
158.196,22.09499,-0.02413001,0.31104,1.05341
161.496,22.41186,-0.02511054,0.31545,1.05236
164.796,22.72851,-0.02677,0.31958,1.05129
168.096,23.04554,-0.02941002,0.3232,1.05019
171.396,23.36259,-0.02972993,0.32691,1.04907
174.696,23.67907,-0.02972977,0.33005,1.04793
177.996,23.99452,-0.03106243,0.33645,1.04676
181.296,24.31071,-0.03257748,0.33754,1.04557
184.596,24.6274,-0.03335,0.34105,1.04436
187.896,24.9432,-0.03360176,0.34377,1.04312
191.196,25.25887,-0.03563759,0.34603,1.04186
194.496,25.57401,-0.0359951,0.35218,1.04058
197.796,25.8886,-0.0396,0.35402,1.03928
201.096,26.20263,-0.04092069,0.35931,1.03795
204.396,26.5167,-0.04354598,0.36449,1.03661
207.696,26.8302,-0.04748842,0.36758,1.03524
210.996,27.1435,-0.05012996,0.37021,1.03385
214.296,27.45755,-0.0527838,0.3768,1.03243
217.596,27.7714,-0.05671001,0.38056,1.031
220.896,28.0851,-0.05900494,0.3863,1.02954
224.196,28.3986,-0.06329464,0.39206,1.02806
227.496,28.71245,-0.0678158,0.39836,1.02656
230.796,29.02618,-0.07255372,0.40322,1.02504
234.096,29.34008,-0.07780353,0.40872,1.0235
237.396,29.6549,-0.08299171,0.42396,1.02194
240.696,29.96957,-0.08698091,0.45147,1.02036
243.996,30.284,-0.09367519,0.48401,1.01875
247.296,30.5998,-0.1017,0.54561,1.01713
250.596,30.91542,-0.11091,0.64115,1.01548
253.896,31.2312,-0.12055,0.63968,1.01382
257.196,31.54547,-0.13158,0.51697,1.01213
260.496,31.85878,-0.14575,0.44765,1.01042
263.796,32.17238,-0.15932,0.43457,1.0087
267.096,32.48676,-0.17684,0.43465,1.00695
270.396,32.8017,-0.19675,0.44092,1.00519
273.696,33.11861,-0.21936,0.44562,1.0034
276.996,33.43468,-0.24225,0.44841,1.0016
280.296,33.75078,-0.2713,0.45298,0.99977
283.596,34.06747,-0.29898,0.45701,0.99793
286.896,34.38426,-0.32992,0.45792,0.99607
290.196,34.70109,-0.36266,0.45897,0.99419
293.496,35.0171,-0.39653,0.46466,0.99229
296.796,35.3331,-0.4311,0.46723,0.99037
300.096,35.64867,-0.46723,0.47215,0.98843
303.396,35.96481,-0.50625,0.48016,0.98648
306.696,36.28141,-0.54373,0.48887,0.9845
309.996,36.5985,-0.58707,0.50443,0.98251
313.296,36.91536,-0.63261,0.521,0.9805
316.596,37.23302,-0.68263,0.54465,0.97848
319.896,37.5504,-0.73606,0.57434,0.97643
323.196,37.86769,-0.7987,0.61446,0.97437
326.496,38.18593,-0.86895,0.66076,0.97229
329.796,38.50441,-0.95193,0.72506,0.97019
333.096,38.82285,-1.04677,0.80718,0.96808
336.396,39.14261,-1.16643,0.89525,0.96595
339.696,39.4626,-1.31034,0.96626,0.9638
342.996,39.7827,-1.47488,0.96364,0.96164
346.296,40.1014,-1.64398,0.83193,0.95946
349.596,40.41941,-1.79347,0.62183,0.95726
352.896,40.737,-1.90791,0.45112,0.95505
356.196,41.05468,-1.98667,0.33774,0.95282
359.496,41.3726,-2.04301,0.27967,0.95057
362.796,41.69121,-2.08746,0.24818,0.94831
366.096,42.0105,-2.12709,0.23828,0.94604
369.396,42.32922,-2.16334,0.22969,0.94375
372.696,42.6481,-2.19895,0.22966,0.94144
375.996,42.9686,-2.23447,0.22341,0.93912
379.296,43.28886,-2.26981,0.22271,0.93678
382.596,43.61009,-2.30637,0.2189,0.93443
385.896,43.93165,-2.34248,0.2126,0.93207
389.196,44.2541,-2.37904,0.20917,0.92969
392.496,44.57602,-2.4175,0.20474,0.92729
395.796,44.89765,-2.45615,0.2041,0.92488
399.096,45.21848,-2.49606,0.2021,0.92246
402.396,45.53992,-2.54036,0.20343,0.92003
405.696,45.86176,-2.58467,0.20311,0.91758
408.996,46.18379,-2.63069,0.20186,0.91511
412.296,46.50622,-2.675,0.20341,0.91264
415.596,46.8292,-2.71956,0.20426,0.91015
418.896,47.15178,-2.76589,0.20777,0.90764
422.196,47.47418,-2.80824,0.20797,0.90513
425.496,47.79736,-2.85058,0.20511,0.9026
428.796,48.12133,-2.88731,0.20238,0.90006
432.096,48.44615,-2.92247,0.19876,0.89751
435.396,48.7704,-2.95939,0.19583,0.89494
438.696,49.0943,-2.99163,0.18578,0.89236
441.996,49.41778,-3.01712,0.17211,0.88977
445.296,49.74129,-3.04328,0.15502,0.88717
448.596,50.06518,-3.0651,0.13848,0.88456
451.896,50.3887,-3.0838,0.11928,0.88194
455.196,50.71168,-3.09983,0.1022,0.8793
458.496,51.03575,-3.11513,0.09384802,0.87666
461.796,51.36016,-3.12916,0.08283434,0.874
465.096,51.686,-3.13893,0.07477306,0.87133
468.396,52.0118,-3.15095,0.07012957,0.86865
471.696,52.3375,-3.15777,0.06484947,0.86597
474.996,52.663,-3.16598,0.06105761,0.86327
478.296,52.9886,-3.17257,0.05605793,0.86056
481.596,53.3137,-3.17785,0.05346321,0.85784
484.896,53.6398,-3.18424,0.0539755,0.85511
488.196,53.96643,-3.18825,0.05513993,0.85237
491.496,54.2927,-3.19354,0.05688933,0.84963
494.796,54.6184,-3.19878,0.05914568,0.84687
498.096,54.94405,-3.20225,0.06087248,0.8441
501.396,55.2697,-3.20536,0.06513803,0.84133
504.696,55.59595,-3.21135,0.06658256,0.83854
507.996,55.9223,-3.21489,0.06053689,0.83575
511.296,56.24895,-3.21721,0.06048255,0.83295
514.596,56.5752,-3.22247,0.05863064,0.83014
517.896,56.90185,-3.22511,0.05468542,0.82733
521.196,57.22851,-3.23004,0.0544716,0.8245
524.496,57.55434,-3.23355,0.05355938,0.82167
527.796,57.87998,-3.23794,0.05064422,0.81883
531.096,58.207,-3.23921,0.05163377,0.81598
534.396,58.53504,-3.24322,0.04626303,0.81312
537.696,58.8635,-3.24584,0.04484458,0.81026
540.996,59.19085,-3.24847,0.04318031,0.80739
544.296,59.5193,-3.25111,0.04423386,0.80451
547.596,59.8477,-3.25374,0.04550621,0.80163
550.896,60.1763,-3.25769,0.04219737,0.79874
554.196,60.50541,-3.259,0.04350202,0.79584
557.496,60.8351,-3.26164,0.04337006,0.79294
560.796,61.1646,-3.26426,0.04336145,0.79003
564.096,61.4942,-3.2669,0.04071831,0.78712
567.396,61.8239,-3.26814,0.04221476,0.7842
570.696,62.15308,-3.27084,0.04440731,0.78127
573.996,62.48262,-3.27284,0.04330145,0.77834
577.296,62.813,-3.27743,0.03654787,0.77541
580.596,63.1438,-3.28006,0.0272774,0.77246
583.896,63.47435,-3.28538,0.02027683,0.76952
587.196,63.8048,-3.28734,0.01609039,0.76657
590.496,64.13517,-3.29124,0.01957853,0.76361
593.796,64.4657,-3.2932,0.02291854,0.76065
597.096,64.79579,-3.29656,0.02812042,0.75768
600.396,65.12637,-3.2998,0.03110551,0.75471
603.696,65.45647,-3.30211,0.03678891,0.75174
606.996,65.786,-3.30375,0.04600932,0.74876
610.296,66.11631,-3.30606,0.05504657,0.74578
613.596,66.4472,-3.30854,0.0592435,0.7428
616.896,66.7781,-3.31,0.06202567,0.73981
620.196,67.10986,-3.31264,0.06051891,0.73682
623.496,67.44123,-3.31396,0.06368307,0.73382
626.796,67.77248,-3.31656,0.06042893,0.73083
630.096,68.10405,-3.3179,0.05886446,0.72783
633.396,68.4353,-3.31922,0.06169543,0.72482
636.696,68.76674,-3.32185,0.06092743,0.72182
639.996,69.09869,-3.32186,0.05448893,0.71881
643.296,69.4306,-3.32485,0.05879776,0.7158
646.596,69.76346,-3.32317,0.06084931,0.71278
649.896,70.09616,-3.32507,0.05558967,0.70977
653.196,70.4293,-3.32689,0.05546056,0.70675
656.496,70.7624,-3.32822,0.05616314,0.70373
659.796,71.09557,-3.32821,0.05812976,0.70071
663.096,71.42845,-3.3302,0.05850309,0.69769
666.396,71.7609,-3.33142,0.05815234,0.69467
669.696,72.09233,-3.33282,0.05995185,0.69165
672.996,72.4238,-3.33534,0.05848748,0.68862
676.296,72.75556,-3.33468,0.05693442,0.68559
679.596,73.0868,-3.33601,0.05697506,0.68257
682.896,73.41841,-3.33731,0.05666293,0.67954
686.196,73.75075,-3.3378,0.05710021,0.67651
689.496,74.08412,-3.34126,0.05482453,0.67348
692.796,74.41726,-3.34012,0.05638913,0.67046
696.096,74.75059,-3.34357,0.0531819,0.66743
699.396,75.08277,-3.34423,0.05779151,0.6644
702.696,75.41664,-3.34423,0.05109238,0.66137
705.996,75.7494,-3.3462,0.04449001,0.65834
709.296,76.0826,-3.34654,0.03916733,0.65531
712.596,76.41641,-3.34621,0.03713416,0.65229
715.896,76.74972,-3.3488,0.02819945,0.64926
719.196,77.08292,-3.34949,0.02517373,0.64624
722.496,77.4173,-3.34949,0.02654293,0.64321
725.796,77.75054,-3.35015,0.02191233,0.64019
729.096,78.08389,-3.3504,0.01854313,0.63716
732.396,78.418,-3.35276,0.01585405,0.63414
735.696,78.75239,-3.35476,0.01241337,0.63112
738.996,79.0869,-3.35409,0.007487086,0.62811
742.296,79.42103,-3.35541,0.00579946,0.62509
745.596,79.75673,-3.35706,0.00565018,0.62207
748.896,80.09132,-3.35686,0.004357307,0.61906
752.196,80.4254,-3.35863,-0.002294974,0.61605
755.496,80.7594,-3.3587,-0.005651137,0.61304
758.796,81.09236,-3.36002,-0.005249797,0.61004
762.096,81.42621,-3.36068,-0.007493068,0.60703
765.396,81.76076,-3.36003,-0.00707023,0.60403
768.696,82.0958,-3.36134,-0.00891529,0.60103
771.996,82.43134,-3.36266,-0.009452588,0.59804
775.296,82.76547,-3.3626,-0.00655886,0.59504
778.596,83.10038,-3.36331,-0.01105677,0.59205
781.896,83.43511,-3.36602,-0.01755083,0.58907
785.196,83.77046,-3.36693,-0.009625979,0.58608
788.496,84.10651,-3.36792,-0.01631392,0.5831
791.796,84.4427,-3.36808,-0.01428668,0.58013
795.096,84.7785,-3.3699,-0.01506381,0.57715
797.196,84.99301,-3.36957,-0.01196637,0.57526