Folder: fsri_materials_database/01_Data/Bamboo_Rug_B/STA/N2/30K_min

Note: 01_Data/README.md
# Materials and Products Database
## 01_Data

Raw data generated from each apparatus are included here in plain-text format. The data is organized first by material, next by the short name of test apparatus used, and where applicable additional filtering by test settings.

### material.json

Each material directory contains a json file of the same name as the material. This file links the data stored in the repository as well as data and graphs produced by the accompanying scripts (__02_Scripts__) to the respective landing page for the material on the front-end website.

File: Bamboo_Rug_B_STA_N2_30KData_220126_R2.csv
##Temp./Â°C,Time/min,Mass loss(subtr.2)/mg,DSC(subtr.2)/(mW/mg),Sensit./(uV/mW)
48.48,10.00583,0.00987,0.001981306,1.06964
51.58,10.86885,0.0111316,0.16235,1.06936
54.68,11.09807,0.009543936,0.26686,1.06905
57.78,11.27519,0.01259133,0.35384,1.06871
60.88,11.42782,0.01179864,0.42398,1.06835
63.98,11.5655,0.01062858,0.48265,1.06796
67.08,11.69467,0.01255368,0.53532,1.06755
70.18,11.81814,0.01067394,0.57928,1.06711
73.28,11.93699,0.01167538,0.61003,1.06664
76.38,12.05286,0.0114925,0.62826,1.06614
79.48,12.16642,0.009655176,0.64733,1.06563
82.58,12.2778,0.009217095,0.66412,1.06508
85.68,12.38748,0.01088516,0.68445,1.06451
88.78,12.49574,0.009343581,0.70281,1.06391
91.88,12.6029,0.009215539,0.71913,1.06329
94.98,12.7089,0.009335127,0.73513,1.06264
98.08,12.81431,0.00789268,0.74832,1.06197
101.18,12.91951,0.006581121,0.76544,1.06127
104.28,13.02385,0.007110171,0.7782,1.06054
107.38,13.12845,0.007049894,0.7929,1.0598
110.48,13.23264,0.006469987,0.80595,1.05902
113.58,13.33639,0.00639183,0.81265,1.05822
116.68,13.44005,0.005153082,0.82001,1.0574
119.78,13.54333,0.00382998,0.83092,1.05655
122.88,13.6464,0.002547469,0.8363,1.05568
125.98,13.74884,0.00516009,0.84491,1.05479
129.08,13.8506,0.00383789,0.85435,1.05387
132.18,13.9521,0.00384,0.85902,1.05292
135.28,14.05316,0.002319456,0.87024,1.05196
138.38,14.15365,0.003619991,0.8804,1.05097
141.48,14.2536,0.00230999,0.89173,1.04995
144.58,14.3529,0.00361999,0.90197,1.04891
147.68,14.4524,0.00230003,0.91232,1.04785
150.78,14.5512,0.00296191,0.9261,1.04677
153.88,14.64969,0.001970015,0.93765,1.04566
156.98,14.748,0.00197,0.94946,1.04454
160.08,14.84593,0.00197,0.96115,1.04338
163.18,14.94384,-0.0006601683,0.97638,1.04221
166.28,15.04139,-0.00066,0.99048,1.04101
169.38,15.1388,0.000330452,1.00309,1.0398
172.48,15.23596,0.00033,1.01905,1.03856
175.58,15.33274,0.0003321149,1.03178,1.0373
178.68,15.42881,-0.001190184,1.04399,1.03601
181.78,15.5255,-0.0023,1.05989,1.03471
184.88,15.62137,-0.00229999,1.06967,1.03338
187.98,15.7172,-0.003619957,1.08127,1.03204
191.08,15.81262,-0.00362,1.09334,1.03067
194.18,15.9079,-0.006281878,1.10796,1.02928
197.28,16.00305,-0.006621816,1.11703,1.02787
200.38,16.09771,-0.006250038,1.12885,1.02644
203.48,16.19308,-0.007908309,1.14134,1.02499
206.58,16.28787,-0.009238452,1.15383,1.02352
209.68,16.38291,-0.0105259,1.16837,1.02204
212.78,16.4775,-0.01312203,1.18167,1.02053
215.88,16.5719,-0.01279257,1.19497,1.019
218.98,16.66667,-0.0144753,1.21261,1.01745
222.08,16.76106,-0.01800089,1.22837,1.01589
225.18,16.85529,-0.01841692,1.24558,1.0143
228.28,16.94945,-0.0211472,1.26232,1.0127
231.38,17.04364,-0.02407057,1.28932,1.01107
234.48,17.13788,-0.02677081,1.31931,1.00943
237.58,17.2319,-0.02939214,1.36675,1.00777
240.68,17.32615,-0.03201584,1.43505,1.0061
243.78,17.42008,-0.03478917,1.53841,1.0044
246.88,17.51407,-0.03829393,1.68649,1.00269
249.98,17.6082,-0.04283637,1.84389,1.00096
253.08,17.70244,-0.04855714,1.82271,0.99921
256.18,17.796,-0.05075352,1.65198,0.99744
259.28,17.88981,-0.05590208,1.49553,0.99566
262.38,17.98327,-0.063119,1.40707,0.99386
265.48,18.0765,-0.06869966,1.36533,0.99205
268.58,18.17005,-0.07745969,1.34932,0.99022
271.68,18.2635,-0.08666297,1.35101,0.98837
274.78,18.357,-0.0957819,1.36155,0.98651
277.88,18.45045,-0.10795,1.3764,0.98463
280.98,18.54404,-0.12161,1.39481,0.98273
284.08,18.63758,-0.13566,1.4092,0.98082
287.18,18.73134,-0.15463,1.42708,0.9789
290.28,18.82508,-0.17185,1.44063,0.97695
293.38,18.9187,-0.19415,1.45001,0.975
296.48,19.0125,-0.2162,1.46125,0.97303
299.58,19.10611,-0.24116,1.46585,0.97104
302.68,19.1999,-0.2679,1.47122,0.96904
305.78,19.2937,-0.29625,1.47526,0.96703
308.88,19.38743,-0.32463,1.47635,0.965
311.98,19.4813,-0.35407,1.47946,0.96296
315.08,19.57489,-0.38575,1.48357,0.96091
318.18,19.66892,-0.41758,1.49537,0.95884
321.28,19.76275,-0.45133,1.50574,0.95676
324.38,19.85686,-0.48715,1.52516,0.95466
327.48,19.95082,-0.52273,1.54815,0.95255
330.58,20.04486,-0.5596,1.5841,0.95043
333.68,20.1394,-0.59986,1.62791,0.9483
336.78,20.23376,-0.64599,1.68086,0.94616
339.88,20.32832,-0.69305,1.74949,0.944
342.98,20.42287,-0.74509,1.83913,0.94183
346.08,20.51781,-0.80503,1.95185,0.93965
349.18,20.61264,-0.87334,2.08804,0.93746
352.28,20.7077,-0.95229,2.24954,0.93526
355.38,20.80309,-1.04513,2.42892,0.93304
358.48,20.89839,-1.15772,2.58818,0.93082
361.58,20.99404,-1.28575,2.66107,0.92858
364.68,21.08952,-1.42503,2.54681,0.92633
367.78,21.18477,-1.56565,2.1854,0.92407
370.88,21.28,-1.69374,1.73246,0.92181
373.98,21.37509,-1.79921,1.34084,0.91953
377.08,21.47024,-1.87641,1.06127,0.91724
380.18,21.5653,-1.93401,0.88149,0.91494
383.28,21.66066,-1.9768,0.78091,0.91264
386.38,21.7561,-2.01239,0.72664,0.91032
389.48,21.85161,-2.0469,0.69841,0.908
392.58,21.94746,-2.07904,0.68494,0.90566
395.68,22.04342,-2.11166,0.6768,0.90332
398.78,22.13955,-2.14734,0.6738,0.90097
401.88,22.236,-2.17894,0.66818,0.89861
404.98,22.33229,-2.21219,0.66517,0.89624
408.08,22.42887,-2.24648,0.66208,0.89386
411.18,22.52567,-2.28371,0.65523,0.89147
414.28,22.6223,-2.32016,0.65218,0.88908
417.38,22.71934,-2.35799,0.64769,0.88668
420.48,22.81625,-2.39819,0.63976,0.88427
423.58,22.9133,-2.43951,0.63874,0.88186
426.68,23.0104,-2.48174,0.635,0.87944
429.78,23.10774,-2.5262,0.63351,0.87701
432.88,23.2052,-2.57323,0.63626,0.87457
435.98,23.30294,-2.61917,0.6356,0.87213
439.08,23.40044,-2.66552,0.63978,0.86968
442.18,23.4979,-2.71024,0.63984,0.86722
445.28,23.59551,-2.75362,0.63839,0.86476
448.38,23.6935,-2.79197,0.63958,0.86229
451.48,23.7913,-2.83191,0.63284,0.85982
454.58,23.8892,-2.86522,0.62964,0.85734
457.68,23.98731,-2.89583,0.61481,0.85486
460.78,24.08544,-2.92499,0.59423,0.85237
463.88,24.18362,-2.94989,0.5678,0.84987
466.98,24.28181,-2.97368,0.52997,0.84737
470.08,24.38008,-2.99449,0.48743,0.84487
473.18,24.47852,-3.0129,0.44024,0.84236
476.28,24.5769,-3.02918,0.39806,0.83984
479.38,24.67547,-3.0432,0.36128,0.83733
482.48,24.77388,-3.05448,0.33248,0.8348
485.58,24.87256,-3.06441,0.3081,0.83228
488.68,24.97147,-3.07434,0.29203,0.82974
491.78,25.07028,-3.08232,0.2838,0.82721
494.88,25.16926,-3.08779,0.27496,0.82467
497.98,25.26826,-3.09596,0.26828,0.82213
501.08,25.3674,-3.1013,0.26302,0.81958
504.18,25.46673,-3.10673,0.25828,0.81704
507.28,25.56596,-3.11301,0.25452,0.81448
510.38,25.66525,-3.11664,0.25023,0.81193
513.48,25.7646,-3.12001,0.25097,0.80937
516.58,25.8642,-3.12444,0.24863,0.80681
519.68,25.96341,-3.12742,0.24835,0.80425
522.78,26.063,-3.1306,0.24646,0.80168
525.88,26.16272,-3.13288,0.24373,0.79912
528.98,26.26244,-3.13818,0.24139,0.79655
532.08,26.3622,-3.13977,0.23987,0.79397
535.18,26.462,-3.14391,0.23493,0.7914
538.28,26.56222,-3.14679,0.23868,0.78882
541.38,26.66207,-3.15075,0.23323,0.78625
544.48,26.7621,-3.1526,0.2344,0.78367
547.58,26.86225,-3.15533,0.234,0.78109
550.68,26.96255,-3.1572,0.23018,0.77851
553.78,27.06274,-3.16061,0.22693,0.77592
556.88,27.16328,-3.16481,0.22984,0.77334
559.98,27.26385,-3.16568,0.22924,0.77076
563.08,27.3644,-3.16883,0.22619,0.76817
566.18,27.46503,-3.17155,0.23158,0.76558
569.28,27.56573,-3.17289,0.22927,0.763
572.38,27.6666,-3.17563,0.23598,0.76041
575.48,27.7675,-3.17728,0.23296,0.75782
578.58,27.86856,-3.1792,0.23753,0.75524
581.68,27.9696,-3.18263,0.239,0.75265
584.78,28.0708,-3.18442,0.2377,0.75006
587.88,28.17207,-3.18528,0.24188,0.74747
590.98,28.27321,-3.18665,0.24282,0.74488
594.08,28.37472,-3.19076,0.24214,0.7423
597.18,28.4764,-3.19285,0.24864,0.73971
600.28,28.5778,-3.19548,0.24944,0.73712
603.38,28.6794,-3.19579,0.24945,0.73454
606.48,28.7812,-3.19909,0.25182,0.73195
609.58,28.88284,-3.20206,0.24776,0.72937
612.68,28.9847,-3.20532,0.24551,0.72678
615.78,29.0865,-3.20819,0.24457,0.7242
618.88,29.1886,-3.21007,0.24054,0.72162
621.98,29.29038,-3.21271,0.23483,0.71904
625.08,29.3924,-3.21414,0.23344,0.71646
628.18,29.49427,-3.21808,0.23581,0.71388
631.28,29.59648,-3.22075,0.23848,0.71131
634.38,29.69854,-3.22231,0.24392,0.70873
637.48,29.8006,-3.22331,0.24624,0.70616
640.58,29.90263,-3.22665,0.25212,0.70359
643.68,30.0048,-3.22795,0.25785,0.70102
646.78,30.10694,-3.22992,0.2677,0.69845
649.88,30.20925,-3.23257,0.27448,0.69588
652.98,30.3114,-3.23168,0.27783,0.69332
656.08,30.41382,-3.23345,0.2861,0.69076
659.18,30.5162,-3.23563,0.287,0.6882
662.28,30.6185,-3.23565,0.29015,0.68564
665.38,30.72093,-3.23797,0.28972,0.68309
668.48,30.8235,-3.23888,0.28879,0.68053
671.58,30.9258,-3.2399,0.28758,0.67798
674.68,31.0283,-3.24122,0.29054,0.67544
677.78,31.1308,-3.24255,0.28934,0.67289
680.88,31.2334,-3.24253,0.29077,0.67035
683.98,31.3358,-3.24517,0.29488,0.66781
687.08,31.4383,-3.24519,0.2962,0.66527
690.18,31.5411,-3.24649,0.29847,0.66274
693.28,31.6436,-3.24781,0.29695,0.66021
696.38,31.7465,-3.24785,0.2915,0.65768
699.48,31.84927,-3.24807,0.29054,0.65515
702.58,31.9521,-3.24912,0.28713,0.65263
705.68,32.05514,-3.25181,0.29006,0.65011
708.78,32.15821,-3.25205,0.28661,0.6476
711.88,32.26115,-3.25471,0.28111,0.64508
714.98,32.3642,-3.25439,0.27751,0.64257
718.08,32.46732,-3.25574,0.27454,0.64007
721.18,32.57043,-3.257,0.27124,0.63757
724.28,32.67367,-3.257,0.26554,0.63507
727.38,32.7769,-3.25836,0.2606,0.63257
730.48,32.88022,-3.26098,0.25383,0.63008
733.58,32.98345,-3.25966,0.24132,0.62759
736.68,33.0869,-3.2623,0.22876,0.62511
739.78,33.19025,-3.26229,0.22138,0.62263
742.88,33.29391,-3.26361,0.21602,0.62015
745.98,33.39756,-3.26492,0.20871,0.61768
749.08,33.5013,-3.2646,0.19898,0.61521
752.18,33.605,-3.26492,0.19027,0.61275
755.28,33.70876,-3.26624,0.18541,0.61029
758.38,33.81257,-3.26755,0.18225,0.60783
761.48,33.91619,-3.26892,0.17253,0.60538
764.58,34.02016,-3.26993,0.16813,0.60293
767.68,34.12397,-3.27018,0.16148,0.60048
770.78,34.2279,-3.27018,0.15802,0.59804
773.88,34.33183,-3.27183,0.15406,0.59561
776.98,34.43581,-3.27183,0.15104,0.59317
780.08,34.5396,-3.27315,0.14506,0.59075
783.18,34.64354,-3.27183,0.14379,0.58832
786.28,34.74754,-3.27316,0.1438,0.5859
789.38,34.85156,-3.27511,0.14396,0.58349
792.48,34.95563,-3.27524,0.14197,0.58108
793.68,34.99599,-3.27512,0.13782,0.58015

File: Bamboo_Rug_B_STA_N2_30KData_220126_R3.csv
##Temp./Â°C,Time/min,Mass loss(subtr.2)/mg,DSC(subtr.2)/(mW/mg),Sensit./(uV/mW)
48.542,10.00667,-0.02292,0.0003593318,1.06963
51.742,10.87771,-0.02373171,0.16659,1.06934
54.942,11.1113,-0.02469265,0.28219,1.06902
58.142,11.29044,-0.02491546,0.37171,1.06867
61.342,11.44473,-0.02538096,0.44461,1.06829
64.542,11.58526,-0.02521631,0.5103,1.06789
67.742,11.71776,-0.02392844,0.56446,1.06746
70.942,11.84326,-0.0248191,0.60881,1.06699
74.142,11.9651,-0.02447376,0.63566,1.0665
77.342,12.08333,-0.02406125,0.65818,1.06599
80.542,12.19984,-0.02600434,0.6807,1.06544
83.742,12.31409,-0.02555034,0.7006,1.06487
86.942,12.42667,-0.02697997,0.72138,1.06427
90.142,12.538,-0.02826184,0.74304,1.06364
93.342,12.6481,-0.02838903,0.76134,1.06299
96.542,12.75734,-0.0287097,0.77964,1.0623
99.742,12.86609,-0.02984022,0.7982,1.0616
102.942,12.97413,-0.02983016,0.81669,1.06086
106.142,13.0825,-0.03114978,0.83338,1.0601
109.342,13.19014,-0.03245151,0.84665,1.05931
112.542,13.2975,-0.03435434,0.86063,1.05849
115.742,13.40448,-0.0350889,0.87035,1.05765
118.942,13.51126,-0.03379007,0.8783,1.05678
122.142,13.61781,-0.03577716,0.88334,1.05589
125.342,13.72366,-0.03708327,0.89289,1.05497
128.542,13.82906,-0.03704214,0.89784,1.05403
131.742,13.9338,-0.03707013,0.90608,1.05306
134.942,14.038,-0.03839136,0.91179,1.05206
138.142,14.14205,-0.03706728,0.9232,1.05104
141.342,14.24555,-0.03805987,0.93343,1.05
144.542,14.3485,-0.03935748,0.94409,1.04893
147.742,14.4509,-0.03841609,0.95585,1.04783
150.942,14.55285,-0.03970999,0.96805,1.04671
154.142,14.6547,-0.03971,0.97957,1.04557
157.342,14.756,-0.03971,0.99156,1.0444
160.542,14.8575,-0.04074609,1.00351,1.04321
163.742,14.9585,-0.0407,1.02126,1.04199
166.942,15.05901,-0.0407,1.03381,1.04076
170.142,15.15979,-0.04200634,1.04633,1.03949
173.342,15.2598,-0.04267002,1.06081,1.03821
176.542,15.35935,-0.04464892,1.07319,1.0369
179.742,15.45964,-0.04464002,1.08843,1.03557
182.942,15.5587,-0.04529633,1.09947,1.03421
186.142,15.6577,-0.04530102,1.11608,1.03284
189.342,15.75614,-0.04728,1.12612,1.03144
192.542,15.8549,-0.0485846,1.1414,1.03002
195.742,15.95335,-0.0499,1.15615,1.02857
198.942,16.05153,-0.04990007,1.16879,1.02711
202.142,16.14948,-0.05123165,1.18373,1.02562
205.342,16.24747,-0.05254022,1.19833,1.02411
208.542,16.34525,-0.05516788,1.21096,1.02258
211.742,16.44301,-0.05647996,1.22666,1.02103
214.942,16.54052,-0.0578,1.24324,1.01946
218.142,16.63795,-0.05911996,1.2571,1.01787
221.342,16.73554,-0.06042896,1.27177,1.01626
224.542,16.8327,-0.06174102,1.28828,1.01463
227.742,16.92989,-0.06558606,1.31051,1.01298
230.942,17.02691,-0.06701992,1.3377,1.0113
234.142,17.12399,-0.06830997,1.36787,1.00961
237.342,17.2209,-0.07107502,1.41704,1.0079
240.542,17.31784,-0.0752637,1.48299,1.00617
243.742,17.41485,-0.07800626,1.5876,1.00442
246.942,17.5119,-0.08226564,1.74035,1.00265
250.142,17.60898,-0.08577293,1.90542,1.00087
253.342,17.70584,-0.08907773,1.87584,0.99906
256.542,17.80249,-0.09357335,1.69546,0.99724
259.742,17.89904,-0.09907953,1.53662,0.9954
262.942,17.99566,-0.10607,1.44513,0.99354
266.142,18.09196,-0.11458,1.40424,0.99166
269.342,18.18818,-0.12338,1.39269,0.98977
272.542,18.28441,-0.13175,1.39276,0.98785
275.742,18.381,-0.14299,1.40104,0.98592
278.942,18.47741,-0.15531,1.41455,0.98398
282.142,18.57396,-0.16867,1.43018,0.98202
285.342,18.67059,-0.18387,1.44432,0.98004
288.542,18.76726,-0.20144,1.4585,0.97804
291.742,18.86412,-0.21959,1.46689,0.97603
294.942,18.9608,-0.24302,1.47195,0.97401
298.142,19.05733,-0.2679,1.47724,0.97197
301.342,19.1543,-0.29536,1.47677,0.96991
304.542,19.25114,-0.32411,1.47546,0.96784
307.742,19.348,-0.35572,1.47473,0.96575
310.942,19.44494,-0.38486,1.47507,0.96365
314.142,19.54176,-0.41612,1.47691,0.96153
317.342,19.63897,-0.44889,1.48209,0.9594
320.542,19.736,-0.48245,1.49176,0.95725
323.742,19.8329,-0.51725,1.50996,0.95509
326.942,19.93026,-0.55496,1.53142,0.95292
330.142,20.0279,-0.59333,1.56288,0.95073
333.342,20.12549,-0.63507,1.60533,0.94854
336.542,20.2229,-0.68008,1.65812,0.94632
339.742,20.32057,-0.73103,1.73008,0.9441
342.942,20.41858,-0.78539,1.81906,0.94186
346.142,20.51675,-0.84716,1.93135,0.93961
349.342,20.61486,-0.91868,2.0754,0.93734
352.542,20.7131,-1.00304,2.23952,0.93507
355.742,20.81156,-1.10422,2.41016,0.93278
358.942,20.9102,-1.2222,2.54116,0.93048
362.142,21.00887,-1.35824,2.53767,0.92817
365.342,21.10732,-1.50313,2.28603,0.92585
368.542,21.20575,-1.64152,1.83717,0.92352
371.742,21.30386,-1.76085,1.39474,0.92117
374.942,21.40181,-1.85078,1.06633,0.91882
378.142,21.49997,-1.91741,0.86901,0.91646
381.342,21.5982,-1.96633,0.75774,0.91408
384.542,21.69667,-2.00562,0.70364,0.9117
387.742,21.79522,-2.04031,0.68068,0.9093
390.942,21.89386,-2.07334,0.66846,0.9069
394.142,21.99268,-2.10598,0.669,0.90448
397.342,22.0918,-2.13953,0.66492,0.90206
400.542,22.1907,-2.17315,0.66456,0.89962
403.742,22.29019,-2.2085,0.66649,0.89718
406.942,22.3896,-2.24316,0.66503,0.89473
410.142,22.48915,-2.27929,0.65909,0.89227
413.342,22.58886,-2.3179,0.65656,0.88981
416.542,22.6886,-2.35572,0.65422,0.88733
419.742,22.78858,-2.39549,0.65227,0.88485
422.942,22.88851,-2.44033,0.64821,0.88236
426.142,22.98855,-2.4846,0.65067,0.87986
429.342,23.08869,-2.53011,0.65309,0.87735
432.542,23.18887,-2.57762,0.65802,0.87484
435.742,23.28925,-2.62567,0.65923,0.87232
438.942,23.38984,-2.67526,0.66006,0.86979
442.142,23.49032,-2.72196,0.65811,0.86725
445.342,23.5909,-2.76596,0.65863,0.86471
448.542,23.69164,-2.80937,0.65249,0.86217
451.742,23.7924,-2.84675,0.64963,0.85961
454.942,23.89334,-2.88266,0.63905,0.85705
458.142,23.99439,-2.91673,0.62796,0.85449
461.342,24.09552,-2.94707,0.60092,0.85192
464.542,24.19659,-2.97259,0.57075,0.84934
467.742,24.29775,-2.99721,0.5251,0.84676
470.942,24.39925,-3.02045,0.47525,0.84417
474.142,24.50067,-3.03876,0.42558,0.84158
477.342,24.60207,-3.05538,0.37897,0.83898
480.542,24.70371,-3.06931,0.34187,0.83638
483.742,24.80554,-3.08098,0.30675,0.83377
486.942,24.90744,-3.09216,0.2869,0.83116
490.142,25.00939,-3.10074,0.27084,0.82855
493.342,25.1114,-3.10559,0.25452,0.82593
496.542,25.21357,-3.11303,0.24511,0.82331
499.742,25.31602,-3.12225,0.23747,0.82068
502.942,25.41837,-3.12719,0.23342,0.81805
506.142,25.52083,-3.13178,0.22219,0.81542
509.342,25.62346,-3.13688,0.2181,0.81278
512.542,25.72614,-3.14282,0.21528,0.81015
515.742,25.8288,-3.14747,0.21145,0.8075
518.942,25.93168,-3.15137,0.20644,0.80486
522.142,26.0347,-3.15505,0.20351,0.80221
525.342,26.13756,-3.15886,0.20316,0.79956
528.542,26.24055,-3.16266,0.19939,0.79691
531.742,26.3435,-3.16758,0.19608,0.79425
534.942,26.44677,-3.17026,0.1976,0.7916
538.142,26.5499,-3.17467,0.19511,0.78894
541.342,26.6532,-3.17728,0.19114,0.78628
544.542,26.7567,-3.17855,0.19011,0.78362
547.742,26.86024,-3.18002,0.19117,0.78095
550.942,26.96381,-3.18445,0.19012,0.77829
554.142,27.06738,-3.18838,0.18596,0.77562
557.342,27.171,-3.19099,0.1896,0.77296
560.542,27.27477,-3.1937,0.18937,0.77029
563.742,27.37848,-3.19772,0.19229,0.76762
566.942,27.48228,-3.19846,0.19383,0.76495
570.142,27.58635,-3.20108,0.1899,0.76228
573.342,27.6904,-3.20503,0.19199,0.75961
576.542,27.79444,-3.20645,0.19184,0.75694
579.742,27.89868,-3.2092,0.18981,0.75427
582.942,28.003,-3.21188,0.1881,0.75159
586.142,28.1074,-3.21314,0.1887,0.74892
589.342,28.21183,-3.21578,0.18605,0.74625
592.542,28.31653,-3.21841,0.18485,0.74358
595.742,28.42122,-3.21973,0.18085,0.74091
598.942,28.52595,-3.2223,0.18915,0.73824
602.142,28.6307,-3.22466,0.19019,0.73557
605.342,28.73566,-3.22592,0.18754,0.7329
608.542,28.8407,-3.22887,0.18698,0.73023
611.742,28.94562,-3.23342,0.18015,0.72757
614.942,29.05078,-3.23579,0.17749,0.7249
618.142,29.15584,-3.24201,0.16993,0.72223
621.342,29.26111,-3.23929,0.16445,0.71957
624.542,29.3664,-3.2421,0.16813,0.71691
627.742,29.4718,-3.24484,0.16593,0.71425
630.942,29.57712,-3.24851,0.16717,0.71159
634.142,29.68242,-3.25187,0.16799,0.70893
637.342,29.7879,-3.25614,0.17708,0.70627
640.542,29.8933,-3.25669,0.18081,0.70362
643.742,29.99897,-3.258,0.18685,0.70097
646.942,30.10455,-3.25899,0.19655,0.69832
650.142,30.20947,-3.26031,0.2066,0.69567
653.342,30.31555,-3.26097,0.21712,0.69302
656.542,30.4209,-3.2646,0.21929,0.69038
659.742,30.5267,-3.2659,0.22523,0.68773
662.942,30.63222,-3.26591,0.22884,0.6851
666.142,30.7378,-3.26739,0.23506,0.68246
669.342,30.84354,-3.26785,0.23379,0.67982
672.542,30.9493,-3.27155,0.23596,0.67719
675.742,31.0551,-3.2715,0.23823,0.67456
678.942,31.1609,-3.2715,0.23532,0.67194
682.142,31.2669,-3.2715,0.23765,0.66931
685.342,31.37282,-3.27281,0.23832,0.66669
688.542,31.4787,-3.27413,0.24563,0.66408
691.742,31.58473,-3.27676,0.24124,0.66146
694.942,31.6908,-3.27804,0.23964,0.65885
698.142,31.79713,-3.27939,0.2394,0.65624
701.342,31.9032,-3.28071,0.23857,0.65364
704.542,32.00971,-3.28137,0.23878,0.65104
707.742,32.11598,-3.28038,0.23518,0.64844
710.942,32.22233,-3.28235,0.23605,0.64584
714.142,32.32877,-3.28367,0.23109,0.64325
717.342,32.43543,-3.28499,0.22999,0.64067
720.542,32.5419,-3.2863,0.23096,0.63808
723.742,32.6485,-3.28762,0.22335,0.6355
726.942,32.75519,-3.28893,0.22414,0.63293
730.142,32.8619,-3.28925,0.22162,0.63035
733.342,32.96868,-3.29059,0.21376,0.62778
736.542,33.0754,-3.28994,0.20969,0.62522
739.742,33.1822,-3.29124,0.20119,0.62266
742.942,33.28887,-3.29256,0.19476,0.6201
746.142,33.39575,-3.29306,0.19063,0.61755
749.342,33.50242,-3.29563,0.18486,0.615
752.542,33.60944,-3.29794,0.1763,0.61246
755.742,33.71662,-3.3,0.17268,0.60992
758.942,33.82352,-3.2987,0.16888,0.60738
762.142,33.93094,-3.29738,0.16638,0.60485
765.342,34.03817,-3.2987,0.16023,0.60233
768.542,34.14533,-3.30002,0.15651,0.5998
771.742,34.25274,-3.29936,0.15431,0.59728
774.942,34.36003,-3.30067,0.15508,0.59477
778.142,34.46719,-3.30199,0.15127,0.59226
781.342,34.57444,-3.30198,0.14636,0.58976
784.542,34.68186,-3.3042,0.14537,0.58726
787.742,34.7889,-3.30594,0.14267,0.58476
790.942,34.89656,-3.30594,0.14398,0.58227
793.942,34.99732,-3.30594,0.13747,0.57994