Folder: fsri_materials_database/01_Data/Bean_Bag_Chair_Outer_Cover/MCC

Note: 01_Data/README.md
# Materials and Products Database
## 01_Data

Raw data generated from each apparatus are included here in plain-text format. The data is organized first by material, next by the short name of test apparatus used, and where applicable additional filtering by test settings.

### material.json

Each material directory contains a json file of the same name as the material. This file links the data stored in the repository as well as data and graphs produced by the accompanying scripts (__02_Scripts__) to the respective landing page for the material on the front-end website.

File: Bean_Bag_Chair_Outer_Cover_MCC_30K_min_220310_R1.txt
Sample ID:	C:\MCC\MCC Cal\Test\Bean_Bag_Chair_Outer_Cover_MCC_30K_min_220310_R1.txt
Sample Weight (mg):	4.44
Heating Rate (C/s):	0.5
Combustor Temp (C):	900
N2 Flow Rate (cc/min):	80
O2 Flow Rate (cc/min):	20
Calibration File:	C:\MCC\MCC Cal\Coeff1 JN10440_30_210304.txt.txt
T Correction Coefficients:	0	1.024463	0
Time Shift (s):	14
*
Time (s)	Temperature (C)	N2 flow rate (cc/min)	O2 flow rate (cc/min)	Flow Rate (cc/min)	Oxygen (%)	HRR (W/g)	Heating rate (C/s)
-0.001	107.503	80.005	19.993	103.642	20.091	0.172	0.014
8.000	107.509	80.005	19.994	103.663	20.096	-0.224	0.029
16.000	107.530	80.006	19.993	103.699	20.087	0.458	-0.001
24.000	107.816	80.005	19.994	103.824	20.068	1.818	0.094
32.000	108.585	80.006	19.994	103.852	20.061	2.349	0.125
40.000	109.827	80.008	19.994	103.850	20.062	2.236	0.176
47.999	111.397	80.007	19.994	103.835	20.059	2.502	0.227
55.999	113.165	80.007	19.993	103.855	20.058	2.577	0.233
64.000	115.240	80.006	19.992	103.891	20.054	2.875	0.248
71.999	117.634	80.007	19.993	103.899	20.051	3.107	0.336
79.999	120.259	80.008	19.994	103.905	20.051	3.107	0.368
87.999	123.143	80.006	19.993	103.905	20.048	3.320	0.391
95.999	126.252	80.005	19.995	103.908	20.048	3.292	0.394
103.999	129.455	80.005	19.993	103.916	20.047	3.382	0.405
111.999	132.927	80.006	19.994	103.927	20.048	3.282	0.431
120.000	136.512	80.005	19.994	103.921	20.046	3.412	0.476
127.999	140.249	80.007	19.994	103.918	20.044	3.622	0.465
136.000	144.071	80.009	19.993	103.918	20.047	3.370	0.508
144.000	147.994	80.007	19.993	103.909	20.050	3.171	0.534
152.000	151.930	80.005	19.994	103.906	20.047	3.347	0.513
160.000	155.844	80.006	19.994	103.903	20.048	3.310	0.512
168.000	159.824	80.006	19.993	103.893	20.045	3.477	0.499
176.000	163.800	80.005	19.994	103.907	20.047	3.349	0.528
184.000	167.823	80.006	19.994	103.902	20.054	2.851	0.495
192.000	171.835	80.007	19.994	103.894	20.052	3.016	0.490
199.999	175.866	80.006	19.994	103.884	20.054	2.818	0.517
207.999	179.807	80.006	19.994	103.866	20.054	2.854	0.537
215.999	183.717	80.006	19.995	103.866	20.056	2.716	0.474
223.999	187.735	80.005	19.995	103.867	20.054	2.840	0.527
231.999	191.667	80.007	19.993	103.867	20.052	3.010	0.493
239.999	195.533	80.004	19.994	103.866	20.052	3.000	0.453
247.999	199.435	80.005	19.994	103.865	20.057	2.666	0.511
255.999	203.319	80.005	19.992	103.868	20.054	2.886	0.505
264.000	207.277	80.005	19.994	103.864	20.054	2.878	0.517
272.000	211.232	80.006	19.993	103.865	20.056	2.682	0.516
280.000	215.140	80.007	19.993	103.862	20.056	2.740	0.515
288.000	219.080	80.007	19.995	103.862	20.051	3.090	0.508
296.000	223.054	80.006	19.993	103.864	20.052	2.972	0.482
304.000	227.080	80.009	19.993	103.864	20.048	3.256	0.535
312.000	231.049	80.005	19.994	103.864	20.052	2.984	0.500
320.000	235.159	80.004	19.994	103.861	20.049	3.186	0.524
328.000	239.141	80.005	19.994	103.848	20.049	3.186	0.497
336.000	243.132	80.006	19.992	103.859	20.044	3.580	0.532
344.000	247.120	80.004	19.993	103.858	20.045	3.530	0.503
352.000	251.157	80.006	19.993	103.848	20.044	3.612	0.529
360.000	255.165	80.007	19.992	103.848	20.040	3.866	0.490
368.000	259.154	80.006	19.993	103.844	20.038	4.038	0.505
376.000	263.145	80.006	19.994	103.861	20.038	4.030	0.497
384.000	267.157	80.007	19.994	103.858	20.034	4.304	0.526
392.000	271.179	80.007	19.994	103.858	20.031	4.528	0.505
400.000	275.206	80.005	19.994	103.863	20.024	5.080	0.516
408.000	279.243	80.007	19.994	103.863	20.012	5.912	0.513
416.000	283.269	80.006	19.994	103.862	20.003	6.567	0.498
424.000	287.316	80.006	19.993	103.868	19.996	7.097	0.513
432.000	291.401	80.005	19.994	103.875	19.983	8.016	0.498
440.000	295.518	80.007	19.993	103.880	19.967	9.223	0.488
448.000	299.622	80.006	19.993	103.899	19.950	10.468	0.528
456.000	303.642	80.007	19.994	103.902	19.927	12.109	0.477
464.000	307.706	80.009	19.992	103.902	19.903	13.901	0.503
472.000	311.765	80.008	19.994	103.926	19.871	16.197	0.539
480.000	315.837	80.006	19.994	103.938	19.826	19.542	0.514
488.000	319.826	80.005	19.994	103.947	19.782	22.730	0.504
496.000	323.814	80.005	19.995	103.984	19.719	27.327	0.517
504.000	327.832	80.005	19.995	104.019	19.645	32.784	0.503
512.000	331.832	80.005	19.995	104.061	19.547	39.932	0.520
520.000	335.868	80.007	19.994	104.105	19.436	48.091	0.494
528.000	339.923	80.008	19.993	104.166	19.286	59.129	0.520
536.000	343.964	80.007	19.994	104.229	19.119	71.415	0.487
544.000	348.015	80.009	19.994	104.296	18.927	85.554	0.525
552.000	352.102	80.009	19.992	104.370	18.721	100.673	0.540
560.000	356.163	80.006	19.992	104.426	18.511	116.151	0.524
568.000	360.187	80.006	19.994	104.474	18.336	129.004	0.514
576.000	364.214	80.006	19.994	104.467	18.215	137.798	0.495
584.000	368.236	80.007	19.994	104.426	18.189	139.540	0.490
592.000	372.288	80.006	19.995	104.350	18.285	132.364	0.510
600.000	376.328	80.006	19.994	104.216	18.521	114.893	0.492
608.000	380.361	80.009	19.995	104.054	18.868	89.414	0.501
616.000	384.496	80.007	19.992	103.933	19.254	61.217	0.537
624.000	388.563	80.008	19.994	103.851	19.598	36.091	0.512
632.000	392.622	80.010	19.993	103.801	19.844	18.196	0.498
640.000	396.704	80.007	19.993	103.796	19.966	9.254	0.495
648.000	400.772	80.007	19.993	103.790	20.018	5.504	0.465
656.000	404.757	80.008	19.993	103.788	20.032	4.431	0.477
664.000	408.779	80.006	19.993	103.788	20.042	3.722	0.486
672.001	412.764	80.006	19.995	103.788	20.040	3.864	0.498
680.000	416.696	80.006	19.994	103.807	20.046	3.458	0.483
688.000	420.695	80.006	19.994	103.805	20.045	3.494	0.489
696.000	424.744	80.005	19.994	103.798	20.043	3.628	0.504
704.000	428.810	80.007	19.993	103.795	20.042	3.700	0.524
712.000	432.934	80.008	19.994	103.809	20.042	3.729	0.521
720.000	437.112	80.007	19.994	103.795	20.041	3.774	0.531
728.000	441.255	80.005	19.994	103.795	20.041	3.818	0.525
736.000	445.445	80.006	19.994	103.790	20.042	3.730	0.525
744.000	449.659	80.009	19.993	103.794	20.042	3.704	0.555
752.000	453.742	80.005	19.993	103.802	20.043	3.644	0.511
760.000	457.901	80.006	19.995	103.791	20.044	3.572	0.517
768.000	462.037	80.007	19.993	103.788	20.050	3.120	0.520
776.000	466.011	80.008	19.995	103.786	20.048	3.294	0.507
784.000	470.010	80.005	19.994	103.784	20.048	3.318	0.488
792.000	474.039	80.008	19.994	103.783	20.049	3.234	0.505
800.000	478.110	80.009	19.994	103.785	20.049	3.194	0.514
808.000	482.204	80.006	19.994	103.789	20.046	3.422	0.523
816.000	486.353	80.007	19.994	103.788	20.045	3.534	0.530
824.000	490.486	80.008	19.994	103.787	20.043	3.688	0.514
832.000	494.607	80.006	19.994	103.790	20.050	3.146	0.484
840.000	498.771	80.005	19.994	103.790	20.050	3.156	0.523
848.000	502.783	80.008	19.995	103.787	20.052	3.016	0.511
856.000	506.881	80.008	19.993	103.781	20.051	3.102	0.509
864.000	510.909	80.008	19.995	103.784	20.053	2.900	0.502
872.000	514.999	80.009	19.995	103.785	20.057	2.634	0.488
880.000	519.137	80.008	19.993	103.787	20.055	2.782	0.538
888.000	523.176	80.006	19.994	103.782	20.054	2.874	0.516
896.000	527.232	80.006	19.995	103.779	20.053	2.930	0.488
904.000	531.259	80.006	19.994	103.786	20.053	2.930	0.463
912.000	535.387	80.007	19.994	103.782	20.054	2.886	0.520
920.000	539.438	80.006	19.995	103.784	20.054	2.820	0.532
928.000	543.507	80.007	19.994	103.781	20.057	2.606	0.498
936.000	547.558	80.011	19.993	103.786	20.050	3.109	0.496
944.000	551.641	80.008	19.993	103.782	20.046	3.458	0.498
952.000	555.766	80.008	19.994	103.788	20.048	3.326	0.543
960.000	559.599	80.009	19.994	103.787	20.051	3.102	0.441
968.000	563.710	80.006	19.993	103.782	20.050	3.144	0.410
976.000	567.790	80.006	19.995	103.783	20.047	3.351	0.490
984.000	571.874	80.005	19.995	103.776	20.049	3.197	0.531
992.000	575.994	80.007	19.994	103.775	20.047	3.395	0.480
1000.000	580.106	80.006	19.993	103.774	20.050	3.139	0.520
1008.000	584.170	80.006	19.992	103.779	20.052	2.982	0.519
1016.000	588.172	80.007	19.994	103.782	20.052	3.018	0.505
1024.000	592.296	80.008	19.994	103.774	20.048	3.295	0.517
1032.001	596.389	80.008	19.993	103.790	20.051	3.057	0.512
1040.000	600.509	80.008	19.994	103.780	20.051	3.091	0.527
1048.000	604.594	80.008	19.995	103.768	20.047	3.337	0.509
1056.000	608.689	80.007	19.993	103.773	20.047	3.331	0.539
1064.000	612.753	80.007	19.994	103.774	20.047	3.337	0.492
1072.000	616.898	80.006	19.995	103.779	20.045	3.495	0.526
1080.000	620.939	80.006	19.994	103.776	20.049	3.247	0.517
1088.000	625.095	80.007	19.993	103.779	20.044	3.549	0.533
1096.000	629.191	80.007	19.994	103.778	20.052	3.000	0.504
1104.000	633.353	80.008	19.994	103.774	20.048	3.292	0.515
1112.000	637.592	80.009	19.993	103.783	20.045	3.495	0.523
1120.000	641.873	80.009	19.993	103.757	20.043	3.673	0.544
1128.000	646.098	80.011	19.993	103.782	20.045	3.475	0.527
1136.000	650.421	80.007	19.994	103.767	20.044	3.592	0.557
1144.000	654.682	80.007	19.994	103.761	20.046	3.429	0.528
1152.000	658.964	80.007	19.993	103.766	20.047	3.377	0.535
1160.000	663.003	80.006	19.994	103.760	20.043	3.659	0.491
1168.000	667.203	80.006	19.995	103.761	20.044	3.585	0.534
1176.001	671.314	80.009	19.995	103.763	20.044	3.556	0.532
1184.000	675.335	80.009	19.993	103.766	20.044	3.572	0.549
1192.000	679.393	80.007	19.993	103.768	20.045	3.510	0.517
1200.000	683.392	80.008	19.994	103.760	20.045	3.536	0.488
1208.000	687.423	80.010	19.993	103.762	20.047	3.343	0.503
1216.000	691.390	80.006	19.993	103.755	20.043	3.668	0.469
1224.000	695.415	80.007	19.992	103.778	20.042	3.738	0.505
1232.000	699.516	80.007	19.993	103.762	20.039	3.934	0.519
1240.000	703.615	80.007	19.994	103.768	20.040	3.872	0.527
1248.000	707.714	80.007	19.993	103.754	20.041	3.792	0.504
1256.000	711.852	80.008	19.994	103.756	20.043	3.620	0.529
1264.000	715.914	80.008	19.994	103.747	20.040	3.858	0.512
1272.000	719.904	80.007	19.994	103.751	20.039	3.966	0.517
1280.000	723.911	80.007	19.994	103.756	20.040	3.858	0.513
1288.000	727.864	80.009	19.992	103.755	20.036	4.128	0.502
1296.000	731.786	80.007	19.993	103.757	20.040	3.892	0.479
1304.000	735.738	80.006	19.993	103.753	20.035	4.211	0.462
1312.000	739.638	80.007	19.994	103.748	20.039	3.970	0.477
1320.000	743.587	80.007	19.993	103.748	20.039	3.946	0.497

File: Bean_Bag_Chair_Outer_Cover_MCC_30K_min_220311_O2.txt
Sample ID:	C:\MCC\MCC Cal\Test\Bean_Bag_Chair_Outer_Cover_MCC_30K_min_220311_R2.txt
Sample Weight (mg):	4.15
Heating Rate (C/s):	1
Combustor Temp (C):	900
N2 Flow Rate (cc/min):	80
O2 Flow Rate (cc/min):	20
Calibration File:	C:\MCC\MCC Cal\Coeff1 JN10440_30_210304.txt.txt
T Correction Coefficients:	0	1.024463	0
Time Shift (s):	14
*
Time (s)	Temperature (C)	N2 flow rate (cc/min)	O2 flow rate (cc/min)	Flow Rate (cc/min)	Oxygen (%)	HRR (W/g)	Heating rate (C/s)
0.000	109.128	80.005	19.993	103.610	19.904	0.282	-0.011
4.000	109.147	80.005	19.993	103.632	19.907	0.026	0.005
8.000	109.108	80.004	19.994	103.645	19.903	0.349	0.005
12.000	109.177	80.005	19.994	103.723	19.889	1.458	0.003
16.000	109.378	80.008	19.993	103.868	19.877	2.390	0.080
20.000	109.769	80.006	19.993	103.903	19.858	3.850	0.113
24.000	110.399	80.005	19.992	103.925	19.857	3.930	0.172
28.000	111.161	80.005	19.991	103.964	19.850	4.464	0.176
32.000	112.175	80.004	19.992	103.998	19.838	5.457	0.263
36.000	113.452	80.004	19.993	103.962	19.840	5.307	0.327
40.000	114.923	80.003	19.993	104.085	19.836	5.613	0.389
44.000	116.484	80.004	19.994	104.029	19.837	5.547	0.422
48.000	118.280	80.003	19.992	104.031	19.837	5.534	0.448
52.000	120.242	80.005	19.993	104.037	19.830	6.098	0.513
56.000	122.325	80.005	19.994	104.042	19.830	6.087	0.544
60.000	124.599	80.004	19.993	104.036	19.831	5.986	0.582
64.000	126.997	80.004	19.993	104.056	19.831	5.974	0.598
68.000	129.452	80.005	19.993	104.065	19.825	6.445	0.634
72.000	132.153	80.006	19.994	104.066	19.823	6.624	0.676
76.001	134.939	80.005	19.994	104.084	19.823	6.625	0.715
80.000	137.813	80.006	19.994	104.073	19.820	6.839	0.734
84.000	140.842	80.005	19.995	104.083	19.820	6.835	0.775
88.000	143.981	80.004	19.993	104.089	19.816	7.185	0.800
92.000	147.249	80.005	19.994	104.088	19.819	6.959	0.795
96.000	150.629	80.006	19.995	104.100	19.818	7.026	0.874
100.000	154.004	80.006	19.995	104.024	19.816	7.146	0.860
104.000	157.538	80.005	19.994	104.106	19.819	6.932	0.865
108.000	161.162	80.003	19.994	104.076	19.816	7.200	0.915
112.001	164.848	80.003	19.994	104.073	19.815	7.241	0.954
116.000	168.670	80.004	19.994	104.070	19.813	7.402	0.948
120.000	172.466	80.004	19.994	104.068	19.821	6.769	0.945
124.000	176.315	80.005	19.993	104.071	19.824	6.535	0.985
128.000	180.247	80.004	19.993	104.054	19.822	6.658	0.995
132.000	184.242	80.003	19.992	104.038	19.824	6.528	1.019
136.000	188.344	80.004	19.994	104.036	19.823	6.616	1.012
140.000	192.411	80.004	19.993	104.042	19.826	6.339	1.008
144.000	196.467	80.004	19.994	104.024	19.826	6.388	1.004
148.000	200.625	80.005	19.993	104.017	19.829	6.115	1.036
152.000	204.730	80.004	19.993	104.017	19.825	6.479	1.045
156.000	208.929	80.006	19.992	104.010	19.827	6.299	1.051
160.000	213.061	80.006	19.993	103.995	19.827	6.286	1.027
164.000	217.282	80.005	19.992	103.989	19.826	6.389	1.054
168.000	221.418	80.005	19.993	103.988	19.830	6.045	1.043
172.000	225.589	80.004	19.993	103.986	19.827	6.280	1.022
176.000	229.729	80.006	19.994	103.953	19.829	6.121	1.038
180.000	233.857	80.007	19.993	103.968	19.830	6.035	1.063
184.000	237.952	80.007	19.995	103.962	19.829	6.161	1.013
188.000	242.007	80.005	19.993	103.949	19.826	6.390	1.030
192.000	246.049	80.005	19.993	103.945	19.824	6.504	1.013
196.000	250.148	80.005	19.994	103.945	19.823	6.623	1.010
200.000	254.164	80.004	19.994	103.943	19.815	7.257	1.015
204.000	258.204	80.004	19.994	103.947	19.817	7.043	1.024
208.000	262.209	80.003	19.994	103.942	19.815	7.269	1.006
212.000	266.107	80.006	19.994	103.943	19.810	7.626	0.973
216.000	270.117	80.005	19.995	103.944	19.808	7.744	0.983
220.000	274.106	80.003	19.993	103.949	19.804	8.080	1.029
224.000	278.058	80.004	19.993	103.949	19.798	8.581	0.997
228.000	282.062	80.006	19.994	103.946	19.791	9.100	1.009
232.000	286.018	80.004	19.992	103.942	19.787	9.455	1.003
236.000	289.988	80.005	19.993	103.949	19.773	10.489	1.016
240.000	293.991	80.005	19.993	103.948	19.768	10.903	1.021
244.000	297.928	80.005	19.994	103.954	19.748	12.462	0.986
248.000	301.931	80.006	19.994	103.964	19.732	13.759	1.039
252.000	305.928	80.006	19.993	103.978	19.711	15.382	1.000
256.000	309.909	80.007	19.992	103.986	19.688	17.134	0.996
260.000	313.954	80.007	19.993	104.007	19.653	19.885	0.982
264.000	317.917	80.007	19.994	104.024	19.615	22.910	1.011
268.000	321.901	80.006	19.994	104.023	19.572	26.250	1.012
272.000	325.952	80.005	19.994	104.070	19.512	30.971	0.992
276.000	329.942	80.004	19.994	104.114	19.455	35.469	1.011
280.000	333.956	80.004	19.994	104.155	19.368	42.349	1.005
284.000	337.992	80.005	19.993	104.205	19.258	51.023	0.983
288.000	342.023	80.003	19.993	104.267	19.130	61.125	1.001
292.000	346.012	80.006	19.994	104.341	18.966	74.067	0.969
296.000	350.018	80.005	19.994	104.431	18.772	89.430	1.030
300.000	354.015	80.003	19.995	104.536	18.538	107.924	0.969
304.000	358.055	80.003	19.993	104.639	18.273	128.901	1.008
308.000	361.999	80.006	19.993	104.753	17.984	151.761	0.968
312.000	365.965	80.006	19.993	104.853	17.675	176.033	0.999
316.000	369.890	80.005	19.994	104.932	17.370	200.035	0.981
320.000	373.849	80.007	19.993	104.945	17.100	221.118	0.980
324.000	377.833	80.006	19.992	104.880	16.887	237.652	1.001
328.000	381.756	80.005	19.993	104.839	16.778	245.785	0.970
332.000	385.738	80.006	19.993	104.734	16.785	244.801	1.010
336.001	389.738	80.006	19.995	104.609	16.948	231.611	1.004
340.000	393.821	80.007	19.993	104.436	17.268	206.365	1.035
344.000	397.895	80.007	19.993	104.238	17.703	172.291	1.005
348.000	401.945	80.007	19.993	104.075	18.214	132.300	0.992
352.000	406.103	80.005	19.994	103.975	18.729	92.072	1.046
356.000	410.256	80.005	19.993	103.934	19.150	59.152	1.078
360.000	414.386	80.003	19.993	103.904	19.444	36.215	1.023
364.000	418.554	80.004	19.994	103.886	19.626	21.993	1.051
368.000	422.746	80.009	19.994	103.876	19.720	14.633	1.039
372.000	426.919	80.005	19.994	103.844	19.767	10.945	1.049
376.000	431.029	80.005	19.994	103.832	19.792	9.005	1.028
380.000	435.228	80.006	19.993	103.828	19.802	8.223	1.049
384.000	439.372	80.006	19.994	103.827	19.810	7.581	1.021
388.000	443.478	80.004	19.995	103.813	19.819	6.873	1.045
392.000	447.565	80.004	19.996	103.803	19.821	6.728	1.028
396.000	451.639	80.008	19.995	103.822	19.820	6.801	1.008
400.000	455.743	80.007	19.994	103.801	19.823	6.590	1.030
404.000	459.846	80.006	19.993	103.796	19.824	6.554	1.013
408.000	463.893	80.005	19.993	103.815	19.825	6.413	1.004
412.000	467.909	80.005	19.994	103.793	19.827	6.289	1.025
416.000	471.974	80.005	19.993	103.793	19.825	6.456	1.010
420.000	476.062	80.005	19.993	103.786	19.827	6.302	1.010
424.000	480.104	80.008	19.994	103.791	19.824	6.544	0.997
428.000	484.172	80.007	19.994	103.791	19.828	6.175	1.019
432.000	488.181	80.006	19.993	103.793	19.831	5.984	1.028
436.000	492.240	80.006	19.992	103.799	19.832	5.869	0.982
440.000	496.341	80.005	19.993	103.815	19.833	5.844	1.020
444.000	500.383	80.007	19.992	103.800	19.836	5.582	0.989
448.000	504.491	80.008	19.992	103.815	19.834	5.747	1.038
452.000	508.589	80.003	19.995	103.794	19.839	5.342	1.026
456.000	512.666	80.007	19.995	103.809	19.838	5.412	1.034
460.000	516.725	80.006	19.995	103.803	19.842	5.107	1.026
464.000	520.846	80.005	19.993	103.791	19.837	5.467	1.025
468.000	524.903	80.002	19.994	103.788	19.839	5.331	1.026
472.000	529.045	80.002	19.994	103.771	19.843	5.010	1.062
476.000	533.084	80.001	19.994	103.854	19.846	4.805	1.044
480.000	537.168	80.005	19.994	103.793	19.843	5.070	0.997
484.000	541.291	80.011	19.993	103.791	19.846	4.784	1.042
488.000	545.276	80.007	19.993	103.790	19.846	4.771	1.005
492.000	549.355	80.008	19.993	103.797	19.845	4.867	1.004
496.000	553.451	80.010	19.994	103.792	19.850	4.506	0.991
500.000	557.501	80.005	19.994	103.794	19.852	4.351	0.992
504.000	561.560	80.007	19.993	103.794	19.854	4.148	0.995
508.000	565.528	80.001	19.993	103.791	19.852	4.354	0.992
512.000	569.630	80.008	19.993	103.792	19.852	4.349	1.089
516.000	573.564	80.007	19.993	103.792	19.854	4.191	0.226
520.000	577.828	80.007	19.993	103.797	19.857	3.905	1.031
524.000	581.839	80.008	19.994	103.793	19.856	4.020	1.000
528.000	585.894	80.011	19.992	103.792	19.853	4.240	1.049
532.000	590.030	80.006	19.992	103.785	19.854	4.155	1.024
536.000	594.094	80.006	19.995	103.790	19.853	4.253	1.123
540.000	598.163	80.006	19.994	103.792	19.856	3.988	0.996
544.000	602.268	80.006	19.994	103.792	19.856	4.033	1.009
548.000	606.419	80.005	19.992	103.796	19.854	4.157	1.055
552.000	610.524	80.006	19.993	103.786	19.857	3.934	1.080
556.000	614.655	80.003	19.994	103.782	19.859	3.780	1.047
560.000	618.853	80.007	19.994	103.786	19.859	3.812	1.017
564.000	622.978	80.006	19.994	103.789	19.858	3.832	1.022
568.000	627.135	80.005	19.993	103.774	19.860	3.722	1.032
572.000	631.094	80.005	19.994	103.778	19.858	3.867	0.991
576.000	635.424	80.008	19.994	103.781	19.857	3.921	1.023
580.000	639.619	80.006	19.994	103.758	19.857	3.942	1.053
584.000	643.729	80.009	19.995	103.773	19.858	3.853	1.023
588.000	647.783	80.004	19.995	103.776	19.854	4.198	0.994
592.000	651.954	79.996	19.995	103.759	19.856	3.985	1.035
596.000	656.037	80.009	19.993	103.771	19.860	3.690	1.035
600.000	660.161	80.012	19.992	103.768	19.865	3.337	1.025
604.000	664.153	80.005	19.994	103.762	19.862	3.550	1.001
608.000	668.142	80.001	19.994	103.776	19.861	3.626	0.997
612.000	672.219	80.002	19.995	103.763	19.860	3.743	1.025
616.001	676.207	79.997	19.995	103.756	19.861	3.617	1.047
620.000	680.183	80.012	19.993	103.765	19.865	3.307	0.982
624.000	684.134	80.005	19.993	103.758	19.861	3.595	0.976
628.000	688.103	80.002	19.994	103.763	19.864	3.376	1.003
632.000	692.063	80.006	19.993	103.772	19.862	3.531	0.993
636.000	696.112	80.022	19.992	103.784	19.866	3.217	1.010
640.000	700.152	80.007	19.993	103.768	19.864	3.362	1.009
644.000	704.135	80.006	19.994	103.756	19.866	3.255	0.980
648.000	708.171	79.991	19.996	103.754	19.865	3.315	1.006
652.000	712.196	80.012	19.995	103.754	19.859	3.762	1.006
656.000	716.285	80.018	19.993	103.750	19.862	3.549	1.063
660.000	720.371	80.010	19.994	103.757	19.862	3.521	1.037
664.000	724.396	80.009	19.995	103.744	19.869	3.006	1.061
668.000	728.402	80.006	19.993	103.756	19.865	3.305	1.022
672.000	732.301	80.007	19.993	103.758	19.866	3.228	0.998
676.000	736.242	80.007	19.994	103.757	19.865	3.305	0.980
677.500	737.724	79.994	19.995	103.753	19.865	3.333	0.972