Folder: fsri_materials_database/01_Data/Triexta_Carpet_High_Pile/MCC

Note: 01_Data/README.md
# Materials and Products Database
## 01_Data

Raw data generated from each apparatus are included here in plain-text format. The data is organized first by material, next by the short name of test apparatus used, and where applicable additional filtering by test settings.

### material.json

Each material directory contains a json file of the same name as the material. This file links the data stored in the repository as well as data and graphs produced by the accompanying scripts (__02_Scripts__) to the respective landing page for the material on the front-end website.

File: Triexta_Carpet_High_Pile_MCC_30K_min_211117_R3.txt
Sample ID:	C:\MCC\MCC Cal\Test\Triexta_Carpet_High_Pile_MCC_30K_min_211117_R3.txt
Sample Weight (mg):	4.38
Heating Rate (C/s):	0.5
Combustor Temp (C):	900
N2 Flow Rate (cc/min):	80
O2 Flow Rate (cc/min):	20
Calibration File:	C:\MCC\MCC Cal\Coeff1 JN10440_30_210304.txt.txt
T Correction Coefficients:	0	1.024463	0
Time Shift (s):	14
*
Time (s)	Temperature (C)	N2 flow rate (cc/min)	O2 flow rate (cc/min)	Flow Rate (cc/min)	Oxygen (%)	HRR (W/g)	Heating rate (C/s)
0.000	107.133	80.002	19.996	102.986	20.054	-0.190	0.006
8.000	107.173	80.003	19.995	103.004	20.055	-0.260	-0.005
16.000	107.177	79.998	19.995	103.069	20.046	0.394	-0.011
24.000	107.431	80.000	19.995	103.105	20.034	1.269	0.032
32.001	108.097	80.003	19.996	103.216	20.020	2.291	0.097
40.000	109.078	80.000	19.995	103.182	20.021	2.259	0.145
48.000	110.424	80.007	19.997	103.220	20.013	2.795	0.183
56.000	112.189	80.001	19.995	103.236	20.010	3.087	0.243
64.000	114.163	80.003	19.994	103.223	20.006	3.373	0.252
72.000	116.410	80.002	19.995	103.242	20.012	2.921	0.259
80.000	118.879	80.001	19.995	103.260	20.009	3.120	0.330
88.000	121.600	80.002	19.996	103.263	20.003	3.537	0.360
96.000	124.555	80.001	19.995	103.283	20.007	3.301	0.378
104.000	127.725	80.005	19.995	103.274	19.999	3.864	0.400
112.000	131.003	80.002	19.994	103.260	20.002	3.618	0.440
120.000	134.452	80.002	19.995	103.268	19.999	3.884	0.427
128.000	137.936	80.002	19.995	103.264	19.998	3.904	0.443
136.000	141.484	80.003	19.995	103.262	19.997	4.037	0.409
144.000	145.194	80.003	19.996	103.410	20.001	3.707	0.465
152.000	148.895	80.002	19.994	103.258	19.999	3.842	0.461
160.000	152.690	80.004	19.995	103.257	19.994	4.211	0.463
168.000	156.441	80.002	19.997	103.258	19.999	3.843	0.449
176.000	160.282	79.999	19.997	103.224	19.994	4.251	0.490
184.000	164.231	80.001	19.995	103.261	19.994	4.215	0.487
192.000	168.192	80.000	19.996	103.261	19.993	4.301	0.516
200.000	172.202	79.999	19.995	103.262	19.996	4.094	0.453
208.000	176.272	80.002	19.995	103.262	19.997	4.032	0.536
216.000	180.305	80.002	19.995	103.255	20.001	3.684	0.491
224.000	184.312	80.003	19.997	103.250	19.999	3.826	0.473
232.000	188.396	80.003	19.994	103.209	19.996	4.065	0.473
240.000	192.374	80.002	19.995	103.217	20.001	3.682	0.492
248.000	196.299	80.000	19.995	103.214	20.000	3.789	0.491
256.000	200.229	80.001	19.997	103.182	19.998	3.922	0.492
264.000	204.119	80.000	19.996	103.221	20.001	3.700	0.475
272.000	208.012	79.999	19.996	103.222	20.001	3.690	0.492
280.000	211.936	80.001	19.996	103.221	20.002	3.632	0.482
288.000	215.884	80.002	19.996	103.218	20.005	3.440	0.502
296.000	219.789	80.004	19.995	103.218	20.001	3.696	0.485
304.001	223.681	80.003	19.996	103.218	20.005	3.406	0.502
312.000	227.599	80.002	19.996	103.222	20.002	3.664	0.500
320.000	231.515	80.002	19.994	103.222	20.000	3.767	0.481
328.000	235.428	80.001	19.995	103.221	19.998	3.953	0.494
336.000	239.292	80.001	19.995	103.219	20.000	3.805	0.481
344.000	243.232	80.002	19.996	103.217	19.998	3.916	0.504
352.000	247.195	80.001	19.996	103.216	19.995	4.150	0.528
360.000	251.259	80.001	19.997	103.194	19.997	4.033	0.489
368.000	255.291	80.002	19.996	103.181	19.995	4.145	0.520
376.000	259.442	80.003	19.996	103.183	19.993	4.273	0.519
384.000	263.477	80.000	19.994	103.181	19.993	4.273	0.517
392.000	267.551	80.004	19.994	103.178	19.994	4.218	0.535
400.000	271.675	80.004	19.993	103.177	19.992	4.388	0.509
408.000	275.742	80.002	19.996	103.172	19.992	4.346	0.498
416.000	279.813	80.002	19.996	103.170	19.988	4.661	0.544
424.000	283.774	80.001	19.995	103.168	19.989	4.588	0.480
432.000	287.754	80.000	19.995	103.170	19.989	4.620	0.511
440.000	291.722	80.001	19.996	103.183	19.984	4.927	0.473
448.000	295.666	80.001	19.995	103.167	19.980	5.249	0.485
456.000	299.547	80.000	19.996	103.177	19.981	5.162	0.511
464.000	303.376	80.001	19.994	103.179	19.979	5.348	0.473
472.000	307.301	80.003	19.994	103.174	19.974	5.691	0.496
480.000	311.271	80.004	19.995	103.179	19.969	6.038	0.476
488.000	315.296	80.001	19.994	103.177	19.966	6.315	0.474
496.000	319.290	80.002	19.995	103.157	19.960	6.696	0.499
504.000	323.250	80.000	19.994	103.174	19.962	6.588	0.486
512.000	327.221	80.001	19.996	103.175	19.954	7.180	0.481
520.000	331.117	80.001	19.997	103.183	19.950	7.486	0.487
528.000	335.085	80.003	19.995	103.182	19.941	8.090	0.526
536.000	339.034	80.003	19.995	103.172	19.934	8.606	0.484
544.000	342.932	80.001	19.996	103.179	19.924	9.380	0.465
552.000	346.983	80.005	19.996	103.180	19.908	10.565	0.493
560.000	351.043	80.004	19.995	103.182	19.889	11.977	0.492
568.000	355.270	80.001	19.995	103.190	19.869	13.437	0.535
576.000	359.545	80.003	19.995	103.208	19.843	15.325	0.537
584.000	363.790	80.001	19.994	103.222	19.807	17.961	0.541
592.000	368.088	80.000	19.995	103.223	19.754	21.897	0.544
600.000	372.337	80.002	19.996	103.236	19.675	27.706	0.518
608.000	376.602	80.001	19.996	103.255	19.587	34.165	0.525
616.000	380.800	80.003	19.995	103.288	19.477	42.315	0.530
624.000	385.004	80.002	19.996	103.304	19.340	52.350	0.534
632.000	389.102	80.002	19.995	103.340	19.178	64.348	0.509
640.000	393.203	80.003	19.995	103.374	18.994	77.928	0.542
648.000	397.241	80.002	19.994	103.418	18.816	91.011	0.508
656.000	401.249	79.999	19.995	103.449	18.653	103.075	0.491
664.000	405.158	80.000	19.996	103.453	18.526	112.462	0.513
672.000	409.083	80.001	19.995	103.470	18.453	117.826	0.452
680.000	412.998	80.002	19.996	103.476	18.433	119.286	0.478
688.000	416.898	80.003	19.994	103.466	18.472	116.420	0.492
696.000	420.826	80.002	19.995	103.456	18.568	109.251	0.492
704.000	424.692	80.001	19.995	103.422	18.715	98.394	0.493
712.000	428.652	80.003	19.994	103.383	18.881	86.145	0.513
720.000	432.637	80.004	19.995	103.342	19.041	74.325	0.503
728.000	436.645	80.001	19.996	103.298	19.193	63.169	0.506
736.000	440.642	80.001	19.996	103.259	19.340	52.298	0.480
744.000	444.632	80.002	19.995	103.230	19.481	41.944	0.492
752.000	448.575	80.006	19.993	103.207	19.561	36.045	0.476
760.000	452.619	80.010	19.993	103.185	19.585	34.250	0.493
768.000	456.606	80.002	19.994	103.165	19.591	33.837	0.480
776.000	460.653	79.998	19.993	103.161	19.581	34.553	0.504
784.000	464.844	80.003	19.995	103.145	19.593	33.678	0.522
792.000	469.212	80.005	19.994	103.125	19.651	29.400	0.548
800.000	473.642	80.004	19.995	103.137	19.722	24.216	0.585
808.000	478.119	80.004	19.995	103.139	19.788	19.382	0.559
816.000	482.570	80.000	19.996	103.141	19.851	14.707	0.578
824.000	487.006	79.998	19.995	103.142	19.896	11.414	0.570
832.000	491.367	80.004	19.995	103.143	19.915	10.006	0.549
840.000	495.744	79.997	19.995	103.145	19.927	9.170	0.532
848.000	500.027	80.001	19.995	103.144	19.934	8.609	0.550
856.000	504.318	80.007	19.995	103.136	19.936	8.476	0.558
864.000	508.557	80.002	19.995	103.143	19.931	8.847	0.501
872.000	512.684	80.008	19.993	103.141	19.932	8.791	0.538
880.000	516.895	80.009	19.995	103.140	19.930	8.942	0.531
888.000	521.035	80.003	19.995	103.142	19.930	8.914	0.538
896.000	525.106	80.002	19.995	103.144	19.929	9.011	0.529
904.001	529.219	80.004	19.995	103.144	19.928	9.088	0.523
912.000	533.357	80.000	19.996	103.144	19.925	9.281	0.508
920.000	537.421	80.001	19.995	103.141	19.917	9.889	0.517
928.000	541.499	80.001	19.995	103.139	19.915	9.994	0.496
936.000	545.473	80.004	19.996	103.141	19.911	10.294	0.506
944.000	549.509	80.005	19.995	103.143	19.909	10.447	0.478
952.000	553.629	80.000	19.995	103.144	19.910	10.433	0.525
960.000	557.727	80.006	19.993	103.143	19.910	10.409	0.474
968.000	561.847	80.002	19.996	103.145	19.905	10.774	0.518
976.000	565.909	79.999	19.996	103.144	19.904	10.867	0.519
984.000	569.994	80.003	19.995	103.146	19.902	10.999	0.522
992.000	574.105	80.001	19.994	103.142	19.897	11.351	0.511
1000.000	578.246	79.999	19.996	103.144	19.888	12.001	0.510
1008.000	582.368	80.002	19.997	103.144	19.877	12.828	0.484
1016.000	586.481	80.002	19.995	103.144	19.871	13.270	0.509
1024.000	590.520	80.003	19.994	103.148	19.857	14.326	0.476
1032.000	594.700	80.011	19.993	103.177	19.835	15.917	0.527
1040.000	598.763	80.002	19.994	103.179	19.793	19.007	0.556
1048.000	603.027	80.001	19.993	103.185	19.759	21.486	0.331
1056.001	607.134	80.000	19.994	103.185	19.731	23.548	0.801
1064.001	610.940	80.000	19.995	103.184	19.715	24.733	0.550
1072.000	614.975	80.003	19.995	103.182	19.728	23.745	0.512
1080.000	618.990	79.999	19.995	103.177	19.772	20.545	0.476
1088.000	623.004	80.004	19.996	103.159	19.850	14.795	0.508
1096.000	626.913	80.005	19.995	103.140	19.894	11.585	0.490
1104.000	630.696	80.002	19.994	103.131	19.907	10.628	0.466
1112.000	634.543	80.003	19.994	103.133	19.919	9.727	0.457
1120.001	638.443	80.003	19.995	103.110	19.918	9.794	0.525
1128.000	642.306	79.998	19.995	103.130	19.920	9.665	0.481
1136.000	646.229	80.003	19.994	103.133	19.920	9.654	0.486
1144.000	650.175	80.004	19.995	103.141	19.919	9.701	0.489
1152.000	654.177	80.000	19.995	103.140	19.918	9.779	0.510
1160.001	658.245	80.001	19.996	103.143	19.917	9.907	0.501
1168.000	662.355	80.001	19.996	103.144	19.920	9.697	0.555
1176.000	666.407	80.004	19.994	103.140	19.918	9.816	0.524
1184.000	670.479	80.002	19.996	103.143	19.914	10.123	0.532
1192.000	674.549	80.001	19.995	103.144	19.917	9.890	0.528
1200.001	678.612	80.005	19.994	103.142	19.915	10.021	0.516
1208.000	682.590	80.003	19.995	103.145	19.915	10.033	0.468
1216.000	686.571	79.999	19.996	103.168	19.909	10.452	0.513
1224.000	690.727	80.001	19.993	103.177	19.911	10.352	0.544
1232.000	694.948	80.001	19.995	103.177	19.912	10.240	0.518
1240.000	699.279	80.002	19.994	103.162	19.909	10.492	0.530
1248.000	703.623	80.009	19.995	103.150	19.909	10.499	0.498
1256.000	707.962	80.003	19.995	103.141	19.913	10.209	0.550
1264.000	712.295	80.001	19.995	103.110	19.916	9.921	0.505
1272.000	716.617	80.004	19.996	103.116	19.919	9.698	0.540
1280.000	720.826	80.003	19.996	103.105	19.921	9.557	0.522
1288.000	724.982	79.997	19.995	103.104	19.917	9.848	0.558
1296.000	729.057	80.001	19.994	103.103	19.917	9.855	0.531
1304.000	733.083	80.002	19.994	103.100	19.914	10.089	0.499
1312.000	737.043	80.004	19.996	103.103	19.914	10.078	0.477
1320.000	741.068	80.002	19.995	103.103	19.916	9.957	0.552
1325.000	743.562	80.002	19.994	103.104	19.916	9.937	0.485