Folder: fsri_materials_database/01_Data/Masonite_Board/STA/N2/10K_min

Note: 01_Data/README.md
# Materials and Products Database
## 01_Data

Raw data generated from each apparatus are included here in plain-text format. The data is organized first by material, next by the short name of test apparatus used, and where applicable additional filtering by test settings.

### material.json

Each material directory contains a json file of the same name as the material. This file links the data stored in the repository as well as data and graphs produced by the accompanying scripts (__02_Scripts__) to the respective landing page for the material on the front-end website.

File: Masonite_Board_STA_N2_10KData_222406_R1.csv
##Temp./Â°C,Time/min,DSC(subtr.)/mW,Mass loss(subtr.)/mg,Sensit./(uV/mW)
49.706,10.01,0.03279391,0.00131,1.07018
52.306,11.22375,0.50207,0.004449908,1.06946
54.906,11.62265,0.74279,0.002614428,1.06874
57.506,11.9536,0.88979,0.003145078,1.06801
60.106,12.25838,1.00992,0.003766034,1.06727
62.706,12.55132,1.08956,0.002589421,1.06652
65.306,12.83597,1.14067,0.001193028,1.06577
67.906,13.11695,1.20076,0.001235353,1.06501
70.506,13.3953,1.24022,-3.7508e-05,1.06425
73.106,13.6708,1.27938,-0.00137132,1.06347
75.706,13.9437,1.31074,-0.0001196385,1.06269
78.306,14.21483,1.34241,-0.001874491,1.06191
80.906,14.4824,1.36718,-0.002787295,1.06111
83.506,14.7487,1.38166,-0.00285956,1.06031
86.106,15.0123,1.38749,-0.005503055,1.0595
88.706,15.2741,1.40279,-0.005447105,1.05869
91.306,15.5333,1.39532,-0.00677455,1.05786
93.906,15.79297,1.39376,-0.005864154,1.05703
96.506,16.0507,1.39871,-0.00780625,1.0562
99.106,16.30764,1.40801,-0.00584784,1.05535
101.706,16.56344,1.43076,-0.006821108,1.0545
104.306,16.81825,1.4386,-0.00761605,1.05364
106.906,17.07305,1.44613,-0.007149266,1.05278
109.506,17.32734,1.44762,-0.009890507,1.0519
112.106,17.58071,1.44903,-0.006270266,1.05102
114.706,17.8345,1.46615,-0.0062111,1.05013
117.306,18.0875,1.46435,-0.007580495,1.04924
119.906,18.34129,1.46503,-0.008569547,1.04834
122.506,18.59402,1.48205,-0.00889,1.04743
125.106,18.84607,1.48543,-0.008920296,1.04651
127.706,19.0981,1.49361,-0.0075796,1.04559
130.306,19.34974,1.50968,-0.00758002,1.04465
132.906,19.60142,1.51772,-0.008890164,1.04371
135.506,19.8533,1.53524,-0.009880025,1.04277
138.106,20.10401,1.54756,-0.00869708,1.04181
140.706,20.35472,1.56046,-0.009234586,1.04085
143.306,20.60446,1.5755,-0.00912,1.03988
145.906,20.85449,1.5975,-0.01048151,1.03891
148.506,21.1039,1.61828,-0.00878,1.03792
151.106,21.3529,1.63678,-0.01009997,1.03693
153.706,21.60219,1.64238,-0.01014002,1.03593
156.306,21.851,1.66296,-0.01010975,1.03493
158.906,22.10016,1.67659,-0.01011005,1.03391
161.506,22.3493,1.69235,-0.01240357,1.03289
164.106,22.59864,1.70685,-0.01175,1.03186
166.706,22.84698,1.72742,-0.01025666,1.03082
169.306,23.09546,1.74738,-0.01273996,1.02978
171.906,23.34463,1.765,-0.01274001,1.02873
174.506,23.59277,1.77512,-0.01389954,1.02767
177.106,23.8423,1.79652,-0.01339,1.0266
179.706,24.09062,1.80993,-0.01537001,1.02552
182.306,24.33821,1.82767,-0.01537017,1.02444
184.906,24.58596,1.84708,-0.01663654,1.02335
187.506,24.83322,1.85989,-0.01702,1.02225
190.106,25.08073,1.87946,-0.01931488,1.02114
192.706,25.328,1.89276,-0.01932,1.02003
195.306,25.57558,1.91404,-0.0213,1.01891
197.906,25.8226,1.92407,-0.02259961,1.01778
200.506,26.06999,1.93917,-0.02361,1.01664
203.106,26.31764,1.95956,-0.02493,1.0155
205.706,26.5658,1.97255,-0.02661433,1.01434
208.306,26.813,1.9937,-0.02788999,1.01318
210.906,27.0611,2.01383,-0.02921,1.01201
213.506,27.30857,2.03653,-0.03184,1.01084
216.106,27.55635,2.05117,-0.03446099,1.00965
218.706,27.8042,2.07422,-0.03569901,1.00846
221.306,28.052,2.09169,-0.0398279,1.00726
223.906,28.2984,2.11986,-0.04122139,1.00605
226.506,28.54693,2.1461,-0.04240499,1.00483
229.106,28.7943,2.15664,-0.04634372,1.00361
231.706,29.0423,2.17009,-0.04965774,1.00238
234.306,29.2894,2.18823,-0.05257882,1.00114
236.906,29.53694,2.20776,-0.05560041,0.99989
239.506,29.78479,2.21922,-0.06054351,0.99863
242.106,30.0329,2.23296,-0.06728189,0.99737
244.706,30.2808,2.25206,-0.07082042,0.99609
247.306,30.5289,2.26055,-0.0766918,0.99481
249.906,30.7766,2.29494,-0.08371461,0.99353
252.506,31.02448,2.30881,-0.09101114,0.99223
255.106,31.27208,2.32355,-0.09915367,0.99092
257.706,31.51991,2.33671,-0.10945,0.98961
260.306,31.76727,2.34636,-0.12164,0.98829
262.906,32.0153,2.3548,-0.13097,0.98696
265.506,32.26313,2.36868,-0.14632,0.98562
268.106,32.51076,2.385,-0.16175,0.98428
270.706,32.75904,2.39146,-0.17788,0.98292
273.306,33.0068,2.40252,-0.19779,0.98156
275.906,33.25527,2.40124,-0.21812,0.98019
278.506,33.5032,2.40725,-0.24206,0.97881
281.106,33.75238,2.40766,-0.26835,0.97743
283.706,34.00108,2.40466,-0.29446,0.97603
286.306,34.24875,2.39765,-0.32385,0.97463
288.906,34.49834,2.39454,-0.35366,0.97322
291.506,34.74787,2.38532,-0.38566,0.9718
294.106,34.99688,2.37415,-0.41897,0.97037
296.706,35.24524,2.36591,-0.45162,0.96894
299.306,35.49465,2.3493,-0.48561,0.96749
301.906,35.7442,2.33308,-0.51845,0.96604
304.506,35.99338,2.3335,-0.55349,0.96458
307.106,36.24279,2.33583,-0.58573,0.96311
309.706,36.49264,2.34595,-0.62063,0.96164
312.306,36.7422,2.3692,-0.656,0.96015
314.906,36.99212,2.39827,-0.6901,0.95866
317.506,37.241,2.44563,-0.72576,0.95716
320.106,37.4908,2.49163,-0.76303,0.95565
322.706,37.74069,2.54999,-0.80335,0.95413
325.306,37.99091,2.62361,-0.84396,0.9526
327.906,38.24102,2.71964,-0.88838,0.95107
330.506,38.49177,2.82025,-0.9348,0.94952
333.106,38.74194,2.94888,-0.98527,0.94797
335.706,38.99327,3.10293,-1.04112,0.94641
338.306,39.24511,3.28064,-1.10221,0.94485
340.906,39.49686,3.49129,-1.16423,0.94327
343.506,39.74868,3.74072,-1.2364,0.94169
346.106,40.001,3.98973,-1.31739,0.94009
348.706,40.25334,4.31186,-1.40594,0.93849
351.306,40.50424,4.63386,-1.50213,0.93688
353.906,40.756,4.98428,-1.61084,0.93527
356.506,41.00897,5.30745,-1.7288,0.93364
359.106,41.26127,5.58722,-1.85567,0.93201
361.706,41.51285,5.7993,-1.99228,0.93036
364.306,41.76603,5.90565,-2.13236,0.92871
366.906,42.01885,5.83234,-2.27476,0.92706
369.506,42.271,5.546,-2.41392,0.92539
372.106,42.52256,5.02738,-2.54029,0.92372
374.706,42.7736,4.29508,-2.65037,0.92203
377.306,43.02429,3.42368,-2.73914,0.92034
379.906,43.27429,2.55023,-2.8045,0.91864
382.506,43.5244,1.79134,-2.84831,0.91693
385.106,43.77533,1.27666,-2.87503,0.91522
387.706,44.02714,0.98203,-2.8908,0.91349
390.306,44.27925,0.84933,-2.90297,0.91176
392.906,44.53112,0.78693,-2.91199,0.91002
395.506,44.78383,0.75824,-2.91914,0.90827
398.106,45.03625,0.7189,-2.9277,0.90652
400.706,45.28944,0.69582,-2.93573,0.90475
403.306,45.54235,0.66542,-2.94186,0.90298
405.906,45.79551,0.63124,-2.94999,0.9012
408.506,46.04952,0.59196,-2.95811,0.89941
411.106,46.30301,0.55738,-2.96583,0.89762
413.706,46.55576,0.53848,-2.97172,0.89581
416.306,46.80968,0.51112,-2.97929,0.894
418.906,47.06349,0.49768,-2.98666,0.89218
421.506,47.31728,0.47579,-2.99484,0.89035
424.106,47.57184,0.47775,-3.00176,0.88851
426.706,47.82665,0.48969,-3.00801,0.88667
429.306,48.08126,0.49975,-3.0152,0.88481
431.906,48.33625,0.52746,-3.0219,0.88295
434.506,48.591,0.5599,-3.03135,0.88109
437.106,48.8457,0.5736,-3.03716,0.87921
439.706,49.1012,0.62198,-3.04101,0.87733
442.306,49.35597,0.65525,-3.04728,0.87543
444.906,49.61117,0.696,-3.0534,0.87354
447.506,49.8667,0.75625,-3.06069,0.87163
450.106,50.12216,0.80241,-3.06461,0.86971
452.706,50.3778,0.84118,-3.0698,0.86779
455.306,50.63411,0.89297,-3.07515,0.86586
457.906,50.8899,0.92726,-3.08141,0.86392
460.506,51.14624,0.9611,-3.08437,0.86198
463.106,51.40299,0.97742,-3.08862,0.86002
465.706,51.65951,1.00571,-3.09227,0.85806
468.306,51.91668,1.0136,-3.09589,0.85609
470.906,52.1734,1.04217,-3.09886,0.85412
473.506,52.4299,1.05824,-3.10313,0.85213
476.106,52.6862,1.07687,-3.10655,0.85014
478.706,52.94324,1.08995,-3.11145,0.84814
481.306,53.1999,1.11981,-3.11411,0.84614
483.906,53.45615,1.11407,-3.11643,0.84413
486.506,53.7125,1.13906,-3.12038,0.84211
489.106,53.96892,1.15315,-3.1239,0.84008
491.706,54.2249,1.16114,-3.12697,0.83804
494.306,54.48214,1.17211,-3.12946,0.836
496.906,54.7391,1.17299,-3.13349,0.83395
499.506,54.9976,1.19004,-3.13651,0.83189
502.106,55.2553,1.19859,-3.13915,0.82983
504.706,55.51345,1.18872,-3.14218,0.82776
507.306,55.77162,1.2063,-3.14343,0.82568
509.906,56.0295,1.2162,-3.14738,0.8236
512.506,56.28756,1.22393,-3.15002,0.8215
515.106,56.54605,1.23273,-3.1511,0.8194
517.706,56.8041,1.22138,-3.15364,0.8173
520.306,57.0622,1.23146,-3.15627,0.81519
522.906,57.31984,1.22824,-3.15891,0.81307
525.506,57.57721,1.23092,-3.16286,0.81094
528.106,57.83526,1.22649,-3.1655,0.80881
530.706,58.09304,1.23363,-3.16813,0.80667
533.306,58.35063,1.2384,-3.16911,0.80452
535.906,58.60873,1.23536,-3.17306,0.80237
538.506,58.86714,1.2439,-3.17568,0.80021
541.106,59.1265,1.23245,-3.17831,0.79804
543.706,59.38527,1.23144,-3.17966,0.79587
546.306,59.6434,1.2221,-3.1823,0.79369
548.906,59.90229,1.20931,-3.18493,0.7915
551.506,60.16115,1.21706,-3.18633,0.78931
554.106,60.4199,1.21931,-3.18854,0.78711
556.706,60.67896,1.21691,-3.19148,0.78491
559.306,60.93821,1.22616,-3.19365,0.7827
561.906,61.19774,1.22626,-3.1941,0.78048
564.506,61.45782,1.2169,-3.19678,0.77826
567.106,61.7171,1.21296,-3.19942,0.77603
569.706,61.9769,1.223,-3.20172,0.77379
572.306,62.2366,1.22026,-3.20426,0.77155
574.906,62.4956,1.22584,-3.20699,0.7693
577.506,62.75504,1.24028,-3.20699,0.76705
580.106,63.01509,1.23537,-3.20792,0.76479
582.706,63.2753,1.24017,-3.21226,0.76253
585.306,63.53447,1.24803,-3.21359,0.76026
587.906,63.7941,1.24789,-3.2149,0.75798
590.506,64.0535,1.25529,-3.21754,0.7557
593.106,64.31296,1.23565,-3.21888,0.75341
595.706,64.57172,1.24207,-3.22177,0.75112
598.306,64.83157,1.25118,-3.22281,0.74882
600.906,65.09192,1.24117,-3.22511,0.74652
603.506,65.3523,1.24907,-3.22676,0.74421
606.106,65.61331,1.26433,-3.22833,0.7419
608.706,65.8739,1.28155,-3.23175,0.73958
611.306,66.13494,1.26747,-3.23169,0.73725
613.906,66.39579,1.2754,-3.23356,0.73492
616.506,66.65647,1.27169,-3.23521,0.73259
619.106,66.9172,1.2747,-3.23784,0.73025
621.706,67.17734,1.28809,-3.23983,0.7279
624.306,67.43773,1.28883,-3.24125,0.72555
626.906,67.69734,1.28564,-3.24337,0.7232
629.506,67.95775,1.28419,-3.24518,0.72084
632.106,68.21851,1.27513,-3.24716,0.71848
634.706,68.47885,1.28498,-3.24718,0.71611
637.306,68.73959,1.29624,-3.24981,0.71374
639.906,69.0003,1.30187,-3.25113,0.71136
642.506,69.26131,1.31962,-3.25113,0.70898
645.106,69.5219,1.3272,-3.25252,0.70659
647.706,69.78323,1.34433,-3.25574,0.7042
649.806,69.99501,1.33303,-3.2564,0.70227