Folder: fsri_materials_database/01_Data/Masonite_Board/STA/N2/30K_min (part 2)

File: Masonite_STA_N2_30KData_222706_R3.csv
##Temp./Â°C,Time/min,DSC(subtr.2)/mW,Mass loss(subtr.2)/mg,Sensit./(uV/mW)
48.521,10.01,0.07383202,-0.027,1.05401
51.121,10.8286,0.69639,-0.02633413,1.05348
53.721,11.0428,1.12893,-0.02838103,1.05294
56.321,11.20425,1.47646,-0.02782362,1.05238
58.921,11.34176,1.76394,-0.02749995,1.05181
61.521,11.4654,2.00578,-0.02801974,1.05123
64.121,11.5807,2.23519,-0.0271009,1.05064
66.721,11.68954,2.42762,-0.02668452,1.05003
69.321,11.7939,2.61044,-0.02888495,1.04942
71.921,11.89379,2.78266,-0.0309144,1.04879
74.521,11.99266,2.93792,-0.03005721,1.04815
77.121,12.08915,3.07762,-0.03018558,1.04749
79.721,12.18339,3.22068,-0.0316725,1.04683
82.321,12.27689,3.33889,-0.03239485,1.04615
84.921,12.36886,3.44912,-0.03387995,1.04546
87.521,12.45975,3.55255,-0.03460427,1.04476
90.121,12.5493,3.64712,-0.03656074,1.04405
92.721,12.6386,3.73109,-0.03809105,1.04332
95.321,12.72751,3.79909,-0.03680514,1.04259
97.921,12.81546,3.86028,-0.03808234,1.04184
100.521,12.9032,3.89555,-0.03943306,1.04108
103.121,12.9903,3.92961,-0.03952762,1.04031
105.721,13.07708,3.94351,-0.0408336,1.03953
108.321,13.1644,3.95001,-0.04083813,1.03873
110.921,13.25124,3.94955,-0.04077239,1.03793
113.521,13.3376,3.97288,-0.04215175,1.03711
116.121,13.42401,3.99057,-0.04346976,1.03628
118.721,13.50999,4.02012,-0.04412999,1.03544
121.321,13.59575,4.02089,-0.04374211,1.03459
123.921,13.6811,4.03623,-0.04477597,1.03373
126.521,13.76631,4.04742,-0.04479,1.03285
129.121,13.85125,4.0503,-0.04478992,1.03197
131.721,13.9354,4.05773,-0.04562698,1.03107
134.321,14.0194,4.07168,-0.0448003,1.03016
136.921,14.1033,4.08302,-0.04471679,1.02925
139.521,14.18671,4.10911,-0.04676337,1.02832
142.121,14.2699,4.1275,-0.04675994,1.02738
144.721,14.3528,4.15885,-0.04544094,1.02643
147.321,14.43547,4.19698,-0.04543322,1.02546
149.921,14.51774,4.23438,-0.04678223,1.02449
152.521,14.59961,4.27096,-0.04808001,1.02351
155.121,14.6819,4.31285,-0.04676487,1.02251
157.721,14.7638,4.35068,-0.04774886,1.02151
160.321,14.8455,4.38101,-0.04807165,1.02049
162.921,14.9271,4.43314,-0.04808,1.01947
165.521,15.00815,4.48574,-0.04808001,1.01843
168.121,15.08944,4.53437,-0.04901123,1.01739
170.721,15.17051,4.5695,-0.04938877,1.01633
173.321,15.2513,4.61782,-0.04807984,1.01526
175.921,15.33185,4.66625,-0.04886429,1.01418
178.521,15.41223,4.71336,-0.05070994,1.01309
181.121,15.4926,4.7522,-0.05071,1.012
183.721,15.5721,4.81352,-0.05071,1.01089
186.321,15.65254,4.8476,-0.05071,1.00977
188.921,15.7321,4.91267,-0.05071384,1.00864
191.521,15.8118,4.95147,-0.05234942,1.0075
194.121,15.8908,5.00192,-0.05236007,1.00635
196.721,15.97044,5.05453,-0.05103993,1.00519
199.321,16.04973,5.09497,-0.05334738,1.00402
201.921,16.12894,5.13777,-0.05368483,1.00285
204.521,16.20801,5.19907,-0.05679618,1.00166
207.121,16.28699,5.24899,-0.05764609,1.00046
209.721,16.366,5.29268,-0.05892952,0.99925
212.321,16.44482,5.34234,-0.05895,0.99803
214.921,16.52388,5.39638,-0.05898913,0.99681
217.521,16.60289,5.43983,-0.06162875,0.99557
220.121,16.68155,5.50099,-0.0615888,0.99433
222.721,16.76026,5.54781,-0.06422748,0.99307
225.321,16.8389,5.60204,-0.06555852,0.99181
227.921,16.91774,5.6638,-0.06684285,0.99053
230.521,16.99651,5.70422,-0.06885416,0.98925
233.121,17.0751,5.75963,-0.07206928,0.98796
235.721,17.1536,5.8089,-0.07344511,0.98665
238.321,17.2321,5.86233,-0.07529543,0.98534
240.921,17.31064,5.90868,-0.07744447,0.98402
243.521,17.38922,5.96449,-0.07983726,0.9827
246.121,17.46775,6.01108,-0.0820363,0.98136
248.721,17.54617,6.05808,-0.08694794,0.98001
251.321,17.62446,6.1019,-0.09035274,0.97866
253.921,17.70288,6.14092,-0.09585001,0.97729
256.521,17.78126,6.17947,-0.09828963,0.97592
259.121,17.85952,6.22228,-0.10242,0.97454
261.721,17.93786,6.2567,-0.10585,0.97315
264.321,18.01612,6.28604,-0.11247,0.97175
266.921,18.09434,6.32585,-0.11837,0.97034
269.521,18.1726,6.35212,-0.12493,0.96892
272.121,18.251,6.38661,-0.13292,0.9675
274.721,18.32893,6.41278,-0.14248,0.96607
277.321,18.40706,6.43548,-0.15141,0.96463
279.921,18.48564,6.46114,-0.16123,0.96318
282.521,18.56418,6.47755,-0.17234,0.96172
285.121,18.6424,6.49167,-0.18386,0.96025
287.721,18.72092,6.50269,-0.19838,0.95878
290.321,18.7992,6.50958,-0.21672,0.9573
292.921,18.8775,6.50654,-0.23629,0.95581
295.521,18.95591,6.501,-0.25456,0.95431
298.121,19.03441,6.48446,-0.27572,0.9528
300.721,19.11294,6.44799,-0.29958,0.95129
303.321,19.19125,6.41435,-0.32439,0.94977
305.921,19.26984,6.36519,-0.35243,0.94824
308.521,19.34842,6.305,-0.38061,0.9467
311.121,19.42686,6.24853,-0.41079,0.94516
313.721,19.50552,6.19395,-0.44177,0.94361
316.321,19.5841,6.14397,-0.4726,0.94205
318.921,19.66279,6.10445,-0.50664,0.94048
321.521,19.74157,6.0721,-0.53935,0.93891
324.121,19.82045,6.04903,-0.57269,0.93732
326.721,19.8994,6.0586,-0.60662,0.93574
329.321,19.97849,6.08383,-0.6399,0.93414
331.921,20.05751,6.12521,-0.67515,0.93253
334.521,20.13648,6.18992,-0.7084,0.93092
337.121,20.2157,6.27841,-0.74516,0.92931
339.721,20.29509,6.40022,-0.78159,0.92768
342.321,20.37441,6.5579,-0.82065,0.92605
344.921,20.45399,6.74226,-0.85981,0.92441
347.521,20.5335,6.98228,-0.90182,0.92276
350.121,20.6132,7.26401,-0.94824,0.92111
352.721,20.69294,7.59382,-0.99821,0.91945
355.321,20.77303,7.98503,-1.05161,0.91779
357.921,20.85301,8.45579,-1.10874,0.91611
360.521,20.9329,9.00585,-1.1714,0.91443
363.121,21.013,9.61295,-1.24135,0.91275
365.721,21.09319,10.2875,-1.31641,0.91105
368.321,21.17364,11.03934,-1.40155,0.90936
370.921,21.25394,11.81011,-1.49276,0.90765
373.521,21.33454,12.6035,-1.59458,0.90594
376.121,21.41528,13.3712,-1.70464,0.90422
378.721,21.4959,14.036,-1.82419,0.9025
381.321,21.57679,14.5138,-1.94899,0.90076
383.921,21.6574,14.7439,-2.07917,0.89903
386.521,21.7387,14.60709,-2.21174,0.89728
389.121,21.8194,14.01375,-2.33996,0.89554
391.721,21.9001,12.94855,-2.46357,0.89378
394.321,21.98066,11.42526,-2.57161,0.89202
396.921,22.06085,9.55097,-2.66291,0.89025
399.521,22.14126,7.53236,-2.73534,0.88848
402.121,22.2212,5.61534,-2.78938,0.8867
404.721,22.3012,4.00468,-2.82658,0.88492
407.321,22.38099,2.84886,-2.85174,0.88313
409.921,22.461,2.09724,-2.86707,0.88133
412.521,22.54119,1.66609,-2.87741,0.87953
415.121,22.62153,1.38151,-2.88899,0.87772
417.721,22.70212,1.20771,-2.89718,0.87591
420.321,22.78265,1.06715,-2.90698,0.87409
422.921,22.8634,0.96511,-2.9157,0.87227
425.521,22.9444,0.86874,-2.92239,0.87044
428.121,23.02535,0.77501,-2.93005,0.86861
430.721,23.10657,0.6799,-2.93918,0.86677
433.321,23.1879,0.60531,-2.94744,0.86492
435.921,23.26921,0.52259,-2.95416,0.86307
438.521,23.35056,0.45589,-2.96137,0.86122
441.121,23.43188,0.41489,-2.96926,0.85936
443.721,23.5135,0.36211,-2.97613,0.8575
446.321,23.59512,0.34549,-2.9835,0.85563
448.921,23.67689,0.34027,-2.99079,0.85375
451.521,23.75856,0.36399,-2.99635,0.85187
454.121,23.84082,0.39991,-3.00267,0.84999
456.721,23.92285,0.45314,-3.01158,0.8481
459.321,24.0051,0.52399,-3.01711,0.84621
461.921,24.08721,0.61372,-3.02189,0.84431
464.521,24.1696,0.71065,-3.02844,0.84241
467.121,24.25212,0.80309,-3.03415,0.8405
469.721,24.33468,0.92361,-3.04177,0.83859
472.321,24.41723,1.03002,-3.04649,0.83667
474.921,24.49996,1.12779,-3.05065,0.83475
477.521,24.58275,1.21928,-3.05726,0.83283
480.121,24.6655,1.32256,-3.06088,0.8309
482.721,24.74822,1.41914,-3.06643,0.82896
485.321,24.83109,1.48201,-3.07089,0.82703
487.921,24.91396,1.55505,-3.07407,0.82508
490.521,24.9968,1.6286,-3.07719,0.82314
493.121,25.07977,1.69831,-3.07996,0.82119
495.721,25.163,1.73427,-3.08376,0.81924
498.321,25.24625,1.76647,-3.08757,0.81728
500.921,25.32913,1.80366,-3.09191,0.81532
503.521,25.41246,1.85151,-3.09466,0.81335
506.121,25.49592,1.87164,-3.09725,0.81138
508.721,25.57929,1.88716,-3.10066,0.80941
511.321,25.6626,1.919,-3.10627,0.80743
513.921,25.74584,1.92732,-3.10906,0.80545
516.521,25.82935,1.9465,-3.11176,0.80347
519.121,25.91294,1.94535,-3.115,0.80148
521.721,25.9963,1.94933,-3.11643,0.79949
524.321,26.07989,1.95349,-3.11927,0.7975
526.921,26.16362,1.95908,-3.12217,0.7955
529.521,26.2471,1.9551,-3.12503,0.7935
532.121,26.33088,1.96077,-3.12896,0.79149
534.721,26.41455,1.95853,-3.13155,0.78948
537.321,26.49832,1.96023,-3.13422,0.78747
539.921,26.582,1.95891,-3.13439,0.78546
542.521,26.66592,1.96121,-3.13763,0.78344
545.121,26.74956,1.97428,-3.13967,0.78142
547.721,26.83372,1.95814,-3.14377,0.7794
550.321,26.91757,1.94841,-3.14366,0.77737
552.921,27.00171,1.94256,-3.14933,0.77534
555.521,27.0857,1.92431,-3.15339,0.77331
558.121,27.16978,1.90629,-3.1533,0.77128
560.721,27.2538,1.89521,-3.15508,0.76924
563.321,27.33785,1.89351,-3.15846,0.7672
565.921,27.42213,1.87941,-3.1618,0.76515
568.521,27.50628,1.86907,-3.16549,0.76311
571.121,27.5907,1.86707,-3.16762,0.76106
573.721,27.67515,1.85192,-3.16931,0.75901
576.321,27.75957,1.84071,-3.17053,0.75695
578.921,27.84402,1.83066,-3.17185,0.7549
581.521,27.9286,1.82516,-3.17337,0.75284
584.121,28.01306,1.82588,-3.17459,0.75078
586.721,28.0978,1.81968,-3.17704,0.74872
589.321,28.18245,1.80475,-3.17809,0.74665
591.921,28.26735,1.81007,-3.18048,0.74458
594.521,28.3522,1.81453,-3.18459,0.74251
597.121,28.43709,1.80608,-3.18734,0.74044
599.721,28.522,1.80847,-3.19019,0.73837
602.321,28.6069,1.8039,-3.19021,0.73629
604.921,28.69173,1.79829,-3.19292,0.73421
607.521,28.77717,1.79799,-3.19523,0.73213
610.121,28.8624,1.79933,-3.19656,0.73005
612.721,28.94752,1.79247,-3.19675,0.72796
615.321,29.0326,1.79627,-3.19926,0.72588
617.921,29.11781,1.7941,-3.20333,0.72379
620.521,29.20322,1.80607,-3.20322,0.7217
623.121,29.28872,1.80497,-3.20401,0.71961
625.721,29.3741,1.8078,-3.20579,0.71752
628.321,29.45937,1.80679,-3.2071,0.71542
630.921,29.545,1.8296,-3.20983,0.71332
633.521,29.6304,1.83323,-3.21116,0.71123
636.121,29.716,1.84164,-3.21374,0.70913
638.721,29.80156,1.84399,-3.21654,0.70703
641.321,29.88731,1.8434,-3.21833,0.70492
643.921,29.97288,1.84317,-3.22016,0.70282
644.721,29.9991,1.84836,-3.22016,0.70217