Folder: fsri_materials_database/01_Data/Masonite_Board/STA/N2/30K_min

Note: 01_Data/README.md
# Materials and Products Database
## 01_Data

Raw data generated from each apparatus are included here in plain-text format. The data is organized first by material, next by the short name of test apparatus used, and where applicable additional filtering by test settings.

### material.json

Each material directory contains a json file of the same name as the material. This file links the data stored in the repository as well as data and graphs produced by the accompanying scripts (__02_Scripts__) to the respective landing page for the material on the front-end website.

File: Masonite_STA_N2_30KData_222706_R1.csv
##Temp./Â°C,Time/min,DSC(subtr.2)/mW,Mass loss(subtr.2)/mg,Sensit./(uV/mW)
48.482,10.01,0.05211658,0.01482,1.05402
51.082,10.82897,0.58241,0.01697378,1.05349
53.682,11.043,0.9686,0.01746763,1.05295
56.282,11.20378,1.28623,0.01796224,1.05239
58.882,11.3428,1.55714,0.01705447,1.05182
61.482,11.46688,1.78696,0.01797131,1.05124
64.082,11.58184,2.00239,0.01691652,1.05065
66.682,11.69082,2.19172,0.01761615,1.05004
69.282,11.79457,2.357,0.01862334,1.04943
71.882,11.89557,2.52628,0.01779502,1.0488
74.482,11.99398,2.66606,0.01514314,1.04816
77.082,12.0902,2.8029,0.01713051,1.0475
79.682,12.18475,2.92203,0.01642914,1.04684
82.282,12.27795,3.05377,0.01675642,1.04616
84.882,12.36987,3.15239,0.01603317,1.04547
87.482,12.46064,3.26948,0.01465954,1.04477
90.082,12.5504,3.3472,0.01566785,1.04406
92.682,12.6397,3.42059,0.01305568,1.04334
95.282,12.72783,3.48781,0.01310766,1.0426
97.882,12.81599,3.52916,0.01209112,1.04185
100.482,12.9032,3.56715,0.01162059,1.04109
103.082,12.99087,3.59779,0.01043996,1.04032
105.682,13.07806,3.60397,0.01010785,1.03954
108.282,13.16496,3.62111,0.009177441,1.03874
110.882,13.2518,3.62481,0.007929617,1.03794
113.482,13.33825,3.64032,0.009109999,1.03712
116.082,13.4246,3.66274,0.01052241,1.03629
118.682,13.51053,3.67555,0.009110041,1.03545
121.282,13.59651,3.69048,0.007821537,1.0346
123.882,13.6819,3.69231,0.00779,1.03374
126.482,13.76719,3.7014,0.00793692,1.03287
129.082,13.852,3.70827,0.009190646,1.03198
131.682,13.9366,3.71083,0.00679998,1.03109
134.282,14.02067,3.72791,0.00682275,1.03018
136.882,14.10454,3.74633,0.008142515,1.02926
139.482,14.18801,3.75696,0.009430014,1.02833
142.082,14.2713,3.78377,0.009405223,1.02739
144.682,14.3542,3.81313,0.00907635,1.02644
147.282,14.4365,3.85172,0.009109986,1.02548
149.882,14.51925,3.88415,0.009444735,1.02451
152.482,14.6014,3.91355,0.00944,1.02352
155.082,14.68351,3.95897,0.00944,1.02253
157.682,14.76529,3.99237,0.009443111,1.02152
160.282,14.84665,4.03561,0.009439314,1.02051
162.882,14.9282,4.06816,0.008786462,1.01948
165.482,15.0095,4.09773,0.00878,1.01845
168.082,15.09048,4.14705,0.00878,1.0174
170.682,15.17154,4.19261,0.00878,1.01634
173.282,15.2524,4.23329,0.00878,1.01528
175.882,15.3332,4.28211,0.008779365,1.0142
178.482,15.4132,4.32262,0.00745646,1.01311
181.082,15.493,4.36707,0.00680675,1.01201
183.682,15.57345,4.40681,0.00678214,1.0109
186.282,15.6538,4.44811,0.00745996,1.00978
188.882,15.73339,4.50043,0.007464715,1.00866
191.482,15.81286,4.54554,0.008120137,1.00752
194.082,15.89215,4.58859,0.00717876,1.00637
196.682,15.97158,4.64201,0.0058117,1.00521
199.282,16.05076,4.69626,0.00548959,1.00404
201.882,16.1296,4.7369,0.00549,1.00286
204.482,16.20853,4.79671,0.00555488,1.00167
207.082,16.2877,4.84526,0.00282628,1.00048
209.682,16.36666,4.88671,0.001555271,0.99927
212.282,16.4454,4.93428,0.00249432,0.99805
214.882,16.52441,4.99087,0.001199956,0.99683
217.482,16.60324,5.04084,0.0009335328,0.99559
220.082,16.68178,5.08602,-0.00143285,0.99434
222.682,16.76051,5.13948,-0.00275188,0.99309
225.282,16.83911,5.19742,-0.0040792,0.99182
227.882,16.91775,5.24984,-0.00615166,0.99055
230.482,16.99629,5.29389,-0.00730856,0.98927
233.082,17.07474,5.33363,-0.00933026,0.98798
235.682,17.15342,5.39223,-0.01068119,0.98667
238.282,17.2317,5.43209,-0.01335828,0.98536
240.882,17.31043,5.49106,-0.01529892,0.98404
243.482,17.38907,5.52009,-0.01730526,0.98272
246.082,17.4675,5.56831,-0.02007153,0.98138
248.682,17.54584,5.62233,-0.02261646,0.98003
251.282,17.62432,5.65405,-0.02694111,0.97868
253.882,17.70257,5.69761,-0.03052914,0.97731
256.482,17.78076,5.72888,-0.03455269,0.97594
259.082,17.8596,5.77041,-0.03796055,0.97456
261.682,17.93795,5.81236,-0.04280721,0.97317
264.282,18.01614,5.83982,-0.04861685,0.97177
266.882,18.09444,5.88363,-0.0543747,0.97036
269.482,18.17268,5.90154,-0.06101823,0.96895
272.082,18.25112,5.9368,-0.0681065,0.96752
274.682,18.32949,5.96229,-0.07691449,0.96609
277.282,18.4079,5.9817,-0.08594765,0.96465
279.882,18.48643,6.00317,-0.09588411,0.9632
282.482,18.56483,6.02736,-0.10875,0.96174
285.082,18.64327,6.04077,-0.12073,0.96028
287.682,18.72176,6.04916,-0.13552,0.9588
290.282,18.8004,6.05039,-0.15084,0.95732
292.882,18.87881,6.04447,-0.16916,0.95583
295.482,18.95744,6.04549,-0.18985,0.95433
298.082,19.03596,6.02993,-0.21115,0.95283
300.682,19.11439,6.00484,-0.23442,0.95131
303.282,19.19306,5.96572,-0.25864,0.94979
305.882,19.27177,5.91999,-0.28744,0.94826
308.482,19.3504,5.87875,-0.31665,0.94673
311.082,19.4286,5.8184,-0.3465,0.94518
313.682,19.50747,5.75393,-0.37562,0.94363
316.282,19.58638,5.70539,-0.40814,0.94207
318.882,19.6652,5.66129,-0.4406,0.9405
321.482,19.74411,5.63264,-0.47385,0.93893
324.082,19.82289,5.61976,-0.5058,0.93735
326.682,19.90192,5.62755,-0.53746,0.93576
329.282,19.9809,5.65248,-0.57187,0.93416
331.882,20.06012,5.6917,-0.60541,0.93256
334.482,20.13925,5.77077,-0.64065,0.93095
337.082,20.2185,5.86408,-0.67551,0.92933
339.682,20.2978,5.99085,-0.71245,0.92771
342.282,20.37725,6.14145,-0.74988,0.92607
344.882,20.45669,6.32616,-0.79031,0.92443
347.482,20.53611,6.55484,-0.83161,0.92279
350.082,20.61583,6.83,-0.87632,0.92114
352.682,20.69565,7.16598,-0.92476,0.91948
355.282,20.77523,7.56223,-0.97758,0.91781
357.882,20.85521,8.02454,-1.0343,0.91614
360.482,20.93529,8.55687,-1.09715,0.91446
363.082,21.0153,9.16383,-1.16515,0.91277
365.682,21.09563,9.83444,-1.24149,0.91108
368.282,21.17596,10.5707,-1.32412,0.90938
370.882,21.25611,11.34286,-1.41631,0.90768
373.482,21.33677,12.1387,-1.51556,0.90596
376.082,21.41731,12.88975,-1.62442,0.90425
378.682,21.498,13.5539,-1.74267,0.90252
381.282,21.57873,14.0475,-1.86652,0.90079
383.882,21.65946,14.27067,-1.99616,0.89905
386.482,21.74021,14.14896,-2.12624,0.89731
389.082,21.82089,13.58496,-2.25549,0.89556
391.682,21.90158,12.53632,-2.37594,0.89381
394.282,21.98188,11.03304,-2.48307,0.89205
396.882,22.06222,9.1846,-2.57524,0.89028
399.482,22.14232,7.18101,-2.64727,0.88851
402.082,22.2223,5.27175,-2.70013,0.88673
404.682,22.30183,3.69112,-2.73574,0.88494
407.282,22.38192,2.50701,-2.76006,0.88315
409.882,22.4619,1.74698,-2.77446,0.88136
412.482,22.5419,1.28793,-2.78559,0.87956
415.082,22.62223,1.02114,-2.79641,0.87775
417.682,22.7025,0.84027,-2.80494,0.87594
420.282,22.78322,0.72488,-2.81309,0.87412
422.882,22.8639,0.61358,-2.82095,0.8723
425.482,22.9447,0.51604,-2.82816,0.87047
428.082,23.02536,0.42588,-2.83499,0.86863
430.682,23.1067,0.33304,-2.84248,0.8668
433.282,23.18802,0.25766,-2.85188,0.86495
435.882,23.26925,0.1807,-2.85759,0.8631
438.482,23.3507,0.13168,-2.86503,0.86125
441.082,23.43224,0.07855996,-2.86869,0.85939
443.682,23.51374,0.04766407,-2.87968,0.85752
446.282,23.5955,0.02662592,-2.88634,0.85565
448.882,23.6771,0.02719114,-2.8928,0.85378
451.482,23.75921,0.05975444,-2.90183,0.8519
454.082,23.84105,0.08654597,-2.90768,0.85002
456.682,23.92322,0.14982,-2.91395,0.84813
459.282,24.0053,0.21734,-2.91939,0.84623
461.882,24.0875,0.30447,-2.92598,0.84434
464.482,24.1698,0.3819,-2.93232,0.84243
467.082,24.25216,0.48401,-2.9374,0.84053
469.682,24.33464,0.5862,-2.94256,0.83862
472.282,24.41712,0.69172,-2.94827,0.8367
474.882,24.49984,0.80319,-2.95142,0.83478
477.482,24.58269,0.90921,-2.95667,0.83285
480.082,24.66526,1.00462,-2.95945,0.83093
482.682,24.7481,1.09604,-2.96687,0.82899
485.282,24.83083,1.19076,-2.96963,0.82706
487.882,24.91379,1.26307,-2.97444,0.82511
490.482,24.99681,1.33686,-2.97775,0.82317
493.082,25.0796,1.40496,-2.98039,0.82122
495.682,25.16279,1.45637,-2.9855,0.81927
498.282,25.24575,1.51016,-2.98833,0.81731
500.882,25.32891,1.54465,-2.99095,0.81535
503.482,25.41207,1.58903,-2.99387,0.81338
506.082,25.49539,1.63529,-2.9968,0.81141
508.682,25.5787,1.64916,-2.99976,0.80944
511.282,25.66199,1.67846,-3.00346,0.80746
513.882,25.74515,1.71126,-3.00471,0.80548
516.482,25.82868,1.72544,-3.00973,0.8035
519.082,25.91199,1.7301,-3.01166,0.80151
521.682,25.99544,1.75381,-3.01545,0.79952
524.282,26.07892,1.75108,-3.01816,0.79753
526.882,26.16253,1.76367,-3.02197,0.79553
529.482,26.2461,1.76347,-3.02447,0.79353
532.082,26.3297,1.76023,-3.02583,0.79152
534.682,26.41335,1.76729,-3.02834,0.78951
537.282,26.4974,1.76439,-3.03187,0.7875
539.882,26.58118,1.75156,-3.03427,0.78549
542.482,26.66493,1.75249,-3.03579,0.78347
545.082,26.749,1.7404,-3.0385,0.78145
547.682,26.83282,1.74095,-3.04141,0.77943
550.282,26.91687,1.74372,-3.04408,0.7774
552.882,27.00106,1.73895,-3.0468,0.77537
555.482,27.0851,1.7322,-3.04813,0.77334
558.082,27.16925,1.71666,-3.05074,0.77131
560.682,27.25354,1.71008,-3.05238,0.76927
563.282,27.3377,1.69778,-3.05483,0.76723
565.882,27.4223,1.70299,-3.05742,0.76518
568.482,27.50661,1.68859,-3.06008,0.76314
571.082,27.5911,1.69253,-3.06141,0.76109
573.682,27.6756,1.68572,-3.0633,0.75904
576.282,27.7602,1.68822,-3.06614,0.75699
578.882,27.84481,1.66623,-3.06829,0.75493
581.482,27.9296,1.66314,-3.07009,0.75287
584.082,28.01434,1.65439,-3.07133,0.75081
586.682,28.0991,1.65799,-3.07415,0.74875
589.282,28.18405,1.64413,-3.07646,0.74668
591.882,28.2691,1.63429,-3.07815,0.74461
594.482,28.3541,1.63945,-3.0805,0.74254
597.082,28.439,1.646,-3.08155,0.74047
599.682,28.524,1.64123,-3.08357,0.7384
602.282,28.60918,1.63996,-3.08547,0.73632
604.882,28.6945,1.63436,-3.08784,0.73424
607.482,28.77978,1.63827,-3.08953,0.73216
610.082,28.86491,1.63152,-3.0921,0.73008
612.682,28.95004,1.62124,-3.09425,0.728
615.282,29.0354,1.62149,-3.0953,0.72591
617.882,29.12107,1.61612,-3.09655,0.72382
620.482,29.20672,1.61785,-3.09853,0.72173
623.082,29.29216,1.60987,-3.09985,0.71964
625.682,29.37769,1.61617,-3.10134,0.71755
628.282,29.46327,1.59726,-3.10316,0.71545
630.882,29.54883,1.58946,-3.10408,0.71336
633.482,29.6344,1.59176,-3.10644,0.71126
636.082,29.71987,1.58479,-3.10775,0.70916
638.682,29.8056,1.57308,-3.10897,0.70706
641.282,29.89116,1.59338,-3.11037,0.70496
643.882,29.9767,1.57677,-3.11203,0.70285
644.582,29.9996,1.5808,-3.11203,0.70229

File: Masonite_STA_N2_30KData_222706_R2.csv
##Temp./Â°C,Time/min,DSC(subtr.2)/mW,Mass loss(subtr.2)/mg,Sensit./(uV/mW)
48.505,10.01,0.03402055,-0.02437,1.05402
51.105,10.82921,0.53449,-0.02548099,1.05348
53.705,11.0426,0.88061,-0.0262672,1.05294
56.305,11.20454,1.1944,-0.0250317,1.05238
58.905,11.3432,1.43602,-0.02562807,1.05182
61.505,11.46681,1.64962,-0.02692078,1.05124
64.105,11.58155,1.83914,-0.02571744,1.05064
66.705,11.69019,2.00846,-0.02820567,1.05004
69.305,11.79454,2.15996,-0.02730706,1.04942
71.905,11.89517,2.29652,-0.02717912,1.04879
74.505,11.99364,2.43228,-0.02799269,1.04815
77.105,12.08987,2.55266,-0.0304119,1.0475
79.705,12.18418,2.66621,-0.02876945,1.04683
82.305,12.27748,2.76189,-0.02966428,1.04616
84.905,12.36943,2.85217,-0.02982755,1.04547
87.505,12.46038,2.9456,-0.0321545,1.04477
90.105,12.54996,3.01136,-0.03205647,1.04405
92.705,12.63923,3.07957,-0.03282034,1.04333
95.305,12.72805,3.13473,-0.034098,1.04259
97.905,12.8161,3.16064,-0.03545688,1.04184
100.505,12.9038,3.18882,-0.03681404,1.04109
103.105,12.99117,3.20257,-0.03699627,1.04031
105.705,13.0783,3.2042,-0.03830976,1.03953
108.305,13.1654,3.20207,-0.03955507,1.03874
110.905,13.25196,3.19977,-0.03794676,1.03793
113.505,13.33885,3.19831,-0.03965059,1.03711
116.105,13.4253,3.20661,-0.03991525,1.03629
118.705,13.51118,3.21467,-0.0410306,1.03545
121.305,13.5968,3.21673,-0.04227001,1.03459
123.905,13.6822,3.21109,-0.04355822,1.03373
126.505,13.76746,3.21436,-0.04312956,1.03286
129.105,13.8521,3.19549,-0.04362321,1.03197
131.705,13.93679,3.1735,-0.04358,1.03108
134.305,14.0208,3.19348,-0.04357252,1.03017
136.905,14.1044,3.1921,-0.0441541,1.02925
139.505,14.18801,3.19218,-0.04358004,1.02832
142.105,14.27111,3.21055,-0.04358,1.02738
144.705,14.3539,3.21879,-0.04353883,1.02643
147.305,14.436,3.23943,-0.04325648,1.02547
149.905,14.51874,3.25748,-0.04359004,1.0245
152.505,14.60075,3.28492,-0.04358673,1.02351
155.105,14.6828,3.31308,-0.04331071,1.02252
157.705,14.76462,3.33815,-0.04358003,1.02152
160.305,14.8464,3.36661,-0.04357319,1.0205
162.905,14.9277,3.39715,-0.04620417,1.01947
165.505,15.0091,3.43856,-0.04622,1.01844
168.105,15.09027,3.45646,-0.04622,1.01739
170.705,15.1713,3.48785,-0.04621824,1.01633
173.305,15.25196,3.52554,-0.04752992,1.01527
175.905,15.3327,3.56307,-0.04889845,1.01419
178.505,15.4131,3.59875,-0.04885,1.0131
181.105,15.49334,3.62646,-0.04885,1.012
183.705,15.5734,3.66846,-0.04885,1.01089
186.305,15.65324,3.71105,-0.04884998,1.00977
188.905,15.73285,3.73778,-0.05002281,1.00865
191.505,15.81259,3.77456,-0.05015996,1.00751
194.105,15.89166,3.81344,-0.04881307,1.00636
196.705,15.97136,3.84222,-0.05020479,1.0052
199.305,16.05048,3.87733,-0.05051877,1.00403
201.905,16.1296,3.91636,-0.05147994,1.00285
204.505,16.20871,3.9559,-0.05279669,1.00166
207.105,16.28782,3.99955,-0.05279977,1.00047
209.705,16.36659,4.02602,-0.05411004,0.99926
212.305,16.4456,4.06679,-0.05542856,0.99804
214.905,16.52425,4.09859,-0.05675702,0.99681
217.505,16.60316,4.14977,-0.05739821,0.99558
220.105,16.682,4.1908,-0.0592005,0.99433
222.705,16.7607,4.22835,-0.06071892,0.99308
225.305,16.8394,4.27182,-0.06201959,0.99181
227.905,16.91791,4.31301,-0.0646627,0.99054
230.505,16.9965,4.34804,-0.06600113,0.98926
233.105,17.0751,4.38032,-0.06663836,0.98796
235.705,17.1536,4.42741,-0.06810671,0.98666
238.305,17.23201,4.46177,-0.07235576,0.98535
240.905,17.3104,4.51934,-0.07366173,0.98403
243.505,17.38855,4.55239,-0.0764339,0.9827
246.105,17.46732,4.59176,-0.08154338,0.98137
248.705,17.54573,4.63445,-0.08310224,0.98002
251.305,17.62414,4.66458,-0.08587497,0.97866
253.905,17.70253,4.69312,-0.0901128,0.9773
256.505,17.7809,4.72361,-0.0946179,0.97593
259.105,17.859,4.75107,-0.09717305,0.97455
261.705,17.9373,4.78449,-0.10215,0.97315
264.305,18.0155,4.80319,-0.10899,0.97176
266.905,18.09425,4.82988,-0.11415,0.97035
269.505,18.1722,4.85406,-0.12059,0.96893
272.105,18.2504,4.86524,-0.12913,0.96751
274.705,18.32872,4.88574,-0.13822,0.96608
277.305,18.40711,4.90471,-0.14567,0.96464
279.905,18.48541,4.92578,-0.15642,0.96319
282.505,18.56384,4.93055,-0.16649,0.96173
285.105,18.6422,4.95047,-0.17868,0.96026
287.705,18.7206,4.94708,-0.19312,0.95879
290.305,18.7991,4.93764,-0.21045,0.95731
292.905,18.8776,4.93586,-0.22839,0.95582
295.505,18.95598,4.9202,-0.24612,0.95432
298.105,19.03465,4.91104,-0.26805,0.95281
300.705,19.1132,4.86218,-0.2923,0.9513
303.305,19.19163,4.82764,-0.31567,0.94978
305.905,19.2701,4.78317,-0.34344,0.94825
308.505,19.34904,4.72238,-0.37192,0.94671
311.105,19.42762,4.66837,-0.4021,0.94517
313.705,19.50627,4.60763,-0.43135,0.94362
316.305,19.58509,4.55677,-0.4645,0.94206
318.905,19.6635,4.50512,-0.49561,0.94049
321.505,19.74245,4.47649,-0.52825,0.93892
324.105,19.8212,4.46363,-0.5593,0.93733
326.705,19.90016,4.45985,-0.59333,0.93574
329.305,19.97927,4.46998,-0.62676,0.93415
331.905,20.0582,4.51535,-0.65987,0.93254
334.505,20.1373,4.58044,-0.69474,0.93093
337.105,20.21629,4.68079,-0.7284,0.92932
339.705,20.29566,4.79865,-0.76482,0.92769
342.305,20.37508,4.94454,-0.80388,0.92606
344.905,20.45433,5.13745,-0.84155,0.92442
347.505,20.53368,5.35386,-0.88244,0.92277
350.105,20.6133,5.62946,-0.9272,0.92112
352.705,20.69306,5.96014,-0.97488,0.91946
355.305,20.77272,6.3405,-1.02562,0.9178
357.905,20.8525,6.79889,-1.0835,0.91612
360.505,20.93235,7.3263,-1.14554,0.91444
363.105,21.01221,7.91333,-1.21226,0.91276
365.705,21.09246,8.58444,-1.28664,0.91107
368.305,21.17292,9.31462,-1.36886,0.90937
370.905,21.25326,10.0764,-1.45807,0.90766
373.505,21.33365,10.86169,-1.55704,0.90595
376.105,21.41422,11.59928,-1.66445,0.90423
378.705,21.495,12.25045,-1.77937,0.90251
381.305,21.57568,12.72767,-1.90258,0.90078
383.905,21.65665,12.94697,-2.03034,0.89904
386.505,21.7373,12.80728,-2.15867,0.8973
389.105,21.81796,12.24098,-2.28448,0.89555
391.705,21.89858,11.1864,-2.40539,0.89379
394.305,21.97915,9.67768,-2.5118,0.89203
396.905,22.05965,7.83553,-2.60229,0.89026
399.505,22.13961,5.85292,-2.67326,0.88849
402.105,22.21959,3.95734,-2.72734,0.88671
404.705,22.29966,2.38199,-2.76412,0.88493
407.305,22.37966,1.21264,-2.78863,0.88314
409.905,22.45964,0.47425,-2.80416,0.88134
412.505,22.53967,0.01882317,-2.81523,0.87954
415.105,22.62003,-0.22953,-2.82461,0.87773
417.705,22.70072,-0.42442,-2.83456,0.87592
420.305,22.78136,-0.55481,-2.84222,0.8741
422.905,22.86211,-0.65151,-2.84954,0.87228
425.505,22.94312,-0.76038,-2.85801,0.87045
428.105,23.0241,-0.85308,-2.86409,0.86862
430.705,23.10513,-0.94428,-2.87362,0.86678
433.305,23.1862,-1.03207,-2.88039,0.86493
435.905,23.26763,-1.10734,-2.88695,0.86309
438.505,23.34901,-1.17296,-2.89372,0.86123
441.105,23.43056,-1.22639,-2.90314,0.85937
443.705,23.5121,-1.2685,-2.91118,0.85751
446.305,23.59366,-1.29359,-2.9159,0.85564
448.905,23.67548,-1.31025,-2.92356,0.85376
451.505,23.7574,-1.291,-2.92849,0.85188
454.105,23.83923,-1.25753,-2.93468,0.85
456.705,23.92117,-1.21763,-2.94181,0.84811
459.305,24.00346,-1.15418,-2.94797,0.84622
461.905,24.08563,-1.07105,-2.9551,0.84432
464.505,24.16799,-0.98657,-2.96242,0.84242
467.105,24.2504,-0.89667,-2.96932,0.84051
469.705,24.3329,-0.80026,-2.97385,0.8386
472.305,24.41535,-0.70007,-2.97759,0.83668
474.905,24.49804,-0.59172,-2.98271,0.83476
477.505,24.58075,-0.50369,-2.98772,0.83284
480.105,24.6636,-0.42015,-2.99181,0.83091
482.705,24.7466,-0.33351,-2.99543,0.82898
485.305,24.8294,-0.24396,-3.00105,0.82704
487.905,24.91242,-0.18765,-3.00359,0.8251
490.505,24.99541,-0.12303,-3.00752,0.82315
493.105,25.07845,-0.06966253,-3.01165,0.8212
495.705,25.16161,-0.02611784,-3.01452,0.81925
498.305,25.24471,0.01618135,-3.01821,0.81729
500.905,25.328,0.03519716,-3.02144,0.81533
503.505,25.41123,0.07303168,-3.02433,0.81336
506.105,25.49442,0.09674024,-3.02755,0.81139
508.705,25.57767,0.11737,-3.03098,0.80942
511.305,25.66091,0.14227,-3.0351,0.80744
513.905,25.74438,0.14879,-3.03813,0.80546
516.505,25.8278,0.16992,-3.04212,0.80348
519.105,25.91137,0.16933,-3.04279,0.80149
521.705,25.99502,0.17873,-3.04588,0.7995
524.305,26.07872,0.1795,-3.04847,0.79751
526.905,26.16236,0.19016,-3.05131,0.79551
529.505,26.2461,0.1732,-3.05401,0.79351
532.105,26.32998,0.16869,-3.05735,0.7915
534.705,26.414,0.15676,-3.06082,0.7895
537.305,26.49789,0.15049,-3.06219,0.78749
539.905,26.5818,0.14179,-3.06618,0.78547
542.505,26.66583,0.14313,-3.06801,0.78345
545.105,26.74989,0.12793,-3.07009,0.78143
547.705,26.8341,0.11383,-3.07243,0.77941
550.305,26.9183,0.10487,-3.07378,0.77738
552.905,27.0025,0.09206086,-3.07698,0.77536
555.505,27.0868,0.06640459,-3.07941,0.77332
558.105,27.1711,0.05349808,-3.08206,0.77129
560.705,27.2554,0.04607603,-3.08467,0.76925
563.305,27.33983,0.03791715,-3.08623,0.76721
565.905,27.4243,0.006378099,-3.08966,0.76517
568.505,27.50858,-0.0124274,-3.09304,0.76312
571.105,27.59328,-0.02299902,-3.09503,0.76107
573.705,27.6778,-0.02478428,-3.09563,0.75902
576.305,27.76233,-0.04928755,-3.09831,0.75697
578.905,27.84708,-0.04927587,-3.09965,0.75491
581.505,27.9317,-0.05886149,-3.10248,0.75285
584.105,28.01639,-0.07631174,-3.10508,0.75079
586.705,28.10121,-0.07753962,-3.10587,0.74873
589.305,28.1859,-0.07846983,-3.10774,0.74666
591.905,28.27085,-0.10227,-3.1105,0.7446
594.505,28.3557,-0.11483,-3.11181,0.74253
597.105,28.4405,-0.11112,-3.11312,0.74045
599.705,28.5255,-0.13369,-3.1157,0.73838
602.305,28.6104,-0.14198,-3.11733,0.7363
604.905,28.6955,-0.14089,-3.11993,0.73422
607.505,28.78045,-0.14926,-3.12126,0.73214
610.105,28.8653,-0.15056,-3.12395,0.73006
612.705,28.95082,-0.16551,-3.12527,0.72798
615.305,29.0361,-0.15699,-3.12782,0.72589
617.905,29.12118,-0.16512,-3.12918,0.7238
620.505,29.2066,-0.16774,-3.1308,0.72171
623.105,29.29182,-0.15421,-3.1335,0.71962
625.705,29.37702,-0.15537,-3.1347,0.71753
628.305,29.46238,-0.1456,-3.13573,0.71543
630.905,29.54775,-0.15269,-3.13858,0.71334
633.505,29.6332,-0.1423,-3.13991,0.71124
636.105,29.71865,-0.14275,-3.14122,0.70914
638.705,29.80384,-0.14396,-3.14287,0.70704
641.305,29.88937,-0.13999,-3.14517,0.70494
643.905,29.97503,-0.13768,-3.14604,0.70283
644.605,29.998,-0.13972,-3.14648,0.70227