Folder: fsri_materials_database/01_Data/Masonite_Board/STA/N2/3K_min

Note: 01_Data/README.md
# Materials and Products Database
## 01_Data

Raw data generated from each apparatus are included here in plain-text format. The data is organized first by material, next by the short name of test apparatus used, and where applicable additional filtering by test settings.

### material.json

Each material directory contains a json file of the same name as the material. This file links the data stored in the repository as well as data and graphs produced by the accompanying scripts (__02_Scripts__) to the respective landing page for the material on the front-end website.

File: Masonite_STA_N2_3KData_222406_R1.csv
##Temp./Â°C,Time/min,Mass loss(subtr.)/mg,DSC(subtr.)/mW,Sensit./(uV/mW)
50.084,10.00917,-0.03985,0.08013801,1.05676
52.684,12.08595,-0.04524743,0.27329,1.05647
55.284,13.09726,-0.04796938,0.31921,1.05617
57.884,14.05061,-0.0519324,0.34396,1.05586
60.484,14.96976,-0.05390999,0.36858,1.05554
63.084,15.86435,-0.05687228,0.3782,1.0552
65.684,16.75009,-0.05949419,0.37954,1.05486
68.284,17.62874,-0.06213715,0.38124,1.0545
70.884,18.50432,-0.06347232,0.37546,1.05414
73.484,19.3781,-0.06774006,0.37446,1.05376
76.084,20.24835,-0.06902125,0.38105,1.05337
78.684,21.11759,-0.07043005,0.35826,1.05297
81.284,21.98434,-0.07272443,0.35519,1.05256
83.884,22.85366,-0.07360548,0.34366,1.05214
86.484,23.7221,-0.07497987,0.33832,1.05171
89.084,24.5908,-0.07597114,0.32464,1.05127
91.684,25.45466,-0.07564166,0.32443,1.05081
94.284,26.3156,-0.07662,0.32949,1.05035
96.884,27.1776,-0.07893984,0.33156,1.04987
99.484,28.0396,-0.08125756,0.33075,1.04938
102.084,28.9009,-0.08026003,0.3368,1.04888
104.684,29.7593,-0.08091039,0.33913,1.04837
107.284,30.61826,-0.08320997,0.32502,1.04785
109.884,31.4818,-0.08255,0.32552,1.04732
112.484,32.33644,-0.08490866,0.33301,1.04677
115.084,33.18893,-0.08486,0.32818,1.04622
117.684,34.04323,-0.08519,0.32815,1.04565
120.284,34.8981,-0.08651,0.31976,1.04507
122.884,35.7549,-0.08750005,0.33634,1.04448
125.484,36.61347,-0.08748564,0.32502,1.04387
128.084,37.472,-0.0883237,0.32454,1.04326
130.684,38.33016,-0.08882035,0.32676,1.04263
133.284,39.1828,-0.09046009,0.32941,1.042
135.884,40.03533,-0.09045243,0.34246,1.04135
138.484,40.88776,-0.09046083,0.33884,1.04069
141.084,41.73585,-0.09277002,0.35427,1.04001
143.684,42.5885,-0.09277589,0.33973,1.03933
146.284,43.44393,-0.09408,0.34795,1.03863
148.884,44.29742,-0.09441062,0.3517,1.03792
151.484,45.14949,-0.0954,0.34579,1.0372
154.084,45.9998,-0.09705012,0.34676,1.03647
156.684,46.84762,-0.09673269,0.35904,1.03572
159.284,47.69615,-0.09764059,0.35568,1.03497
161.884,48.54529,-0.09868948,0.36092,1.0342
164.484,49.39443,-0.10133,0.36081,1.03342
167.084,50.2412,-0.10167,0.36389,1.03263
169.684,51.08911,-0.10198,0.3623,1.03182
172.284,51.93634,-0.10362,0.36982,1.031
174.884,52.785,-0.10495,0.35958,1.03017
177.484,53.6291,-0.10561,0.37431,1.02933
180.084,54.4732,-0.10693,0.37314,1.02848
182.684,55.3201,-0.10824,0.38847,1.02761
185.284,56.16686,-0.10956,0.38441,1.02674
187.884,57.0167,-0.1122,0.38908,1.02585
190.484,57.8606,-0.11286,0.39367,1.02494
193.084,58.7067,-0.11496,0.39832,1.02403
195.684,59.5512,-0.11747,0.39754,1.0231
198.284,60.39565,-0.11944,0.40996,1.02216
200.884,61.2408,-0.12109,0.41281,1.02121
203.484,62.0858,-0.1224,0.40867,1.02024
206.084,62.93045,-0.12438,0.43093,1.01927
208.684,63.77097,-0.12635,0.43025,1.01828
211.284,64.61489,-0.12966,0.42635,1.01727
213.884,65.46476,-0.13361,0.42729,1.01626
216.484,66.31016,-0.13624,0.44327,1.01523
219.084,67.14918,-0.14019,0.44985,1.01419
221.684,67.99319,-0.14478,0.45247,1.01314
224.284,68.83632,-0.14941,0.44357,1.01208
226.884,69.6819,-0.15336,0.45059,1.011
229.484,70.5237,-0.15995,0.45453,1.00991
232.084,71.3625,-0.16621,0.46003,1.00881
234.684,72.20519,-0.17413,0.46532,1.00769
237.284,73.05102,-0.18213,0.46846,1.00657
239.884,73.89667,-0.192,0.46869,1.00543
242.484,74.73845,-0.20222,0.47303,1.00427
245.084,75.5834,-0.21508,0.46997,1.00311
247.684,76.43055,-0.22962,0.47645,1.00193
250.284,77.27184,-0.24471,0.47178,1.00074
252.884,78.1159,-0.26253,0.46998,0.99954
255.484,78.95875,-0.2827,0.47,0.99832
258.084,79.79936,-0.30412,0.48429,0.99709
260.684,80.64177,-0.33108,0.48156,0.99585
263.284,81.4896,-0.35612,0.47553,0.9946
265.884,82.33641,-0.38475,0.47663,0.99333
268.484,83.18127,-0.41605,0.46505,0.99205
271.084,84.02558,-0.44743,0.46554,0.99076
273.684,84.87014,-0.47985,0.46615,0.98945
276.284,85.71344,-0.51315,0.45451,0.98813
278.884,86.56048,-0.54551,0.45075,0.9868
281.484,87.40596,-0.57905,0.4571,0.98546
284.084,88.24929,-0.61402,0.46132,0.98411
286.684,89.09625,-0.64706,0.45925,0.98274
289.284,89.94151,-0.68249,0.44433,0.98136
291.884,90.785,-0.7155,0.46016,0.97996
294.484,91.62905,-0.75156,0.4748,0.97856
297.084,92.47333,-0.78722,0.48337,0.97714
299.684,93.32275,-0.82371,0.49634,0.9757
302.284,94.166,-0.86427,0.52451,0.97426
304.884,95.01299,-0.90428,0.53291,0.9728
307.484,95.86199,-0.94708,0.55831,0.97133
310.084,96.7101,-0.99386,0.59621,0.96985
312.684,97.55888,-1.04296,0.63025,0.96836
315.284,98.40389,-1.09666,0.66745,0.96685
317.884,99.25049,-1.15459,0.72429,0.96533
320.484,100.099,-1.21684,0.78374,0.9638
323.084,100.948,-1.2869,0.86356,0.96225
325.684,101.8,-1.36603,0.94386,0.96069
328.284,102.651,-1.45346,1.03235,0.95912
330.884,103.495,-1.55094,1.15737,0.95754
333.484,104.342,-1.65822,1.26216,0.95594
336.084,105.195,-1.77939,1.37521,0.95433
338.684,106.047,-1.91147,1.49366,0.95271
341.284,106.897,-2.05332,1.56507,0.95108
343.884,107.748,-2.20325,1.60068,0.94944
346.484,108.597,-2.35548,1.57938,0.94778
349.084,109.448,-2.50226,1.47183,0.94611
351.684,110.298,-2.63596,1.26448,0.94442
354.284,111.145,-2.7486,0.99018,0.94273
356.884,111.993,-2.83539,0.66488,0.94102
359.484,112.841,-2.89454,0.36736,0.9393
362.084,113.69,-2.9307,0.15384,0.93757
364.684,114.541,-2.95008,0.03644557,0.93583
367.284,115.39,-2.96399,-0.01177196,0.93407
369.884,116.243,-2.97282,-0.03448261,0.9323
372.484,117.097,-2.98139,-0.03346402,0.93052
375.084,117.951,-2.98996,-0.05514674,0.92873
377.684,118.804,-2.99784,-0.07342673,0.92692
380.284,119.658,-3.00707,-0.08340788,0.92511
382.884,120.51,-3.0153,-0.10311,0.92328
385.484,121.363,-3.02265,-0.11278,0.92144
388.084,122.22,-3.03076,-0.13017,0.91958
390.684,123.075,-3.03869,-0.12711,0.91772
393.284,123.929,-3.04693,-0.13745,0.91584
395.884,124.785,-3.05581,-0.14758,0.91395
398.484,125.643,-3.06435,-0.14449,0.91205
401.084,126.501,-3.07108,-0.14454,0.91014
403.684,127.356,-3.08052,-0.14828,0.90822
406.284,128.208,-3.08709,-0.14041,0.90628
408.884,129.064,-3.09544,-0.14156,0.90434
411.484,129.9243,-3.10297,-0.13958,0.90238
414.084,130.78,-3.10983,-0.12204,0.90041
416.684,131.632,-3.11708,-0.12077,0.89842
419.284,132.491,-3.12501,-0.11039,0.89643
421.884,133.351,-3.13124,-0.10325,0.89443
424.484,134.207,-3.13651,-0.094421,0.89241
427.084,135.068,-3.14305,-0.09427064,0.89038
429.684,135.931,-3.14836,-0.07937583,0.88834
432.284,136.792,-3.15166,-0.0611484,0.88629
434.884,137.6558,-3.15693,-0.0436593,0.88423
437.484,138.519,-3.16351,-0.04750383,0.88216
440.084,139.3792,-3.16846,-0.04074411,0.88008
442.684,140.239,-3.17241,-0.03475942,0.87798
445.284,141.1,-3.17636,-0.02466871,0.87588
447.884,141.961,-3.17998,-0.0205877,0.87376
450.484,142.817,-3.18419,-0.02574837,0.87164
453.084,143.677,-3.18582,-0.00556722,0.8695
455.684,144.537,-3.19084,-0.01933635,0.86735
458.284,145.402,-3.19448,-0.0182201,0.86519
460.884,146.269,-3.19843,-0.02213912,0.86302
463.484,147.134,-3.20174,-0.005648026,0.86084
466.084,147.9959,-3.20524,-0.00351764,0.85865
468.684,148.857,-3.20897,-0.01396189,0.85645
471.284,149.7162,-3.21259,-0.006862453,0.85424
473.884,150.579,-3.21588,-0.00805358,0.85202
476.484,151.444,-3.21918,-0.009911223,0.84978
479.084,152.308,-3.22082,-0.008229452,0.84754
481.684,153.1744,-3.22445,-0.01283345,0.84529
484.284,154.04,-3.22906,-0.005378789,0.84303
486.884,154.904,-3.23103,-0.01468699,0.84075
489.484,155.769,-3.23337,-0.01168061,0.83847
492.084,156.632,-3.23727,-0.007916894,0.83618
494.684,157.499,-3.23894,-0.02015892,0.83388
497.284,158.364,-3.24296,-0.01903931,0.83157
499.884,159.23,-3.24552,-0.02328039,0.82925
502.484,160.093,-3.24849,-0.02152264,0.82691
505.084,160.96,-3.25244,-0.0294739,0.82457
507.684,161.828,-3.25606,-0.04277636,0.82222
510.284,162.694,-3.25672,-0.03851708,0.81987
512.884,163.563,-3.26135,-0.04195484,0.8175
515.484,164.431,-3.26332,-0.04446597,0.81512
518.084,165.296,-3.26759,-0.04929376,0.81273
520.684,166.168,-3.26993,-0.02870316,0.81034
523.284,167.0372,-3.27428,-0.03943335,0.80793
525.884,167.905,-3.27626,-0.03707963,0.80552
528.484,168.773,-3.27725,-0.03874266,0.8031
531.084,169.642,-3.28054,-0.04539069,0.80067
533.684,170.511,-3.28252,-0.04818782,0.79823
536.284,171.381,-3.28481,-0.05574234,0.79578
538.884,172.25,-3.28747,-0.0576542,0.79333
541.484,173.1183,-3.28976,-0.06047418,0.79086
544.084,173.986,-3.29175,-0.04841716,0.78839
546.684,174.854,-3.29603,-0.04524244,0.78591
549.284,175.725,-3.29735,-0.04816719,0.78342
551.884,176.594,-3.30031,-0.04511939,0.78092
554.484,177.464,-3.30296,-0.03938196,0.77841
557.084,178.332,-3.30458,-0.05081011,0.7759
559.684,179.203,-3.30591,-0.05051304,0.77338
562.284,180.072,-3.30821,-0.06352969,0.77085
564.884,180.943,-3.30986,-0.05985811,0.76832
567.484,181.8121,-3.31249,-0.06091023,0.76577
570.084,182.68,-3.31546,-0.05728326,0.76322
572.684,183.552,-3.31742,-0.05400389,0.76066
575.284,184.422,-3.31743,-0.04484845,0.7581
577.884,185.294,-3.32037,-0.03483458,0.75552
580.484,186.161,-3.32171,-0.03615449,0.75294
583.084,187.038,-3.32533,-0.03952438,0.75036
585.684,187.909,-3.32599,-0.03375421,0.74776
588.284,188.779,-3.3283,-0.03579787,0.74516
590.884,189.65,-3.32928,-0.04736642,0.74256
593.484,190.525,-3.3306,-0.03737138,0.73994
596.084,191.392,-3.33357,-0.02565086,0.73732
598.684,192.263,-3.33521,-0.01666016,0.7347
601.284,193.137,-3.33654,-0.01868736,0.73206
603.884,194.012,-3.33884,-0.03739162,0.72942
606.484,194.8846,-3.34016,-0.01573888,0.72678
609.084,195.756,-3.34082,0.001065134,0.72413
611.684,196.629,-3.34345,-0.01602151,0.72147
614.284,197.503,-3.34444,-0.04703205,0.71881
616.884,198.378,-3.34639,-0.04615018,0.71614
619.484,199.252,-3.34872,-0.04511417,0.71346
622.084,200.13,-3.34905,-0.03963044,0.71079
624.684,201.008,-3.35004,-0.04220808,0.7081
627.284,201.871,-3.3521,-0.03863641,0.70541
629.884,202.742,-3.353,-0.05172306,0.70271
632.484,203.617,-3.35465,-0.03634971,0.70001
635.084,204.496,-3.35391,-0.03430077,0.69731
637.684,205.371,-3.35596,-0.03794842,0.6946
640.284,206.2398,-3.35697,-0.04961237,0.69188
642.884,207.1144,-3.36782,-0.04541574,0.68916
645.484,207.992,-3.35957,-0.03472613,0.68644
648.084,208.868,-3.36124,-0.03007146,0.68371
650.684,209.744,-3.36256,-0.03278058,0.68097
651.384,209.976,-3.36288,-0.03780349,0.68024