Folder: fsri_materials_database/01_Data/XPS_Foam_Board/Cone (part 5)

File: XPS_Foam_Insulation_Cone_HF75Scan_220412_R3.csv
Names,Time,Stack TC,Smoke TC,Exh Press,Smoke Comp,Smoke Meas,CO Meter,CO2 Meter,O2 Meter,Sample Mass,Ext Coeff,Start Test,Flame Verif
Chan Gain,,500,500,1,1,1,1,1,1,1,1,1.0,1.0
Offset,,0,0,0.134314,0,0,0,0,0,0,0,0.0,0.0
Gain,,1,1,25.011,13.1473,13.6402,1,1,1,1.00092,1.00708,1.0,1.0
Units,sec,C,C,Pa,%,%,%,%,%,g,/m,,
Baseline,,44.907,46.2964,145.151,98.5947,93.4374,0.000382215,0.0443917,21.0299,-835.177,0.474627,,
7,1.5,42.4572,43.9155,146.785,99.2076,92.8861,0.00229566,0.0539048,21.0086,-332.094,0.581639,0.0,0.0
14,3.25,42.8572,43.5394,141.227,99.2112,77.3827,0.00575066,0.0978817,20.9275,-332.344,2.19515,0.0,1.0
21,5,43.3384,43.7975,130.557,99.2032,56.9212,0.0107468,0.207834,20.747,-332.595,4.90732,0.0,1.0
28,6.75,44.3795,45.4198,129.78,99.2164,59.4621,0.0145638,0.319913,20.6007,-332.835,4.52271,0.0,1.0
35,8.5,45.137,45.7137,130.26,99.2365,62.9209,0.0175524,0.387379,20.51,-332.965,4.02503,0.0,1.0
42,10.25,47.9827,48.5897,133.116,99.2545,50.5262,0.0229746,0.440851,20.4414,-333.155,5.9647,0.0,0.0
49,12,48.2106,49.3513,120.395,99.2481,37.5396,0.0324764,0.523864,20.2492,-333.525,8.58869,0.0,0.0
56,13.75,50.59,51.7379,103.142,99.2577,29.6164,0.0478657,0.747106,19.8923,-333.936,10.6838,0.0,0.0
63,15.5,53.9383,54.9115,92.1325,99.2726,22.0745,0.0762778,1.13328,19.3331,-334.596,13.2815,0.0,0.0
70,17.25,59.5633,60.5735,84.6692,99.293,15.8155,0.110368,1.6491,18.5564,-335.307,16.2288,0.0,0.0
77,19,67.8076,69.6281,73.9864,99.2914,15.9925,0.14523,2.19627,17.7101,-336.148,16.1304,0.0,0.0
84,20.75,75.9994,79.3417,73.1689,99.3007,14.2404,0.174233,2.73282,16.978,-336.909,17.1563,0.0,0.0
91,22.5,85.251,91.2178,95.2192,99.3075,13.462,0.186583,3.09062,16.5541,-337.629,17.6535,0.0,0.0
98,24.25,93.9756,102.137,80.0208,99.3372,21.0159,0.174312,3.10983,16.5139,-338.19,13.7214,0.0,0.0
105,26,100.737,110.568,100.811,99.3412,22.3988,0.15108,2.76972,17.0565,-338.66,13.1588,0.0,0.0
112,27.75,104.175,115.72,108.478,99.346,29.9698,0.118799,2.28079,17.7061,-338.92,10.5869,0.0,0.0
119,29.5,104.998,117.962,115.494,99.3508,41.5994,0.0888315,1.73558,18.4379,-339.111,7.69066,0.0,0.0
126,31.25,105.081,117.859,127.22,99.3705,52.7819,0.0655518,1.31278,19.0408,-339.261,5.58917,0.0,0.0
133,33,103.385,116.426,130.258,99.3857,68.8655,0.0466439,0.950242,19.5675,-339.281,3.24079,0.0,0.0
140,34.75,102.439,115.396,135.506,99.3989,79.0053,0.0328124,0.701415,19.9741,-339.331,2.02853,0.0,0.0
147,36.5,100.924,113.31,135.847,99.3957,83.3494,0.0225511,0.503548,20.2919,-339.351,1.55538,0.0,0.0
154,38.25,98.9679,111.072,140.126,99.4014,89.297,0.0156114,0.364196,20.5288,-339.401,0.946987,0.0,0.0
161,40,97.4159,109.173,139.549,99.4174,91.3363,0.0110338,0.265616,20.6984,-339.401,0.748939,0.0,0.0
168,41.75,94.2474,106.41,140.926,99.409,93.5533,0.00793169,0.196526,20.806,-339.401,0.536321,0.0,0.0
175,43.5,92.4605,104.278,144.148,99.4166,95.0373,0.00590834,0.147528,20.8821,-339.391,0.397969,0.0,0.0
182,45.25,90.1258,101.173,141.739,99.423,94.5203,0.00459915,0.116502,20.9327,-339.401,0.446729,0.0,0.0
189,47,88.7297,100.25,141.78,99.4367,95.0631,0.00372421,0.0961124,20.9626,-339.391,0.397354,0.0,0.0
196,48.75,87.0818,97.9499,144.479,99.4439,94.9324,0.00298511,0.0835732,20.98,-339.401,0.41015,0.0,0.0
203,50.5,85.3006,95.9761,143.243,99.4415,95.0486,0.0023763,0.0758209,20.9926,-339.391,0.399134,0.0,0.0
210,52.25,83.7404,94.2553,147.503,99.4479,94.1915,0.00187037,0.070349,21.0007,-339.421,0.479726,0.0,0.0
217,54,82.1395,92.7508,143.128,99.4511,94.4204,0.00155209,0.0661904,21.0067,-339.431,0.458565,0.0,0.0
224,55.75,80.8569,91.0245,139.851,99.4756,95.5089,0.00141677,0.0627225,21.0082,-339.421,0.359478,0.0,0.0
231,57.5,78.9284,88.9827,141.567,99.4551,95.3175,0.00129108,0.0603049,21.0094,-339.421,0.37539,0.0,0.0
238,59.25,77.9493,88.1674,147.523,99.4527,94.4408,0.00108563,0.0582764,21.0118,-339.441,0.4568,0.0,0.0
245,61,76.8684,86.6732,143.154,99.4583,94.6315,0.000911172,0.0564366,21.0139,-339.431,0.439482,0.0,0.0
252,62.75,75.6082,85.4575,143.044,99.4575,95.23,0.000826533,0.0548157,21.0157,-339.401,0.383708,0.0,0.0
259,64.5,74.4205,84.3449,145.917,99.4539,94.6727,0.000815698,0.0534961,21.0175,-339.391,0.435245,0.0,0.0
266,66.25,73.2118,82.5036,144.892,99.4451,94.9095,0.000854873,0.0524022,21.0188,-339.371,0.412387,0.0,0.0
273,68,72.2084,81.8076,141.806,99.4331,94.5923,0.000869427,0.0512813,21.0202,-339.431,0.440891,0.0,0.0
280,69.75,71.4462,79.9858,143.576,99.4375,94.9174,0.000862006,0.0504041,21.0205,-339.421,0.410974,0.0,0.0
287,71.5,69.7395,78.9036,142.521,99.4355,94.8487,0.000832414,0.0498238,21.0206,-339.401,0.41719,0.0,0.0
294,73.25,69.5229,78.1487,142.655,99.4347,94.8175,0.000810039,0.0490884,21.0218,-339.401,0.420027,0.0,0.0
301,75,68.7567,77.5499,144.177,99.4074,94.358,0.000787125,0.048546,21.0224,-339.401,0.460523,0.0,0.0
308,76.75,67.4635,75.9255,140.312,99.403,95.2746,0.00080257,0.0479901,21.0227,-339.411,0.37473,0.0,0.0
315,78.5,66.9289,75.3666,141.207,99.3994,94.9695,0.000874251,0.0476032,21.0229,-339.391,0.402745,0.0,0.0
322,80.25,65.9781,73.8472,143.425,99.3777,94.7438,0.000995269,0.0472091,21.0235,-339.401,0.421832,0.0,0.0
329,82,66.0579,73.5051,143.654,99.364,94.4629,0.00106279,0.0468089,21.0246,-339.401,0.446856,0.0,0.0
336,83.75,64.5806,72.6143,142.429,99.3693,94.343,0.00105445,0.0467297,21.0251,-339.401,0.458539,0.0,0.0
343,85.5,64.1603,72.0023,147.152,99.3677,94.5216,0.000983926,0.0464863,21.0253,-339.421,0.44169,0.0,0.0
350,87.25,63.8849,71.6057,142.549,99.3584,94.9116,0.000846383,0.0461625,21.0262,-339.391,0.404492,0.0,0.0
357,89,62.7845,70.4745,139.153,99.3364,94.8716,0.00073011,0.0458836,21.0271,-339.421,0.406249,0.0,0.0
364,90.75,61.9748,69.8848,141.88,99.3396,94.8067,0.000707379,0.0456019,21.0277,-339.411,0.412583,0.0,0.0
371,92.5,61.9527,69.0076,142.455,99.3155,94.7697,0.000697674,0.0453602,21.0282,-339.461,0.413896,0.0,0.0
378,94.25,61.408,68.1558,140.285,99.3039,94.8329,0.00065482,0.0451912,21.0285,-339.451,0.406965,0.0,0.0
385,96,60.6387,67.2394,141.692,99.2758,94.9545,0.000647757,0.0450033,21.0286,-339.421,0.393149,0.0,0.0
392,97.75,60.087,67.1376,140.982,99.2649,94.9886,0.000727548,0.0449169,21.0287,-339.441,0.389011,0.0,0.0
399,99.5,59.5982,66.5546,146.804,99.2585,94.415,0.000828459,0.0447774,21.0287,-339.461,0.441947,0.0,0.0
406,101.25,59.5033,66.1475,142.698,99.2365,94.6502,0.000883798,0.0447563,21.0293,-339.451,0.418006,0.0,0.0
413,103,58.4899,65.1555,141.771,99.202,94.6485,0.000863664,0.0447326,21.0297,-339.451,0.415088,0.0,0.0
420,104.75,58.0055,64.8187,140.965,99.1775,94.4862,0.000728763,0.0446894,21.0298,-339.441,0.428074,0.0,0.0
427,106.5,58.0871,64.231,141.219,99.1578,94.2281,0.000569274,0.0446981,21.0299,-339.441,0.450485,0.0,0.0
434,108.25,57.1228,63.5265,141.468,99.1514,94.5132,0.000470678,0.0447463,21.0299,-339.451,0.423221,0.0,0.0
441,110,56.9209,62.9157,142.065,99.1341,94.2885,0.000457266,0.0446589,21.03,-339.471,0.442719,0.0,0.0
448,111.75,57.0167,62.6767,141.143,99.104,94.4275,0.000505715,0.0445643,21.0303,-339.471,0.427021,0.0,0.0
455,113.5,56.4989,62.1508,143.615,99.0936,94.5927,0.00052751,0.0444897,21.0306,-339.471,0.410644,0.0,0.0
462,115.25,56.5188,61.8978,144.287,99.0764,94.4866,0.000487551,0.044339,21.0307,-339.461,0.419024,0.0,0.0
469,117,55.9248,61.787,140.477,99.0643,95.0144,0.000464545,0.0442803,21.0308,-339.461,0.36874,0.0,0.0
476,118.75,55.4134,60.5724,145.928,99.035,94.1282,0.000494639,0.0441629,21.0308,-339.411,0.448912,0.0,0.0
483,120.5,54.5015,60.2827,143.006,99.0178,94.8604,0.000552386,0.0442349,21.0308,-339.431,0.378919,0.0,0.0
490,122.25,54.6951,60.1828,141.486,98.9993,94.4208,0.000666149,0.0442167,21.0308,-339.431,0.418304,0.0,0.0
497,124,54.5784,59.5897,143.41,98.9933,94.4654,0.000757415,0.044165,21.0319,-339.421,0.413601,0.0,0.0
504,125.75,54.6502,59.3333,143.475,98.9781,94.6007,0.000857544,0.0441246,21.0319,-339.441,0.399597,0.0,0.0
511,127.5,53.6425,58.7014,143.766,98.9652,94.4329,0.00086448,0.0439001,21.0319,-339.431,0.414131,0.0,0.0
518,129.25,54.0722,58.5789,142.479,98.954,94.3355,0.000857801,0.0439559,21.0318,-339.441,0.422245,0.0,0.0
525,131,53.9501,58.338,142.659,98.9492,94.1744,0.000822428,0.0439597,21.0318,-339.451,0.436914,0.0,0.0
532,132.75,53.4542,57.9515,142.249,98.9379,94.4429,0.000745865,0.0439266,21.0318,-339.471,0.410761,0.0,0.0
539,134.5,53.496,57.9997,140.667,98.9263,94.5998,0.000648783,0.0437667,21.0318,-339.471,0.395055,0.0,0.0
546,136.25,52.7372,57.3303,143.257,98.9087,94.2019,0.000554534,0.0438547,21.0318,-339.491,0.430718,0.0,0.0
553,138,53.0698,57.1798,140.448,98.9014,94.0524,0.00050831,0.0438977,21.0318,-339.471,0.444098,0.0,0.0
560,139.75,52.3386,56.9536,142.119,98.899,94.2002,0.000536026,0.0438247,21.0318,-339.491,0.430015,0.0,0.0
567,141.5,52.4679,56.2386,142.212,98.8802,94.5578,0.00055265,0.043828,21.0318,-339.471,0.394861,0.0,0.0
574,143.25,52.2475,56.3223,142.919,98.8573,94.5719,0.000516888,0.0439419,21.0307,-339.481,0.391495,0.0,0.0
581,145,51.7687,55.5341,144.75,98.8601,93.9292,0.000497098,0.0439271,21.0296,-339.451,0.451987,0.0,0.0
588,146.75,52.4492,56.2278,141.863,98.8505,93.9409,0.000535952,0.043893,21.0291,-339.451,0.450031,0.0,0.0
595,148.5,51.733,55.3963,141.706,98.838,93.9604,0.000633053,0.0438665,21.0288,-339.511,0.447079,0.0,0.0
602,150.25,51.9209,56.1794,144.731,98.8328,94.5295,0.000665696,0.0439014,21.0287,-339.461,0.393274,0.0,0.0
609,152,51.7683,55.2299,140.327,98.8332,94.0966,0.000635741,0.0438773,21.0286,-339.481,0.43386,0.0,0.0
616,153.75,51.3483,54.9149,141.06,98.8826,93.9388,,0.0438768,,-339.461,0.453095,0.0,0.0
623,155.5,51.1491,54.5139,141.015,98.9247,93.9267,,,,-339.481,0.457993,0.0,0.0
630,157.25,51.3813,54.7923,143.841,98.9528,93.9163,,,,-339.451,0.461479,0.0,0.0
637,159,51.3624,54.2898,141.26,98.9793,94.4903,,,,-339.431,0.410013,0.0,0.0
644,160.75,51.354,54.7886,140.384,99.0278,94.246,,,,-339.461,0.437218,0.0,0.0
651,162.5,50.9958,54.1746,140.757,99.0916,94.2601,,,,-339.451,0.441581,0.0,0.0
653,163,51.0719,54.1149,143.585,99.1028,94.1786,,,,-339.451,0.450232,0.0,0.0