Folder: fsri_materials_database/01_Data/XPS_Foam_Board/HFM

Note: 01_Data/README.md
# Materials and Products Database
## 01_Data

Raw data generated from each apparatus are included here in plain-text format. The data is organized first by material, next by the short name of test apparatus used, and where applicable additional filtering by test settings.

### material.json

Each material directory contains a json file of the same name as the material. This file links the data stored in the repository as well as data and graphs produced by the accompanying scripts (__02_Scripts__) to the respective landing page for the material on the front-end website.

File: XPS_Foam_Board_Density_Wet_R1.csv
,XPS_Foam_Board_WET_1
Sample Mass [g],29.1
Sample Volume [cm3],1069.2
Sample Density [kg/m3],27

File: XPS_Foam_Board_Density_Wet_R2.csv
,XPS_Foam_Board_WET_2
Sample Mass [g],30.7
Sample Volume [cm3],1098.1
Sample Density [kg/m3],28

File: XPS_Foam_Board_Density_Wet_R3.csv
,XPS_Foam_Board_WET_3
Sample Mass [g],29.7
Sample Volume [cm3],1072.9
Sample Density [kg/m3],28