Folder: fsri_materials_database/01_Data/XPS_Foam_Board/MCC

Note: 01_Data/README.md
# Materials and Products Database
## 01_Data

Raw data generated from each apparatus are included here in plain-text format. The data is organized first by material, next by the short name of test apparatus used, and where applicable additional filtering by test settings.

### material.json

Each material directory contains a json file of the same name as the material. This file links the data stored in the repository as well as data and graphs produced by the accompanying scripts (__02_Scripts__) to the respective landing page for the material on the front-end website.

File: XPS_Foam_Board_MCC_30K_min_220120_R1_FINAL_MASS.txt
Sample ID:	C:\MCC\MCC Cal\Test\XPS_Foam_Board_MCC_30K_min_220120_R1.txt
Sample Weight (mg):	4.32
Heating Rate (C/s):	0.5
Combustor Temp (C):	900
N2 Flow Rate (cc/min):	80
O2 Flow Rate (cc/min):	20
Calibration File:	C:\MCC\MCC Cal\Coeff1 JN10440_30_210304.txt.txt
T Correction Coefficients:	0	1.024463	0
Time Shift (s):	14
*
Time (s)	Temperature (C)	N2 flow rate (cc/min)	O2 flow rate (cc/min)	Flow Rate (cc/min)	Oxygen (%)	HRR (W/g)	Heating rate (C/s)
0.000	114.718	80.002	19.995	103.770	20.092	0.123	-0.034
7.500	114.674	80.010	19.994	103.772	20.091	0.199	-0.024
15.000	114.650	80.011	19.994	103.833	20.081	1.006	0.032
22.500	114.800	80.008	19.995	103.880	20.070	1.807	0.043
30.000	115.297	80.018	19.991	103.951	20.057	2.809	0.089
37.500	116.222	80.005	19.994	103.985	20.051	3.201	0.163
45.000	117.590	80.007	19.993	104.005	20.047	3.538	0.198
52.500	119.355	80.006	19.994	104.052	20.042	3.944	0.272
60.000	121.555	80.004	19.994	104.067	20.039	4.126	0.303
67.500	124.147	80.006	19.994	104.074	20.039	4.119	0.347
75.000	126.990	80.001	19.994	104.078	20.033	4.608	0.394
82.500	130.034	80.007	19.994	104.068	20.031	4.746	0.407
90.000	133.354	80.001	19.996	104.080	20.035	4.417	0.435
97.500	136.868	80.003	19.995	104.068	20.029	4.877	0.494
105.000	140.586	80.015	19.994	104.055	20.034	4.543	0.526
112.500	144.319	80.006	19.996	104.068	20.031	4.765	0.471
120.000	148.200	79.998	19.996	104.048	20.034	4.525	0.528
127.500	152.063	79.999	19.994	104.034	20.034	4.494	0.506
135.000	155.959	80.014	19.992	104.038	20.039	4.152	0.526
142.500	159.867	80.008	19.993	104.034	20.036	4.330	0.530
150.000	163.774	80.005	19.993	104.026	20.041	3.975	0.559
157.500	167.616	80.013	19.993	104.021	20.043	3.860	0.471
165.000	171.553	80.005	19.993	103.997	20.041	4.014	0.539
172.500	175.234	80.009	19.996	103.997	20.041	3.999	0.498
180.000	179.011	80.004	19.995	103.994	20.039	4.120	0.477
187.500	182.751	80.012	19.994	103.988	20.040	4.044	0.512
195.000	186.454	80.004	19.995	103.994	20.044	3.795	0.509
202.500	190.146	80.007	19.995	104.006	20.041	4.017	0.507
210.000	193.859	80.005	19.994	103.992	20.040	4.064	0.538
217.500	197.469	80.010	19.993	103.998	20.038	4.215	0.475
225.000	201.104	80.006	19.994	103.990	20.037	4.307	0.487
232.500	204.779	80.000	20.000	103.992	20.032	4.635	0.464
240.000	208.486	80.004	19.996	103.987	20.031	4.713	0.480
247.500	212.191	80.007	19.994	103.988	20.034	4.546	0.496
255.000	215.865	80.007	19.995	103.994	20.033	4.550	0.525
262.500	219.586	80.005	19.994	103.994	20.032	4.694	0.491
270.000	223.341	80.007	19.995	103.981	20.034	4.530	0.457
277.500	227.123	80.008	19.995	103.993	20.029	4.867	0.508
285.000	230.981	80.008	19.993	103.988	20.028	4.975	0.492
292.500	234.766	80.010	19.995	103.984	20.028	4.969	0.527
300.000	238.572	80.006	19.994	103.974	20.029	4.888	0.515
307.500	242.300	80.004	19.996	103.980	20.024	5.242	0.509
315.000	246.114	80.007	19.993	103.976	20.027	5.032	0.508
322.500	249.944	80.005	19.995	103.966	20.025	5.210	0.521
330.000	253.774	80.005	20.001	103.963	20.026	5.119	0.542
337.500	257.545	80.007	19.994	103.978	20.025	5.220	0.510
345.000	261.271	80.006	19.995	103.960	20.018	5.688	0.491
352.500	265.018	80.002	19.995	103.971	20.017	5.756	0.497
360.000	268.722	80.003	19.995	103.975	20.016	5.839	0.470
367.500	272.509	80.007	19.999	103.955	20.014	6.001	0.487
375.000	276.240	80.002	19.998	103.955	20.011	6.266	0.484
382.500	280.003	80.007	19.994	103.952	20.005	6.690	0.496
390.000	283.726	80.007	19.997	103.955	20.010	6.332	0.506
397.500	287.508	80.006	19.994	103.961	20.006	6.614	0.503
405.000	291.311	80.004	19.995	103.937	20.002	6.898	0.513
412.500	295.086	80.005	19.992	103.958	19.999	7.148	0.503
420.000	298.827	80.004	19.994	103.946	19.993	7.568	0.516
427.500	302.630	80.007	19.994	103.920	19.991	7.700	0.510
435.000	306.418	80.008	19.993	103.947	19.991	7.741	0.535
442.500	310.226	80.006	19.994	103.951	19.988	7.961	0.493
450.000	314.090	80.005	19.994	103.962	19.982	8.399	0.505
457.500	317.900	80.008	19.994	103.942	19.973	9.086	0.537
465.000	321.682	80.007	19.992	103.931	19.972	9.193	0.528
472.500	325.499	80.007	19.996	103.949	19.966	9.599	0.513
480.000	329.298	80.005	19.996	103.945	19.959	10.152	0.505
487.500	333.150	80.010	19.996	103.941	19.949	10.884	0.491
495.000	336.942	80.006	19.995	103.942	19.940	11.536	0.522
502.500	340.777	80.007	19.994	103.949	19.922	12.894	0.519
510.000	344.533	80.006	19.993	103.925	19.908	13.996	0.490
517.500	348.300	80.007	19.994	103.945	19.884	15.756	0.509
525.000	352.057	80.005	19.994	103.953	19.858	17.739	0.471
532.500	355.871	80.005	19.995	103.942	19.815	20.973	0.497
540.000	359.623	80.009	19.992	103.940	19.765	24.673	0.504
547.500	363.423	80.007	19.993	103.956	19.712	28.688	0.514
555.000	367.136	80.005	19.994	103.907	19.637	34.335	0.475
562.500	370.932	80.005	19.995	103.959	19.542	41.480	0.488
570.000	374.819	80.006	19.993	103.950	19.414	51.062	0.526
577.500	378.553	80.004	19.994	103.958	19.254	63.083	0.525
585.000	382.353	80.005	19.995	103.966	19.043	78.964	0.515
592.500	386.183	80.006	19.995	103.983	18.777	98.938	0.531
600.000	390.032	80.008	19.993	104.000	18.460	122.797	0.502
607.500	393.963	80.006	19.993	104.007	18.104	149.453	0.565
615.000	397.866	80.007	19.994	103.988	17.707	179.513	0.529
622.500	401.726	80.010	19.993	104.190	17.239	214.310	0.494
630.000	405.462	80.006	19.993	104.086	16.256	289.583	0.534
637.500	409.339	80.005	19.994	103.775	15.970	310.009	0.490
645.000	413.146	80.004	19.994	104.177	15.466	348.002	0.526
652.500	416.895	80.005	19.994	104.134	14.869	392.817	0.489
660.000	420.667	80.005	19.993	104.107	14.347	432.357	0.483
667.500	424.427	80.005	19.994	104.150	14.111	450.264	0.477
675.000	428.204	80.006	19.994	104.143	14.230	441.273	0.514
682.500	431.977	80.007	19.994	104.190	14.721	404.433	0.483
690.000	435.837	80.006	19.994	104.229	15.569	340.534	0.511
697.500	439.780	80.007	19.993	104.210	16.616	261.516	0.488
705.000	443.798	80.008	19.994	104.182	17.636	184.749	0.545
712.500	447.779	80.006	19.994	104.082	18.454	123.196	0.568
720.000	451.777	80.005	19.994	104.024	19.027	80.121	0.543
727.500	455.727	80.006	19.993	103.994	19.389	52.939	0.523
735.000	459.672	80.006	19.994	103.948	19.599	37.112	0.512
742.500	463.533	80.005	19.994	103.919	19.736	26.907	0.534
750.000	467.330	80.006	19.994	103.900	19.822	20.401	0.541
757.500	471.184	80.007	19.995	103.884	19.889	15.380	0.511
765.000	475.018	80.007	19.995	103.875	19.959	10.160	0.516
772.500	478.773	80.007	19.997	103.896	19.999	7.126	0.500
780.000	482.570	80.006	19.994	103.880	20.016	5.854	0.497
787.500	486.314	80.010	19.993	103.897	20.020	5.571	0.521
795.000	490.109	80.009	19.994	103.903	20.019	5.649	0.488
802.500	493.973	80.005	19.994	103.911	20.022	5.390	0.502
810.000	497.757	80.008	19.994	103.904	20.020	5.566	0.500
817.500	501.670	80.007	19.994	103.901	20.019	5.628	0.514
825.000	505.455	80.006	19.994	103.908	20.022	5.421	0.510
832.500	509.317	80.005	19.995	103.912	20.026	5.138	0.532
840.000	513.208	80.007	19.994	103.901	20.026	5.138	0.517
847.500	517.151	80.006	19.994	103.896	20.021	5.482	0.492
855.000	521.086	80.007	19.994	103.909	20.026	5.108	0.522
862.500	524.953	80.006	19.994	103.910	20.023	5.340	0.527
870.000	528.843	80.008	19.994	103.898	20.024	5.243	0.499
877.500	532.749	80.007	19.993	103.901	20.027	5.048	0.530
885.000	536.619	80.006	19.994	103.900	20.025	5.208	0.525
892.500	540.476	80.007	19.994	103.910	20.025	5.205	0.535
900.000	544.249	80.008	19.994	103.894	20.024	5.280	0.509
907.500	548.084	80.005	19.995	103.903	20.022	5.412	0.497
915.000	551.922	80.006	19.994	103.910	20.020	5.525	0.510
922.500	555.815	80.007	19.993	103.901	20.021	5.517	0.557
930.000	559.655	80.007	19.995	103.893	20.023	5.341	0.532
937.500	563.468	80.008	19.995	103.894	20.025	5.175	0.516
945.000	567.265	80.007	19.995	103.889	20.022	5.416	0.513
952.500	571.122	80.009	19.995	103.904	20.023	5.315	0.469
960.000	575.011	80.007	19.995	103.894	20.031	4.756	0.520
967.500	578.942	80.006	19.994	103.909	20.027	4.997	0.650
975.000	582.846	80.006	19.994	103.894	20.025	5.168	0.135
982.500	586.401	80.007	19.994	103.907	20.026	5.100	0.523
990.000	590.339	80.005	19.995	103.910	20.027	5.060	0.462
997.500	594.142	80.006	19.994	103.908	20.024	5.256	0.460
1005.000	598.136	80.008	19.994	103.887	20.026	5.136	0.538
1012.500	601.918	80.008	19.994	103.908	20.023	5.360	0.509
1020.000	605.745	80.006	19.993	103.897	20.022	5.395	0.473
1027.500	609.622	80.007	19.995	103.845	20.023	5.297	0.488
1035.000	613.501	80.009	19.994	103.900	20.025	5.178	0.518
1042.500	617.373	80.006	19.994	103.903	20.023	5.352	0.517
1050.000	621.218	80.007	19.995	103.890	20.019	5.641	0.534
1057.500	625.010	80.005	19.996	103.908	20.020	5.587	0.512
1065.000	628.834	80.006	19.994	103.914	20.022	5.395	0.488
1072.500	632.630	80.006	19.995	103.902	20.017	5.774	0.488
1080.000	636.531	80.007	19.995	103.885	20.019	5.605	0.492
1087.500	640.390	80.008	19.994	103.889	20.020	5.541	0.521
1095.000	644.254	80.008	19.993	103.895	20.018	5.712	0.514
1102.500	648.059	80.007	19.995	103.897	20.022	5.432	0.498
1110.000	651.913	80.008	19.994	103.880	20.017	5.761	0.510
1117.500	655.733	80.010	19.992	103.894	20.014	6.000	0.505
1125.000	659.582	80.005	19.994	103.938	20.013	6.096	0.519
1132.500	663.381	80.006	19.996	103.951	20.017	5.776	0.466
1140.000	667.193	80.006	19.995	103.912	20.015	5.898	0.488
1147.501	670.976	80.006	19.994	103.881	20.012	6.161	0.509
1155.000	674.913	80.007	19.994	103.900	20.010	6.289	0.514
1162.500	678.758	80.007	19.995	103.895	20.010	6.287	0.535
1170.000	682.635	80.006	19.993	103.886	20.010	6.298	0.513
1177.500	686.518	80.007	19.994	103.898	20.011	6.239	0.951
1185.000	690.322	80.008	19.994	103.908	20.011	6.221	0.535
1192.500	694.190	80.008	19.994	103.891	20.010	6.322	0.488
1200.000	698.041	80.008	19.994	103.900	20.008	6.445	0.543
1207.500	701.845	80.006	19.993	103.875	20.006	6.632	0.540
1215.001	705.629	80.007	19.995	103.892	20.009	6.360	0.528
1222.500	709.399	80.006	19.993	103.897	20.010	6.315	0.494
1230.000	713.184	80.007	19.994	103.896	20.008	6.484	0.484
1237.500	717.021	80.004	19.994	103.896	20.004	6.724	0.519
1245.000	720.792	80.006	19.995	103.885	20.003	6.824	0.510
1252.500	724.569	80.006	19.995	103.905	20.000	7.030	0.527
1260.001	728.338	80.007	19.993	103.883	19.999	7.170	0.474
1267.500	732.138	80.008	19.993	103.895	19.998	7.244	0.520
1275.000	735.948	80.006	19.994	103.896	20.002	6.906	0.491
1282.500	739.736	80.008	19.993	103.876	20.001	7.005	0.507
1289.500	743.375	80.007	19.993	103.898	20.000	7.023	0.518

File: XPS_Foam_Board_MCC_30K_min_220120_R2.txt
Sample ID:	C:\MCC\MCC Cal\Test\XPS_Foam_Board_MCC_30K_min_220120_R2.txt
Sample Weight (mg):	4.72
Heating Rate (C/s):	0.5
Combustor Temp (C):	900
N2 Flow Rate (cc/min):	80
O2 Flow Rate (cc/min):	20
Calibration File:	C:\MCC\MCC Cal\Coeff1 JN10440_30_210304.txt.txt
T Correction Coefficients:	0	1.024463	0
Time Shift (s):	14
*
Time (s)	Temperature (C)	N2 flow rate (cc/min)	O2 flow rate (cc/min)	Flow Rate (cc/min)	Oxygen (%)	HRR (W/g)	Heating rate (C/s)
0.000	115.240	80.005	19.993	103.801	20.066	-0.384	-0.030
7.501	115.276	80.006	19.992	103.803	20.068	-0.471	-0.015
15.000	115.258	80.004	19.994	103.837	20.056	0.328	0.018
22.500	115.452	80.002	19.995	103.899	20.040	1.418	0.040
30.000	116.098	80.003	19.995	103.985	20.035	1.741	0.124
37.500	117.074	80.004	19.993	103.997	20.027	2.287	0.142
45.000	118.464	80.004	19.994	104.028	20.028	2.233	0.156
52.500	120.170	80.008	19.994	104.017	20.024	2.537	0.225
60.000	122.230	79.998	19.995	104.033	20.023	2.594	0.281
67.500	124.438	80.006	19.995	104.044	20.022	2.643	0.293
75.000	126.956	80.007	19.993	104.052	20.024	2.516	0.345
82.500	129.797	80.012	19.992	104.053	20.022	2.646	0.371
90.000	132.738	80.003	19.992	104.050	20.019	2.876	0.368
97.500	135.851	80.003	19.995	104.051	20.021	2.722	0.446
105.000	139.021	80.002	19.992	104.062	20.024	2.516	0.442
112.500	142.387	80.007	19.997	104.049	20.022	2.686	0.435
120.000	145.833	80.002	19.996	104.045	20.021	2.718	0.446
127.500	149.387	79.998	19.994	104.032	20.023	2.567	0.465
135.000	152.992	80.004	19.994	104.046	20.020	2.825	0.498
142.500	156.609	80.004	19.994	104.037	20.023	2.618	0.492
150.000	160.251	80.004	19.990	104.039	20.028	2.261	0.477
157.500	163.953	80.004	19.994	104.044	20.026	2.401	0.515
165.000	167.778	80.009	19.992	104.028	20.025	2.470	0.480
172.500	171.546	80.004	19.993	104.033	20.031	2.076	0.516
180.000	175.326	80.000	19.996	104.024	20.029	2.182	0.478
187.500	179.189	80.007	19.993	104.021	20.031	2.031	0.486
195.000	182.999	80.004	19.992	104.012	20.027	2.304	0.496
202.500	186.841	80.003	19.995	104.004	20.027	2.328	0.521
210.000	190.584	79.996	19.995	104.000	20.029	2.153	0.492
217.500	194.349	80.014	19.990	103.996	20.030	2.143	0.498
225.000	198.078	80.015	19.995	104.005	20.031	2.017	0.506
232.500	201.804	80.010	19.991	103.992	20.029	2.179	0.477
240.000	205.551	80.001	19.992	103.997	20.029	2.172	0.462
247.500	209.192	80.007	19.994	103.985	20.035	1.740	0.473
255.000	212.997	80.021	19.999	103.970	20.032	1.985	0.496
262.500	216.693	79.988	19.996	103.984	20.030	2.096	0.485
270.000	220.399	80.005	19.995	103.980	20.030	2.120	0.495
277.500	224.120	80.002	19.994	103.968	20.028	2.228	0.470
285.000	227.802	79.999	19.992	103.974	20.032	1.955	0.484
292.500	231.565	80.020	19.996	103.962	20.027	2.316	0.508
300.000	235.313	80.007	19.990	103.958	20.029	2.154	0.496
307.500	239.017	79.995	20.003	103.974	20.025	2.485	0.484
315.000	242.783	80.005	19.994	103.962	20.025	2.427	0.522
322.500	246.500	80.006	19.996	103.966	20.027	2.288	0.514
330.000	250.334	80.013	19.989	103.961	20.025	2.472	0.543
337.500	254.042	79.995	19.995	103.953	20.028	2.271	0.496
345.000	257.814	80.020	19.990	103.961	20.026	2.397	0.497
352.500	261.576	80.003	19.993	103.956	20.026	2.399	0.511
360.000	265.361	79.998	19.995	103.953	20.022	2.687	0.508
367.500	269.133	80.010	19.990	103.945	20.021	2.734	0.514
375.000	272.925	80.010	19.993	103.945	20.021	2.704	0.515
382.500	276.721	80.006	19.993	103.947	20.018	2.952	0.492
390.000	280.458	80.006	19.995	103.949	20.017	3.037	0.485
397.500	284.226	80.010	19.996	103.946	20.012	3.368	0.499
405.000	288.053	80.007	19.991	103.947	20.012	3.344	0.529
412.500	291.850	79.994	19.992	103.951	20.006	3.758	0.530
420.000	295.613	80.004	19.991	103.930	20.007	3.686	0.498
427.500	299.439	80.004	19.994	103.936	20.009	3.586	0.516
435.000	303.205	79.996	19.993	103.924	20.003	3.984	0.474
442.500	306.976	80.012	19.995	103.928	19.999	4.217	0.487
450.000	310.804	80.007	19.995	103.945	20.000	4.166	0.500
457.500	314.615	80.006	19.995	103.923	19.990	4.827	0.493
465.000	318.405	80.002	19.996	103.914	19.982	5.411	0.537
472.500	322.155	79.991	19.995	103.939	19.977	5.728	0.511
480.000	325.930	80.007	19.997	103.925	19.970	6.242	0.494
487.500	329.716	80.007	19.995	103.930	19.963	6.724	0.546
495.000	333.526	80.004	19.996	103.914	19.950	7.614	0.524
502.500	337.293	80.005	19.997	103.919	19.938	8.432	0.493
510.000	341.119	80.007	19.993	103.922	19.910	10.369	0.537
517.500	344.902	80.009	19.990	103.937	19.881	12.368	0.499
525.000	348.760	80.004	19.992	103.926	19.847	14.717	0.522
532.500	352.681	80.007	19.992	103.933	19.818	16.696	0.520
540.000	356.627	80.009	19.994	103.932	19.793	18.376	0.543
547.500	360.518	80.002	19.994	103.921	19.754	21.066	0.534
555.000	364.329	80.009	19.996	103.940	19.691	25.437	0.535
562.500	368.140	80.012	19.996	103.936	19.612	30.828	0.539
570.000	371.959	80.019	19.992	103.929	19.504	38.255	0.525
577.500	375.689	80.001	19.990	103.958	19.364	47.901	0.450
585.000	379.427	80.013	19.992	103.959	19.184	60.235	0.492
592.500	383.146	80.003	19.994	103.956	18.965	75.335	0.478
600.000	386.896	80.005	19.996	103.992	18.683	94.720	0.480
607.500	390.709	80.007	19.991	103.999	18.369	116.306	0.516
615.000	394.539	80.002	19.992	104.043	17.973	143.639	0.491
622.500	398.296	79.997	19.994	104.024	17.511	175.451	0.486
630.000	402.127	79.998	19.992	104.099	16.843	221.450	0.525
637.500	406.035	80.013	19.990	103.814	16.415	250.782	0.532
645.000	409.929	80.000	19.994	104.277	15.833	290.950	0.515
652.500	413.808	80.009	19.997	104.079	15.170	336.547	0.519
660.000	417.594	80.005	19.996	104.127	14.488	383.640	0.459
667.500	421.403	79.994	19.996	104.111	13.939	421.357	0.480
675.000	425.171	80.000	20.000	104.162	13.599	445.139	0.514
682.500	429.022	79.991	19.998	104.161	13.703	438.048	0.518
690.000	432.835	80.001	19.993	104.204	14.222	402.371	0.503
697.500	436.773	80.019	19.992	104.249	15.127	339.889	0.517
705.000	440.698	80.004	19.990	104.230	16.265	261.304	0.543
712.500	444.661	80.007	19.999	104.199	17.395	183.373	0.517
720.000	448.686	80.007	19.994	104.104	18.310	120.382	0.518
727.500	452.679	80.014	19.992	104.031	18.952	76.219	0.524
735.000	456.662	80.010	19.991	103.992	19.357	48.378	0.525
742.500	460.590	80.009	19.995	103.943	19.599	31.742	0.530
750.000	464.431	80.000	19.995	103.901	19.748	21.472	0.527
757.500	468.232	80.006	19.996	103.905	19.838	15.307	0.515
765.000	472.032	80.001	19.994	103.882	19.908	10.470	0.485
772.500	475.878	80.002	19.997	103.881	19.977	5.775	0.507
780.000	479.693	80.008	19.989	103.875	20.029	2.156	0.491
787.500	483.509	80.006	19.995	103.866	20.053	0.512	0.520
795.000	487.289	80.006	19.989	103.859	20.060	0.055	0.498
802.500	491.055	80.007	19.996	103.865	20.064	-0.254	0.507
810.000	494.927	80.003	19.995	103.873	20.067	-0.423	0.519
817.500	498.766	80.008	19.992	103.875	20.066	-0.335	0.521
825.000	502.642	80.001	19.999	103.880	20.066	-0.344	0.491
832.500	506.496	80.006	19.995	103.876	20.068	-0.508	0.506
840.000	510.339	79.999	19.997	103.871	20.069	-0.563	0.524
847.500	514.194	80.014	19.992	103.881	20.067	-0.446	0.516
855.000	518.094	80.005	19.996	103.879	20.069	-0.580	0.537
862.500	521.927	80.008	19.994	103.880	20.070	-0.611	0.493
870.000	525.815	80.013	19.993	103.876	20.071	-0.692	0.548
877.500	529.688	80.010	19.995	103.872	20.074	-0.877	0.524
885.000	533.606	80.011	19.989	103.894	20.074	-0.877	0.525
892.500	537.533	80.002	19.992	103.885	20.076	-1.014	0.510
900.000	541.401	80.010	19.989	103.888	20.070	-0.655	0.521
907.500	545.238	80.011	19.995	103.877	20.070	-0.608	0.504
915.000	549.071	80.002	19.997	103.876	20.070	-0.640	0.496
922.500	552.927	80.006	19.994	103.888	20.073	-0.807	0.485
930.000	556.840	80.004	19.994	103.876	20.072	-0.790	0.526
937.500	560.669	80.005	19.994	103.869	20.075	-1.005	0.509
945.000	564.528	80.005	19.995	103.876	20.075	-0.969	0.525
952.500	568.351	80.004	19.996	103.872	20.074	-0.882	0.526
960.000	572.219	80.003	19.995	103.871	20.075	-0.988	0.505
967.500	576.105	80.006	19.993	103.876	20.073	-0.864	0.500
975.000	579.979	80.008	19.993	103.875	20.076	-1.061	0.512
982.500	583.809	80.006	19.989	103.875	20.075	-1.001	0.525
990.000	587.647	80.001	19.996	103.878	20.075	-0.946	0.515
997.500	591.550	80.002	19.995	103.878	20.077	-1.097	0.510
1005.000	595.406	80.006	19.993	103.877	20.080	-1.310	0.524
1012.500	599.205	80.003	19.995	103.877	20.078	-1.200	0.513
1020.000	603.034	80.005	19.996	103.874	20.080	-1.321	0.501
1027.500	606.890	80.006	19.998	103.874	20.081	-1.409	0.512
1035.000	610.747	80.004	19.995	103.875	20.077	-1.148	0.522
1042.500	614.580	80.007	19.996	103.875	20.082	-1.436	0.484
1050.000	618.464	80.002	19.997	103.882	20.084	-1.629	0.513
1057.500	622.325	80.008	19.992	103.871	20.081	-1.381	0.495
1065.000	626.122	80.006	19.993	103.873	20.080	-1.308	0.495
1072.500	629.971	80.002	19.994	103.874	20.081	-1.370	0.491
1080.001	633.902	80.006	19.993	103.888	20.078	-1.193	0.549
1087.500	637.616	80.005	19.993	103.874	20.078	-1.163	0.385
1095.000	641.568	80.006	19.994	103.873	20.079	-1.234	0.558
1102.500	645.520	80.006	19.993	103.875	20.081	-1.373	0.516
1110.000	649.539	80.006	19.994	103.871	20.078	-1.166	0.526
1117.500	653.380	80.004	19.995	103.876	20.081	-1.413	0.393
1125.001	657.588	80.005	19.995	103.874	20.080	-1.300	0.580
1132.500	661.532	80.008	19.995	103.859	20.077	-1.097	0.483
1140.000	665.494	80.009	19.994	103.871	20.081	-1.375	0.519
1147.500	669.397	80.005	19.996	103.858	20.081	-1.409	0.546
1155.000	673.372	80.004	19.994	103.857	20.079	-1.281	0.549
1162.500	677.284	80.004	19.997	103.857	20.081	-1.358	0.531
1170.000	681.198	80.007	19.995	103.857	20.082	-1.473	0.515
1177.501	685.116	80.005	19.995	103.870	20.083	-1.509	0.540
1185.000	688.996	80.004	19.994	103.868	20.079	-1.276	0.543
1192.500	692.706	80.006	19.995	103.869	20.082	-1.477	0.443
1200.000	696.655	80.007	19.994	103.874	20.084	-1.571	0.515
1207.500	700.487	80.008	19.994	103.871	20.081	-1.400	0.505
1215.000	704.144	80.008	19.995	103.870	20.084	-1.567	0.434
1222.500	707.974	80.008	19.993	103.855	20.085	-1.640	0.480
1230.000	711.732	80.005	19.995	103.866	20.081	-1.400	0.499
1237.500	715.504	80.006	19.996	103.871	20.085	-1.682	0.521
1245.000	719.279	80.003	19.995	103.873	20.083	-1.541	0.481
1252.500	723.072	80.007	19.995	103.876	20.079	-1.260	0.498
1260.000	726.818	80.004	19.994	103.842	20.082	-1.471	0.486
1267.500	730.640	80.006	19.993	103.851	20.078	-1.208	0.489
1275.000	734.471	80.006	19.994	103.849	20.080	-1.334	0.499
1282.500	738.262	80.007	19.994	103.865	20.078	-1.210	0.509
1290.000	742.117	80.007	19.994	103.850	20.079	-1.270	0.516
1292.500	743.417	80.007	19.995	103.859	20.082	-1.465	0.517