Folder: fsri_materials_database/01_Data/XPS_Foam_Board/MCC (part 2)

File: XPS_Foam_Board_MCC_30K_min_220120_R3_FINAL_MASS.txt
Sample ID:	C:\MCC\MCC Cal\Test\XPS_Foam_Board_MCC_30K_min_220120_R3.txt
Sample Weight (mg):	4.33
Heating Rate (C/s):	0.5
Combustor Temp (C):	900
N2 Flow Rate (cc/min):	80
O2 Flow Rate (cc/min):	20
Calibration File:	C:\MCC\MCC Cal\Coeff1 JN10440_30_210304.txt.txt
T Correction Coefficients:	0	1.024463	0
Time Shift (s):	14
*
Time (s)	Temperature (C)	N2 flow rate (cc/min)	O2 flow rate (cc/min)	Flow Rate (cc/min)	Oxygen (%)	HRR (W/g)	Heating rate (C/s)
-0.001	111.427	80.006	19.994	103.753	20.122	0.063	0.002
8.000	111.486	80.007	19.994	103.748	20.120	0.154	0.036
16.000	111.452	80.006	19.993	103.758	20.120	0.156	0.003
24.000	111.542	80.004	19.994	103.854	20.108	1.103	0.019
32.000	111.973	80.003	19.994	103.837	20.101	1.623	0.037
39.999	112.690	80.004	19.994	103.891	20.091	2.350	0.116
47.999	113.720	80.005	19.993	103.970	20.087	2.698	0.170
55.999	115.193	80.004	19.993	103.976	20.076	3.513	0.201
63.999	117.094	80.004	19.996	103.992	20.074	3.628	0.248
71.999	119.353	80.005	19.993	103.990	20.068	4.055	0.315
80.000	121.928	80.004	19.994	103.993	20.073	3.687	0.347
88.000	124.711	80.007	19.992	104.007	20.067	4.150	0.338
96.000	127.756	80.006	19.996	104.002	20.067	4.133	0.383
103.999	130.964	80.001	19.993	103.995	20.061	4.612	0.383
111.999	134.382	80.004	19.994	104.009	20.065	4.317	0.421
119.999	137.904	80.004	19.995	103.995	20.065	4.314	0.462
127.999	141.573	80.003	19.995	104.009	20.061	4.596	0.443
136.000	145.342	80.002	19.994	104.016	20.065	4.335	0.477
144.000	149.138	80.002	19.994	103.998	20.062	4.534	0.489
152.000	153.007	80.003	19.992	103.995	20.063	4.493	0.462
160.000	156.977	80.005	19.994	104.002	20.067	4.142	0.486
168.000	160.968	80.005	19.993	103.994	20.065	4.310	0.531
176.000	165.021	80.005	19.993	103.991	20.066	4.256	0.524
184.000	169.067	80.006	19.994	103.989	20.067	4.137	0.478
192.000	173.167	80.003	19.993	103.986	20.064	4.403	0.528
200.000	177.142	80.002	19.993	103.982	20.067	4.173	0.520
208.000	181.214	80.004	19.993	103.967	20.064	4.360	0.509
216.000	185.219	80.003	19.995	103.956	20.069	3.992	0.498
224.000	189.318	80.002	19.995	103.957	20.070	3.904	0.525
232.000	193.286	80.004	19.994	103.956	20.072	3.797	0.477
240.000	197.253	80.005	19.992	103.949	20.071	3.873	0.500
248.000	201.205	80.005	19.994	103.951	20.069	4.012	0.464
256.000	205.213	80.006	19.993	103.949	20.069	4.045	0.496
264.000	209.136	80.007	19.994	103.934	20.067	4.136	0.462
272.000	213.146	80.004	19.992	103.947	20.070	3.938	0.460
280.000	217.047	80.004	19.993	103.951	20.069	4.028	0.499
288.000	221.036	80.004	19.994	103.953	20.064	4.369	0.520
296.000	225.021	80.004	19.993	103.940	20.064	4.398	0.523
304.000	228.958	80.003	19.994	103.943	20.060	4.679	0.534
312.000	232.948	80.004	19.994	103.923	20.062	4.565	0.482
320.000	236.937	80.005	19.995	103.933	20.061	4.617	0.487
328.000	240.946	80.005	19.994	103.924	20.060	4.662	0.499
336.000	244.929	80.004	19.994	103.929	20.062	4.525	0.493
344.000	248.945	80.006	19.993	103.927	20.061	4.572	0.512
352.000	253.026	80.004	19.995	103.926	20.057	4.930	0.509
360.000	257.030	80.005	19.992	103.923	20.061	4.619	0.489
368.000	261.066	80.004	19.994	103.922	20.056	4.986	0.536
376.000	265.094	80.004	19.994	103.926	20.060	4.688	0.506
384.000	269.083	80.004	19.995	103.916	20.059	4.780	0.473
392.000	273.174	80.005	19.994	103.922	20.054	5.105	0.480
400.000	277.162	80.006	19.994	103.912	20.050	5.443	0.500
408.000	281.162	80.006	19.995	103.922	20.049	5.542	0.487
416.000	285.171	80.005	19.995	103.913	20.044	5.880	0.492
424.000	289.189	80.007	19.994	103.914	20.040	6.208	0.520
432.000	293.255	80.006	19.993	103.903	20.034	6.631	0.494
440.000	297.242	80.005	19.993	103.910	20.038	6.339	0.513
448.000	301.283	80.006	19.995	103.911	20.031	6.867	0.505
456.000	305.292	80.006	19.993	103.910	20.028	7.094	0.512
464.000	309.322	80.005	19.994	103.913	20.026	7.243	0.487
472.000	313.388	80.005	19.994	103.914	20.021	7.591	0.515
480.000	317.451	80.005	19.994	103.909	20.016	7.982	0.502
488.000	321.516	80.004	19.994	103.905	20.012	8.266	0.510
496.000	325.488	80.004	19.993	103.910	20.004	8.879	0.512
504.000	329.568	80.006	19.995	103.904	19.989	9.971	0.502
512.000	333.618	80.006	19.994	103.897	19.978	10.798	0.495
520.000	337.689	80.005	19.995	103.911	19.957	12.418	0.489
528.000	341.801	80.005	19.994	103.909	19.932	14.254	0.532
536.000	345.849	80.004	19.993	103.898	19.909	16.003	0.512
544.000	349.997	80.004	19.995	103.901	19.874	18.622	0.538
552.000	354.152	80.003	19.993	103.912	19.847	20.663	0.497
560.000	358.238	80.005	19.995	103.908	19.809	23.493	0.484
568.000	362.348	80.006	19.994	103.903	19.756	27.443	0.524
576.000	366.434	80.005	19.994	103.906	19.682	33.017	0.515
584.000	370.479	80.007	19.994	103.911	19.589	39.972	0.512
592.000	374.516	80.007	19.994	103.910	19.456	49.905	0.461
600.000	378.577	80.006	19.994	103.920	19.286	62.667	0.504
608.000	382.592	80.004	19.994	103.946	19.083	77.864	0.500
616.000	386.649	80.003	19.994	103.954	18.836	96.372	0.510
624.000	390.670	80.004	19.994	103.951	18.519	120.118	0.479
632.000	394.744	80.005	19.993	103.978	18.160	147.036	0.504
640.000	398.764	80.005	19.994	104.053	17.660	184.661	0.502
648.000	402.808	80.006	19.995	104.078	16.902	242.001	0.484
656.000	406.941	80.005	19.995	103.767	16.574	266.096	0.517
664.000	411.015	80.004	19.997	104.095	16.027	307.105	0.494
672.000	415.016	80.007	19.995	104.039	15.362	356.990	0.489
680.000	419.017	80.004	19.994	104.091	14.724	404.946	0.520
688.000	423.009	80.005	19.995	104.100	14.281	438.232	0.484
696.000	427.034	80.004	19.995	104.096	14.195	444.794	0.513
704.000	431.063	80.005	19.995	104.132	14.544	418.759	0.512
712.000	435.190	80.004	19.994	104.151	15.326	359.998	0.524
720.000	439.313	80.004	19.992	104.177	16.394	279.730	0.518
728.000	443.539	80.005	19.993	104.146	17.500	196.564	0.550
736.000	447.767	80.005	19.993	104.046	18.415	127.882	0.577
744.000	451.980	80.004	19.994	103.986	19.050	80.335	0.535
752.000	456.241	80.007	19.994	103.954	19.441	51.038	0.531
760.000	460.392	80.008	19.994	103.895	19.662	34.454	0.510
768.000	464.498	80.004	19.995	103.874	19.800	24.150	0.511
776.000	468.568	80.004	19.995	103.868	19.881	18.088	0.487
784.000	472.589	80.003	19.995	103.846	19.943	13.446	0.469
792.000	476.645	80.003	19.994	103.853	20.009	8.503	0.483
800.000	480.655	80.003	19.994	103.842	20.049	5.485	0.499
808.000	484.689	80.005	19.993	103.847	20.061	4.613	0.504
816.000	488.730	80.005	19.992	103.857	20.066	4.236	0.481
824.000	492.807	80.005	19.994	103.852	20.066	4.241	0.514
832.000	496.934	80.007	19.994	103.868	20.070	3.896	0.518
840.000	501.051	80.008	19.993	103.859	20.070	3.936	0.496
848.000	505.211	80.005	19.993	103.859	20.071	3.872	0.544
856.000	509.304	80.004	19.994	103.868	20.068	4.094	0.543
864.000	513.434	80.004	19.994	103.875	20.070	3.956	0.506
872.000	517.672	80.005	19.992	103.873	20.072	3.747	0.533
880.000	521.835	80.002	19.993	103.877	20.066	4.210	0.532
888.000	525.987	80.004	19.995	103.872	20.070	3.962	0.501
896.000	530.156	80.007	19.993	103.860	20.069	4.030	0.526
904.000	534.321	80.007	19.995	103.872	20.069	4.005	0.529
912.000	538.466	80.006	19.994	103.858	20.069	4.005	0.523
920.000	542.628	80.006	19.993	103.868	20.071	3.873	0.499
928.000	546.682	80.004	19.993	103.872	20.066	4.214	0.497
936.000	550.738	80.005	19.993	103.874	20.070	3.945	0.495
944.000	554.886	80.004	19.993	103.875	20.066	4.222	0.528
952.000	559.014	80.005	19.993	103.858	20.066	4.253	0.498
960.000	563.079	80.004	19.994	103.853	20.068	4.100	0.514
968.000	567.121	80.003	19.994	103.872	20.066	4.253	0.529
976.000	571.218	80.006	19.993	103.859	20.065	4.294	0.496
984.000	575.355	80.004	19.994	103.851	20.066	4.264	0.500
992.000	579.501	80.004	19.993	103.868	20.070	3.929	0.548
1000.000	583.580	80.007	19.992	103.860	20.069	3.990	0.520
1008.000	587.679	80.005	19.992	103.856	20.067	4.158	0.495
1016.000	591.777	80.005	19.994	103.860	20.070	3.966	0.526
1024.000	595.908	80.005	19.995	103.860	20.066	4.193	0.518
1031.999	599.965	80.003	19.995	103.865	20.064	4.380	0.545
1039.999	604.030	80.005	19.993	103.838	20.062	4.552	0.515
1047.999	608.090	80.004	19.994	103.864	20.064	4.374	0.525
1055.999	612.126	80.005	19.994	103.867	20.066	4.210	0.492
1063.999	616.218	80.005	19.994	103.856	20.065	4.296	0.490
1071.999	620.268	80.005	19.993	103.870	20.065	4.285	0.480
1079.999	624.355	80.006	19.994	103.859	20.064	4.401	0.499
1087.999	628.425	80.008	19.993	103.868	20.067	4.145	0.510
1095.999	632.579	80.006	19.993	103.861	20.067	4.141	0.527
1103.999	636.650	80.005	19.993	103.853	20.054	5.099	0.507
1111.999	641.048	80.002	19.994	103.855	20.069	4.033	0.609
1119.999	645.037	80.004	19.993	103.857	20.065	4.327	0.448
1127.999	648.972	80.006	19.993	103.862	20.068	4.087	0.481
1135.999	652.936	80.004	19.994	103.853	20.067	4.119	0.473
1143.999	657.001	80.006	19.994	103.846	20.066	4.257	0.465
1151.999	660.835	80.004	19.994	103.843	20.067	4.182	0.504
1159.999	664.688	80.006	19.994	103.842	20.069	3.989	0.471
1167.999	668.671	80.008	19.996	103.859	20.066	4.212	0.485
1175.999	672.645	80.004	19.993	103.860	20.068	4.113	0.495
1183.999	676.740	80.005	19.992	103.872	20.068	4.075	0.507
1191.999	680.831	80.006	19.994	103.861	20.068	4.108	0.519
1199.999	684.970	80.004	19.994	103.871	20.068	4.060	0.532
1207.999	689.142	80.006	19.994	103.862	20.068	4.090	0.545
1215.999	693.173	80.004	19.994	103.858	20.068	4.105	0.462
1223.999	697.368	80.007	19.994	103.838	20.069	4.023	0.515
1231.999	701.437	80.007	19.993	103.850	20.070	3.912	0.503
1240.000	705.575	80.006	19.993	103.853	20.070	3.947	0.547
1247.999	709.675	80.011	19.993	103.867	20.066	4.201	0.513
1255.999	713.719	80.005	19.995	103.840	20.068	4.085	0.533
1263.999	717.810	80.009	19.996	103.841	20.063	4.460	0.506
1271.999	721.786	80.000	19.994	103.842	20.065	4.269	0.488
1279.999	725.870	80.006	19.994	103.859	20.070	3.943	0.493
1287.999	729.961	80.002	19.993	103.866	20.072	3.796	0.498
1296.000	734.102	79.989	19.994	103.871	20.070	3.921	0.511
1303.999	738.151	80.000	19.994	103.869	20.069	4.023	0.499
1311.999	742.281	79.998	19.994	103.860	20.070	3.959	0.538
1314.499	743.571	80.018	19.991	103.836	20.067	4.138	0.515