Folder: fsri_materials_database/01_Data/Hemp_Sheet/Cone (part 4)

File: Hemp_Sheet_Cone_HF75Scan_220524_R3.csv
Names,Time,Stack TC,Smoke TC,Exh Press,Smoke Comp,Smoke Meas,CO Meter,CO2 Meter,O2 Meter,Sample Mass,Ext Coeff,Start Test,Flame Verif
Chan Gain,,500,500,1,1,1,1,1,1,1,1,1.0,1.0
Offset,,0,0,0.139323,0,0,0,0,0,0,0,0.0,0.0
Gain,,1,1,25.011,13.8491,15.2622,1,1,1,1.00087,1.03118,1.0,1.0
Units,sec,C,C,Pa,%,%,%,%,%,g,/m,,
Baseline,,44.8817,46.6426,134.893,104.985,108.232,0.000178936,0.0420338,21.0017,-452.827,-0.275426,,
6,1.25,40.9354,43.1092,131.469,105.572,107.727,0.000635839,0.0531767,20.9445,563.761,-0.182827,0.0,0.0
12,2.75,41.1698,43.0862,107.249,105.582,110.848,0.00146796,0.191705,20.7391,563.4,-0.440263,0.0,1.0
18,4.25,43.4746,44.0732,89.3052,105.581,109.441,0.00237253,0.472801,20.5082,562.86,-0.324818,0.0,1.0
24,5.75,50.2191,47.4475,110.234,105.599,106.405,0.00307553,0.682119,20.3818,562.49,-0.068797,0.0,1.0
30,7.25,54.7732,51.0165,123.435,105.63,111.189,0.00348132,0.68897,20.3602,562.39,-0.463989,0.0,1.0
36,8.75,54.8955,52.8087,128.129,105.617,111.227,0.00376846,0.587782,20.4613,562.37,-0.468145,0.0,0.0
42,10.25,54.7114,53.774,129.721,105.626,109.8,0.00420016,0.454693,20.5673,562.31,-0.350538,0.0,0.0
48,11.75,54.5229,54.1695,133.501,105.627,109.526,0.00478741,0.342345,20.6767,562.4,-0.327913,0.0,0.0
54,13.25,53.8889,54.0752,128.892,105.638,109.493,0.00548099,0.258398,20.7653,562.36,-0.324167,0.0,0.0
60,14.75,53.3707,53.6991,133.27,105.645,109.241,0.00604236,0.199506,20.8238,562.32,-0.302783,0.0,0.0
66,16.25,52.4258,53.4854,133.446,105.661,110.255,0.00639349,0.160174,20.8625,562.289,-0.385019,0.0,0.0
72,17.75,51.7114,52.8026,132.339,105.648,110.048,0.00661108,0.134526,20.8901,562.289,-0.369082,0.0,0.0
78,19.25,51.8252,53.0081,133.494,105.669,109.028,0.00667296,0.11701,20.9098,562.289,-0.283079,0.0,0.0
84,20.75,49.1242,50.8602,137.466,105.646,109.147,0.0064516,0.103721,20.9275,562.249,-0.294955,0.0,0.0
90,22.25,51.2235,52.6055,133.127,105.669,108.616,0.0059682,0.0924837,20.9426,562.259,-0.248854,0.0,0.0
96,23.75,50.0991,51.5512,133.628,105.65,109.043,0.00533197,0.0834293,20.9538,562.279,-0.285868,0.0,0.0
102,25.25,49.9759,51.9266,133.262,105.671,109.102,0.0044897,0.0752655,20.9639,562.249,-0.289001,0.0,0.0
108,26.75,50.4055,52.6937,131.375,105.68,108.519,0.00385036,0.0679507,20.9711,562.199,-0.239728,0.0,0.0
114,28.25,49.7523,51.9865,130.046,105.689,109.254,0.00322384,0.0619968,20.9785,562.239,-0.300139,0.0,0.0
120,29.75,49.8833,51.8007,134.478,105.664,108.072,0.00273911,0.0577969,20.9841,562.279,-0.20387,0.0,0.0
126,31.25,48.5317,51.3463,134.308,105.673,109.238,0.00225472,0.0538338,20.9886,562.239,-0.300126,0.0,0.0
132,32.75,48.3684,51.2522,134.514,105.66,108.906,0.0018536,0.051155,20.9916,562.199,-0.273706,0.0,0.0
138,34.25,48.3726,51.2889,131.898,105.673,109.928,0.00152897,0.0490547,20.9943,562.189,-0.357141,0.0,0.0
144,35.75,47.6479,50.3715,134.832,105.659,109.256,0.00126453,0.0474102,20.9964,562.209,-0.302787,0.0,0.0
150,37.25,47.6358,50.3505,133.191,105.666,108.617,0.00106555,0.0462327,20.9979,562.27,-0.249186,0.0,0.0
156,38.75,47.3482,49.9597,132.747,105.653,109.018,0.000976593,0.0453552,20.9987,562.249,-0.283568,0.0,0.0
162,40.25,47.0555,50.6078,133.613,105.645,108.777,0.000987081,0.0445425,20.9999,562.209,-0.264253,0.0,0.0
168,41.75,46.9612,49.7086,133.839,105.634,109.217,0.00094284,0.0439361,21.0008,562.219,-0.301719,0.0,0.0
174,43.25,46.4442,49.3559,134.487,105.629,110.129,0.000802324,0.0435301,21.0013,562.239,-0.37737,0.0,0.0
180,44.75,46.4324,49.4644,133.249,105.632,109.293,0.000548534,0.0430604,21.0015,562.27,-0.308224,0.0,0.0
186,46.25,46.5872,49.0651,135.364,105.613,108.582,0.000310411,0.0426988,21.0026,562.259,-0.250799,0.0,0.0
192,47.75,46.3124,48.7567,136.499,105.616,108.979,0.000177693,0.0424483,21.0036,562.249,-0.28358,0.0,0.0
198,49.25,46.3637,49.1613,134.876,105.607,108.898,0.000232175,0.0422234,21.0042,562.249,-0.27761,0.0,0.0
204,50.75,45.8484,48.8443,139.318,105.596,109.984,0.000323631,0.0421264,21.0035,562.229,-0.368326,0.0,0.0
210,52.25,45.9182,48.6053,134.899,105.581,109.387,0.000373814,0.0419691,21.0031,562.239,-0.320388,0.0,0.0
216,53.75,45.8457,48.689,135.315,105.594,109.501,0.000331593,0.0419102,21.0029,562.229,-0.32866,0.0,0.0
222,55.25,45.6132,48.3604,132.265,105.574,109.346,0.000248735,0.0418434,21.0028,562.259,-0.317576,0.0,0.0
228,56.75,45.8808,48.5234,136.097,105.586,108.787,0.000208843,0.0418717,21.0037,562.239,-0.270209,0.0,0.0
234,58.25,45.3804,48.0657,132.404,105.555,108.404,0.000232985,0.0419082,21.0043,562.239,-0.240887,0.0,0.0
240,59.75,45.2993,48.0397,134.096,105.559,110.08,0.000318084,0.0419267,21.0046,562.229,-0.37929,0.0,0.0
246,61.25,45.3041,48.1083,138.169,105.543,109.817,0.000410106,0.0418966,21.0048,562.199,-0.359088,0.0,0.0
252,62.75,45.1971,48.3223,132.976,105.548,110.288,0.000522315,0.0419393,21.0047,562.219,-0.397357,0.0,0.0
258,64.25,45.1356,47.6046,133.161,105.52,109.394,0.000600875,0.0418361,21.0046,562.179,-0.326142,0.0,0.0
264,65.75,44.8447,48.1448,138.876,105.534,108.774,0.000522286,0.0418177,21.0045,562.169,-0.27354,0.0,0.0
270,67.25,44.8417,47.9427,132.979,105.518,108.825,0.000355401,0.0418387,21.0045,562.159,-0.279179,0.0,0.0
276,68.75,44.9497,48.5569,135.772,105.527,109.911,0.000246552,0.0418692,21.0045,562.179,-0.368174,0.0,0.0
282,70.25,44.7108,47.2952,133.895,105.511,108.479,0.000264965,0.0419584,21.0045,562.129,-0.250949,0.0,0.0
288,71.75,44.4581,47.7118,131.907,105.502,108.851,0.000298976,0.0420951,21.0045,562.199,-0.282609,0.0,0.0
294,73.25,44.6571,47.5211,132.924,105.509,108.656,0.000293967,0.042237,21.0045,562.189,-0.265876,0.0,0.0
300,74.75,44.4162,47.4695,132.707,105.511,109.58,0.000265052,0.042301,21.0045,562.229,-0.342257,0.0,0.0
306,76.25,44.9146,47.5714,130.238,105.489,108.083,0.000268672,0.0423458,21.0045,562.209,-0.219758,0.0,0.0
312,77.75,44.6576,47.5171,131.703,105.493,108.547,0.000304171,0.0423598,21.0045,562.169,-0.2581,0.0,0.0
318,79.25,44.5438,47.0306,135.586,105.48,109.344,0.00038494,0.0423734,21.0045,562.149,-0.325465,0.0,0.0
324,80.75,44.0985,47.2835,139.496,105.498,108.873,0.000504686,0.042471,21.0045,562.179,-0.284828,0.0,0.0
330,82.25,44.135,47.1709,131.601,105.488,109.214,0.000619278,0.0425644,21.0045,562.199,-0.313982,0.0,0.0
336,83.75,44.3798,46.8965,136.369,105.509,109.701,0.000709301,0.0425128,21.0045,562.179,-0.352428,0.0,0.0
342,85.25,44.3966,47.221,133.433,105.489,109.055,0.000744121,0.0424506,21.0046,562.199,-0.300745,0.0,0.0
348,86.75,44.4367,46.5845,136.441,105.503,107.468,0.000724575,0.0424775,21.0039,562.139,-0.166922,0.0,0.0
354,88.25,44.1995,47.2415,136.447,105.519,108.644,0.000667837,0.0425164,21.0032,562.099,-0.263996,0.0,0.0
360,89.75,44.051,46.7185,132.391,105.514,109.567,0.00058043,0.0425167,21.0027,562.099,-0.340967,0.0,0.0
366,91.25,44.1884,46.7813,134.927,105.521,109.335,0.000489484,0.042479,21.0022,562.159,-0.321254,0.0,0.0
372,92.75,43.6399,46.8692,131.784,105.496,109.099,0.000448589,0.0425161,21.0019,562.129,-0.303834,0.0,0.0
378,94.25,44.2158,46.6153,132.916,105.508,108.999,0.00045257,0.0426364,21.0018,562.139,-0.294441,0.0,0.0
384,95.75,44.2958,46.2564,130.647,105.483,109.915,0.000431712,0.0427316,21.0017,562.179,-0.372252,0.0,0.0
390,97.25,43.6108,46.3061,135.52,105.49,109.573,0.000420483,0.0426721,21.0017,562.109,-0.343532,0.0,0.0
396,98.75,43.9692,46.6503,134.332,105.481,108.164,0.000433244,0.0426852,21.0017,562.109,-0.227151,0.0,0.0
402,100.25,43.8976,46.5922,133.131,105.484,108.066,0.000483492,0.0427147,21.0016,562.139,-0.218713,0.0,0.0
408,101.75,44.0623,46.6332,134.74,105.453,109.131,0.000546527,0.0427698,21.002,562.119,-0.310046,0.0,0.0
414,103.25,43.5023,46.9073,134.775,105.449,107.947,0.000548371,0.0428147,21.0022,562.109,-0.211773,0.0,0.0
420,104.75,43.6395,46.2336,132.169,105.435,109.679,0.000485364,0.0427646,21.0023,562.129,-0.357005,0.0,0.0
426,106.25,43.3799,46.36,134.893,105.424,109.675,0.000448572,0.0427319,21.0024,562.099,-0.357602,0.0,0.0
432,107.75,43.6924,46.1481,135.741,105.394,108.58,0.000455224,0.0427278,21.0024,562.079,-0.269411,0.0,0.0
438,109.25,43.267,46.0956,132.057,105.381,108.822,0.000511764,0.042755,21.0022,562.089,-0.290618,0.0,0.0
444,110.75,43.595,45.6521,133.956,105.352,108.664,0.000587861,0.0427065,21.0019,562.099,-0.279984,0.0,0.0
450,112.25,43.5551,46.1317,130.669,105.346,108.526,0.00068282,0.0427551,21.0015,562.059,-0.269009,0.0,0.0
456,113.75,43.8828,46.0272,133.493,105.331,109.021,0.000754571,0.0428062,21.0012,562.009,-0.311414,0.0,0.0
462,115.25,43.9973,46.5893,134.545,105.319,109.763,0.000771768,0.0428326,21.0011,562.009,-0.373857,0.0,0.0
468,116.75,43.4006,46.0727,135.309,105.302,109.029,0.000726003,0.0427879,21.0011,562.029,-0.314578,0.0,0.0
474,118.25,44.0611,46.1799,135.935,105.291,109.084,0.00065301,0.0427893,21.001,561.999,-0.320191,0.0,0.0
480,119.75,43.4335,46.2705,133.029,105.273,109.221,0.000571769,0.0427653,21.001,562.029,-0.333064,0.0,0.0
486,121.25,43.6873,45.5745,132.912,105.281,109.356,0.000529801,0.04273,21.001,562.079,-0.343515,0.0,0.0
492,122.75,43.7429,46.0496,133.72,105.263,108.792,0.000551207,0.0426329,21.0013,562.049,-0.298339,0.0,0.0
498,124.25,43.3375,45.8474,135.363,105.248,109.203,0.000594815,0.0424909,21.0016,562.059,-0.333664,0.0,0.0
504,125.75,43.8367,45.8517,132.969,105.258,108.659,0.000628693,0.0424453,21.0017,562.059,-0.287654,0.0,0.0
510,127.25,43.819,45.8876,134.373,105.237,109.353,0.000633319,0.0424022,21.0018,561.999,-0.347059,0.0,0.0
516,128.75,43.7293,45.993,134,105.225,108.88,,0.042424,,562.049,-0.308886,0.0,0.0
522,130.25,43.9559,45.7966,132.913,105.225,109.041,,0.0424833,,562.009,-0.322265,0.0,0.0
528,131.75,43.916,46.273,134.604,105.247,108.473,,,,562.019,-0.273079,0.0,0.0
534,133.25,43.6824,45.8078,137.763,105.231,108.639,,,,562.009,-0.288239,0.0,0.0
540,134.75,43.7696,45.5912,135.415,105.248,109.345,,,,562.069,-0.345423,0.0,0.0
546,136.25,43.9691,46.1564,134.045,105.253,109.35,,,,561.999,-0.345448,0.0,0.0
552,137.75,44.112,45.9421,134.964,105.272,109.773,,,,561.989,-0.378768,0.0,0.0
557,139,43.7138,45.7618,134.764,105.286,108.522,,,,562.009,-0.27389,0.0,0.0