Folder: fsri_materials_database/01_Data/Hemp_Sheet/Cone (part 3)

File: Hemp_Sheet_Cone_HF75Scan_220524_R1.csv
Names,Time,Stack TC,Smoke TC,Exh Press,Smoke Comp,Smoke Meas,CO Meter,CO2 Meter,O2 Meter,Sample Mass,Ext Coeff,Start Test,Flame Verif
Chan Gain,,500,500,1,1,1,1,1,1,1,1,1.0,1.0
Offset,,0,0,0.139323,0,0,0,0,0,0,0,0.0,0.0
Gain,,1,1,25.011,13.8491,15.2622,1,1,1,1.00087,1.03118,1.0,1.0
Units,sec,C,C,Pa,%,%,%,%,%,g,/m,,
Baseline,,44.7635,46.5507,135.83,103.913,107.096,0.000467876,0.041307,21.0005,-452.683,-0.272835,,
6,1.25,40.3211,42.4394,136.299,103.908,105.665,0.000809015,0.0499169,20.999,562.81,-0.151642,0.0,0.0
12,2.75,40.3255,42.4796,121.644,103.874,109.181,0.00140089,0.12719,20.867,562.58,-0.45068,0.0,1.0
18,4.25,41.9432,43.1245,95.419,103.862,108.534,0.00236956,0.389629,20.5472,561.909,-0.398064,0.0,1.0
24,5.75,47.9518,45.7233,102.029,103.829,104.768,0.00309966,0.640162,20.3476,561.499,-0.0814031,0.0,1.0
30,7.25,54.1937,50.7919,124.193,103.839,108.665,0.00366192,0.704195,20.3021,561.449,-0.410954,0.0,1.0
36,8.75,54.347,52.0124,127.494,103.798,108.048,0.00421189,0.622574,20.4243,561.389,-0.362931,0.0,0.0
42,10.25,54.2436,52.9649,134.044,103.79,108.335,0.0047028,0.488315,20.5599,561.399,-0.387695,0.0,0.0
48,11.75,53.4372,53.2729,132.203,103.749,107.029,0.00527482,0.366583,20.6876,561.409,-0.281563,0.0,0.0
54,13.25,53.039,53.3143,132.978,103.748,107.935,0.00582361,0.285515,20.7763,561.429,-0.357877,0.0,0.0
60,14.75,52.2655,53.1274,136.083,103.728,107.21,0.00616684,0.216362,20.8421,561.329,-0.298664,0.0,0.0
66,16.25,51.8465,52.7161,139.531,103.742,107.004,0.00631291,0.17061,20.8877,561.349,-0.280063,0.0,0.0
72,17.75,51.2296,52.2313,133.085,103.692,106.745,0.00634591,0.140487,20.9212,561.359,-0.262495,0.0,0.0
78,19.25,49.6918,51.3727,138.963,103.697,106.727,0.00631499,0.118597,20.9415,561.309,-0.260514,0.0,0.0
84,20.75,48.4479,49.8183,136.139,103.671,107.1,0.00620896,0.103648,20.9539,561.319,-0.294324,0.0,0.0
90,22.25,47.6316,49.7499,133.919,103.69,107.215,0.00593749,0.0933971,20.9558,561.279,-0.302413,0.0,0.0
96,23.75,47.9576,49.7114,133.318,103.666,107.198,0.00551156,0.0854485,20.9589,561.249,-0.302988,0.0,0.0
102,25.25,47.6903,49.7781,134.539,103.686,106.678,0.00488969,0.0779839,20.9663,561.229,-0.257323,0.0,0.0
108,26.75,47.7516,50.0071,131.408,103.669,106.016,0.00428199,0.0715469,20.973,561.219,-0.202467,0.0,0.0
114,28.25,47.2062,49.9506,134.725,103.677,106.134,0.00370486,0.0660345,20.9794,561.189,-0.211928,0.0,0.0
120,29.75,46.4297,49.2293,134.877,103.696,106.637,0.0031723,0.0612333,20.9843,561.208,-0.252963,0.0,0.0
126,31.25,45.995,49.0449,135.509,103.692,106.164,0.00269865,0.0572902,20.9882,561.208,-0.213064,0.0,0.0
132,32.75,46.4624,49.2799,135.413,103.693,106.485,0.00230647,0.0539072,20.9909,561.189,-0.240293,0.0,0.0
138,34.25,45.9138,48.5691,135.365,103.709,107.173,0.00181877,0.0511194,20.9943,561.189,-0.29722,0.0,0.0
144,35.75,45.5859,47.9465,133.649,103.722,106.399,0.00136405,0.0494248,20.9963,561.208,-0.230542,0.0,0.0
150,37.25,45.9976,48.4569,135.02,103.731,106.61,0.0010119,0.0480249,20.998,561.189,-0.247651,0.0,0.0
156,38.75,45.4413,48.3844,136.684,103.728,106.335,0.000796659,0.0467135,20.9994,561.179,-0.224599,0.0,0.0
162,40.25,45.0877,48.0362,135.322,103.759,107.246,0.000713889,0.0456406,21.0001,561.179,-0.299001,0.0,0.0
168,41.75,44.9888,47.7667,132.797,103.782,106.866,0.000756682,0.0448118,21.0005,561.148,-0.264899,0.0,0.0
174,43.25,44.8999,47.2456,134.131,103.786,106.174,0.000857242,0.0440861,21.0007,561.189,-0.205756,0.0,0.0
180,44.75,44.7307,47.6755,137.683,103.835,107.298,0.000855097,0.0435872,21.0008,561.148,-0.296768,0.0,0.0
186,46.25,44.4801,47.6068,132.359,103.838,107.407,0.000752884,0.0432559,21.0013,561.128,-0.305696,0.0,0.0
192,47.75,44.2804,47.1967,132.566,103.867,106.839,0.000622843,0.043001,21.0022,561.128,-0.255135,0.0,0.0
198,49.25,44.1373,46.8413,137.16,103.891,106.236,0.000483886,0.0428372,21.0027,561.179,-0.201941,0.0,0.0
204,50.75,43.8703,47.2827,136.305,103.92,107.151,0.000385615,0.0426829,21.0029,561.179,-0.27688,0.0,0.0
210,52.25,43.5829,46.5884,134.835,103.947,106.546,0.000343924,0.0426545,21.0031,561.199,-0.223382,0.0,0.0
216,53.75,44.0165,46.7756,134.059,103.971,106.693,0.000393395,0.0426194,21.0032,561.208,-0.233734,0.0,0.0
222,55.25,43.4841,46.5317,135.564,103.988,107.413,0.000492338,0.0424506,21.0032,561.189,-0.293106,0.0,0.0
228,56.75,43.6143,46.8101,134.55,104.036,107.249,0.000541836,0.0422758,21.0032,561.128,-0.275099,0.0,0.0
234,58.25,43.4919,47.1312,134.5,104.056,106.818,0.000512999,0.042352,21.004,561.118,-0.236886,0.0,0.0
240,59.75,43.1889,46.9601,135.934,104.099,107.342,0.000489619,0.0423526,21.0038,561.199,-0.277518,0.0,0.0
246,61.25,43.5657,46.2384,133.253,104.132,108.104,0.000498539,0.0422506,21.0042,561.169,-0.338636,0.0,0.0
252,62.75,43.3624,45.8275,132.93,104.172,107.22,0.000514106,0.0420687,21.0037,561.118,-0.260799,0.0,0.0
258,64.25,43.2784,45.8776,135.324,104.181,106.979,0.000538706,0.0419993,21.0031,561.128,-0.239727,0.0,0.0
264,65.75,43.0188,45.8924,135.202,104.233,107.715,0.000593256,0.0419763,21.0028,561.078,-0.297226,0.0,0.0
270,67.25,42.8801,46.1469,138.674,104.266,108.027,0.000644347,0.0419282,21.0026,561.058,-0.320536,0.0,0.0
276,68.75,43.2823,46.1732,135.475,104.313,107.446,0.000706443,0.0419291,21.0027,561.098,-0.267699,0.0,0.0
282,70.25,42.8504,46.3331,134.754,104.353,107.19,0.000792475,0.0419295,21.0034,561.128,-0.242666,0.0,0.0
288,71.75,43.085,45.7117,136.499,104.387,108.149,0.000850248,0.0419434,21.0038,561.108,-0.320229,0.0,0.0
294,73.25,43.1563,45.7575,134.396,104.401,107.167,0.000842481,0.0419414,21.004,561.118,-0.236601,0.0,0.0
300,74.75,42.7194,45.8604,134.474,104.45,107.267,0.00080228,0.0420106,21.0044,561.118,-0.240803,0.0,0.0
306,76.25,42.5361,45.5303,131.268,104.458,107.292,0.000728419,0.0421861,21.0047,561.048,-0.242152,0.0,0.0
312,77.75,42.4798,45.7185,133.864,104.486,107.284,0.000662714,0.0422194,21.0049,561.118,-0.239031,0.0,0.0
318,79.25,42.7519,45.9213,134.583,104.507,108.702,0.000666674,0.0422273,21.005,561.078,-0.356032,0.0,0.0
324,80.75,42.3559,45.8507,133.658,104.543,108.021,0.000695364,0.0423163,21.005,560.998,-0.296042,0.0,0.0
330,82.25,42.6861,45.7144,136.194,104.565,107.274,0.000735953,0.0423624,21.0051,561.048,-0.231289,0.0,0.0
336,83.75,42.9415,45.6357,135.153,104.589,107.914,0.000786519,0.042357,21.0051,561.028,-0.28316,0.0,0.0
342,85.25,43.0684,45.3574,132.955,104.635,107.128,0.000846903,0.0424136,21.0038,561.068,-0.212958,0.0,0.0
348,86.75,42.9905,45.7562,131.422,104.641,108.26,0.000906085,0.0425811,21.0029,561.018,-0.307589,0.0,0.0
354,88.25,42.8021,45.6664,135.418,104.68,107.965,0.000960792,0.0427593,21.0025,561.088,-0.279447,0.0,0.0
360,89.75,41.7743,44.9896,131.865,104.677,108.113,0.00101086,0.0427546,21.0022,561.068,-0.292176,0.0,0.0
366,91.25,42.8784,45.4985,135.349,104.709,108.044,0.00102687,0.0428613,21.002,561.018,-0.283671,0.0,0.0
372,92.75,42.487,45.7601,127.434,104.714,108.469,0.00102564,0.042904,21.0018,561.058,-0.318725,0.0,0.0
378,94.25,42.763,45.2793,134.758,104.726,108.08,0.00102687,0.0430517,21.0017,561.028,-0.285173,0.0,0.0
384,95.75,42.8599,45.2657,132.049,104.725,108.574,0.00101983,0.0431799,21.0019,561.058,-0.326511,0.0,0.0
390,97.25,43.0326,45.8416,135.107,104.764,108.555,0.000967909,0.0432093,21.0021,561.048,-0.321529,0.0,0.0
396,98.75,43.181,45.36,138.816,104.759,108.33,0.000954124,0.0431671,21.0023,561.028,-0.303201,0.0,0.0
402,100.25,43.1386,45.5783,133.841,104.775,107.937,0.000989297,0.0433035,21.0024,561.018,-0.268892,0.0,0.0
408,101.75,42.9407,45.4001,137.65,104.753,107.755,0.00102458,0.0435022,21.0024,560.998,-0.255588,0.0,0.0
414,103.25,43.0343,45.5129,136.938,104.769,108.507,0.00106542,0.0436662,21.0013,560.998,-0.317166,0.0,0.0
420,104.75,42.8066,45.795,132.255,104.779,107.684,0.00114359,0.0437286,21.0008,560.968,-0.247383,0.0,0.0
426,106.25,43.1732,45.5757,133.438,104.803,107.559,0.0012331,0.0437331,21.0002,560.958,-0.234773,0.0,0.0
432,107.75,43.3773,45.1138,133.871,104.792,108.005,0.00132552,0.0436091,21,560.958,-0.273168,0.0,0.0
438,109.25,43.1341,45.9685,135.441,104.799,108.096,0.00135295,0.0434107,21.0007,561.008,-0.280112,0.0,0.0
444,110.75,43.1915,45.4705,133.95,104.808,108.038,0.00129512,0.0432138,21.0011,560.998,-0.274512,0.0,0.0
450,112.25,43.3165,45.4747,130.646,104.822,107.857,0.0012371,0.043022,21.0013,560.968,-0.258165,0.0,0.0
456,113.75,43.0374,45.5088,133.983,104.83,108.214,0.00119419,0.04288,21.0015,560.948,-0.287418,0.0,0.0
462,115.25,42.8656,45.0647,136.813,104.831,107.234,0.00114154,0.0427553,21.0019,560.968,-0.205023,0.0,0.0
468,116.75,42.9419,45.1752,134.409,104.829,106.9,0.00109568,0.0425971,21.002,560.968,-0.176913,0.0,0.0
474,118.25,42.4392,45.5227,134.279,104.833,108.162,0.00108103,0.0424274,21.0021,560.938,-0.282728,0.0,0.0
480,119.75,42.8544,45.3618,135.487,104.847,108.094,0.00109097,0.0424032,21.0022,560.958,-0.275835,0.0,0.0
486,121.25,43.0322,45.0644,134.008,104.836,108.848,0.00107399,0.0424304,21.0022,560.958,-0.339667,0.0,0.0
492,122.75,43.2182,45.3812,134.552,104.848,107.365,0.000995632,0.0424155,21.0022,560.928,-0.214595,0.0,0.0
498,124.25,43.3808,45.7043,134.693,104.841,107.495,0.000901466,0.0423224,21.0022,560.908,-0.22616,0.0,0.0
504,125.75,42.7177,45.0901,134.688,104.857,107.77,0.000842801,0.0423223,21.0022,560.938,-0.247792,0.0,0.0
510,127.25,43.7088,45.2588,131.477,104.86,108.204,0.000820236,0.0422377,21.0026,560.938,-0.283938,0.0,0.0
516,128.75,43.4467,45.2727,134.567,104.862,108.401,,0.0421552,,560.908,-0.300208,0.0,0.0
522,130.25,43.4328,45.5493,132.299,104.849,108.245,,0.0421278,,560.888,-0.288348,0.0,0.0
528,131.75,43.3615,45.4825,133.502,104.879,106.965,,,,560.908,-0.178203,0.0,0.0
534,133.25,42.9024,45.2895,134.006,104.873,108.771,,,,560.898,-0.330068,0.0,0.0
540,134.75,43.0156,45.0882,135.909,104.876,108.612,,,,560.868,-0.316557,0.0,0.0
546,136.25,43.2798,45.62,137.081,104.861,108.457,,,,560.918,-0.30498,0.0,0.0
552,137.75,42.9992,45.3801,136.457,104.87,107.549,,,,560.888,-0.228225,0.0,0.0
554,138.25,42.8486,45.3833,133.949,104.877,108.433,,,,560.888,-0.301614,0.0,0.0

File: Hemp_Sheet_Cone_HF75Scan_220524_R2.csv
Names,Time,Stack TC,Smoke TC,Exh Press,Smoke Comp,Smoke Meas,CO Meter,CO2 Meter,O2 Meter,Sample Mass,Ext Coeff,Start Test,Flame Verif
Chan Gain,,500,500,1,1,1,1,1,1,1,1,1.0,1.0
Offset,,0,0,0.139323,0,0,0,0,0,0,0,0.0,0.0
Gain,,1,1,25.011,13.8491,15.2622,1,1,1,1.00087,1.03118,1.0,1.0
Units,sec,C,C,Pa,%,%,%,%,%,g,/m,,
Baseline,,46.7205,48.447,135.337,104.97,108.126,0.000284792,0.0420203,21.0032,-452.737,-0.267832,,
6,1.25,42.4714,44.6224,134.51,104.647,107.005,0.000988024,0.050785,20.9542,575.031,-0.20151,0.0,0.0
12,2.75,43.0081,44.6096,130.29,104.641,109.122,0.00179108,0.122833,20.8267,574.85,-0.379224,0.0,1.0
18,4.25,43.4203,45.1796,91.8294,104.614,109.463,0.00284982,0.331031,20.6106,574.06,-0.409816,0.0,1.0
24,5.75,49.0733,47.2352,96.0045,104.589,105.938,0.0036671,0.561252,20.465,573.78,-0.115862,0.0,1.0
30,7.25,54.6174,51.0886,120.413,104.581,110.086,0.00413421,0.62965,20.4086,573.76,-0.464058,0.0,1.0
36,8.75,54.9433,52.4312,129.89,104.559,109.631,0.00447274,0.559375,20.497,573.659,-0.428416,0.0,0.0
42,10.25,54.8002,53.7637,130.395,104.549,107.893,0.00492342,0.449868,20.599,573.679,-0.284762,0.0,0.0
48,11.75,54.195,53.1611,129.093,104.518,108.519,0.00549918,0.346962,20.6823,573.669,-0.339763,0.0,0.0
54,13.25,54.2885,53.8428,133.539,104.505,107.809,0.00608003,0.263894,20.7571,573.679,-0.281533,0.0,0.0
60,14.75,53.5919,54.0763,136.042,104.501,107.441,0.00658743,0.205266,20.8183,573.659,-0.250974,0.0,0.0
66,16.25,53.3201,53.9926,134.474,104.483,108.127,0.00685047,0.162652,20.8649,573.679,-0.310163,0.0,0.0
72,17.75,52.7155,53.7305,135.483,104.473,107.802,0.00689809,0.134427,20.896,573.659,-0.283767,0.0,0.0
78,19.25,52.096,53.2197,138.008,104.467,107.784,0.00675324,0.115289,20.9185,573.629,-0.282758,0.0,0.0
84,20.75,49.9748,51.0201,133.142,104.447,108.153,0.00651528,0.101377,20.9362,573.649,-0.315455,0.0,0.0
90,22.25,47.3846,49.3349,134.858,104.442,107.664,0.0060715,0.0903891,20.9495,573.639,-0.274899,0.0,0.0
96,23.75,46.7152,48.7982,135.263,104.413,106.795,0.00553237,0.0811535,20.9598,573.609,-0.204073,0.0,0.0
102,25.25,47.0182,48.8206,134.925,104.431,108.435,0.0047865,0.0738649,20.9683,573.589,-0.340345,0.0,0.0
108,26.75,46.2131,48.0091,134.951,104.402,107.978,0.0040503,0.0676963,20.9748,573.589,-0.304639,0.0,0.0
114,28.25,46.1857,48.3631,137.468,104.4,106.709,0.00340615,0.06252,20.9816,573.559,-0.197908,0.0,0.0
120,29.75,45.8883,48.1908,132.072,104.367,108.308,0.00295452,0.0583818,20.9874,573.539,-0.335302,0.0,0.0
126,31.25,45.8136,47.9261,138.757,104.39,106.871,0.00260098,0.0552667,20.9915,573.559,-0.212515,0.0,0.0
132,32.75,45.5719,47.6685,134.554,104.414,107.497,0.00228556,0.0527924,20.9944,573.529,-0.263257,0.0,0.0
138,34.25,44.8779,47.6896,135.686,104.47,107.66,0.00202955,0.0508056,20.9966,573.549,-0.272096,0.0,0.0
144,35.75,44.681,47.1444,136.526,104.509,107.787,0.00181891,0.0492729,20.997,573.549,-0.27937,0.0,0.0
150,37.25,43.9464,47.2367,134.306,104.573,107.567,0.00162885,0.0480203,20.9975,573.539,-0.255341,0.0,0.0
156,38.75,44.5232,47.0968,132.506,104.613,107.606,0.0014392,0.046879,20.998,573.569,-0.255155,0.0,0.0
162,40.25,44.2807,47.1176,135.436,104.65,108.477,0.00122215,0.0459648,20.9985,573.549,-0.324825,0.0,0.0
168,41.75,43.8546,46.8394,137.056,104.67,107.468,0.00106383,0.0453332,20.9996,573.539,-0.23863,0.0,0.0
174,43.25,44.6394,46.8595,133.459,104.71,108.76,0.000959317,0.0446682,21.0002,573.559,-0.343261,0.0,0.0
180,44.75,43.9545,46.755,132.801,104.742,108.003,0.000897136,0.0441194,21.0007,573.529,-0.277279,0.0,0.0
186,46.25,43.7646,46.7231,137.966,104.771,108.803,0.000836277,0.0437288,21.0019,573.519,-0.341529,0.0,0.0
192,47.75,43.7253,45.9976,132.983,104.809,107.946,0.000733916,0.0434048,21.0023,573.479,-0.266791,0.0,0.0
198,49.25,43.7728,46.0837,134.277,104.835,107.971,0.000567901,0.0430563,21.0023,573.489,-0.266634,0.0,0.0
204,50.75,43.1396,46.2928,133.695,104.868,107.927,0.000460024,0.0427775,21.0023,573.539,-0.26001,0.0,0.0
210,52.25,43.587,46.2741,141.186,104.896,109.408,0.000458374,0.0425999,21.0023,573.509,-0.380896,0.0,0.0
216,53.75,43.246,45.8819,136.237,104.926,108.095,0.000480147,0.0424926,21.0023,573.499,-0.269136,0.0,0.0
222,55.25,43.1438,46.0964,139.629,104.945,109.029,0.000440633,0.0423298,21.0023,573.509,-0.345269,0.0,0.0
228,56.75,43.0811,45.9195,139.467,104.976,108.025,0.000382897,0.0422927,21.0023,573.499,-0.258951,0.0,0.0
234,58.25,42.6859,45.7106,135.819,104.988,108.558,0.000350338,0.0421963,21.0023,573.489,-0.302441,0.0,0.0
240,59.75,42.5718,45.8378,136.677,105.021,108.169,0.000448406,0.0421063,21.0019,573.489,-0.267137,0.0,0.0
246,61.25,42.3224,45.4006,133.925,105.018,107.752,0.000559073,0.0421001,21.0016,573.459,-0.232465,0.0,0.0
252,62.75,42.8376,45.4848,136.008,105.033,108.074,0.000589904,0.0421179,21.0014,573.459,-0.258205,0.0,0.0
258,64.25,42.6105,45.2152,132.287,105.031,108.286,0.000542024,0.0421412,21.0013,573.459,-0.276107,0.0,0.0
264,65.75,42.7499,45.2976,130.796,105.048,108.345,0.000490749,0.0421255,21.0013,573.489,-0.279553,0.0,0.0
270,67.25,42.1118,45.4074,136.207,105.055,108.631,0.000492578,0.0421324,21.0013,573.459,-0.302778,0.0,0.0
276,68.75,42.6397,45.289,136.599,105.077,108.663,0.000576552,0.0422076,21.0006,573.489,-0.303601,0.0,0.0
282,70.25,42.3541,45.0589,133.894,105.074,108.399,0.000652973,0.0422603,20.9996,573.469,-0.281808,0.0,0.0
288,71.75,42.4328,45.115,136.818,105.108,107.972,0.000724379,0.0423812,20.9989,573.459,-0.243188,0.0,0.0
294,73.25,42.2339,45.0801,131.591,105.096,108.212,0.000826716,0.0423799,20.9994,573.479,-0.264316,0.0,0.0
300,74.75,42.5042,45.0436,133.921,105.115,108.235,0.000933829,0.0424316,20.9999,573.499,-0.264586,0.0,0.0
306,76.25,42.3225,44.8802,135.284,105.124,109.359,0.00101883,0.0424251,21.0001,573.439,-0.357304,0.0,0.0
312,77.75,42.4027,44.8799,131.899,105.13,107.474,0.00107981,0.0424556,21.0002,573.459,-0.199412,0.0,0.0
318,79.25,41.9779,45.1774,132.708,105.13,108.868,0.00108125,0.0425118,21.0005,573.419,-0.316024,0.0,0.0
324,80.75,42.2304,44.6262,134.616,105.15,110.278,0.000990718,0.0426021,21.0006,573.429,-0.430703,0.0,0.0
330,82.25,41.8128,44.9771,132.659,105.149,107.558,0.000901094,0.0426925,21.0008,573.429,-0.204829,0.0,0.0
336,83.75,42.7219,44.7435,133.751,105.171,108.858,0.000869354,0.0427405,21.0016,573.379,-0.31168,0.0,0.0
342,85.25,42.2175,44.545,134.079,105.183,107.989,0.000855287,0.0429613,21.002,573.399,-0.23812,0.0,0.0
348,86.75,42.406,44.7049,134.712,105.193,108.482,0.00080335,0.0431433,21.0022,573.409,-0.278504,0.0,0.0
354,88.25,42.1728,44.5689,133.703,105.194,108.497,0.000743864,0.0432357,21.0024,573.369,-0.279639,0.0,0.0
360,89.75,41.2907,45.1674,133.919,105.197,108.498,0.000748225,0.0433726,21.001,573.369,-0.2795,0.0,0.0
366,91.25,41.9625,44.9451,132.051,105.206,108.279,0.000862039,0.0435237,21.001,573.349,-0.260429,0.0,0.0
372,92.75,42.2633,44.9478,131.985,105.208,108.822,0.000993703,0.0435593,21.0013,573.329,-0.30554,0.0,0.0
378,94.25,41.2193,44.449,139.4,105.232,108.451,0.00109957,0.0434954,21.0015,573.339,-0.272561,0.0,0.0
384,95.75,42.0421,44.4888,135.663,105.199,108.844,0.00118242,0.0436248,21.0016,573.349,-0.308123,0.0,0.0
390,97.25,42.295,44.5181,131.337,105.221,107.958,0.00125992,0.0436796,21.0016,573.319,-0.232235,0.0,0.0
396,98.75,42.3483,44.7662,133.356,105.228,108.522,0.00127833,0.0437002,21.0017,573.309,-0.278754,0.0,0.0
402,100.25,42.4848,44.9011,134.186,105.232,108.43,0.00125205,0.0437605,21.0019,573.299,-0.270851,0.0,0.0
408,101.75,42.4313,44.4252,135.323,105.237,107.594,0.00122849,0.0438124,21.0031,573.309,-0.200364,0.0,0.0
414,103.25,42.5438,44.8274,135.011,105.251,108.342,0.00121157,0.0438127,21.0039,573.279,-0.261831,0.0,0.0
420,104.75,42.1665,44.5254,138.224,105.232,109.003,0.0012164,0.0438117,21.0043,573.269,-0.318478,0.0,0.0
426,106.25,42.3311,44.7625,131.196,105.253,108.878,0.00124557,0.0437514,21.0036,573.249,-0.306297,0.0,0.0
432,107.75,42.1165,44.3639,134.138,105.245,108.47,0.001267,0.0436923,21.0029,573.289,-0.273028,0.0,0.0
438,109.25,42.4303,44.3797,139.439,105.259,107.843,0.00126087,0.0436353,21.0026,573.269,-0.219358,0.0,0.0
444,110.75,41.953,44.2633,133.275,105.247,109.292,0.00122268,0.043645,21.0021,573.279,-0.341141,0.0,0.0
450,112.25,42.4048,44.8271,134.134,105.265,109.124,0.00114328,0.043619,21.0017,573.249,-0.32565,0.0,0.0
456,113.75,42.1852,44.373,135.76,105.262,109.151,0.00106562,0.0435424,21.0016,573.249,-0.328144,0.0,0.0
462,115.25,42.101,44.6758,132.499,105.278,108.964,0.000956239,0.0434345,21.0015,573.259,-0.311272,0.0,0.0
468,116.75,41.9081,43.6289,133.971,105.28,108.112,0.000884415,0.0432884,21.0014,573.219,-0.24017,0.0,0.0
474,118.25,42.266,44.6426,135.618,105.294,108.139,0.000857765,0.0432233,21.0014,573.219,-0.241159,0.0,0.0
480,119.75,42.4303,44.3707,131.201,105.281,107.854,0.000847669,0.0431641,21.0023,573.169,-0.218371,0.0,0.0
486,121.25,42.0949,44.6786,132.432,105.296,109.209,0.000887185,0.0430564,21.0032,573.209,-0.330062,0.0,0.0
492,122.75,42.0748,44.4102,135.181,105.296,108.331,0.000960146,0.0429863,21.0038,573.199,-0.257051,0.0,0.0
498,124.25,42.2779,44.4329,135.315,105.299,108.664,0.000971147,0.042833,21.0041,573.219,-0.284561,0.0,0.0
504,125.75,42.4176,44.4383,132.592,105.305,107.217,0.000926176,0.042656,21.0034,573.169,-0.162705,0.0,0.0
510,127.25,41.8624,44.6432,132.908,105.327,108.281,0.00089337,0.0425321,21.0038,573.179,-0.250124,0.0,0.0
516,128.75,42.279,44.4609,137.131,105.32,109.429,,0.0424357,,573.189,-0.346185,0.0,0.0
522,130.25,42.0106,44.733,134.369,105.303,109.299,,0.0423634,,573.189,-0.336925,0.0,0.0
528,131.75,41.4029,44.3795,137.047,105.313,108.089,,,,573.199,-0.235278,0.0,0.0
534,133.25,42.4426,44.6656,133.031,105.295,108.701,,,,573.139,-0.287986,0.0,0.0
540,134.75,42.4419,44.1888,131.856,105.308,108.785,,,,573.189,-0.29391,0.0,0.0
546,136.25,42.5797,44.1255,134.68,105.263,108.893,,,,573.149,-0.306662,0.0,0.0
552,137.75,41.8103,44.2593,134.591,105.255,108.085,,,,573.109,-0.239976,0.0,0.0
558,139.25,42.302,44.3215,131.979,105.236,109.124,,,,573.149,-0.328234,0.0,0.0