Folder: fsri_materials_database/01_Data/Hemp_Sheet/HFM

Note: 01_Data/README.md
# Materials and Products Database
## 01_Data

Raw data generated from each apparatus are included here in plain-text format. The data is organized first by material, next by the short name of test apparatus used, and where applicable additional filtering by test settings.

### material.json

Each material directory contains a json file of the same name as the material. This file links the data stored in the repository as well as data and graphs produced by the accompanying scripts (__02_Scripts__) to the respective landing page for the material on the front-end website.

File: Hemp_Sheet_Density_Wet_R1.csv
,Hemp_Sheet_WET_1
Sample Mass [g],7.4
Sample Volume [cm3],14.0
Sample Density [kg/m3],529

File: Hemp_Sheet_Density_Wet_R2.csv
,Hemp_Sheet_WET_2
Sample Mass [g],7.3
Sample Volume [cm3],13.9
Sample Density [kg/m3],520

File: Hemp_Sheet_Density_Wet_R3.csv
,Hemp_Sheet_WET_3
Sample Mass [g],7.0
Sample Volume [cm3],13.4
Sample Density [kg/m3],521