Folder: fsri_materials_database/01_Data/Nylon_Carpet_High_Pile/Cone

Note: 01_Data/README.md
# Materials and Products Database
## 01_Data

Raw data generated from each apparatus are included here in plain-text format. The data is organized first by material, next by the short name of test apparatus used, and where applicable additional filtering by test settings.

### material.json

Each material directory contains a json file of the same name as the material. This file links the data stored in the repository as well as data and graphs produced by the accompanying scripts (__02_Scripts__) to the respective landing page for the material on the front-end website.

File: Nylon_Carpet_High_Pile_Cone_HF25Scalar_220317_R2.csv
LABORATORY,FSRI
TEST IDENT,NylonCarpetLP_HF25_2
OPERATOR,Dow
MATERIAL,Nylon Carpet - low pile
ORIENTATION,Horizontal
HEAT FLUX,25
SURF AREA,0.01
C FACTOR,0.0418642
SPEC HOLDER DIFF,-566
SPECIMEN MASS,26.28
SCAN TIME,0.25
O2 DELAY TIME,11
CO DELAY TIME,11
CO2 DELAY TIME,8
FLOW FACTOR,1
SCAN COUNT,5291
TIME TO IGN,1003.75
END OF TEST SCAN,4811
END OF TEST TIME,1202.75
TEST STATUS,1
PRE TEST CMT,Dimensions: 99.72 x 100.42 x 14.74 mm; 60 mm spacing
POST TEST CMT,Same as R1. Candle size ignition began at about 15:23 (923 s). See test pictures.

File: Nylon_Carpet_High_Pile_Cone_HF25Scan_220317_R1.csv
Names,Time,Stack TC,Smoke TC,Exh Press,Smoke Comp,Smoke Meas,CO Meter,CO2 Meter,O2 Meter,Sample Mass,Ext Coeff,Start Test,Flame Verif
Chan Gain,,500,500,1,1,1,1,1,1,1,1,1.0,1.0
Offset,,0,0,0.13495,0,0,0,0,0,0,0,0.0,0.0
Gain,,1,1,25.011,13.0212,13.19,1,1,1,1.0009,1.01015,1.0,1.0
Units,sec,C,C,Pa,%,%,%,%,%,g,/m,,
Baseline,,22.9497,23.8761,139.015,97.579,92.8637,0.000797167,0.0445219,21.0246,-489.21,0.438916,,
44,10.75,22.2208,22.8476,138.844,97.2868,92.3062,0.000539641,0.0457319,21.0252,26.1235,0.465663,0.0,0.0
88,21.75,22.1362,23.6664,137.057,97.6707,92.1867,0.000424035,0.0446816,21.0248,26.0634,0.51204,0.0,0.0
132,32.75,22.4595,23.649,141.036,98.256,93.0549,0.000355108,0.0466213,21.023,26.0034,0.48192,0.0,0.0
176,43.75,22.3122,23.1658,137.044,98.4774,93.5681,0.000611871,0.0476204,21.0233,25.9133,0.453122,0.0,0.0
220,54.75,22.9812,23.6817,138.801,98.1281,92.7828,0.000695509,0.046879,21.0232,25.8633,0.496322,0.0,0.0
264,65.75,23.1691,23.9724,137.491,98.7361,93.1668,0.000724312,0.0466237,21.0234,25.7832,0.514456,0.0,0.0
308,76.75,23.3285,24.1437,138.046,98.5012,92.8001,0.000786045,0.0457409,21.0253,25.6731,0.528299,0.0,0.0
352,87.75,23.4802,24.197,136.756,99.0603,93.3854,0.000774622,0.0458499,21.0232,25.6431,0.522744,0.0,0.0
396,98.75,23.7617,24.5705,139.208,98.8259,92.9555,0.000417724,0.0468007,21.0225,25.6531,0.542633,0.0,0.0
440,109.75,23.2938,24.4731,137.88,97.4366,91.5603,0.000818242,0.049562,21.018,25.6631,0.55119,0.0,0.0
484,120.75,23.4839,24.6027,139.335,97.5761,91.1047,0.000524406,0.0472433,21.0222,25.633,0.608071,0.0,0.0
528,131.75,24.0506,24.6446,138.633,98.4766,92.5501,0.000949935,0.0472391,21.0203,25.6531,0.549984,0.0,0.0
572,142.75,23.6885,24.8012,137.409,98.1265,91.4436,0.000890201,0.0462958,21.0205,25.613,0.625007,0.0,0.0
616,153.75,23.6031,24.9984,133.931,98.8485,91.7588,0.000819834,0.0500374,21.0142,25.623,0.65948,0.0,0.0
660,164.75,23.6847,25.0512,142.02,98.537,91.2971,0.000596383,0.0476866,21.019,25.603,0.676207,0.0,0.0
704,175.75,24.2118,25.3028,140.631,99.1493,92.3754,0.000765964,0.0468292,21.0186,25.533,0.627053,0.0,0.0
748,186.75,24.3523,25.1532,138.522,97.9254,90.8442,0.000800533,0.0466013,21.0192,25.5129,0.665102,0.0,0.0
792,197.75,24.74,25.3775,136.222,97.3445,89.8572,0.00082875,0.0457013,21.0215,25.533,0.709174,0.0,0.0
836,208.75,24.0441,25.7604,139.737,98.417,91.1936,0.000854815,0.0445774,21.0241,25.533,0.675455,0.0,0.0
880,219.75,24.3848,25.4802,137.875,98.1007,90.5045,0.001036,0.0441196,21.0242,25.4929,0.714143,0.0,0.0
924,230.75,24.5379,25.9547,136.214,98.8334,91.3844,0.000810314,0.0441057,21.0236,25.4329,0.694351,0.0,0.0
968,241.75,24.6404,25.4531,134.916,98.6347,90.9823,0.000904716,0.0442291,21.0242,25.4529,0.715597,0.0,0.0
1012,252.75,24.1801,25.3405,144.378,99.1283,91.5736,0.00084556,0.0442171,21.0242,25.3928,0.702422,0.0,0.0
1056,263.75,24.5639,25.6016,136.344,98.4615,90.6965,0.000670142,0.0443147,21.0242,25.4229,0.727897,0.0,0.0
1100,274.75,23.8139,25.4169,137.035,97.5845,89.7337,0.000877883,0.0440391,21.0245,25.3828,0.743189,0.0,0.0
1144,285.75,24.2522,25.4277,138.058,97.5725,89.9772,0.000731974,0.0440387,21.0246,25.3328,0.718091,0.0,0.0
1188,296.75,24.1727,25.9974,136.943,97.3401,90.2143,0.000474233,0.04418,21.0223,25.3228,0.673637,0.0,0.0
1232,307.75,24.3124,25.66,139.79,97.2888,89.7248,0.000975044,0.0440294,21.0237,25.3328,0.717176,0.0,0.0
1276,318.75,24.2525,25.5473,140.478,97.2729,90.1636,0.000766765,0.0439522,21.0261,25.2827,0.672505,0.0,0.0
1320,329.75,24.3854,25.1938,136.193,97.2614,90.046,0.000854962,0.0439194,21.026,25.2927,0.683013,0.0,0.0
1364,340.75,24.3793,25.1741,137.144,97.269,90.2485,0.000897645,0.0440586,21.0246,25.2427,0.6638,0.0,0.0
1408,351.75,24.3241,25.3953,134.039,97.2844,90.9622,0.000785956,0.0439668,21.0258,25.2327,0.595415,0.0,0.0
1452,362.75,24.8,25.3136,137.954,97.3325,90.5105,0.000586738,0.0539632,21.0122,25.1926,0.643898,0.0,0.0
1496,373.75,25.2776,25.6657,138.804,97.4303,90.4494,0.00118193,0.0590457,21.0065,25.1426,0.658785,0.0,0.0
1540,384.75,25.5137,26.7858,133.204,97.592,90.8905,0.000943409,0.0623833,21.0014,25.1326,0.630368,0.0,0.0
1584,395.75,25.8594,26.7527,136.189,97.8432,91.3228,0.000853468,0.063686,20.9981,25.0725,0.611094,0.0,0.0
1628,406.75,25.9554,27.1787,137.447,98.1694,91.4694,0.000517074,0.0645766,20.9976,25.0225,0.626386,0.0,0.0
1672,417.75,26.0715,27.0053,137.048,98.5429,91.6384,0.000951585,0.0657193,20.9953,24.9424,0.643675,0.0,0.0
1716,428.75,25.8841,27.3864,141.276,98.8978,92.3658,0.0008958,0.069201,20.9914,24.8523,0.605472,0.0,0.0
1760,439.75,26.4057,27.9826,135.799,99.1231,92.2853,0.000822173,0.0661467,20.9946,24.8423,0.633363,0.0,0.0
1804,450.75,26.8837,27.9054,134.184,99.0945,91.8272,0.00119135,0.0681358,20.9908,24.7923,0.674898,0.0,0.0
1848,461.75,26.8495,28.1426,137.612,98.7909,91.737,0.0012605,0.0731505,20.986,24.6622,0.656413,0.0,0.0
1892,472.75,27.2963,28.7138,131.732,98.4023,91.2947,0.000967428,0.0730609,20.9855,24.6021,0.66432,0.0,0.0
1936,483.75,27.1784,28.7165,137.85,98.7635,91.8944,0.00105658,0.0722788,20.9877,24.5421,0.638765,0.0,0.0
1980,494.75,27.4951,28.8266,137.626,98.7237,92.1971,0.000911172,0.0721889,20.987,24.482,0.606059,0.0,0.0
2024,505.75,27.2178,28.3415,136.803,97.9497,91.6135,0.000875458,0.0726516,20.9846,24.422,0.59258,0.0,0.0
2068,516.75,27.6716,29.1864,134.737,98.2123,90.3173,0.00116521,0.088722,20.9563,24.3018,0.742569,0.0,0.0
2112,527.75,28.1135,29.2275,134.917,98.5096,90.6595,0.00154567,0.0954167,20.9533,24.1617,0.735842,0.0,0.0
2156,538.75,28.3709,29.9478,134.451,98.3566,90.6084,0.00156617,0.0967718,20.9506,24.0216,0.727067,0.0,0.0
2200,549.75,28.854,30.2604,139.367,97.741,89.821,0.00110709,0.0948933,20.9561,23.9315,0.748773,0.0,0.0
2244,560.75,28.9807,30.7146,135.635,97.263,89.5356,0.00130464,0.0965453,20.955,23.8314,0.733528,0.0,0.0
2288,571.75,29.5158,30.6959,136.015,97.5733,90.2755,0.00126601,0.0943499,20.9579,23.7213,0.688838,0.0,0.0
2332,582.75,29.2009,30.8773,136.18,98.5155,90.5613,0.00182973,0.0935288,20.9564,23.6012,0.745982,0.0,0.0
2376,593.75,29.6301,31.0084,131.898,99.1322,89.8762,0.00192722,0.106131,20.938,23.4411,0.868569,0.0,0.0
2420,604.75,29.2968,31.2507,133.344,98.9808,90.079,0.00158292,0.108261,20.934,23.331,0.835047,0.0,0.0
2464,615.75,29.7228,31.625,138.15,98.4364,88.7455,0.00173825,0.10629,20.9385,23.1508,0.918338,0.0,0.0
2508,626.75,29.8648,31.6527,131.305,98.8565,90.0581,0.00157523,0.116311,20.9229,23.0007,0.825965,0.0,1.0
2552,637.75,30.8379,32.8153,128.8,98.376,89.6028,0.00193021,0.146889,20.879,22.7404,0.827704,0.0,0.0
2596,648.75,31.5206,33.3679,129.471,98.1678,88.9572,0.00228527,0.167682,20.8494,22.4902,0.87301,0.0,0.0
2640,659.75,32.3943,33.9542,132.374,98.4976,87.5081,0.00231548,0.17989,20.8284,22.2,1.04826,0.0,0.0
2684,670.75,34.5057,36.3344,130.869,98.2799,87.0561,0.00360823,0.216211,20.7743,21.7996,1.07454,0.0,0.0
2728,681.75,35.4158,37.5803,130.102,97.6087,85.2966,0.00461253,0.246067,20.7301,21.3092,1.19474,0.0,0.0
2772,692.75,37.3967,39.6989,125.897,97.228,84.8848,0.00466658,0.264748,20.7017,20.8287,1.20299,0.0,0.0
2816,703.75,39.7488,41.9379,125.009,97.6321,85.1581,0.005325,0.29312,20.6586,20.3283,1.21126,0.0,0.0
2860,714.75,41.2291,44.3715,127.243,98.5588,84.9553,0.00574374,0.321945,20.6184,19.6877,1.31611,0.0,0.0
2904,725.75,43.2478,46.3112,127.311,99.137,86.4482,0.0054218,0.342594,20.5909,19.0772,1.21357,0.0,0.0
2948,736.75,45.2507,49.0742,127.764,99.0206,85.6299,0.00555045,0.333345,20.6017,18.4966,1.28744,0.0,0.0
2992,747.75,46.9412,50.7735,127.088,98.5151,86.1496,0.00607513,0.355785,20.5698,17.826,1.18848,0.0,0.0
3036,758.75,49.0045,53.0618,124.501,98.779,84.6332,0.00648633,0.37967,20.5321,17.1254,1.36953,0.0,0.0
3080,769.75,51.5896,55.7261,117.754,98.7941,81.8985,0.00644043,0.412121,20.4795,16.3747,1.66194,0.0,0.0
3124,780.75,53.8067,57.9649,121.007,98.0689,81.8808,0.0062956,0.44029,20.4397,15.554,1.59857,0.0,0.0
3168,791.75,55.2327,59.8306,119.26,98.1726,80.9497,0.00659729,0.428356,20.4558,14.8433,1.70927,0.0,0.0
3212,802.75,57.1729,62.7131,119.721,98.3351,82.2141,0.00720548,0.450805,20.4219,13.9626,1.5866,0.0,0.0
3256,813.75,57.9389,63.6699,126.783,98.45,83.003,0.00660607,0.430786,20.4511,13.1819,1.51231,0.0,0.0
3300,824.75,58.7815,64.323,119.446,98.4754,82.8227,0.00621253,0.419866,20.4695,12.4412,1.53387,0.0,0.0
3344,835.75,59.1871,64.5267,122.877,98.4317,81.0041,0.00566091,0.387602,20.5182,11.7205,1.72667,0.0,0.0
3388,846.75,59.0255,64.2596,129.29,98.3224,84.7093,0.00529988,0.363669,20.555,11.1,1.32051,0.0,0.0
3432,857.75,57.8112,63.1313,121.618,98.1809,83.4768,0.00463627,0.324965,20.6117,10.5595,1.43763,0.0,0.0
3476,868.75,56.1629,61.3542,128.336,98.0772,85.2882,0.00424359,0.278935,20.6825,10.0791,1.23805,0.0,0.0
3520,879.75,53.8686,58.645,125.769,98.7734,88.0688,0.00371432,0.241165,20.7429,9.6787,1.01644,0.0,0.0
3564,890.75,52.0685,56.4233,126.444,98.8445,89.4865,0.00262907,0.207321,20.7891,9.35841,0.881314,0.0,0.0
3608,901.75,49.8874,54.0028,134.92,98.597,89.7103,0.00224004,0.168155,20.8489,9.14822,0.83696,0.0,0.0
3652,912.75,46.9039,50.9562,131.968,99.145,91.7451,0.00169408,0.119426,20.9232,9.0081,0.687337,0.0,0.0
3696,923.75,43.8377,47.4327,134.407,98.8914,92.66,0.00146665,0.0742519,20.9794,8.96806,0.576719,0.0,0.0
3740,934.75,40.0422,43.3126,138.449,97.7235,91.7628,0.00133505,0.061371,20.9991,8.93804,0.55767,0.0,0.0
3784,945.75,38.2906,40.5232,136.99,97.3047,91.3732,0.00128424,0.0595384,21.002,8.95805,0.557316,0.0,0.0
3828,956.75,36.4834,38.6375,138.955,98.2004,92.1569,0.00111421,0.0584064,21.0046,8.90801,0.562831,0.0,0.0
3872,967.75,34.835,36.9356,137.272,98.4464,91.8208,0.00158255,0.0575612,21.0055,8.85796,0.617374,0.0,0.0
3916,978.75,33.5852,35.3535,136.948,98.2767,91.9339,0.00130311,0.0563408,21.0056,8.898,0.59118,0.0,0.0
3960,989.75,32.4581,34.0531,134.82,98.4841,92.0856,0.000857257,0.0548585,21.0061,8.88799,0.595248,0.0,0.0
4004,1000.75,31.5036,32.5772,134.323,99.1565,92.8782,0.000863515,0.0527207,21.0083,8.82794,0.579598,0.0,0.0
4048,1011.75,31.0699,32.0239,136.889,98.1738,91.4561,0.000808778,0.0504279,21.0128,8.85796,0.628068,0.0,0.0
4092,1022.75,30.5221,31.7196,138.674,97.3953,90.5387,0.000802115,0.0480813,21.0159,8.84795,0.646855,0.0,0.0
4136,1033.75,30.4783,31.0112,135.238,98.5131,91.5567,,0.0467446,,8.76788,0.648901,0.0,0.0
4176,1043.75,29.8902,30.509,137.201,98.0371,91.2709,,,,8.82794,0.633679,0.0,0.0

File: Nylon_Carpet_High_Pile_Cone_HF25Scan_220317_R3.csv
Names,Time,Stack TC,Smoke TC,Exh Press,Smoke Comp,Smoke Meas,CO Meter,CO2 Meter,O2 Meter,Sample Mass,Ext Coeff,Start Test,Flame Verif
Chan Gain,,500,500,1,1,1,1,1,1,1,1,1.0,1.0
Offset,,0,0,0.13495,0,0,0,0,0,0,0,0.0,0.0
Gain,,1,1,25.011,13.0212,13.19,1,1,1,1.0009,1.01015,1.0,1.0
Units,sec,C,C,Pa,%,%,%,%,%,g,/m,,
Baseline,,25.9368,26.4282,137.35,97.8617,92.6591,0.000555526,0.0448523,21.0189,-489.133,0.484128,,
34,8.25,24.9356,25.7302,137.25,99.1557,93.8612,0.000743622,0.0463576,21.0145,24.0917,0.48624,0.0,0.0
68,16.75,25.0422,25.6479,136.755,99.0099,94.1164,0.000464643,0.0454196,21.0189,24.0116,0.449138,0.0,0.0
102,25.25,25.5291,25.2738,139.282,98.8342,93.7219,0.000660679,0.0448656,21.0208,23.9715,0.470623,0.0,0.0
136,33.75,25.2183,25.7802,137.118,98.6204,93.3954,0.000459658,0.0444543,21.0208,23.9315,0.482353,0.0,0.0
170,42.25,24.7493,25.9848,142.864,98.4579,93.8652,0.000610802,0.0444156,21.0221,23.8815,0.423282,0.0,0.0
204,50.75,25.3027,25.6501,137.098,98.5247,93.3371,0.000755565,0.0441828,21.0221,23.8414,0.479283,0.0,0.0
238,59.25,25.2457,26.2573,137.186,98.775,93.5887,0.000700883,0.0440461,21.0211,23.7313,0.477919,0.0,0.0
272,67.75,25.5629,25.5343,136.08,98.9069,93.7984,0.00049109,0.0440643,21.0214,23.6913,0.469912,0.0,0.0
306,76.25,25.4122,26.1687,140.266,98.9125,94.0246,0.000284133,0.0439672,21.0213,23.6513,0.449066,0.0,0.0
340,84.75,25.3321,26.3075,137.784,98.7885,93.4011,0.000593689,0.0437419,21.0188,23.6312,0.496908,0.0,0.0
374,93.25,25.1642,25.8635,136.419,98.566,93.7231,0.000617835,0.0441476,21.0186,23.5912,0.446429,0.0,0.0
408,101.75,25.2034,26.0987,136.09,98.2163,93.0239,0.000786876,0.0445899,21.0191,23.5812,0.481287,0.0,0.0
442,110.25,25.469,25.9265,136.187,98.0732,92.588,0.000686023,0.044237,21.0192,23.6112,0.509994,0.0,0.0
476,118.75,25.5975,25.892,134.984,98.1543,92.8661,0.000469707,0.0438375,21.0185,23.6112,0.490736,0.0,0.0
510,127.25,25.3803,26.3041,138.075,98.2628,93.063,0.00084093,0.0439813,21.0183,23.6112,0.481763,0.0,0.0
544,135.75,26.0731,26.4836,139.559,98.3729,93.1258,0.000777162,0.0441725,21.0191,23.6012,0.485706,0.0,0.0
578,144.25,25.963,26.2061,134.856,98.4817,92.8553,0.00075295,0.0440776,21.0191,23.5712,0.521284,0.0,0.0
612,152.75,25.6728,25.9355,136.064,98.5572,93.203,0.000882717,0.0440788,21.0196,23.5312,0.494947,0.0,0.0
646,161.25,25.725,26.516,134.228,98.57,92.9168,0.000989658,0.0441958,21.0194,23.5211,0.523342,0.0,0.0
680,169.75,25.8561,26.5006,138.269,98.5342,92.7417,0.000836653,0.0441277,21.019,23.4911,0.53684,0.0,0.0
714,178.25,25.7277,26.576,137.705,98.4591,92.3259,0.000857936,0.0443076,21.0204,23.4811,0.569901,0.0,0.0
748,186.75,26.081,26.7058,136.986,98.3447,92.3847,0.000994115,0.0441723,21.0205,23.4611,0.553959,0.0,0.0
782,195.25,25.855,26.6744,140.062,98.2556,92.0917,0.000681255,0.0442774,21.0205,23.4511,0.574085,0.0,0.0
816,203.75,25.6477,26.2425,134.336,98.1623,93.0283,0.000808764,0.0442552,21.0214,23.401,0.475988,0.0,0.0
850,212.25,26.0219,27.0042,137.26,98.0212,92.2849,0.000753072,0.0444001,21.0199,23.401,0.534345,0.0,0.0
884,220.75,25.7313,26.8707,136.554,97.9111,92.1629,0.000538442,0.0443,21.0204,23.391,0.536107,0.0,0.0
918,229.25,25.6694,27.002,131.341,97.8145,91.6376,0.000516664,0.0442748,21.0205,23.391,0.578013,0.0,0.0
952,237.75,25.9059,26.9623,139.076,97.71,92.241,0.00102549,0.0446274,21.0205,23.351,0.510387,0.0,0.0
986,246.25,26.3076,26.8387,138.628,97.6095,91.9045,0.000688977,0.0444388,21.0216,23.311,0.533651,0.0,0.0
1020,254.75,26.2526,27.1684,137.242,97.4684,91.605,0.00061487,0.0444658,21.0218,23.321,0.549757,0.0,0.0
1054,263.25,25.9105,26.9849,136.764,97.4144,91.3426,0.000755969,0.0445251,21.0218,23.311,0.570265,0.0,0.0
1088,271.75,25.7394,26.9361,139.037,97.3075,91.6565,0.000917126,0.0447618,21.0204,23.3009,0.530131,0.0,0.0
1122,280.25,26.0264,26.9619,133.647,97.263,91.9568,0.000578868,0.0446005,21.0203,23.2409,0.497094,0.0,0.0
1156,288.75,25.9665,26.6516,138.106,97.3139,91.9109,0.000566743,0.0445901,21.0212,23.2709,0.50615,0.0,0.0
1190,297.25,25.8426,26.5354,137.797,97.414,91.9484,0.000595093,0.045773,21.0202,23.2609,0.511656,0.0,0.0
1224,305.75,25.6415,26.9922,134.945,97.588,92.053,0.000778508,0.0451284,21.0223,23.2109,0.517394,0.0,0.0
1258,314.25,26.5594,27.1597,135.513,97.8177,92.7071,0.000518976,0.0447522,21.0226,23.1808,0.475483,0.0,0.0
1292,322.75,25.7891,26.758,133.961,98.0403,92.6129,0.000389594,0.0443962,21.0231,23.2009,0.504627,0.0,0.0
1326,331.25,26.0467,26.8903,136.392,98.3264,92.3968,0.000474296,0.0440882,21.0231,23.1408,0.551153,0.0,0.0
1360,339.75,26.467,27.1111,136.955,98.5835,93.1406,0.000810419,0.0440915,21.0205,23.1208,0.50324,0.0,0.0
1394,348.25,25.9158,27.052,133.505,98.8394,93.3069,0.000718479,0.0440651,21.0193,23.1108,0.510409,0.0,0.0
1428,356.75,26.0714,27.1321,135.078,99.0428,93.7742,0.000858677,0.0442463,21.0219,23.1108,0.484361,0.0,0.0
1462,365.25,25.6435,26.6171,135.209,99.1601,92.9845,0.000763151,0.0441332,21.0223,23.0707,0.569785,0.0,0.0
1496,373.75,25.7445,26.8206,137.832,99.228,94.06,0.000599357,0.0442525,21.0231,23.0407,0.473949,0.0,0.0
1530,382.25,25.8388,27.3084,135.704,99.2042,93.5826,0.000610504,0.044399,21.0232,23.0007,0.516907,0.0,0.0
1564,390.75,26.0972,27.179,138.056,99.0941,93.6772,0.000694875,0.0442132,21.0237,23.0007,0.498117,0.0,0.0
1598,399.25,25.8664,26.9545,137.135,98.9546,94.1164,0.000683961,0.0441407,21.0229,22.9707,0.444194,0.0,0.0
1632,407.75,25.8469,26.5366,138.565,98.7524,93.4993,0.000702707,0.0439581,21.0217,22.9606,0.484351,0.0,0.0
1666,416.25,26.1304,26.8819,140.355,98.6013,93.0469,0.000583383,0.0440831,21.0207,22.9206,0.513773,0.0,0.0
1700,424.75,26.477,27.3911,137.327,98.4571,92.5807,0.000730449,0.0633148,20.9873,22.9406,0.545303,0.0,0.0
1734,433.25,27.4027,28.2738,130.457,98.5688,91.5249,0.00136577,0.120332,20.9115,22.7605,0.65698,0.0,0.0
1768,441.75,29.0736,29.9854,133.941,98.8263,90.8857,0.00259813,0.165802,20.8424,22.5503,0.742201,0.0,0.0
1802,450.25,30.5937,31.9051,128.816,98.9324,89.0224,0.00427136,0.203983,20.7857,22.21,0.93526,0.0,1.0
1836,458.75,32.2253,33.6615,129.01,98.9141,87.971,0.00468745,0.237957,20.7325,21.8296,1.0389,0.0,0.0
1870,467.25,34.294,36.0071,124.292,98.7722,86.641,0.00530554,0.278516,20.6668,21.4393,1.16116,0.0,0.0
1904,475.75,36.8139,38.3813,123.764,98.5167,85.6331,0.00568113,0.317131,20.6125,20.9388,1.2419,0.0,0.0
1938,484.25,39.5016,41.5073,124.779,98.1952,83.3927,0.00599588,0.359387,20.5403,20.4484,1.44786,0.0,0.0
1972,492.75,42.3908,44.929,124.423,98.1134,83.5931,0.00739261,0.411095,20.461,19.8078,1.41919,0.0,0.0
2006,501.25,44.9588,47.8289,120.324,98.1654,81.8063,0.00753755,0.435726,20.4229,19.1572,1.61535,0.0,0.0
2040,509.75,47.4482,51.2912,117.332,98.2564,79.1476,0.00818534,0.471509,20.3669,18.4866,1.91632,0.0,0.0
2074,518.25,50.4263,55.0425,117.25,98.3562,78.6094,0.00836376,0.485009,20.3452,17.766,1.98577,0.0,0.0
2108,526.75,53.0569,58.0433,118.266,98.4253,81.7097,0.00882148,0.488395,20.3378,17.0353,1.64925,0.0,0.0
2142,535.25,55.9798,59.8462,122.675,98.5088,81.8631,0.00841525,0.497302,20.3264,16.3147,1.64014,0.0,0.0
2176,543.75,57.0239,62.3082,118.107,98.5449,82.0692,0.00774453,0.473255,20.3606,15.6441,1.62111,0.0,0.0
2210,552.25,57.6603,63.3076,120.978,98.5608,82.1126,0.00753973,0.458336,20.3883,15.0135,1.61785,0.0,0.0
2244,560.75,58.4546,64.0165,118.296,98.5251,79.6137,0.00743489,0.428453,20.425,14.4029,1.88848,0.0,0.0
2278,569.25,59.9222,64.0837,118.341,98.4861,80.3186,0.00720453,0.439817,20.4159,13.8024,1.80688,0.0,0.0
2312,577.75,59.9546,65.1893,122.845,98.4337,82.041,0.00754219,0.435147,20.4179,13.2219,1.61415,0.0,0.0
2346,586.25,60.5622,65.2895,115.729,98.3522,79.8174,0.00685171,0.427145,20.4289,12.7014,1.85028,0.0,0.0
2380,594.75,60.078,66.7699,118.841,98.2827,78.3812,0.00675733,0.424669,20.4313,12.0909,2.00491,0.0,0.0
2414,603.25,61.3497,66.1037,118.318,98.1853,78.9741,0.00664908,0.417133,20.4428,11.5604,1.92935,0.0,0.0
2448,611.75,60.8268,66.5107,116.728,98.1213,81.7093,0.00644015,0.400038,20.4709,10.9298,1.62188,0.0,0.0
2482,620.25,59.7955,66.3706,123.631,98.0554,85.3671,0.005503,0.354439,20.5485,10.4994,1.22788,0.0,0.0
2516,628.75,59.4883,64.8721,122.633,97.9588,82.7353,0.00502635,0.328622,20.588,10.0791,1.49662,0.0,0.0
2550,637.25,58.4529,63.6888,125.837,97.8801,84.6175,0.00395493,0.303464,20.6243,9.6787,1.29017,0.0,0.0
2584,645.75,57.1748,62.1149,122.73,97.7979,86.2619,0.00351556,0.276847,20.6691,9.28835,1.11218,0.0,0.0
2618,654.25,56.0618,60.9322,128.026,97.7001,87.2038,0.00280932,0.256705,20.7041,8.99809,1.00709,0.0,0.0
2652,662.75,54.3617,59.0153,124.661,97.6592,88.1155,0.0025123,0.231249,20.7377,8.71784,0.911217,0.0,0.0
2686,671.25,52.6968,57.5795,129.342,97.5928,89.4841,0.00252891,0.201578,20.7858,8.49764,0.768625,0.0,0.0
2720,679.75,51.111,55.6931,126.122,97.5614,88.4154,0.00234041,0.168337,20.8364,8.35751,0.872238,0.0,0.0
2754,688.25,48.7447,52.419,132.853,97.5276,91.2902,0.0018611,0.123091,20.9068,8.24741,0.585638,0.0,0.0
2788,696.75,46.3302,50.1782,134.736,97.4788,91.9315,0.00133914,0.0874026,20.9606,8.24741,0.519175,0.0,0.0
2822,705.25,43.8599,46.3972,134.777,97.4724,91.6606,0.00122492,0.0653564,20.9918,8.20738,0.544746,0.0,0.0
2856,713.75,41.3589,44.2514,136.104,97.4203,92.3062,0.00121096,0.0606189,20.9961,8.21739,0.477815,0.0,0.0
2890,722.25,39.6334,42.0827,137.464,97.3921,92.8879,0.00100413,0.0586636,20.9995,8.18736,0.419589,0.0,0.0
2924,730.75,37.4142,40.1764,136.048,97.3683,92.1661,0.000975835,0.0567769,21.0049,8.14732,0.486536,0.0,0.0
2958,739.25,36.5654,38.4793,132.292,97.3468,92.3018,0.000841386,0.0539187,21.0102,8.09728,0.471551,0.0,0.0
2992,747.75,35.321,37.2766,136.093,97.3218,92.309,0.000957439,0.0509273,21.0138,8.12731,0.468577,0.0,0.0
3026,756.25,34.3211,36.2367,134.273,97.3278,92.5067,0.000644652,0.0482577,21.0143,8.1173,0.450168,0.0,0.0
3060,764.75,33.7744,35.4263,133.892,97.3019,92.5055,0.000435788,0.046559,21.0161,8.09728,0.447932,0.0,0.0
3094,773.25,33.0218,34.0912,135.671,97.3035,92.3424,0.00064208,0.045579,21.0175,8.05724,0.463706,0.0,0.0
3128,781.75,31.622,33.6278,134.151,97.2888,91.9713,0.000706079,0.0447633,21.0189,8.06725,0.498051,0.0,0.0
3162,790.25,31.6524,32.8835,133.339,97.2765,92.1899,0.000859876,0.0446329,21.0191,8.1173,0.475895,0.0,0.0
3196,798.75,31.172,32.6046,136.998,97.2721,92.4672,0.000405085,0.0442691,21.0201,8.10729,0.44888,0.0,0.0
3230,807.25,30.9133,32.0748,137.127,97.2626,92.5594,0.00074108,0.0446628,21.0198,8.08727,0.439183,0.0,0.0
3264,815.75,30.8409,31.8855,135.299,97.2443,92.1967,,,,8.14732,0.472305,0.0,0.0
3276,818.75,30.3813,30.605,138.074,97.2411,92.4471,,,,8.14732,0.447986,0.0,0.0

File: Nylon_Carpet_High_Pile_Cone_HF50Scalar_220318_R1.csv
LABORATORY,FSRI
TEST IDENT,NylonCarpetLP_HF50_1
OPERATOR,Dow
MATERIAL,Nylon Carpet - low pile
ORIENTATION,Horizontal
HEAT FLUX,50
SURF AREA,0.01
C FACTOR,0.0418642
SPEC HOLDER DIFF,-566
SPECIMEN MASS,24.64
SCAN TIME,0.25
O2 DELAY TIME,11
CO DELAY TIME,11
CO2 DELAY TIME,8
FLOW FACTOR,1
SCAN COUNT,1482
TIME TO IGN,50.5
END OF TEST SCAN,1002
END OF TEST TIME,250.5
TEST STATUS,1
PRE TEST CMT,Dimensions: 92.81 x 100.76 x 13.89 mm; 60 mm spacing
POST TEST CMT,"Prior to ignition the sample corners lifted and curled toward the center, then a few seconds later returned to a flat position as the material began melting."

File: Nylon_Carpet_High_Pile_Cone_HF75Scalar_220318_R2.csv
LABORATORY,FSRI
TEST IDENT,NylonCarpetLP_HF75_2
OPERATOR,Dow
MATERIAL,Nylon Carpet - low pile
ORIENTATION,Horizontal
HEAT FLUX,75
SURF AREA,0.01
C FACTOR,0.0397524
SPEC HOLDER DIFF,-566
SPECIMEN MASS,25.63
SCAN TIME,0.25
O2 DELAY TIME,11
CO DELAY TIME,11
CO2 DELAY TIME,8
FLOW FACTOR,1
SCAN COUNT,1343
TIME TO IGN,18.25
END OF TEST SCAN,863
END OF TEST TIME,215.75
TEST STATUS,1
PRE TEST CMT,Dimensions: 99.15 x 96.66 x 13.83 mm; 60 mm spacing