Folder: fsri_materials_database/01_Data/Cotton_Batting_DelCo/MCC

Note: 01_Data/README.md
# Materials and Products Database
## 01_Data

Raw data generated from each apparatus are included here in plain-text format. The data is organized first by material, next by the short name of test apparatus used, and where applicable additional filtering by test settings.

### material.json

Each material directory contains a json file of the same name as the material. This file links the data stored in the repository as well as data and graphs produced by the accompanying scripts (__02_Scripts__) to the respective landing page for the material on the front-end website.

File: Cotton_Batting_DelCo_MCC_30K_min_220223_R2.txt
Sample ID:	C:\MCC\MCC Cal\Test\Cotton_Batting_DelCo_MCC_30K_min_220223_R2.txt
Sample Weight (mg):	4.35
Heating Rate (C/s):	0.5
Combustor Temp (C):	900
N2 Flow Rate (cc/min):	80
O2 Flow Rate (cc/min):	20
Calibration File:	C:\MCC\MCC Cal\Coeff1 JN10440_30_210304.txt.txt
T Correction Coefficients:	0	1.024463	0
Time Shift (s):	14
*
Time (s)	Temperature (C)	N2 flow rate (cc/min)	O2 flow rate (cc/min)	Flow Rate (cc/min)	Oxygen (%)	HRR (W/g)	Heating rate (C/s)
0.000	115.246	80.006	19.995	103.692	20.039	-0.057	0.008
7.500	115.205	80.002	19.995	103.698	20.039	-0.049	-0.010
15.000	115.242	80.004	19.995	103.753	20.030	0.621	0.017
22.500	115.455	80.003	19.994	103.852	20.017	1.572	0.061
30.000	116.151	80.004	19.995	103.855	20.012	1.974	0.117
37.500	117.146	80.004	19.994	103.907	20.003	2.650	0.125
45.000	118.496	80.004	19.995	103.890	20.003	2.627	0.193
52.501	120.104	80.005	19.994	103.912	19.997	3.103	0.238
60.001	121.978	80.004	19.993	103.907	20.004	2.606	0.237
67.500	124.030	80.003	19.995	103.898	20.001	2.795	0.283
75.000	126.295	80.006	19.994	103.951	19.995	3.230	0.316
82.500	128.802	80.008	19.994	103.958	19.994	3.314	0.364
90.000	131.495	80.004	19.995	103.964	19.989	3.707	0.360
97.501	134.441	80.003	19.994	103.955	19.991	3.578	0.399
105.000	137.495	80.003	19.996	103.967	19.995	3.278	0.415
112.500	140.756	80.004	19.994	103.956	19.988	3.748	0.434
120.001	144.185	80.003	19.995	103.964	19.987	3.827	0.453
127.500	147.627	80.004	19.995	103.956	19.987	3.841	0.467
135.000	151.227	80.005	19.995	103.965	19.989	3.668	0.497
142.500	154.900	80.008	19.994	103.961	19.992	3.456	0.502
150.000	158.625	80.005	19.993	103.956	19.990	3.606	0.483
157.500	162.354	80.007	19.993	103.935	19.993	3.374	0.471
165.000	166.119	80.007	19.994	103.946	19.991	3.563	0.466
172.500	169.959	80.004	19.995	103.934	19.994	3.307	0.502
180.000	173.739	80.003	19.995	103.942	19.991	3.535	0.506
187.500	177.522	80.004	19.995	103.928	19.993	3.376	0.493
195.000	181.322	80.004	19.995	103.927	19.993	3.383	0.492
202.500	185.082	80.003	19.996	103.923	19.995	3.212	0.502
210.000	188.896	80.005	19.994	103.913	19.996	3.138	0.513
217.500	192.645	80.005	19.994	103.905	19.995	3.249	0.495
225.000	196.346	80.004	19.995	103.907	19.993	3.370	0.457
232.500	200.041	80.004	19.994	103.916	19.995	3.269	0.480
240.000	203.696	80.006	19.994	103.896	19.998	2.998	0.473
247.500	207.444	80.007	19.994	103.912	19.999	2.934	0.531
255.000	211.197	80.004	19.995	103.903	20.003	2.681	0.492
262.500	214.834	80.005	19.995	103.895	20.002	2.732	0.495
270.000	218.493	80.005	19.993	103.890	20.004	2.570	0.513
277.500	222.231	80.005	19.994	103.893	19.999	2.907	0.521
285.000	225.895	80.002	19.995	103.893	19.997	3.061	0.507
292.500	229.590	80.003	19.997	103.889	19.999	2.977	0.500
300.000	233.225	80.005	19.995	103.890	20.000	2.889	0.501
307.501	236.929	80.005	19.994	103.886	19.998	3.013	0.482
315.000	240.589	80.005	19.995	103.888	20.000	2.837	0.468
322.500	244.252	80.006	19.995	103.952	20.004	2.599	0.466
330.000	247.911	80.006	19.994	103.887	20.004	2.607	0.453
337.500	251.713	80.006	19.995	103.890	20.001	2.806	0.497
345.000	255.389	80.005	19.995	103.889	20.000	2.843	0.501
352.500	259.106	80.005	19.995	103.885	20.000	2.849	0.508
360.000	262.774	80.002	19.996	103.885	20.003	2.650	0.507
367.500	266.532	80.003	19.994	103.879	19.999	2.977	0.514
375.000	270.270	80.005	19.996	103.886	20.001	2.831	0.535
382.500	274.039	80.005	19.997	103.884	20.000	2.895	0.470
390.000	277.822	80.005	19.994	103.872	19.996	3.192	0.465
397.500	281.621	80.005	19.992	103.879	19.993	3.404	0.544
405.000	285.387	80.008	19.993	103.859	19.989	3.712	0.493
412.500	289.198	80.005	19.994	103.874	19.988	3.760	0.518
420.000	292.966	80.006	19.994	103.883	19.981	4.282	0.529
427.501	296.716	80.004	19.994	103.879	19.975	4.767	0.481
435.000	300.456	80.005	19.995	103.880	19.969	5.144	0.528
442.500	304.247	80.002	19.993	103.880	19.966	5.435	0.491
450.000	308.046	80.004	19.992	103.870	19.957	6.044	0.534
457.500	311.882	80.004	19.994	103.872	19.948	6.733	0.526
465.000	315.727	80.005	19.995	103.880	19.941	7.247	0.490
472.500	319.564	80.004	19.993	103.888	19.930	8.078	0.482
480.000	323.454	80.004	19.996	103.897	19.919	8.874	0.523
487.500	327.270	80.005	19.996	103.900	19.889	11.121	0.561
495.000	330.917	80.005	19.994	103.893	19.867	12.812	0.410
502.500	334.864	80.003	19.993	103.915	19.869	12.633	0.444
510.000	338.646	80.004	19.994	103.920	19.832	15.375	0.519
517.500	342.398	80.004	19.994	103.905	19.785	18.905	0.488
525.000	346.272	80.004	19.995	103.880	19.758	20.916	0.525
532.500	350.065	80.003	19.996	103.998	19.680	26.731	0.518
540.000	353.928	80.007	19.994	103.935	19.646	29.291	0.537
547.500	357.763	80.005	19.995	103.847	19.572	34.826	0.516
555.000	361.661	80.006	19.995	104.009	19.477	41.867	0.537
562.500	365.456	80.006	19.992	103.854	19.487	41.155	0.494
570.000	369.215	80.006	19.995	104.124	19.374	49.559	0.512
577.500	373.058	80.005	19.996	103.918	19.273	57.147	0.504
585.000	376.853	80.004	19.996	104.072	19.243	59.366	0.491
592.500	380.624	80.004	19.996	104.082	19.176	64.402	0.486
600.000	384.339	80.004	19.994	104.102	19.053	73.621	0.504
607.500	388.012	80.004	19.995	104.129	18.915	83.877	0.475
615.000	391.748	80.004	19.995	104.231	18.721	98.523	0.528
622.500	395.512	80.006	19.993	104.259	18.591	108.226	0.525
630.000	399.260	80.006	19.995	104.239	18.458	118.204	0.543
637.500	403.102	80.004	19.995	104.264	18.359	125.667	0.515
645.000	406.956	80.005	19.995	104.311	18.241	134.459	0.515
652.500	410.823	80.007	19.994	104.307	18.156	140.773	0.536
660.000	414.611	80.004	19.996	104.292	18.147	141.430	0.529
667.500	418.464	80.004	19.996	104.252	18.232	134.986	0.534
675.000	422.260	80.004	19.996	104.175	18.412	121.397	0.496
682.500	426.098	80.005	19.993	104.117	18.666	102.375	0.495
690.001	429.928	80.004	19.994	104.049	18.944	81.606	0.513
697.500	433.739	80.003	19.994	103.975	19.202	62.363	0.495
705.000	437.507	80.006	19.995	103.928	19.407	47.026	0.480
712.500	441.297	80.007	19.994	103.886	19.547	36.621	0.512
720.000	445.081	80.005	19.993	103.853	19.637	29.930	0.519
727.500	448.829	80.006	19.994	103.850	19.694	25.631	0.480
735.000	452.612	80.008	19.994	103.837	19.719	23.776	0.499
742.500	456.347	80.004	19.995	103.847	19.724	23.409	0.467
750.000	460.123	80.003	19.994	103.836	19.727	23.199	0.523
757.500	463.875	80.004	19.996	103.823	19.731	22.863	0.497
765.000	467.628	80.005	19.995	103.835	19.729	23.071	0.507
772.500	471.540	80.004	19.996	103.823	19.723	23.484	0.532
780.000	475.436	80.004	19.995	103.826	19.721	23.662	0.499
787.500	479.297	80.006	19.995	103.814	19.725	23.361	0.510
795.000	483.211	80.008	19.995	103.820	19.733	22.774	0.514
802.500	487.047	80.007	19.994	103.811	19.739	22.270	0.483
810.000	490.889	80.006	19.993	103.811	19.763	20.498	0.524
817.500	494.736	80.007	19.993	103.806	19.784	18.937	0.507
825.000	498.606	80.004	19.993	103.799	19.812	16.868	0.516
832.500	502.444	80.004	19.994	103.809	19.840	14.808	0.507
840.000	506.225	80.006	19.995	103.795	19.869	12.619	0.524
847.500	510.010	80.005	19.994	103.802	19.893	10.809	0.508
855.000	513.809	80.005	19.995	103.796	19.920	8.812	0.522
862.500	517.650	80.005	19.995	103.802	19.938	7.457	0.522
870.000	521.481	80.007	19.994	103.810	19.952	6.456	0.495
877.500	525.298	80.003	19.994	103.813	19.965	5.440	0.518
885.000	529.199	80.004	19.993	103.814	19.967	5.311	0.529
892.500	533.054	80.003	19.993	103.812	19.972	4.947	0.515
900.000	536.985	80.006	19.993	103.813	19.974	4.818	0.519
907.500	540.884	80.006	19.994	103.812	19.977	4.544	0.524
915.001	544.740	80.005	19.993	103.809	19.980	4.390	0.481
922.500	548.695	80.004	19.994	103.813	19.981	4.263	0.525
930.000	552.619	80.006	19.995	103.813	19.980	4.355	0.539
937.500	556.437	80.004	19.994	103.813	19.986	3.895	0.484
945.000	560.339	80.004	19.995	103.814	19.982	4.179	0.500
952.500	564.172	80.004	19.994	103.812	19.989	3.673	0.505
960.000	567.979	80.005	19.994	103.811	19.989	3.704	0.535
967.500	571.782	80.007	19.994	103.808	19.987	3.866	0.522
975.000	575.621	80.007	19.995	103.807	19.987	3.825	0.487
982.500	579.367	80.006	19.995	103.808	19.987	3.807	0.498
990.000	583.206	80.006	19.994	103.813	19.990	3.595	0.520
997.500	586.979	80.005	19.995	103.811	19.991	3.509	0.483
1005.000	590.768	80.006	19.994	103.799	19.991	3.558	0.531
1012.500	594.614	80.004	19.994	103.810	19.994	3.289	0.485
1020.000	598.496	80.004	19.995	103.814	19.992	3.494	0.524
1027.500	602.354	80.004	19.995	103.813	19.993	3.392	0.516
1035.001	606.193	80.005	19.993	103.813	19.995	3.268	0.514
1042.501	609.964	80.005	19.994	103.799	19.992	3.426	0.520
1050.000	613.691	80.006	19.995	103.807	19.989	3.679	0.499
1057.500	617.452	80.005	19.995	103.804	19.993	3.392	0.478
1065.001	621.298	80.006	19.994	103.806	19.996	3.192	0.580
1072.500	625.007	80.006	19.994	103.740	19.994	3.326	0.494
1080.001	628.768	80.004	19.994	103.814	19.997	3.082	0.498
1087.500	632.587	80.004	19.994	103.809	19.994	3.283	0.492
1095.001	636.496	80.003	19.994	103.815	20.000	2.843	0.524
1102.500	640.361	80.005	19.995	103.808	20.000	2.831	0.508
1110.000	644.263	80.004	19.994	103.816	20.001	2.812	0.508
1117.501	648.170	80.006	19.996	103.808	20.000	2.901	0.526
1125.001	652.095	80.006	19.995	103.808	19.997	3.090	0.501
1132.501	655.997	80.006	19.995	103.799	19.998	2.987	0.534
1140.000	659.905	80.006	19.995	103.812	20.002	2.714	0.510
1147.500	663.806	80.005	19.995	103.808	20.001	2.786	0.532
1155.000	667.663	80.003	19.995	103.813	20.001	2.814	0.510
1162.500	671.508	80.005	19.995	103.815	20.000	2.892	0.497
1170.000	675.398	80.004	19.993	103.810	19.999	2.915	0.513
1177.500	679.130	80.006	19.994	103.800	19.999	2.915	0.475
1185.000	682.829	80.004	19.994	103.821	19.999	2.925	0.475
1192.501	686.617	80.007	19.993	103.814	19.998	3.020	0.518
1200.001	690.393	80.006	19.993	103.811	20.003	2.640	0.508
1207.500	694.223	80.006	19.994	103.806	20.005	2.490	0.516
1215.000	698.006	80.004	19.995	103.812	20.001	2.757	0.535
1222.500	701.784	80.006	19.993	103.809	20.001	2.761	0.484
1230.001	705.559	80.006	19.992	103.811	19.998	3.007	0.502
1237.500	709.235	80.004	19.995	103.798	19.999	2.958	0.503
1245.000	712.982	80.004	19.994	103.754	20.001	2.825	0.474
1252.500	716.923	80.005	19.994	103.810	19.999	2.915	0.520
1260.000	720.807	80.004	19.995	103.840	19.998	3.022	0.520
1267.500	724.737	80.003	19.994	103.810	19.997	3.096	0.529
1275.001	728.680	80.005	19.994	103.812	19.998	2.985	0.552
1282.500	732.597	80.005	19.993	103.786	20.000	2.872	0.540
1290.000	736.465	80.004	19.993	103.806	20.003	2.621	0.515
1297.500	740.290	80.006	19.994	103.806	19.997	3.061	0.484
1304.000	743.614	80.006	19.993	103.805	19.997	3.092	0.506