Folder: fsri_materials_database/01_Data/LW_GypBoard_Gypsum_Core/MCC

Note: 01_Data/README.md
# Materials and Products Database
## 01_Data

Raw data generated from each apparatus are included here in plain-text format. The data is organized first by material, next by the short name of test apparatus used, and where applicable additional filtering by test settings.

### material.json

Each material directory contains a json file of the same name as the material. This file links the data stored in the repository as well as data and graphs produced by the accompanying scripts (__02_Scripts__) to the respective landing page for the material on the front-end website.

File: LW_GypBoard_Gypsum_Core_MCC_30K_min_211129_R2.txt
Sample ID:	C:\MCC\MCC Cal\Test\LW_GypBoard_Gypsum_Core_MCC_30K_min_211129_R2.txt
Sample Weight (mg):	4.89
Heating Rate (C/s):	0.5
Combustor Temp (C):	900
N2 Flow Rate (cc/min):	80
O2 Flow Rate (cc/min):	20
Calibration File:	C:\MCC\MCC Cal\Coeff1 JN10440_30_210304.txt.txt
T Correction Coefficients:	0	1.024463	0
Time Shift (s):	14
*
Time (s)	Temperature (C)	N2 flow rate (cc/min)	O2 flow rate (cc/min)	Flow Rate (cc/min)	Oxygen (%)	HRR (W/g)	Heating rate (C/s)
0.000	107.665	80.006	19.995	103.096	20.104	-0.595	-0.014
8.000	107.684	80.006	19.994	103.094	20.099	-0.257	-0.024
16.000	107.707	80.006	19.994	103.101	20.098	-0.203	-0.007
24.000	107.815	80.004	19.994	103.158	20.092	0.176	0.017
32.000	108.168	80.007	19.995	103.289	20.074	1.364	0.088
40.000	108.972	80.007	19.994	103.294	20.066	1.906	0.119
48.000	110.332	80.006	19.995	103.295	20.064	2.042	0.202
56.000	111.979	80.007	19.994	103.331	20.061	2.233	0.265
64.000	114.021	80.008	19.994	103.338	20.056	2.597	0.276
72.000	116.418	80.006	19.995	103.359	20.049	3.025	0.295
80.001	119.089	80.005	19.994	103.368	20.052	2.815	0.330
88.000	122.097	80.006	19.993	103.370	20.050	2.984	0.366
96.000	125.335	80.007	19.995	103.369	20.047	3.154	0.420
104.000	128.653	80.007	19.994	103.369	20.050	2.976	0.383
112.000	132.145	80.006	19.994	103.368	20.050	2.954	0.407
120.001	135.752	80.008	19.994	103.365	20.049	3.016	0.406
128.000	139.590	80.009	19.993	103.352	20.050	2.980	0.487
136.000	143.437	80.007	19.995	103.368	20.046	3.235	0.502
144.000	147.387	80.009	19.995	103.354	20.050	2.947	0.508
152.000	151.336	80.006	19.994	103.354	20.050	2.943	0.510
160.000	155.322	80.007	19.994	103.344	20.054	2.734	0.505
168.000	159.335	80.005	19.996	103.334	20.057	2.499	0.500
176.000	163.401	80.007	19.995	103.329	20.055	2.674	0.489
184.000	167.516	80.005	19.993	103.328	20.054	2.702	0.526
192.000	171.513	80.006	19.994	103.329	20.056	2.580	0.487
200.000	175.532	80.008	19.994	103.331	20.056	2.544	0.523
208.000	179.501	80.008	19.994	103.327	20.054	2.694	0.493
216.000	183.495	80.006	19.993	103.326	20.060	2.339	0.500
224.000	187.463	80.009	19.994	103.325	20.056	2.607	0.485
232.000	191.496	80.007	19.995	103.320	20.060	2.292	0.513
240.000	195.382	80.007	19.995	103.326	20.061	2.244	0.461
248.000	199.341	80.006	19.995	103.309	20.061	2.232	0.485
256.000	203.320	80.006	19.995	103.309	20.063	2.143	0.480
264.000	207.245	80.005	19.996	103.317	20.065	1.951	0.489
272.000	211.235	80.005	19.994	103.296	20.063	2.083	0.471
280.000	215.245	80.009	19.994	103.299	20.065	1.960	0.507
288.000	219.199	80.009	19.994	103.294	20.066	1.895	0.521
296.000	223.139	80.008	19.994	103.293	20.066	1.938	0.476
304.000	227.129	80.009	19.993	103.294	20.067	1.855	0.497
312.000	231.162	80.007	19.994	103.288	20.066	1.884	0.519
320.000	235.180	80.006	19.994	103.287	20.065	1.969	0.473
328.000	239.161	80.006	19.994	103.290	20.069	1.704	0.478
336.000	243.195	80.005	19.995	103.284	20.070	1.648	0.516
344.000	247.179	80.005	19.994	103.291	20.068	1.771	0.506
352.000	251.232	80.005	19.996	103.285	20.069	1.722	0.495
360.000	255.209	80.008	19.995	103.279	20.069	1.741	0.496
368.000	259.186	80.010	19.993	103.275	20.069	1.729	0.498
376.000	263.101	80.007	19.994	103.283	20.072	1.552	0.490
384.000	267.070	80.009	19.995	103.274	20.069	1.719	0.517
392.000	271.113	80.009	19.994	103.279	20.075	1.298	0.515
400.000	275.120	80.007	19.993	103.283	20.074	1.413	0.516
408.000	279.170	80.004	19.993	103.273	20.075	1.355	0.523
416.000	283.202	80.005	19.994	103.274	20.075	1.304	0.533
424.000	287.273	80.006	19.994	103.269	20.076	1.284	0.511
432.000	291.293	80.005	19.994	103.271	20.075	1.324	0.519
440.000	295.332	80.007	19.995	103.270	20.076	1.231	0.513
448.000	299.325	80.007	19.995	103.267	20.074	1.394	0.488
456.001	303.332	80.006	19.994	103.264	20.077	1.199	0.472
464.000	307.397	80.008	19.995	103.259	20.077	1.195	0.504
472.000	311.442	80.008	19.994	103.254	20.076	1.251	0.517
480.000	315.450	80.005	19.995	103.257	20.083	0.804	0.503
488.000	319.482	80.006	19.994	103.250	20.075	1.320	0.482
496.000	323.504	80.006	19.993	103.255	20.077	1.171	0.490
504.000	327.527	80.007	19.995	103.259	20.076	1.242	0.486
512.000	331.599	80.006	19.995	103.252	20.077	1.200	0.525
520.000	335.679	80.007	19.995	103.256	20.082	0.874	0.515
528.000	339.706	80.007	19.994	103.253	20.080	1.023	0.511
536.000	343.730	80.006	19.995	103.257	20.080	0.972	0.476
544.000	347.809	80.007	19.995	103.254	20.081	0.923	0.492
552.000	351.817	80.009	19.993	103.240	20.081	0.894	0.507
560.000	355.877	80.006	19.993	103.246	20.084	0.699	0.497
568.000	359.982	80.006	19.995	103.250	20.082	0.889	0.510
576.000	364.055	80.006	19.995	103.249	20.082	0.836	0.514
584.000	368.054	80.007	19.993	103.248	20.086	0.570	0.506
592.000	372.112	80.006	19.995	103.254	20.086	0.592	0.537
600.000	376.136	80.006	19.994	103.248	20.093	0.121	0.496
608.000	380.113	80.006	19.995	103.247	20.094	0.101	0.471
616.000	384.106	80.006	19.993	103.223	20.089	0.424	0.494
624.000	387.987	80.006	19.995	103.226	20.087	0.534	0.474
632.000	391.934	80.007	19.995	103.215	20.093	0.127	0.486
640.000	395.901	80.006	19.996	103.217	20.096	-0.031	0.489
648.000	399.912	80.005	19.994	103.233	20.095	0.020	0.509
656.000	403.887	80.005	19.994	103.232	20.093	0.121	0.495
664.000	407.830	80.007	19.993	103.220	20.092	0.192	0.522
672.000	411.808	80.005	19.994	103.241	20.100	-0.338	0.484
680.000	415.704	80.005	19.994	103.231	20.099	-0.233	0.533
688.000	419.357	80.007	19.995	103.213	20.093	0.112	0.430
696.000	423.417	80.005	19.995	103.217	20.095	0.033	0.496
704.000	427.287	80.007	19.995	103.215	20.095	0.007	0.485
712.000	431.228	80.008	19.994	103.223	20.098	-0.181	0.472
720.000	435.227	80.007	19.995	103.227	20.098	-0.206	0.516
728.000	439.233	80.004	19.995	103.219	20.096	-0.063	0.518
736.000	443.272	80.004	19.994	103.240	20.096	-0.080	0.483
744.000	447.357	80.006	19.994	103.224	20.099	-0.250	0.528
752.000	451.465	80.006	19.995	103.227	20.098	-0.215	0.498
760.000	455.607	80.006	19.994	103.228	20.096	-0.043	0.552
768.000	459.678	80.008	19.994	103.228	20.102	-0.478	0.512
776.000	463.809	80.006	19.993	103.223	20.100	-0.293	0.509
784.000	467.867	80.008	19.994	103.221	20.105	-0.670	0.515
792.000	471.940	80.008	19.994	103.220	20.101	-0.424	0.490
800.000	476.093	80.007	19.994	103.218	20.111	-1.041	0.462
808.000	480.071	80.005	19.995	103.216	20.102	-0.460	0.513
816.000	484.123	80.007	19.995	103.211	20.106	-0.749	0.518
824.000	488.191	80.006	19.996	103.208	20.105	-0.628	0.518
832.000	492.261	80.006	19.995	103.211	20.106	-0.742	0.535
840.000	496.215	80.006	19.994	103.208	20.109	-0.912	0.496
848.000	500.301	80.006	19.995	103.215	20.104	-0.588	0.539
856.000	504.238	80.006	19.994	103.213	20.105	-0.675	0.493
864.000	508.236	80.007	19.994	103.217	20.102	-0.431	0.529
872.001	512.270	80.009	19.994	103.236	20.104	-0.619	0.518
880.000	516.326	80.008	19.995	103.210	20.102	-0.481	0.518
888.000	520.387	80.006	19.994	103.210	20.099	-0.262	0.524
896.000	524.512	80.007	19.995	103.207	20.104	-0.583	0.529
904.000	528.591	80.006	19.994	103.136	20.106	-0.718	0.503
912.000	532.791	80.005	19.995	103.192	20.104	-0.621	0.533
920.000	536.870	80.006	19.996	103.203	20.108	-0.821	0.507
928.000	540.904	80.006	19.994	103.207	20.107	-0.776	0.484
936.000	545.021	80.007	19.994	103.203	20.106	-0.691	0.514
944.000	549.111	80.007	19.995	103.187	20.105	-0.653	0.493
952.000	553.199	80.008	19.995	103.209	20.103	-0.554	0.495
960.000	557.299	80.009	19.994	103.205	20.106	-0.731	0.517
968.000	561.489	80.007	19.994	103.206	20.101	-0.420	0.529
976.000	565.590	80.005	19.995	103.186	20.107	-0.803	0.472
984.000	569.706	80.006	19.995	103.175	20.104	-0.606	0.529
992.000	573.781	80.005	19.995	103.183	20.110	-0.966	0.538
1000.000	577.847	80.006	19.995	103.147	20.109	-0.908	0.515
1008.000	581.905	80.006	19.996	103.180	20.111	-1.062	0.525
1016.000	586.095	80.006	19.994	103.191	20.113	-1.178	0.563
1024.000	590.383	80.005	19.994	103.181	20.111	-1.044	0.519
1032.000	594.801	80.007	19.994	103.190	20.116	-1.370	0.585
1040.000	599.148	80.007	19.994	103.185	20.114	-1.256	0.539
1048.000	603.527	80.005	19.994	103.190	20.119	-1.571	0.531
1056.000	607.855	80.005	19.993	103.198	20.118	-1.507	0.560
1064.000	612.214	80.007	19.995	103.199	20.117	-1.428	0.531
1072.000	616.588	80.004	19.995	103.191	20.119	-1.596	0.556
1080.001	620.765	80.003	19.994	103.184	20.125	-1.996	0.499
1088.000	624.988	80.007	19.995	103.181	20.125	-1.963	0.545
1096.001	629.039	80.006	19.995	103.179	20.125	-1.960	0.511
1104.000	632.955	80.005	19.995	103.187	20.124	-1.889	0.454
1112.000	636.943	80.007	19.994	103.192	20.124	-1.936	0.489
1120.000	640.833	80.008	19.994	103.180	20.127	-2.122	0.480
1128.000	644.620	80.004	19.994	103.182	20.129	-2.238	0.490
1136.001	648.420	80.007	19.994	103.177	20.129	-2.262	0.467
1144.000	652.247	80.006	19.994	103.192	20.136	-2.667	0.498
1152.001	656.157	80.006	19.995	103.185	20.135	-2.646	0.512
1160.000	660.043	80.004	19.995	103.182	20.129	-2.206	0.483
1168.000	663.904	80.007	19.994	103.192	20.135	-2.631	0.465
1176.000	667.876	80.005	19.994	103.183	20.138	-2.830	0.527
1184.000	671.731	80.005	19.995	103.202	20.139	-2.877	0.433
1192.000	675.749	80.007	19.995	103.182	20.137	-2.752	0.495
1200.000	679.754	80.007	19.994	103.184	20.139	-2.919	0.487
1208.000	683.705	80.006	19.993	103.197	20.137	-2.772	0.500
1216.000	687.679	80.004	19.994	103.189	20.143	-3.126	0.486
1224.000	691.701	80.006	19.994	103.186	20.147	-3.394	0.494
1232.000	695.707	80.006	19.994	103.184	20.147	-3.425	0.539
1240.000	699.735	80.006	19.994	103.181	20.150	-3.649	0.506
1248.000	703.829	80.006	19.994	103.178	20.154	-3.862	0.544
1256.000	707.840	80.007	19.995	103.175	20.155	-3.966	0.488
1264.000	711.935	80.007	19.995	103.173	20.154	-3.906	0.527
1272.000	716.017	80.007	19.994	103.171	20.160	-4.262	0.552
1280.000	720.071	80.007	19.995	103.165	20.163	-4.479	0.512
1288.000	724.283	80.004	19.994	103.173	20.159	-4.179	0.543
1296.001	728.405	80.006	19.994	103.175	20.161	-4.356	0.514
1304.001	732.395	80.005	19.993	103.170	20.163	-4.481	0.524
1312.000	736.407	80.005	19.994	103.168	20.163	-4.480	0.496
1320.000	740.401	80.005	19.994	103.166	20.169	-4.839	0.480
1326.500	743.626	80.006	19.993	103.156	20.168	-4.832	0.474