Folder: fsri_materials_database/01_Data/Triexta_Carpet_High_Pile/STA/N2/10K_min (part 2)

File: Triexta_Carpet_High_Pile_STA_N2_10KData_220110_R3.csv
##Temp./Â°C,Time/min,Mass loss(subtr.2)/mg,DSC(subtr.2)/(mW/mg),Sensit./(uV/mW)
49.433,10.01,-0.00614,-0.00597761,1.07446
52.933,11.36237,-0.003892585,0.09578457,1.07421
56.433,11.84184,-0.006062366,0.13999,1.07392
59.933,12.2548,-0.007175988,0.15849,1.07361
63.433,12.64579,-0.006023955,0.16901,1.07327
66.933,13.0262,-0.005945335,0.17242,1.0729
70.433,13.40196,-0.00661774,0.17427,1.07251
73.933,13.77225,-0.00745225,0.18069,1.07208
77.433,14.1378,-0.009077589,0.18868,1.07163
80.933,14.50116,-0.00878374,0.19654,1.07114
84.433,14.85943,-0.008438499,0.19838,1.07063
87.933,15.21335,-0.01008903,0.20661,1.07009
91.433,15.56415,-0.01007281,0.20898,1.06953
94.933,15.9131,-0.0116421,0.21042,1.06893
98.433,16.25921,-0.01338284,0.21588,1.06831
101.933,16.60435,-0.01271998,0.22121,1.06766
105.433,16.94816,-0.01589644,0.22664,1.06698
108.933,17.29203,-0.01556964,0.22807,1.06627
112.433,17.63482,-0.01196565,0.23444,1.06554
115.933,17.97718,-0.01458002,0.23674,1.06477
119.433,18.3196,-0.01590047,0.24417,1.06398
122.933,18.66113,-0.01985368,0.24816,1.06316
126.433,19.0027,-0.01699999,0.25259,1.06232
129.933,19.3426,-0.01831,0.25686,1.06145
133.433,19.68246,-0.01896763,0.26151,1.06055
136.933,20.0202,-0.02062,0.26855,1.05962
140.433,20.3594,-0.022311,0.2722,1.05867
143.933,20.69758,-0.02238484,0.27845,1.05769
147.433,21.03527,-0.02427766,0.28424,1.05668
150.933,21.372,-0.0228996,0.29563,1.05565
154.433,21.70877,-0.02492218,0.30586,1.05458
157.933,22.04585,-0.02621002,0.3168,1.0535
161.433,22.3825,-0.02688717,0.33467,1.05238
164.933,22.71869,-0.02752968,0.35328,1.05124
168.433,23.05511,-0.03109229,0.36146,1.05008
171.933,23.39118,-0.03267396,0.35172,1.04888
175.433,23.72691,-0.03300959,0.34777,1.04767
178.933,24.06289,-0.03563975,0.3551,1.04642
182.433,24.39757,-0.03762476,0.36336,1.04515
185.933,24.73347,-0.03960026,0.37495,1.04386
189.433,25.06925,-0.03986963,0.38893,1.04254
192.933,25.405,-0.04387001,0.40432,1.04119
196.433,25.7405,-0.0468295,0.42381,1.03982
199.933,26.07589,-0.04958,0.44602,1.03842
203.433,26.41135,-0.0518719,0.46813,1.037
206.933,26.7471,-0.05725451,0.50397,1.03556
210.433,27.083,-0.06061188,0.55049,1.03408
213.933,27.41811,-0.06267633,0.63501,1.03259
217.433,27.753,-0.06668298,0.66343,1.03107
220.933,28.08826,-0.07468937,0.68967,1.02952
224.433,28.4236,-0.07909795,0.83253,1.02796
227.933,28.75974,-0.08270416,0.85959,1.02636
231.433,29.09457,-0.0902902,0.83476,1.02475
234.933,29.42942,-0.10123,0.868,1.02311
238.433,29.76537,-0.11487,0.95498,1.02144
241.933,30.10085,-0.12319,1.07144,1.01976
245.433,30.43709,-0.13943,1.21308,1.01805
248.933,30.7736,-0.15669,1.36503,1.01631
252.433,31.1096,-0.17502,1.41684,1.01456
255.933,31.44544,-0.19227,1.41409,1.01278
259.433,31.7803,-0.21289,1.36198,1.01098
262.933,32.11405,-0.23033,1.21077,1.00915
266.433,32.44683,-0.23934,0.94469,1.00731
269.933,32.77874,-0.2521,0.68337,1.00544
273.433,33.1105,-0.25742,0.5381,1.00355
276.933,33.4437,-0.26138,0.46536,1.00163
280.433,33.77742,-0.26395,0.42945,0.9997
283.933,34.11139,-0.26575,0.40964,0.99774
287.433,34.4458,-0.26923,0.39328,0.99576
290.933,34.7815,-0.27487,0.38907,0.99376
294.433,35.1171,-0.27562,0.38482,0.99174
297.933,35.45279,-0.27783,0.37958,0.9897
301.433,35.7883,-0.28112,0.37575,0.98764
304.933,36.12421,-0.28449,0.37516,0.98556
308.433,36.46021,-0.28452,0.37524,0.98346
311.933,36.79635,-0.28803,0.37054,0.98134
315.433,37.13328,-0.29012,0.37135,0.97919
318.933,37.47052,-0.2956,0.37136,0.97703
322.433,37.80747,-0.29938,0.36964,0.97485
325.933,38.14543,-0.30317,0.36783,0.97265
329.433,38.48321,-0.30501,0.37079,0.97042
332.933,38.82051,-0.31172,0.37117,0.96818
336.433,39.15872,-0.31675,0.37599,0.96592
339.933,39.49718,-0.32247,0.37607,0.96365
343.433,39.83529,-0.32771,0.38002,0.96135
346.933,40.17418,-0.33419,0.38007,0.95903
350.433,40.51303,-0.34562,0.3855,0.9567
353.933,40.85217,-0.35571,0.3924,0.95435
357.433,41.19061,-0.36731,0.40382,0.95198
360.933,41.53102,-0.38466,0.41583,0.94959
364.433,41.87066,-0.4044,0.43238,0.94719
367.933,42.21013,-0.42757,0.45092,0.94476
371.433,42.55008,-0.45685,0.47463,0.94233
374.933,42.89011,-0.49677,0.49533,0.93987
378.433,43.23102,-0.54156,0.52917,0.9374
381.933,43.5727,-0.59854,0.56675,0.93491
385.433,43.91405,-0.66663,0.60782,0.9324
388.933,44.25586,-0.74971,0.65166,0.92988
392.433,44.59782,-0.84274,0.69927,0.92734
395.933,44.94063,-0.95363,0.74849,0.92478
399.433,45.28286,-1.07315,0.78921,0.92221
402.933,45.62471,-1.20391,0.81372,0.91963
406.433,45.9656,-1.3378,0.81055,0.91703
409.933,46.30707,-1.47229,0.77731,0.91441
413.433,46.64867,-1.60248,0.70776,0.91178
416.933,46.991,-1.72165,0.63337,0.90913
420.433,47.33297,-1.82487,0.568,0.90647
423.933,47.67521,-1.91532,0.51986,0.9038
427.433,48.01717,-1.9932,0.47805,0.90111
430.933,48.3598,-2.05623,0.44651,0.89841
434.433,48.70247,-2.11233,0.42559,0.89569
437.933,49.04606,-2.15546,0.402,0.89296
441.433,49.38984,-2.19073,0.37276,0.89022
444.933,49.7338,-2.22394,0.35421,0.88746
448.433,50.07781,-2.25676,0.34329,0.88469
451.933,50.42103,-2.28886,0.33354,0.88191
455.433,50.76487,-2.31948,0.32289,0.87911
458.933,51.10918,-2.34724,0.30663,0.87631
462.433,51.45341,-2.36995,0.27658,0.87349
465.933,51.7978,-2.38827,0.23828,0.87065
469.433,52.1432,-2.3998,0.19921,0.86781
472.933,52.48816,-2.40786,0.16614,0.86496
476.433,52.8336,-2.41337,0.14906,0.86209
479.933,53.1786,-2.41848,0.13483,0.85921
483.433,53.5248,-2.42377,0.12611,0.85632
486.933,53.87072,-2.42909,0.12091,0.85342
490.433,54.2168,-2.43087,0.11661,0.85051
493.933,54.56279,-2.43579,0.1157,0.84759
497.433,54.90829,-2.43995,0.11214,0.84466
500.933,55.2547,-2.44247,0.10829,0.84172
504.433,55.60196,-2.44633,0.10393,0.83877
507.933,55.9484,-2.44909,0.09972627,0.83581
511.433,56.29555,-2.45422,0.10069,0.83284
514.933,56.6423,-2.46088,0.10033,0.82986
518.433,56.98915,-2.46393,0.09349986,0.82687
521.933,57.3367,-2.4665,0.09126541,0.82387
525.433,57.6845,-2.47045,0.09100542,0.82086
528.933,58.03224,-2.47495,0.08711304,0.81785
532.433,58.37995,-2.47989,0.08241244,0.81482
535.933,58.728,-2.48538,0.08210187,0.81179
539.433,59.07586,-2.49273,0.08328853,0.80875
542.933,59.42417,-2.4957,0.07961172,0.8057
546.433,59.773,-2.50251,0.07732541,0.80265
549.933,60.1214,-2.50784,0.07580509,0.79959
553.433,60.4709,-2.51318,0.07507928,0.79652
556.933,60.82,-2.5219,0.07800205,0.79344
560.433,61.16893,-2.53095,0.08241176,0.79035
563.933,61.518,-2.53406,0.08071892,0.78726
567.433,61.8675,-2.54285,0.0826797,0.78417
570.933,62.2173,-2.54963,0.08133301,0.78106
574.433,62.5679,-2.55514,0.09066529,0.77795
577.933,62.91842,-2.56708,0.10249,0.77484
581.433,63.26886,-2.57269,0.12738,0.77172
584.933,63.6189,-2.59505,0.16287,0.76859
588.433,63.96969,-2.60678,0.17808,0.76546
591.933,64.3201,-2.62687,0.17183,0.76232
595.433,64.67126,-2.64998,0.16344,0.75918
598.933,65.0224,-2.67408,0.14828,0.75603
602.433,65.37309,-2.69255,0.1252,0.75288
605.933,65.72423,-2.70859,0.09755676,0.74972
609.433,66.07606,-2.72249,0.08545275,0.74656
612.933,66.42653,-2.72339,0.0850385,0.7434
616.433,66.77716,-2.72913,0.09016709,0.74023
619.933,67.12823,-2.73529,0.10361,0.73706
623.433,67.47843,-2.73293,0.11372,0.73388
626.933,67.82916,-2.73897,0.13114,0.7307
630.433,68.18038,-2.74905,0.14718,0.72752
633.933,68.53214,-2.74572,0.15918,0.72433
637.433,68.88329,-2.75183,0.17623,0.72114
640.933,69.23523,-2.75864,0.19143,0.71795
644.433,69.58704,-2.76135,0.21094,0.71476
647.933,69.9398,-2.76725,0.23413,0.71156
651.433,70.2927,-2.77275,0.25507,0.70836
654.933,70.64526,-2.77683,0.28048,0.70516
658.433,70.99706,-2.7866,0.30522,0.70196
661.933,71.3493,-2.79262,0.3375,0.69876
665.433,71.70205,-2.79984,0.36436,0.69555
668.933,72.05537,-2.80655,0.39433,0.69234
672.433,72.40733,-2.81805,0.42148,0.68914
675.933,72.7593,-2.82676,0.43866,0.68593
679.433,73.11205,-2.84138,0.43747,0.68272
682.933,73.46518,-2.84243,0.40734,0.67951
686.433,73.81791,-2.85426,0.33843,0.67629
689.933,74.1701,-2.85863,0.17229,0.67308
693.433,74.522,-2.86401,0.05285748,0.66987
696.933,74.8746,-2.86497,0.02777932,0.66666
700.433,75.2272,-2.86303,0.01415911,0.66345
703.933,75.58031,-2.86555,0.001769994,0.66023
707.433,75.9329,-2.86885,0.0009917232,0.65702
710.933,76.28595,-2.86796,-0.00302567,0.65381
714.433,76.6395,-2.86824,-0.008966301,0.6506
717.933,76.99299,-2.86852,-0.009652373,0.64739
721.433,77.34722,-2.8719,-0.01773497,0.64418
724.933,77.70226,-2.87024,-0.01616912,0.64098
728.433,78.05721,-2.86983,-0.02066878,0.63777
731.933,78.41166,-2.87629,-0.02234845,0.63457
735.433,78.76504,-2.87122,-0.02984016,0.63136
738.933,79.11907,-2.87432,-0.03327873,0.62816
742.433,79.4729,-2.87333,-0.03273222,0.62496
745.933,79.82688,-2.87234,-0.0357836,0.62177
749.433,80.18115,-2.87695,-0.03661894,0.61857
752.933,80.53585,-2.8744,-0.04212644,0.61538
756.433,80.89115,-2.87433,-0.04796521,0.61219
759.933,81.24566,-2.87924,-0.050942,0.609
763.433,81.60038,-2.87882,-0.04943096,0.60582
766.933,81.95531,-2.87537,-0.0538021,0.60263
770.433,82.31,-2.88134,-0.0519517,0.59946
773.933,82.6644,-2.88069,-0.05496384,0.59628
777.433,83.0185,-2.87739,-0.05685513,0.59311
780.933,83.37331,-2.88184,-0.06568782,0.58994
784.433,83.72798,-2.88292,-0.07021295,0.58677
787.933,84.0826,-2.88334,-0.0802675,0.58361
791.433,84.4378,-2.88342,-0.0813455,0.58045
794.933,84.7934,-2.88363,-0.08568211,0.5773
798.433,85.14887,-2.88158,-0.09985365,0.57415
801.933,85.5048,-2.88643,-0.10196,0.571
805.433,85.86065,-2.88129,-0.1033,0.56786
808.933,86.21627,-2.89033,-0.10226,0.56472
812.433,86.57177,-2.88595,-0.10636,0.56159
815.933,86.92777,-2.88228,-0.10779,0.55846
819.433,87.28366,-2.89055,-0.10997,0.55534
822.933,87.63928,-2.88794,-0.11428,0.55222
826.433,87.9954,-2.88974,-0.11152,0.54911
829.933,88.3516,-2.89354,-0.11306,0.546
833.433,88.7068,-2.88361,-0.1142,0.5429
836.933,89.06144,-2.89568,-0.11639,0.5398
840.433,89.4164,-2.8898,-0.1204,0.53671
843.933,89.77271,-2.8954,-0.11869,0.53362
846.133,89.99753,-2.8886,-0.11631,0.53169