Folder: fsri_materials_database/01_Data/Triexta_Carpet_High_Pile/STA/N2/10K_min

Note: 01_Data/README.md
# Materials and Products Database
## 01_Data

Raw data generated from each apparatus are included here in plain-text format. The data is organized first by material, next by the short name of test apparatus used, and where applicable additional filtering by test settings.

### material.json

Each material directory contains a json file of the same name as the material. This file links the data stored in the repository as well as data and graphs produced by the accompanying scripts (__02_Scripts__) to the respective landing page for the material on the front-end website.

File: Triexta_Carpet_High_Pile_STA_N2_10KData_220110_R1.csv
##Temp./Â°C,Time/min,Mass loss(subtr.2)/mg,DSC(subtr.2)/(mW/mg),Sensit./(uV/mW)
49.442,10.01,0.02765,0.004292604,1.07446
52.442,11.28481,0.03303572,0.12525,1.07424
55.442,11.71909,0.02839079,0.1724,1.07401
58.442,12.08862,0.02954899,0.20014,1.07375
61.442,12.4321,0.03093818,0.21644,1.07347
64.442,12.76367,0.0349733,0.21894,1.07317
67.442,13.08952,0.03019834,0.22572,1.07285
70.442,13.4119,0.03100958,0.23124,1.07251
73.442,13.73015,0.03313,0.23696,1.07214
76.442,14.0455,0.03165815,0.24526,1.07176
79.442,14.35723,0.0340638,0.25036,1.07135
82.442,14.6664,0.02983963,0.25766,1.07093
85.442,14.97127,0.0381134,0.26243,1.07048
88.442,15.27506,0.03018018,0.26838,1.07001
91.442,15.57659,0.02885012,0.27305,1.06953
94.442,15.87684,0.0286301,0.27467,1.06902
97.442,16.1746,0.03445025,0.27953,1.06849
100.442,16.47149,0.03181966,0.28416,1.06794
103.442,16.7677,0.03434398,0.29153,1.06737
106.442,17.06258,0.03228331,0.29843,1.06678
109.442,17.3585,0.03027881,0.30344,1.06616
112.442,17.65277,0.03557493,0.30949,1.06553
115.442,17.94655,0.02701999,0.31452,1.06488
118.442,18.24015,0.03138,0.31725,1.06421
121.442,18.53301,0.03410985,0.32178,1.06352
124.442,18.8262,0.0270779,0.3301,1.0628
127.442,19.1182,0.02968535,0.3359,1.06207
130.442,19.40985,0.02973017,0.33824,1.06132
133.442,19.69965,0.03238165,0.34262,1.06055
136.442,19.9909,0.02513259,0.34691,1.05975
139.442,20.28058,0.03389667,0.35304,1.05894
142.442,20.56985,0.02720942,0.35723,1.05811
145.442,20.85961,0.02784466,0.363,1.05726
148.442,21.1483,0.02721081,0.36709,1.05638
151.442,21.43746,0.0245737,0.37385,1.05549
154.442,21.72618,0.02852,0.38282,1.05458
157.442,22.01339,0.02423709,0.3958,1.05365
160.442,22.303,0.02684583,0.40712,1.0527
163.442,22.5914,0.02402166,0.42621,1.05173
166.442,22.87956,0.02479043,0.44177,1.05074
169.442,23.16747,0.01986221,0.43708,1.04974
172.442,23.45531,0.02112342,0.42773,1.04871
175.442,23.7431,0.01985319,0.42528,1.04766
178.442,24.0304,0.02117185,0.43079,1.0466
181.442,24.31718,0.01844886,0.43786,1.04552
184.442,24.60515,0.0146001,0.45099,1.04441
187.442,24.89134,0.01465812,0.46068,1.04329
190.442,25.17868,0.01569,0.47433,1.04215
193.442,25.46612,0.0132556,0.48828,1.04099
196.442,25.75465,0.01130004,0.50467,1.03982
199.442,26.0423,0.007349994,0.52335,1.03862
202.442,26.3286,0.00603853,0.54321,1.03741
205.442,26.61625,0.00260354,0.57024,1.03617
208.442,26.9033,0.001106044,0.6002,1.03492
211.442,27.19125,-0.001429921,0.65113,1.03366
214.442,27.478,-0.005357636,0.7279,1.03237
217.442,27.7654,-0.00932043,0.74553,1.03106
220.442,28.05214,-0.01203818,0.76109,1.02974
223.442,28.33946,-0.01852872,0.86437,1.0284
226.442,28.62715,-0.02117,0.94879,1.02705
229.442,28.91415,-0.0266569,0.89639,1.02567
232.442,29.2016,-0.03224675,0.88617,1.02428
235.442,29.489,-0.04135136,0.91497,1.02287
238.442,29.77641,-0.04598405,0.98858,1.02144
241.442,30.06425,-0.05914341,1.08879,1.02
244.442,30.35213,-0.07087066,1.21168,1.01853
247.442,30.64081,-0.08119117,1.3545,1.01705
250.442,30.9296,-0.09696331,1.46213,1.01556
253.442,31.21847,-0.10998,1.49125,1.01405
256.442,31.50618,-0.12757,1.50024,1.01252
259.442,31.7938,-0.14317,1.48033,1.01097
262.442,32.0801,-0.16014,1.39337,1.00941
265.442,32.36616,-0.17143,1.21886,1.00783
268.442,32.6509,-0.18373,0.99472,1.00623
271.442,32.93521,-0.1898,0.80086,1.00462
274.442,33.2196,-0.19326,0.6782,1.003
277.442,33.50466,-0.19853,0.60114,1.00135
280.442,33.78992,-0.2038,0.5546,0.99969
283.442,34.07567,-0.2025,0.52234,0.99802
286.442,34.36169,-0.20899,0.5026,0.99633
289.442,34.6483,-0.21529,0.49016,0.99462
292.442,34.9356,-0.21198,0.48033,0.9929
295.442,35.22306,-0.21442,0.47386,0.99116
298.442,35.51119,-0.22145,0.46986,0.98941
301.442,35.79908,-0.21959,0.46612,0.98764
304.442,36.08742,-0.222,0.46327,0.98585
307.442,36.37535,-0.22226,0.46126,0.98406
310.442,36.66471,-0.22683,0.46125,0.98224
313.442,36.95316,-0.22278,0.46283,0.98041
316.442,37.24173,-0.23333,0.46389,0.97857
319.442,37.5304,-0.22967,0.46417,0.97671
322.442,37.81893,-0.23862,0.46717,0.97484
325.442,38.107,-0.24011,0.46636,0.97296
328.442,38.39529,-0.24246,0.47102,0.97106
331.442,38.68458,-0.24424,0.47061,0.96914
334.442,38.9737,-0.25041,0.47116,0.96721
337.442,39.26255,-0.25537,0.47125,0.96527
340.442,39.55322,-0.25357,0.47042,0.96331
343.442,39.84341,-0.26171,0.46942,0.96134
346.442,40.13475,-0.26516,0.47009,0.95936
349.442,40.42629,-0.28836,0.475,0.95736
352.442,40.71761,-0.28056,0.47918,0.95535
355.442,41.0084,-0.2903,0.48609,0.95333
358.442,41.30017,-0.30227,0.49716,0.95129
361.442,41.5912,-0.31799,0.50694,0.94924
364.442,41.88245,-0.33692,0.52193,0.94718
367.442,42.17411,-0.35267,0.5377,0.94511
370.442,42.46501,-0.37621,0.5522,0.94302
373.442,42.7573,-0.40954,0.57465,0.94092
376.442,43.04906,-0.44381,0.60218,0.9388
379.442,43.34122,-0.48639,0.62951,0.93668
382.442,43.6338,-0.54045,0.66648,0.93454
385.442,43.92666,-0.59272,0.70685,0.93239
388.442,44.21973,-0.6633,0.747,0.93023
391.442,44.5127,-0.74478,0.7962,0.92806
394.442,44.80573,-0.82896,0.84227,0.92587
397.442,45.0986,-0.92927,0.88301,0.92368
400.442,45.39147,-1.03703,0.9168,0.92147
403.442,45.6847,-1.14937,0.93057,0.91925
406.442,45.97853,-1.26649,0.91985,0.91702
409.442,46.2725,-1.38567,0.87971,0.91478
412.442,46.56629,-1.50136,0.81155,0.91253
415.442,46.8596,-1.60585,0.74758,0.91026
418.442,47.15307,-1.69606,0.69404,0.90799
421.442,47.44628,-1.78202,0.64404,0.9057
424.442,47.73937,-1.85943,0.59768,0.90341
427.442,48.03322,-1.92205,0.56465,0.9011
430.442,48.32687,-1.97987,0.53589,0.89879
433.442,48.62162,-2.03276,0.51867,0.89646
436.442,48.9161,-2.07561,0.49968,0.89413
439.442,49.21043,-2.10831,0.47883,0.89178
442.442,49.50482,-2.14342,0.45738,0.88942
445.442,49.79954,-2.17085,0.44239,0.88706
448.442,50.09369,-2.19643,0.42672,0.88468
451.442,50.38843,-2.22595,0.42066,0.8823
454.442,50.6826,-2.25147,0.40703,0.87991
457.442,50.97655,-2.28077,0.39713,0.8775
460.442,51.2712,-2.3042,0.38718,0.87509
463.442,51.56619,-2.32107,0.35627,0.87267
466.442,51.86248,-2.33366,0.32216,0.87024
469.442,52.15817,-2.34899,0.28964,0.8678
472.442,52.4543,-2.35671,0.26128,0.86536
475.442,52.7503,-2.36045,0.24053,0.8629
478.442,53.0463,-2.36855,0.22709,0.86044
481.442,53.3428,-2.37391,0.21762,0.85797
484.442,53.6401,-2.37656,0.21095,0.85549
487.442,53.9369,-2.3783,0.21079,0.853
490.442,54.2339,-2.38186,0.20181,0.8505
493.442,54.53114,-2.38502,0.19924,0.848
496.442,54.82826,-2.39153,0.19691,0.84549
499.442,55.12539,-2.39159,0.19373,0.84297
502.442,55.4223,-2.39586,0.19324,0.84045
505.442,55.71955,-2.39826,0.19313,0.83791
508.442,56.01673,-2.40333,0.19112,0.83537
511.442,56.31465,-2.40889,0.1923,0.83283
514.442,56.61226,-2.41007,0.18947,0.83027
517.442,56.90964,-2.41374,0.1883,0.82771
520.442,57.20714,-2.41391,0.18369,0.82515
523.442,57.50516,-2.42053,0.18434,0.82257
526.442,57.8033,-2.42274,0.18487,0.81999
529.442,58.10182,-2.42669,0.18306,0.81741
532.442,58.4003,-2.42943,0.18254,0.81481
535.442,58.6993,-2.43535,0.18267,0.81222
538.442,58.9983,-2.43838,0.18299,0.80961
541.442,59.297,-2.44468,0.18416,0.807
544.442,59.59535,-2.44995,0.18555,0.80439
547.442,59.8951,-2.45518,0.18862,0.80177
550.442,60.195,-2.46359,0.19397,0.79914
553.442,60.49505,-2.46497,0.19443,0.79651
556.442,60.7951,-2.47236,0.19747,0.79387
559.442,61.09471,-2.47778,0.19856,0.79123
562.442,61.39467,-2.48327,0.20387,0.78858
565.442,61.694,-2.49137,0.20866,0.78593
568.442,61.9927,-2.49591,0.21418,0.78327
571.442,62.29255,-2.50302,0.22093,0.78061
574.442,62.5924,-2.51358,0.22712,0.77795
577.442,62.8926,-2.51913,0.23793,0.77528
580.442,63.19251,-2.52817,0.25679,0.7726
583.442,63.4924,-2.53495,0.28119,0.76992
586.442,63.7927,-2.54916,0.3226,0.76724
589.442,64.0933,-2.56667,0.33641,0.76455
592.442,64.3942,-2.58108,0.32762,0.76186
595.442,64.69428,-2.59527,0.32456,0.75917
598.442,64.99452,-2.61971,0.32002,0.75647
601.442,65.29575,-2.63957,0.30752,0.75377
604.442,65.59645,-2.65567,0.28545,0.75107
607.442,65.89706,-2.67442,0.26472,0.74836
610.442,66.19819,-2.67994,0.24457,0.74565
613.442,66.49888,-2.68458,0.21846,0.74294
616.442,66.7996,-2.68815,0.21266,0.74022
619.442,67.10088,-2.69894,0.22013,0.7375
622.442,67.40175,-2.69777,0.23419,0.73478
625.442,67.70281,-2.70196,0.25221,0.73206
628.442,68.00426,-2.69478,0.27268,0.72933
631.442,68.30596,-2.71051,0.29112,0.7266
634.442,68.60804,-2.71318,0.30426,0.72387
637.442,68.91003,-2.71528,0.32031,0.72114
640.442,69.21217,-2.71994,0.33844,0.7184
643.442,69.51446,-2.71729,0.3474,0.71566
646.442,69.8178,-2.72951,0.36323,0.71292
649.442,70.1207,-2.73006,0.37769,0.71018
652.442,70.42255,-2.73328,0.39785,0.70744
655.442,70.7252,-2.73914,0.42265,0.7047
658.442,71.02767,-2.74592,0.44667,0.70195
661.442,71.33,-2.75136,0.4656,0.69921
664.442,71.63181,-2.7583,0.49602,0.69646
667.442,71.93409,-2.76258,0.52006,0.69371
670.442,72.23568,-2.77151,0.55024,0.69096
673.442,72.537,-2.77584,0.58807,0.68821
676.442,72.8386,-2.78225,0.61822,0.68546
679.442,73.14169,-2.79522,0.63616,0.68271
682.442,73.4448,-2.79918,0.63777,0.67996
685.442,73.74813,-2.80873,0.61325,0.6772
688.442,74.05131,-2.82285,0.53835,0.67445
691.442,74.35398,-2.82661,0.42309,0.6717
694.442,74.65581,-2.82859,0.22912,0.66894
697.442,74.95875,-2.82684,0.18429,0.66619
700.442,75.2611,-2.83076,0.17224,0.66344
703.442,75.5641,-2.83228,0.16697,0.66069
706.442,75.86716,-2.83273,0.16557,0.65793
709.442,76.17007,-2.83341,0.15983,0.65518
712.442,76.47329,-2.8344,0.15708,0.65243
715.442,76.77736,-2.83237,0.15387,0.64968
718.442,77.08064,-2.83165,0.14934,0.64693
721.442,77.38494,-2.8355,0.15082,0.64418
724.442,77.68889,-2.83505,0.14802,0.64143
727.442,77.9926,-2.8361,0.14733,0.63868
730.442,78.2963,-2.83441,0.14794,0.63593
733.442,78.59961,-2.83813,0.15178,0.63319
736.442,78.90375,-2.83824,0.14759,0.63044
739.442,79.2072,-2.83791,0.14309,0.6277
742.442,79.51017,-2.8369,0.14485,0.62496
745.442,79.81385,-2.84403,0.14474,0.62222
747.242,79.9936,-2.84273,0.14382,0.62057

File: Triexta_Carpet_High_Pile_STA_N2_10KData_220110_R2.csv
##Temp./Â°C,Time/min,Mass loss(subtr.2)/mg,DSC(subtr.2)/(mW/mg),Sensit./(uV/mW)
49.306,10.00917,-0.03928,0.000706529,1.07447
52.606,11.3362,-0.04405742,0.1014,1.07423
55.906,11.7979,-0.04447216,0.14724,1.07397
59.206,12.1949,-0.04611973,0.16614,1.07368
62.506,12.56895,-0.04737687,0.17328,1.07337
65.806,12.93084,-0.05112027,0.17492,1.07303
69.106,13.2865,-0.05155873,0.18071,1.07266
72.406,13.6367,-0.05231194,0.18498,1.07227
75.706,13.9831,-0.05266052,0.1918,1.07185
79.006,14.32695,-0.05376816,0.19621,1.07141
82.306,14.6676,-0.05736859,0.20128,1.07095
85.606,15.0059,-0.0562654,0.20397,1.07046
88.906,15.3398,-0.05736814,0.21199,1.06994
92.206,15.67135,-0.06057175,0.21406,1.0694
95.506,16.00001,-0.05960956,0.21698,1.06883
98.806,16.32793,-0.06177063,0.21951,1.06824
102.106,16.65479,-0.06570663,0.22327,1.06762
105.406,16.98111,-0.06304493,0.22733,1.06698
108.706,17.30601,-0.06766352,0.23502,1.06632
112.006,17.6308,-0.06768,0.23765,1.06563
115.306,17.95407,-0.0676669,0.24188,1.06491
118.606,18.277,-0.06505323,0.24414,1.06417
121.906,18.59916,-0.06681,0.24647,1.06341
125.206,18.9205,-0.07340277,0.25237,1.06262
128.506,19.24129,-0.07339001,0.2573,1.06181
131.806,19.56229,-0.07569628,0.26138,1.06097
135.106,19.88212,-0.07339654,0.26591,1.06011
138.406,20.20104,-0.07675497,0.26941,1.05922
141.706,20.51865,-0.07557805,0.27576,1.05831
145.006,20.8366,-0.0768935,0.27794,1.05738
148.306,21.15407,-0.07926093,0.28566,1.05642
151.606,21.47168,-0.08180761,0.29225,1.05544
154.906,21.7895,-0.08183003,0.30279,1.05444
158.206,22.10656,-0.08446,0.31406,1.05341
161.506,22.42334,-0.08717862,0.33234,1.05236
164.806,22.7407,-0.08762414,0.34948,1.05129
168.106,23.0577,-0.09051474,0.35631,1.05019
171.406,23.3741,-0.09223831,0.34299,1.04907
174.706,23.69032,-0.09357,0.33651,1.04792
178.006,24.0069,-0.09719023,0.34178,1.04675
181.306,24.3226,-0.09609002,0.34818,1.04556
184.606,24.63922,-0.10003,0.35873,1.04435
187.906,24.95506,-0.10069,0.37278,1.04312
191.206,25.27081,-0.10269,0.38688,1.04186
194.506,25.58662,-0.10666,0.40391,1.04058
197.806,25.90159,-0.11056,0.42498,1.03927
201.106,26.21663,-0.11268,0.44606,1.03795
204.406,26.5315,-0.11583,0.47114,1.0366
207.706,26.84699,-0.12109,0.50225,1.03523
211.006,27.1628,-0.12246,0.55206,1.03384
214.306,27.4794,-0.12702,0.63147,1.03243
217.606,27.7956,-0.13401,0.65082,1.03099
220.906,28.1108,-0.14022,0.67107,1.02954
224.206,28.42616,-0.144,0.80635,1.02806
227.506,28.7424,-0.14611,0.83364,1.02656
230.806,29.0584,-0.15276,0.79117,1.02504
234.106,29.3742,-0.16398,0.80828,1.0235
237.406,29.6909,-0.16919,0.86863,1.02193
240.706,30.0083,-0.18416,0.97511,1.02035
244.006,30.32627,-0.19547,1.10177,1.01875
247.306,30.64463,-0.21159,1.25373,1.01712
250.606,30.9627,-0.22945,1.36191,1.01548
253.906,31.2808,-0.24576,1.38692,1.01381
257.206,31.5976,-0.26302,1.39028,1.01213
260.506,31.91248,-0.28425,1.34079,1.01042
263.806,32.22602,-0.30011,1.19733,1.00869
267.106,32.53867,-0.31146,0.94507,1.00695
270.406,32.8505,-0.31767,0.70181,1.00518
273.706,33.1624,-0.32674,0.54937,1.0034
277.006,33.47572,-0.33132,0.46694,1.00159
280.306,33.79027,-0.33671,0.42272,0.99977
283.606,34.10557,-0.33816,0.39681,0.99792
286.906,34.4214,-0.33937,0.38083,0.99606
290.206,34.73799,-0.34067,0.37255,0.99418
293.506,35.05487,-0.34634,0.36906,0.99228
296.806,35.37082,-0.34827,0.36426,0.99036
300.106,35.68672,-0.3509,0.36305,0.98843
303.406,36.00255,-0.35484,0.36009,0.98647
306.706,36.31882,-0.35714,0.35964,0.9845
310.006,36.63552,-0.35876,0.35484,0.98251
313.306,36.9529,-0.36253,0.35575,0.9805
316.606,37.2708,-0.36674,0.35227,0.97847
319.906,37.5891,-0.36867,0.35123,0.97643
323.206,37.90868,-0.36987,0.34768,0.97436
326.506,38.22782,-0.37669,0.34844,0.97228
329.806,38.54733,-0.37809,0.35108,0.97019
333.106,38.86546,-0.38318,0.35601,0.96807
336.406,39.18355,-0.38605,0.35878,0.96594
339.706,39.50142,-0.39342,0.36387,0.96379
343.006,39.82077,-0.3975,0.36118,0.96163
346.306,40.13988,-0.40292,0.36156,0.95945
349.606,40.45961,-0.41511,0.36144,0.95725
352.906,40.7798,-0.42046,0.3629,0.95504
356.206,41.10092,-0.43305,0.36713,0.95281
359.506,41.42242,-0.44614,0.37737,0.95057
362.806,41.74484,-0.46398,0.38766,0.94831
366.106,42.0663,-0.48809,0.40509,0.94603
369.406,42.38728,-0.5103,0.42319,0.94374
372.706,42.7076,-0.54277,0.4446,0.94143
376.006,43.0283,-0.58239,0.4713,0.93911
379.306,43.3493,-0.62864,0.49899,0.93678
382.606,43.67066,-0.68799,0.53618,0.93442
385.906,43.99279,-0.75289,0.57559,0.93206
389.206,44.31544,-0.83519,0.61789,0.92968
392.506,44.6383,-0.92895,0.66374,0.92728
395.806,44.96155,-1.0359,0.71178,0.92488
399.106,45.2844,-1.15145,0.74732,0.92245
402.406,45.607,-1.2755,0.76947,0.92002
405.706,45.92972,-1.40552,0.76975,0.91757
409.006,46.25199,-1.53773,0.73577,0.9151
412.306,46.57403,-1.66695,0.67064,0.91263
415.606,46.8965,-1.78058,0.60244,0.91014
418.906,47.21873,-1.88634,0.54162,0.90764
422.206,47.54096,-1.98084,0.49026,0.90512
425.506,47.86274,-2.05713,0.44624,0.90259
428.806,48.18581,-2.12951,0.41405,0.90005
432.106,48.5081,-2.18652,0.39192,0.8975
435.406,48.83162,-2.23892,0.36729,0.89493
438.706,49.1554,-2.2849,0.34614,0.89236
442.006,49.47961,-2.31609,0.32196,0.88977
445.306,49.80404,-2.34932,0.30718,0.88717
448.606,50.12836,-2.38385,0.29409,0.88455
451.906,50.4529,-2.41382,0.2832,0.88193
455.206,50.7774,-2.4464,0.27044,0.8793
458.506,51.10263,-2.47201,0.25472,0.87665
461.806,51.4275,-2.49217,0.228,0.87399
465.106,51.75238,-2.51356,0.19309,0.87132
468.406,52.07748,-2.53031,0.15923,0.86865
471.706,52.40402,-2.53864,0.12675,0.86596
475.006,52.73024,-2.54657,0.10242,0.86326
478.306,53.05607,-2.54984,0.08574981,0.86055
481.606,53.38211,-2.55449,0.07796596,0.85783
484.906,53.70796,-2.55844,0.0667729,0.8551
488.206,54.03379,-2.56353,0.06890555,0.85236
491.506,54.36009,-2.5666,0.06418134,0.84962
494.806,54.6862,-2.57141,0.06155102,0.84686
498.106,55.01256,-2.57369,0.05762148,0.84409
501.406,55.33961,-2.5784,0.05368395,0.84132
504.706,55.66649,-2.58196,0.05149045,0.83854
508.006,55.9938,-2.58622,0.04940965,0.83574
511.306,56.32198,-2.59189,0.04921778,0.83294
514.606,56.6499,-2.59473,0.04324388,0.83013
517.906,56.9783,-2.59605,0.04591725,0.82732
521.206,57.30656,-2.59885,0.04525618,0.82449
524.506,57.63426,-2.6049,0.04598462,0.82166
527.806,57.9617,-2.60801,0.04194294,0.81882
531.106,58.29016,-2.61266,0.04289832,0.81597
534.406,58.61874,-2.61624,0.03469663,0.81311
537.706,58.9478,-2.62018,0.03283835,0.81025
541.006,59.2773,-2.62491,0.03378678,0.80738
544.306,59.607,-2.63149,0.02904615,0.80451
547.606,59.93584,-2.63872,0.03056526,0.80162
550.906,60.26492,-2.64816,0.0290928,0.79873
554.206,60.59421,-2.65078,0.02815658,0.79584
557.506,60.9224,-2.65737,0.03289275,0.79293
560.806,61.25166,-2.66277,0.02957828,0.79003
564.106,61.58,-2.66808,0.03488618,0.78711
567.406,61.9091,-2.6781,0.04017022,0.78419
570.706,62.23871,-2.68601,0.03938003,0.78126
574.006,62.568,-2.69399,0.05026189,0.77833
577.306,62.8972,-2.70452,0.06208194,0.7754
580.606,63.2269,-2.71278,0.07797163,0.77246
583.906,63.5572,-2.72433,0.1086,0.76951
587.206,63.8882,-2.73764,0.13971,0.76656
590.506,64.21876,-2.75738,0.14036,0.7636
593.806,64.54975,-2.77722,0.12949,0.76064
597.106,64.88036,-2.79701,0.12253,0.75768
600.406,65.21078,-2.81977,0.10885,0.75471
603.706,65.54097,-2.84163,0.08417616,0.75173
607.006,65.872,-2.85754,0.05680113,0.74876
610.306,66.20314,-2.86873,0.0277869,0.74577
613.606,66.53381,-2.87066,0.02041944,0.74279
616.906,66.86417,-2.87623,0.02767438,0.7398
620.206,67.19544,-2.87718,0.03468142,0.73681
623.506,67.52627,-2.88627,0.05169525,0.73381
626.806,67.8574,-2.88782,0.07088132,0.73082
630.106,68.18895,-2.89012,0.0821334,0.72782
633.406,68.52068,-2.89407,0.0912398,0.72481
636.706,68.8519,-2.89675,0.1043,0.72181
640.006,69.18423,-2.90244,0.12342,0.7188
643.306,69.51567,-2.90587,0.1385,0.71579
646.606,69.84737,-2.90988,0.15926,0.71277
649.906,70.17916,-2.91744,0.17996,0.70976
653.206,70.51123,-2.91963,0.19632,0.70674
656.506,70.8437,-2.92757,0.21981,0.70372
659.806,71.17668,-2.93589,0.24127,0.7007
663.106,71.50961,-2.94341,0.26129,0.69768
666.406,71.8418,-2.94733,0.28915,0.69466
669.706,72.1745,-2.95436,0.31999,0.69164
673.006,72.50684,-2.9636,0.35531,0.68861
676.306,72.84022,-2.97313,0.38624,0.68558
679.606,73.17305,-2.98243,0.39917,0.68256
682.906,73.5056,-2.9885,0.3859,0.67953
686.206,73.83807,-2.99992,0.33503,0.6765
689.506,74.17125,-3.00572,0.24226,0.67347
692.806,74.5043,-3.01104,0.04721779,0.67045
696.106,74.83763,-3.01319,-0.02622323,0.66742
699.406,75.17048,-3.01484,-0.03898983,0.66439
702.706,75.50365,-3.01615,-0.04536738,0.66136
706.006,75.83609,-3.01663,-0.04743189,0.65833
709.306,76.1687,-3.01647,-0.05503858,0.6553
712.606,76.5018,-3.01649,-0.05708259,0.65228
715.906,76.83426,-3.02175,-0.05978644,0.64925
719.206,77.1673,-3.01775,-0.05979958,0.64623
722.506,77.5,-3.01906,-0.06477095,0.6432
725.806,77.83327,-3.02141,-0.06926953,0.64018
729.106,78.16636,-3.02208,-0.06892468,0.63716
732.406,78.49954,-3.02141,-0.07328931,0.63413
735.706,78.8341,-3.02341,-0.0773838,0.63111
739.006,79.16924,-3.02405,-0.07616239,0.6281
742.306,79.50397,-3.02405,-0.0800296,0.62508
745.606,79.8392,-3.02273,-0.08481774,0.62207
748.906,80.17361,-3.02367,-0.08604332,0.61905
752.206,80.50717,-3.02503,-0.08206287,0.61604
755.506,80.84062,-3.02471,-0.08612624,0.61303
758.806,81.17485,-3.02931,-0.08880476,0.61003
762.106,81.50912,-3.02537,-0.09067721,0.60702
765.406,81.84354,-3.02807,-0.09557014,0.60402
768.706,82.17771,-3.02452,-0.09869207,0.60102
772.006,82.5124,-3.02669,-0.09284201,0.59803
775.306,82.8464,-3.02536,-0.08986976,0.59504
778.606,83.18051,-3.02518,-0.09406405,0.59204
781.906,83.51468,-3.02947,-0.09162816,0.58906
785.206,83.84869,-3.02811,-0.09564452,0.58607
788.506,84.18209,-3.02947,-0.0964755,0.58309
791.806,84.51658,-3.02946,-0.09746808,0.58012
795.106,84.85082,-3.02856,-0.09683211,0.57714
796.506,84.993,-3.02975,-0.09457481,0.57588