Folder: fsri_materials_database/01_Data/Triexta_Carpet_High_Pile/STA/N2/30K_min

Note: 01_Data/README.md
# Materials and Products Database
## 01_Data

Raw data generated from each apparatus are included here in plain-text format. The data is organized first by material, next by the short name of test apparatus used, and where applicable additional filtering by test settings.

### material.json

Each material directory contains a json file of the same name as the material. This file links the data stored in the repository as well as data and graphs produced by the accompanying scripts (__02_Scripts__) to the respective landing page for the material on the front-end website.

File: Triexta_Carpet_High_Pile_STA_N2_30KData_220111_R1.csv
##Temp./Â°C,Time/min,Mass loss(subtr.2)/mg,DSC(subtr.2)/(mW/mg),Sensit./(uV/mW)
48.607,10.00917,0.01217,-0.002161446,1.06963
52.207,10.9117,0.01396084,0.14338,1.0693
55.807,11.15881,0.01436172,0.24877,1.06893
59.407,11.35016,0.01401645,0.32774,1.06853
63.007,11.51661,0.01563627,0.38341,1.06809
66.607,11.66892,0.01623037,0.42354,1.06761
70.207,11.81298,0.0151803,0.45405,1.0671
73.807,11.95074,0.01569251,0.48154,1.06656
77.407,12.08479,0.01715464,0.50599,1.06598
81.007,12.21595,0.01733162,0.52695,1.06536
84.607,12.34414,0.01496066,0.54503,1.06471
88.207,12.47078,0.01380209,0.56405,1.06402
91.807,12.5955,0.01397795,0.58125,1.0633
95.407,12.71906,0.01404629,0.59763,1.06255
99.007,12.842,0.01555006,0.61238,1.06176
102.607,12.96418,0.01455259,0.63027,1.06094
106.207,13.08589,0.01436925,0.64321,1.06008
109.807,13.2072,0.01437726,0.65921,1.05919
113.407,13.32877,0.01334074,0.67608,1.05827
117.007,13.44945,0.0140282,0.689,1.05731
120.607,13.5697,0.01272061,0.70324,1.05632
124.207,13.68905,0.01139984,0.71764,1.0553
127.807,13.80799,0.01199333,0.73396,1.05425
131.407,13.9264,0.01085637,0.74481,1.05316
135.007,14.0435,0.01064042,0.75855,1.05204
138.607,14.1607,0.008011116,0.77504,1.05089
142.207,14.27714,0.008010108,0.79015,1.04971
145.807,14.39289,0.009330036,0.80709,1.0485
149.407,14.50821,0.00933356,0.82916,1.04725
153.007,14.62292,0.007680116,0.85132,1.04598
156.607,14.7374,0.00702047,0.8815,1.04467
160.207,14.85159,0.007019085,0.92284,1.04334
163.807,14.96526,0.004762843,0.96562,1.04197
167.407,15.0791,0.004059997,0.98499,1.04057
171.007,15.19234,0.005039912,0.98032,1.03915
174.607,15.30524,0.002334923,0.97335,1.03769
178.207,15.4176,0.003064335,0.97469,1.03621
181.807,15.5297,0.00176073,0.99168,1.0347
185.407,15.6411,0.001109648,1.01106,1.03316
189.007,15.7527,-0.0008540704,1.03756,1.03159
192.607,15.86355,-0.003177101,1.07399,1.02999
196.207,15.9742,-0.00350644,1.11472,1.02836
199.807,16.08475,-0.00610497,1.16164,1.02671
203.407,16.19521,-0.008415338,1.22236,1.02503
207.007,16.30548,-0.0081197,1.3041,1.02332
210.607,16.41562,-0.01145463,1.42915,1.02159
214.207,16.52591,-0.01356879,1.58231,1.01983
217.807,16.636,-0.01770176,1.65647,1.01804
221.407,16.7461,-0.01872785,1.77901,1.01623
225.007,16.85601,-0.01965266,1.98865,1.01439
228.607,16.96595,-0.02310254,1.97935,1.01253
232.207,17.07544,-0.02300734,1.88261,1.01064
235.807,17.18492,-0.02766925,1.79977,1.00872
239.407,17.29405,-0.03546264,1.79403,1.00679
243.007,17.4031,-0.03949404,1.87242,1.00482
246.607,17.51258,-0.04342472,2.03533,1.00284
250.207,17.62177,-0.05034174,2.19015,1.00083
253.807,17.73098,-0.05989501,2.31028,0.9988
257.407,17.8404,-0.06567207,2.46042,0.99674
261.007,17.9497,-0.0743138,2.65119,0.99466
264.607,18.05898,-0.08256992,2.88047,0.99256
268.207,18.16841,-0.10046,3.13357,0.99044
271.807,18.2778,-0.1148,3.38237,0.98829
275.407,18.38736,-0.1286,3.59529,0.98613
279.007,18.49699,-0.14589,3.74381,0.98394
282.607,18.6065,-0.15887,3.7838,0.98173
286.207,18.7159,-0.17893,3.65193,0.9795
289.807,18.82501,-0.19228,3.33057,0.97725
293.407,18.9339,-0.20445,2.90833,0.97498
297.007,19.04244,-0.21652,2.49886,0.97269
300.607,19.15077,-0.22275,2.13969,0.97038
304.207,19.25916,-0.22585,1.84731,0.96805
307.807,19.36745,-0.22687,1.62871,0.96571
311.407,19.47574,-0.22854,1.47671,0.96334
315.007,19.58428,-0.23169,1.37404,0.96095
318.607,19.69277,-0.23541,1.31311,0.95855
322.207,19.8018,-0.23803,1.27205,0.95613
325.807,19.91081,-0.24065,1.24524,0.95369
329.407,20.01984,-0.24329,1.22947,0.95124
333.007,20.1291,-0.24592,1.21679,0.94877
336.607,20.23863,-0.24856,1.20962,0.94628
340.207,20.34806,-0.25084,1.20387,0.94377
343.807,20.4578,-0.25486,1.19935,0.94125
347.407,20.56776,-0.25644,1.19762,0.93871
351.007,20.6779,-0.26054,1.19409,0.93616
354.607,20.78817,-0.26445,1.19068,0.93359
358.207,20.89854,-0.27014,1.19325,0.93101
361.807,21.0091,-0.27444,1.19239,0.92842
365.407,21.11972,-0.27873,1.19599,0.9258
369.007,21.2306,-0.28778,1.2049,0.92318
372.607,21.34159,-0.29472,1.21888,0.92054
376.207,21.45261,-0.3075,1.23823,0.91789
379.807,21.5639,-0.3171,1.26045,0.91522
383.407,21.67527,-0.33133,1.29046,0.91254
387.007,21.7868,-0.34968,1.32812,0.90985
390.607,21.89852,-0.36966,1.37547,0.90715
394.207,22.01033,-0.39955,1.43551,0.90443
397.807,22.1223,-0.43455,1.51181,0.9017
401.407,22.23454,-0.47873,1.60223,0.89897
405.007,22.34672,-0.53303,1.71629,0.89622
408.607,22.45915,-0.59702,1.84819,0.89345
412.207,22.57177,-0.67631,2.00053,0.89068
415.807,22.6846,-0.77348,2.16352,0.8879
419.407,22.79747,-0.88252,2.31481,0.88511
423.007,22.9104,-1.00742,2.43247,0.88231
426.607,23.02388,-1.14206,2.48606,0.87949
430.207,23.13704,-1.27955,2.43712,0.87667
433.807,23.25025,-1.41991,2.25568,0.87384
437.407,23.36329,-1.5542,2.08248,0.871
441.007,23.47654,-1.67359,1.91192,0.86815
444.607,23.58951,-1.78017,1.737,0.8653
448.207,23.70267,-1.87291,1.57716,0.86243
451.807,23.81575,-1.95514,1.45199,0.85956
455.407,23.9294,-2.02888,1.36198,0.85668
459.007,24.04271,-2.08878,1.29334,0.85379
462.607,24.1565,-2.13911,1.22168,0.8509
466.207,24.27024,-2.17982,1.14919,0.848
469.807,24.38415,-2.21495,1.0798,0.84509
473.407,24.49835,-2.24513,1.02704,0.84217
477.007,24.61262,-2.27458,0.97924,0.83925
480.607,24.7269,-2.30352,0.929,0.83633
484.207,24.84154,-2.32809,0.87394,0.8334
487.807,24.9562,-2.34727,0.79117,0.83046
491.407,25.07081,-2.3649,0.6994,0.82752
495.007,25.1858,-2.3756,0.60607,0.82457
498.607,25.30085,-2.38323,0.52988,0.82162
502.207,25.4159,-2.38797,0.47944,0.81866
505.807,25.53125,-2.3929,0.44744,0.8157
509.407,25.6467,-2.39675,0.42658,0.81273
513.007,25.76207,-2.40069,0.41478,0.80976
516.607,25.87752,-2.40624,0.39825,0.80679
520.207,25.99314,-2.40889,0.38809,0.80381
523.807,26.10908,-2.41385,0.3823,0.80083
527.407,26.22482,-2.41717,0.37535,0.79785
531.007,26.34075,-2.4187,0.37072,0.79486
534.607,26.45702,-2.42518,0.36217,0.79188
538.207,26.573,-2.42972,0.36057,0.78889
541.807,26.68938,-2.43283,0.35374,0.78589
545.407,26.80589,-2.43531,0.35031,0.7829
549.007,26.92247,-2.44011,0.34784,0.7799
552.607,27.0385,-2.44583,0.34557,0.7769
556.207,27.15547,-2.4481,0.34586,0.7739
559.807,27.27222,-2.45398,0.34471,0.7709
563.407,27.38885,-2.45872,0.34923,0.7679
567.007,27.50558,-2.46652,0.35707,0.76489
570.607,27.62258,-2.47043,0.36181,0.76189
574.207,27.73975,-2.47645,0.37224,0.75889
577.807,27.85691,-2.48292,0.38017,0.75588
581.407,27.97399,-2.49177,0.39169,0.75288
585.007,28.09125,-2.49882,0.40196,0.74987
588.607,28.20866,-2.50491,0.41231,0.74687
592.207,28.32635,-2.51175,0.42002,0.74386
595.807,28.44398,-2.51846,0.43206,0.74086
599.407,28.56186,-2.52739,0.44596,0.73785
603.007,28.67973,-2.5382,0.46646,0.73485
606.607,28.7977,-2.54929,0.49284,0.73185
610.207,28.91592,-2.56169,0.52473,0.72885
613.807,29.03407,-2.5691,0.57054,0.72585
617.407,29.1524,-2.58124,0.6068,0.72285
621.007,29.2705,-2.59536,0.62078,0.71985
624.607,29.3889,-2.61172,0.62644,0.71685
628.207,29.50752,-2.62879,0.62231,0.71386
631.807,29.6259,-2.65045,0.59037,0.71087
635.407,29.744,-2.66918,0.54337,0.70788
639.007,29.86303,-2.68643,0.51167,0.70489
642.607,29.9817,-2.6983,0.44542,0.70191
646.207,30.10019,-2.70473,0.38074,0.69892
649.807,30.21898,-2.70901,0.34359,0.69594
653.407,30.3377,-2.71085,0.33387,0.69297
657.007,30.4565,-2.71337,0.3584,0.68999
660.607,30.5753,-2.71921,0.39149,0.68702
664.207,30.69398,-2.7223,0.42602,0.68405
667.807,30.81271,-2.72263,0.46177,0.68109
671.407,30.93167,-2.7283,0.49726,0.67813
675.007,31.0506,-2.73013,0.5384,0.67517
678.607,31.1696,-2.73618,0.57624,0.67221
682.207,31.28862,-2.7442,0.61936,0.66926
685.807,31.4079,-2.74756,0.67897,0.66631
689.407,31.52726,-2.7509,0.74166,0.66337
693.007,31.6466,-2.75708,0.79711,0.66043
696.607,31.7659,-2.76113,0.86035,0.65749
700.207,31.88536,-2.76807,0.93595,0.65456
703.807,32.00504,-2.77775,1.02948,0.65163
707.407,32.12481,-2.78314,1.13426,0.64871
711.007,32.24453,-2.79373,1.23745,0.64579
714.607,32.3644,-2.80236,1.32625,0.64288
718.207,32.4843,-2.81626,1.38043,0.63997
721.807,32.60417,-2.82172,1.35804,0.63706
725.407,32.72422,-2.83086,1.19226,0.63416
729.007,32.84404,-2.84083,0.81456,0.63127
732.607,32.96393,-2.8439,0.28178,0.62837
736.207,33.08376,-2.8456,0.09425299,0.62549
739.807,33.20355,-2.84682,0.019156,0.62261
743.407,33.32366,-2.84828,-0.0205702,0.61973
747.007,33.44382,-2.84784,-0.0440824,0.61686
750.607,33.56407,-2.84906,-0.06340553,0.614
754.207,33.68408,-2.85118,-0.07732672,0.61114
757.807,33.8045,-2.84988,-0.08770028,0.60828
761.407,33.92483,-2.85123,-0.10016,0.60543
765.007,34.04523,-2.84987,-0.11429,0.60259
768.607,34.16577,-2.85249,-0.12432,0.59975
772.207,34.28627,-2.85115,-0.13842,0.59692
775.807,34.4069,-2.85382,-0.14668,0.59409
779.407,34.52766,-2.85381,-0.1587,0.59127
783.007,34.64836,-2.85514,-0.16892,0.58846
786.607,34.7691,-2.85514,-0.17864,0.58565
790.207,34.88985,-2.85382,-0.18581,0.58284
793.807,35.01052,-2.85515,-0.19722,0.58005
797.407,35.1313,-2.85645,-0.20748,0.57726
801.007,35.25221,-2.85645,-0.2148,0.57447
804.607,35.37301,-2.85643,-0.23107,0.57169
808.207,35.4938,-2.85858,-0.23886,0.56892
811.807,35.6147,-2.8604,-0.24605,0.56615
815.407,35.73567,-2.8591,-0.26173,0.56339
819.007,35.85657,-2.86004,-0.2686,0.56063
822.607,35.97753,-2.86045,-0.28317,0.55789
826.207,36.09875,-2.86171,-0.2943,0.55514
829.807,36.21997,-2.85897,-0.30273,0.55241
833.407,36.34127,-2.86131,-0.30473,0.54968
837.007,36.4626,-2.86057,-0.30943,0.54696
840.607,36.58406,-2.86274,-0.30506,0.54424
844.207,36.7057,-2.86132,-0.30639,0.54153
847.807,36.82718,-2.85943,-0.31257,0.53883
851.407,36.94866,-2.86358,-0.30652,0.53613
855.007,37.07018,-2.86225,-0.30411,0.53344
858.607,37.19166,-2.86489,-0.30129,0.53075
862.207,37.31343,-2.86236,-0.30367,0.52808
865.807,37.43501,-2.86477,-0.29506,0.52541
869.407,37.5568,-2.86326,-0.28986,0.52274
873.007,37.67863,-2.86555,-0.28612,0.52008
876.607,37.80042,-2.86556,-0.27984,0.51743
880.207,37.92198,-2.86489,-0.27915,0.51479
883.807,38.0439,-2.86687,-0.27444,0.51215
887.407,38.16567,-2.86688,-0.27319,0.50952
891.007,38.2873,-2.87017,-0.26659,0.5069
892.307,38.3319,-2.86884,-0.25703,0.50595

File: Triexta_Carpet_High_Pile_STA_N2_30KData_220111_R2.csv
##Temp./Â°C,Time/min,Mass loss(subtr.2)/mg,DSC(subtr.2)/(mW/mg),Sensit./(uV/mW)
48.569,10.01,-0.01712,-0.00125767,1.06963
52.169,10.9131,-0.01807842,0.08690393,1.0693
55.769,11.1601,-0.01942191,0.15374,1.06893
59.369,11.3514,-0.0204973,0.20444,1.06853
62.969,11.51764,-0.0202144,0.23581,1.06809
66.569,11.67078,-0.01918597,0.25289,1.06762
70.169,11.81452,-0.02041207,0.2655,1.06711
73.769,11.95237,-0.02076476,0.27732,1.06656
77.369,12.08656,-0.02192693,0.28728,1.06598
80.969,12.21743,-0.02193362,0.29639,1.06537
84.569,12.34575,-0.02223182,0.30611,1.06472
88.169,12.47205,-0.02327832,0.31654,1.06403
91.769,12.59688,-0.02220433,0.32577,1.06331
95.369,12.7204,-0.02215082,0.33105,1.06256
98.969,12.84292,-0.02321698,0.34082,1.06177
102.569,12.96488,-0.02222407,0.3509,1.06095
106.169,13.08641,-0.02229472,0.35707,1.06009
109.769,13.20769,-0.02348106,0.36953,1.0592
113.369,13.3284,-0.02348141,0.3776,1.05828
116.969,13.4491,-0.0248152,0.38189,1.05732
120.569,13.569,-0.0234802,0.39085,1.05633
124.169,13.6882,-0.02499316,0.40216,1.05531
127.769,13.80686,-0.02479279,0.40876,1.05426
131.369,13.9249,-0.02610933,0.41674,1.05317
134.969,14.042,-0.02823394,0.425,1.05205
138.569,14.1586,-0.02840998,0.43794,1.0509
142.169,14.27464,-0.02972987,0.44988,1.04972
145.769,14.3901,-0.0297302,0.46171,1.04851
149.369,14.50489,-0.03104,0.47959,1.04727
152.969,14.61922,-0.03235974,0.49829,1.04599
156.569,14.7333,-0.03103749,0.52903,1.04469
160.169,14.84712,-0.03238546,0.56631,1.04335
163.769,14.96069,-0.03401,0.59861,1.04198
167.369,15.07395,-0.03474781,0.60607,1.04059
170.969,15.1869,-0.03533001,0.5939,1.03916
174.569,15.2995,-0.03664791,0.5898,1.03771
178.169,15.4116,-0.03894035,0.59374,1.03623
181.769,15.52335,-0.03894,0.60897,1.03471
185.369,15.6349,-0.03894878,0.62717,1.03317
188.969,15.7461,-0.04046912,0.65235,1.0316
192.569,15.857,-0.04387891,0.68328,1.03
196.169,15.9676,-0.04519912,0.7174,1.02838
199.769,16.0784,-0.04715848,0.76643,1.02673
203.369,16.18885,-0.05128186,0.82753,1.02505
206.969,16.2994,-0.05254831,0.91337,1.02334
210.569,16.40964,-0.05517082,1.04967,1.02161
214.169,16.52,-0.05780865,1.17604,1.01985
217.769,16.6302,-0.06012501,1.22822,1.01806
221.369,16.7405,-0.06307183,1.39585,1.01625
224.969,16.85052,-0.06541488,1.57263,1.01441
228.569,16.96067,-0.06928875,1.5104,1.01255
232.169,17.07062,-0.07385156,1.42962,1.01066
235.769,17.18011,-0.07536172,1.3909,1.00874
239.369,17.28976,-0.08059416,1.43391,1.00681
242.969,17.39902,-0.08896007,1.56793,1.00485
246.569,17.50868,-0.09322121,1.78691,1.00286
250.169,17.61833,-0.10216,1.96907,1.00085
253.769,17.72808,-0.10936,2.13649,0.99882
257.369,17.83781,-0.11861,2.32722,0.99676
260.969,17.94744,-0.13069,2.54887,0.99469
264.569,18.05688,-0.14377,2.79176,0.99258
268.169,18.1667,-0.16108,3.03241,0.99046
271.769,18.27636,-0.17811,3.23584,0.98832
275.369,18.3861,-0.19523,3.38264,0.98615
278.969,18.4957,-0.21381,3.41641,0.98396
282.569,18.60558,-0.22983,3.28704,0.98175
286.169,18.71484,-0.24357,2.95731,0.97952
289.769,18.82348,-0.25747,2.51073,0.97728
293.369,18.9324,-0.2638,2.08421,0.97501
296.969,19.0409,-0.27092,1.74475,0.97272
300.569,19.14922,-0.27663,1.488,0.97041
304.169,19.25766,-0.28035,1.30259,0.96808
307.769,19.36618,-0.28253,1.16955,0.96573
311.369,19.47479,-0.28826,1.0789,0.96336
314.969,19.5835,-0.28943,1.01668,0.96098
318.569,19.69245,-0.29208,0.97884,0.95858
322.169,19.80162,-0.29473,0.95239,0.95616
325.769,19.91084,-0.29638,0.93808,0.95372
329.369,20.02027,-0.29913,0.93009,0.95126
332.969,20.1297,-0.30206,0.92664,0.94879
336.569,20.2394,-0.30703,0.92578,0.9463
340.169,20.34923,-0.31245,0.92231,0.9438
343.769,20.4592,-0.31387,0.92618,0.94128
347.369,20.5693,-0.31667,0.92653,0.93874
350.969,20.67955,-0.32029,0.92831,0.93619
354.569,20.78998,-0.32303,0.9374,0.93362
358.169,20.90033,-0.32932,0.94267,0.93104
361.769,21.01098,-0.3347,0.95267,0.92844
365.369,21.12185,-0.33823,0.96518,0.92583
368.969,21.23258,-0.34627,0.98023,0.92321
372.569,21.34364,-0.35651,1.00098,0.92057
376.169,21.4547,-0.3688,1.0313,0.91792
379.769,21.5659,-0.38053,1.06764,0.91525
383.369,21.67756,-0.39851,1.10463,0.91257
386.969,21.78914,-0.4179,1.15629,0.90988
390.569,21.901,-0.44303,1.21323,0.90718
394.169,22.01295,-0.4752,1.28598,0.90446
397.769,22.12501,-0.51265,1.36781,0.90173
401.369,22.23722,-0.56062,1.4681,0.89899
404.969,22.3497,-0.62132,1.58892,0.89624
408.569,22.46225,-0.69124,1.72703,0.89348
412.169,22.57518,-0.77644,1.88155,0.89071
415.769,22.68798,-0.87609,2.04316,0.88793
419.369,22.80115,-0.99228,2.1887,0.88514
422.969,22.91432,-1.12129,2.2993,0.88233
426.569,23.0277,-1.2579,2.34797,0.87952
430.169,23.14102,-1.39674,2.32611,0.8767
433.769,23.25452,-1.53814,2.21211,0.87387
437.369,23.3679,-1.67096,2.0401,0.87103
440.969,23.4809,-1.79495,1.85614,0.86818
444.569,23.5941,-1.90368,1.68122,0.86533
448.169,23.7073,-1.99963,1.53692,0.86246
451.769,23.82049,-2.08014,1.42742,0.85959
455.369,23.93381,-2.14832,1.34113,0.85671
458.969,24.04733,-2.20516,1.26683,0.85382
462.569,24.161,-2.248,1.18848,0.85093
466.169,24.2747,-2.28389,1.11257,0.84803
469.769,24.38861,-2.31546,1.05435,0.84512
473.369,24.50271,-2.34475,1.0132,0.84221
476.969,24.6168,-2.37123,0.97838,0.83928
480.569,24.73113,-2.39857,0.94351,0.83636
484.169,24.84532,-2.423,0.89963,0.83343
487.769,24.96,-2.44227,0.83861,0.83049
491.369,25.0746,-2.45587,0.7603,0.82755
494.969,25.1892,-2.46785,0.67676,0.8246
498.569,25.30414,-2.47456,0.60618,0.82165
502.169,25.4192,-2.48113,0.55653,0.81869
505.769,25.53406,-2.48595,0.53038,0.81573
509.369,25.6495,-2.489,0.50822,0.81276
512.969,25.76474,-2.49163,0.49708,0.80979
516.569,25.88036,-2.49463,0.48707,0.80682
520.169,25.9959,-2.50018,0.48049,0.80384
523.769,26.11161,-2.50527,0.47251,0.80086
527.369,26.22728,-2.50968,0.47104,0.79788
530.969,26.3434,-2.51652,0.46571,0.7949
534.569,26.45934,-2.51857,0.46519,0.79191
538.169,26.5753,-2.52124,0.46189,0.78892
541.769,26.6917,-2.52529,0.46001,0.78592
545.369,26.8081,-2.52678,0.45586,0.78293
548.969,26.9244,-2.53258,0.45406,0.77993
552.569,27.041,-2.53529,0.4496,0.77693
556.169,27.1577,-2.54152,0.45039,0.77393
559.769,27.27451,-2.54617,0.45163,0.77093
563.369,27.3912,-2.54939,0.45357,0.76793
566.969,27.5082,-2.55549,0.45737,0.76493
570.569,27.6252,-2.56259,0.45977,0.76192
574.169,27.74227,-2.56886,0.46872,0.75892
577.769,27.8595,-2.57511,0.47452,0.75591
581.369,27.9768,-2.5817,0.48205,0.75291
584.969,28.09405,-2.58767,0.49174,0.7499
588.569,28.21175,-2.59213,0.49742,0.7469
592.169,28.3294,-2.59789,0.51007,0.74389
595.769,28.44714,-2.60446,0.52572,0.74089
599.369,28.5649,-2.61102,0.54561,0.73788
602.969,28.6829,-2.62217,0.56509,0.73488
606.569,28.8011,-2.63093,0.59504,0.73188
610.169,28.9192,-2.64358,0.64389,0.72888
613.769,29.0373,-2.65315,0.68514,0.72588
617.369,29.1555,-2.66951,0.69042,0.72288
620.969,29.27375,-2.68636,0.68084,0.71988
624.569,29.392,-2.70453,0.66344,0.71689
628.169,29.5103,-2.7252,0.62517,0.71389
631.769,29.62861,-2.74286,0.57955,0.7109
635.369,29.7472,-2.75657,0.53955,0.70791
638.969,29.86607,-2.76409,0.46645,0.70492
642.569,29.98467,-2.76817,0.42803,0.70194
646.169,30.1034,-2.77271,0.42066,0.69896
649.769,30.2222,-2.77522,0.43716,0.69598
653.369,30.34088,-2.77891,0.46148,0.693
656.969,30.45982,-2.78307,0.49254,0.69002
660.569,30.57876,-2.78724,0.51736,0.68705
664.169,30.6978,-2.78879,0.54913,0.68408
667.769,30.8169,-2.79283,0.58874,0.68112
671.369,30.93603,-2.79845,0.62939,0.67816
674.969,31.05495,-2.8018,0.68132,0.6752
678.569,31.1743,-2.80672,0.74064,0.67224
682.169,31.2935,-2.81422,0.80401,0.66929
685.769,31.41275,-2.81931,0.86355,0.66634
689.369,31.53193,-2.82357,0.91867,0.6634
692.969,31.6514,-2.83299,0.99499,0.66046
696.569,31.77078,-2.83731,1.07797,0.65752
700.169,31.8901,-2.84384,1.17677,0.65459
703.769,32.0096,-2.85436,1.28009,0.65166
707.369,32.12936,-2.86504,1.38271,0.64874
710.969,32.24905,-2.87425,1.45962,0.64582
714.569,32.36868,-2.8853,1.49167,0.64291
718.169,32.48832,-2.89423,1.4267,0.64
721.769,32.60821,-2.90421,1.18655,0.63709
725.369,32.72779,-2.9121,0.66179,0.63419
728.969,32.84725,-2.91336,0.3494,0.6313
732.569,32.96719,-2.91551,0.24346,0.6284
736.169,33.08708,-2.91544,0.19453,0.62552
739.769,33.20734,-2.91534,0.16555,0.62264
743.369,33.32751,-2.91569,0.14948,0.61976
746.969,33.44745,-2.91569,0.13684,0.61689
750.569,33.56757,-2.917,0.12656,0.61403
754.169,33.68773,-2.91823,0.11733,0.61117
757.769,33.80794,-2.92093,0.11226,0.60831
761.369,33.92853,-2.91832,0.10469,0.60546
764.969,34.0489,-2.91799,0.10055,0.60262
768.569,34.16946,-2.91964,0.09735665,0.59978
772.169,34.29,-2.92227,0.0885281,0.59695
775.769,34.4107,-2.92095,0.08045183,0.59412
779.369,34.53134,-2.92268,0.08109073,0.5913
782.969,34.65231,-2.92404,0.074579,0.58849
786.569,34.77301,-2.92412,0.07216881,0.58568
790.169,34.89377,-2.92511,0.0674873,0.58287
793.769,35.0144,-2.92483,0.06349806,0.58008
797.369,35.1352,-2.92445,0.05849682,0.57728
800.969,35.25611,-2.92445,0.05588943,0.5745
804.569,35.37685,-2.9259,0.04895559,0.57172
808.169,35.4978,-2.92655,0.05127757,0.56895
811.769,35.61878,-2.92637,0.04467102,0.56618
815.369,35.73949,-2.92709,0.03235494,0.56342
818.969,35.86038,-2.92613,0.02572184,0.56066
822.569,35.98145,-2.92897,0.01843251,0.55791
826.169,36.10236,-2.92808,0.01338906,0.55517
829.769,36.22325,-2.92802,0.01905327,0.55244
833.369,36.3443,-2.92948,0.02494667,0.54971
836.969,36.46513,-2.93028,0.03280531,0.54698
840.569,36.58656,-2.93038,0.04334176,0.54427
844.169,36.7079,-2.93168,0.05067829,0.54156
847.769,36.82915,-2.93038,0.06069238,0.53885
851.369,36.95067,-2.92972,0.06455929,0.53616
854.969,37.07203,-2.93034,0.07410283,0.53347
858.569,37.19355,-2.93311,0.09052355,0.53078
862.169,37.3151,-2.93432,0.10502,0.5281
865.769,37.43653,-2.93564,0.11442,0.52543
869.369,37.55815,-2.93597,0.12945,0.52277
872.969,37.67969,-2.9363,0.1404,0.52011
876.569,37.80126,-2.93567,0.16016,0.51746
880.169,37.92304,-2.9343,0.17456,0.51482
883.769,38.0446,-2.93564,0.19626,0.51218
887.369,38.16618,-2.93432,0.20616,0.50955
890.969,38.28785,-2.93433,0.22474,0.50693
892.269,38.33265,-2.93568,0.22972,0.50598