Folder: fsri_materials_database/01_Data/Triexta_Carpet_High_Pile/STA/N2/30K_min (part 2)

File: Triexta_Carpet_High_Pile_STA_N2_30KData_220112_R3.csv
##Temp./Â°C,Time/min,Mass loss(subtr.2)/mg,DSC(subtr.2)/(mW/mg),Sensit./(uV/mW)
48.586,10.01,0.009,-0.00425837,1.06963
52.186,10.9131,0.00982633,0.14817,1.0693
55.786,11.15969,0.009327988,0.25743,1.06893
59.386,11.35096,0.009591844,0.33684,1.06853
62.986,11.5174,0.01108641,0.39475,1.06809
66.586,11.66976,0.0111806,0.43599,1.06762
70.186,11.81352,0.009121195,0.46302,1.06711
73.786,11.95163,0.009254321,0.48998,1.06656
77.386,12.08542,0.01000138,0.51644,1.06598
80.986,12.2164,0.009399842,0.53664,1.06536
84.586,12.34472,0.01092811,0.55279,1.06471
88.186,12.47145,0.00877987,0.57532,1.06403
91.786,12.59628,0.01023661,0.59111,1.06331
95.386,12.71991,0.009980911,0.60905,1.06255
98.986,12.84274,0.00994961,0.62486,1.06176
102.586,12.9648,0.008652497,0.64045,1.06094
106.186,13.0866,0.008670295,0.65703,1.06009
109.786,13.20762,0.0073257,0.67235,1.0592
113.386,13.3289,0.007181639,0.68964,1.05827
116.986,13.4495,0.008223007,0.7017,1.05732
120.586,13.56991,0.006918515,0.71614,1.05633
124.186,13.68958,0.005600117,0.73068,1.05531
127.786,13.80821,0.004309393,0.74292,1.05425
131.386,13.92675,0.005600034,0.75937,1.05317
134.986,14.04444,0.00428013,0.77211,1.05205
138.586,14.16167,0.004323303,0.79011,1.0509
142.186,14.27806,0.004290007,0.80637,1.04972
145.786,14.39383,0.0016177,0.82691,1.0485
149.386,14.5091,0.000329386,0.84596,1.04726
152.986,14.62396,0.0003299822,0.87673,1.04599
156.586,14.73836,0.00132037,0.90632,1.04468
160.186,14.85264,0.00132866,0.95303,1.04334
163.786,14.96659,-0.00101515,0.99719,1.04198
167.386,15.08024,-0.001308709,1.01165,1.04058
170.986,15.1934,-0.001310001,1.00648,1.03916
174.586,15.30601,-0.002991887,1.00007,1.0377
178.186,15.4186,-0.00358864,1.00647,1.03622
181.786,15.53057,-0.00526,1.02481,1.03471
185.386,15.6421,-0.00579585,1.04906,1.03316
188.986,15.75315,-0.00658001,1.07883,1.03159
192.586,15.8641,-0.009237514,1.11733,1.03
196.186,15.9749,-0.01201423,1.16185,1.02837
199.786,16.08548,-0.01324237,1.21216,1.02672
203.386,16.1958,-0.01327174,1.27706,1.02504
206.986,16.3061,-0.01517064,1.36469,1.02333
210.586,16.41636,-0.01851992,1.49941,1.0216
214.186,16.52647,-0.0185285,1.65048,1.01984
217.786,16.63664,-0.02121996,1.71396,1.01805
221.386,16.7467,-0.02570421,1.85549,1.01624
224.986,16.85645,-0.02936656,2.04679,1.0144
228.586,16.9664,-0.03168576,2.01506,1.01254
232.186,17.07617,-0.034654,1.92276,1.01065
235.786,17.18535,-0.03884365,1.85934,1.00874
239.386,17.2945,-0.04449805,1.87777,1.0068
242.986,17.4037,-0.05064861,1.99051,1.00484
246.586,17.51287,-0.05623154,2.19382,1.00285
250.186,17.622,-0.06312341,2.38008,1.00084
253.786,17.73122,-0.07156285,2.54467,0.99881
257.386,17.84059,-0.08174019,2.73585,0.99675
260.986,17.94952,-0.09273636,2.95579,0.99468
264.586,18.059,-0.10857,3.20276,0.99257
268.186,18.1684,-0.12146,3.44209,0.99045
271.786,18.27785,-0.13855,3.64814,0.98831
275.386,18.3874,-0.15691,3.77987,0.98614
278.986,18.497,-0.17418,3.78917,0.98395
282.586,18.60633,-0.19053,3.61375,0.98174
286.186,18.7153,-0.20423,3.23107,0.97951
289.786,18.82379,-0.21529,2.75544,0.97726
293.386,18.9325,-0.22464,2.32006,0.97499
296.986,19.0406,-0.22895,1.9783,0.9727
300.586,19.14852,-0.23229,1.72226,0.9704
304.186,19.25671,-0.23473,1.53885,0.96807
307.786,19.3652,-0.23894,1.41605,0.96572
311.386,19.47346,-0.24284,1.3328,0.96335
314.986,19.582,-0.24423,1.28058,0.96097
318.586,19.69088,-0.24795,1.24784,0.95857
322.186,19.7999,-0.25238,1.22157,0.95615
325.786,19.9089,-0.2537,1.20763,0.95371
329.386,20.01815,-0.25633,1.19945,0.95125
332.986,20.12752,-0.25891,1.19095,0.94878
336.586,20.23696,-0.2617,1.18572,0.94629
340.186,20.3467,-0.26557,1.1804,0.94379
343.786,20.4564,-0.26993,1.17606,0.94127
347.386,20.56661,-0.27161,1.17195,0.93873
350.986,20.67676,-0.27537,1.16986,0.93618
354.586,20.78698,-0.27838,1.17208,0.93361
358.186,20.89746,-0.28449,1.1721,0.93103
361.786,21.00817,-0.29029,1.17731,0.92843
365.386,21.11881,-0.29649,1.18198,0.92582
368.986,21.22966,-0.30481,1.19133,0.92319
372.586,21.34061,-0.31255,1.20751,0.92055
376.186,21.45158,-0.32427,1.23289,0.9179
379.786,21.56276,-0.33616,1.25891,0.91524
383.386,21.6742,-0.35238,1.29446,0.91256
386.986,21.78554,-0.37196,1.3349,0.90987
390.586,21.89684,-0.39802,1.38953,0.90716
394.186,22.00879,-0.42935,1.45416,0.90445
397.786,22.1208,-0.468,1.52995,0.90172
401.386,22.23263,-0.51679,1.62383,0.89898
404.986,22.34495,-0.57666,1.73528,0.89623
408.586,22.4573,-0.64932,1.8635,0.89347
412.186,22.56983,-0.73405,2.00675,0.8907
415.786,22.6826,-0.83433,2.15791,0.88792
419.386,22.79533,-0.95021,2.29689,0.88512
422.986,22.90829,-1.08064,2.3984,0.88232
426.586,23.0213,-1.22119,2.43963,0.87951
430.186,23.13466,-1.36453,2.40254,0.87669
433.786,23.24775,-1.50644,2.27766,0.87386
437.386,23.3608,-1.64346,2.07853,0.87102
440.986,23.4738,-1.76874,1.86607,0.86817
444.586,23.5869,-1.88005,1.67943,0.86531
448.186,23.7,-1.97633,1.52408,0.86245
451.786,23.81318,-2.05861,1.40536,0.85958
455.386,23.9264,-2.12688,1.31283,0.8567
458.986,24.04005,-2.18156,1.22473,0.85381
462.586,24.1536,-2.22427,1.1355,0.85092
466.186,24.26739,-2.26005,1.05522,0.84801
469.786,24.38081,-2.29144,0.99738,0.84511
473.386,24.49474,-2.32164,0.95139,0.84219
476.986,24.60885,-2.34859,0.91409,0.83927
480.586,24.72308,-2.37654,0.87282,0.83634
484.186,24.83771,-2.40111,0.82222,0.83341
487.786,24.95243,-2.4207,0.75109,0.83048
491.386,25.06693,-2.43443,0.661,0.82753
494.986,25.18143,-2.44555,0.57162,0.82458
498.586,25.29627,-2.45286,0.50018,0.82163
502.186,25.41139,-2.45756,0.45352,0.81868
505.786,25.5262,-2.46098,0.42108,0.81571
509.386,25.64154,-2.46607,0.39784,0.81275
512.986,25.75671,-2.47025,0.38731,0.80978
516.586,25.87249,-2.4732,0.37285,0.80681
520.186,25.9881,-2.47795,0.36479,0.80383
523.786,26.1039,-2.48251,0.35588,0.80085
527.386,26.2193,-2.48626,0.34727,0.79787
530.986,26.33545,-2.49045,0.34191,0.79488
534.586,26.45168,-2.49408,0.33734,0.79189
538.186,26.5681,-2.49608,0.33126,0.7889
541.786,26.6841,-2.50325,0.32886,0.78591
545.386,26.80065,-2.50709,0.324,0.78291
548.986,26.91703,-2.5103,0.32307,0.77992
552.586,27.0337,-2.51376,0.31677,0.77692
556.186,27.1503,-2.52028,0.31461,0.77392
559.786,27.26714,-2.52572,0.31849,0.77092
563.386,27.38399,-2.533,0.32018,0.76792
566.986,27.501,-2.53723,0.32323,0.76491
570.586,27.6179,-2.54148,0.32489,0.76191
574.186,27.7352,-2.54985,0.33257,0.7589
577.786,27.85228,-2.55493,0.34038,0.7559
581.386,27.96975,-2.56091,0.34733,0.75289
584.986,28.08724,-2.56824,0.36001,0.74989
588.586,28.20455,-2.57431,0.3686,0.74688
592.186,28.3223,-2.58023,0.38101,0.74388
595.786,28.43999,-2.5887,0.39808,0.74087
599.386,28.5578,-2.59664,0.41672,0.73787
602.986,28.67568,-2.6043,0.44394,0.73487
606.586,28.79372,-2.61348,0.4856,0.73186
610.186,28.9116,-2.62598,0.54197,0.72886
613.786,29.02982,-2.6378,0.6021,0.72586
617.386,29.14813,-2.653,0.62717,0.72286
620.986,29.2661,-2.67295,0.62567,0.71987
624.586,29.38464,-2.69149,0.61277,0.71687
628.186,29.50297,-2.71247,0.57548,0.71388
631.786,29.62145,-2.73213,0.52632,0.71089
635.386,29.74012,-2.74677,0.48088,0.7079
638.986,29.85885,-2.75376,0.40236,0.70491
642.586,29.9778,-2.76003,0.35133,0.70192
646.186,30.09655,-2.76296,0.32824,0.69894
649.786,30.21554,-2.76709,0.33671,0.69596
653.386,30.3344,-2.77003,0.36242,0.69298
656.986,30.4532,-2.77424,0.395,0.69001
660.586,30.5722,-2.77852,0.42657,0.68704
664.186,30.6913,-2.78075,0.4604,0.68407
667.786,30.8104,-2.78594,0.49555,0.6811
671.386,30.92946,-2.79084,0.54139,0.67814
674.986,31.04843,-2.79563,0.59794,0.67518
678.586,31.16746,-2.80116,0.65291,0.67223
682.186,31.2868,-2.80527,0.71518,0.66928
685.786,31.40605,-2.81144,0.77934,0.66633
689.386,31.5251,-2.81742,0.84212,0.66339
692.986,31.6444,-2.82376,0.9188,0.66045
696.586,31.7639,-2.8312,1.00497,0.65751
700.186,31.8833,-2.8396,1.1122,0.65458
703.786,32.00278,-2.84844,1.22179,0.65165
707.386,32.12253,-2.85824,1.32323,0.64873
710.986,32.24218,-2.86841,1.38862,0.64581
714.586,32.36175,-2.87824,1.37867,0.64289
718.186,32.48165,-2.88723,1.22966,0.63998
721.786,32.60138,-2.89423,0.84241,0.63708
725.386,32.72078,-2.90038,0.36366,0.63418
728.986,32.84032,-2.90165,0.19092,0.63128
732.586,32.9602,-2.90163,0.12919,0.62839
736.186,33.0801,-2.90394,0.0961744,0.62551
739.786,33.20017,-2.90427,0.07770684,0.62262
743.386,33.3202,-2.90691,0.06240358,0.61975
746.986,33.44032,-2.90821,0.052543,0.61688
750.586,33.56065,-2.90414,0.03922068,0.61401
754.186,33.68112,-2.90906,0.03182144,0.61115
757.786,33.80146,-2.90865,0.02143229,0.6083
761.386,33.92191,-2.90865,0.01396955,0.60545
764.986,34.04238,-2.91,0.00326905,0.60261
768.586,34.16282,-2.91095,-0.00177968,0.59977
772.186,34.2834,-2.90996,-0.01679039,0.59694
775.786,34.40398,-2.90996,-0.02677466,0.59411
779.386,34.52452,-2.91096,-0.03502093,0.59129
782.986,34.6453,-2.91227,-0.04248004,0.58847
786.586,34.7657,-2.91223,-0.05459216,0.58566
790.186,34.88658,-2.9115,-0.06692895,0.58286
793.786,35.00741,-2.91259,-0.07304781,0.58006
797.386,35.12835,-2.91391,-0.08741097,0.57727
800.986,35.24937,-2.91391,-0.09404567,0.57449
804.586,35.37014,-2.91523,-0.10926,0.57171
808.186,35.4912,-2.91523,-0.12012,0.56893
811.786,35.61227,-2.91655,-0.1321,0.56617
815.386,35.73337,-2.91786,-0.15134,0.56341
818.986,35.85451,-2.91787,-0.16165,0.56065
822.586,35.9756,-2.91754,-0.16886,0.5579
826.186,36.09666,-2.91655,-0.17539,0.55516
829.786,36.21774,-2.91655,-0.18768,0.55242
833.386,36.3388,-2.91918,-0.19589,0.54969
836.986,36.45997,-2.91951,-0.19015,0.54697
840.586,36.58129,-2.92052,-0.19965,0.54425
844.186,36.7025,-2.92181,-0.20107,0.54154
847.786,36.82393,-2.92181,-0.20394,0.53884
851.386,36.94533,-2.92453,-0.20105,0.53614
854.986,37.06695,-2.92313,-0.20198,0.53345
858.586,37.1886,-2.92182,-0.20694,0.53077
862.186,37.31009,-2.92313,-0.20089,0.52809
865.786,37.4316,-2.9232,-0.20422,0.52542
869.386,37.55319,-2.92307,-0.20168,0.52276
872.986,37.67474,-2.92361,-0.194,0.5201
876.586,37.7962,-2.92444,-0.1914,0.51745
880.186,37.91802,-2.92568,-0.185,0.5148
883.786,38.03983,-2.92576,-0.1793,0.51217
887.386,38.1614,-2.92445,-0.17273,0.50954
890.986,38.28318,-2.92576,-0.16948,0.50691
892.386,38.33185,-2.92576,-0.16895,0.50589