Folder: fsri_materials_database/01_Data/Triexta_Carpet_High_Pile/STA/N2/3K_min

Note: 01_Data/README.md
# Materials and Products Database
## 01_Data

Raw data generated from each apparatus are included here in plain-text format. The data is organized first by material, next by the short name of test apparatus used, and where applicable additional filtering by test settings.

### material.json

Each material directory contains a json file of the same name as the material. This file links the data stored in the repository as well as data and graphs produced by the accompanying scripts (__02_Scripts__) to the respective landing page for the material on the front-end website.

File: Triexta_Carpet_High_Pile_STA_N2_3KData_220111_R1.csv
##Temp./Â°C,Time/min,Mass loss(subtr.2)/mg,DSC(subtr.2)/(mW/mg),Sensit./(uV/mW)
50.027,10.01667,0.0103,-0.002135582,1.06378
53.527,12.43487,0.01155792,0.05436996,1.06293
57.027,13.7485,0.01090278,0.06082845,1.06209
60.527,14.9879,0.01281009,0.06304277,1.06123
64.027,16.19375,0.01219059,0.06188486,1.06037
67.527,17.37613,0.01085996,0.06655708,1.05951
71.027,18.55876,0.01117987,0.06718261,1.05864
74.527,19.73637,0.01086005,0.07265348,1.05776
78.027,20.9059,0.01151996,0.07344267,1.05687
81.527,22.0787,0.0103042,0.07374011,1.05598
85.027,23.2512,0.01150975,0.07340027,1.05509
88.527,24.416,0.009882986,0.07544908,1.05418
92.027,25.58653,0.008656371,0.07380116,1.05327
95.527,26.75178,0.009933869,0.07830413,1.05236
99.027,27.91675,0.007350286,0.07796261,1.05143
102.527,29.0773,0.00628382,0.08217,1.0505
106.027,30.23595,0.00735,0.0817438,1.04956
109.527,31.3955,0.00503973,0.08200449,1.04861
113.027,32.55056,0.003737083,0.08258161,1.04766
116.527,33.70875,0.004362912,0.08358199,1.04669
120.027,34.8623,0.002408557,0.08550582,1.04572
123.527,36.01896,0.00172634,0.09162332,1.04474
127.027,37.16904,0.0004399747,0.09178797,1.04375
130.527,38.3239,-0.002190005,0.09222676,1.04275
134.027,39.47233,-0.003155008,0.0959836,1.04174
137.527,40.62175,-0.004172019,0.10027,1.04073
141.027,41.7699,-0.004169976,0.10018,1.0397
144.527,42.92323,-0.00470468,0.10099,1.03866
148.027,44.0687,-0.00572092,0.10518,1.03762
151.527,45.21136,-0.007459999,0.10815,1.03656
155.027,46.3496,-0.00877992,0.11388,1.03549
158.527,47.50253,-0.009879868,0.11403,1.03441
162.027,48.64399,-0.01141198,0.1241,1.03332
165.527,49.79305,-0.01379337,0.12713,1.03222
169.027,50.93464,-0.01634,0.13795,1.03111
172.527,52.07778,-0.01798999,0.13031,1.02999
176.027,53.22045,-0.01964054,0.13324,1.02886
179.527,54.36792,-0.0213086,0.13303,1.02771
183.027,55.50724,-0.02413483,0.13889,1.02655
186.527,56.6465,-0.0268758,0.14364,1.02538
190.027,57.7886,-0.03052454,0.1512,1.0242
193.527,58.93675,-0.03486165,0.15463,1.02301
197.027,60.07521,-0.03924671,0.1648,1.0218
200.527,61.21386,-0.04398981,0.17562,1.02058
204.027,62.35266,-0.05028274,0.18953,1.01934
207.527,63.48891,-0.0542204,0.20668,1.0181
211.027,64.628,-0.0617251,0.22996,1.01684
214.527,65.76443,-0.07118848,0.27622,1.01556
218.027,66.90416,-0.07911,0.3105,1.01427
221.527,68.04858,-0.09095651,0.34641,1.01297
225.027,69.18764,-0.10542,0.43338,1.01165
228.527,70.33176,-0.12152,0.46305,1.01032
232.027,71.4694,-0.13997,0.46372,1.00898
235.527,72.60769,-0.16241,0.48094,1.00762
239.027,73.74632,-0.18567,0.49045,1.00624
242.527,74.87975,-0.2084,0.47767,1.00485
246.027,76.01653,-0.23232,0.40471,1.00344
249.527,77.14833,-0.24331,0.30352,1.00202
253.027,78.28166,-0.25047,0.19678,1.00058
256.527,79.41458,-0.25514,0.15668,0.99913
260.027,80.5501,-0.25909,0.14138,0.99766
263.527,81.68372,-0.26303,0.12925,0.99617
267.027,82.8214,-0.26467,0.12575,0.99467
270.527,83.958,-0.26758,0.12364,0.99315
274.027,85.09523,-0.27225,0.12244,0.99161
277.527,86.23161,-0.27473,0.12394,0.99006
281.027,87.37233,-0.27825,0.12336,0.98849
284.527,88.51387,-0.27992,0.12225,0.9869
288.027,89.65345,-0.28224,0.12155,0.98529
291.527,90.792,-0.28596,0.12569,0.98367
295.027,91.93027,-0.28991,0.12494,0.98203
298.527,93.0728,-0.29286,0.12511,0.98037
302.027,94.21259,-0.29814,0.12866,0.97869
305.527,95.34774,-0.29977,0.12618,0.977
309.027,96.48942,-0.30449,0.12654,0.97529
312.527,97.63709,-0.30866,0.12527,0.97355
316.027,98.78395,-0.31294,0.12996,0.9718
319.527,99.92277,-0.32096,0.13099,0.97003
323.027,101.065,-0.32643,0.12707,0.96825
326.527,102.207,-0.3337,0.12973,0.96644
330.027,103.3564,-0.34443,0.13182,0.96461
333.527,104.506,-0.35377,0.13658,0.96277
337.027,105.65,-0.36921,0.13869,0.9609
340.527,106.795,-0.38603,0.13721,0.95902
344.027,107.941,-0.40767,0.14367,0.95711
347.527,109.089,-0.43455,0.15182,0.95519
351.027,110.235,-0.46928,0.15714,0.95325
354.527,111.385,-0.51129,0.16422,0.95128
358.027,112.535,-0.56245,0.17761,0.9493
361.527,113.681,-0.62511,0.19075,0.94729
365.027,114.833,-0.70197,0.20374,0.94527
368.527,115.981,-0.78981,0.22162,0.94323
372.027,117.135,-0.89398,0.23637,0.94116
375.527,118.2844,-1.01143,0.24936,0.93908
379.027,119.4342,-1.13973,0.2597,0.93697
382.527,120.585,-1.27364,0.26013,0.93485
386.027,121.738,-1.41257,0.24996,0.9327
389.527,122.885,-1.54566,0.23242,0.93053
393.027,124.039,-1.67386,0.21114,0.92834
396.527,125.196,-1.78356,0.18995,0.92613
400.027,126.345,-1.87855,0.17389,0.9239
403.527,127.498,-1.96055,0.16089,0.92165
407.027,128.655,-2.03005,0.1511,0.91938
410.527,129.811,-2.092,0.14429,0.91709
414.027,130.969,-2.14304,0.14076,0.91478
417.527,132.1248,-2.18467,0.12858,0.91244
421.027,133.281,-2.22193,0.12029,0.91008
424.527,134.4383,-2.25979,0.11742,0.90771
428.027,135.5945,-2.29677,0.11582,0.90531
431.527,136.756,-2.33163,0.10936,0.90289
435.027,137.911,-2.36578,0.1118,0.90045
438.527,139.072,-2.39555,0.10178,0.89799
442.027,140.23,-2.41634,0.0922785,0.8955
445.527,141.393,-2.43207,0.07668191,0.893
449.027,142.549,-2.44436,0.06805874,0.89047
452.527,143.7064,-2.45229,0.05567469,0.88793
456.027,144.865,-2.45752,0.05677599,0.88536
459.527,146.0245,-2.46416,0.06048431,0.88277
463.027,147.186,-2.46937,0.07280659,0.88016
466.527,148.3471,-2.47332,0.07287224,0.87753
470.027,149.511,-2.47797,0.06836375,0.87488
473.527,150.669,-2.48275,0.06734085,0.8722
477.027,151.833,-2.48571,0.06814369,0.86951
480.527,152.996,-2.49033,0.06383793,0.86679
484.027,154.156,-2.49614,0.06282317,0.86406
487.527,155.322,-2.49954,0.05820621,0.8613
491.027,156.491,-2.50545,0.05714892,0.85852
494.527,157.655,-2.50899,0.0573267,0.85573
498.027,158.8154,-2.51335,0.06004392,0.85291
501.527,159.98,-2.51688,0.06066702,0.85007
505.027,161.146,-2.52158,0.06465162,0.84721
508.527,162.31,-2.52652,0.06533971,0.84433
512.027,163.481,-2.53095,0.06190093,0.84142
515.527,164.652,-2.53768,0.06758697,0.8385
519.027,165.818,-2.54416,0.06976879,0.83556
522.527,166.986,-2.54942,0.07167502,0.8326
526.027,168.153,-2.55503,0.07197687,0.82962
529.527,169.322,-2.56135,0.07730975,0.82662
533.027,170.491,-2.56754,0.07482183,0.8236
536.527,171.662,-2.57512,0.07305732,0.82056
540.027,172.829,-2.58169,0.06766274,0.8175
543.527,173.999,-2.58958,0.06321724,0.81442
547.027,175.174,-2.59715,0.05744424,0.81132
550.527,176.344,-2.60736,0.05754856,0.8082
554.027,177.521,-2.61687,0.05905075,0.80506
557.527,178.695,-2.63239,0.06932284,0.8019
561.027,179.87,-2.65212,0.06346616,0.79873
564.527,181.034,-2.6736,0.05141586,0.79554
568.027,182.207,-2.69663,0.05134836,0.79232
571.527,183.383,-2.72268,0.04148915,0.78909
575.027,184.5533,-2.74669,0.03260239,0.78585
578.527,185.722,-2.76778,0.02378829,0.78258
582.027,186.901,-2.78197,0.03018311,0.77929
585.527,188.075,-2.78586,0.0445615,0.77599
589.027,189.253,-2.79086,0.03809309,0.77267
592.527,190.428,-2.79415,0.03066872,0.76934
596.027,191.6,-2.78957,0.03231557,0.76598
599.527,192.779,-2.80139,0.03128695,0.76261
603.027,193.959,-2.81308,0.02925831,0.75922
606.527,195.14,-2.80983,0.02801013,0.75582
610.027,196.314,-2.81541,0.02757572,0.7524
613.527,197.491,-2.81879,0.0262834,0.74896
617.027,198.672,-2.82382,0.02587347,0.74551
620.527,199.845,-2.83049,0.02679796,0.74204
624.027,201.025,-2.8366,0.02634149,0.73855
627.527,202.202,-2.84338,0.03288578,0.73505
631.027,203.376,-2.85065,0.04575741,0.73154
634.527,204.554,-2.85887,0.05311093,0.72801
638.027,205.739,-2.86973,0.06514929,0.72446
641.527,206.918,-2.87967,0.0827801,0.7209
645.027,208.095,-2.89036,0.09072808,0.71733
648.527,209.272,-2.90231,0.1062,0.71374
652.027,210.456,-2.91151,0.10833,0.71014
655.527,211.639,-2.92369,0.08774163,0.70653
659.027,212.823,-2.93063,0.04082006,0.7029
662.527,213.998,-2.93491,-0.03450506,0.69926
666.027,215.179,-2.93423,-0.0498605,0.6956
669.527,216.3583,-2.93589,-0.05538558,0.69193
673.027,217.538,-2.93751,-0.0555323,0.68825
676.527,218.723,-2.93915,-0.04863829,0.68456
680.027,219.901,-2.93948,-0.04871346,0.68086
683.527,221.08,-2.93948,-0.04926495,0.67714
687.027,222.2601,-2.93976,-0.04958682,0.67342
690.527,223.446,-2.94245,-0.05095389,0.66968
694.027,224.629,-2.94343,-0.05215719,0.66593
697.527,225.808,-2.94507,-0.05110377,0.66217
701.027,226.986,-2.94441,-0.05272125,0.6584
704.527,228.174,-2.9454,-0.05536187,0.65462
708.027,229.351,-2.94541,-0.05408756,0.65083
711.527,230.529,-2.94507,-0.05807264,0.64703
715.027,231.71,-2.9464,-0.0583061,0.64322
718.527,232.892,-2.94744,-0.05956785,0.6394
722.027,234.079,-2.94866,-0.06167246,0.63558
725.527,235.265,-2.95001,-0.06348715,0.63174
729.027,236.4451,-2.95034,-0.07107481,0.6279
732.527,237.628,-2.95133,-0.07141433,0.62405
736.027,238.812,-2.95264,-0.07439474,0.62019
739.527,239.998,-2.95363,-0.0719379,0.61632
743.027,241.176,-2.95462,-0.06957386,0.61245
746.527,242.362,-2.95503,-0.07940211,0.60857
750.027,243.549,-2.95693,-0.08438948,0.60468
753.527,244.736,-2.95724,-0.08494048,0.60079
757.027,245.921,-2.95725,-0.08901832,0.59689
760.527,247.107,-2.95627,-0.08292086,0.59299
764.027,248.289,-2.95527,-0.09234045,0.58908
767.527,249.473,-2.9556,-0.09625074,0.58516
771.027,250.6627,-2.95685,-0.09691042,0.58124
774.527,251.85,-2.95823,-0.10232,0.57732
778.027,253.0358,-2.95857,-0.10734,0.57339
781.527,254.219,-2.95855,-0.09472416,0.56946
785.027,255.403,-2.96253,-0.09006053,0.56553
788.527,256.594,-2.9643,-0.08789801,0.56159
792.027,257.783,-2.96285,-0.08961373,0.55765
795.527,258.964,-2.96255,-0.08524509,0.5537
799.027,260.154,-2.96186,-0.08741366,0.54975
802.527,261.342,-2.96318,-0.08364479,0.54581
806.027,262.526,-2.96485,-0.08068841,0.54186
809.527,263.716,-2.96449,-0.08241642,0.5379
813.027,264.899,-2.96452,-0.0802003,0.53395
816.527,266.083,-2.96713,-0.07821474,0.53
820.027,267.276,-2.96877,-0.07767467,0.52604
823.527,268.463,-2.96797,-0.0801226,0.52209
827.027,269.653,-2.97074,-0.07000682,0.51813
830.527,270.842,-2.96969,-0.0675359,0.51418
834.027,272.023,-2.97239,-0.07032563,0.51022
837.527,273.215,-2.97502,-0.07144311,0.50627
841.027,274.409,-2.97461,-0.07833975,0.50232
844.527,275.593,-2.97535,-0.06892948,0.49837
847.627,276.643,-2.97404,-0.06863546,0.49487