Folder: fsri_materials_database/01_Data/PEX_Pipe/STA/N2/10K_min

Note: 01_Data/README.md
# Materials and Products Database
## 01_Data

Raw data generated from each apparatus are included here in plain-text format. The data is organized first by material, next by the short name of test apparatus used, and where applicable additional filtering by test settings.

### material.json

Each material directory contains a json file of the same name as the material. This file links the data stored in the repository as well as data and graphs produced by the accompanying scripts (__02_Scripts__) to the respective landing page for the material on the front-end website.

File: PEX_Pipe_STA_N2_10KData_220711_R1.csv
##Temp./Â°C,Time/min,Mass loss(subtr.2)/mg,DSC(subtr.2)/(mW/mg),Sensit./(uV/mW)
49.585,10.01,-0.03591,0.0142578,1.07021
52.685,11.3133,-0.04064466,0.17661,1.06936
55.785,11.75769,-0.04093705,0.25852,1.06849
58.885,12.13555,-0.04190276,0.31046,1.06762
61.985,12.48933,-0.04205067,0.33459,1.06673
65.085,12.83128,-0.04336909,0.34321,1.06584
68.185,13.16676,-0.04331935,0.35074,1.06493
71.285,13.4985,-0.04469197,0.35697,1.06402
74.385,13.82515,-0.04468279,0.36426,1.06309
77.485,14.1481,-0.04610916,0.37238,1.06216
80.585,14.46915,-0.04748194,0.38119,1.06121
83.685,14.78636,-0.04779841,0.38947,1.06026
86.785,15.1003,-0.05006999,0.4009,1.05929
89.885,15.4123,-0.04989321,0.41045,1.05831
92.985,15.72219,-0.04886011,0.42331,1.05733
96.085,16.03021,-0.05016673,0.43673,1.05633
99.185,16.33682,-0.0514739,0.45318,1.05533
102.285,16.6423,-0.05115819,0.47143,1.05431
105.385,16.94709,-0.0528102,0.49354,1.05328
108.485,17.251,-0.05412958,0.52832,1.05225
111.585,17.5546,-0.05280945,0.57161,1.0512
114.685,17.85687,-0.05412828,0.64369,1.05014
117.785,18.1599,-0.05413,0.76142,1.04907
120.885,18.4635,-0.0541307,0.98469,1.048
123.985,18.7691,-0.05446461,1.41502,1.04691
127.085,19.07806,-0.05405382,2.00738,1.04581
130.185,19.38867,-0.05543406,2.36846,1.0447
133.285,19.69427,-0.0555293,1.55796,1.04358
136.385,19.98773,-0.05577,0.70796,1.04245
139.485,20.2794,-0.05545801,0.49822,1.0413
142.585,20.57261,-0.05807819,0.45068,1.04015
145.685,20.86736,-0.05907232,0.44136,1.03899
148.785,21.16248,-0.05837909,0.43789,1.03782
151.885,21.45835,-0.0594,0.43827,1.03663
154.985,21.7542,-0.05940011,0.44142,1.03544
158.085,22.05,-0.05940018,0.44369,1.03423
161.185,22.34522,-0.06204,0.44513,1.03302
164.285,22.64189,-0.06101739,0.44952,1.03179
167.385,22.93822,-0.06109835,0.44949,1.03055
170.485,23.2343,-0.06203953,0.45134,1.0293
173.585,23.53043,-0.06137947,0.45417,1.02804
176.685,23.82702,-0.06268155,0.45579,1.02677
179.785,24.12302,-0.06401367,0.45887,1.02549
182.885,24.41876,-0.0636921,0.46135,1.0242
185.985,24.71477,-0.06335999,0.46368,1.02289
189.085,25.0098,-0.06499999,0.4656,1.02158
192.185,25.3051,-0.06434,0.46956,1.02025
195.285,25.60033,-0.06566005,0.47192,1.01892
198.385,25.89537,-0.06630835,0.47219,1.01757
201.485,26.19068,-0.06471327,0.47536,1.01621
204.585,26.4863,-0.06631948,0.47684,1.01484
207.685,26.7817,-0.06632,0.47857,1.01346
210.785,27.0769,-0.06632,0.48085,1.01207
213.885,27.37217,-0.06829024,0.48427,1.01066
216.985,27.66747,-0.0676252,0.48282,1.00925
220.085,27.9622,-0.06730096,0.48842,1.00782
223.185,28.25708,-0.06762999,0.48851,1.00639
226.285,28.55221,-0.06895,0.49256,1.00494
229.385,28.8469,-0.07027,0.49629,1.00348
232.485,29.13993,-0.06896001,0.49901,1.00201
235.585,29.43426,-0.07092653,0.50045,1.00052
238.685,29.72816,-0.07003867,0.49993,0.99903
241.785,30.023,-0.07126,0.50105,0.99752
244.885,30.31775,-0.07206205,0.50428,0.99601
247.985,30.61245,-0.07324,0.50382,0.99448
251.085,30.90751,-0.0719183,0.50687,0.99294
254.185,31.20273,-0.07257012,0.50648,0.99139
257.285,31.49793,-0.07254078,0.50844,0.98982
260.385,31.7938,-0.07257101,0.50973,0.98825
263.485,32.08876,-0.07488157,0.51104,0.98666
266.585,32.38423,-0.07347981,0.51276,0.98507
269.685,32.6802,-0.07389072,0.512,0.98346
272.785,32.97667,-0.07323061,0.51307,0.98184
275.885,33.27274,-0.07519851,0.51673,0.9802
278.985,33.5694,-0.0765202,0.51844,0.97856
282.085,33.86557,-0.07392035,0.51829,0.9769
285.185,34.1624,-0.07475523,0.52139,0.97524
288.285,34.45862,-0.07458819,0.5229,0.97356
291.385,34.7549,-0.07599042,0.52444,0.97187
294.485,35.05186,-0.07817,0.526,0.97016
297.585,35.3487,-0.0756303,0.52817,0.96845
300.685,35.64562,-0.07817,0.52796,0.96672
303.785,35.9428,-0.07851755,0.5327,0.96499
306.885,36.23938,-0.07982553,0.5347,0.96324
309.985,36.53674,-0.07851066,0.53414,0.96148
313.085,36.83416,-0.08014945,0.53558,0.9597
316.185,37.1314,-0.08015363,0.53713,0.95792
319.285,37.42953,-0.08113393,0.53929,0.95612
322.385,37.72667,-0.08311,0.54143,0.95432
325.485,38.0246,-0.08418774,0.54504,0.9525
328.585,38.3221,-0.0841,0.54637,0.95066
331.685,38.6207,-0.08541999,0.5477,0.94882
334.785,38.91901,-0.085071,0.54591,0.94697
337.885,39.21728,-0.0874,0.54786,0.9451
340.985,39.51575,-0.08697339,0.5501,0.94322
344.085,39.81497,-0.08838,0.55014,0.94133
347.185,40.11388,-0.09131401,0.55232,0.93943
350.285,40.41377,-0.09002759,0.55515,0.93752
353.385,40.71308,-0.092,0.55687,0.93559
356.485,41.01279,-0.092,0.56135,0.93365
359.585,41.3123,-0.09397995,0.56692,0.93171
362.685,41.612,-0.09496138,0.5706,0.92974
365.785,41.912,-0.09529851,0.57456,0.92777
368.885,42.21199,-0.09562997,0.57691,0.92579
371.985,42.51279,-0.09763375,0.58248,0.92379
375.085,42.81278,-0.09925003,0.58451,0.92179
378.185,43.1128,-0.10097,0.58908,0.91977
381.285,43.4143,-0.10231,0.59405,0.91774
384.385,43.71474,-0.10595,0.59763,0.9157
387.485,44.01562,-0.10792,0.60263,0.91364
390.585,44.31626,-0.11059,0.60663,0.91158
393.685,44.61769,-0.11319,0.61138,0.9095
396.785,44.91936,-0.11385,0.6124,0.90741
399.885,45.22123,-0.11913,0.61372,0.90531
402.985,45.52328,-0.12439,0.61789,0.9032
406.085,45.82543,-0.12801,0.62172,0.90108
409.185,46.1273,-0.13449,0.61602,0.89894
412.285,46.4287,-0.14043,0.62251,0.8968
415.385,46.73048,-0.14803,0.6365,0.89464
418.485,47.0324,-0.15361,0.6498,0.89247
421.585,47.33399,-0.1614,0.66499,0.89029
424.685,47.63548,-0.17184,0.68486,0.8881
427.785,47.9381,-0.18198,0.69707,0.8859
430.885,48.24058,-0.19466,0.71191,0.88369
433.985,48.54377,-0.20919,0.72499,0.88146
437.085,48.84687,-0.22663,0.73753,0.87923
440.185,49.15047,-0.2477,0.75583,0.87698
443.285,49.45426,-0.27497,0.78086,0.87472
446.385,49.75824,-0.30582,0.81651,0.87245
449.485,50.06175,-0.34204,0.85918,0.87017
452.585,50.3666,-0.38926,0.91842,0.86788
455.685,50.67153,-0.44727,0.98349,0.86558
458.785,50.97728,-0.52122,1.07026,0.86327
461.885,51.28167,-0.6176,1.17817,0.86094
464.985,51.58787,-0.74008,1.30757,0.85861
468.085,51.89362,-0.89452,1.45333,0.85626
471.185,52.20035,-1.0918,1.63223,0.85391
474.285,52.5075,-1.33791,1.82097,0.85154
477.385,52.8153,-1.62726,2.00402,0.84916
480.485,53.123,-1.9759,2.15582,0.84677
483.585,53.42846,-2.21779,2.1994,0.84437
486.685,53.73047,-2.56524,2.18028,0.84197
489.785,54.0329,-2.99755,1.94775,0.83955
492.885,54.33466,-3.3624,1.54485,0.83712
495.985,54.63644,-3.66896,1.02113,0.83468
499.085,54.93642,-3.86681,0.54164,0.83223
502.185,55.23591,-4.02265,0.24255,0.82977
505.285,55.5358,-4.04562,0.12376,0.8273
508.385,55.837,-4.06317,0.08922682,0.82482
511.485,56.139,-4.08458,0.07854858,0.82233
514.585,56.47169,-5.63918,0.76925,0.81983
517.685,56.8181,-4.6902,0.46873,0.81732
520.785,57.119,-4.30017,0.18667,0.8148
523.885,57.4168,-4.17635,0.10793,0.81227
526.985,57.7152,-4.14293,0.08831409,0.80973
530.085,58.01633,-4.13576,0.08591086,0.80718
533.185,58.31884,-4.13346,0.08517621,0.80462
536.285,58.62308,-4.13347,0.08035389,0.80205
539.385,58.929,-4.13346,0.08024326,0.79948
542.485,59.2375,-4.1326,0.07980329,0.79689
545.585,59.54829,-4.13485,0.08052334,0.79429
548.685,59.8605,-4.13247,0.08223206,0.79169
551.785,60.1724,-4.13247,0.08089555,0.78908
554.885,60.4833,-4.13115,0.07571836,0.78645
557.985,60.7939,-4.12983,0.07943507,0.78382
561.085,61.1036,-4.12983,0.08104425,0.78118
564.185,61.41236,-4.12885,0.07604056,0.77853
567.285,61.7205,-4.12886,0.07936861,0.77587
570.385,62.0284,-4.12885,0.07679148,0.77321
573.485,62.33661,-4.12985,0.07408995,0.77053
576.585,62.6445,-4.12984,0.07854387,0.76785
579.685,62.953,-4.12984,0.07617679,0.76516
582.785,63.26225,-4.12752,0.07475815,0.76246
585.885,63.5722,-4.12885,0.07225513,0.75975
588.985,63.88185,-4.12885,0.07493775,0.75703
592.085,64.19199,-4.12857,0.07504342,0.75431
595.185,64.50163,-4.12753,0.07191802,0.75158
598.285,64.81249,-4.12885,0.07153368,0.74884
601.385,65.12241,-4.12721,0.06715728,0.74609
604.485,65.4327,-4.12983,0.06912626,0.74334
607.585,65.74295,-4.12918,0.06750932,0.74058
610.685,66.05335,-4.1295,0.06408764,0.73781
613.785,66.36373,-4.13059,0.06138096,0.73503
616.885,66.67361,-4.12984,0.05971837,0.73225
619.985,66.9842,-4.12918,0.05541513,0.72946
623.085,67.2951,-4.13117,0.05334188,0.72666
626.185,67.60632,-4.12984,0.05644321,0.72385
629.285,67.91726,-4.13069,0.05339604,0.72104
632.385,68.22856,-4.1305,0.05333528,0.71822
635.485,68.53957,-4.13148,0.04997599,0.7154
638.585,68.85119,-4.13148,0.04862129,0.71257
641.685,69.16258,-4.13181,0.04578109,0.70973
644.785,69.47439,-4.13049,0.04640956,0.70689
647.885,69.786,-4.13181,0.04540141,0.70404
650.985,70.09711,-4.1305,0.04811862,0.70118
654.085,70.4078,-4.13304,0.05706165,0.69832
657.185,70.71891,-4.1305,0.07148655,0.69545
660.285,71.02884,-4.13083,0.08421173,0.69258
663.385,71.34044,-4.13083,0.09445341,0.6897
666.485,71.65187,-4.13082,0.09820872,0.68682
669.585,71.96293,-4.13081,0.09550306,0.68393
672.685,72.27458,-4.13148,0.09195145,0.68103
675.785,72.58652,-4.13078,0.08949228,0.67813
678.885,72.89834,-4.13082,0.08424203,0.67523
681.985,73.21053,-4.13083,0.07915394,0.67232
685.085,73.52309,-4.13115,0.07995678,0.6694
688.185,73.8351,-4.13116,0.0747456,0.66648
691.285,74.14792,-4.13244,0.07258625,0.66356
694.385,74.46006,-4.13149,0.06675415,0.66063
697.485,74.77185,-4.13182,0.06500011,0.6577
700.585,75.0843,-4.13214,0.0646032,0.65476
703.685,75.3968,-4.1331,0.05810266,0.65182
706.785,75.70945,-4.13313,0.05267172,0.64888
709.885,76.0213,-4.13346,0.04589377,0.64593
712.985,76.33327,-4.13346,0.04314411,0.64298
716.085,76.64523,-4.13412,0.04410957,0.64002
719.185,76.95777,-4.13411,0.03868272,0.63706
722.285,77.27033,-4.1341,0.03379644,0.6341
725.385,77.58333,-4.13149,0.03132935,0.63114
728.485,77.89685,-4.13412,0.02490084,0.62817
731.585,78.21005,-4.13313,0.02530201,0.6252
734.685,78.52226,-4.13412,0.01849708,0.62222
737.785,78.83514,-4.13412,0.01807158,0.61925
740.885,79.1482,-4.13478,0.01227666,0.61627
743.985,79.46136,-4.13346,0.01440519,0.61328
747.085,79.77501,-4.13386,0.01971651,0.6103
749.285,79.9977,-4.13379,0.0169109,0.60818

File: PEX_Pipe_STA_N2_10KData_220712_R2.csv
##Temp./Â°C,Time/min,Mass loss(subtr.2)/mg,DSC(subtr.2)/(mW/mg),Sensit./(uV/mW)
49.747,10.01,0.01152,-0.003160724,1.07017
51.947,11.14902,0.01372261,0.12992,1.06956
54.147,11.5113,0.01343553,0.20606,1.06895
56.347,11.80711,0.01458248,0.26104,1.06833
58.547,12.07483,0.01320916,0.2943,1.06771
60.747,12.3279,0.01436876,0.31752,1.06708
62.947,12.57723,0.01449828,0.32884,1.06645
65.147,12.81913,0.0127303,0.33498,1.06582
67.347,13.05788,0.01402821,0.33751,1.06518
69.547,13.2934,0.01273705,0.33898,1.06453
71.747,13.52849,0.0124261,0.34344,1.06388
73.947,13.7612,0.01143502,0.34967,1.06322
76.147,13.99214,0.01273803,0.35493,1.06256
78.347,14.219,0.0113973,0.36174,1.06189
80.547,14.44576,0.01281047,0.36935,1.06122
82.747,14.67185,0.01276481,0.37544,1.06055
84.947,14.89797,0.01141036,0.38286,1.05986
87.147,15.1209,0.01042363,0.3932,1.05918
89.347,15.3412,0.01271599,0.40086,1.05848
91.547,15.5618,0.01141153,0.41177,1.05779
93.747,15.78085,0.0114125,0.41942,1.05708
95.947,15.999,0.0101043,0.42827,1.05638
98.147,16.21562,0.01082721,0.43714,1.05566
100.347,16.43202,0.0127265,0.44958,1.05495
102.547,16.64791,0.01273,0.46209,1.05422
104.747,16.86329,0.01273701,0.48035,1.0535
106.947,17.07876,0.01213227,0.50109,1.05276
109.147,17.29346,0.01074917,0.52586,1.05202
111.347,17.5076,0.01268669,0.55572,1.05128
113.547,17.72148,0.01174475,0.59995,1.05053
115.747,17.93807,0.0120563,0.6561,1.04978
117.947,18.15311,0.01206984,0.74255,1.04902
120.147,18.3665,0.01207,0.8788,1.04825
122.347,18.58248,0.01295476,1.09838,1.04748
124.547,18.80036,0.01276017,1.46089,1.04671
126.747,19.01909,0.01436968,1.94079,1.04593
128.947,19.2392,0.01338592,2.35193,1.04514
131.147,19.45822,0.01331684,2.39739,1.04435
133.347,19.67442,0.01421775,1.68051,1.04355
135.547,19.8838,0.01371996,0.89899,1.04275
137.747,20.0903,0.01338327,0.59973,1.04195
139.947,20.29713,0.01277414,0.49531,1.04113
142.147,20.50507,0.01306002,0.45936,1.04032
144.347,20.71323,0.0111085,0.44573,1.03949
146.547,20.92207,0.0120672,0.44087,1.03866
148.747,21.13025,0.01173838,0.43784,1.03783
150.947,21.33952,0.01076,0.43973,1.03699
153.147,21.5496,0.01076,0.44069,1.03615
155.347,21.75984,0.01009,0.44105,1.0353
157.547,21.96927,0.01009,0.44176,1.03444
159.747,22.17974,0.01174,0.44324,1.03358
161.947,22.3895,0.01075004,0.44359,1.03272
164.147,22.59981,0.01207,0.4449,1.03184
166.347,22.80985,0.01207,0.44767,1.03097
168.547,23.01957,0.01207,0.45038,1.03008
170.747,23.22935,0.01338705,0.45115,1.0292
172.947,23.4392,0.01307523,0.4528,1.0283
175.147,23.64911,0.01306,0.45445,1.0274
177.347,23.8585,0.01075797,0.45645,1.0265
179.547,24.06811,0.01239717,0.4558,1.02559
181.747,24.27819,0.01207005,0.45551,1.02467
183.947,24.48865,0.01336746,0.45671,1.02375
186.147,24.69836,0.01142064,0.45708,1.02283
188.347,24.9081,0.01067257,0.45621,1.02189
190.547,25.11801,0.01107999,0.46035,1.02096
192.747,25.32641,0.01012774,0.46073,1.02001
194.947,25.5369,0.01108708,0.46367,1.01906
197.147,25.74663,0.01108,0.46503,1.01811
199.347,25.95533,0.01008606,0.46613,1.01715
201.547,26.1641,0.00874593,0.46731,1.01618
203.747,26.3741,0.0101,0.46936,1.01521
205.947,26.58312,0.01010059,0.47101,1.01424
208.147,26.79252,0.009956595,0.47252,1.01325
210.347,27.0015,0.01076073,0.47154,1.01227
212.547,27.2095,0.01074981,0.47586,1.01127
214.747,27.4201,0.008125206,0.47748,1.01027
216.947,27.62919,0.00811002,0.47754,1.00927
219.147,27.83922,0.009450749,0.47912,1.00826
221.347,28.04859,0.009434443,0.47889,1.00724
223.547,28.25791,0.00943,0.48183,1.00622
225.747,28.46756,0.009430065,0.48409,1.00519
227.947,28.67744,0.008468638,0.48687,1.00416
230.147,28.8869,0.009839625,0.48665,1.00312
232.347,29.09662,0.00911,0.48984,1.00207
234.547,29.3058,0.00934618,0.4874,1.00102
236.747,29.5151,0.009110001,0.4891,0.99996
238.947,29.7247,0.009439993,0.49124,0.9989
241.147,29.93435,0.008771436,0.49051,0.99783
243.347,30.14462,0.009099887,0.49225,0.99676
245.547,30.3537,0.0091,0.49328,0.99568
247.747,30.56278,0.00882323,0.49494,0.9946
249.947,30.7726,0.008421125,0.49636,0.9935
252.147,30.98221,0.00778997,0.49641,0.99241
254.347,31.19125,0.00779,0.49529,0.99131
256.547,31.40118,0.007791504,0.49714,0.9902
258.747,31.6111,0.00646673,0.49834,0.98908
260.947,31.82062,0.00680621,0.49779,0.98796
263.147,32.02835,0.00547986,0.49972,0.98684
265.347,32.24001,0.00647,0.50062,0.9857
267.547,32.4503,0.005150068,0.50274,0.98457
269.747,32.6595,0.00581,0.50374,0.98342
271.947,32.8701,0.004826839,0.50466,0.98227
274.147,33.08016,0.005150046,0.50757,0.98112
276.347,33.29076,0.00515,0.50655,0.97996
278.547,33.50121,0.005150002,0.50772,0.97879
280.747,33.71086,0.006471072,0.51015,0.97762
282.947,33.92132,0.00613833,0.51001,0.97644
285.147,34.1312,0.00614,0.51178,0.97526
287.347,34.34174,0.00713,0.511,0.97407
289.547,34.55265,0.00647,0.51234,0.97287
291.747,34.76325,0.005499043,0.51216,0.97167
293.947,34.97392,0.005490037,0.51168,0.97046
296.147,35.1849,0.00581,0.51259,0.96925
298.347,35.3956,0.004499989,0.51298,0.96803
300.547,35.6055,0.004506027,0.51616,0.9668
302.747,35.81835,0.0045,0.51697,0.96557
304.947,36.02912,0.0045,0.51794,0.96433
307.147,36.23973,0.003179812,0.51766,0.96309
309.347,36.45089,0.003505875,0.51912,0.96184
311.547,36.66213,0.001860039,0.52138,0.96058
313.747,36.87331,0.0005152437,0.52158,0.95932
315.947,37.08408,0.000539993,0.52435,0.95806
318.147,37.29586,-0.00078,0.52205,0.95678
320.347,37.50747,0.0002122296,0.52356,0.95551
322.547,37.7196,-0.002089999,0.52323,0.95422
324.747,37.93118,-0.00143843,0.52458,0.95293
326.947,38.14248,-0.001456888,0.52631,0.95163
329.147,38.35487,-0.00308,0.52688,0.95033
331.347,38.56664,-0.003079733,0.52718,0.94902
333.547,38.7786,-0.004390014,0.52678,0.94771
335.747,38.99069,-0.004754336,0.52834,0.94639
337.947,39.2031,-0.002049891,0.52685,0.94506
340.147,39.41465,-0.00472,0.53149,0.94373
342.347,39.62681,-0.004752898,0.53105,0.94239
344.547,39.83935,-0.00472,0.5334,0.94105
346.747,40.05202,-0.00537895,0.53175,0.9397
348.947,40.26453,-0.00532847,0.53319,0.93834
351.147,40.47745,-0.005381735,0.53222,0.93698
353.347,40.68996,-0.007040566,0.53546,0.93561
355.547,40.90268,-0.00631541,0.53636,0.93424
357.747,41.11567,-0.00668016,0.53823,0.93286
359.947,41.32804,-0.0076904,0.53925,0.93148
362.147,41.541,-0.00768664,0.54348,0.93009
364.347,41.75435,-0.01008545,0.54444,0.92869
366.547,41.96767,-0.009567272,0.5461,0.92729
368.747,42.18118,-0.01032,0.54809,0.92588
370.947,42.3947,-0.01032675,0.55022,0.92446
373.147,42.60844,-0.01064981,0.55501,0.92304
375.347,42.82221,-0.0106469,0.55453,0.92162
377.547,43.03559,-0.01197001,0.56019,0.92018
379.747,43.24944,-0.01329,0.56074,0.91875
381.947,43.46318,-0.01460364,0.56315,0.9173
384.147,43.67674,-0.01592001,0.56652,0.91585
386.347,43.89083,-0.0175159,0.56971,0.9144
388.547,44.10517,-0.01822988,0.5734,0.91294
390.747,44.31953,-0.01954772,0.57658,0.91147
392.947,44.53434,-0.02217424,0.57855,0.90999
395.147,44.74876,-0.02481333,0.58143,0.90852
397.347,44.96301,-0.02516597,0.5843,0.90703
399.547,45.17668,-0.02772862,0.58665,0.90554
401.747,45.39223,-0.03041012,0.58838,0.90404
403.947,45.607,-0.03304884,0.59078,0.90254
406.147,45.8219,-0.03688118,0.59008,0.90103
408.347,46.03626,-0.03700144,0.58956,0.89952
410.547,46.25121,-0.04226947,0.59428,0.898
412.747,46.46544,-0.04532466,0.60382,0.89648
414.947,46.68047,-0.04820216,0.60765,0.89495
417.147,46.89542,-0.05418427,0.61782,0.89341
419.347,47.11084,-0.05819363,0.62449,0.89187
421.547,47.3261,-0.06336195,0.63014,0.89032
423.747,47.5417,-0.06880327,0.63576,0.88877
425.947,47.75703,-0.0743387,0.64561,0.88721
428.147,47.9719,-0.08095145,0.65687,0.88564
430.347,48.18727,-0.09075381,0.66733,0.88407
432.547,48.40262,-0.09894059,0.6772,0.88249
434.747,48.6181,-0.10927,0.69339,0.88091
436.947,48.8339,-0.12234,0.70287,0.87933
439.147,49.04943,-0.13538,0.71987,0.87773
441.347,49.2657,-0.15103,0.73786,0.87613
443.547,49.48111,-0.16723,0.76123,0.87453
445.747,49.6972,-0.18603,0.78507,0.87292
447.947,49.914,-0.21023,0.81152,0.8713
450.147,50.13057,-0.23522,0.84728,0.86968
452.347,50.34729,-0.26523,0.88489,0.86806
454.547,50.5636,-0.30171,0.93544,0.86642
456.747,50.78048,-0.34336,0.98754,0.86479
458.947,50.99706,-0.39524,1.05168,0.86314
461.147,51.21502,-0.45571,1.14476,0.8615
463.347,51.43202,-0.53141,1.20073,0.85984
465.547,51.64972,-0.61192,1.28455,0.85818
467.747,51.8668,-0.71401,1.39759,0.85652
469.947,52.08435,-0.83688,1.52093,0.85485
472.147,52.30247,-0.98411,1.64637,0.85317
474.347,52.52078,-1.15461,1.80563,0.85149
476.547,52.7391,-1.35356,1.94549,0.8498
478.747,52.9578,-1.58244,2.06501,0.84811
480.947,53.1764,-1.83623,2.18424,0.84642
483.147,53.39441,-2.12087,2.25807,0.84471
485.347,53.61076,-2.41773,2.26609,0.84301
487.547,53.8295,-2.73283,2.19645,0.84129
489.747,54.0472,-3.03209,2.0345,0.83958
491.947,54.2632,-3.31432,1.75504,0.83785
494.147,54.47691,-3.55012,1.39882,0.83613
496.347,54.69132,-3.73348,1.00001,0.83439
498.547,54.90515,-3.86202,0.62022,0.83265
500.747,55.1186,-3.93819,0.3307,0.83091
502.947,55.33355,-3.97639,0.14837,0.82916
505.147,55.54865,-3.99249,0.06019963,0.82741
507.347,55.7646,-4.00041,0.02513701,0.82565
509.547,55.9808,-4.00319,0.01440757,0.82388
511.747,56.1975,-4.0048,0.01053932,0.82212
513.947,56.4138,-4.00604,0.0456137,0.82034
516.147,56.6312,-4.00743,0.05266179,0.81856
518.347,56.8495,-4.00875,0.03104459,0.81678
520.547,57.0679,-4.01007,0.0144459,0.81499
522.747,57.28626,-4.01138,0.004786124,0.8132
524.947,57.505,-4.01269,-0.00357737,0.8114
527.147,57.7239,-4.01273,-0.00763341,0.80959
529.347,57.9418,-4.01368,-0.009994404,0.80779
531.547,58.161,-4.01335,-0.01400206,0.80597
533.747,58.3794,-4.01369,-0.01661184,0.80416
535.947,58.59884,-4.015,-0.02567877,0.80233
538.147,58.81769,-4.01369,-0.03003992,0.80051
540.347,59.0366,-4.01369,-0.03085184,0.79867
542.547,59.2552,-4.015,-0.03223091,0.79684
544.747,59.4739,-4.01434,-0.03249297,0.795
546.947,59.6928,-4.01399,-0.03591046,0.79315
549.147,59.911,-4.01533,-0.0372687,0.7913
550.047,59.9991,-4.01533,-0.03866047,0.79054