Folder: fsri_materials_database/01_Data/PEX_Pipe/STA/N2/10K_min (part 2)

File: PEX_Pipe_STA_N2_10KData_220713_R3.csv
##Temp./Â°C,Time/min,Mass loss(subtr.2)/mg,DSC(subtr.2)/(mW/mg),Sensit./(uV/mW)
49.575,10.00917,0.03447,0.001743006,1.07021
51.775,11.14754,0.03863989,0.12592,1.06961
53.975,11.50872,0.0371979,0.19708,1.069
56.175,11.80466,0.03755817,0.24627,1.06838
58.375,12.07293,0.03996286,0.27896,1.06776
60.575,12.32691,0.04084088,0.29846,1.06713
62.775,12.57361,0.04042169,0.30562,1.0665
64.975,12.81462,0.04168362,0.30787,1.06587
67.175,13.05344,0.04303513,0.30734,1.06523
69.375,13.2892,0.04302985,0.30611,1.06458
71.575,13.52311,0.04434862,0.30981,1.06393
73.775,13.7546,0.04434998,0.30964,1.06327
75.975,13.98439,0.04542268,0.30888,1.06261
78.175,14.2137,0.04435107,0.31235,1.06195
80.375,14.4405,0.04435808,0.31483,1.06127
82.575,14.66526,0.04576115,0.31471,1.0606
84.775,14.8884,0.04565997,0.31745,1.05992
86.975,15.1107,0.0469907,0.31831,1.05923
89.175,15.3293,0.04699,0.32073,1.05854
91.375,15.5511,0.04702802,0.326,1.05784
93.575,15.77069,0.04699471,0.32587,1.05714
95.775,15.9891,0.04698005,0.32878,1.05643
97.975,16.2066,0.04698046,0.33241,1.05572
100.175,16.42257,0.04566801,0.33844,1.055
102.375,16.63936,0.04698974,0.34715,1.05428
104.575,16.85494,0.04698,0.35716,1.05355
106.775,17.06895,0.04729514,0.37137,1.05282
108.975,17.28624,0.04757351,0.3899,1.05208
111.175,17.50049,0.0482989,0.4149,1.05134
113.375,17.71614,0.04829305,0.45333,1.05059
115.575,17.92967,0.0483,0.50145,1.04984
117.775,18.14697,0.04952908,0.58562,1.04908
119.975,18.36213,0.04960999,0.72187,1.04831
122.175,18.57828,0.04961998,0.95744,1.04754
124.375,18.7955,0.05093987,1.41315,1.04677
126.575,19.0153,0.05094204,1.92404,1.04599
128.775,19.23713,0.05225121,2.28033,1.0452
130.975,19.45682,0.05111968,2.08498,1.04441
133.175,19.67151,0.05093664,1.49934,1.04362
135.375,19.88114,0.05233377,0.85754,1.04282
137.575,20.08784,0.05226418,0.54051,1.04201
139.775,20.29438,0.0520283,0.42824,1.0412
141.975,20.50256,0.053349,0.39028,1.04038
144.175,20.7107,0.05181,0.37972,1.03956
146.375,20.9199,0.05313,0.37586,1.03873
148.575,21.12903,0.05312611,0.37222,1.0379
150.775,21.33795,0.05436718,0.36975,1.03706
152.975,21.5482,0.05312999,0.37302,1.03621
155.175,21.75771,0.05444126,0.37241,1.03536
157.375,21.96753,0.05246951,0.37282,1.03451
159.575,22.1774,0.05346006,0.37424,1.03365
161.775,22.38745,0.05476527,0.37653,1.03278
163.975,22.59778,0.05378952,0.37568,1.03191
166.175,22.80777,0.05412,0.37576,1.03104
168.375,23.01761,0.05411341,0.37631,1.03015
170.575,23.2278,0.05378995,0.37772,1.02927
172.775,23.438,0.05486834,0.37844,1.02837
174.975,23.648,0.05509699,0.37827,1.02747
177.175,23.85853,0.05279983,0.37833,1.02657
179.375,24.06829,0.05412167,0.37868,1.02566
181.575,24.27729,0.05511001,0.37933,1.02475
183.775,24.48694,0.05413424,0.38161,1.02382
185.975,24.6966,0.05543951,0.38051,1.0229
188.175,24.9059,0.05421811,0.38195,1.02197
190.375,25.1156,0.05277798,0.38058,1.02103
192.575,25.32449,0.05543023,0.38222,1.02009
194.775,25.5348,0.05345311,0.38169,1.01914
196.975,25.74425,0.05411362,0.38248,1.01818
199.175,25.9533,0.05543944,0.38342,1.01722
201.375,26.16244,0.05474501,0.38568,1.01626
203.575,26.37153,0.05544,0.38562,1.01529
205.775,26.58062,0.05444922,0.38675,1.01431
207.975,26.78925,0.05576013,0.38767,1.01333
210.175,26.99751,0.05412112,0.38862,1.01234
212.375,27.2068,0.05430188,0.38827,1.01135
214.575,27.41589,0.05544,0.38863,1.01035
216.775,27.62551,0.05500399,0.38889,1.00935
218.975,27.8351,0.0563237,0.38981,1.00834
221.175,28.04441,0.055,0.38863,1.00732
223.375,28.2535,0.05389861,0.39019,1.0063
225.575,28.46285,0.05529427,0.39073,1.00527
227.775,28.67193,0.05505367,0.39189,1.00424
229.975,28.8803,0.05500153,0.39324,1.0032
232.175,29.08946,0.05501365,0.39255,1.00215
234.375,29.29942,0.05466,0.39352,1.0011
236.575,29.5085,0.05367994,0.39306,1.00005
238.775,29.7182,0.05433587,0.39614,0.99899
240.975,29.9273,0.05566001,0.39385,0.99792
243.175,30.137,0.054334,0.39449,0.99684
245.375,30.34651,0.05565899,0.39628,0.99577
247.575,30.5554,0.05435987,0.39549,0.99468
249.775,30.76397,0.05429119,0.39431,0.99359
251.975,30.97349,0.05467,0.39624,0.99249
254.175,31.184,0.05596625,0.39566,0.99139
256.375,31.3931,0.0533495,0.39499,0.99028
258.575,31.6025,0.05454743,0.39462,0.98917
260.775,31.81226,0.05367884,0.39471,0.98805
262.975,32.02236,0.05336,0.39281,0.98692
265.175,32.23223,0.05336,0.39173,0.98579
267.375,32.44252,0.05237198,0.39186,0.98466
269.575,32.65238,0.05237043,0.3937,0.98351
271.775,32.86244,0.05269,0.39198,0.98236
273.975,33.07223,0.0528736,0.39446,0.98121
276.175,33.2821,0.05368,0.39293,0.98005
278.375,33.49217,0.05205992,0.39358,0.97888
280.575,33.70235,0.05235937,0.39354,0.97771
282.775,33.9123,0.05235999,0.39503,0.97653
284.975,34.12293,0.05121561,0.39601,0.97535
287.175,34.3328,0.05103998,0.39452,0.97416
289.375,34.543,0.05032585,0.39744,0.97296
291.575,34.75332,0.05202846,0.39746,0.97176
293.775,34.96423,0.05072,0.39801,0.97055
295.975,35.1746,0.05071999,0.39844,0.96934
298.175,35.38619,0.04973187,0.39761,0.96812
300.375,35.59707,0.04842371,0.39988,0.9669
302.575,35.80835,0.04907,0.39986,0.96567
304.775,36.01938,0.04907,0.3996,0.96443
306.975,36.23128,0.04806622,0.40092,0.96319
309.175,36.4424,0.04806903,0.40113,0.96194
311.375,36.6534,0.04807946,0.40188,0.96068
313.575,36.86544,0.04939993,0.40305,0.95942
315.775,37.0773,0.04808001,0.40096,0.95816
317.975,37.2885,0.04839842,0.40077,0.95688
320.175,37.50008,0.04775019,0.40229,0.95561
322.375,37.71073,0.04676,0.40506,0.95432
324.575,37.92202,0.04676,0.40722,0.95303
326.775,38.1336,0.04674708,0.4086,0.95174
328.975,38.34496,0.04507545,0.40918,0.95043
331.175,38.5555,0.04611001,0.40854,0.94913
333.375,38.7669,0.04611015,0.41151,0.94781
335.575,38.97807,0.04479,0.41461,0.94649
337.775,39.19061,0.04369346,0.41795,0.94517
339.975,39.40368,0.04413182,0.42018,0.94383
342.175,39.61653,0.04347019,0.42331,0.9425
344.375,39.82943,0.04247428,0.42889,0.94115
346.575,40.04197,0.04215,0.43548,0.9398
348.775,40.25396,0.04215,0.43973,0.93845
350.975,40.46739,0.04090012,0.44835,0.93709
353.175,40.68123,0.04083,0.46379,0.93572
355.375,40.89315,0.04115998,0.48175,0.93435
357.575,41.10461,0.04181999,0.50505,0.93297
359.775,41.31888,0.04051,0.51119,0.93159
361.975,41.53248,0.03917863,0.51566,0.93019
364.175,41.7453,0.0382,0.51863,0.9288
366.375,41.95843,0.03820268,0.52312,0.9274
368.575,42.17129,0.03655012,0.52581,0.92599
370.775,42.38577,0.03568238,0.52758,0.92457
372.975,42.59963,0.03554199,0.53038,0.92315
375.175,42.81344,0.03491998,0.53055,0.92173
377.375,43.02796,0.03226999,0.53532,0.9203
379.575,43.24185,0.03293028,0.54022,0.91886
381.775,43.45629,0.03163476,0.54101,0.91742
383.975,43.67065,0.0302856,0.54661,0.91597
386.175,43.88443,0.02764704,0.54952,0.91451
388.375,44.09903,0.02633999,0.55509,0.91305
390.575,44.31328,0.025021,0.5586,0.91158
392.775,44.52704,0.02239622,0.56482,0.91011
394.975,44.74033,0.02008001,0.56751,0.90863
397.175,44.95567,0.01746839,0.5698,0.90715
399.375,45.16949,0.01613,0.57361,0.90566
401.575,45.38389,0.01351317,0.57931,0.90416
403.775,45.59853,0.009886308,0.58194,0.90266
405.975,45.8132,0.00820773,0.58214,0.90115
408.175,46.02767,0.00590279,0.58206,0.89964
410.375,46.24248,0.00196633,0.58469,0.89812
412.575,46.4572,-0.001977258,0.59035,0.8966
414.775,46.6723,-0.00594681,0.59394,0.89507
416.975,46.88711,-0.008573605,0.60288,0.89353
419.175,47.10279,-0.01391258,0.6098,0.89199
421.375,47.31733,-0.01855476,0.62053,0.89044
423.575,47.53256,-0.02658265,0.63112,0.88889
425.775,47.74804,-0.03076111,0.64232,0.88733
427.975,47.96247,-0.0382147,0.6582,0.88576
430.175,48.17781,-0.0475771,0.67263,0.88419
432.375,48.39475,-0.0579444,0.68336,0.88262
434.575,48.61059,-0.06918771,0.70026,0.88104
436.775,48.82574,-0.08352353,0.71392,0.87945
438.975,49.04215,-0.098257,0.73305,0.87786
441.175,49.25797,-0.11499,0.75664,0.87626
443.375,49.47419,-0.13255,0.77703,0.87465
445.575,49.69044,-0.15632,0.80074,0.87305
447.775,49.90688,-0.18191,0.82776,0.87143
449.975,50.12165,-0.21213,0.85946,0.86981
452.175,50.33883,-0.24696,0.90023,0.86818
454.375,50.55558,-0.28669,0.94408,0.86655
456.575,50.77241,-0.3349,0.99689,0.86492
458.775,50.9888,-0.39194,1.05906,0.86327
460.975,51.20592,-0.45883,1.13048,0.86162
463.175,51.42233,-0.5366,1.21154,0.85997
465.375,51.6398,-0.62741,1.30303,0.85831
467.575,51.8568,-0.73903,1.41032,0.85665
469.775,52.07438,-0.86826,1.53007,0.85498
471.975,52.29326,-1.02376,1.66,0.8533
474.175,52.5115,-1.20396,1.80088,0.85162
476.375,52.73064,-1.41956,1.9346,0.84994
478.575,52.95,-1.65759,2.04547,0.84825
480.775,53.16867,-1.9257,2.13205,0.84655
482.975,53.38763,-2.21184,2.18706,0.84485
485.175,53.6052,-2.51709,2.17678,0.84314
487.375,53.82298,-2.82211,2.08179,0.84143
489.575,54.03963,-3.11626,1.88808,0.83971
491.775,54.25515,-3.37979,1.60892,0.83799
493.975,54.46989,-3.59759,1.26224,0.83626
496.175,54.6838,-3.766,0.89381,0.83453
498.375,54.8971,-3.87616,0.56815,0.83279
500.575,55.11056,-3.93855,0.32562,0.83105
502.775,55.32435,-3.97291,0.18108,0.8293
504.975,55.53971,-3.98617,0.11288,0.82754
507.175,55.75557,-3.99201,0.08307733,0.82579
509.375,55.9718,-3.99574,0.07339027,0.82402
511.575,56.1883,-3.99623,0.07210917,0.82225
513.775,56.40419,-3.99787,0.11088,0.82048
515.975,56.62163,-3.99792,0.10925,0.8187
518.175,56.84015,-3.99985,0.08758832,0.81692
520.375,57.059,-4.00116,0.06247323,0.81513
522.575,57.27776,-4.0005,0.04726507,0.81334
524.775,57.49665,-4.00182,0.04328615,0.81154
526.975,57.71516,-4.00117,0.04662553,0.80974
529.175,57.93405,-4.00117,0.05563054,0.80793
531.375,58.15198,-4.00117,0.06773597,0.80611
533.575,58.36975,-4.00249,0.07887276,0.8043
535.775,58.59065,-4.00117,0.08661223,0.80248
537.975,58.80947,-4.00249,0.09067499,0.80065
540.175,59.0281,-4.00381,0.09236144,0.79882
542.375,59.2469,-4.00183,0.0966013,0.79698
544.575,59.46575,-4.00386,0.10055,0.79514
546.775,59.68414,-4.00347,0.105,0.79329
548.975,59.9034,-4.00442,0.10668,0.79144
549.875,59.99409,-4.00446,0.11033,0.79069