Folder: fsri_materials_database/01_Data/Masonite_Board/FTIR/IS

Note: 01_Data/README.md
# Materials and Products Database
## 01_Data

Raw data generated from each apparatus are included here in plain-text format. The data is organized first by material, next by the short name of test apparatus used, and where applicable additional filtering by test settings.

### material.json

Each material directory contains a json file of the same name as the material. This file links the data stored in the repository as well as data and graphs produced by the accompanying scripts (__02_Scripts__) to the respective landing page for the material on the front-end website.

File: Masonite_Board_IS_S_220818_R1.dpt
7497.01,0.73279
7473.87,0.72887
7450.72,0.72028
7427.58,0.71064
7404.43,0.69796
7381.29,0.69975
7358.14,0.69258
7335,0.68062
7311.85,0.67552
7288.71,0.67646
7265.56,0.67598
7242.42,0.67817
7219.27,0.67079
7196.13,0.66454
7172.99,0.66191
7149.84,0.64458
7126.7,0.63107
7103.55,0.61650
7080.41,0.59795
7057.26,0.57751
7034.12,0.55931
7010.97,0.54526
6987.83,0.53450
6964.68,0.52838
6941.54,0.51828
6918.39,0.51677
6895.25,0.51706
6872.1,0.51516
6848.96,0.51265
6825.81,0.51108
6802.67,0.50975
6779.52,0.51059
6756.38,0.51103
6733.23,0.51193
6710.09,0.51512
6686.94,0.51276
6663.8,0.51951
6640.65,0.52262
6617.51,0.52860
6594.36,0.53466
6571.22,0.53920
6548.07,0.54043
6524.93,0.54195
6501.78,0.54146
6478.64,0.53912
6455.49,0.54460
6432.35,0.54576
6409.2,0.54780
6386.06,0.54755
6362.91,0.54905
6339.77,0.55271
6316.62,0.55517
6293.48,0.55477
6270.33,0.56309
6247.19,0.56835
6224.04,0.57837
6200.9,0.58375
6177.76,0.59345
6154.61,0.59716
6131.47,0.60358
6108.32,0.60560
6085.18,0.60513
6062.03,0.60268
6038.89,0.60000
6015.74,0.59660
5992.6,0.59374
5969.45,0.58941
5946.31,0.58871
5923.16,0.58533
5900.02,0.58077
5876.87,0.57554
5853.73,0.57560
5830.58,0.57233
5807.44,0.56603
5784.29,0.56697
5761.15,0.57034
5738,0.57581
5714.86,0.57579
5691.71,0.57328
5668.57,0.57081
5645.42,0.57120
5622.28,0.57075
5599.13,0.56964
5575.99,0.57234
5552.84,0.57458
5529.7,0.57626
5506.55,0.57697
5483.41,0.57782
5460.26,0.58062
5437.12,0.58526
5413.97,0.59189
5390.83,0.59044
5367.68,0.58944
5344.54,0.58652
5321.39,0.57134
5298.25,0.54300
5275.1,0.49649
5251.96,0.44618
5228.81,0.41243
5205.67,0.40018
5182.53,0.40097
5159.38,0.41202
5136.24,0.42650
5113.09,0.44017
5089.95,0.45395
5066.8,0.46694
5043.66,0.47795
5020.51,0.48732
4997.37,0.49201
4974.22,0.48949
4951.08,0.47785
4927.93,0.46008
4904.79,0.44071
4881.64,0.42033
4858.5,0.40277
4835.35,0.38786
4812.21,0.37541
4789.06,0.36728
4765.92,0.36058
4742.77,0.35807
4719.63,0.36049
4696.48,0.36381
4673.34,0.37074
4650.19,0.38025
4627.05,0.38917
4603.9,0.39852
4580.76,0.40632
4557.61,0.41291
4534.47,0.41792
4511.32,0.41891
4488.18,0.40795
4465.03,0.38319
4441.89,0.35388
4418.74,0.32620
4395.6,0.31744
4372.45,0.33011
4349.31,0.33424
4326.16,0.32418
4303.02,0.31863
4279.87,0.31201
4256.73,0.31420
4233.58,0.31726
4210.44,0.31836
4187.3,0.31870
4164.15,0.32412
4141.01,0.31955
4117.86,0.30726
4094.72,0.29091
4071.57,0.27297
4048.43,0.25370
4025.28,0.24139
4002.14,0.24259
3978.99,0.24759
3955.85,0.25486
3932.7,0.26470
3909.56,0.27258
3886.41,0.28078
3863.27,0.29015
3840.12,0.30039
3816.98,0.30222
3793.83,0.29931
3770.69,0.29450
3747.54,0.28735
3724.4,0.26947
3701.25,0.23835
3678.11,0.18749
3654.96,0.13128
3631.82,0.09924
3608.67,0.08160
3585.53,0.07020
3562.38,0.06177
3539.24,0.05620
3516.09,0.05298
3492.95,0.05007
3469.8,0.04804
3446.66,0.04695
3423.51,0.04666
3400.37,0.04796
3377.22,0.04755
3354.08,0.04864
3330.93,0.05165
3307.79,0.05374
3284.64,0.05613
3261.5,0.06057
3238.35,0.06478
3215.21,0.06927
3192.07,0.07249
3168.92,0.07745
3145.78,0.08248
3122.63,0.08734
3099.49,0.09206
3076.34,0.09670
3053.2,0.10119
3030.05,0.10341
3006.91,0.09843
2983.76,0.09130
2960.62,0.07713
2937.47,0.07163
2914.33,0.06994
2891.18,0.07227
2868.04,0.07625
2844.89,0.08194
2821.75,0.10080
2798.6,0.11251
2775.46,0.11748
2752.31,0.11916
2729.17,0.11971
2706.02,0.12541
2682.88,0.13229
2659.73,0.13574
2636.59,0.13969
2613.44,0.14435
2590.3,0.14783
2567.15,0.14950
2544.01,0.14996
2520.86,0.15305
2497.72,0.15968
2474.57,0.16566
2451.43,0.16987
2428.28,0.17682
2405.14,0.18556
2381.99,0.19198
2358.85,0.19828
2335.7,0.20328
2312.56,0.20505
2289.41,0.20354
2266.27,0.19969
2243.12,0.19222
2219.98,0.19337
2196.84,0.19186
2173.69,0.18017
2150.55,0.17011
2127.4,0.16792
2104.26,0.17134
2081.11,0.17369
2057.97,0.17198
2034.82,0.17583
2011.68,0.18558
1988.53,0.19137
1965.39,0.19186
1942.24,0.19400
1919.1,0.20397
1895.95,0.20589
1872.81,0.20378
1849.66,0.19714
1826.52,0.18615
1803.37,0.16500
1780.23,0.13607
1757.08,0.08052
1733.94,0.06940
1710.79,0.08448
1687.65,0.08904
1664.5,0.07749
1641.36,0.07402
1618.21,0.07003
1595.07,0.06324
1571.92,0.09127
1548.78,0.09806
1525.63,0.07687
1502.49,0.05978
1479.34,0.06248
1456.2,0.05406
1433.05,0.05147
1409.91,0.05951
1386.76,0.05317
1363.62,0.05268
1340.47,0.05103
1317.33,0.05393
1294.18,0.05693
1271.04,0.05084
1247.89,0.04859
1224.75,0.05293
1201.61,0.05272
1178.46,0.04272
1155.32,0.05143
1132.17,0.04022
1109.03,0.05377
1085.88,0.04782
1062.74,0.07487
1039.59,0.08505
1016.45,0.09476
993.301,0.09447
970.156,0.10548
947.011,0.11608
923.867,0.10784
900.722,0.09644
877.577,0.10324
854.432,0.10043
831.287,0.09376
808.142,0.09206
784.997,0.08704
761.852,0.07890
738.708,0.07088
715.563,0.06411
692.418,0.06371
669.273,0.06195
646.128,0.06176
622.983,0.06020
599.838,0.06491

File: Masonite_Board_IS_S_220818_R2.dpt
7497.03,0.73069
7473.89,0.72429
7450.74,0.72027
7427.6,0.70192
7404.45,0.69467
7381.31,0.69179
7358.16,0.69283
7335.02,0.68438
7311.87,0.66862
7288.73,0.67277
7265.58,0.67016
7242.44,0.67528
7219.29,0.67501
7196.15,0.65723
7173,0.65843
7149.86,0.64025
7126.71,0.62827
7103.57,0.61047
7080.42,0.59222
7057.28,0.57525
7034.13,0.55392
7010.99,0.53892
6987.84,0.52411
6964.7,0.52377
6941.55,0.52109
6918.41,0.51975
6895.26,0.51576
6872.12,0.50926
6848.97,0.51181
6825.83,0.50975
6802.68,0.50583
6779.54,0.50352
6756.39,0.51098
6733.25,0.51272
6710.1,0.50923
6686.96,0.51100
6663.82,0.52230
6640.67,0.52039
6617.53,0.52551
6594.38,0.52613
6571.24,0.53634
6548.09,0.53501
6524.95,0.53688
6501.8,0.53782
6478.66,0.53620
6455.51,0.53690
6432.37,0.54222
6409.22,0.54104
6386.08,0.54374
6362.93,0.54727
6339.79,0.55256
6316.64,0.54896
6293.5,0.55366
6270.35,0.56083
6247.21,0.56822
6224.06,0.57344
6200.92,0.58073
6177.77,0.58552
6154.63,0.59246
6131.48,0.59943
6108.34,0.60262
6085.19,0.60142
6062.05,0.60075
6038.9,0.59766
6015.76,0.59446
5992.61,0.58685
5969.47,0.58625
5946.32,0.58471
5923.18,0.58251
5900.03,0.57599
5876.89,0.57312
5853.74,0.57285
5830.6,0.56933
5807.45,0.56343
5784.31,0.56180
5761.16,0.56975
5738.02,0.57032
5714.87,0.57259
5691.73,0.56884
5668.58,0.56811
5645.44,0.56793
5622.29,0.56804
5599.15,0.56723
5576,0.56641
5552.86,0.57019
5529.71,0.57227
5506.57,0.57336
5483.42,0.57404
5460.28,0.57834
5437.13,0.58266
5413.99,0.58826
5390.84,0.58860
5367.7,0.58528
5344.55,0.58286
5321.41,0.57017
5298.26,0.54160
5275.12,0.49632
5251.97,0.44696
5228.83,0.41385
5205.68,0.40284
5182.54,0.40487
5159.39,0.41471
5136.25,0.42917
5113.1,0.44227
5089.96,0.45650
5066.81,0.46742
5043.67,0.47865
5020.52,0.48873
4997.38,0.49150
4974.23,0.48787
4951.09,0.47700
4927.94,0.45867
4904.8,0.43730
4881.65,0.41509
4858.51,0.39760
4835.36,0.38290
4812.22,0.37140
4789.07,0.36193
4765.93,0.35621
4742.78,0.35433
4719.64,0.35603
4696.49,0.35944
4673.35,0.36720
4650.2,0.37546
4627.06,0.38557
4603.92,0.39436
4580.77,0.40285
4557.63,0.40955
4534.48,0.41407
4511.34,0.41582
4488.19,0.40424
4465.05,0.37926
4441.9,0.34952
4418.76,0.32178
4395.61,0.31269
4372.47,0.32486
4349.32,0.32885
4326.18,0.31867
4303.03,0.31369
4279.89,0.30715
4256.74,0.30940
4233.6,0.31278
4210.45,0.31419
4187.31,0.31457
4164.16,0.31971
4141.02,0.31570
4117.87,0.30428
4094.73,0.28680
4071.58,0.26905
4048.44,0.24974
4025.29,0.23703
4002.15,0.23889
3979,0.24365
3955.86,0.25131
3932.71,0.26089
3909.57,0.26936
3886.42,0.27693
3863.28,0.28577
3840.13,0.29564
3816.99,0.29792
3793.84,0.29695
3770.7,0.29244
3747.55,0.28338
3724.41,0.26758
3701.26,0.23830
3678.12,0.18804
3654.97,0.13152
3631.83,0.10114
3608.68,0.08280
3585.54,0.07007
3562.39,0.06102
3539.25,0.05519
3516.1,0.05234
3492.96,0.04907
3469.81,0.04703
3446.67,0.04620
3423.52,0.04666
3400.38,0.04616
3377.23,0.04703
3354.09,0.04735
3330.94,0.05003
3307.8,0.05247
3284.65,0.05518
3261.51,0.05874
3238.36,0.06375
3215.22,0.06761
3192.07,0.07183
3168.93,0.07704
3145.78,0.08129
3122.64,0.08585
3099.49,0.09089
3076.35,0.09546
3053.2,0.10021
3030.06,0.10186
3006.91,0.09645
2983.77,0.08863
2960.62,0.07461
2937.48,0.06872
2914.33,0.06769
2891.19,0.07010
2868.04,0.07362
2844.9,0.07935
2821.75,0.09777
2798.61,0.10997
2775.46,0.11465
2752.32,0.11628
2729.17,0.11731
2706.03,0.12251
2682.88,0.12961
2659.74,0.13275
2636.59,0.13683
2613.45,0.14175
2590.3,0.14520
2567.16,0.14656
2544.02,0.14732
2520.87,0.15080
2497.73,0.15708
2474.58,0.16320
2451.44,0.16741
2428.29,0.17437
2405.15,0.18277
2382,0.18969
2358.86,0.19633
2335.71,0.20152
2312.57,0.20303
2289.42,0.20166
2266.28,0.19810
2243.13,0.19092
2219.99,0.19209
2196.84,0.19135
2173.7,0.17930
2150.55,0.16886
2127.41,0.16731
2104.26,0.17037
2081.12,0.17292
2057.97,0.17143
2034.83,0.17513
2011.68,0.18535
1988.54,0.19099
1965.39,0.19118
1942.25,0.19336
1919.1,0.20282
1895.96,0.20538
1872.81,0.20293
1849.67,0.19582
1826.52,0.18442
1803.38,0.16340
1780.23,0.13342
1757.09,0.07757
1733.94,0.06777
1710.8,0.08306
1687.65,0.08827
1664.51,0.07790
1641.36,0.07428
1618.22,0.06933
1595.07,0.06276
1571.93,0.08999
1548.78,0.09681
1525.64,0.07528
1502.49,0.05849
1479.35,0.06132
1456.2,0.05256
1433.06,0.05082
1409.91,0.05874
1386.77,0.05292
1363.62,0.05179
1340.48,0.05038
1317.33,0.05315
1294.19,0.05601
1271.04,0.05075
1247.9,0.04759
1224.75,0.05223
1201.61,0.05214
1178.46,0.04207
1155.32,0.05019
1132.17,0.03884
1109.03,0.05341
1085.88,0.04763
1062.74,0.07390
1039.59,0.08536
1016.45,0.09419
993.304,0.09427
970.159,0.10520
947.014,0.11527
923.869,0.10820
900.724,0.09595
877.579,0.10271
854.434,0.10079
831.289,0.09489
808.144,0.09415
784.999,0.08843
761.854,0.07972
738.709,0.07176
715.565,0.06408
692.42,0.06477
669.275,0.06302
646.13,0.06041
622.985,0.05965
599.84,0.06661

File: Masonite_Board_IS_T_220818_R1.dpt
7497.03,0.02912
7473.89,0.02449
7450.74,0.02851
7427.6,0.01958
7404.45,0.01296
7381.31,0.02590
7358.16,0.02098
7335.02,0.02909
7311.87,0.01913
7288.73,0.01846
7265.58,0.02378
7242.44,0.02094
7219.29,0.01837
7196.15,0.01872
7173,0.02309
7149.86,0.02735
7126.71,0.02059
7103.57,0.02153
7080.42,0.01463
7057.28,0.01997
7034.13,0.02228
7010.99,0.02646
6987.84,0.02063
6964.7,0.02197
6941.55,0.02268
6918.41,0.02112
6895.26,0.01565
6872.12,0.01797
6848.97,0.02311
6825.83,0.01916
6802.68,0.01836
6779.54,0.02158
6756.39,0.02050
6733.25,0.01752
6710.1,0.01810
6686.96,0.02065
6663.82,0.02211
6640.67,0.01906
6617.53,0.02218
6594.38,0.02111
6571.24,0.01749
6548.09,0.01662
6524.95,0.02163
6501.8,0.02213
6478.66,0.01836
6455.51,0.02251
6432.37,0.02071
6409.22,0.01829
6386.08,0.01972
6362.93,0.01985
6339.79,0.02035
6316.64,0.01825
6293.5,0.01771
6270.35,0.02117
6247.21,0.01762
6224.06,0.02093
6200.92,0.02143
6177.77,0.01988
6154.63,0.01932
6131.48,0.01822
6108.34,0.02031
6085.19,0.01839
6062.05,0.01887
6038.9,0.02001
6015.76,0.01767
5992.61,0.01877
5969.47,0.01853
5946.32,0.01632
5923.18,0.01851
5900.03,0.01906
5876.89,0.01489
5853.74,0.02244
5830.6,0.01967
5807.45,0.01902
5784.31,0.01629
5761.16,0.01903
5738.02,0.01912
5714.87,0.01719
5691.73,0.01973
5668.58,0.01724
5645.44,0.01933
5622.29,0.02073
5599.15,0.01718
5576,0.01869
5552.86,0.01969
5529.71,0.01907
5506.57,0.01828
5483.42,0.01934
5460.28,0.01999
5437.13,0.01863
5413.99,0.01898
5390.84,0.01949
5367.7,0.01813
5344.55,0.01915
5321.41,0.01883
5298.26,0.01806
5275.12,0.01912
5251.97,0.01951
5228.83,0.02074
5205.68,0.01908
5182.54,0.02065
5159.39,0.02055
5136.25,0.01841
5113.1,0.01905
5089.96,0.01906
5066.81,0.01967
5043.67,0.01950
5020.52,0.02075
4997.38,0.01910
4974.23,0.01900
4951.09,0.01961
4927.94,0.01936
4904.8,0.02006
4881.65,0.02084
4858.51,0.01900
4835.36,0.01911
4812.22,0.01825
4789.07,0.02005
4765.93,0.01927
4742.78,0.01975
4719.64,0.01914
4696.49,0.01883
4673.35,0.02014
4650.2,0.01883
4627.06,0.01892
4603.92,0.01871
4580.77,0.01987
4557.63,0.01987
4534.48,0.01957
4511.34,0.01946
4488.19,0.01945
4465.05,0.01971
4441.9,0.01941
4418.76,0.01848
4395.61,0.02030
4372.47,0.01959
4349.32,0.01979
4326.18,0.02001
4303.03,0.01915
4279.89,0.01955
4256.74,0.01863
4233.6,0.01922
4210.45,0.01887
4187.31,0.01940
4164.16,0.01947
4141.02,0.01981
4117.87,0.01951
4094.73,0.01900
4071.58,0.01962
4048.44,0.01970
4025.29,0.01963
4002.15,0.01935
3979,0.01960
3955.86,0.01976
3932.71,0.01969
3909.57,0.01968
3886.42,0.01891
3863.28,0.01942
3840.13,0.02021
3816.99,0.01974
3793.84,0.01960
3770.7,0.01954
3747.55,0.01981
3724.41,0.01879
3701.26,0.01956
3678.12,0.01972
3654.97,0.01878
3631.83,0.01857
3608.68,0.01883
3585.54,0.01897
3562.39,0.01780
3539.25,0.01863
3516.1,0.01798
3492.96,0.01771
3469.81,0.01820
3446.67,0.01843
3423.52,0.01807
3400.38,0.01739
3377.23,0.01754
3354.09,0.01735
3330.94,0.01651
3307.8,0.01725
3284.65,0.01809
3261.51,0.01845
3238.36,0.01775
3215.22,0.01760
3192.07,0.01728
3168.93,0.01757
3145.78,0.01730
3122.64,0.01813
3099.49,0.01814
3076.35,0.01763
3053.2,0.01743
3030.06,0.01766
3006.91,0.01698
2983.77,0.01695
2960.62,0.01640
2937.48,0.01669
2914.33,0.01776
2891.19,0.01754
2868.04,0.01746
2844.9,0.01805
2821.75,0.01865
2798.61,0.01834
2775.46,0.01809
2752.32,0.01848
2729.17,0.01839
2706.03,0.01858
2682.88,0.01859
2659.74,0.01807
2636.59,0.01830
2613.45,0.01839
2590.3,0.01828
2567.16,0.01794
2544.02,0.01863
2520.87,0.01819
2497.73,0.01824
2474.58,0.01820
2451.44,0.01813
2428.29,0.01850
2405.15,0.01823
2382,0.01796
2358.86,0.01842
2335.71,0.01827
2312.57,0.01789
2289.42,0.01843
2266.28,0.01827
2243.13,0.01802
2219.99,0.01841
2196.84,0.01820
2173.7,0.01817
2150.55,0.01831
2127.41,0.01840
2104.26,0.01772
2081.12,0.01821
2057.97,0.01770
2034.83,0.01790
2011.68,0.01808
1988.54,0.01790
1965.39,0.01785
1942.25,0.01762
1919.1,0.01814
1895.96,0.01791
1872.81,0.01785
1849.67,0.01769
1826.52,0.01726
1803.38,0.01656
1780.23,0.01615
1757.09,0.01464
1733.94,0.01682
1710.8,0.01769
1687.65,0.01600
1664.51,0.01559
1641.36,0.01556
1618.22,0.01620
1595.07,0.01590
1571.93,0.01559
1548.78,0.01537
1525.64,0.01575
1502.49,0.01570
1479.35,0.01519
1456.2,0.01602
1433.06,0.01584
1409.91,0.01533
1386.77,0.01540
1363.62,0.01525
1340.48,0.01500
1317.33,0.01427
1294.19,0.01462
1271.04,0.01675
1247.9,0.01693
1224.75,0.01623
1201.61,0.01523
1178.46,0.01455
1155.32,0.01423
1132.17,0.01522
1109.03,0.01499
1085.88,0.01514
1062.74,0.01678
1039.59,0.01674
1016.45,0.01688
993.304,0.01850
970.159,0.01730
947.014,0.01650
923.869,0.01639
900.724,0.01595
877.579,0.01676
854.434,0.01563
831.289,0.01581
808.144,0.01607
784.999,0.01629
761.854,0.01498
738.709,0.01522
715.565,0.01491
692.42,0.01536
669.275,0.01235
646.13,0.01365
622.985,0.01237
599.84,0.01199