Folder: fsri_materials_database/01_Data/Cotton_Felt/MCC (part 2)

File: Cotton_Felt_MCC_30K_min_210709_R4.txt
Sample ID:	C:\MCC\MCC Cal\Test\Cotton_Felt\Cotton_Felt_MCC_30K_min_21_07_09_R4.txt
Sample Weight (mg):	4.31
Heating Rate (C/s):	0.5
Combustor Temp (C):	900
N2 Flow Rate (cc/min):	80
O2 Flow Rate (cc/min):	20
Calibration File:	C:\MCC\MCC Cal\Coeff1 JN10440_30_210304.txt.txt
T Correction Coefficients:	0	1.024463	0
Time Shift (s):	14
*
Time (s)	Temperature (C)	N2 flow rate (cc/min)	O2 flow rate (cc/min)	Flow Rate (cc/min)	Oxygen (%)	HRR (W/g)	Heating rate (C/s)
0.000	112.894	79.997	19.995	99.944	20.220	-0.429	-0.045
8.000	112.841	80.000	19.996	99.938	20.210	0.306	0.009
16.000	112.733	79.995	19.995	99.959	20.213	0.080	-0.020
24.000	112.804	79.995	19.996	100.080	20.194	1.470	-0.016
32.000	113.359	79.998	19.996	100.121	20.184	2.235	0.096
40.000	114.457	79.993	19.996	100.130	20.178	2.648	0.196
48.000	115.895	79.994	19.998	100.150	20.171	3.120	0.209
56.000	117.691	79.995	19.997	100.164	20.172	3.068	0.254
64.001	119.811	79.997	19.996	100.163	20.165	3.620	0.264
72.000	122.270	79.996	19.996	100.173	20.171	3.166	0.320
80.000	124.918	79.996	19.996	100.168	20.168	3.339	0.338
88.000	127.763	79.997	19.996	100.170	20.166	3.547	0.379
96.000	130.716	79.997	19.996	100.174	20.171	3.160	0.379
104.000	133.855	79.997	19.996	100.174	20.169	3.302	0.388
112.001	137.138	79.996	19.996	100.183	20.170	3.254	0.422
120.000	140.521	79.997	19.996	100.183	20.163	3.726	0.418
128.000	144.104	79.996	19.996	100.197	20.166	3.551	0.472
136.000	147.708	79.995	19.997	100.189	20.163	3.732	0.472
144.000	151.340	79.996	19.997	100.198	20.166	3.506	0.439
152.000	155.147	79.995	19.996	100.186	20.165	3.577	0.496
160.000	158.959	79.995	19.996	100.191	20.158	4.121	0.480
168.000	162.898	79.998	19.995	100.181	20.167	3.447	0.515
176.000	166.772	79.996	19.996	100.172	20.166	3.505	0.482
184.000	170.773	79.997	19.996	100.176	20.166	3.545	0.460
192.000	174.763	80.000	19.996	100.167	20.164	3.678	0.482
200.000	178.690	79.996	19.996	100.163	20.166	3.509	0.496
208.000	182.758	79.998	19.997	100.166	20.165	3.562	0.516
216.000	186.811	79.997	19.998	100.167	20.162	3.782	0.533
224.000	190.841	79.996	19.996	100.168	20.167	3.443	0.520
232.000	194.806	79.995	19.998	100.168	20.161	3.901	0.508
240.000	198.845	79.996	19.996	100.166	20.167	3.444	0.495
248.000	202.840	79.997	19.996	100.151	20.168	3.340	0.516
256.001	206.733	79.997	19.996	100.142	20.164	3.687	0.487
264.000	210.722	79.996	19.996	100.132	20.163	3.749	0.507
272.000	214.629	79.998	19.996	100.137	20.160	3.980	0.488
280.000	218.501	79.995	19.995	100.145	20.159	4.058	0.486
288.000	222.395	79.994	19.997	100.146	20.147	4.859	0.495
296.000	226.269	79.995	19.996	100.156	20.154	4.377	0.447
304.000	230.249	79.997	19.996	100.170	20.141	5.321	0.510
312.000	234.163	79.994	19.997	100.155	20.142	5.223	0.470
320.000	238.181	79.996	19.998	100.157	20.137	5.624	0.518
328.000	242.089	79.998	19.996	100.156	20.128	6.296	0.482
336.000	246.005	79.997	19.995	100.162	20.124	6.543	0.514
344.000	249.968	79.997	19.996	100.169	20.110	7.554	0.527
352.000	253.942	79.997	19.995	100.173	20.100	8.323	0.501
360.000	257.896	79.995	19.995	100.178	20.090	8.997	0.486
368.000	261.914	79.995	19.997	100.176	20.076	10.024	0.503
376.000	265.931	79.994	19.995	100.196	20.063	10.977	0.535
384.000	269.931	79.996	19.996	100.197	20.045	12.268	0.490
392.000	274.043	79.994	19.995	100.214	20.025	13.714	0.533
400.000	278.039	79.995	19.997	100.207	20.001	15.493	0.479
408.000	282.088	79.997	19.998	100.239	19.968	17.903	0.498
416.000	286.115	79.996	19.996	100.247	19.931	20.551	0.498
424.000	290.096	79.998	19.996	100.262	19.889	23.665	0.511
432.000	294.058	79.998	19.996	100.283	19.851	26.374	0.487
440.000	298.118	79.997	19.997	100.289	19.798	30.257	0.481
448.000	302.111	79.996	19.997	100.313	19.748	33.887	0.504
456.000	306.084	79.995	19.995	100.326	19.696	37.657	0.491
464.000	310.094	79.996	19.997	100.351	19.642	41.617	0.520
472.000	314.132	79.995	19.998	100.365	19.574	46.545	0.488
480.000	318.155	79.995	19.997	100.403	19.513	51.021	0.497
488.000	322.152	79.995	19.996	100.419	19.446	55.894	0.506
496.000	326.163	79.996	19.997	100.444	19.366	61.664	0.476
504.001	330.134	79.998	19.996	100.453	19.292	67.075	0.496
512.000	334.117	79.999	19.996	100.449	19.225	71.936	0.671
520.000	338.165	79.999	19.997	100.471	19.171	75.849	0.466
528.000	342.121	79.996	19.996	100.437	19.148	77.491	0.479
536.000	346.082	79.995	19.996	100.398	19.191	74.299	0.511
544.000	350.130	79.998	19.995	100.311	19.303	66.082	0.509
552.000	354.186	79.995	19.998	100.209	19.504	51.499	0.503
560.001	358.188	79.998	19.998	100.132	19.722	35.666	0.506
568.000	362.252	79.996	19.996	100.123	19.904	22.519	0.514
576.000	366.275	79.994	19.996	100.067	20.014	14.564	0.508
584.000	370.301	79.996	19.998	100.118	20.066	10.732	0.504
592.000	374.427	79.997	19.995	100.105	20.089	9.062	0.518
600.000	378.455	79.995	19.996	100.092	20.104	8.014	0.491
608.000	382.504	79.994	19.995	100.101	20.112	7.409	0.530
616.000	386.535	79.996	19.996	100.095	20.116	7.124	0.514
624.000	390.626	79.996	19.995	100.097	20.120	6.880	0.519
632.000	394.763	79.995	19.997	100.092	20.116	7.149	0.514
640.000	398.781	79.996	19.997	100.088	20.120	6.848	0.492
648.000	402.784	79.998	19.996	100.086	20.123	6.649	0.471
656.000	406.799	79.996	19.997	100.086	20.120	6.844	0.521
664.000	410.761	79.995	19.996	100.089	20.120	6.818	0.492
672.000	414.710	79.997	19.996	100.086	20.127	6.363	0.498
680.000	418.654	79.993	19.995	100.089	20.122	6.697	0.467
688.000	422.701	79.995	19.995	100.091	20.129	6.227	0.491
696.000	426.742	79.995	19.996	100.088	20.120	6.838	0.498
704.000	430.818	79.995	19.995	100.079	20.124	6.560	0.490
712.000	434.971	79.996	19.995	100.089	20.127	6.319	0.505
720.000	439.116	79.997	19.996	100.079	20.126	6.403	0.469
728.000	443.266	79.996	19.996	100.079	20.127	6.318	0.526
736.000	447.359	79.996	19.996	100.067	20.130	6.151	0.532
744.000	451.400	79.997	19.995	100.084	20.128	6.285	0.508
752.000	455.330	79.997	19.996	99.989	20.135	5.789	0.494
760.000	459.326	79.993	19.996	100.076	20.133	5.925	0.485
768.000	463.291	79.996	19.996	100.730	20.140	5.367	0.470
776.000	467.232	79.996	19.995	100.234	20.140	5.421	0.493
784.000	471.255	79.997	19.997	100.089	20.139	5.499	0.535
792.000	475.357	79.995	19.997	100.000	20.136	5.672	0.521
800.000	479.388	79.998	19.996	100.070	20.142	5.223	0.513
808.000	483.484	79.995	19.996	100.075	20.143	5.148	0.513
816.000	487.695	79.994	19.997	100.074	20.145	5.052	0.517
824.000	491.913	79.998	19.997	100.075	20.144	5.100	0.520
832.000	496.129	79.995	19.996	100.066	20.147	4.892	0.524
840.000	500.215	79.995	19.998	100.070	20.147	4.904	0.455
848.000	504.338	79.995	19.997	100.054	20.150	4.680	0.526
856.001	508.344	79.996	19.995	100.068	20.148	4.799	0.475
864.000	512.370	79.996	19.996	100.080	20.145	5.009	0.483
872.000	516.427	79.996	19.996	100.070	20.153	4.431	0.487
880.000	520.456	79.997	19.995	100.329	20.156	4.206	0.522
888.001	524.507	79.996	19.995	100.026	20.151	4.587	0.496
896.000	528.580	79.998	19.995	100.081	20.153	4.444	0.512
904.000	532.668	80.000	19.996	100.079	20.155	4.313	0.513
912.000	536.884	79.997	19.996	100.070	20.157	4.184	0.521
920.000	541.038	79.995	19.995	100.021	20.160	3.968	0.511
928.000	545.186	79.997	19.998	100.068	20.159	3.994	0.519
936.000	549.309	79.994	19.996	100.062	20.158	4.106	0.524
944.000	553.404	79.995	19.996	100.062	20.157	0.135	0.514
952.001	557.453	79.997	19.996	100.053	20.161	-0.115	0.489
4.500	561.427	79.998	19.996	100.065	20.156	0.245	0.515
12.500	565.312	79.996	19.996	100.055	20.161	-0.111	0.492
20.500	569.217	79.998	19.996	100.064	20.162	-0.209	0.495
28.500	573.271	79.998	19.995	100.060	20.162	-0.191	0.514
36.500	577.343	79.995	19.997	100.056	20.162	-0.241	0.486
44.500	581.412	79.994	19.996	100.056	20.160	-0.064	0.517
52.500	585.467	79.995	19.997	100.054	20.162	-0.225	0.513
60.500	589.553	79.994	19.998	100.049	20.161	-0.115	0.488
68.500	593.673	79.995	19.998	100.056	20.165	-0.392	0.505
76.500	597.725	79.998	19.996	100.058	20.162	-0.207	0.497
84.501	601.829	79.997	19.996	100.050	20.166	-0.521	0.549
92.500	605.782	79.998	19.996	100.055	20.162	-0.237	0.518
100.501	609.808	80.000	19.997	100.055	20.164	-0.354	0.502
108.501	613.789	79.996	19.996	100.052	20.162	-0.209	0.479
116.501	617.810	79.995	19.997	100.053	20.164	-0.370	0.487
124.501	621.816	79.994	19.996	100.048	20.160	-0.050	0.490
132.500	625.922	79.994	19.997	100.061	20.164	-0.348	0.494
140.500	630.092	79.994	19.997	100.053	20.163	-0.314	0.508
148.500	634.357	79.995	19.997	100.051	20.163	-0.253	0.521
156.500	638.557	79.994	19.996	100.054	20.165	-0.414	0.530
164.500	642.641	79.998	19.995	100.056	20.166	-0.486	0.497
172.500	646.766	79.994	19.996	100.055	20.164	-0.388	0.495
180.501	650.761	79.997	19.997	100.049	20.164	-0.342	0.479
188.500	654.762	79.996	19.995	100.046	20.164	-0.326	0.493
196.501	658.766	79.996	19.996	100.049	20.164	-0.368	0.491
204.500	662.809	79.996	19.996	100.047	20.165	-0.416	0.489
212.500	666.885	79.995	19.998	100.047	20.165	-0.434	0.496
220.500	670.974	79.996	19.997	100.050	20.168	-0.663	0.490
228.500	675.047	79.994	19.997	100.049	20.167	-0.539	0.482
236.500	679.139	79.996	19.997	100.045	20.167	-0.585	0.503
244.500	683.194	79.997	19.996	100.046	20.167	-0.539	0.528
252.500	687.353	79.998	19.996	100.050	20.171	-0.840	0.510
260.500	691.469	79.996	19.997	100.048	20.168	-0.645	0.506
268.500	695.565	80.000	19.996	100.048	20.165	-0.402	0.511
276.500	699.626	79.997	19.996	100.049	20.163	-0.295	0.506
284.500	703.692	79.997	19.995	100.045	20.162	-0.225	0.505
292.500	707.649	79.993	19.997	100.053	20.168	-0.677	0.516
300.500	711.732	79.994	19.996	100.051	20.165	-0.410	0.517
308.500	715.867	79.994	19.997	100.050	20.165	-0.444	0.522
316.500	719.945	79.995	19.996	100.046	20.164	-0.346	0.527
324.500	723.929	79.998	19.998	100.046	20.161	-0.169	0.481
332.500	727.994	79.997	19.997	100.051	20.166	-0.498	0.498
340.500	732.090	79.998	19.996	100.051	20.166	-0.486	0.533
348.500	736.135	79.998	19.996	100.052	20.166	-0.517	0.524
356.500	740.134	79.995	19.996	100.047	20.163	-0.272	0.501
363.500	743.603	79.995	19.996	100.053	20.167	-0.575	0.497