Folder: fsri_materials_database/01_Data/PLA_3D_Printer_Filament/STA/N2/10K_min

Note: 01_Data/README.md
# Materials and Products Database
## 01_Data

Raw data generated from each apparatus are included here in plain-text format. The data is organized first by material, next by the short name of test apparatus used, and where applicable additional filtering by test settings.

### material.json

Each material directory contains a json file of the same name as the material. This file links the data stored in the repository as well as data and graphs produced by the accompanying scripts (__02_Scripts__) to the respective landing page for the material on the front-end website.

File: PLA_STA_N2_10KData_220503_R1.csv
##Temp./Â°C,Time/min,Mass loss(subtr.2)/mg,DSC(subtr.2)/(mW/mg),Sensit./(uV/mW)
49.98,10.00917,0.00198,-0.006938796,1.06046
52.58,11.21986,0.00336291,0.09796736,1.05992
55.18,11.61646,0.001065665,0.15072,1.05937
57.78,11.94684,0.001519578,0.18736,1.0588
60.38,12.25099,0.002797794,0.21637,1.05822
62.98,12.54318,0.002529897,0.27558,1.05763
65.58,12.831,0.00406133,0.40364,1.05703
68.18,13.1139,0.00275862,0.32,1.05642
70.78,13.39356,0.0027445,0.27998,1.05579
73.38,13.6694,0.001440285,0.26754,1.05515
75.98,13.9423,0.001451558,0.26471,1.05449
78.58,14.21199,0.002735428,0.26125,1.05383
81.18,14.48042,0.002715498,0.24774,1.05315
83.78,14.7454,0.00292591,0.22187,1.05246
86.38,15.0083,0.00692001,0.17683,1.05176
88.98,15.26878,0.004280005,0.12506,1.05105
91.58,15.5283,0.002970295,0.10314,1.05032
94.18,15.78561,0.00258096,0.12689,1.04959
96.78,16.04332,0.00267556,0.17339,1.04884
99.38,16.29986,0.002983612,0.21955,1.04807
101.98,16.5569,0.000256607,0.25488,1.0473
104.58,16.8131,-2.54707e-05,0.27938,1.04651
107.18,17.0686,0.001874159,0.29859,1.04572
109.78,17.32432,0.00318,0.31343,1.04491
112.38,17.57859,0.003190108,0.32454,1.04409
114.98,17.83299,0.001869995,0.32208,1.04326
117.58,18.08696,0.00160836,0.32264,1.04241
120.18,18.3411,0.001870001,0.32812,1.04156
122.78,18.59412,0.00184422,0.33281,1.04069
125.38,18.8471,0.001869971,0.33647,1.03981
127.98,19.09879,0.000880528,0.34201,1.03892
130.58,19.35191,0.002194787,0.34819,1.03802
133.18,19.6039,0.00103641,0.35154,1.0371
135.78,19.85582,0.0009769873,0.35083,1.03618
138.38,20.10745,0.0007365097,0.35319,1.03524
140.98,20.3593,-0.000537362,0.35479,1.0343
143.58,20.61005,-0.0005561432,0.35204,1.03334
146.18,20.86072,-0.001640024,0.34206,1.03237
148.78,21.1104,-0.001969814,0.32762,1.03139
151.38,21.36104,-0.0014481,0.34105,1.0304
153.98,21.61056,-0.00284457,0.38216,1.0294
156.58,21.86082,-0.004159986,0.44681,1.02838
159.18,22.1106,-0.00262836,0.5462,1.02736
161.78,22.36147,-0.004596782,0.7034,1.02633
164.38,22.61303,-0.004269998,0.92005,1.02528
166.98,22.865,-0.004600032,1.04169,1.02422
169.58,23.1148,-0.003956133,0.62727,1.02316
172.18,23.36195,-0.00525204,0.44512,1.02208
174.78,23.60933,-0.003620371,0.40417,1.02099
177.38,23.85645,-0.003630721,0.39464,1.01989
179.98,24.10389,-0.004929997,0.3935,1.01878
182.58,24.35109,-0.007568128,0.39278,1.01766
185.18,24.59901,-0.006897067,0.39528,1.01653
187.78,24.84645,-0.007239962,0.3931,1.01539
190.38,25.09419,-0.007321119,0.39713,1.01424
192.98,25.34134,-0.00789,0.39661,1.01308
195.58,25.58886,-0.007865093,0.39894,1.01191
198.18,25.83592,-0.00756865,0.39927,1.01073
200.78,26.08386,-0.008384136,0.40073,1.00954
203.38,26.33189,-0.008229857,0.40418,1.00833
205.98,26.5794,-0.00888115,0.40357,1.00712
208.58,26.82671,-0.00887755,0.40511,1.0059
211.18,27.0731,-0.01019283,0.40501,1.00467
213.78,27.3217,-0.0102,0.40722,1.00343
216.38,27.56871,-0.01249012,0.405,1.00218
218.98,27.81618,-0.01248992,0.4112,1.00092
221.58,28.0622,-0.01283761,0.41088,0.99965
224.18,28.3107,-0.01248808,0.41044,0.99837
226.78,28.55813,-0.01316,0.41003,0.99708
229.38,28.8055,-0.0124999,0.41248,0.99578
231.98,29.05365,-0.01382024,0.41181,0.99447
234.58,29.3017,-0.01382024,0.40992,0.99315
237.18,29.5496,-0.01316,0.41194,0.99182
239.78,29.7975,-0.01519779,0.4134,0.99049
242.38,30.04503,-0.01481013,0.41499,0.98914
244.98,30.2925,-0.01612,0.41938,0.98778
247.58,30.54027,-0.01612,0.41487,0.98642
250.18,30.7883,-0.01578451,0.41564,0.98505
252.78,31.03613,-0.01612032,0.41991,0.98366
255.38,31.28417,-0.01842004,0.41914,0.98227
257.98,31.532,-0.02006554,0.42317,0.98087
260.58,31.7801,-0.01875006,0.42651,0.97946
263.18,32.02789,-0.02007,0.42828,0.97804
265.78,32.2757,-0.02203993,0.43184,0.97662
268.38,32.52386,-0.02373857,0.43463,0.97518
270.98,32.77232,-0.02538058,0.43916,0.97374
273.58,33.02062,-0.02665,0.44177,0.97228
276.18,33.2687,-0.02895051,0.44583,0.97082
278.78,33.51758,-0.02960816,0.45171,0.96935
281.38,33.7659,-0.03356746,0.45667,0.96787
283.98,34.0141,-0.03553061,0.46055,0.96638
286.58,34.26262,-0.04016283,0.46524,0.96489
289.18,34.51157,-0.04344284,0.4676,0.96339
291.78,34.76019,-0.04873695,0.47038,0.96187
294.38,35.01028,-0.05375642,0.47533,0.96035
296.98,35.25938,-0.05746196,0.48412,0.95882
299.58,35.50875,-0.06371806,0.49396,0.95729
302.18,35.75809,-0.07195713,0.50269,0.95574
304.78,36.00675,-0.08048677,0.51147,0.95419
307.38,36.2566,-0.0882691,0.52095,0.95263
309.98,36.5062,-0.09764826,0.53114,0.95106
312.58,36.7564,-0.11084,0.54974,0.94948
315.18,37.00614,-0.12224,0.5658,0.9479
317.78,37.25653,-0.13549,0.58764,0.94631
320.38,37.50654,-0.15448,0.61515,0.94471
322.98,37.75655,-0.17283,0.65266,0.9431
325.58,38.0069,-0.19558,0.69416,0.94149
328.18,38.25723,-0.22234,0.75041,0.93986
330.78,38.50799,-0.25343,0.82215,0.93823
333.38,38.75887,-0.28841,0.90665,0.9366
335.98,39.01048,-0.33054,1.01614,0.93495
338.58,39.26232,-0.38259,1.13625,0.9333
341.18,39.51475,-0.44304,1.28364,0.93164
343.78,39.76728,-0.51321,1.46142,0.92998
346.38,40.02061,-0.59755,1.71088,0.9283
348.98,40.27459,-0.69096,2.06724,0.92662
351.58,40.5306,-0.82161,2.59909,0.92493
354.18,40.78803,-0.99129,3.17361,0.92324
356.78,41.04651,-1.20073,3.74249,0.92154
359.38,41.30531,-1.4434,4.26509,0.91983
361.98,41.56405,-1.72067,4.7038,0.91811
364.58,41.82274,-2.01656,5.00372,0.91639
367.18,42.07929,-2.32573,5.10802,0.91466
369.78,42.334,-2.63299,4.95858,0.91293
372.38,42.58639,-2.92129,4.51297,0.91118
374.98,42.8352,-3.18423,3.60751,0.90944
377.58,43.0794,-3.3765,2.48429,0.90768
380.18,43.32076,-3.50424,1.44029,0.90592
382.78,43.5614,-3.58526,0.70319,0.90415
385.38,43.80448,-3.62437,0.31968,0.90238
387.98,44.04991,-3.6477,0.18384,0.9006
390.58,44.2976,-3.66111,0.12759,0.89881
393.18,44.5465,-3.67141,0.09613882,0.89702
395.78,44.7969,-3.67715,0.07791144,0.89522
398.38,45.04834,-3.68408,0.06558499,0.89341
400.98,45.3007,-3.6907,0.05732277,0.8916
403.58,45.55375,-3.69585,0.05056515,0.88978
406.18,45.80683,-3.69949,0.04747772,0.88796
408.78,46.06035,-3.7051,0.04540989,0.88613
411.38,46.31438,-3.70907,0.04100334,0.88429
413.98,46.56836,-3.71299,0.04361941,0.88245
416.58,46.8227,-3.71824,0.04447581,0.8806
419.18,47.0769,-3.72248,0.04572847,0.87875
421.78,47.33146,-3.72657,0.04476994,0.87689
424.38,47.58548,-3.73182,0.04585012,0.87503
426.98,47.83985,-3.73744,0.04739381,0.87316
429.58,48.09514,-3.74105,0.04919164,0.87129
432.18,48.34988,-3.74566,0.04767691,0.86941
434.78,48.60488,-3.75098,0.04559252,0.86752
437.38,48.85938,-3.75751,0.04519078,0.86563
439.98,49.11497,-3.76145,0.04121097,0.86373
442.58,49.36937,-3.76672,0.04379233,0.86183
445.18,49.6251,-3.77297,0.04662122,0.85993
447.78,49.8806,-3.77832,0.04453888,0.85801
450.38,50.13575,-3.78367,0.04522572,0.8561
452.98,50.39108,-3.78916,0.04743705,0.85418
455.58,50.6459,-3.79432,0.04650637,0.85225
458.18,50.90169,-3.80083,0.04238688,0.85032
460.78,51.15757,-3.80885,0.04527817,0.84838
463.38,51.413,-3.81553,0.04222546,0.84644
465.98,51.66879,-3.82088,0.04058085,0.84449
468.58,51.9244,-3.82782,0.03737739,0.84254
471.18,52.18125,-3.83436,0.03448348,0.84059
473.78,52.4368,-3.83951,0.02932695,0.83863
476.38,52.6945,-3.84389,0.02263259,0.83666
478.98,52.95139,-3.84675,0.02013317,0.83469
481.58,53.2084,-3.85053,0.01643911,0.83272
484.18,53.4651,-3.85143,0.0119272,0.83074
486.78,53.7219,-3.85316,0.01133893,0.82876
489.38,53.9788,-3.85414,0.01488159,0.82677
491.98,54.23511,-3.8555,0.01885936,0.82478
494.58,54.4913,-3.85547,0.03004193,0.82279
497.18,54.7479,-3.85645,0.02137761,0.82079
499.78,55.0044,-3.85545,0.006028706,0.81878
502.38,55.2619,-3.85677,-0.006978811,0.81678
504.98,55.51964,-3.85809,-0.0199985,0.81476
507.58,55.77803,-3.85773,-0.03297434,0.81275
510.18,56.03556,-3.85941,-0.03290651,0.81073
512.78,56.2942,-3.85842,-0.03577453,0.80871
515.38,56.5528,-3.85974,-0.03249633,0.80668
517.98,56.81143,-3.85974,-0.03152567,0.80465
520.58,57.0696,-3.85974,-0.02746603,0.80261
523.18,57.3276,-3.85974,-0.02934642,0.80057
525.78,57.58571,-3.85974,-0.02852426,0.79853
528.38,57.8433,-3.86051,-0.03146385,0.79649
530.98,58.10162,-3.86072,-0.03063231,0.79444
533.58,58.35932,-3.85941,-0.0317922,0.79239
536.18,58.6176,-3.85941,-0.02972096,0.79033
538.78,58.8759,-3.86073,-0.03174523,0.78827
541.38,59.13377,-3.85809,-0.03388185,0.78621
543.98,59.3936,-3.85918,-0.03172219,0.78414
546.58,59.65184,-3.86051,-0.0298613,0.78207
549.18,59.9112,-3.85904,-0.03231581,0.78
551.78,60.1703,-3.86039,-0.03210026,0.77792
554.38,60.4298,-3.85875,-0.03360898,0.77585
556.98,60.6899,-3.86014,-0.03348087,0.77376
559.58,60.94875,-3.85908,-0.03608307,0.77168
562.18,61.2088,-3.85908,-0.04140612,0.76959
564.78,61.4678,-3.85809,-0.03953291,0.7675
567.38,61.72772,-3.85939,-0.04455351,0.76541
569.98,61.98679,-3.85876,-0.04689858,0.76331
572.58,62.24555,-3.85908,-0.04684611,0.76121
575.18,62.5047,-3.85974,-0.04698792,0.75911
577.78,62.7643,-3.86079,-0.05293257,0.75701
580.38,63.0243,-3.85941,-0.05421072,0.7549
582.98,63.28442,-3.85908,-0.05830163,0.75279
585.58,63.5443,-3.85908,-0.0586117,0.75068
588.18,63.80452,-3.85843,-0.0620868,0.74856
590.78,64.0647,-3.86039,-0.06300746,0.74645
593.38,64.32536,-3.85912,-0.06422365,0.74433
595.98,64.58645,-3.85974,-0.07088478,0.7422
598.58,64.84744,-3.85974,-0.07188849,0.74008
601.18,65.1083,-3.85974,-0.07368232,0.73795
603.78,65.36917,-3.85941,-0.07421098,0.73582
606.38,65.6297,-3.85941,-0.07569114,0.73369
608.98,65.89014,-3.85974,-0.07914479,0.73156
611.58,66.1508,-3.85974,-0.07789137,0.72943
614.18,66.41136,-3.86175,-0.08149909,0.72729
616.78,66.67211,-3.86009,-0.07986438,0.72515
619.38,66.93252,-3.86133,-0.08180003,0.72301
621.98,67.1936,-3.85996,-0.08507043,0.72087
624.58,67.45441,-3.86062,-0.08662579,0.71872
627.18,67.7159,-3.86066,-0.08287663,0.71658
629.78,67.9772,-3.86193,-0.08683805,0.71443
632.38,68.2386,-3.86094,-0.08598878,0.71228
634.98,68.5,-3.86161,-0.08844257,0.71013
637.58,68.76188,-3.85996,-0.08716052,0.70797
640.18,69.0236,-3.86128,-0.08916594,0.70582
642.78,69.28496,-3.86258,-0.08758164,0.70366
645.38,69.5457,-3.86128,-0.08953675,0.70151
647.98,69.80685,-3.86224,-0.0888339,0.69935
649.88,69.9974,-3.86226,-0.08955125,0.69777

File: PLA_STA_N2_10KData_220503_R2.csv
##Temp./Â°C,Time/min,Mass loss(subtr.2)/mg,DSC(subtr.2)/(mW/mg),Sensit./(uV/mW)
49.935,10.01,0.00822,-0.000360621,1.06047
52.535,11.2227,0.008877054,0.0982818,1.05993
55.135,11.61858,0.008372535,0.14608,1.05938
57.735,11.94754,0.009048135,0.17948,1.05881
60.335,12.25276,0.009460721,0.20941,1.05823
62.935,12.54544,0.008238855,0.26804,1.05764
65.535,12.83188,0.00778718,0.40634,1.05704
68.135,13.11289,0.00932333,0.31427,1.05643
70.735,13.39078,0.009317494,0.27653,1.0558
73.335,13.66515,0.01061889,0.26416,1.05516
75.935,13.93723,0.01064733,0.26112,1.05451
78.535,14.2076,0.01195013,0.25682,1.05384
81.135,14.47521,0.00839263,0.24532,1.05316
83.735,14.7416,0.009760044,0.21934,1.05248
86.335,15.0045,0.01243733,0.17028,1.05177
88.935,15.26569,0.01101917,0.11615,1.05106
91.535,15.5252,0.01151092,0.09153295,1.05034
94.135,15.78401,0.01337987,0.11428,1.0496
96.735,16.0415,0.01073528,0.16423,1.04885
99.335,16.29905,0.01206013,0.212,1.04809
101.935,16.55539,0.01206,0.24852,1.04731
104.535,16.81131,0.01206008,0.2716,1.04653
107.135,17.06683,0.01338236,0.29107,1.04573
109.735,17.3218,0.01330727,0.30748,1.04492
112.335,17.57627,0.01337924,0.31858,1.0441
114.935,17.8307,0.01337,0.31407,1.04327
117.535,18.08481,0.01337957,0.31408,1.04243
120.135,18.33822,0.01337966,0.31892,1.04157
122.735,18.59137,0.01336884,0.32241,1.0407
125.335,18.84371,0.01368915,0.32782,1.03982
127.935,19.0972,0.01335544,0.33704,1.03893
130.535,19.34873,0.01336955,0.33803,1.03803
133.135,19.59996,0.01304,0.34311,1.03712
135.735,19.85207,0.01402977,0.34759,1.0362
138.335,20.1036,0.01303771,0.34871,1.03526
140.935,20.35436,0.01371156,0.34842,1.03431
143.535,20.6052,0.01502003,0.34652,1.03336
146.135,20.85535,0.01239084,0.33468,1.03239
148.735,21.10572,0.01500611,0.31975,1.03141
151.335,21.3555,0.0137,0.33368,1.03042
153.935,21.6059,0.0137,0.37623,1.02941
156.535,21.85632,0.01467651,0.43942,1.0284
159.135,22.10776,0.01303466,0.5354,1.02738
161.735,22.35835,0.0117143,0.6917,1.02634
164.335,22.6101,0.01173079,0.90552,1.0253
166.935,22.86157,0.01305033,1.0239,1.02424
169.535,23.1113,0.01304357,0.61702,1.02317
172.135,23.35843,0.01035385,0.44163,1.0221
174.735,23.60614,0.01173,0.40227,1.02101
177.335,23.85367,0.01184267,0.39163,1.01991
179.935,24.10114,0.01173,0.39275,1.0188
182.535,24.3492,0.009089975,0.39163,1.01768
185.135,24.5975,0.0108823,0.39074,1.01655
187.735,24.84536,0.01009,0.39489,1.01541
190.335,25.0936,0.01009,0.39591,1.01426
192.935,25.34181,0.01007491,0.39369,1.0131
195.535,25.58943,0.008119863,0.39652,1.01193
198.135,25.8374,0.01075196,0.39763,1.01075
200.735,26.08501,0.00982571,0.39926,1.00956
203.335,26.3328,0.009860891,0.4002,1.00835
205.935,26.57995,0.00877,0.40059,1.00714
208.535,26.82763,0.008763829,0.40039,1.00592
211.135,27.07483,0.00876,0.40164,1.00469
213.735,27.3224,0.008835084,0.40608,1.00345
216.335,27.5696,0.00877,0.40583,1.0022
218.935,27.81692,0.00877,0.40777,1.00094
221.535,28.06482,0.008775503,0.41019,0.99967
224.135,28.3124,0.008109956,0.40606,0.99839
226.735,28.55968,0.0067946,0.40901,0.9971
229.335,28.80769,0.00681622,0.41346,0.9958
231.935,29.05599,0.00674736,0.41034,0.99449
234.535,29.30305,0.00864075,0.41298,0.99317
237.135,29.55156,0.00745779,0.41269,0.99185
239.735,29.7991,0.00679,0.41746,0.99051
242.335,30.04715,0.005478729,0.41705,0.98916
244.935,30.2952,0.004820001,0.41965,0.98781
247.535,30.5427,0.004931926,0.41914,0.98644
250.135,30.7905,0.0045,0.42554,0.98507
252.735,31.03862,0.003509885,0.42752,0.98369
255.335,31.28645,0.003868142,0.42804,0.9823
257.935,31.5344,0.00350996,0.42869,0.9809
260.535,31.78235,0.004722817,0.43406,0.97949
263.135,32.03011,0.00285,0.43911,0.97807
265.735,32.2783,0.0008700047,0.44124,0.97664
268.335,32.52613,0.0005399998,0.4443,0.97521
270.935,32.77362,-0.000433622,0.44816,0.97376
273.535,33.02197,-0.00241999,0.45331,0.97231
276.135,33.26983,-0.006041477,0.45675,0.97085
278.735,33.5186,-0.007030015,0.46565,0.96938
281.335,33.7667,-0.008363512,0.46806,0.9679
283.935,34.01536,-0.01082891,0.47083,0.96641
286.535,34.2647,-0.0143198,0.47949,0.96491
289.135,34.51421,-0.01821984,0.48408,0.96341
291.735,34.76332,-0.02042697,0.48746,0.9619
294.335,35.01269,-0.02743994,0.49578,0.96038
296.935,35.26248,-0.03137487,0.50264,0.95885
299.535,35.51182,-0.03745117,0.51194,0.95731
302.135,35.76119,-0.04322863,0.51925,0.95577
304.735,36.01079,-0.05132985,0.53051,0.95422
307.335,36.26056,-0.05993794,0.5438,0.95266
309.935,36.51055,-0.07183979,0.55499,0.95109
312.535,36.76011,-0.08206706,0.57132,0.94951
315.135,37.01051,-0.09476739,0.59257,0.94793
317.735,37.2603,-0.10731,0.61547,0.94634
320.335,37.5097,-0.12491,0.64337,0.94474
322.935,37.75972,-0.14619,0.68423,0.94313
325.535,38.0109,-0.17229,0.73262,0.94151
328.135,38.26171,-0.20099,0.79131,0.93989
330.735,38.51311,-0.23405,0.8616,0.93826
333.335,38.76422,-0.27498,0.95004,0.93663
335.935,39.0162,-0.32231,1.06246,0.93498
338.535,39.26801,-0.38134,1.20853,0.93333
341.135,39.52046,-0.44604,1.38761,0.93167
343.735,39.77264,-0.52979,1.57579,0.93
346.335,40.02646,-0.62796,1.8615,0.92833
348.935,40.28111,-0.7493,2.2183,0.92665
351.535,40.53731,-0.89482,2.63205,0.92496
354.135,40.79419,-1.06988,3.12212,0.92327
356.735,41.05148,-1.28163,3.62034,0.92157
359.335,41.30968,-1.52203,4.08798,0.91986
361.935,41.5679,-1.79699,4.47385,0.91814
364.535,41.8261,-2.09004,4.75043,0.91642
367.135,42.0828,-2.4027,4.8349,0.91469
369.735,42.3375,-2.71067,4.66627,0.91296
372.335,42.58892,-2.99976,4.17241,0.91121
374.935,42.83757,-3.25199,3.34298,0.90947
377.535,43.08076,-3.44509,2.248,0.90771
380.135,43.32226,-3.5744,1.14168,0.90595
382.735,43.56346,-3.63005,0.46407,0.90418
385.335,43.80689,-3.65414,0.26923,0.90241
387.935,44.0541,-3.66779,0.20148,0.90063
390.535,44.30265,-3.67991,0.16939,0.89884
393.135,44.55259,-3.68467,0.15056,0.89705
395.735,44.80324,-3.69128,0.14003,0.89525
398.335,45.0552,-3.69457,0.13213,0.89344
400.935,45.30766,-3.69997,0.12947,0.89163
403.535,45.56049,-3.70586,0.12738,0.88981
406.135,45.81346,-3.71001,0.12467,0.88799
408.735,46.06733,-3.71419,0.12734,0.88616
411.335,46.32076,-3.71983,0.12543,0.88432
413.935,46.57465,-3.72266,0.12793,0.88248
416.535,46.82841,-3.72772,0.13154,0.88064
419.135,47.0828,-3.73313,0.13045,0.87878
421.735,47.3369,-3.73703,0.13268,0.87693
424.335,47.59115,-3.74227,0.13333,0.87506
426.935,47.84552,-3.7462,0.13255,0.87319
429.535,48.10053,-3.75116,0.12986,0.87132
432.135,48.35476,-3.75517,0.12829,0.86944
434.735,48.6094,-3.76137,0.12661,0.86755
437.335,48.8644,-3.76632,0.12541,0.86566
439.935,49.11911,-3.77054,0.12782,0.86377
442.535,49.37449,-3.77601,0.12349,0.86187
445.135,49.62941,-3.7841,0.12651,0.85996
447.735,49.88478,-3.78813,0.12711,0.85805
450.335,50.14008,-3.79339,0.12908,0.85613
452.935,50.39524,-3.79873,0.12914,0.85421
455.535,50.65067,-3.8068,0.13221,0.85228
458.135,50.90565,-3.81241,0.12645,0.85035
460.735,51.16149,-3.81794,0.12697,0.84841
463.335,51.41738,-3.82623,0.12414,0.84647
465.935,51.67387,-3.83157,0.11867,0.84453
468.535,51.93057,-3.8363,0.11685,0.84258
471.135,52.18728,-3.84187,0.11304,0.84062
473.735,52.44429,-3.84357,0.10712,0.83866
476.335,52.70123,-3.84844,0.10608,0.8367
478.935,52.9581,-3.85117,0.10077,0.83473
481.535,53.2157,-3.8524,0.09540574,0.83275
484.135,53.47282,-3.85503,0.09018927,0.83078
486.735,53.7296,-3.85537,0.08881753,0.82879
489.335,53.98706,-3.85668,0.08859362,0.82681
491.935,54.24363,-3.85737,0.09700023,0.82482
494.535,54.50011,-3.85767,0.10594,0.82282
497.135,54.75753,-3.85748,0.09869669,0.82082
499.735,55.01517,-3.85897,0.08851651,0.81882
502.335,55.27406,-3.85767,0.07868985,0.81681
504.935,55.5317,-3.85766,0.0688946,0.8148
507.535,55.78976,-3.85865,0.06121743,0.81278
510.135,56.0489,-3.85777,0.05377749,0.81076
512.735,56.30709,-3.85668,0.0496803,0.80874
515.335,56.56525,-3.85704,0.05048294,0.80671
517.935,56.82371,-3.85701,0.05204716,0.80468
520.535,57.08152,-3.85767,0.05001446,0.80265
523.135,57.3398,-3.85701,0.05248684,0.80061
525.735,57.59797,-3.85832,0.04924177,0.79857
528.335,57.856,-3.85602,0.04855821,0.79652
530.935,58.11476,-3.85602,0.04219795,0.79447
533.535,58.37265,-3.85568,0.04099435,0.79242
536.135,58.63159,-3.85703,0.04149808,0.79037
538.735,58.89079,-3.85701,0.04425111,0.78831
541.335,59.1497,-3.85832,0.04041312,0.78624
543.935,59.40835,-3.85766,0.03751071,0.78418
546.535,59.66695,-3.85621,0.03941781,0.78211
549.135,59.926,-3.85564,0.03815344,0.78004
551.735,60.1854,-3.85668,0.03960974,0.77796
554.335,60.44465,-3.85666,0.04173968,0.77588
556.935,60.7041,-3.85595,0.04157859,0.7738
559.535,60.96317,-3.85602,0.04039964,0.77172
562.135,61.22265,-3.85462,0.03700303,0.76963
564.735,61.48239,-3.85604,0.03924858,0.76754
567.335,61.7417,-3.85685,0.04052363,0.76544
569.935,62.0014,-3.85531,0.03967069,0.76335
572.535,62.26099,-3.85668,0.03987047,0.76125
575.135,62.5217,-3.85668,0.03670011,0.75915
577.735,62.7823,-3.85584,0.03778195,0.75704
580.335,63.0423,-3.85338,0.0382856,0.75494
582.935,63.3029,-3.85476,0.03856053,0.75283
585.535,63.56296,-3.85451,0.03988635,0.75071
588.135,63.8229,-3.85466,0.03778982,0.7486
590.735,64.0839,-3.85383,0.04027793,0.74648
593.335,64.34453,-3.85383,0.04132692,0.74436
595.935,64.60475,-3.85422,0.04330972,0.74224
598.535,64.86479,-3.85449,0.03988166,0.74012
601.135,65.12501,-3.85415,0.04279034,0.73799
603.735,65.38602,-3.85416,0.04312888,0.73586
606.335,65.64703,-3.85416,0.04176366,0.73373
608.935,65.9076,-3.85415,0.04593594,0.7316
611.535,66.16796,-3.85284,0.04304458,0.72946
614.135,66.42878,-3.85278,0.04775372,0.72733
616.735,66.68949,-3.85549,0.04570966,0.72519
619.335,66.95058,-3.85349,0.04541872,0.72305
621.935,67.2121,-3.85314,0.04667287,0.7209
624.535,67.47368,-3.85383,0.04417344,0.71876
627.135,67.73533,-3.85415,0.04680106,0.71661
629.735,67.99707,-3.85284,0.04555699,0.71447
632.335,68.259,-3.85382,0.04601122,0.71232
634.935,68.52025,-3.85317,0.04978197,0.71016
637.535,68.78108,-3.8525,0.04822589,0.70801
640.135,69.0424,-3.8512,0.04539491,0.70586
642.735,69.30298,-3.85186,0.0482221,0.7037
645.335,69.5634,-3.8535,0.04700268,0.70154
647.935,69.82429,-3.8535,0.0478515,0.69938
649.635,69.99492,-3.8548,0.04432353,0.69797