Folder: fsri_materials_database/01_Data/PLA_3D_Printer_Filament/STA/N2/10K_min (part 2)

File: PLA_STA_N2_10KData_220504_R3.csv
##Temp./Â°C,Time/min,Mass loss(subtr.2)/mg,DSC(subtr.2)/(mW/mg),Sensit./(uV/mW)
49.901,10.01,-0.00209,-0.00175471,1.06048
52.501,11.22326,-0.0003506776,0.097831,1.05994
55.101,11.61918,-0.0004750237,0.14862,1.05938
57.701,11.9488,0.000787228,0.18343,1.05882
60.301,12.25272,-0.000703471,0.21215,1.05824
62.901,12.54577,-0.0006665145,0.26702,1.05765
65.501,12.83175,-0.002046454,0.41139,1.05705
68.101,13.1141,-0.000667149,0.32426,1.05643
70.701,13.39206,-0.0006514645,0.28135,1.05581
73.301,13.66681,-0.000661689,0.26876,1.05517
75.901,13.9394,-0.001979961,0.26763,1.05451
78.501,14.20915,0.0003936342,0.26344,1.05385
81.101,14.47676,-0.00158353,0.24904,1.05317
83.701,14.74276,-0.001459236,0.21908,1.05248
86.301,15.0069,-0.0006699835,0.16998,1.05178
88.901,15.2681,-0.000340684,0.11458,1.05107
91.501,15.5275,-0.001229468,0.08870492,1.05035
94.101,15.78514,-0.001980249,0.11414,1.04961
96.701,16.0431,-0.001980369,0.16422,1.04886
99.301,16.29799,-0.001980119,0.21044,1.0481
101.901,16.55446,-0.00193616,0.24651,1.04732
104.501,16.8118,-0.0006680467,0.27411,1.04654
107.101,17.0669,-0.0006600016,0.29244,1.04574
109.701,17.32196,-0.00149119,0.30615,1.04493
112.301,17.5762,-0.0005202568,0.3178,1.04411
114.901,17.83045,-0.001979991,0.31173,1.04328
117.501,18.08512,-0.000669948,0.31182,1.04244
120.101,18.33902,-0.00198,0.31681,1.04158
122.701,18.5918,-0.00219003,0.32324,1.04071
125.301,18.84412,-0.00120838,0.32883,1.03984
127.901,19.0965,-0.001260527,0.33496,1.03895
130.501,19.34864,0.001731578,0.33989,1.03805
133.101,19.60054,-0.001660316,0.34339,1.03713
135.701,19.8522,-0.000333002,0.34481,1.03621
138.301,20.10281,-0.0003635,0.34525,1.03527
140.901,20.35361,-0.00033,0.34798,1.03433
143.501,20.60483,-0.003085064,0.34495,1.03337
146.101,20.85535,-0.0003391048,0.32747,1.0324
148.701,21.1052,-0.00067,0.31238,1.03142
151.301,21.3548,-0.000815945,0.32512,1.03043
153.901,21.6049,-0.0007887586,0.36803,1.02943
156.501,21.85374,-0.001330135,0.42846,1.02842
159.101,22.1038,0.00121561,0.52442,1.02739
161.701,22.35431,-0.00274658,0.6785,1.02636
164.301,22.60555,-0.00143184,0.88873,1.02531
166.901,22.85843,-0.001471549,1.02486,1.02426
169.501,23.10857,-0.001759573,0.63423,1.02319
172.101,23.35516,-0.001109998,0.43767,1.02211
174.701,23.60347,-0.001100003,0.39312,1.02102
177.301,23.85136,-0.002419999,0.38385,1.01992
179.901,24.09968,-0.001110004,0.38102,1.01882
182.501,24.3471,-0.003398161,0.38116,1.0177
185.101,24.59466,-0.003080665,0.38249,1.01657
187.701,24.8428,-0.002500154,0.37977,1.01543
190.301,25.0905,-0.004068276,0.38078,1.01428
192.901,25.33868,-0.0034097,0.38249,1.01311
195.501,25.58633,-0.00471813,0.38305,1.01194
198.101,25.83425,-0.004741375,0.38231,1.01076
200.701,26.08274,-0.004383004,0.38645,1.00957
203.301,26.33,-0.00407,0.38551,1.00837
205.901,26.5784,-0.0027321,0.38875,1.00716
208.501,26.8262,-0.00341,0.38841,1.00594
211.101,27.0734,-0.003410018,0.3891,1.00471
213.701,27.32129,-0.004059678,0.39125,1.00347
216.301,27.5688,-0.0034,0.39127,1.00221
218.901,27.81594,-0.004323418,0.39291,1.00095
221.501,28.06353,-0.00407,0.39368,0.99968
224.101,28.3113,-0.004072152,0.39514,0.9984
226.701,28.55824,-0.004332295,0.39406,0.99711
229.301,28.80575,-0.004391924,0.39263,0.99582
231.901,29.0539,-0.00541951,0.39378,0.99451
234.501,29.30143,-0.00505,0.39421,0.99319
237.101,29.5491,-0.005049994,0.39543,0.99186
239.701,29.79696,-0.00535502,0.39201,0.99053
242.301,30.0444,-0.00637,0.39691,0.98918
244.901,30.2916,-0.006370002,0.3952,0.98783
247.501,30.53981,-0.007679999,0.3984,0.98646
250.101,30.78766,-0.00867435,0.39699,0.98509
252.701,31.03555,-0.007029321,0.39704,0.98371
255.301,31.2831,-0.008010129,0.39743,0.98231
257.901,31.53057,-0.00735003,0.40015,0.98091
260.501,31.77875,-0.007680003,0.39845,0.9795
263.101,32.02748,-0.0089991,0.40007,0.97809
265.701,32.2757,-0.008343856,0.40282,0.97666
268.301,32.52355,-0.00834,0.40356,0.97522
270.901,32.77189,-0.009328127,0.40278,0.97378
273.501,33.02026,-0.01131002,0.40525,0.97233
276.101,33.2683,-0.01097652,0.40786,0.97087
278.701,33.5171,-0.01238551,0.41002,0.9694
281.301,33.76507,-0.01383188,0.41408,0.96792
283.901,34.01336,-0.01266714,0.41945,0.96643
286.501,34.26197,-0.0159612,0.42449,0.96493
289.101,34.51085,-0.01644537,0.43266,0.96343
291.701,34.75953,-0.01930718,0.43781,0.96192
294.301,35.00861,-0.02325557,0.44433,0.9604
296.901,35.2578,-0.02721333,0.44628,0.95887
299.501,35.5068,-0.03115988,0.45476,0.95733
302.101,35.75672,-0.03379124,0.45778,0.95579
304.701,36.0061,-0.04047475,0.46357,0.95424
307.301,36.25578,-0.0457049,0.46585,0.95268
309.901,36.50493,-0.05141173,0.47064,0.95111
312.501,36.75465,-0.0594158,0.47121,0.94953
315.101,37.00432,-0.06982413,0.47111,0.94795
317.701,37.25425,-0.08193279,0.46245,0.94636
320.301,37.5038,-0.09651007,0.44115,0.94476
322.901,37.7541,-0.11596,0.4605,0.94315
325.501,38.00479,-0.13467,0.53139,0.94154
328.101,38.25582,-0.15894,0.62629,0.93991
330.701,38.50662,-0.18653,0.72468,0.93828
333.301,38.758,-0.2221,0.82904,0.93665
335.901,39.00959,-0.26188,0.95271,0.935
338.501,39.262,-0.31108,1.09825,0.93335
341.101,39.5148,-0.3717,1.23906,0.93169
343.701,39.7667,-0.43925,1.41019,0.93003
346.301,40.02111,-0.51489,1.68589,0.92835
348.901,40.27636,-0.62179,2.12024,0.92667
351.501,40.53282,-0.76283,2.6423,0.92498
354.101,40.7909,-0.94677,3.20834,0.92329
356.701,41.04935,-1.169,3.77242,0.92159
359.301,41.3088,-1.42675,4.29999,0.91988
361.901,41.56797,-1.72015,4.74588,0.91817
364.501,41.826,-2.03204,5.05525,0.91644
367.101,42.0833,-2.36298,5.17424,0.91471
369.701,42.3376,-2.68627,5.03195,0.91298
372.301,42.58978,-2.99733,4.55564,0.91124
374.901,42.83871,-3.26655,3.73522,0.90949
377.501,43.08266,-3.4751,2.57495,0.90773
380.101,43.3239,-3.609,1.45792,0.90597
382.701,43.565,-3.69078,0.69858,0.9042
385.301,43.80747,-3.73364,0.32933,0.90243
387.901,44.0536,-3.75648,0.20698,0.90065
390.501,44.30172,-3.7702,0.15581,0.89886
393.101,44.55144,-3.78012,0.12922,0.89707
395.701,44.80178,-3.78866,0.11475,0.89527
398.301,45.0529,-3.7945,0.10957,0.89347
400.901,45.30502,-3.80127,0.10769,0.89165
403.501,45.55724,-3.80586,0.1059,0.88984
406.101,45.81069,-3.8105,0.1101,0.88801
408.701,46.06365,-3.81587,0.11397,0.88618
411.301,46.3172,-3.82106,0.11546,0.88435
413.901,46.57131,-3.82498,0.12146,0.88251
416.501,46.8253,-3.82752,0.12998,0.88066
419.101,47.0794,-3.83289,0.13671,0.87881
421.701,47.33332,-3.8375,0.14938,0.87695
424.301,47.5873,-3.84198,0.15608,0.87509
426.901,47.84132,-3.84736,0.16408,0.87322
429.501,48.09551,-3.85029,0.17391,0.87134
432.101,48.35045,-3.85826,0.18043,0.86946
434.701,48.60537,-3.86283,0.18623,0.86758
437.301,48.8609,-3.8682,0.19072,0.86569
439.901,49.11681,-3.87217,0.19276,0.86379
442.501,49.37209,-3.87738,0.19982,0.86189
445.101,49.62701,-3.88229,0.20396,0.85998
447.701,49.88214,-3.88789,0.21013,0.85807
450.301,50.13772,-3.89341,0.21531,0.85616
452.901,50.39416,-3.90014,0.21764,0.85423
455.501,50.64972,-3.90615,0.22264,0.85231
458.101,50.90597,-3.9128,0.22783,0.85038
460.701,51.16206,-3.92135,0.23288,0.84844
463.301,51.41746,-3.92812,0.23293,0.8465
465.901,51.6742,-3.93524,0.23653,0.84455
468.501,51.92978,-3.9407,0.23764,0.8426
471.101,52.18627,-3.94621,0.2388,0.84065
473.701,52.4423,-3.95156,0.23859,0.83869
476.301,52.69882,-3.95705,0.2378,0.83672
478.901,52.9551,-3.95979,0.23733,0.83475
481.501,53.2116,-3.96341,0.23885,0.83278
484.101,53.4685,-3.96373,0.24076,0.8308
486.701,53.72413,-3.96571,0.23844,0.82882
489.301,53.9811,-3.96724,0.24642,0.82683
491.901,54.2372,-3.96856,0.25152,0.82484
494.501,54.4929,-3.96907,0.27378,0.82285
497.101,54.7478,-3.97055,0.31241,0.82085
499.701,55.0048,-3.97053,0.31834,0.81884
502.301,55.26259,-3.97052,0.32467,0.81684
504.901,55.52026,-3.96999,0.32959,0.81483
507.501,55.7791,-3.97064,0.33524,0.81281
510.101,56.03754,-3.97097,0.33944,0.81079
512.701,56.29549,-3.97166,0.35189,0.80877
515.301,56.5532,-3.97131,0.36087,0.80674
517.901,56.81078,-3.97229,0.36861,0.80471
520.501,57.06885,-3.97097,0.37842,0.80268
523.101,57.3272,-3.97097,0.3859,0.80064
525.701,57.5853,-3.97195,0.38847,0.7986
528.301,57.843,-3.97303,0.39485,0.79655
530.901,58.1016,-3.97305,0.39413,0.7945
533.501,58.3597,-3.97206,0.39625,0.79245
536.101,58.61959,-3.97271,0.40091,0.79039
538.701,58.8783,-3.97211,0.40598,0.78833
541.301,59.13749,-3.97294,0.40692,0.78627
543.901,59.39685,-3.97164,0.41063,0.7842
546.501,59.6556,-3.9713,0.41399,0.78214
549.101,59.91522,-3.97284,0.41772,0.78006
551.701,60.17618,-3.97143,0.41858,0.77799
554.301,60.4357,-3.97053,0.42167,0.77591
556.901,60.69529,-3.97054,0.42845,0.77383
559.501,60.95534,-3.96979,0.43107,0.77174
562.101,61.21441,-3.97148,0.4337,0.76965
564.701,61.4741,-3.97185,0.44087,0.76756
567.301,61.7333,-3.96999,0.44338,0.76547
569.901,61.99239,-3.9707,0.44472,0.76337
572.501,62.25091,-3.97185,0.45281,0.76128
575.101,62.5107,-3.97009,0.45793,0.75917
577.701,62.77089,-3.971,0.45411,0.75707
580.301,63.03175,-3.97177,0.46192,0.75496
582.901,63.29289,-3.9736,0.46328,0.75285
585.501,63.55369,-3.97252,0.4685,0.75074
588.101,63.81419,-3.97218,0.47167,0.74863
590.701,64.07419,-3.97212,0.4771,0.74651
593.301,64.33412,-3.97152,0.47959,0.74439
595.901,64.59481,-3.97317,0.48409,0.74227
598.501,64.8548,-3.97185,0.48991,0.74014
601.101,65.1148,-3.97185,0.49549,0.73802
603.701,65.37545,-3.97139,0.50222,0.73589
606.301,65.6362,-3.97314,0.50526,0.73376
608.901,65.8969,-3.97185,0.51321,0.73163
611.501,66.15783,-3.97177,0.52309,0.72949
614.101,66.41882,-3.97053,0.5235,0.72735
616.701,66.67967,-3.97185,0.52734,0.72522
619.301,66.9413,-3.97187,0.53774,0.72307
621.901,67.20262,-3.97282,0.54075,0.72093
624.501,67.4637,-3.97152,0.54928,0.71879
627.101,67.7242,-3.97285,0.55224,0.71664
629.701,67.9863,-3.97325,0.55861,0.71449
632.301,68.24794,-3.97284,0.56712,0.71234
634.901,68.50939,-3.97415,0.5706,0.71019
637.501,68.77107,-3.97316,0.57139,0.70804
640.101,69.03274,-3.97185,0.57882,0.70588
642.701,69.2939,-3.97216,0.5828,0.70373
645.301,69.55499,-3.97147,0.59095,0.70157
647.901,69.81621,-3.97284,0.6016,0.69941
649.701,69.99699,-3.97415,0.60764,0.69792