Folder: fsri_materials_database/01_Data/PLA_3D_Printer_Filament/STA/N2/30K_min (part 2)

File: PLA_STA_N2_30KData_220505_R3.csv
##Temp./Â°C,Time/min,Mass loss(subtr.2)/mg,DSC(subtr.2)/(mW/mg),Sensit./(uV/mW)
48.763,10.00667,0.01141,-0.000174387,1.07494
51.363,10.82749,0.0111892,0.1404,1.07379
53.963,11.03885,0.01207591,0.24712,1.07264
56.563,11.20019,0.01039719,0.33342,1.07147
59.163,11.33731,0.01208825,0.41554,1.0703
61.763,11.46049,0.01316235,0.49878,1.06913
64.363,11.57488,0.01218036,0.59742,1.06794
66.963,11.6835,0.0138394,0.78206,1.06675
69.563,11.78767,0.01205933,0.84536,1.06555
72.163,11.88836,0.01375233,0.79955,1.06434
74.763,11.98667,0.01284006,0.75219,1.06312
77.363,12.08274,0.01316121,0.72197,1.0619
79.963,12.177,0.01234545,0.70754,1.06067
82.563,12.26987,0.01302842,0.70547,1.05944
85.163,12.36179,0.01412535,0.70766,1.05819
87.763,12.45245,0.01180875,0.70102,1.05694
90.363,12.54229,0.01235425,0.68006,1.05568
92.963,12.6313,0.01370962,0.64077,1.05442
95.563,12.7193,0.01361469,0.59822,1.05315
98.163,12.80754,0.01373657,0.56203,1.05187
100.763,12.89529,0.01400459,0.55133,1.05059
103.363,12.9827,0.01381626,0.57672,1.0493
105.963,13.06983,0.0138294,0.62556,1.048
108.563,13.1572,0.01383003,0.69118,1.0467
111.163,13.2441,0.01383084,0.75397,1.04539
113.763,13.3308,0.01249716,0.79926,1.04407
116.363,13.41774,0.01249956,0.83517,1.04275
118.963,13.5042,0.01252384,0.8682,1.04142
121.563,13.59009,0.01449452,0.89565,1.04008
124.163,13.6761,0.01481848,0.92102,1.03874
126.763,13.7615,0.01414269,0.94527,1.03739
129.363,13.84715,0.01283337,0.96456,1.03604
131.963,13.932,0.01416,0.9867,1.03468
134.563,14.01645,0.01406498,1.00203,1.03332
137.163,14.10074,0.01251,1.01945,1.03194
139.763,14.18467,0.01251,1.03881,1.03057
142.363,14.2682,0.01316153,1.0586,1.02918
144.963,14.3514,0.01348396,1.0823,1.0278
147.563,14.43425,0.01382,1.10563,1.0264
150.163,14.51738,0.01506458,1.13033,1.025
152.763,14.5997,0.01383001,1.17863,1.02359
155.363,14.6823,0.01383,1.27639,1.02218
157.963,14.7645,0.01383,1.44493,1.02077
160.563,14.8467,0.01383013,1.71333,1.01934
163.163,14.929,0.01513999,2.07444,1.01792
165.763,15.01118,0.0141498,2.35274,1.01648
168.363,15.0935,0.01284005,2.16444,1.01505
170.963,15.1752,0.01356725,1.80483,1.0136
173.563,15.2562,0.01482903,1.56216,1.01215
176.163,15.33695,0.01347345,1.4165,1.0107
178.763,15.41734,0.01315773,1.33056,1.00924
181.363,15.4976,0.01086981,1.27925,1.00778
183.963,15.5775,0.01087943,1.25051,1.00631
186.563,15.65712,0.01255319,1.23498,1.00483
189.163,15.73681,0.01251,1.22751,1.00335
191.763,15.8164,0.01312843,1.22079,1.00187
194.363,15.89564,0.01240053,1.22385,1.00038
196.963,15.975,0.01239999,1.22509,0.99889
199.563,16.05422,0.01214652,1.22789,0.99739
202.163,16.13344,0.01239976,1.23027,0.99588
204.763,16.21249,0.01149506,1.23773,0.99438
207.363,16.2915,0.009769946,1.23994,0.99286
209.963,16.37055,0.00977,1.24594,0.99135
212.563,16.4497,0.00977,1.25098,0.98982
215.163,16.5285,0.00977,1.25377,0.9883
217.763,16.6073,0.009776053,1.26034,0.98677
220.363,16.686,0.009439076,1.26425,0.98523
222.963,16.76478,0.01009,1.26555,0.98369
225.563,16.8436,0.01009,1.27102,0.98215
228.163,16.92217,0.01009,1.27191,0.9806
230.763,17.00067,0.01009,1.27739,0.97905
233.363,17.07956,0.01009,1.27978,0.97749
235.963,17.1583,0.0074493,1.2827,0.97593
238.563,17.23676,0.006801228,1.2861,0.97437
241.163,17.31522,0.00615,1.29055,0.9728
243.763,17.39378,0.00578031,1.29402,0.97122
246.363,17.47227,0.0058198,1.29881,0.96965
248.963,17.5507,0.005819901,1.30117,0.96806
251.563,17.62903,0.0071401,1.30182,0.96648
254.163,17.7076,0.00714,1.30632,0.96489
256.763,17.78606,0.006556367,1.30991,0.9633
259.363,17.8645,0.005644517,1.31782,0.9617
261.963,17.94292,0.004510003,1.31909,0.9601
264.563,18.02134,0.00346759,1.32527,0.95849
267.163,18.0996,0.003192742,1.33155,0.95688
269.763,18.17795,0.00219,1.33399,0.95527
272.363,18.25639,0.00218994,1.34075,0.95366
274.963,18.33481,0.000879332,1.34696,0.95204
277.563,18.41327,-0.0004399988,1.35502,0.95041
280.163,18.49193,-0.001744394,1.36187,0.94879
282.763,18.57017,-0.003295993,1.37243,0.94716
285.363,18.64872,-0.00450023,1.3801,0.94552
287.963,18.7273,-0.005843745,1.38843,0.94388
290.563,18.80594,-0.008449497,1.39657,0.94224
293.163,18.88438,-0.009923752,1.40908,0.9406
295.763,18.96334,-0.01270803,1.41943,0.93895
298.363,19.0418,-0.01874072,1.42899,0.9373
300.963,19.12055,-0.02297393,1.44393,0.93565
303.563,19.1991,-0.02711216,1.45809,0.93399
306.163,19.27777,-0.03234373,1.47361,0.93233
308.763,19.3565,-0.03712253,1.49041,0.93066
311.363,19.43524,-0.04447762,1.51048,0.92899
313.963,19.51398,-0.05233179,1.53184,0.92732
316.563,19.59272,-0.06245505,1.54554,0.92565
319.163,19.67166,-0.07305854,1.5623,0.92397
321.763,19.7505,-0.08344739,1.58037,0.92229
324.363,19.8294,-0.09566545,1.61122,0.92061
326.963,19.90825,-0.10888,1.66241,0.91892
329.563,19.98742,-0.12425,1.73392,0.91723
332.163,20.0665,-0.14218,1.82019,0.91554
334.763,20.14572,-0.16253,1.91565,0.91384
337.363,20.22504,-0.18548,2.02324,0.91214
339.963,20.30443,-0.21071,2.15873,0.91044
342.563,20.38373,-0.24084,2.29544,0.90874
345.163,20.46363,-0.27461,2.46944,0.90703
347.763,20.54354,-0.31134,2.65607,0.90532
350.363,20.62349,-0.3543,2.87976,0.9036
352.963,20.70352,-0.40298,3.12623,0.90189
355.563,20.7837,-0.45844,3.39319,0.90017
358.163,20.8641,-0.51842,3.76893,0.89845
360.763,20.94465,-0.59048,4.26281,0.89672
363.363,21.02542,-0.67527,4.86849,0.89499
365.963,21.10652,-0.7779,5.63765,0.89326
368.563,21.18834,-0.90077,6.53569,0.89153
371.163,21.27055,-1.0502,7.57069,0.8898
373.763,21.35323,-1.22891,8.66308,0.88806
376.363,21.43584,-1.45153,9.73222,0.88632
378.963,21.51919,-1.67892,10.71782,0.88457
381.563,21.60291,-1.929,11.5313,0.88283
384.163,21.68666,-2.19105,12.10768,0.88108
386.763,21.77005,-2.45939,12.36316,0.87933
389.363,21.8529,-2.72838,12.20615,0.87757
391.963,21.93512,-2.98709,11.50475,0.87582
394.563,22.01628,-3.21868,10.19802,0.87406
397.163,22.09616,-3.41143,8.22464,0.8723
399.763,22.17485,-3.55265,5.79217,0.87053
402.363,22.2527,-3.64314,3.59047,0.86877
404.963,22.32956,-3.69045,2.14007,0.867
407.563,22.40695,-3.71547,1.30583,0.86523
410.163,22.48431,-3.7318,0.84538,0.86345
412.763,22.5624,-3.74267,0.58063,0.86168
415.363,22.64094,-3.75099,0.43007,0.8599
417.963,22.71981,-3.75673,0.34575,0.85812
420.563,22.79935,-3.76371,0.29477,0.85634
423.163,22.87895,-3.76757,0.26896,0.85455
425.763,22.9588,-3.77378,0.25455,0.85276
428.363,23.03908,-3.77867,0.2502,0.85097
430.963,23.11974,-3.78384,0.24838,0.84918
433.563,23.20045,-3.78679,0.25159,0.84739
436.163,23.2814,-3.79176,0.2532,0.84559
438.763,23.36249,-3.79498,0.25676,0.84379
441.363,23.4436,-3.80023,0.26075,0.84199
443.963,23.52492,-3.8051,0.26536,0.84019
446.563,23.60644,-3.81091,0.27238,0.83838
449.163,23.68809,-3.81528,0.27295,0.83657
451.763,23.76972,-3.82036,0.2771,0.83476
454.363,23.85149,-3.82515,0.28123,0.83295
456.963,23.93347,-3.82969,0.28488,0.83114
459.563,24.01538,-3.83426,0.28836,0.82932
462.163,24.09754,-3.83945,0.29218,0.8275
464.763,24.17961,-3.84456,0.29569,0.82568
467.363,24.26171,-3.851,0.30351,0.82386
469.963,24.34434,-3.85572,0.30956,0.82204
472.563,24.42711,-3.86361,0.31459,0.82021
475.163,24.5097,-3.86846,0.32184,0.81838
477.763,24.59232,-3.8732,0.32601,0.81655
480.363,24.675,-3.87978,0.3301,0.81472
482.963,24.758,-3.88512,0.3315,0.81289
485.563,24.84083,-3.89115,0.33348,0.81105
488.163,24.9237,-3.89675,0.33408,0.80921
490.763,25.00681,-3.90374,0.32965,0.80737
493.363,25.08982,-3.90882,0.32429,0.80553
495.963,25.17305,-3.9136,0.31776,0.80369
498.563,25.25617,-3.91621,0.31439,0.80184
501.163,25.33948,-3.91904,0.31003,0.79999
503.763,25.4226,-3.92283,0.30448,0.79814
506.363,25.50619,-3.92413,0.30154,0.79629
508.963,25.58931,-3.92653,0.30094,0.79444
511.563,25.67308,-3.92687,0.30081,0.79258
514.163,25.75646,-3.92819,0.30803,0.79073
516.763,25.84016,-3.92885,0.31363,0.78887
519.363,25.9238,-3.92819,0.32617,0.78701
521.963,26.00731,-3.92819,0.33984,0.78515
524.563,26.09119,-3.9295,0.36199,0.78328
527.163,26.17483,-3.92983,0.38885,0.78142
529.763,26.25865,-3.93077,0.42561,0.77955
532.363,26.3425,-3.93149,0.45883,0.77768
534.963,26.4266,-3.93247,0.48855,0.77581
537.563,26.51063,-3.93116,0.51762,0.77394
540.163,26.59474,-3.93115,0.53711,0.77206
542.763,26.6791,-3.93115,0.55098,0.77019
545.363,26.76335,-3.93115,0.57163,0.76831
547.963,26.84737,-3.93243,0.58242,0.76643
550.563,26.9319,-3.93364,0.59194,0.76455
553.163,27.01643,-3.93291,0.60352,0.76266
555.763,27.10107,-3.93208,0.61015,0.76078
558.363,27.18552,-3.93213,0.61618,0.75889
560.963,27.26998,-3.93279,0.62694,0.75701
563.563,27.3547,-3.93411,0.63012,0.75512
566.163,27.43935,-3.93411,0.63847,0.75323
568.763,27.52402,-3.93411,0.6436,0.75134
571.363,27.6087,-3.93411,0.65277,0.74944
573.963,27.6935,-3.93411,0.66125,0.74755
576.563,27.7784,-3.93376,0.67314,0.74565
579.163,27.8633,-3.9351,0.68429,0.74375
581.763,27.94825,-3.9351,0.69268,0.74185
584.363,28.03322,-3.9351,0.70196,0.73995
586.963,28.11825,-3.9351,0.7133,0.73805
589.563,28.203,-3.9351,0.72195,0.73614
592.163,28.2883,-3.9351,0.7347,0.73424
594.763,28.37316,-3.93608,0.74202,0.73233
597.363,28.45885,-3.93608,0.75157,0.73042
599.963,28.54427,-3.93608,0.76185,0.72851
602.563,28.6292,-3.93641,0.76759,0.7266
605.163,28.71483,-3.93641,0.77814,0.72469
607.763,28.8001,-3.9374,0.78348,0.72278
610.363,28.8856,-3.9374,0.79329,0.72086
612.963,28.97103,-3.93699,0.80259,0.71895
615.563,29.0566,-3.93641,0.8119,0.71703
618.163,29.14175,-3.93641,0.81861,0.71511
620.763,29.22727,-3.9374,0.82858,0.71319
623.363,29.31302,-3.9374,0.83575,0.71127
625.963,29.39893,-3.93874,0.84531,0.70934
628.563,29.4846,-3.93872,0.85422,0.70742
631.163,29.5703,-3.93873,0.86433,0.70549
633.763,29.6558,-3.94003,0.8748,0.70357
636.363,29.7415,-3.93839,0.8795,0.70164
638.963,29.82726,-3.93839,0.88906,0.69971
641.563,29.9132,-3.93773,0.89189,0.69778
644.163,29.99898,-3.93697,0.89826,0.69585