Folder: fsri_materials_database/01_Data/PLA_3D_Printer_Filament/STA/N2/30K_min

Note: 01_Data/README.md
# Materials and Products Database
## 01_Data

Raw data generated from each apparatus are included here in plain-text format. The data is organized first by material, next by the short name of test apparatus used, and where applicable additional filtering by test settings.

### material.json

Each material directory contains a json file of the same name as the material. This file links the data stored in the repository as well as data and graphs produced by the accompanying scripts (__02_Scripts__) to the respective landing page for the material on the front-end website.

File: PLA_STA_N2_30KData_220504_R1.csv
##Temp./Â°C,Time/min,Mass loss(subtr.2)/mg,DSC(subtr.2)/(mW/mg),Sensit./(uV/mW)
48.591,10.00667,-0.01788,0.00234165,1.07502
51.191,10.8256,-0.01834265,0.1339,1.07387
53.791,11.0388,-0.01827798,0.23224,1.07271
56.391,11.1991,-0.01775763,0.3127,1.07155
58.991,11.33763,-0.01597082,0.38411,1.07038
61.591,11.46154,-0.01789329,0.45958,1.0692
64.191,11.57647,-0.01810053,0.58065,1.06802
66.791,11.68548,-0.01699183,0.82014,1.06683
69.391,11.7902,-0.01756336,0.82952,1.06563
71.991,11.89141,-0.01828085,0.78481,1.06442
74.591,11.98995,-0.01568349,0.75948,1.0632
77.191,12.08615,-0.01597914,0.74395,1.06198
79.791,12.1808,-0.01694783,0.74071,1.06075
82.391,12.27444,-0.01699909,0.73799,1.05952
84.991,12.36562,-0.01786133,0.7271,1.05827
87.591,12.45663,-0.0177846,0.70589,1.05702
90.191,12.54606,-0.01811349,0.65963,1.05577
92.791,12.6356,-0.0195331,0.59285,1.0545
95.391,12.7243,-0.01819299,0.51436,1.05323
97.991,12.81232,-0.01767633,0.4497,1.05196
100.591,12.89982,-0.01942091,0.41892,1.05067
103.191,12.98739,-0.01940967,0.4353,1.04938
105.791,13.07423,-0.01835829,0.49773,1.04809
108.391,13.16145,-0.01941984,0.582,1.04678
110.991,13.2484,-0.01943692,0.65506,1.04547
113.591,13.335,-0.0192154,0.70578,1.04416
116.191,13.4217,-0.01809774,0.75214,1.04284
118.791,13.50804,-0.01941994,0.79121,1.04151
121.391,13.5945,-0.01941532,0.82294,1.04017
123.991,13.6805,-0.01941,0.85236,1.03883
126.591,13.7659,-0.01838146,0.88109,1.03748
129.191,13.8511,-0.01942,0.90674,1.03613
131.791,13.9359,-0.02039883,0.92717,1.03477
134.391,14.02048,-0.01908006,0.94661,1.03341
136.991,14.1045,-0.01939159,0.96215,1.03204
139.591,14.1882,-0.0206931,0.98029,1.03066
142.191,14.27175,-0.02072763,0.99588,1.02928
144.791,14.35491,-0.02007613,1.01712,1.02789
147.391,14.43769,-0.02006866,1.03175,1.02649
149.991,14.5203,-0.01909026,1.04549,1.02509
152.591,14.60281,-0.0200674,1.07512,1.02369
155.191,14.68537,-0.02007029,1.16371,1.02228
157.791,14.7674,-0.02139,1.32088,1.02086
160.391,14.84945,-0.02139,1.58896,1.01944
162.991,14.93157,-0.02139,1.96953,1.01801
165.591,15.0138,-0.02139012,2.26234,1.01658
168.191,15.09612,-0.02171286,2.0412,1.01514
170.791,15.1778,-0.02265238,1.67447,1.0137
173.391,15.2589,-0.02271,1.44154,1.01225
175.991,15.33945,-0.02238138,1.30082,1.0108
178.591,15.42,-0.02238,1.214,1.00934
181.191,15.50031,-0.02238,1.1658,1.00787
183.791,15.58031,-0.02338582,1.13763,1.0064
186.391,15.66019,-0.02369,1.12029,1.00493
188.991,15.73974,-0.02369,1.11059,1.00345
191.591,15.8194,-0.02369,1.10896,1.00197
194.191,15.8986,-0.02368989,1.10831,1.00048
196.791,15.97821,-0.02460232,1.108,0.99898
199.391,16.0574,-0.02468,1.10952,0.99749
201.991,16.13658,-0.02468,1.1143,0.99598
204.591,16.21574,-0.02498154,1.11598,0.99448
207.191,16.29466,-0.02567001,1.11666,0.99296
209.791,16.3738,-0.02665012,1.11712,0.99145
212.391,16.4529,-0.02665,1.11932,0.98993
214.991,16.53184,-0.02665,1.12206,0.9884
217.591,16.61071,-0.02665,1.12673,0.98687
220.191,16.68978,-0.02662651,1.12714,0.98533
222.791,16.7684,-0.02763999,1.12812,0.9838
225.391,16.8474,-0.02896014,1.13189,0.98225
227.991,16.926,-0.02896,1.13524,0.9807
230.591,17.00488,-0.02896,1.13454,0.97915
233.191,17.0835,-0.02896,1.13937,0.97759
235.791,17.1621,-0.02951298,1.13815,0.97603
238.391,17.24065,-0.03028642,1.14342,0.97447
240.991,17.31914,-0.03027,1.14481,0.9729
243.591,17.39786,-0.03027,1.14496,0.97133
246.191,17.47632,-0.03026679,1.15086,0.96975
248.791,17.55479,-0.03191191,1.14887,0.96817
251.391,17.63316,-0.03192,1.15326,0.96658
253.991,17.71163,-0.03192,1.15182,0.96499
256.591,17.79015,-0.03192,1.15455,0.9634
259.191,17.86842,-0.03192233,1.15699,0.9618
261.791,17.94665,-0.03323949,1.15937,0.9602
264.391,18.02476,-0.03324,1.15945,0.9586
266.991,18.10345,-0.03324414,1.16236,0.95699
269.591,18.18175,-0.03423196,1.16737,0.95538
272.191,18.2603,-0.03422082,1.16959,0.95376
274.791,18.33851,-0.03487155,1.16963,0.95214
277.391,18.41699,-0.03597051,1.17583,0.95052
279.991,18.49549,-0.03625748,1.17994,0.94889
282.591,18.57385,-0.03751999,1.18339,0.94726
285.191,18.65241,-0.03910246,1.19215,0.94563
287.791,18.73091,-0.03949374,1.19425,0.94399
290.391,18.80944,-0.03816673,1.20125,0.94235
292.991,18.8882,-0.04165659,1.20716,0.94071
295.591,18.9667,-0.04211999,1.2158,0.93906
298.191,19.0452,-0.04233678,1.2228,0.93741
300.791,19.12398,-0.04473233,1.23401,0.93575
303.391,19.20265,-0.04737485,1.24323,0.9341
305.991,19.28134,-0.05000824,1.25436,0.93244
308.591,19.3601,-0.05286886,1.26348,0.93077
311.191,19.43905,-0.05574395,1.27501,0.9291
313.791,19.51782,-0.05967333,1.2889,0.92743
316.391,19.59669,-0.06251661,1.30524,0.92576
318.991,19.6757,-0.06731711,1.32534,0.92408
321.591,19.75477,-0.07223756,1.34769,0.9224
324.191,19.83374,-0.07820283,1.37131,0.92072
326.791,19.91285,-0.08784752,1.40577,0.91903
329.391,19.9921,-0.09365618,1.4412,0.91734
331.991,20.0714,-0.10205,1.4852,0.91565
334.591,20.15062,-0.11226,1.54009,0.91395
337.191,20.22992,-0.12489,1.61517,0.91225
339.791,20.30949,-0.1405,1.70309,0.91055
342.391,20.38915,-0.15764,1.8036,0.90885
344.991,20.46885,-0.17868,1.93266,0.90714
347.591,20.54879,-0.20237,2.08951,0.90543
350.191,20.6286,-0.22962,2.28463,0.90372
352.791,20.70895,-0.26254,2.54279,0.902
355.391,20.7892,-0.303,2.84145,0.90028
357.991,20.8697,-0.35039,3.09093,0.89856
360.591,20.95046,-0.40314,3.45266,0.89684
363.191,21.0314,-0.46792,4.04029,0.89511
365.791,21.11266,-0.54806,4.78642,0.89338
368.391,21.19431,-0.64685,5.71287,0.89165
370.991,21.27655,-0.77093,6.31034,0.88991
373.591,21.3591,-0.93741,6.94616,0.88817
376.191,21.44156,-1.12526,7.78658,0.88643
378.791,21.5242,-1.36235,8.76987,0.88469
381.391,21.6072,-1.58946,10.32152,0.88294
383.991,21.69088,-1.84242,11.51957,0.88119
386.591,21.7748,-2.11557,12.32645,0.87944
389.191,21.85866,-2.39617,12.6981,0.87769
391.791,21.94182,-2.67631,12.49925,0.87593
394.391,22.0241,-2.93938,11.666,0.87417
396.991,22.10537,-3.1741,10.1764,0.87241
399.591,22.18505,-3.35987,8.0243,0.87065
402.191,22.26345,-3.49472,5.44213,0.86888
404.791,22.34083,-3.5809,3.16594,0.86711
407.391,22.41793,-3.62947,1.63172,0.86534
409.991,22.49495,-3.65502,0.75756,0.86357
412.591,22.57217,-3.67102,0.27049,0.86179
415.191,22.65029,-3.68299,-0.003366509,0.86002
417.791,22.72888,-3.69007,-0.15972,0.85824
420.391,22.8078,-3.69692,-0.25003,0.85645
422.991,22.88704,-3.70382,-0.30289,0.85467
425.591,22.96695,-3.70927,-0.33474,0.85288
428.191,23.047,-3.71222,-0.34984,0.85109
430.791,23.1273,-3.71765,-0.36096,0.8493
433.391,23.2079,-3.7223,-0.36577,0.8475
435.991,23.28848,-3.72709,-0.36449,0.84571
438.591,23.36921,-3.73193,-0.36571,0.84391
441.191,23.4504,-3.73676,-0.36408,0.84211
443.791,23.5318,-3.74198,-0.36252,0.84031
446.391,23.61308,-3.74653,-0.3626,0.8385
448.991,23.69481,-3.75133,-0.36248,0.83669
451.591,23.77648,-3.75714,-0.36295,0.83488
454.191,23.8583,-3.76175,-0.36473,0.83307
456.791,23.94019,-3.7664,-0.36712,0.83126
459.391,24.0219,-3.77008,-0.37271,0.82944
461.991,24.10415,-3.77494,-0.37331,0.82762
464.591,24.1863,-3.78097,-0.37574,0.8258
467.191,24.2687,-3.78595,-0.37611,0.82398
469.791,24.35096,-3.79153,-0.37857,0.82216
472.391,24.43313,-3.79679,-0.37859,0.82033
474.991,24.5161,-3.80209,-0.37995,0.8185
477.591,24.59873,-3.80869,-0.38488,0.81667
480.191,24.6813,-3.81481,-0.38584,0.81484
482.791,24.7639,-3.82027,-0.39227,0.81301
485.391,24.84676,-3.82652,-0.40058,0.81117
487.991,24.92967,-3.83258,-0.40837,0.80933
490.591,25.01259,-3.83717,-0.41889,0.80749
493.191,25.09546,-3.84065,-0.43075,0.80565
495.791,25.17867,-3.8439,-0.4456,0.80381
498.391,25.26154,-3.84848,-0.45629,0.80196
500.991,25.34467,-3.85064,-0.46917,0.80011
503.591,25.42792,-3.85196,-0.48215,0.79827
506.191,25.5112,-3.85329,-0.49384,0.79641
508.791,25.59456,-3.85459,-0.49893,0.79456
511.391,25.67781,-3.85586,-0.50666,0.79271
513.991,25.7612,-3.85721,-0.50997,0.79085
516.591,25.84433,-3.85854,-0.48701,0.78899
519.191,25.92747,-3.85854,-0.46919,0.78713
521.791,26.0111,-3.85854,-0.47596,0.78527
524.391,26.09495,-3.8592,-0.49772,0.7834
526.991,26.17869,-3.8592,-0.51454,0.78154
529.591,26.26244,-3.8592,-0.52835,0.77967
532.191,26.3465,-3.85985,-0.55042,0.7778
534.791,26.43025,-3.86117,-0.57349,0.77593
537.391,26.5145,-3.85986,-0.59428,0.77406
539.991,26.59849,-3.85986,-0.61302,0.77219
542.591,26.6827,-3.86117,-0.62164,0.77031
545.191,26.76683,-3.86118,-0.632,0.76843
547.791,26.8505,-3.86117,-0.63784,0.76655
550.391,26.93475,-3.85986,-0.64163,0.76467
552.991,27.01908,-3.86181,-0.64888,0.76279
555.591,27.10342,-3.86248,-0.65057,0.76091
558.191,27.18777,-3.86248,-0.65158,0.75902
560.791,27.27243,-3.86248,-0.6572,0.75713
563.391,27.35714,-3.86248,-0.65978,0.75524
565.991,27.4418,-3.8638,-0.66718,0.75335
568.591,27.52638,-3.86381,-0.66882,0.75146
571.191,27.61109,-3.86248,-0.67174,0.74957
573.791,27.6957,-3.8638,-0.6767,0.74767
576.391,27.78078,-3.86381,-0.67793,0.74578
578.991,27.8655,-3.86282,-0.67775,0.74388
581.591,27.94988,-3.8628,-0.68196,0.74198
584.191,28.0354,-3.86413,-0.68082,0.74008
586.791,28.1205,-3.86413,-0.68195,0.73817
589.391,28.20553,-3.86414,-0.68521,0.73627
591.991,28.29055,-3.86545,-0.68705,0.73437
594.591,28.3762,-3.86545,-0.6871,0.73246
597.191,28.4615,-3.86545,-0.69124,0.73055
599.791,28.54682,-3.86676,-0.6886,0.72864
602.391,28.63219,-3.86646,-0.68681,0.72673
604.991,28.71762,-3.86545,-0.68527,0.72482
607.591,28.80293,-3.86447,-0.67992,0.7229
610.191,28.88826,-3.86532,-0.6781,0.72099
612.791,28.97372,-3.86709,-0.67346,0.71907
615.391,29.05932,-3.86578,-0.67688,0.71715
617.991,29.14462,-3.86629,-0.6705,0.71524
620.591,29.23033,-3.86607,-0.67144,0.71332
623.191,29.31557,-3.86611,-0.66624,0.71139
625.791,29.4013,-3.86743,-0.66273,0.70947
628.391,29.48708,-3.86874,-0.6559,0.70755
630.991,29.57259,-3.86874,-0.65333,0.70562
633.591,29.65826,-3.86808,-0.64852,0.70369
636.191,29.74405,-3.86808,-0.64478,0.70177
638.791,29.82948,-3.86808,-0.63983,0.69984
641.391,29.9154,-3.86808,-0.63857,0.69791
643.891,29.9977,-3.86939,-0.63447,0.69605

File: PLA_STA_N2_30KData_220504_R2.csv
##Temp./Â°C,Time/min,Mass loss(subtr.2)/mg,DSC(subtr.2)/(mW/mg),Sensit./(uV/mW)
48.625,10.00667,-0.01196,0.006451935,1.075
51.225,10.8268,-0.01131185,0.15041,1.07385
53.825,11.0398,-0.01209277,0.25855,1.0727
56.425,11.20067,-0.01123471,0.34879,1.07154
59.025,11.33827,-0.01096689,0.42602,1.07037
61.625,11.46193,-0.01085362,0.50718,1.06919
64.225,11.57691,-0.01082954,0.63702,1.068
66.825,11.6854,-0.010262,0.89293,1.06681
69.425,11.79005,-0.01038989,0.90189,1.06561
72.025,11.8909,-0.009641482,0.8674,1.0644
74.625,11.98956,-0.01010361,0.85254,1.06319
77.225,12.08576,-0.01185336,0.84865,1.06197
79.825,12.18056,-0.01136861,0.85172,1.06074
82.425,12.27367,-0.009768384,0.85357,1.0595
85.025,12.3654,-0.01040814,0.84878,1.05826
87.625,12.4565,-0.01015754,0.82895,1.05701
90.225,12.5456,-0.01131496,0.78503,1.05575
92.825,12.63492,-0.01025886,0.71906,1.05449
95.425,12.7233,-0.00832907,0.64352,1.05322
98.025,12.81131,-0.009620665,0.57291,1.05194
100.625,12.89935,-0.00964903,0.53542,1.05066
103.225,12.98658,-0.009646362,0.54726,1.04937
105.825,13.07405,-0.00963987,0.60534,1.04807
108.425,13.1609,-0.0109708,0.69266,1.04677
111.025,13.24821,-0.01100491,0.77486,1.04546
113.625,13.33486,-0.01096374,0.83226,1.04414
116.225,13.4217,-0.01096993,0.88067,1.04282
118.825,13.50813,-0.009648258,0.92619,1.04149
121.425,13.59423,-0.01173167,0.96478,1.04015
124.025,13.6803,-0.01097,0.99788,1.03881
126.625,13.7656,-0.01097007,1.02553,1.03747
129.225,13.851,-0.01096871,1.05478,1.03611
131.825,13.9357,-0.01097,1.0798,1.03475
134.425,14.0203,-0.01094547,1.10208,1.03339
137.025,14.10445,-0.01079863,1.12018,1.03202
139.625,14.1883,-0.01095767,1.14256,1.03064
142.225,14.2717,-0.01097,1.16375,1.02926
144.825,14.35455,-0.01096821,1.18553,1.02787
147.425,14.438,-0.009673246,1.20398,1.02647
150.025,14.5206,-0.01162998,1.21731,1.02508
152.625,14.6028,-0.0129401,1.2508,1.02367
155.225,14.6853,-0.01170637,1.33109,1.02226
157.825,14.7675,-0.01162,1.47713,1.02084
160.425,14.84937,-0.01063573,1.72343,1.01942
163.025,14.93188,-0.01149473,2.10053,1.01799
165.625,15.01399,-0.01196657,2.43472,1.01656
168.225,15.096,-0.01064001,2.27548,1.01512
170.825,15.17774,-0.01064,1.90055,1.01368
173.425,15.25888,-0.01064027,1.66111,1.01223
176.025,15.33971,-0.01196,1.51915,1.01078
178.625,15.4202,-0.01196,1.43213,1.00932
181.225,15.4998,-0.01196,1.38492,1.00785
183.825,15.58048,-0.01196001,1.35763,1.00638
186.425,15.6601,-0.01327003,1.34359,1.00491
189.025,15.73984,-0.01327,1.33476,1.00343
191.625,15.8194,-0.01327003,1.33091,1.00195
194.225,15.89882,-0.01458009,1.33268,1.00046
196.825,15.97831,-0.01432985,1.33586,0.99897
199.425,16.0575,-0.01348419,1.34011,0.99747
202.025,16.13635,-0.01328,1.34719,0.99596
204.625,16.21568,-0.01327982,1.3504,0.99446
207.225,16.29468,-0.01557344,1.35512,0.99294
209.825,16.3737,-0.01557,1.36,0.99143
212.425,16.4525,-0.01556847,1.36256,0.98991
215.025,16.5314,-0.0159,1.36913,0.98838
217.625,16.61027,-0.01589998,1.37393,0.98685
220.225,16.68906,-0.017219,1.37707,0.98531
222.825,16.76772,-0.01722,1.3836,0.98377
225.425,16.84637,-0.01689994,1.38794,0.98223
228.025,16.92494,-0.01689,1.39143,0.98068
230.625,17.00362,-0.01688992,1.39375,0.97913
233.225,17.0822,-0.01854175,1.39958,0.97757
235.825,17.16084,-0.01854,1.40246,0.97601
238.425,17.2392,-0.01919567,1.40665,0.97445
241.025,17.31781,-0.0192,1.41161,0.97288
243.625,17.3964,-0.0192,1.41076,0.97131
246.225,17.47481,-0.01920034,1.41334,0.96973
248.825,17.55323,-0.02084,1.41907,0.96815
251.425,17.63164,-0.02084,1.41921,0.96656
254.025,17.7102,-0.02084,1.42161,0.96497
256.625,17.7887,-0.02084,1.42053,0.96338
259.225,17.86711,-0.02017095,1.42723,0.96178
261.825,17.9453,-0.02149464,1.42702,0.96018
264.425,18.02368,-0.0215,1.42778,0.95858
267.025,18.10213,-0.02169125,1.4304,0.95697
269.625,18.18045,-0.02216,1.43124,0.95536
272.225,18.259,-0.02212484,1.43302,0.95374
274.825,18.33738,-0.02347,1.43537,0.95212
277.425,18.41585,-0.02347001,1.43982,0.9505
280.025,18.4943,-0.02313988,1.44106,0.94887
282.625,18.57271,-0.02314,1.44706,0.94724
285.225,18.6512,-0.02313633,1.44754,0.94561
287.825,18.72983,-0.02446,1.45165,0.94397
290.425,18.80811,-0.02556153,1.45677,0.94233
293.025,18.88683,-0.02578,1.45825,0.94069
295.625,18.96544,-0.02578,1.46425,0.93904
298.225,19.04424,-0.0271041,1.47455,0.93739
300.825,19.12283,-0.02841025,1.48043,0.93573
303.425,19.20155,-0.02972958,1.49514,0.93408
306.025,19.2803,-0.03104091,1.51034,0.93241
308.625,19.35906,-0.0338937,1.5283,0.93075
311.225,19.43785,-0.03597678,1.53727,0.92908
313.825,19.51665,-0.03733192,1.53262,0.92741
316.425,19.5956,-0.03912678,1.5244,0.92574
319.025,19.67437,-0.04222369,1.52132,0.92406
321.625,19.7533,-0.04640005,1.52875,0.92238
324.225,19.83233,-0.0510194,1.55156,0.9207
326.825,19.91142,-0.05563849,1.58742,0.91901
329.425,19.9905,-0.06175439,1.63686,0.91732
332.025,20.0696,-0.06859579,1.70167,0.91563
334.625,20.14885,-0.07751326,1.7804,0.91393
337.225,20.2283,-0.08751986,1.86833,0.91223
339.825,20.30782,-0.1006,1.97244,0.91053
342.425,20.38729,-0.11561,2.08672,0.90883
345.025,20.46696,-0.13304,2.23072,0.90712
347.625,20.5467,-0.15498,2.40515,0.90541
350.225,20.62654,-0.18028,2.61487,0.90369
352.825,20.70674,-0.21139,2.83505,0.90198
355.425,20.78689,-0.24855,3.09708,0.90026
358.025,20.867,-0.29161,3.45421,0.89854
360.625,20.94789,-0.34562,3.94064,0.89681
363.225,21.0288,-0.40751,4.29643,0.89509
365.825,21.1102,-0.49628,4.64733,0.89336
368.425,21.19155,-0.61557,5.17889,0.89162
371.025,21.2732,-0.75673,6.11519,0.88989
373.625,21.35539,-0.92223,7.19988,0.88815
376.225,21.4377,-1.11551,8.44525,0.88641
378.825,21.52091,-1.35802,10.0123,0.88467
381.425,21.60485,-1.59318,11.33625,0.88292
384.025,21.68894,-1.86292,12.3809,0.88117
386.625,21.7735,-2.15735,13.0281,0.87942
389.225,21.85741,-2.45032,13.1909,0.87767
391.825,21.94081,-2.73409,12.82809,0.87591
394.425,22.02295,-2.99797,11.85953,0.87415
397.025,22.10398,-3.2287,10.17248,0.87239
399.625,22.18323,-3.40842,7.7525,0.87063
402.225,22.26125,-3.53215,5.05118,0.86886
404.825,22.33845,-3.60729,2.90603,0.86709
407.425,22.41524,-3.64427,1.61412,0.86532
410.025,22.4923,-3.66393,0.89401,0.86355
412.625,22.56981,-3.67815,0.49788,0.86177
415.225,22.6477,-3.68782,0.27196,0.85999
417.825,22.72619,-3.69396,0.14412,0.85821
420.425,22.80535,-3.6998,0.06721341,0.85643
423.025,22.88469,-3.70394,0.02369375,0.85464
425.625,22.96459,-3.70911,-0.001742568,0.85286
428.225,23.04464,-3.71413,-0.01824782,0.85107
430.825,23.12487,-3.71908,-0.02271244,0.84928
433.425,23.2053,-3.72315,-0.02637287,0.84748
436.025,23.28596,-3.72836,-0.02526913,0.84568
438.625,23.36702,-3.73341,-0.02019001,0.84389
441.225,23.44771,-3.73789,-0.0160502,0.84209
443.825,23.52931,-3.74247,-0.01443089,0.84028
446.425,23.61066,-3.74912,-0.01042455,0.83848
449.025,23.69236,-3.75415,-0.01094116,0.83667
451.625,23.77394,-3.75872,-0.0071407,0.83486
454.225,23.8558,-3.76457,-0.007446316,0.83305
456.825,23.93769,-3.76895,-0.00525034,0.83123
459.425,24.01921,-3.77431,-0.004439905,0.82942
462.025,24.10142,-3.7778,-0.000219029,0.8276
464.625,24.18375,-3.78372,0.00141721,0.82578
467.225,24.26599,-3.79108,0.0071146,0.82396
469.825,24.34838,-3.79491,0.00696906,0.82213
472.425,24.43081,-3.80001,0.01232334,0.82031
475.025,24.5135,-3.80656,0.01770014,0.81848
477.625,24.59608,-3.81268,0.02070022,0.81665
480.225,24.67895,-3.81835,0.01877622,0.81482
482.825,24.76226,-3.82249,0.0163753,0.81298
485.425,24.84509,-3.82893,0.01591629,0.81115
488.025,24.928,-3.83336,0.00852386,0.80931
490.625,25.011,-3.84005,0.001738982,0.80747
493.225,25.0942,-3.84294,-0.004085521,0.80563
495.825,25.17739,-3.84747,-0.01357096,0.80378
498.425,25.26067,-3.8501,-0.01963178,0.80194
501.025,25.34389,-3.85264,-0.03190848,0.80009
503.625,25.42715,-3.85404,-0.03202568,0.79824
506.225,25.5104,-3.85535,-0.03943319,0.79639
508.825,25.59378,-3.85667,-0.04227266,0.79454
511.425,25.67729,-3.8574,-0.03815198,0.79268
514.025,25.76101,-3.85798,-0.03446791,0.79083
516.625,25.84455,-3.85915,-0.01980167,0.78897
519.225,25.928,-3.85929,0.01099588,0.78711
521.825,26.01151,-3.85843,0.05083082,0.78524
524.425,26.095,-3.8593,0.08487436,0.78338
527.025,26.17889,-3.8593,0.11391,0.78151
529.625,26.26271,-3.86064,0.13286,0.77965
532.225,26.34675,-3.86062,0.14936,0.77778
534.825,26.43073,-3.86325,0.15979,0.77591
537.425,26.51469,-3.86062,0.17487,0.77403
540.025,26.59885,-3.86062,0.18023,0.77216
542.625,26.68313,-3.86062,0.18511,0.77028
545.225,26.7675,-3.86062,0.18759,0.76841
547.825,26.8516,-3.86062,0.19075,0.76653
550.425,26.936,-3.86062,0.18931,0.76465
553.025,27.0204,-3.86095,0.19166,0.76276
555.625,27.1049,-3.86259,0.19451,0.76088
558.225,27.1892,-3.86259,0.19936,0.75899
560.825,27.27372,-3.86259,0.20447,0.75711
563.425,27.3582,-3.86128,0.20496,0.75522
566.025,27.4429,-3.86193,0.20515,0.75333
568.625,27.52732,-3.86193,0.20843,0.75144
571.225,27.612,-3.86193,0.21056,0.74954
573.825,27.69684,-3.86193,0.21274,0.74765
576.425,27.78145,-3.86226,0.21747,0.74575
579.025,27.8664,-3.86226,0.22005,0.74385
581.625,27.95128,-3.86226,0.22392,0.74195
584.225,28.03637,-3.86095,0.2263,0.74005
586.825,28.1212,-3.86095,0.23432,0.73815
589.425,28.2064,-3.86094,0.23889,0.73625
592.025,28.29158,-3.86292,0.2431,0.73434
594.625,28.37681,-3.86161,0.24578,0.73243
597.225,28.46218,-3.86161,0.25281,0.73053
599.825,28.54747,-3.86291,0.26173,0.72862
602.425,28.6328,-3.86292,0.26785,0.7267
605.025,28.7182,-3.86227,0.27383,0.72479
607.625,28.80354,-3.86359,0.27975,0.72288
610.225,28.88881,-3.86362,0.2871,0.72096
612.825,28.97435,-3.86227,0.29528,0.71905
615.425,29.05995,-3.86227,0.30171,0.71713
618.025,29.14565,-3.86359,0.30637,0.71521
620.625,29.23139,-3.86359,0.31298,0.71329
623.225,29.31713,-3.86359,0.32204,0.71137
625.825,29.4029,-3.86359,0.33133,0.70945
628.425,29.4887,-3.86359,0.33673,0.70752
631.025,29.5744,-3.86359,0.34681,0.7056
633.625,29.66028,-3.86358,0.35847,0.70367
636.225,29.74615,-3.86358,0.36789,0.70174
638.825,29.8319,-3.86358,0.37559,0.69981
641.425,29.918,-3.86457,0.3847,0.69788
643.825,29.9973,-3.86457,0.39339,0.6961