Folder: fsri_materials_database/01_Data/PLA_3D_Printer_Filament/STA/N2/3K_min

Note: 01_Data/README.md
# Materials and Products Database
## 01_Data

Raw data generated from each apparatus are included here in plain-text format. The data is organized first by material, next by the short name of test apparatus used, and where applicable additional filtering by test settings.

### material.json

Each material directory contains a json file of the same name as the material. This file links the data stored in the repository as well as data and graphs produced by the accompanying scripts (__02_Scripts__) to the respective landing page for the material on the front-end website.

File: PLA_STA_N2_3KData_220503_R1.csv
##Temp./Â°C,Time/min,Mass loss(subtr.2)/mg,DSC(subtr.2)/(mW/mg),Sensit./(uV/mW)
50.394,10.01667,-0.01119,0.00676563,1.05028
53.094,12.1149,-0.01137769,0.05985963,1.0498
55.794,13.15831,-0.01257555,0.06823644,1.04931
58.494,14.14311,-0.01692478,0.07974206,1.0488
61.194,15.09634,-0.0139795,0.11445,1.04829
63.894,16.02754,-0.01562787,0.11751,1.04776
66.594,16.94717,-0.01667777,0.08872934,1.04722
69.294,17.8557,-0.02023847,0.08607219,1.04667
71.994,18.75964,-0.02123317,0.08315891,1.0461
74.694,19.66587,-0.02192526,0.07660982,1.04553
77.394,20.5691,-0.02291298,0.06837816,1.04494
80.094,21.469,-0.02427782,0.04545253,1.04434
82.794,22.37069,-0.02388421,0.02173309,1.04373
85.494,23.2704,-0.02421874,0.02016332,1.04311
88.194,24.17052,-0.0244994,0.04301741,1.04248
90.894,25.06749,-0.02687217,0.06332081,1.04184
93.594,25.96666,-0.0262099,0.0748932,1.04118
96.294,26.861,-0.02624,0.08033115,1.04051
98.994,27.7569,-0.02518418,0.08462812,1.03983
101.694,28.64854,-0.02520383,0.08543504,1.03914
104.394,29.54007,-0.02783581,0.08829588,1.03844
107.094,30.43549,-0.02900732,0.09129056,1.03773
109.794,31.32348,-0.02972072,0.09380021,1.037
112.494,32.2187,-0.02939,0.09558795,1.03627
115.194,33.11303,-0.02972002,0.09306134,1.03552
117.894,34.0023,-0.03136938,0.09210103,1.03476
120.594,34.8902,-0.03170173,0.0948665,1.03399
123.294,35.78331,-0.03466085,0.09628429,1.0332
125.994,36.67212,-0.034866,0.09808305,1.03241
128.694,37.5591,-0.0334915,0.09799731,1.0316
131.394,38.44658,-0.0352155,0.09822223,1.03079
134.094,39.33149,-0.03620878,0.09651566,1.02996
136.794,40.21737,-0.03556229,0.09806939,1.02912
139.494,41.10519,-0.03849436,0.09441508,1.02827
142.194,41.98765,-0.03883003,0.09518315,1.0274
144.894,42.8765,-0.0401823,0.08780051,1.02653
147.594,43.7616,-0.03815995,0.07906699,1.02564
150.294,44.64547,-0.04098177,0.08493783,1.02474
152.994,45.52875,-0.03947188,0.09785512,1.02384
155.694,46.41075,-0.0409103,0.11467,1.02292
158.394,47.2976,-0.04145178,0.13324,1.02198
161.094,48.18084,-0.04211933,0.17409,1.02104
163.794,49.06496,-0.04442825,0.23759,1.02009
166.494,49.9529,-0.04343,0.32704,1.01912
169.194,50.83436,-0.04506983,0.2724,1.01814
171.894,51.70557,-0.04463431,0.10565,1.01715
174.594,52.5789,-0.04496875,0.10373,1.01615
177.294,53.4542,-0.04605849,0.1037,1.01514
179.994,54.33452,-0.04928605,0.09912058,1.01412
182.694,55.21006,-0.04925524,0.10075,1.01308
185.394,56.0897,-0.04923561,0.1007,1.01204
188.094,56.96715,-0.04989421,0.10005,1.01098
190.794,57.84575,-0.05054772,0.10006,1.00991
193.494,58.72523,-0.04858357,0.0980212,1.00883
196.194,59.6054,-0.05058484,0.09643214,1.00774
198.894,60.4807,-0.05056,0.09927535,1.00664
201.594,61.3579,-0.05253068,0.09652527,1.00553
204.294,62.2364,-0.05155555,0.09616416,1.0044
206.994,63.10861,-0.05187995,0.0995004,1.00327
209.694,63.98372,-0.05153118,0.09463868,1.00212
212.394,64.86182,-0.05108271,0.09221694,1.00096
215.094,65.73799,-0.05056962,0.0904799,0.99979
217.794,66.61102,-0.05155001,0.09232468,0.99861
220.494,67.48949,-0.05055388,0.0889638,0.99742
223.194,68.366,-0.05419337,0.0882063,0.99622
225.894,69.23828,-0.05417677,0.0895878,0.99501
228.594,70.1135,-0.05320012,0.08786898,0.99378
231.294,70.98962,-0.05385,0.08686245,0.99255
233.994,71.86188,-0.05255147,0.08751849,0.9913
236.694,72.73643,-0.05253735,0.08468966,0.99004
239.394,73.61389,-0.05648746,0.08385335,0.98877
242.094,74.4905,-0.05626919,0.08580624,0.98749
244.794,75.36835,-0.05778242,0.08595429,0.9862
247.494,76.24591,-0.05977996,0.08478815,0.9849
250.194,77.12135,-0.0610898,0.08782379,0.98359
252.894,77.99254,-0.06597452,0.08947246,0.98227
255.594,78.8668,-0.06767001,0.08847112,0.98093
258.294,79.7419,-0.06964943,0.08769848,0.97959
260.994,80.61846,-0.073704,0.08845324,0.97823
263.694,81.49145,-0.07757328,0.09412384,0.97687
266.394,82.37089,-0.08281,0.09638896,0.97549
269.094,83.24786,-0.08905342,0.09950509,0.9741
271.794,84.1212,-0.09596984,0.10261,0.9727
274.494,84.9943,-0.10226,0.10319,0.97129
277.194,85.8728,-0.1114,0.10195,0.96987
279.894,86.75208,-0.12229,0.10268,0.96844
282.594,87.63015,-0.13545,0.10651,0.967
285.294,88.51032,-0.14692,0.10988,0.96555
287.994,89.394,-0.16179,0.10989,0.96409
290.694,90.26961,-0.18019,0.11682,0.96261
293.394,91.14822,-0.19863,0.12071,0.96113
296.094,92.02626,-0.21968,0.12566,0.95964
298.794,92.90361,-0.24138,0.13339,0.95813
301.494,93.7784,-0.26796,0.14059,0.95662
304.194,94.65919,-0.29998,0.15181,0.95509
306.894,95.54064,-0.33638,0.16345,0.95356
309.594,96.42061,-0.37812,0.18011,0.95201
312.294,97.29965,-0.42775,0.21009,0.95046
314.994,98.17891,-0.48365,0.24105,0.94889
317.694,99.06126,-0.55067,0.28657,0.94731
320.394,99.9443,-0.62989,0.34029,0.94573
323.094,100.8287,-0.72577,0.40556,0.94413
325.794,101.713,-0.83955,0.48004,0.94252
328.494,102.5978,-0.97339,0.58914,0.94091
331.194,103.483,-1.13787,0.72772,0.93928
333.894,104.371,-1.33775,0.89348,0.93764
336.594,105.264,-1.58146,1.06549,0.936
339.294,106.155,-1.86571,1.23156,0.93434
341.994,107.046,-2.18797,1.34994,0.93267
344.694,107.934,-2.53367,1.3932,0.931
347.394,108.816,-2.88675,1.32587,0.92931
350.094,109.692,-3.21707,1.11394,0.92761
352.794,110.561,-3.50397,0.75254,0.92591
355.494,111.419,-3.69273,0.22949,0.92419
358.194,112.284,-3.74836,0.0064608,0.92247
360.894,113.159,-3.77198,-0.02927286,0.92073
363.594,114.038,-3.78588,-0.04420136,0.91899
366.294,114.919,-3.79394,-0.05197621,0.91723
368.994,115.81,-3.79953,-0.0614594,0.91547
371.694,116.6974,-3.80666,-0.06229405,0.9137
374.394,117.579,-3.80992,-0.06407347,0.91192
377.094,118.467,-3.8163,-0.06842306,0.91012
379.794,119.356,-3.81882,-0.06886139,0.90832
382.494,120.242,-3.82485,-0.06805172,0.90651
385.194,121.127,-3.82914,-0.06766364,0.90469
387.894,122.016,-3.83409,-0.06976566,0.90286
390.594,122.902,-3.83937,-0.06946388,0.90103
393.294,123.789,-3.84292,-0.0731362,0.89918
395.994,124.68,-3.84863,-0.07866929,0.89732
398.694,125.568,-3.85218,-0.08131888,0.89546
401.394,126.454,-3.85777,-0.08699192,0.89358
404.094,127.346,-3.86269,-0.08791496,0.8917
406.794,128.236,-3.86968,-0.08580663,0.88981
409.494,129.1238,-3.87556,-0.089674,0.88791
412.194,130.013,-3.88087,-0.09301219,0.886
414.894,130.899,-3.88633,-0.09479765,0.88408
417.594,131.793,-3.89134,-0.09830185,0.88215
420.294,132.688,-3.89653,-0.09597295,0.88021
422.994,133.578,-3.90449,-0.10132,0.87827
425.694,134.467,-3.90976,-0.09861729,0.87632
428.394,135.355,-3.91743,-0.10105,0.87435
431.094,136.246,-3.92357,-0.10213,0.87238
433.794,137.135,-3.92945,-0.10489,0.87041
436.494,138.03,-3.93597,-0.10698,0.86842
439.194,138.923,-3.94544,-0.10983,0.86642
441.894,139.815,-3.95081,-0.11381,0.86442
444.594,140.707,-3.95704,-0.11843,0.86241
447.294,141.597,-3.96502,-0.11702,0.86039
449.994,142.489,-3.97148,-0.1168,0.85836
452.694,143.382,-3.97722,-0.11874,0.85633
455.394,144.281,-3.98252,-0.11885,0.85428
458.094,145.177,-3.98643,-0.12457,0.85223
460.794,146.072,-3.98774,-0.12091,0.85017
463.494,146.963,-3.99223,-0.11597,0.8481
466.194,147.855,-3.99401,-0.11561,0.84603
468.894,148.754,-3.99466,-0.11864,0.84395
471.594,149.654,-3.99816,-0.12686,0.84186
474.294,150.549,-3.99433,-0.14311,0.83976
476.994,151.448,-3.99699,-0.15227,0.83765
479.694,152.343,-3.99662,-0.15504,0.83554
482.394,153.24,-3.9983,-0.15311,0.83342
485.094,154.135,-3.99894,-0.1543,0.83129
487.794,155.035,-3.99762,-0.15614,0.82916
490.494,155.9335,-3.99991,-0.15759,0.82701
493.194,156.827,-3.9986,-0.15488,0.82487
495.894,157.724,-3.99795,-0.15628,0.82271
498.594,158.628,-3.99642,-0.15947,0.82055
501.294,159.526,-3.99828,-0.1585,0.81837
503.994,160.426,-3.99649,-0.1596,0.8162
506.694,161.329,-3.99639,-0.1594,0.81401
509.394,162.228,-3.999,-0.16302,0.81182
512.094,163.125,-3.9986,-0.16251,0.80962
514.794,164.023,-4.00152,-0.16585,0.80742
517.494,164.925,-3.99932,-0.16499,0.80521
520.194,165.824,-3.99908,-0.16613,0.80299
522.894,166.724,-3.99981,-0.16913,0.80077
525.594,167.627,-3.99939,-0.16887,0.79854
528.294,168.528,-3.99916,-0.16868,0.7963
530.994,169.427,-4.00068,-0.16774,0.79406
533.694,170.3308,-4.0008,-0.16987,0.79181
536.394,171.237,-3.99968,-0.17201,0.78955
539.094,172.139,-3.99883,-0.174,0.78729
541.794,173.036,-3.9985,-0.17262,0.78502
544.494,173.937,-3.99987,-0.1763,0.78275
547.194,174.843,-3.99849,-0.17578,0.78047
549.894,175.75,-3.99949,-0.17928,0.77818
552.594,176.6538,-3.99925,-0.17821,0.77589
555.294,177.553,-3.99817,-0.17982,0.77359
557.994,178.4511,-3.99818,-0.17836,0.77129
560.694,179.353,-3.99752,-0.17447,0.76898
563.394,180.256,-3.99966,-0.176,0.76667
566.094,181.162,-3.99546,-0.17484,0.76435
568.794,182.069,-3.99489,-0.17757,0.76203
571.494,182.972,-3.99463,-0.1801,0.7597
574.194,183.874,-3.99426,-0.17831,0.75736
576.894,184.785,-3.99389,-0.17957,0.75502
579.594,185.688,-3.99489,-0.17704,0.75268
582.294,186.5929,-3.99751,-0.17706,0.75033
584.994,187.498,-3.99685,-0.17688,0.74797
587.694,188.4061,-3.99652,-0.17345,0.74561
590.394,189.313,-3.99685,-0.17844,0.74325
593.094,190.216,-3.9995,-0.17836,0.74088
595.794,191.1219,-3.99655,-0.1811,0.7385
598.494,192.029,-3.99923,-0.17702,0.73613
601.194,192.9353,-3.99949,-0.17331,0.73374
603.894,193.846,-3.9985,-0.17218,0.73136
606.594,194.753,-4.0008,-0.17634,0.72896
609.294,195.657,-4.00019,-0.16955,0.72657
611.994,196.556,-4.00046,-0.17008,0.72417
614.694,197.466,-4.00177,-0.16935,0.72176
617.394,198.378,-4.00115,-0.16814,0.71935
620.094,199.287,-4.00224,-0.1619,0.71694
622.794,200.195,-4.00149,-0.16467,0.71453
625.494,201.1,-4.00047,-0.16254,0.7121
628.194,202.015,-3.99192,-0.16715,0.70968
630.894,202.923,-4.00496,-0.16636,0.70725
633.594,203.83,-4.00157,-0.1698,0.70482
636.294,204.741,-4.00321,-0.16598,0.70239
638.994,205.6472,-4.00387,-0.16604,0.69995
641.694,206.556,-4.0034,-0.16583,0.69751
644.394,207.465,-4.00287,-0.16163,0.69506
647.094,208.375,-4.00427,-0.16491,0.69261
649.794,209.285,-4.00348,-0.16517,0.69016
651.894,209.991,-4.00453,-0.16257,0.68825