Folder: fsri_materials_database/01_Data/Engineered_Flooring/STA/N2/10K_min

Note: 01_Data/README.md
# Materials and Products Database
## 01_Data

Raw data generated from each apparatus are included here in plain-text format. The data is organized first by material, next by the short name of test apparatus used, and where applicable additional filtering by test settings.

### material.json

Each material directory contains a json file of the same name as the material. This file links the data stored in the repository as well as data and graphs produced by the accompanying scripts (__02_Scripts__) to the respective landing page for the material on the front-end website.

File: EF_STA_N2_10KData_211412_R1.csv
##Temp./Â°C,Time/min,Mass loss(subtr.2)/mg,DSC(subtr.2)/(mW/mg),Sensit./(uV/mW)
49.344,10.00917,0.00362,0.01310341,1.07447
52.444,11.30755,0.003510841,0.12785,1.07424
55.544,11.7538,0.00487894,0.18003,1.074
58.644,12.13528,0.00303423,0.20477,1.07373
61.744,12.49065,0.002960065,0.22013,1.07344
64.844,12.83429,0.003110507,0.23697,1.07313
67.944,13.1704,0.002307304,0.24847,1.07279
71.044,13.5039,0.00143316,0.26073,1.07243
74.144,13.83199,-0.0007271581,0.27405,1.07205
77.244,14.15754,0.000114854,0.28767,1.07165
80.344,14.47887,-0.002209237,0.29712,1.07123
83.444,14.7971,-0.003509795,0.30511,1.07078
86.544,15.112,-0.00614899,0.30947,1.07031
89.644,15.4247,-0.007415272,0.30956,1.06982
92.744,15.73586,-0.008758103,0.3051,1.06931
95.844,16.04446,-0.008779512,0.30157,1.06877
98.944,16.35096,-0.01141,0.30087,1.06821
102.044,16.65781,-0.01206723,0.29196,1.06764
105.144,16.96303,-0.01306001,0.29087,1.06703
108.244,17.26732,-0.01535995,0.28841,1.06641
111.344,17.57159,-0.01536,0.28477,1.06577
114.444,17.87479,-0.01536004,0.279,1.0651
117.544,18.17824,-0.01535983,0.27522,1.06441
120.644,18.48145,-0.01536,0.27683,1.0637
123.744,18.7843,-0.01569131,0.27784,1.06297
126.844,19.08661,-0.01602015,0.28003,1.06222
129.944,19.38788,-0.01799,0.27982,1.06144
133.044,19.68893,-0.01799999,0.28039,1.06065
136.144,19.9897,-0.01799054,0.28798,1.05983
139.244,20.29032,-0.01799007,0.28798,1.05899
142.344,20.589,-0.01832,0.29128,1.05814
145.444,20.88963,-0.02061116,0.29801,1.05726
148.544,21.18976,-0.01931031,0.30138,1.05635
151.644,21.48854,-0.02062999,0.30903,1.05543
154.744,21.7859,-0.02310962,0.31406,1.05449
157.844,22.0839,-0.02325335,0.32367,1.05352
160.944,22.38253,-0.02540124,0.33421,1.05254
164.044,22.68065,-0.02719802,0.34365,1.05154
167.144,22.97839,-0.02984,0.35227,1.05051
170.244,23.2763,-0.03247919,0.36736,1.04946
173.344,23.574,-0.03539777,0.38335,1.0484
176.444,23.87167,-0.03839123,0.40409,1.04731
179.544,24.16986,-0.04365997,0.42303,1.0462
182.644,24.46791,-0.04892004,0.44614,1.04508
185.744,24.76526,-0.05426363,0.47114,1.04393
188.844,25.06264,-0.06059741,0.49476,1.04276
191.944,25.3602,-0.06667452,0.51921,1.04157
195.044,25.65806,-0.07426082,0.54588,1.04037
198.144,25.95536,-0.08228547,0.56932,1.03914
201.244,26.25295,-0.09181427,0.59134,1.03789
204.344,26.5502,-0.10032,0.60687,1.03663
207.444,26.84682,-0.11372,0.6234,1.03534
210.544,27.1428,-0.12196,0.63106,1.03404
213.644,27.43892,-0.13316,0.63355,1.03271
216.744,27.7355,-0.14562,0.63017,1.03137
219.844,28.03217,-0.1561,0.62529,1.03001
222.944,28.3285,-0.16892,0.61443,1.02863
226.044,28.62449,-0.18044,0.60407,1.02723
229.144,28.92047,-0.19306,0.59071,1.02581
232.244,29.2172,-0.20673,0.57713,1.02437
235.344,29.5135,-0.2198,0.56098,1.02291
238.444,29.8101,-0.23377,0.54652,1.02144
241.544,30.10657,-0.24801,0.53231,1.01995
244.644,30.4031,-0.26446,0.51437,1.01843
247.744,30.6989,-0.2798,0.50156,1.01691
250.844,30.9951,-0.29667,0.48374,1.01536
253.944,31.29161,-0.31575,0.47061,1.01379
257.044,31.5869,-0.3337,0.45756,1.01221
260.144,31.8826,-0.35614,0.44327,1.01061
263.244,32.1786,-0.37735,0.42739,1.00899
266.344,32.4747,-0.4011,0.40931,1.00735
269.444,32.77084,-0.42823,0.38813,1.0057
272.544,33.06745,-0.45825,0.3672,1.00403
275.644,33.36468,-0.49064,0.35013,1.00234
278.744,33.66128,-0.52661,0.32857,1.00063
281.844,33.95795,-0.56359,0.30543,0.99891
284.944,34.255,-0.60371,0.28306,0.99717
288.044,34.55252,-0.64582,0.26361,0.99542
291.144,34.85011,-0.68892,0.24486,0.99364
294.244,35.14747,-0.73288,0.22532,0.99185
297.344,35.44509,-0.77893,0.20797,0.99005
300.444,35.7429,-0.82845,0.19409,0.98823
303.544,36.04076,-0.87685,0.18494,0.98639
306.644,36.33889,-0.9246,0.1759,0.98454
309.744,36.63718,-0.97599,0.16988,0.98267
312.844,36.9351,-1.02904,0.16743,0.98078
315.944,37.23328,-1.08224,0.16591,0.97888
319.044,37.53212,-1.13692,0.16617,0.97696
322.144,37.83005,-1.1934,0.16743,0.97503
325.244,38.12983,-1.25353,0.17346,0.97308
328.344,38.42938,-1.31618,0.17653,0.97112
331.444,38.72846,-1.38176,0.1853,0.96914
334.544,39.02823,-1.45003,0.19782,0.96715
337.644,39.32839,-1.52233,0.20528,0.96514
340.744,39.62807,-1.59891,0.21883,0.96312
343.844,39.92791,-1.68077,0.23459,0.96108
346.944,40.2288,-1.76698,0.24539,0.95903
350.044,40.52926,-1.85802,0.25709,0.95696
353.144,40.83047,-1.95569,0.26279,0.95488
356.244,41.13122,-2.05694,0.26151,0.95279
359.344,41.43233,-2.15754,0.25261,0.95068
362.444,41.73333,-2.25872,0.23617,0.94856
365.544,42.03471,-2.34759,0.20036,0.94642
368.644,42.33524,-2.4248,0.15153,0.94427
371.744,42.63643,-2.48369,0.09549303,0.94211
374.844,42.93762,-2.52321,0.04779126,0.93993
377.944,43.23921,-2.54889,0.01765071,0.93774
381.044,43.54043,-2.56681,-0.001532973,0.93554
384.144,43.84186,-2.58137,-0.02067303,0.93332
387.244,44.14322,-2.59449,-0.02936695,0.9311
390.344,44.44536,-2.60684,-0.03701656,0.92886
393.444,44.7477,-2.61721,-0.04455959,0.9266
396.544,45.0508,-2.62908,-0.050887,0.92434
399.644,45.35366,-2.63961,-0.05887716,0.92206
402.744,45.6565,-2.65127,-0.05797576,0.91977
405.844,45.95917,-2.66022,-0.05682056,0.91747
408.944,46.26283,-2.67074,-0.06152875,0.91515
412.044,46.56657,-2.68168,-0.06364402,0.91283
415.144,46.87038,-2.68959,-0.06596813,0.91049
418.244,47.1747,-2.7004,-0.060987,0.90814
421.344,47.4787,-2.70932,-0.06382382,0.90578
424.444,47.7821,-2.72076,-0.05792215,0.90341
427.544,48.08698,-2.72804,-0.05686257,0.90102
430.644,48.3915,-2.73696,-0.05310847,0.89863
433.744,48.69587,-2.74652,-0.04910711,0.89623
436.844,49.00008,-2.7541,-0.04599606,0.89381
439.944,49.3048,-2.76403,-0.04141487,0.89139
443.044,49.6091,-2.77243,-0.03830755,0.88895
446.144,49.91365,-2.77934,-0.0318193,0.8865
449.244,50.2181,-2.7856,-0.0315159,0.88405
452.344,50.5226,-2.7918,-0.02760789,0.88158
455.444,50.8271,-2.79982,-0.02411864,0.8791
458.544,51.1321,-2.80618,-0.02120402,0.87662
461.644,51.4375,-2.81358,-0.02149927,0.87412
464.744,51.7434,-2.8209,-0.01702694,0.87162
467.844,52.04927,-2.82607,-0.01750662,0.8691
470.944,52.35533,-2.8336,-0.01366742,0.86658
474.044,52.6618,-2.83824,-0.01270455,0.86405
477.144,52.9684,-2.84384,-0.01124542,0.86151
480.244,53.27424,-2.84923,-0.00750115,0.85896
483.344,53.5803,-2.85349,-0.003386845,0.8564
486.444,53.88649,-2.85821,0.006421175,0.85383
489.544,54.19299,-2.8637,0.01338424,0.85125
492.644,54.49994,-2.86763,0.01696187,0.84867
495.744,54.8065,-2.87161,0.02203248,0.84608
498.844,55.11362,-2.87685,0.02171115,0.84347
501.944,55.4208,-2.88178,0.02701004,0.84087
505.044,55.72772,-2.88442,0.02583602,0.83825
508.144,56.0344,-2.88852,0.02990706,0.83563
511.244,56.3419,-2.89317,0.03565478,0.833
514.344,56.6486,-2.89725,0.03480077,0.83036
517.444,56.9557,-2.89858,0.03944261,0.82771
520.544,57.263,-2.90512,0.04212625,0.82506
523.644,57.57009,-2.9078,0.0441585,0.8224
526.744,57.87829,-2.91074,0.04659189,0.81973
529.844,58.1854,-2.91398,0.04777685,0.81706
532.944,58.49411,-2.91811,0.04717509,0.81438
536.044,58.80228,-2.92237,0.05186419,0.81169
539.144,59.11071,-2.92435,0.04862432,0.809
542.244,59.41995,-2.92868,0.04414266,0.8063
545.344,59.72851,-2.93109,0.04272317,0.8036
548.444,60.03734,-2.93311,0.04382576,0.80089
551.544,60.34743,-2.93641,0.03754166,0.79817
554.644,60.6569,-2.93905,0.02940902,0.79545
557.744,60.9661,-2.94299,0.02545515,0.79272
560.844,61.27581,-2.94497,0.02002804,0.78999
563.944,61.58518,-2.94892,0.0214112,0.78725
567.044,61.895,-2.95154,0.01717015,0.78451
570.144,62.2049,-2.95319,0.0160661,0.78176
573.244,62.5153,-2.95641,0.01437621,0.77901
576.344,62.826,-2.95846,0.01496103,0.77625
579.444,63.1359,-2.96241,0.01292072,0.77349
582.544,63.4457,-2.96372,0.01449058,0.77073
585.644,63.7561,-2.96701,0.01202898,0.76795
588.744,64.0668,-2.96879,0.0106111,0.76518
591.844,64.37765,-2.97228,0.007266837,0.7624
594.944,64.6887,-2.97227,0.009111284,0.75962
598.044,65.00014,-2.97856,0.00621852,0.75683
601.144,65.31093,-2.97885,0.00461885,0.75404
604.244,65.62309,-2.98149,0.007553816,0.75125
607.344,65.93467,-2.98315,0.005116652,0.74845
610.444,66.24606,-2.98578,0.00470838,0.74565
613.544,66.55676,-2.9884,0.007239051,0.74285
616.644,66.86745,-2.99104,0.00595654,0.74004
619.744,67.17815,-2.99367,0.006575715,0.73723
622.844,67.48959,-2.99367,0.00643342,0.73442
625.944,67.80113,-2.99743,0.004995405,0.7316
629.044,68.11333,-2.99992,0.006662335,0.72878
632.144,68.42551,-3.00182,0.003256348,0.72596
635.244,68.7379,-3.00354,0.005389513,0.72314
638.344,69.05005,-3.00617,0.0007829852,0.72031
641.444,69.36237,-3.00814,7.177387e-05,0.71749
644.544,69.6752,-3.00881,0.0008772141,0.71466
647.644,69.98744,-3.01276,-0.003155701,0.71183
650.744,70.29938,-3.01275,-0.0007998748,0.70899
653.844,70.6113,-3.0167,0.00275976,0.70616
656.944,70.92354,-3.01771,0.00153931,0.70332
660.044,71.23501,-3.01967,0.00245799,0.70049
663.144,71.54688,-3.02075,0.00040071,0.69765
666.244,71.8588,-3.02293,-0.001974762,0.69481
669.344,72.17113,-3.02328,-0.001905594,0.69197
672.444,72.48421,-3.02525,-0.006072418,0.68913
675.544,72.7976,-3.02748,-0.008721915,0.68628
678.644,73.11007,-3.02846,-0.01296615,0.68344
681.744,73.42394,-3.03021,-0.0086689,0.6806
684.844,73.73668,-3.03151,-0.01269133,0.67775
687.944,74.05136,-3.03256,-0.01341169,0.67491
691.044,74.3633,-3.03414,-0.01220102,0.67206
694.144,74.6763,-3.03678,-0.01563346,0.66922
697.244,74.98886,-3.03677,-0.01573271,0.66637
700.344,75.30165,-3.03941,-0.01847488,0.66353
703.444,75.61434,-3.0394,-0.02308363,0.66068
706.544,75.92814,-3.04161,-0.02683282,0.65784
709.644,76.24256,-3.0427,-0.02463201,0.65499
712.744,76.5569,-3.04337,-0.02871583,0.65215
715.844,76.87062,-3.0432,-0.02513466,0.64931
718.944,77.18539,-3.04544,-0.02667156,0.64647
722.044,77.49956,-3.04609,-0.01923002,0.64362
725.144,77.8138,-3.0484,-0.02070889,0.64078
728.244,78.12858,-3.04906,-0.02756588,0.63794
731.344,78.44232,-3.05037,-0.02463702,0.63511
734.444,78.7552,-3.05103,-0.02469473,0.63227
737.544,79.06922,-3.05169,-0.02658987,0.62943
740.644,79.38274,-3.05235,-0.02270799,0.6266
743.744,79.69674,-3.05367,-0.02423946,0.62377
746.644,79.99161,-3.05432,-0.02861701,0.62112

File: EF_STA_N2_10KData_211412_R2.csv
##Temp./Â°C,Time/min,Mass loss(subtr.2)/mg,DSC(subtr.2)/(mW/mg),Sensit./(uV/mW)
49.42,10.01,-0.05758,0.008008275,1.07446
52.42,11.29537,-0.0633149,0.08631488,1.07425
55.42,11.73231,-0.06266017,0.12518,1.07401
58.42,12.10333,-0.06643577,0.14198,1.07375
61.42,12.44942,-0.06699331,0.15443,1.07347
64.42,12.78398,-0.06690658,0.16504,1.07317
67.42,13.11135,-0.0710752,0.17576,1.07285
70.42,13.434,-0.07303908,0.18286,1.07251
73.42,13.7525,-0.07261103,0.19253,1.07215
76.42,14.0673,-0.07644956,0.19939,1.07176
79.42,14.38021,-0.07821748,0.2072,1.07136
82.42,14.69009,-0.08028999,0.21248,1.07093
85.42,14.996,-0.08341322,0.21598,1.07048
88.42,15.29938,-0.08494573,0.21472,1.07002
91.42,15.6,-0.08663997,0.21418,1.06953
94.42,15.90056,-0.09080386,0.2095,1.06902
97.42,16.199,-0.09208131,0.20345,1.06849
100.42,16.49598,-0.09345484,0.19907,1.06794
103.42,16.7921,-0.09470176,0.19798,1.06737
106.42,17.08696,-0.0960224,0.19354,1.06678
109.42,17.3821,-0.09739931,0.18996,1.06617
112.42,17.67588,-0.09880476,0.18667,1.06554
115.42,17.96964,-0.09989861,0.18409,1.06489
118.42,18.26376,-0.10061,0.18262,1.06421
121.42,18.55708,-0.10334,0.18462,1.06352
124.42,18.8506,-0.10397,0.18577,1.06281
127.42,19.1433,-0.10342,0.18525,1.06208
130.42,19.43511,-0.10596,0.18635,1.06132
133.42,19.7267,-0.10595,0.19151,1.06055
136.42,20.0179,-0.10857,0.19553,1.05976
139.42,20.3083,-0.1099,0.19764,1.05895
142.42,20.59883,-0.10965,0.20249,1.05811
145.42,20.88899,-0.11144,0.20443,1.05726
148.42,21.17861,-0.11341,0.21033,1.05639
151.42,21.46752,-0.11374,0.21511,1.0555
154.42,21.75657,-0.1174,0.22286,1.05459
157.42,22.04533,-0.11638,0.22738,1.05366
160.42,22.33384,-0.12098,0.23695,1.05271
163.42,22.62195,-0.12372,0.24768,1.05174
166.42,22.91028,-0.12525,0.2561,1.05075
169.42,23.19839,-0.12887,0.26958,1.04974
172.42,23.4872,-0.13184,0.28568,1.04872
175.42,23.77499,-0.13611,0.30127,1.04767
178.42,24.0628,-0.14004,0.3206,1.04661
181.42,24.35076,-0.14467,0.34039,1.04552
184.42,24.6382,-0.1506,0.36325,1.04442
187.42,24.92612,-0.15586,0.38553,1.0433
190.42,25.2129,-0.16335,0.40771,1.04216
193.42,25.501,-0.17172,0.43469,1.041
196.42,25.78739,-0.17952,0.45509,1.03982
199.42,26.07402,-0.19127,0.47717,1.03863
202.42,26.36165,-0.19925,0.49639,1.03742
205.42,26.6489,-0.21038,0.5093,1.03618
208.42,26.93678,-0.22168,0.51752,1.03493
211.42,27.22455,-0.23195,0.52315,1.03367
214.42,27.512,-0.24231,0.52414,1.03238
217.42,27.7999,-0.25523,0.51833,1.03107
220.42,28.087,-0.26662,0.51567,1.02975
223.42,28.3735,-0.27822,0.50669,1.02841
226.42,28.66013,-0.29,0.49523,1.02706
229.42,28.9472,-0.30453,0.48432,1.02568
232.42,29.2332,-0.31604,0.47103,1.02429
235.42,29.51965,-0.32916,0.4608,1.02288
238.42,29.8059,-0.34405,0.44684,1.02145
241.42,30.09204,-0.35838,0.43475,1.02001
244.42,30.3783,-0.37222,0.41966,1.01854
247.42,30.6646,-0.38897,0.40581,1.01707
250.42,30.9514,-0.40388,0.39382,1.01557
253.42,31.23767,-0.42067,0.38272,1.01406
256.42,31.52447,-0.44059,0.36776,1.01253
259.42,31.8109,-0.46055,0.35402,1.01098
262.42,32.09795,-0.48185,0.34191,1.00942
265.42,32.3849,-0.50531,0.32698,1.00784
268.42,32.67168,-0.53121,0.31235,1.00625
271.42,32.9589,-0.55905,0.29819,1.00464
274.42,33.24588,-0.59018,0.2809,1.00301
277.42,33.5334,-0.62272,0.26484,1.00136
280.42,33.82071,-0.65885,0.24693,0.9997
283.42,34.10801,-0.69665,0.22955,0.99803
286.42,34.3947,-0.73534,0.21448,0.99634
289.42,34.68258,-0.77761,0.19612,0.99463
292.42,34.97031,-0.81993,0.18137,0.99291
295.42,35.25873,-0.86441,0.16429,0.99117
298.42,35.5473,-0.91014,0.15127,0.98942
301.42,35.83597,-0.9566,0.14125,0.98765
304.42,36.12482,-1.00529,0.13276,0.98587
307.42,36.4126,-1.0536,0.12698,0.98407
310.42,36.7005,-1.10717,0.11679,0.98226
313.42,36.98938,-1.15457,0.11573,0.98043
316.42,37.2783,-1.20923,0.11568,0.97858
319.42,37.567,-1.26306,0.12099,0.97673
322.42,37.85622,-1.32168,0.12409,0.97486
325.42,38.1456,-1.37925,0.1285,0.97297
328.42,38.43557,-1.43981,0.13421,0.97107
331.42,38.72613,-1.50264,0.14541,0.96915
334.42,39.01655,-1.56933,0.15685,0.96723
337.42,39.3066,-1.63888,0.17012,0.96528
340.42,39.59754,-1.71412,0.18516,0.96333
343.42,39.88795,-1.79263,0.19671,0.96136
346.42,40.17861,-1.87516,0.21373,0.95937
349.42,40.4698,-1.96421,0.22792,0.95738
352.42,40.7607,-2.05757,0.23734,0.95537
355.42,41.0516,-2.15413,0.24174,0.95334
358.42,41.34319,-2.25298,0.24149,0.95131
361.42,41.63436,-2.35105,0.22751,0.94926
364.42,41.9263,-2.44372,0.19934,0.9472
367.42,42.2177,-2.52452,0.15316,0.94512
370.42,42.50816,-2.59134,0.09513486,0.94303
373.42,42.80035,-2.638,0.03980783,0.94093
376.42,43.09183,-2.6708,-0.003024329,0.93882
379.42,43.3834,-2.69296,-0.03045289,0.93669
382.42,43.67556,-2.70759,-0.04809481,0.93456
385.42,43.9676,-2.71997,-0.05983722,0.93241
388.42,44.26021,-2.73229,-0.064584,0.93025
391.42,44.55273,-2.74474,-0.07143251,0.92807
394.42,44.84538,-2.75535,-0.07476103,0.92589
397.42,45.13779,-2.76584,-0.07892771,0.92369
400.42,45.43098,-2.77724,-0.0837513,0.92149
403.42,45.72416,-2.78766,-0.08862842,0.91927
406.42,46.01774,-2.79789,-0.08710859,0.91704
409.42,46.31023,-2.80667,-0.0880442,0.9148
412.42,46.6038,-2.81629,-0.08485196,0.91254
415.42,46.89689,-2.82623,-0.08417612,0.91028
418.42,47.18963,-2.83416,-0.08076123,0.90801
421.42,47.48278,-2.84578,-0.0795604,0.90572
424.42,47.77598,-2.85411,-0.074675,0.90343
427.42,48.06982,-2.86182,-0.07002007,0.90112
430.42,48.36472,-2.87145,-0.07075128,0.8988
433.42,48.65883,-2.87918,-0.062451,0.89648
436.42,48.95362,-2.88744,-0.06062461,0.89414
439.42,49.24853,-2.89307,-0.05643583,0.8918
442.42,49.54339,-2.90078,-0.05493444,0.88944
445.42,49.83777,-2.90874,-0.0518478,0.88708
448.42,50.13325,-2.91429,-0.04786581,0.8847
451.42,50.42844,-2.9218,-0.04308263,0.88232
454.42,50.72392,-2.92839,-0.04336316,0.87992
457.42,51.0193,-2.93432,-0.03886923,0.87752
460.42,51.31426,-2.94087,-0.03619551,0.87511
463.42,51.6098,-2.94724,-0.03199432,0.87269
466.42,51.90571,-2.95152,-0.03338647,0.87026
469.42,52.20193,-2.95781,-0.03037258,0.86782
472.42,52.49887,-2.9636,-0.02854825,0.86538
475.42,52.7957,-2.96809,-0.02439664,0.86292
478.42,53.09185,-2.97281,-0.0202133,0.86046
481.42,53.38765,-2.97809,-0.01460812,0.85799
484.42,53.68356,-2.98233,-0.006845721,0.85551
487.42,53.9795,-2.98742,0.004294295,0.85302
490.42,54.2759,-2.99202,0.007941852,0.85052
493.42,54.5728,-2.99726,0.009954186,0.84802
496.42,54.87073,-3.00123,0.01341525,0.84551
499.42,55.16823,-3.00448,0.01625179,0.84299
502.42,55.4655,-3.00978,0.01833196,0.84047
505.42,55.76295,-3.01274,0.02500477,0.83793
508.42,56.0596,-3.01801,0.0281743,0.83539
511.42,56.357,-3.02106,0.03184326,0.83285
514.42,56.65441,-3.025,0.03251946,0.83029
517.42,56.95242,-3.02953,0.03696119,0.82773
520.42,57.2509,-3.03215,0.03892612,0.82517
523.42,57.5494,-3.03612,0.04151702,0.82259
526.42,57.84808,-3.03874,0.04145105,0.82001
529.42,58.14677,-3.044,0.04069713,0.81743
532.42,58.44582,-3.04532,0.04037673,0.81483
535.42,58.7447,-3.04881,0.03672245,0.81224
538.42,59.04368,-3.05187,0.03335977,0.80963
541.42,59.34299,-3.05454,0.03328585,0.80702
544.42,59.6419,-3.05725,0.0319123,0.80441
547.42,59.94065,-3.06109,0.02428515,0.80178
550.42,60.23986,-3.06374,0.01387922,0.79916
553.42,60.5387,-3.06737,0.004206858,0.79653
556.42,60.838,-3.07034,0.001660654,0.79389
559.42,61.1371,-3.07203,-0.00252798,0.79125
562.42,61.4364,-3.0746,-0.003681445,0.7886
565.42,61.736,-3.07802,-0.004449446,0.78595
568.42,62.03566,-3.0803,-0.00895203,0.78329
571.42,62.33571,-3.08053,-0.01140972,0.78063
574.42,62.6353,-3.08316,-0.01071397,0.77797
577.42,62.9356,-3.08688,-0.00682702,0.7753
580.42,63.23599,-3.08842,-0.01053707,0.77262
583.42,63.5363,-3.09106,-0.01061179,0.76994
586.42,63.83582,-3.09336,-0.01316706,0.76726
589.42,64.13683,-3.097,-0.01348008,0.76457
592.42,64.43745,-3.09757,-0.01439361,0.76188
595.42,64.7375,-3.10061,-0.01496717,0.75919
598.42,65.03837,-3.10294,-0.01959516,0.75649
601.42,65.33853,-3.1029,-0.01744523,0.75379
604.42,65.63975,-3.10653,-0.02064112,0.75109
607.42,65.94077,-3.10784,-0.02066449,0.74838
610.42,66.24194,-3.11051,-0.02337696,0.74567
613.42,66.54389,-3.11307,-0.02187783,0.74296
616.42,66.84472,-3.11449,-0.0230146,0.74024
619.42,67.14594,-3.11706,-0.02201644,0.73752
622.42,67.44645,-3.11943,-0.02586658,0.7348
625.42,67.74741,-3.12068,-0.02623498,0.73208
628.42,68.04867,-3.12133,-0.02633901,0.72935
631.42,68.3502,-3.12397,-0.02710098,0.72662
634.42,68.65308,-3.12592,-0.02437771,0.72389
637.42,68.95518,-3.12832,-0.02703045,0.72116
640.42,69.2569,-3.13122,-0.02968622,0.71842
643.42,69.5588,-3.1312,-0.03021353,0.71568
646.42,69.86017,-3.13121,-0.02841649,0.71294
649.42,70.16152,-3.13384,-0.03047856,0.7102
652.42,70.46374,-3.13526,-0.03337458,0.70746
655.42,70.7658,-3.13658,-0.02846799,0.70472
658.42,71.06737,-3.13811,-0.03220214,0.70197
661.42,71.36998,-3.13921,-0.02871147,0.69923
664.42,71.67195,-3.14184,-0.03154181,0.69648
667.42,71.97414,-3.14218,-0.03713254,0.69373
670.42,72.27508,-3.14349,-0.03995891,0.69098
673.42,72.57722,-3.14448,-0.03987511,0.68823
676.42,72.87963,-3.14478,-0.04294673,0.68548
679.42,73.1829,-3.14744,-0.04582211,0.68273
682.42,73.48613,-3.14875,-0.04631933,0.67998
685.42,73.7887,-3.15106,-0.0475464,0.67722
688.42,74.09159,-3.15238,-0.05064781,0.67447
691.42,74.39456,-3.15202,-0.05442766,0.67172
694.42,74.69781,-3.15369,-0.05327239,0.66896
697.42,75.0017,-3.15501,-0.05116812,0.66621
700.42,75.30505,-3.15566,-0.05553183,0.66346
703.42,75.6074,-3.15795,-0.05318354,0.66071
706.42,75.91023,-3.15864,-0.0516979,0.65795
709.42,76.21266,-3.15831,-0.05254651,0.6552
712.42,76.5158,-3.16093,-0.05266059,0.65245
715.42,76.81955,-3.1606,-0.04989395,0.6497
718.42,77.1233,-3.16225,-0.05140215,0.64695
721.42,77.42747,-3.16355,-0.04574376,0.6442
724.42,77.7319,-3.16356,-0.04521456,0.64145
727.42,78.0363,-3.1649,-0.04216086,0.6387
730.42,78.34063,-3.16657,-0.0403172,0.63595
733.42,78.6446,-3.1671,-0.04050925,0.63321
736.42,78.94859,-3.16817,-0.04266107,0.63046
739.42,79.25246,-3.16859,-0.04175095,0.62772
742.42,79.55681,-3.16981,-0.03733274,0.62498
745.42,79.86104,-3.16949,-0.03381088,0.62224
746.72,79.99251,-3.17123,-0.03039028,0.62105