Folder: fsri_materials_database/01_Data/Engineered_Flooring/STA/N2/10K_min (part 2)

File: EF_STA_N2_10KData_211412_R3.csv
##Temp./Â°C,Time/min,Mass loss(subtr.2)/mg,DSC(subtr.2)/(mW/mg),Sensit./(uV/mW)
49.307,10.01,-0.06219,0.01740348,1.07447
52.407,11.3045,-0.06871415,0.11402,1.07425
55.507,11.75244,-0.06834702,0.16317,1.074
58.607,12.1322,-0.07237825,0.19006,1.07373
61.707,12.4885,-0.07435619,0.20287,1.07344
64.807,12.83237,-0.07503417,0.21743,1.07313
67.907,13.1708,-0.07847321,0.23146,1.0728
71.007,13.5033,-0.0784211,0.24268,1.07244
74.107,13.83254,-0.08105274,0.255,1.07206
77.207,14.1582,-0.08370054,0.26845,1.07166
80.307,14.48001,-0.0863209,0.2772,1.07123
83.407,14.79887,-0.08797809,0.28168,1.07079
86.507,15.114,-0.09190899,0.28725,1.07032
89.607,15.4276,-0.09423216,0.28807,1.06983
92.707,15.73891,-0.09620869,0.28553,1.06931
95.807,16.0477,-0.09848954,0.27965,1.06878
98.907,16.35568,-0.10082,0.27518,1.06822
102.007,16.6619,-0.10343,0.26845,1.06764
105.107,16.9674,-0.10474,0.26811,1.06704
108.207,17.27144,-0.10606,0.26307,1.06642
111.307,17.5755,-0.10738,0.25837,1.06577
114.407,17.87894,-0.11004,0.25494,1.06511
117.507,18.18214,-0.1101,0.25524,1.06442
120.607,18.48466,-0.11169,0.25281,1.06371
123.707,18.78661,-0.11199,0.25297,1.06298
126.807,19.08887,-0.11256,0.2552,1.06223
129.907,19.3898,-0.1133,0.25523,1.06145
133.007,19.6909,-0.11657,0.25927,1.06066
136.107,19.99144,-0.11659,0.26224,1.05984
139.207,20.2922,-0.11593,0.26594,1.059
142.307,20.59159,-0.1183,0.26905,1.05815
145.407,20.89151,-0.12128,0.27578,1.05727
148.507,21.19063,-0.12284,0.28161,1.05636
151.607,21.48858,-0.12415,0.28665,1.05544
154.707,21.78758,-0.12568,0.29325,1.0545
157.807,22.0858,-0.12688,0.30177,1.05354
160.907,22.3837,-0.12909,0.30962,1.05255
164.007,22.6808,-0.13173,0.32241,1.05155
167.107,22.97907,-0.1337,0.33396,1.05052
170.207,23.27666,-0.13735,0.34428,1.04948
173.307,23.57392,-0.14068,0.36313,1.04841
176.407,23.87136,-0.14391,0.38105,1.04732
179.507,24.16858,-0.14917,0.3975,1.04622
182.607,24.4661,-0.15542,0.41858,1.04509
185.707,24.76345,-0.16065,0.44349,1.04394
188.807,25.06054,-0.16759,0.46616,1.04278
191.907,25.35766,-0.17448,0.49296,1.04159
195.007,25.65488,-0.1824,0.51693,1.04038
198.107,25.95158,-0.19194,0.54429,1.03915
201.207,26.24802,-0.20139,0.5654,1.03791
204.307,26.5446,-0.21129,0.58482,1.03664
207.407,26.84181,-0.22193,0.59511,1.03536
210.507,27.1385,-0.23439,0.60378,1.03405
213.607,27.43463,-0.24582,0.60732,1.03273
216.707,27.732,-0.25604,0.60813,1.03139
219.807,28.02879,-0.26908,0.60037,1.03002
222.907,28.32602,-0.28313,0.5908,1.02864
226.007,28.62265,-0.29516,0.57839,1.02724
229.107,28.9195,-0.30787,0.56874,1.02582
232.207,29.21554,-0.32182,0.55596,1.02439
235.307,29.51193,-0.3343,0.54495,1.02293
238.407,29.80797,-0.34966,0.52951,1.02146
241.507,30.1034,-0.3647,0.51377,1.01996
244.607,30.399,-0.3798,0.50197,1.01845
247.707,30.6941,-0.39751,0.48627,1.01692
250.807,30.98984,-0.41559,0.47094,1.01538
253.907,31.2854,-0.43259,0.45852,1.01381
257.007,31.5812,-0.45318,0.44191,1.01223
260.107,31.87685,-0.4739,0.42641,1.01063
263.207,32.17284,-0.49692,0.4104,1.00901
266.307,32.4694,-0.52426,0.39265,1.00737
269.407,32.76613,-0.5503,0.3733,1.00572
272.507,33.06312,-0.58168,0.35293,1.00405
275.607,33.3593,-0.61403,0.3337,1.00236
278.707,33.65551,-0.65058,0.31205,1.00065
281.807,33.95231,-0.6882,0.29033,0.99893
284.907,34.24835,-0.72894,0.27107,0.99719
288.007,34.54529,-0.77035,0.25008,0.99544
291.107,34.84236,-0.8159,0.23121,0.99366
294.207,35.1396,-0.86203,0.21458,0.99188
297.307,35.43738,-0.90817,0.19698,0.99007
300.407,35.73493,-0.95941,0.18151,0.98825
303.507,36.03329,-1.0059,0.17072,0.98641
306.607,36.33163,-1.05857,0.16165,0.98456
309.707,36.6295,-1.11179,0.15551,0.98269
312.807,36.92778,-1.16298,0.15384,0.9808
315.907,37.22587,-1.21788,0.15226,0.9789
319.007,37.5238,-1.27431,0.15223,0.97698
322.107,37.8223,-1.33172,0.15347,0.97505
325.207,38.12061,-1.39316,0.1561,0.9731
328.307,38.42,-1.45685,0.16444,0.97114
331.407,38.71922,-1.52322,0.17216,0.96916
334.507,39.01809,-1.59235,0.18244,0.96717
337.607,39.31813,-1.66693,0.19291,0.96516
340.707,39.61807,-1.74299,0.20629,0.96314
343.807,39.91853,-1.82682,0.21589,0.9611
346.907,40.21998,-1.91588,0.23066,0.95905
350.007,40.52086,-2.00905,0.23913,0.95699
353.107,40.8223,-2.10785,0.24891,0.95491
356.207,41.12338,-2.20988,0.25042,0.95281
359.307,41.42434,-2.3123,0.24457,0.9507
362.407,41.72422,-2.41366,0.22859,0.94858
365.507,42.02548,-2.50518,0.19566,0.94645
368.607,42.32598,-2.58298,0.14918,0.9443
371.707,42.6271,-2.64327,0.09497734,0.94213
374.807,42.9283,-2.6817,0.0507235,0.93996
377.907,43.22999,-2.71012,0.02074077,0.93777
381.007,43.53065,-2.72702,0.0009856876,0.93557
384.107,43.8317,-2.74165,-0.007265001,0.93335
387.207,44.1338,-2.7562,-0.02468921,0.93112
390.307,44.4352,-2.76793,-0.03008251,0.92888
393.407,44.73723,-2.77818,-0.03282912,0.92663
396.507,45.03968,-2.79018,-0.03926045,0.92436
399.607,45.34197,-2.80336,-0.04479098,0.92209
402.707,45.64543,-2.81394,-0.04673062,0.9198
405.807,45.94829,-2.8252,-0.04857831,0.91749
408.907,46.25266,-2.83428,-0.04910522,0.91518
412.007,46.5567,-2.84566,-0.05008691,0.91285
415.107,46.86092,-2.85521,-0.04742346,0.91052
418.207,47.16479,-2.86731,-0.04994483,0.90817
421.307,47.46867,-2.87649,-0.04608091,0.90581
424.407,47.7721,-2.88559,-0.04237358,0.90344
427.507,48.07582,-2.89539,-0.03630457,0.90105
430.607,48.38017,-2.90274,-0.03266229,0.89866
433.707,48.68459,-2.9122,-0.02808772,0.89626
436.807,48.98921,-2.92095,-0.02160187,0.89384
439.907,49.2948,-2.92883,-0.02137671,0.89142
443.007,49.59989,-2.93672,-0.01744352,0.88898
446.107,49.90445,-2.94562,-0.01279853,0.88653
449.207,50.2096,-2.95504,-0.01201542,0.88408
452.307,50.51507,-2.96141,-0.00636345,0.88161
455.407,50.82054,-2.96782,-0.003923538,0.87913
458.507,51.1265,-2.975,-0.004219564,0.87665
461.607,51.43166,-2.98123,-0.002563212,0.87415
464.707,51.73753,-2.98952,0.000493046,0.87165
467.807,52.043,-2.99447,0.001631847,0.86913
470.907,52.3489,-3.00122,0.006229525,0.86661
474.007,52.65492,-3.00517,0.00578933,0.86408
477.107,52.9604,-3.01041,0.009650872,0.86154
480.207,53.26675,-3.01537,0.0148242,0.85899
483.307,53.57192,-3.02063,0.02319274,0.85643
486.407,53.8781,-3.02589,0.0306304,0.85386
489.507,54.18478,-3.03029,0.03716868,0.85128
492.607,54.4914,-3.03511,0.04250941,0.8487
495.707,54.7986,-3.03907,0.04505205,0.84611
498.807,55.1055,-3.04432,0.04878274,0.84351
501.907,55.4117,-3.04828,0.05124874,0.8409
505.007,55.7187,-3.0535,0.05915992,0.83828
508.107,56.02635,-3.05608,0.06153781,0.83566
511.207,56.3338,-3.06013,0.06671939,0.83303
514.307,56.6412,-3.06408,0.07003528,0.83039
517.407,56.9494,-3.06934,0.07310091,0.82774
520.507,57.2578,-3.07197,0.07463737,0.82509
523.607,57.5661,-3.07558,0.07903292,0.82243
526.707,57.87451,-3.07987,0.07851893,0.81976
529.807,58.183,-3.08282,0.08054678,0.81709
532.907,58.49179,-3.08547,0.08003919,0.81441
536.007,58.8008,-3.08941,0.07958517,0.81173
539.107,59.10954,-3.09336,0.07527123,0.80903
542.207,59.41816,-3.096,0.0751499,0.80634
545.307,59.72707,-3.09981,0.07293553,0.80363
548.407,60.03615,-3.10257,0.06385057,0.80092
551.507,60.3446,-3.10454,0.04928607,0.79821
554.607,60.6534,-3.10653,0.0460346,0.79548
557.707,60.9631,-3.11048,0.03927918,0.79276
560.807,61.2723,-3.11442,0.03479015,0.79002
563.907,61.58198,-3.11574,0.03048727,0.78729
567.007,61.8921,-3.11913,0.02890186,0.78454
570.107,62.20191,-3.12264,0.03028229,0.7818
573.207,62.5125,-3.12462,0.0295776,0.77904
576.307,62.823,-3.1283,0.02402712,0.77629
579.407,63.13406,-3.13082,0.0255947,0.77352
582.507,63.44472,-3.13219,0.02241276,0.77076
585.607,63.75525,-3.13627,0.02226543,0.76799
588.707,64.0663,-3.13745,0.01922727,0.76521
591.807,64.37745,-3.14142,0.01718839,0.76243
594.907,64.6877,-3.14239,0.02084246,0.75965
598.007,64.9976,-3.14535,0.01644243,0.75686
601.107,65.3085,-3.14799,0.01459895,0.75407
604.207,65.61933,-3.14933,0.01449784,0.75128
607.307,65.93075,-3.15,0.01102817,0.74848
610.407,66.24159,-3.1539,0.01141738,0.74568
613.507,66.5529,-3.15662,0.01183202,0.74288
616.607,66.86409,-3.15853,0.01113573,0.74007
619.707,67.1751,-3.16089,0.00878462,0.73726
622.807,67.48711,-3.16143,0.0066888,0.73445
625.907,67.7984,-3.16546,0.005199756,0.73163
629.007,68.11052,-3.16575,0.00517483,0.72882
632.107,68.42339,-3.16805,0.004211609,0.726
635.207,68.73608,-3.17003,0.003735048,0.72317
638.307,69.04812,-3.17266,-0.0005548975,0.72035
641.407,69.3608,-3.17431,-0.001481463,0.71752
644.507,69.67266,-3.1768,-0.003797402,0.71469
647.607,69.98493,-3.17694,-0.00488217,0.71186
650.707,70.2963,-3.1809,-0.007225775,0.70903
653.807,70.60845,-3.17957,-0.00659214,0.70619
656.907,70.9208,-3.1822,-0.004629736,0.70336
660.007,71.23254,-3.18452,-0.005578363,0.70052
663.107,71.54539,-3.18614,-0.009777434,0.69768
666.207,71.85802,-3.18879,-0.01604884,0.69484
669.307,72.17071,-3.18983,-0.02025298,0.692
672.407,72.4838,-3.19109,-0.02270089,0.68916
675.507,72.79638,-3.19241,-0.02337158,0.68632
678.607,73.10875,-3.19372,-0.02843484,0.68347
681.707,73.42107,-3.19508,-0.02578335,0.68063
684.807,73.7341,-3.19573,-0.02957767,0.67779
687.907,74.04664,-3.19637,-0.02981595,0.67494
691.007,74.36005,-3.198,-0.03255368,0.6721
694.107,74.67363,-3.20129,-0.03298743,0.66925
697.207,74.98666,-3.20195,-0.03469897,0.66641
700.307,75.29993,-3.20458,-0.0346574,0.66356
703.407,75.61326,-3.2059,-0.03940358,0.66072
706.507,75.92681,-3.20492,-0.0353764,0.65787
709.607,76.23987,-3.20689,-0.03966668,0.65503
712.707,76.55349,-3.20721,-0.03748737,0.65219
715.807,76.86697,-3.2082,-0.04434645,0.64934
718.907,77.18025,-3.20984,-0.04915667,0.6465
722.007,77.494,-3.21246,-0.0439208,0.64366
725.107,77.80781,-3.21116,-0.04791153,0.64082
728.207,78.12011,-3.21248,-0.04805911,0.63798
731.307,78.4324,-3.21379,-0.04602659,0.63514
734.407,78.74514,-3.21544,-0.04147773,0.6323
737.507,79.0582,-3.21422,-0.04205806,0.62947
740.607,79.3721,-3.21182,-0.0427502,0.62663
743.707,79.68701,-3.22109,-0.03874269,0.6238
746.707,79.9924,-3.22078,-0.0420319,0.62106