Folder: fsri_materials_database/01_Data/Engineered_Flooring/STA/N2/30K_min (part 2)

File: Engineered_Flooring_STA_N2_30KData_211512_R2.csv
##Temp./Â°C,Time/min,Mass loss(subtr.2)/mg,DSC(subtr.2)/(mW/mg),Sensit./(uV/mW)
48.472,10.01,-0.00999,0.0135861,1.06964
51.472,10.8613,-0.01049272,0.20254,1.06937
54.472,11.08838,-0.009916297,0.33381,1.06907
57.472,11.26165,-0.01069021,0.43145,1.06875
60.472,11.41137,-0.009637421,0.50429,1.0684
63.472,11.54637,-0.009090485,0.57026,1.06803
66.472,11.67305,-0.009975263,0.63284,1.06763
69.472,11.7936,-0.01029613,0.68647,1.06721
72.472,11.90958,-0.01174839,0.73473,1.06676
75.472,12.02243,-0.0110542,0.77829,1.06629
78.472,12.13309,-0.01141097,0.81883,1.0658
81.472,12.24179,-0.01302034,0.85811,1.06528
84.472,12.34901,-0.0128291,0.89345,1.06473
87.472,12.45449,-0.01420489,0.92856,1.06417
90.472,12.55897,-0.01573286,0.96148,1.06357
93.472,12.66245,-0.01602137,0.99278,1.06296
96.472,12.76515,-0.01744889,1.02255,1.06232
99.472,12.86748,-0.0174404,1.048,1.06166
102.472,12.96923,-0.02006662,1.0664,1.06097
105.472,13.07086,-0.02212208,1.08132,1.06026
108.472,13.17198,-0.02399238,1.09162,1.05953
111.472,13.273,-0.02469132,1.10352,1.05877
114.472,13.3738,-0.02399071,1.10787,1.05799
117.472,13.47434,-0.02535,1.11709,1.05719
120.472,13.57434,-0.02537166,1.12054,1.05636
123.472,13.6739,-0.02787979,1.124,1.05551
126.472,13.77309,-0.02709372,1.12753,1.05464
129.472,13.872,-0.02796999,1.12932,1.05375
132.472,13.9701,-0.02928907,1.13399,1.05283
135.472,14.068,-0.02929,1.13906,1.0519
138.472,14.1654,-0.02929065,1.14912,1.05094
141.472,14.26224,-0.03063434,1.15696,1.04995
144.472,14.35861,-0.03195537,1.16861,1.04895
147.472,14.45491,-0.0332475,1.18284,1.04793
150.472,14.5502,-0.03259548,1.20024,1.04688
153.472,14.646,-0.03286795,1.21853,1.04581
156.472,14.7411,-0.03422944,1.23656,1.04472
159.472,14.8364,-0.03290626,1.25759,1.04361
162.472,14.9312,-0.0355499,1.28139,1.04248
165.472,15.02581,-0.03687056,1.30578,1.04133
168.472,15.1201,-0.03818003,1.3315,1.04016
171.472,15.2141,-0.04023645,1.35684,1.03896
174.472,15.30805,-0.04047244,1.38676,1.03775
177.472,15.40165,-0.04212439,1.41661,1.03651
180.472,15.4952,-0.04372035,1.45305,1.03526
183.472,15.5884,-0.04823294,1.49106,1.03399
186.472,15.6813,-0.05003745,1.53311,1.03269
189.472,15.77379,-0.05406545,1.58096,1.03138
192.472,15.86617,-0.05703445,1.63523,1.03005
195.472,15.9586,-0.06100635,1.69263,1.0287
198.472,16.051,-0.06576241,1.75389,1.02733
201.472,16.14301,-0.07039286,1.81826,1.02593
204.472,16.23519,-0.07646892,1.88692,1.02453
207.472,16.3272,-0.08234952,1.95804,1.0231
210.472,16.41899,-0.08932002,2.029,1.02165
213.472,16.51096,-0.09890534,2.1003,1.02019
216.472,16.60286,-0.1055,2.16671,1.01871
219.472,16.69454,-0.11471,2.2281,1.0172
222.472,16.78606,-0.12323,2.28021,1.01569
225.472,16.8775,-0.13314,2.32277,1.01415
228.472,16.96892,-0.14509,2.35252,1.0126
231.472,17.06034,-0.15414,2.36677,1.01103
234.472,17.1515,-0.16468,2.37052,1.00944
237.472,17.24305,-0.17706,2.36078,1.00783
240.472,17.33415,-0.18878,2.34179,1.00621
243.472,17.42509,-0.20079,2.31286,1.00457
246.472,17.5161,-0.2136,2.27755,1.00291
249.472,17.607,-0.22423,2.23784,1.00124
252.472,17.69771,-0.23664,2.19915,0.99955
255.472,17.78857,-0.2494,2.15815,0.99785
258.472,17.87935,-0.26296,2.11077,0.99613
261.472,17.97,-0.27905,2.0702,0.99439
264.472,18.06073,-0.29379,2.02454,0.99264
267.472,18.15126,-0.30853,1.98496,0.99087
270.472,18.24193,-0.32477,1.94041,0.98909
273.472,18.33246,-0.34173,1.89609,0.98729
276.472,18.42305,-0.36172,1.8555,0.98548
279.472,18.51373,-0.3815,1.80891,0.98366
282.472,18.60438,-0.40344,1.76287,0.98181
285.472,18.69497,-0.42756,1.71293,0.97996
288.472,18.78556,-0.45434,1.66289,0.97809
291.472,18.87623,-0.482,1.60767,0.9762
294.472,18.96707,-0.51304,1.54838,0.97431
297.472,19.05794,-0.54554,1.48596,0.97239
300.472,19.1487,-0.58027,1.42233,0.97047
303.472,19.2395,-0.61347,1.35783,0.96853
306.472,19.3301,-0.65456,1.29668,0.96658
309.472,19.42087,-0.69421,1.23451,0.96461
312.472,19.51135,-0.73596,1.17906,0.96264
315.472,19.60268,-0.77856,1.12579,0.96065
318.472,19.6937,-0.82257,1.08028,0.95864
321.472,19.78484,-0.86669,1.04066,0.95663
324.472,19.8759,-0.91225,1.00014,0.9546
327.472,19.96699,-0.95857,0.97725,0.95256
330.472,20.0584,-1.00464,0.95257,0.95051
333.472,20.1498,-1.05324,0.9383,0.94845
336.472,20.24132,-1.10175,0.92462,0.94637
339.472,20.333,-1.15226,0.92053,0.94428
342.472,20.42464,-1.20221,0.92397,0.94219
345.472,20.5164,-1.256,0.92538,0.94008
348.472,20.60829,-1.31116,0.93834,0.93796
351.472,20.7003,-1.36787,0.95596,0.93583
354.472,20.79235,-1.42906,0.97459,0.93369
357.472,20.8846,-1.49319,0.99983,0.93154
360.472,20.97691,-1.55899,1.02491,0.92938
363.472,21.06908,-1.63075,1.05318,0.92721
366.472,21.16175,-1.70751,1.08169,0.92503
369.472,21.25431,-1.78653,1.1119,0.92284
372.472,21.34701,-1.86786,1.14111,0.92064
375.472,21.43974,-1.95553,1.16304,0.91843
378.472,21.53247,-2.04708,1.17318,0.91621
381.472,21.62557,-2.13734,1.1664,0.91398
384.472,21.71856,-2.22865,1.13683,0.91175
387.472,21.8116,-2.31518,1.07385,0.9095
390.472,21.90431,-2.39061,0.98785,0.90725
393.472,21.99779,-2.45383,0.87359,0.90499
396.472,22.09084,-2.50298,0.76102,0.90272
399.472,22.18405,-2.53729,0.66649,0.90044
402.472,22.27734,-2.56054,0.59874,0.89815
405.472,22.37086,-2.57704,0.54593,0.89586
408.472,22.46425,-2.58996,0.51202,0.89356
411.472,22.55781,-2.60071,0.48544,0.89125
414.472,22.65158,-2.612,0.46327,0.88893
417.472,22.74541,-2.62227,0.44332,0.88661
420.472,22.83919,-2.63273,0.42926,0.88428
423.472,22.93313,-2.64268,0.41812,0.88194
426.472,23.0273,-2.6538,0.40786,0.8796
429.472,23.1213,-2.6632,0.399,0.87725
432.472,23.2155,-2.67208,0.39602,0.87489
435.472,23.3097,-2.68191,0.3927,0.87253
438.472,23.40409,-2.69025,0.39557,0.87016
441.472,23.49851,-2.69954,0.39722,0.86778
444.472,23.59326,-2.71003,0.40356,0.8654
447.472,23.68789,-2.71623,0.40864,0.86302
450.472,23.78262,-2.72425,0.41644,0.86063
453.472,23.87773,-2.73418,0.42425,0.85823
456.472,23.97271,-2.74021,0.434,0.85583
459.472,24.0678,-2.74918,0.44483,0.85342
462.472,24.163,-2.75606,0.45717,0.85101
465.472,24.25834,-2.76301,0.46955,0.84859
468.472,24.3537,-2.77029,0.47565,0.84617
471.472,24.44925,-2.7774,0.48761,0.84374
474.472,24.5447,-2.78444,0.49644,0.84131
477.472,24.64014,-2.78856,0.50465,0.83888
480.472,24.73592,-2.79517,0.51214,0.83644
483.472,24.83161,-2.80281,0.51939,0.83399
486.472,24.9274,-2.80865,0.52379,0.83155
489.472,25.02321,-2.81413,0.5282,0.8291
492.472,25.1192,-2.81887,0.53004,0.82664
495.472,25.21519,-2.82432,0.53547,0.82419
498.472,25.31099,-2.82858,0.54108,0.82173
501.472,25.40725,-2.83462,0.54045,0.81926
504.472,25.5034,-2.83818,0.54301,0.8168
507.472,25.59978,-2.84472,0.54544,0.81433
510.472,25.6961,-2.84919,0.54624,0.81185
513.472,25.79241,-2.85414,0.54416,0.80938
516.472,25.8889,-2.85976,0.54333,0.8069
519.472,25.98555,-2.86259,0.54312,0.80442
522.472,26.08225,-2.86608,0.53797,0.80194
525.472,26.17904,-2.8715,0.53289,0.79945
528.472,26.276,-2.87547,0.53037,0.79697
531.472,26.3728,-2.87905,0.52679,0.79448
534.472,26.46984,-2.88276,0.52245,0.79199
537.472,26.567,-2.88641,0.52355,0.7895
540.472,26.66393,-2.8905,0.52381,0.787
543.472,26.76097,-2.89321,0.52413,0.78451
546.472,26.85806,-2.89579,0.52007,0.78201
549.472,26.95528,-2.89886,0.51605,0.77951
552.472,27.05248,-2.90302,0.51505,0.77701
555.472,27.1498,-2.9056,0.51455,0.77451
558.472,27.24695,-2.9092,0.51065,0.77201
561.472,27.3445,-2.9127,0.50856,0.76951
564.472,27.4418,-2.91676,0.50533,0.76701
567.472,27.53945,-2.91903,0.50441,0.76451
570.472,27.63697,-2.92068,0.49764,0.762
573.472,27.73453,-2.92438,0.49595,0.7595
576.472,27.8324,-2.92616,0.49408,0.757
579.472,27.93021,-2.92753,0.48858,0.75449
582.472,28.028,-2.93173,0.48647,0.75199
585.472,28.126,-2.93523,0.47967,0.74948
588.472,28.2241,-2.93727,0.47585,0.74698
591.472,28.32228,-2.93921,0.47306,0.74447
594.472,28.4206,-2.94189,0.46452,0.74197
597.472,28.5191,-2.94455,0.45731,0.73947
600.472,28.61751,-2.94705,0.44839,0.73696
603.472,28.716,-2.94857,0.43687,0.73446
606.472,28.81451,-2.95191,0.42619,0.73196
609.472,28.91297,-2.95437,0.41619,0.72946
612.472,29.0114,-2.95635,0.40506,0.72696
615.472,29.11028,-2.96032,0.39512,0.72446
618.472,29.2088,-2.95944,0.38572,0.72196
621.472,29.30752,-2.96526,0.37531,0.71946
624.472,29.40625,-2.9679,0.3663,0.71697
627.472,29.5046,-2.96922,0.36223,0.71447
630.472,29.60378,-2.97041,0.35346,0.71198
633.472,29.70262,-2.97184,0.3441,0.70949
636.472,29.80139,-2.97447,0.33622,0.707
639.472,29.90042,-2.97582,0.33142,0.70451
642.472,29.99933,-2.97842,0.31999,0.70202
645.472,30.09812,-2.97834,0.31455,0.69953
648.472,30.1971,-2.98106,0.30893,0.69705
651.472,30.2964,-2.98299,0.30639,0.69457
654.472,30.39535,-2.98477,0.29891,0.69209
657.472,30.49458,-2.98602,0.29379,0.68961
660.472,30.59393,-2.98867,0.28586,0.68713
663.472,30.69293,-2.98908,0.28063,0.68466
666.472,30.7922,-2.9928,0.26762,0.68219
669.472,30.8915,-2.99319,0.2614,0.67972
672.472,30.99085,-2.99454,0.25275,0.67725
675.472,31.0901,-2.99586,0.24681,0.67478
678.472,31.1895,-2.99751,0.23113,0.67232
681.472,31.2888,-3.00014,0.22605,0.66986
684.472,31.38829,-3.00148,0.21503,0.6674
687.472,31.4876,-3.00277,0.20981,0.66495
690.472,31.5875,-3.00545,0.19911,0.6625
693.472,31.68699,-3.0054,0.18784,0.66005
696.472,31.7866,-3.00641,0.17925,0.6576
699.472,31.8864,-3.00771,0.16804,0.65516
702.472,31.98619,-3.01002,0.15766,0.65272
705.472,32.086,-3.01044,0.14203,0.65028
708.472,32.186,-3.01166,0.12942,0.64785
711.472,32.2859,-3.01298,0.12088,0.64541
714.472,32.38573,-3.0142,0.10749,0.64299
717.472,32.48567,-3.01688,0.09981094,0.64056
720.472,32.5859,-3.01715,0.09215555,0.63814
723.472,32.68581,-3.01857,0.08482945,0.63572
726.472,32.7861,-3.01984,0.07714264,0.6333
729.472,32.8864,-3.02123,0.07141331,0.63089
732.472,32.98662,-3.0212,0.05909318,0.62848
735.472,33.087,-3.0225,0.0550768,0.62608
738.472,33.1873,-3.02382,0.04436247,0.62368
741.472,33.2877,-3.02562,0.04025948,0.62128
742.772,33.33234,-3.02646,0.03530788,0.62024