Folder: fsri_materials_database/01_Data/Engineered_Flooring/STA/N2/30K_min

Note: 01_Data/README.md
# Materials and Products Database
## 01_Data

Raw data generated from each apparatus are included here in plain-text format. The data is organized first by material, next by the short name of test apparatus used, and where applicable additional filtering by test settings.

### material.json

Each material directory contains a json file of the same name as the material. This file links the data stored in the repository as well as data and graphs produced by the accompanying scripts (__02_Scripts__) to the respective landing page for the material on the front-end website.

File: EF_STA_N2_30KData_211512_R3.csv
##Temp./Â°C,Time/min,Mass loss(subtr.2)/mg,DSC(subtr.2)/(mW/mg),Sensit./(uV/mW)
48.459,10.01,-0.00657,0.00540619,1.06964
51.459,10.8636,-0.00584669,0.15566,1.06937
54.459,11.08945,-0.006725676,0.26484,1.06907
57.459,11.2647,-0.00774638,0.3526,1.06875
60.459,11.4145,-0.004908975,0.40889,1.0684
63.459,11.54991,-0.007887339,0.46611,1.06803
66.459,11.6769,-0.007397339,0.51465,1.06763
69.459,11.79758,-0.005049378,0.56132,1.06721
72.459,11.91398,-0.007454741,0.60126,1.06676
75.459,12.02731,-0.009022541,0.64359,1.06629
78.459,12.13827,-0.009010605,0.67848,1.0658
81.459,12.2471,-0.00847508,0.71137,1.06528
84.459,12.3543,-0.00939333,0.74136,1.06474
87.459,12.46,-0.01007988,0.7725,1.06417
90.459,12.56437,-0.0128472,0.80175,1.06358
93.459,12.66807,-0.01233894,0.82501,1.06296
96.459,12.7708,-0.01415166,0.85124,1.06232
99.459,12.87319,-0.01305565,0.86855,1.06166
102.459,12.97494,-0.01590291,0.88144,1.06097
105.459,13.07633,-0.0164399,0.89454,1.06026
108.459,13.17764,-0.01661041,0.90178,1.05953
111.459,13.27863,-0.01910714,0.90811,1.05877
114.459,13.37936,-0.01838745,0.91606,1.05799
117.459,13.47969,-0.02171272,0.91912,1.05719
120.459,13.57965,-0.02170493,0.92197,1.05636
123.459,13.67945,-0.02170986,0.92362,1.05552
126.459,13.77866,-0.02303013,0.92611,1.05465
129.459,13.8773,-0.02233107,0.92597,1.05375
132.459,13.97577,-0.02368988,0.93135,1.05284
135.459,14.07368,-0.02368964,0.93694,1.0519
138.459,14.1711,-0.02543269,0.94554,1.05094
141.459,14.2681,-0.02496483,0.95616,1.04996
144.459,14.36464,-0.02599291,0.96739,1.04896
147.459,14.46088,-0.02698114,0.97938,1.04793
150.459,14.5569,-0.02697751,0.9945,1.04688
153.459,14.6525,-0.02764231,1.01338,1.04582
156.459,14.74792,-0.02897075,1.03152,1.04473
159.459,14.84286,-0.02889486,1.04878,1.04362
162.459,14.93779,-0.03157919,1.07092,1.04249
165.459,15.03249,-0.03157975,1.09461,1.04133
168.459,15.1269,-0.0329013,1.11544,1.04016
171.459,15.22136,-0.03553809,1.142,1.03897
174.459,15.31541,-0.03684994,1.16986,1.03775
177.459,15.40904,-0.03685091,1.19974,1.03652
180.459,15.5025,-0.03969771,1.23513,1.03527
183.459,15.59569,-0.04372295,1.27492,1.03399
186.459,15.6883,-0.04627951,1.31695,1.0327
189.459,15.78098,-0.04734971,1.36358,1.03139
192.459,15.8734,-0.05142375,1.41521,1.03005
195.459,15.9656,-0.05635151,1.47504,1.0287
198.459,16.05803,-0.06165311,1.53533,1.02733
201.459,16.1499,-0.06623464,1.60125,1.02594
204.459,16.2421,-0.07331327,1.67063,1.02453
207.459,16.33385,-0.08068168,1.74158,1.0231
210.459,16.4256,-0.0870428,1.81171,1.02166
213.459,16.51742,-0.09543657,1.88227,1.02019
216.459,16.60905,-0.10492,1.95053,1.01871
219.459,16.7007,-0.11403,2.00982,1.01721
222.459,16.7923,-0.12429,2.06209,1.01569
225.459,16.88374,-0.13342,2.10415,1.01416
228.459,16.97512,-0.14499,2.13373,1.0126
231.459,17.0664,-0.15571,2.15304,1.01103
234.459,17.15772,-0.16815,2.15675,1.00944
237.459,17.249,-0.17899,2.14884,1.00784
240.459,17.34015,-0.19164,2.12949,1.00622
243.459,17.43125,-0.20232,2.1043,1.00458
246.459,17.52221,-0.21416,2.07563,1.00292
249.459,17.61316,-0.22801,2.03764,1.00125
252.459,17.70401,-0.24044,1.9971,0.99956
255.459,17.79484,-0.25557,1.95755,0.99786
258.459,17.8857,-0.26886,1.91441,0.99614
261.459,17.97636,-0.28228,1.87161,0.9944
264.459,18.06711,-0.29791,1.83046,0.99265
267.459,18.15774,-0.31262,1.79019,0.99088
270.459,18.2484,-0.3294,1.7506,0.9891
273.459,18.3389,-0.34863,1.70864,0.9873
276.459,18.42954,-0.36779,1.66962,0.98549
279.459,18.52025,-0.38933,1.62824,0.98366
282.459,18.61092,-0.41029,1.5856,0.98182
285.459,18.7016,-0.43319,1.54092,0.97997
288.459,18.7922,-0.46181,1.49371,0.9781
291.459,18.88291,-0.4903,1.4457,0.97621
294.459,18.97361,-0.52064,1.39378,0.97431
297.459,19.06427,-0.55384,1.33889,0.9724
300.459,19.15496,-0.59053,1.28336,0.97048
303.459,19.24571,-0.6293,1.22327,0.96854
306.459,19.33628,-0.66882,1.16446,0.96659
309.459,19.4271,-0.7118,1.11162,0.96462
312.459,19.5181,-0.75533,1.05786,0.96264
315.459,19.60914,-0.79753,1.01193,0.96065
318.459,19.69997,-0.84171,0.97002,0.95865
321.459,19.791,-0.88771,0.93358,0.95664
324.459,19.88212,-0.93659,0.89912,0.95461
327.459,19.9732,-0.98274,0.87352,0.95257
330.459,20.06456,-1.03073,0.85218,0.95052
333.459,20.15599,-1.08266,0.8331,0.94845
336.459,20.24738,-1.13291,0.82525,0.94638
339.459,20.33878,-1.18508,0.81908,0.94429
342.459,20.43055,-1.23962,0.82189,0.9422
345.459,20.52235,-1.29676,0.82988,0.94009
348.459,20.61413,-1.35332,0.84291,0.93797
351.459,20.7062,-1.41393,0.85836,0.93584
354.459,20.79818,-1.47811,0.87828,0.9337
357.459,20.89029,-1.54247,0.90555,0.93155
360.459,20.98252,-1.61105,0.93391,0.92939
363.459,21.07483,-1.68619,0.96655,0.92722
366.459,21.1674,-1.76332,0.99909,0.92504
369.459,21.25989,-1.84317,1.02985,0.92285
372.459,21.35249,-1.92992,1.06407,0.92065
375.459,21.44529,-2.02104,1.08677,0.91844
378.459,21.53819,-2.1131,1.10065,0.91622
381.459,21.63062,-2.20849,1.09854,0.91399
384.459,21.7238,-2.3022,1.06319,0.91176
387.459,21.81692,-2.38991,1.00214,0.90951
390.459,21.91,-2.47262,0.90203,0.90726
393.459,22.00299,-2.54258,0.77148,0.905
396.459,22.09619,-2.59613,0.63048,0.90273
399.459,22.18929,-2.63306,0.50631,0.90045
402.459,22.28256,-2.65979,0.40919,0.89816
405.459,22.37557,-2.67502,0.34501,0.89587
408.459,22.4689,-2.68897,0.30105,0.89357
411.459,22.56251,-2.70004,0.27101,0.89126
414.459,22.65609,-2.71298,0.2474,0.88894
417.459,22.74975,-2.72303,0.23047,0.88662
420.459,22.8435,-2.73376,0.21421,0.88429
423.459,22.93742,-2.74299,0.20213,0.88195
426.459,23.03141,-2.75438,0.19242,0.87961
429.459,23.12554,-2.76245,0.18808,0.87726
432.459,23.21963,-2.77282,0.18251,0.8749
435.459,23.3138,-2.78158,0.18201,0.87254
438.459,23.40812,-2.79241,0.18372,0.87017
441.459,23.50246,-2.80111,0.18882,0.8678
444.459,23.59694,-2.81121,0.19691,0.86541
447.459,23.69175,-2.81861,0.20504,0.86303
450.459,23.78649,-2.82652,0.21738,0.86064
453.459,23.88128,-2.83528,0.22833,0.85824
456.459,23.9762,-2.84416,0.24299,0.85584
459.459,24.07134,-2.85188,0.25541,0.85343
462.459,24.16646,-2.85927,0.2648,0.85102
465.459,24.26154,-2.86734,0.27667,0.8486
468.459,24.35673,-2.87391,0.29101,0.84618
471.459,24.45253,-2.88146,0.29783,0.84375
474.459,24.54745,-2.887,0.30395,0.84132
477.459,24.64315,-2.89483,0.31567,0.83889
480.459,24.7391,-2.9011,0.32408,0.83645
483.459,24.83492,-2.90734,0.32794,0.83401
486.459,24.93054,-2.91177,0.3345,0.83156
489.459,25.02657,-2.9175,0.3408,0.82911
492.459,25.1225,-2.92242,0.34872,0.82665
495.459,25.2185,-2.92913,0.35291,0.8242
498.459,25.3146,-2.93458,0.35348,0.82174
501.459,25.41076,-2.93786,0.35949,0.81927
504.459,25.507,-2.94478,0.36045,0.81681
507.459,25.6032,-2.94891,0.36933,0.81434
510.459,25.69952,-2.95374,0.36916,0.81186
513.459,25.79593,-2.95713,0.36976,0.80939
516.459,25.89248,-2.96238,0.37336,0.80691
519.459,25.98892,-2.96591,0.37827,0.80443
522.459,26.08547,-2.97017,0.37973,0.80195
525.459,26.18214,-2.97478,0.379,0.79946
528.459,26.2788,-2.97852,0.3802,0.79698
531.459,26.3755,-2.98168,0.38086,0.79449
534.459,26.4722,-2.98563,0.38326,0.792
537.459,26.56904,-2.98778,0.38807,0.78951
540.459,26.6659,-2.99039,0.3902,0.78701
543.459,26.76282,-2.99382,0.39428,0.78452
546.459,26.85987,-2.99869,0.39283,0.78202
549.459,26.957,-3.00269,0.40008,0.77952
552.459,27.05408,-3.00669,0.40215,0.77702
555.459,27.1513,-3.01067,0.40139,0.77453
558.459,27.2485,-3.01329,0.40645,0.77202
561.459,27.3459,-3.0147,0.40868,0.76952
564.459,27.44308,-3.01884,0.41012,0.76702
567.459,27.54056,-3.02141,0.41148,0.76452
570.459,27.63825,-3.02588,0.41528,0.76201
573.459,27.7359,-3.0285,0.41573,0.75951
576.459,27.8336,-3.03122,0.41581,0.75701
579.459,27.9315,-3.03398,0.41479,0.7545
582.459,28.0294,-3.03523,0.41477,0.752
585.459,28.12746,-3.03944,0.41542,0.74949
588.459,28.2257,-3.04218,0.41829,0.74699
591.459,28.32392,-3.04476,0.41447,0.74448
594.459,28.4221,-3.04693,0.411,0.74198
597.459,28.52035,-3.04873,0.40753,0.73948
600.459,28.6188,-3.05131,0.39846,0.73697
603.459,28.7171,-3.05336,0.39413,0.73447
606.459,28.8156,-3.05599,0.38764,0.73197
609.459,28.9143,-3.05827,0.38027,0.72947
612.459,29.01275,-3.06089,0.37896,0.72697
615.459,29.1115,-3.06287,0.37168,0.72447
618.459,29.21022,-3.06561,0.36253,0.72197
621.459,29.30898,-3.06768,0.3564,0.71947
624.459,29.40772,-3.06893,0.35373,0.71698
627.459,29.5064,-3.07279,0.35204,0.71448
630.459,29.60533,-3.07427,0.3436,0.71199
633.459,29.7042,-3.0769,0.33773,0.7095
636.459,29.80299,-3.07819,0.33327,0.70701
639.459,29.9019,-3.0821,0.33129,0.70452
642.459,30.00093,-3.08371,0.32962,0.70203
645.459,30.09993,-3.08534,0.32878,0.69954
648.459,30.199,-3.08724,0.32281,0.69706
651.459,30.2981,-3.08897,0.32035,0.69458
654.459,30.39725,-3.09204,0.31464,0.6921
657.459,30.4964,-3.09347,0.30901,0.68962
660.459,30.59565,-3.09577,0.30225,0.68714
663.459,30.69482,-3.09731,0.2916,0.68467
666.459,30.79402,-3.09904,0.28741,0.6822
669.459,30.89317,-3.10026,0.28528,0.67973
672.459,30.9926,-3.10158,0.27812,0.67726
675.459,31.09198,-3.10344,0.27552,0.6748
678.459,31.19155,-3.10564,0.27137,0.67233
681.459,31.2909,-3.10696,0.26668,0.66987
684.459,31.3905,-3.1083,0.25924,0.66742
687.459,31.4902,-3.11091,0.24994,0.66496
690.459,31.5897,-3.11189,0.24781,0.66251
693.459,31.68948,-3.11322,0.23916,0.66006
696.459,31.7891,-3.11453,0.23044,0.65761
699.459,31.889,-3.11585,0.22635,0.65517
702.459,31.9887,-3.11772,0.21692,0.65273
705.459,32.0884,-3.11848,0.21031,0.65029
708.459,32.18841,-3.12084,0.19803,0.64786
711.459,32.28855,-3.1211,0.18802,0.64542
714.459,32.38863,-3.12342,0.18256,0.643
717.459,32.48887,-3.12473,0.17428,0.64057
720.459,32.58905,-3.12473,0.16724,0.63815
723.459,32.68906,-3.12605,0.15885,0.63573
726.459,32.78934,-3.12736,0.16148,0.63331
729.459,32.88942,-3.12866,0.15603,0.6309
732.459,32.98999,-3.12867,0.15166,0.62849
735.459,33.09025,-3.13132,0.1487,0.62609
738.459,33.19073,-3.13131,0.14452,0.62369
741.459,33.29125,-3.13129,0.13635,0.62129
742.659,33.33229,-3.13263,0.13959,0.62033

File: Engineered_Flooring_STA_N2_30KData_211512_R1.csv
##Temp./Â°C,Time/min,Mass loss(subtr.2)/mg,DSC(subtr.2)/(mW/mg),Sensit./(uV/mW)
48.482,10.01,0.00164,0.01042058,1.06964
51.482,10.86559,0.0008552751,0.177,1.06936
54.482,11.0931,0.001656653,0.28673,1.06907
57.482,11.2682,0.0027759,0.36984,1.06875
60.482,11.41763,0.00123305,0.43166,1.0684
63.482,11.55372,0.001828395,0.48261,1.06803
66.482,11.6805,0.001761205,0.5318,1.06763
69.482,11.80156,0.001738235,0.57602,1.06721
72.482,11.91799,0.002281585,0.61554,1.06676
75.482,12.03181,-0.000558609,0.65166,1.06629
78.482,12.14235,0.0006514021,0.68728,1.0658
81.482,12.25103,6.28434e-05,0.71639,1.06528
84.482,12.3584,-0.00067851,0.74699,1.06473
87.482,12.46422,-0.00196801,0.77798,1.06416
90.482,12.56868,-0.001985171,0.80424,1.06357
93.482,12.6723,-0.0032678,0.82958,1.06296
96.482,12.77524,-0.003123153,0.84961,1.06232
99.482,12.87758,-0.004497765,0.86638,1.06165
102.482,12.9796,-0.005818121,0.88098,1.06097
105.482,13.08117,-0.007374916,0.88955,1.06026
108.482,13.18251,-0.00867617,0.89907,1.05952
111.482,13.28362,-0.008680116,0.90002,1.05877
114.482,13.3842,-0.01135177,0.9079,1.05799
117.482,13.4847,-0.01114843,0.91297,1.05718
120.482,13.58479,-0.01229048,0.91544,1.05636
123.482,13.68425,-0.01230161,0.91618,1.05551
126.482,13.7836,-0.01360515,0.91631,1.05464
129.482,13.8823,-0.01492005,0.91895,1.05375
132.482,13.9807,-0.01624018,0.924,1.05283
135.482,14.0783,-0.01622819,0.92664,1.05189
138.482,14.17578,-0.01526389,0.93591,1.05093
141.482,14.2727,-0.01656003,0.94678,1.04995
144.482,14.36905,-0.01754663,0.95636,1.04895
147.482,14.46502,-0.01848233,0.96947,1.04792
150.482,14.56069,-0.01754568,0.98546,1.04688
153.482,14.656,-0.01918916,1.00171,1.04581
156.482,14.7515,-0.02019737,1.01749,1.04472
159.482,14.84619,-0.02150999,1.03505,1.04361
162.482,14.94098,-0.02151514,1.05876,1.04248
165.482,15.03549,-0.02311356,1.07534,1.04132
168.482,15.1298,-0.02413254,1.09964,1.04015
171.482,15.2239,-0.02582305,1.12358,1.03896
174.482,15.31781,-0.02644004,1.15387,1.03774
177.482,15.4116,-0.02678426,1.18206,1.03651
180.482,15.50477,-0.03031717,1.21377,1.03526
183.482,15.5979,-0.03281935,1.25219,1.03398
186.482,15.6905,-0.03466653,1.28949,1.03269
189.482,15.78314,-0.03732864,1.33801,1.03138
192.482,15.87519,-0.04140218,1.3876,1.03004
195.482,15.96776,-0.04548511,1.44479,1.02869
198.482,16.0601,-0.04970363,1.5054,1.02732
201.482,16.15223,-0.05578714,1.56819,1.02593
204.482,16.24419,-0.06175805,1.63577,1.02452
207.482,16.3362,-0.06817028,1.70617,1.02309
210.482,16.42807,-0.07597054,1.77222,1.02165
213.482,16.51987,-0.08346992,1.84257,1.02018
216.482,16.6117,-0.09157158,1.90485,1.0187
219.482,16.7037,-0.1001,1.96308,1.0172
222.482,16.79518,-0.11044,2.01253,1.01568
225.482,16.88672,-0.11966,2.0477,1.01415
228.482,16.9783,-0.12951,2.07735,1.01259
231.482,17.06975,-0.14114,2.08993,1.01102
234.482,17.16102,-0.15222,2.09035,1.00943
237.482,17.25265,-0.16302,2.08089,1.00783
240.482,17.34362,-0.17335,2.05914,1.0062
243.482,17.43492,-0.18463,2.03207,1.00456
246.482,17.52585,-0.19823,2.00021,1.00291
249.482,17.61692,-0.20978,1.96471,1.00124
252.482,17.70779,-0.22214,1.92443,0.99955
255.482,17.79859,-0.23534,1.88411,0.99784
258.482,17.88959,-0.24838,1.84602,0.99612
261.482,17.98021,-0.26129,1.8005,0.99439
264.482,18.07074,-0.27751,1.76156,0.99264
267.482,18.16156,-0.29151,1.72096,0.99087
270.482,18.2522,-0.30864,1.68316,0.98909
273.482,18.3427,-0.32501,1.647,0.98729
276.482,18.4332,-0.34317,1.60617,0.98548
279.482,18.52401,-0.36356,1.56569,0.98365
282.482,18.61469,-0.38398,1.52026,0.98181
285.482,18.70534,-0.40818,1.47714,0.97995
288.482,18.79607,-0.4322,1.43106,0.97808
291.482,18.88664,-0.46032,1.3799,0.9762
294.482,18.97757,-0.49245,1.32758,0.9743
297.482,19.0682,-0.52079,1.27272,0.97239
300.482,19.15883,-0.55533,1.21558,0.97046
303.482,19.24953,-0.59286,1.15662,0.96852
306.482,19.3403,-0.63238,1.09987,0.96657
309.482,19.43112,-0.66962,1.04069,0.96461
312.482,19.52189,-0.70899,0.98658,0.96263
315.482,19.6128,-0.7522,0.93781,0.96064
318.482,19.70375,-0.79474,0.89753,0.95864
321.482,19.7947,-0.83828,0.85799,0.95662
324.482,19.88578,-0.88155,0.82623,0.95459
327.482,19.97689,-0.92758,0.79935,0.95255
330.482,20.06794,-0.97403,0.77725,0.9505
333.482,20.15925,-1.02038,0.76613,0.94844
336.482,20.25058,-1.07045,0.75787,0.94636
339.482,20.34218,-1.11998,0.75375,0.94428
342.482,20.43366,-1.17016,0.76077,0.94218
345.482,20.52542,-1.22208,0.76911,0.94007
348.482,20.61713,-1.27747,0.7847,0.93795
351.482,20.70911,-1.33509,0.80679,0.93582
354.482,20.8012,-1.39303,0.82621,0.93368
357.482,20.89333,-1.45578,0.84938,0.93153
360.482,20.98558,-1.52347,0.87638,0.92937
363.482,21.07797,-1.59184,0.90747,0.9272
366.482,21.1704,-1.6654,0.94477,0.92502
369.482,21.26291,-1.74652,0.97471,0.92283
372.482,21.35551,-1.82738,1.00293,0.92063
375.482,21.44817,-1.91372,1.0267,0.91842
378.482,21.54085,-2.00421,1.03634,0.9162
381.482,21.6338,-2.09259,1.02997,0.91398
384.482,21.7268,-2.18118,0.99988,0.91174
387.482,21.8199,-2.26449,0.93553,0.9095
390.482,21.91296,-2.33898,0.83863,0.90724
393.482,22.00618,-2.40008,0.71753,0.90498
396.482,22.0993,-2.44898,0.59523,0.90271
399.482,22.19245,-2.48248,0.48851,0.90043
402.482,22.28559,-2.50514,0.41061,0.89815
405.482,22.37905,-2.52106,0.35708,0.89585
408.482,22.47243,-2.53358,0.31899,0.89355
411.482,22.56599,-2.54419,0.28883,0.89124
414.482,22.6596,-2.55378,0.26799,0.88893
417.482,22.7534,-2.56575,0.24741,0.8866
420.482,22.84731,-2.57522,0.23203,0.88427
423.482,22.94122,-2.58329,0.21797,0.88193
426.482,23.03516,-2.59321,0.21118,0.87959
429.482,23.1292,-2.60223,0.20503,0.87724
432.482,23.22344,-2.61173,0.19907,0.87488
435.482,23.3178,-2.61997,0.19988,0.87252
438.482,23.41199,-2.62867,0.1989,0.87015
441.482,23.50654,-2.63779,0.20286,0.86778
444.482,23.601,-2.6458,0.20849,0.8654
447.482,23.69565,-2.65394,0.21557,0.86301
450.482,23.7902,-2.66254,0.22688,0.86062
453.482,23.88472,-2.66987,0.23577,0.85822
456.482,23.97991,-2.67765,0.24858,0.85582
459.482,24.07476,-2.68423,0.25826,0.85341
462.482,24.17012,-2.69193,0.26875,0.851
465.482,24.26531,-2.69907,0.28143,0.84858
468.482,24.3607,-2.70651,0.29216,0.84616
471.482,24.45599,-2.7137,0.30382,0.84373
474.482,24.5514,-2.71741,0.31223,0.8413
477.482,24.64697,-2.72403,0.31892,0.83887
480.482,24.7424,-2.72897,0.33009,0.83643
483.482,24.8383,-2.73477,0.33654,0.83399
486.482,24.9342,-2.74183,0.34181,0.83154
489.482,25.02996,-2.74611,0.34954,0.82909
492.482,25.12582,-2.74959,0.35379,0.82664
495.482,25.22185,-2.75431,0.35788,0.82418
498.482,25.31762,-2.76016,0.36045,0.82172
501.482,25.41379,-2.76502,0.36449,0.81925
504.482,25.51013,-2.76936,0.36707,0.81679
507.482,25.60606,-2.77221,0.37025,0.81432
510.482,25.70253,-2.77752,0.37092,0.81184
513.482,25.7988,-2.78082,0.37201,0.80937
516.482,25.89542,-2.78552,0.37683,0.80689
519.482,25.99193,-2.7896,0.37836,0.80441
522.482,26.08846,-2.79403,0.37736,0.80193
525.482,26.185,-2.79831,0.37477,0.79944
528.482,26.2816,-2.80135,0.37269,0.79696
531.482,26.3786,-2.80555,0.37493,0.79447
534.482,26.4751,-2.8082,0.37061,0.79198
537.482,26.57217,-2.81199,0.37352,0.78949
540.482,26.66913,-2.81525,0.3735,0.78699
543.482,26.76605,-2.81801,0.37433,0.7845
546.482,26.8632,-2.82129,0.37759,0.782
549.482,26.9604,-2.82434,0.38111,0.7795
552.482,27.05785,-2.82764,0.38275,0.77701
555.482,27.1551,-2.83048,0.38975,0.77451
558.482,27.2523,-2.83244,0.38919,0.77201
561.482,27.3499,-2.83517,0.39057,0.7695
564.482,27.44762,-2.83922,0.39202,0.767
567.482,27.5454,-2.84229,0.39625,0.7645
570.482,27.64315,-2.84376,0.39537,0.76199
573.482,27.7411,-2.84767,0.4024,0.75949
576.482,27.83902,-2.85044,0.40058,0.75699
579.482,27.93737,-2.85308,0.40242,0.75448
582.482,28.0354,-2.85438,0.40619,0.75198
585.482,28.13368,-2.85694,0.40864,0.74947
588.482,28.2318,-2.85975,0.40728,0.74697
591.482,28.3301,-2.86315,0.40862,0.74447
594.482,28.42835,-2.86514,0.40433,0.74196
597.482,28.527,-2.86684,0.40048,0.73946
600.482,28.62552,-2.86907,0.39915,0.73695
603.482,28.72403,-2.87071,0.39362,0.73445
606.482,28.82269,-2.87237,0.39172,0.73195
609.482,28.921,-2.87509,0.39152,0.72945
612.482,29.01962,-2.87772,0.37951,0.72695
615.482,29.1182,-2.87987,0.37758,0.72445
618.482,29.21668,-2.88303,0.37349,0.72195
621.482,29.31536,-2.88422,0.36906,0.71945
624.482,29.4139,-2.88666,0.36092,0.71696
627.482,29.51248,-2.88892,0.35729,0.71446
630.482,29.61112,-2.89155,0.35704,0.71197
633.482,29.7098,-2.89289,0.35808,0.70948
636.482,29.80828,-2.89524,0.35314,0.70699
639.482,29.90747,-2.89797,0.35267,0.7045
642.482,30.0062,-2.90054,0.35029,0.70201
645.482,30.10509,-2.90044,0.35008,0.69952
648.482,30.20406,-2.90274,0.34315,0.69704
651.482,30.30305,-2.90571,0.33909,0.69456
654.482,30.40215,-2.90558,0.33588,0.69208
657.482,30.50129,-2.9082,0.33543,0.6896
660.482,30.60036,-2.90954,0.33261,0.68712
663.482,30.69967,-2.91016,0.33175,0.68465
666.482,30.7989,-2.91239,0.32712,0.68218
669.482,30.8982,-2.91504,0.32261,0.67971
672.482,30.9974,-2.91632,0.31903,0.67724
675.482,31.09692,-2.91637,0.31967,0.67478
678.482,31.1966,-2.91868,0.31617,0.67231
681.482,31.29617,-2.92032,0.31234,0.66985
684.482,31.3957,-2.92158,0.30904,0.6674
687.482,31.4953,-2.92291,0.30398,0.66494
690.482,31.59494,-2.92292,0.3034,0.66249
693.482,31.6947,-2.92426,0.30366,0.66004
696.482,31.7943,-2.92552,0.29427,0.65759
699.482,31.8941,-2.92686,0.29112,0.65515
702.482,31.9938,-2.92821,0.28883,0.65271
705.482,32.09359,-2.92952,0.28086,0.65027
708.482,32.1935,-2.9295,0.27896,0.64784
711.482,32.29351,-2.93098,0.27362,0.64541
714.482,32.39342,-2.93275,0.26673,0.64298
717.482,32.49337,-2.93379,0.26458,0.64055
720.482,32.59356,-2.93509,0.25653,0.63813
723.482,32.69379,-2.93643,0.25316,0.63571
726.482,32.7938,-2.93775,0.25129,0.6333
729.482,32.8941,-2.93767,0.24078,0.63088
732.482,32.99438,-2.94035,0.24066,0.62847
735.482,33.0947,-2.93898,0.23562,0.62607
738.482,33.19515,-2.94173,0.23661,0.62367
741.482,33.29607,-2.944,0.23133,0.62127
742.582,33.3328,-2.94431,0.2282,0.62039