Folder: fsri_materials_database/01_Data/Engineered_Flooring/STA/N2/3K_min

Note: 01_Data/README.md
# Materials and Products Database
## 01_Data

Raw data generated from each apparatus are included here in plain-text format. The data is organized first by material, next by the short name of test apparatus used, and where applicable additional filtering by test settings.

### material.json

Each material directory contains a json file of the same name as the material. This file links the data stored in the repository as well as data and graphs produced by the accompanying scripts (__02_Scripts__) to the respective landing page for the material on the front-end website.

File: EF_STA_N2_3KData_211512_R1.csv
##Temp./Â°C,Time/min,Mass loss(subtr.2)/mg,DSC(subtr.2)/(mW/mg),Sensit./(uV/mW)
49.899,10.00917,-0.02435,0.01381883,1.06381
52.999,12.28642,-0.02523242,0.06481162,1.06306
56.099,13.4699,-0.02852004,0.0757493,1.06231
59.199,14.5903,-0.02891435,0.08078297,1.06156
62.299,15.67169,-0.02982998,0.08677656,1.0608
65.399,16.73302,-0.0317949,0.09163587,1.06003
68.499,17.78331,-0.0347701,0.09495753,1.05927
71.599,18.8294,-0.03674,0.09568074,1.05849
74.699,19.87247,-0.03839,0.09560651,1.05771
77.799,20.91244,-0.04069005,0.09503937,1.05693
80.899,21.9531,-0.04298851,0.09225102,1.05614
83.999,22.9967,-0.04366251,0.08931075,1.05535
87.099,24.03201,-0.04365972,0.08911002,1.05455
90.199,25.06377,-0.04600625,0.09397767,1.05375
93.299,26.09283,-0.0453,0.08775167,1.05294
96.399,27.1247,-0.04728,0.08991568,1.05213
99.499,28.1542,-0.04793,0.08964913,1.05131
102.599,29.18682,-0.04793,0.08652065,1.05048
105.699,30.2141,-0.04957001,0.08789315,1.04965
108.799,31.2399,-0.04793533,0.08622411,1.04881
111.899,32.26448,-0.04859,0.09304028,1.04797
114.999,33.28918,-0.04891925,0.09258696,1.04712
118.099,34.31305,-0.04957008,0.09359087,1.04626
121.199,35.33595,-0.05090032,0.09658164,1.04539
124.299,36.35837,-0.052541,0.09688512,1.04452
127.399,37.37958,-0.05123,0.09985868,1.04364
130.499,38.399,-0.05122001,0.10098,1.04276
133.599,39.42348,-0.05253569,0.10758,1.04187
136.699,40.4483,-0.05517088,0.10674,1.04097
139.799,41.46206,-0.05484,0.10953,1.04006
142.899,42.4779,-0.05616,0.1146,1.03915
145.999,43.49603,-0.05748008,0.11708,1.03822
149.099,44.51263,-0.05978495,0.12098,1.03729
152.199,45.528,-0.0634,0.12197,1.03635
155.299,46.54364,-0.06537,0.12659,1.03541
158.399,47.558,-0.06998,0.13107,1.03445
161.499,48.57083,-0.07326208,0.13771,1.03349
164.599,49.58384,-0.07928647,0.14337,1.03252
167.699,50.59645,-0.08446,0.1535,1.03154
170.799,51.6081,-0.08939,0.15993,1.03055
173.899,52.61922,-0.09597001,0.1699,1.02955
176.999,53.6327,-0.1044,0.17541,1.02854
180.099,54.64812,-0.11177,0.17994,1.02752
183.199,55.6562,-0.12131,0.18721,1.0265
186.299,56.671,-0.13049,0.18964,1.02546
189.399,57.68885,-0.1404,0.19491,1.02441
192.499,58.6998,-0.15197,0.19884,1.02336
195.599,59.71025,-0.16343,0.2017,1.02229
198.699,60.7209,-0.17658,0.20094,1.02122
201.799,61.73275,-0.18745,0.19907,1.02013
204.899,62.7443,-0.19864,0.19854,1.01903
207.999,63.7517,-0.21152,0.19454,1.01793
211.099,64.76034,-0.22299,0.19505,1.01681
214.199,65.7684,-0.23682,0.18822,1.01568
217.299,66.77858,-0.25064,0.18478,1.01454
220.399,67.7896,-0.26511,0.18263,1.01339
223.499,68.79689,-0.27992,0.17705,1.01223
226.599,69.80516,-0.29471,0.17439,1.01106
229.699,70.81645,-0.31084,0.1697,1.00987
232.799,71.82276,-0.32761,0.16821,1.00868
235.899,72.82834,-0.34408,0.16421,1.00747
238.999,73.83641,-0.3646,0.15876,1.00625
242.099,74.84725,-0.38232,0.1529,1.00502
245.199,75.85677,-0.40506,0.14795,1.00378
248.299,76.86885,-0.42963,0.13957,1.00252
251.399,77.8794,-0.45663,0.13792,1.00125
254.499,78.8849,-0.48686,0.13249,0.99997
257.599,79.89095,-0.52003,0.12637,0.99868
260.699,80.90211,-0.5564,0.11671,0.99737
263.799,81.91339,-0.59528,0.1153,0.99605
266.899,82.92148,-0.63751,0.11011,0.99472
269.999,83.9288,-0.68035,0.1068,0.99338
273.099,84.93718,-0.72885,0.10003,0.99202
276.199,85.94918,-0.77647,0.09411093,0.99065
279.299,86.9584,-0.82815,0.09176596,0.98926
282.399,87.96795,-0.87886,0.08660604,0.98787
285.499,88.97889,-0.93233,0.08467059,0.98645
288.599,89.9914,-0.9881,0.08115054,0.98503
291.699,91.00024,-1.04477,0.07902942,0.98359
294.799,92.01074,-1.1019,0.07795788,0.98214
297.899,93.0223,-1.16341,0.08019503,0.98067
300.999,94.03484,-1.22338,0.08105308,0.97919
304.099,95.0494,-1.28982,0.08215268,0.97769
307.199,96.06047,-1.35642,0.08689736,0.97618
310.299,97.07127,-1.42755,0.08807697,0.97466
313.399,98.08807,-1.50054,0.08751735,0.97312
316.499,99.09934,-1.57948,0.09345814,0.97157
319.599,100.1132,-1.66119,0.09823186,0.97
322.699,101.129,-1.75002,0.10494,0.96841
325.799,102.1417,-1.84154,0.11186,0.96682
328.899,103.154,-1.94172,0.11631,0.9652
331.999,104.17,-2.04636,0.11861,0.96357
335.099,105.189,-2.15684,0.11821,0.96193
338.199,106.208,-2.26753,0.11727,0.96027
341.299,107.223,-2.37294,0.1062,0.9586
344.399,108.234,-2.46706,0.08814382,0.95691
347.499,109.249,-2.54495,0.06587399,0.9552
350.599,110.267,-2.60003,0.04289007,0.95348
353.699,111.281,-2.6356,0.0231619,0.95175
356.799,112.298,-2.65879,0.01825544,0.95
359.899,113.322,-2.67415,0.01186385,0.94823
362.999,114.34,-2.68984,0.009597153,0.94645
366.099,115.3572,-2.70302,0.00585151,0.94465
369.199,116.378,-2.71451,0.004090923,0.94283
372.299,117.398,-2.72735,0.00472515,0.941
375.399,118.418,-2.73751,0.004107319,0.93915
378.499,119.438,-2.74933,0.001861054,0.93729
381.599,120.457,-2.75924,0.001232543,0.93541
384.699,121.478,-2.77163,0.002398599,0.93352
387.799,122.5,-2.78098,0.002087031,0.9316
390.899,123.522,-2.79095,0.002115839,0.92968
393.999,124.544,-2.80314,0.00553807,0.92773
397.099,125.568,-2.81169,0.00394589,0.92577
400.199,126.59,-2.82233,0.00601517,0.92379
403.299,127.617,-2.8335,0.00756412,0.9218
406.399,128.642,-2.84136,0.007894171,0.91979
409.499,129.667,-2.84925,0.01241518,0.91777
412.599,130.688,-2.85688,0.01656808,0.91572
415.699,131.71,-2.86544,0.01499943,0.91366
418.799,132.737,-2.87399,0.01701165,0.91159
421.899,133.763,-2.8809,0.02155107,0.90949
424.999,134.79,-2.88716,0.02304162,0.90739
428.099,135.817,-2.89637,0.02642044,0.90526
431.199,136.8381,-2.90329,0.03094643,0.90312
434.299,137.87,-2.91081,0.03338951,0.90096
437.399,138.901,-2.91708,0.03603087,0.89878
440.499,139.922,-2.92424,0.0386538,0.89659
443.599,140.947,-2.9296,0.04024476,0.89438
446.699,141.98,-2.93454,0.04219557,0.89216
449.799,143.01,-2.94113,0.0400824,0.88991
452.899,144.035,-2.94474,0.04085002,0.88766
455.999,145.062,-2.95198,0.03927348,0.88538
459.099,146.095,-2.95593,0.03890962,0.88309
462.199,147.128,-2.96053,0.03843893,0.88078
465.299,148.155,-2.96582,0.03551755,0.87845
468.399,149.183,-2.97041,0.03589703,0.87611
471.499,150.215,-2.97469,0.03049815,0.87376
474.599,151.248,-2.98061,0.02390898,0.87138
477.699,152.286,-2.98568,0.01992822,0.86899
480.799,153.315,-2.99081,0.003812255,0.86658
483.899,154.35,-2.99641,-0.006395175,0.86416
486.999,155.382,-2.99864,-0.01151716,0.86172
490.099,156.415,-3.00257,-0.01353936,0.85926
493.199,157.446,-3.00825,-0.02187274,0.85679
496.299,158.485,-3.01319,-0.02113842,0.8543
499.399,159.52,-3.01516,-0.02678508,0.8518
502.499,160.551,-3.01713,-0.0317577,0.84927
505.599,161.585,-3.02108,-0.04073088,0.84674
508.699,162.618,-3.02401,-0.04641775,0.84418
511.799,163.655,-3.02998,-0.05207301,0.84161
514.899,164.69,-3.0326,-0.05666946,0.83903
517.999,165.733,-3.0359,-0.06224303,0.83643
521.099,166.772,-3.03951,-0.06453267,0.83381
524.199,167.809,-3.04083,-0.07204886,0.83118
527.299,168.849,-3.04379,-0.07318953,0.82853
530.399,169.889,-3.04774,-0.07812586,0.82587
533.499,170.928,-3.05169,-0.07221702,0.82319
536.599,171.965,-3.05333,-0.08138069,0.82049
539.699,173.0014,-3.05695,-0.08323208,0.81778
542.799,174.041,-3.06057,-0.08353477,0.81506
545.899,175.077,-3.06386,-0.08103901,0.81232
548.999,176.113,-3.06583,-0.08295016,0.80956
552.099,177.153,-3.06912,-0.08695505,0.80679
555.199,178.195,-3.07273,-0.08482176,0.80401
558.299,179.235,-3.07538,-0.08146632,0.80121
561.399,180.276,-3.07767,-0.08346487,0.79839
564.499,181.3154,-3.07933,-0.08652548,0.79556
567.599,182.356,-3.08216,-0.08577702,0.79272
570.699,183.396,-3.08412,-0.08776037,0.78986
573.799,184.44,-3.08722,-0.08899397,0.78699
576.899,185.482,-3.08919,-0.0863616,0.7841
579.999,186.5175,-3.09183,-0.09286292,0.7812
583.099,187.56,-3.09512,-0.09732681,0.77828
586.199,188.605,-3.09802,-0.09799569,0.77536
589.299,189.651,-3.10006,-0.09898268,0.77241
592.399,190.693,-3.10269,-0.09940072,0.76946
595.499,191.731,-3.10466,-0.10118,0.76649
598.599,192.773,-3.1073,-0.10326,0.76351
601.699,193.817,-3.10796,-0.10462,0.76051
604.799,194.864,-3.11125,-0.10627,0.7575
607.899,195.907,-3.11355,-0.10269,0.75448
610.999,196.951,-3.11695,-0.10643,0.75144
614.099,197.996,-3.11947,-0.11044,0.7484
617.199,199.038,-3.12079,-0.10249,0.74534
620.299,200.0782,-3.12243,-0.10833,0.74226
623.399,201.123,-3.12551,-0.10883,0.73918
626.499,202.17,-3.12814,-0.10473,0.73608
629.599,203.217,-3.12946,-0.09827831,0.73297
632.699,204.263,-3.13077,-0.10359,0.72985
635.799,205.312,-3.13242,-0.10029,0.72672
638.899,206.359,-3.13472,-0.104,0.72358
641.999,207.402,-3.13736,-0.10219,0.72042
645.099,208.45,-3.13801,-0.0964731,0.71726
648.199,209.497,-3.13999,-0.09147962,0.71408
651.299,210.539,-3.14064,-0.08937542,0.71089
654.399,211.579,-3.14229,-0.0899546,0.70769
657.499,212.63,-3.14294,-0.08830791,0.70448
660.599,213.68,-3.14668,-0.08214992,0.70126
663.699,214.724,-3.15376,-0.07649892,0.69803
666.799,215.77,-3.14547,-0.07811798,0.69479
669.899,216.817,-3.14646,-0.07016009,0.69154
672.999,217.864,-3.14876,-0.06749763,0.68828
676.099,218.909,-3.14941,-0.06930011,0.68501
679.199,219.956,-3.15106,-0.0601885,0.68174
682.299,221.0034,-3.15205,-0.06226519,0.67845
685.399,222.05,-3.15336,-0.06109164,0.67515
688.499,223.097,-3.15601,-0.05984936,0.67184
691.599,224.144,-3.15599,-0.05836173,0.66853
694.699,225.197,-3.15567,-0.05680581,0.66521
697.799,226.244,-3.15878,-0.06116205,0.66188
700.899,227.288,-3.15863,-0.05981733,0.65854
703.999,228.335,-3.16126,-0.0639698,0.65519
707.099,229.38,-3.16128,-0.06629908,0.65183
710.199,230.441,-3.16094,-0.0640551,0.64847
713.299,231.49,-3.16291,-0.07050882,0.6451
716.399,232.537,-3.1639,-0.06649763,0.64172
719.499,233.581,-3.16456,-0.0780494,0.63834
722.599,234.628,-3.16686,-0.07852501,0.63495
725.699,235.682,-3.16915,-0.08516307,0.63155
728.799,236.73,-3.16949,-0.0971054,0.62815
731.899,237.778,-3.16949,-0.10136,0.62474
734.999,238.826,-3.17015,-0.11568,0.62132
738.099,239.879,-3.17113,-0.11985,0.6179
741.199,240.928,-3.17344,-0.13116,0.61447
744.299,241.976,-3.17508,-0.13423,0.61104
747.399,243.024,-3.17444,-0.14104,0.6076
748.299,243.324,-3.17607,-0.14755,0.6066