Folder: fsri_materials_database/01_Data/Latex_Pillow_Outer_Fabric/STA/N2/10K_min

Note: 01_Data/README.md
# Materials and Products Database
## 01_Data

Raw data generated from each apparatus are included here in plain-text format. The data is organized first by material, next by the short name of test apparatus used, and where applicable additional filtering by test settings.

### material.json

Each material directory contains a json file of the same name as the material. This file links the data stored in the repository as well as data and graphs produced by the accompanying scripts (__02_Scripts__) to the respective landing page for the material on the front-end website.

File: Latex_Pillow_Outer_Fabric_A_STA_N2_10KData_220801_R1.csv
##Temp./Â°C,Time/min,Mass loss(subtr.2)/mg,DSC(subtr.2)/mW,Sensit./(uV/mW)
49.387,10.00917,0.00396,3.21E-02,1.07026
51.887,11.20394,0.004866591,0.25584,1.06958
54.387,11.59132,0.0056626,0.34951,1.06888
56.887,11.91272,0.006186392,0.3981,1.06818
59.387,12.20789,0.004849147,0.42903,1.06747
61.887,12.49089,0.006414026,0.44421,1.06676
64.387,12.76656,0.005696875,0.46367,1.06604
66.887,13.03832,0.005708286,0.47655,1.06531
69.387,13.30731,0.005847344,0.49127,1.06458
71.887,13.57366,0.007025529,0.4895,1.06384
74.387,13.8375,0.007019452,0.45261,1.06309
76.887,14.09884,0.007388404,0.40713,1.06234
79.387,14.35748,0.006696248,0.36451,1.06158
81.887,14.61401,0.006941908,0.33793,1.06081
84.387,14.86859,0.007019272,0.3281,1.06004
86.887,15.12131,0.008355469,0.323,1.05926
89.387,15.37174,0.008540263,0.31108,1.05847
91.887,15.62027,0.008348206,0.29422,1.05768
94.387,15.86888,0.008340672,0.29158,1.05688
96.887,16.11645,0.008391658,0.28904,1.05607
99.387,16.36277,0.00949949,0.29455,1.05526
101.887,16.60816,0.008338966,0.30335,1.05444
104.387,16.85396,0.008684172,0.31304,1.05362
106.887,17.09853,0.009660747,0.33051,1.05278
109.387,17.34292,0.00867979,0.33911,1.05194
111.887,17.58726,0.008425741,0.35069,1.0511
114.387,17.83094,0.008340688,0.36593,1.05024
116.887,18.07448,0.007922437,0.36826,1.04938
119.387,18.31797,0.009310686,0.37532,1.04852
121.887,18.56144,0.007360836,0.3719,1.04764
124.387,18.80481,0.008558285,0.39449,1.04676
126.887,19.04763,0.008569989,0.41279,1.04588
129.387,19.2895,0.009895276,0.42704,1.04498
131.887,19.53094,0.01021006,0.43048,1.04408
134.387,19.77285,0.008571518,0.44832,1.04318
136.887,20.01344,0.008569651,0.44557,1.04226
139.387,20.25468,0.008569973,0.45115,1.04134
141.887,20.49541,0.01076311,0.45029,1.04041
144.387,20.73607,0.009549919,0.46185,1.03948
146.887,20.97747,0.008706245,0.46703,1.03854
149.387,21.21714,0.006920004,0.47166,1.03759
151.887,21.45672,0.008239574,0.46555,1.03663
154.387,21.69686,0.00823,0.46989,1.03567
156.887,21.93644,0.006477722,0.47988,1.0347
159.387,22.17548,0.006869305,0.47899,1.03372
161.887,22.41507,0.008246947,0.46827,1.03274
164.387,22.65405,0.007909689,0.4729,1.03175
166.887,22.89364,0.005613597,0.47274,1.03075
169.387,23.13251,0.006594859,0.47213,1.02975
171.887,23.37202,0.0056,0.47232,1.02873
174.387,23.61122,0.004281487,0.47542,1.02771
176.887,23.85073,0.004279997,0.48011,1.02669
179.387,24.08928,0.002969997,0.47754,1.02566
181.887,24.32824,0.002640202,0.48358,1.02462
184.387,24.56673,0.000330583,0.48258,1.02357
186.887,24.80569,-0.000518189,0.48319,1.02251
189.387,25.04399,0.001037516,0.4917,1.02145
191.887,25.28172,-0.001649943,0.49809,1.02038
194.387,25.52044,-0.003290415,0.49189,1.01931
196.887,25.75812,-0.001970036,0.49679,1.01822
199.387,25.99636,-0.004280475,0.50064,1.01713
201.887,26.23408,-0.004371505,0.5037,1.01603
204.387,26.47178,-0.00428,0.49666,1.01493
206.887,26.70997,-0.004281896,0.49661,1.01382
209.387,26.94733,-0.005590108,0.49837,1.0127
211.887,27.18596,-0.004600107,0.50104,1.01157
214.387,27.42407,-0.005919994,0.50842,1.01044
216.887,27.66213,-0.00724,0.49653,1.00929
219.387,27.89983,-0.007589933,0.50908,1.00815
221.887,28.13761,-0.008882545,0.51854,1.00699
224.387,28.37554,-0.008560228,0.52933,1.00583
226.887,28.61312,-0.008558134,0.55046,1.00465
229.387,28.85088,-0.007569766,0.57654,1.00348
231.887,29.0883,-0.007567039,0.59978,1.00229
234.387,29.32605,-0.01021003,0.64525,1.0011
236.887,29.56427,-0.009589544,0.70083,0.9999
239.387,29.80236,-0.009109965,0.76309,0.99869
241.887,30.04071,-0.008951854,0.85818,0.99747
244.387,30.27913,-0.009762262,1.00013,0.99625
246.887,30.51701,-0.01075,1.27264,0.99502
249.387,30.75595,-0.01042248,2.20752,0.99378
251.887,30.99669,-0.01174016,3.77314,0.99254
254.387,31.23843,-0.01009967,4.62602,0.99129
256.887,31.47817,-0.009769967,3.4947,0.99002
259.387,31.71521,-0.009358732,1.6455,0.98876
261.887,31.95075,-0.01043,0.9722,0.98748
264.387,32.18709,-0.01043,0.78998,0.9862
266.887,32.42396,-0.009675892,0.71848,0.98491
269.387,32.66135,-0.009071636,0.70312,0.98361
271.887,32.89887,-0.009109782,0.69742,0.98231
274.387,33.13718,-0.009110529,0.69305,0.98099
276.887,33.37479,-0.0107525,0.6885,0.97967
279.387,33.61332,-0.009770007,0.6838,0.97834
281.887,33.85185,-0.00977,0.67919,0.97701
284.387,34.09087,-0.009111005,0.68818,0.97567
286.887,34.32953,-0.01042841,0.68296,0.97432
289.387,34.5684,-0.01042997,0.68216,0.97296
291.887,34.80708,-0.01141982,0.68548,0.97159
294.387,35.04565,-0.01076,0.69373,0.97022
296.887,35.28573,-0.01076,0.69805,0.96884
299.387,35.52476,-0.01043,0.70114,0.96745
301.887,35.76506,-0.01043,0.70739,0.96605
304.387,36.0043,-0.01041674,0.70502,0.96465
306.887,36.24389,-0.00977,0.70984,0.96324
309.387,36.48364,-0.009770108,0.7129,0.96182
311.887,36.72301,-0.01101422,0.70945,0.96039
314.387,36.96186,-0.01172478,0.73515,0.95896
316.887,37.20245,-0.01103077,0.74916,0.95751
319.387,37.44245,-0.01075,0.74516,0.95606
321.887,37.68318,-0.01074447,0.74314,0.95461
324.387,37.92336,-0.01207536,0.74109,0.95314
326.887,38.16412,-0.01206874,0.73487,0.95167
329.387,38.40461,-0.01206989,0.7423,0.95019
331.887,38.64478,-0.01141003,0.72817,0.9487
334.387,38.88499,-0.01272852,0.728,0.94721
336.887,39.12584,-0.01173398,0.73804,0.9457
339.387,39.36639,-0.0130726,0.75133,0.94419
341.887,39.60721,-0.01306,0.74721,0.94267
344.387,39.8487,-0.01305999,0.74992,0.94115
346.887,40.09044,-0.01341657,0.75751,0.93961
349.387,40.33155,-0.01528424,0.78674,0.93807
351.887,40.57315,-0.01669729,0.78644,0.93652
354.387,40.81414,-0.01622541,0.80326,0.93497
356.887,41.05526,-0.01669504,0.81016,0.9334
359.387,41.29673,-0.01810571,0.81786,0.93183
361.887,41.53848,-0.02140608,0.83029,0.93025
364.387,41.78,-0.02081953,0.85701,0.92866
366.887,42.02214,-0.02239588,0.87245,0.92707
369.387,42.26423,-0.02403998,0.90489,0.92547
371.887,42.50596,-0.02789402,0.9325,0.92386
374.387,42.74883,-0.03129034,0.90023,0.92224
376.887,42.9915,-0.03663122,0.88814,0.92061
379.387,43.23408,-0.04183625,0.91335,0.91898
381.887,43.47663,-0.05006475,0.9547,0.91734
384.387,43.719,-0.06191551,0.959,0.91569
386.887,43.96259,-0.07303768,0.98109,0.91404
389.387,44.20514,-0.08821022,0.98562,0.91238
391.887,44.44817,-0.1061,1.00245,0.91071
394.387,44.69157,-0.12704,1.05162,0.90903
396.887,44.93444,-0.14938,1.09602,0.90734
399.387,45.17797,-0.17816,1.17548,0.90565
401.887,45.42173,-0.21183,1.10049,0.90395
404.387,45.66627,-0.25008,1.17645,0.90224
406.887,45.91065,-0.29627,1.28706,0.90053
409.387,46.15514,-0.35228,1.44072,0.8988
411.887,46.39954,-0.41529,1.57267,0.89707
414.387,46.64401,-0.48714,1.72207,0.89534
416.887,46.88884,-0.57041,1.86952,0.89359
419.387,47.13361,-0.66404,1.93963,0.89184
421.887,47.37885,-0.7713,2.10501,0.89008
424.387,47.6235,-0.88818,2.23758,0.88831
426.887,47.86827,-1.02498,2.46313,0.88654
429.387,48.11296,-1.17133,2.5335,0.88476
431.887,48.35787,-1.33604,2.67353,0.88297
434.387,48.60281,-1.51311,2.69999,0.88117
436.887,48.84815,-1.70092,2.69062,0.87937
439.387,49.09261,-1.90134,2.6683,0.87756
441.887,49.33869,-2.1069,2.55541,0.87574
444.387,49.58348,-2.30189,2.36088,0.87392
446.887,49.82794,-2.4848,2.0698,0.87208
449.387,50.07216,-2.64411,1.71665,0.87024
451.887,50.31668,-2.77405,1.31399,0.8684
454.387,50.56054,-2.87273,0.92926,0.86654
456.887,50.80505,-2.94735,0.59751,0.86468
459.387,51.05012,-3.00226,0.34054,0.86281
461.887,51.29468,-3.04493,0.12875,0.86094
464.387,51.53887,-3.07816,-5.92E-02,0.85906
466.887,51.78468,-3.10803,-0.22872,0.85717
469.387,52.02986,-3.12966,-0.41765,0.85527
471.887,52.2751,-3.1477,-0.56269,0.85337
474.387,52.52112,-3.16438,-0.68159,0.85146
476.887,52.76669,-3.17731,-0.77453,0.84954
479.387,53.01131,-3.18798,-0.78347,0.84762
481.887,53.25673,-3.19635,-0.74436,0.84569
484.387,53.50314,-3.20397,-0.74148,0.84375
486.887,53.7488,-3.21083,-0.74503,0.84181
489.387,53.99521,-3.21479,-0.76465,0.83986
491.887,54.24182,-3.22062,-0.77788,0.8379
494.387,54.48805,-3.22448,-0.79384,0.83594
496.887,54.7347,-3.22936,-0.81177,0.83397
499.387,54.9816,-3.23289,-0.84128,0.83199
501.887,55.22875,-3.23737,-0.87231,0.83
504.387,55.47592,-3.23918,-0.89216,0.82801
506.887,55.72174,-3.24342,-0.91733,0.82602
509.387,55.96868,-3.24333,-0.95199,0.82401
511.887,56.2158,-3.24634,-0.98275,0.822
514.387,56.46422,-3.24728,-1.01522,0.81999
516.887,56.7109,-3.25131,-1.04363,0.81796
519.387,56.95898,-3.25122,-1.07431,0.81593
521.887,57.20719,-3.2527,-1.09644,0.8139
524.387,57.45528,-3.25382,-1.12694,0.81186
526.887,57.70401,-3.25683,-1.13992,0.80981
529.387,57.95247,-3.25617,-1.15654,0.80775
531.887,58.20072,-3.25918,-1.166,0.80569
534.387,58.44878,-3.26177,-1.19051,0.80363
536.887,58.69716,-3.26242,-1.22041,0.80155
539.387,58.94519,-3.26453,-1.21943,0.79947
541.887,59.19334,-3.26737,-1.23471,0.79739
544.387,59.44099,-3.26872,-1.25077,0.7953
546.887,59.68939,-3.27099,-1.26588,0.7932
549.387,59.9371,-3.27358,-1.28148,0.7911
551.887,60.18518,-3.27362,-1.29837,0.78899
554.387,60.43356,-3.27626,-1.30657,0.78687
556.887,60.68199,-3.27978,-1.32471,0.78475
559.387,60.93114,-3.28021,-1.33286,0.78263
561.887,61.18043,-3.28087,-1.34993,0.7805
564.387,61.42975,-3.28616,-1.37102,0.77836
566.887,61.67956,-3.28844,-1.38182,0.77622
569.387,61.92845,-3.28845,-1.39553,0.77407
571.887,62.17801,-3.29086,-1.41461,0.77191
574.387,62.42706,-3.29185,-1.43759,0.76975
576.887,62.67565,-3.29221,-1.44773,0.76759
579.387,62.92474,-3.29449,-1.45138,0.76542
581.887,63.17397,-3.29843,-1.47552,0.76324
584.387,63.42331,-3.29976,-1.48804,0.76106
586.887,63.6736,-3.29976,-1.49346,0.75887
589.387,63.92327,-3.30239,-1.50855,0.75668
591.887,64.17423,-3.30371,-1.52438,0.75449
594.387,64.42413,-3.30502,-1.54329,0.75228
596.887,64.67482,-3.30634,-1.541,0.75008
599.387,64.9248,-3.30931,-1.56265,0.74786
601.887,65.17423,-3.31031,-1.57038,0.74565
604.387,65.4245,-3.31194,-1.57038,0.74343
605.587,65.54462,-3.31293,-1.57038,0.74236

File: Latex_Pillow_Outer_Fabric_A_STA_N2_10KData_220802_R2.csv
##Temp./Â°C,Time/min,Mass loss(subtr.2)/mg,DSC(subtr.2)/mW,Sensit./(uV/mW)
49.56,10.00917,0.0573,0.02994109,1.07022
51.86,11.16736,0.06214796,0.38123,1.06958
54.16,11.53748,0.06396587,0.57115,1.06895
56.46,11.84104,0.06335454,0.66857,1.0683
58.76,12.1174,0.06595413,0.74079,1.06765
61.06,12.3799,0.06596614,0.7952,1.067
63.36,12.63518,0.06604805,0.84522,1.06633
65.66,12.88599,0.06600135,0.87408,1.06567
67.96,13.1342,0.06729573,0.90319,1.065
70.26,13.3792,0.06828422,0.92831,1.06432
72.56,13.6232,0.06856455,0.93775,1.06364
74.86,13.86341,0.06860997,0.91736,1.06295
77.16,14.1038,0.07133324,0.87723,1.06225
79.46,14.3412,0.07132003,0.852,1.06155
81.76,14.57724,0.07123968,0.84014,1.06085
84.06,14.81201,0.07268221,0.84648,1.06014
86.36,15.04451,0.075299,0.85646,1.05942
88.66,15.27573,0.07493034,0.85519,1.0587
90.96,15.5063,0.0769519,0.86502,1.05797
93.26,15.7352,0.07694064,0.8648,1.05724
95.56,15.96349,0.07701922,0.87166,1.0565
97.86,16.19067,0.07694967,0.88993,1.05576
100.16,16.41609,0.07543701,0.91625,1.05501
102.46,16.64193,0.07695431,0.93103,1.05425
104.76,16.86713,0.07737717,0.95001,1.05349
107.06,17.09241,0.07860621,0.95911,1.05272
109.36,17.3174,0.07785941,0.98494,1.05195
111.66,17.54185,0.07989696,1.00514,1.05117
113.96,17.7659,0.07886863,1.02488,1.05039
116.26,17.9906,0.08122999,1.04385,1.0496
118.56,18.21388,0.08188081,1.06171,1.04881
120.86,18.43769,0.08169832,1.07005,1.048
123.16,18.66131,0.08123295,1.09519,1.0472
125.46,18.88458,0.08318447,1.11198,1.04638
127.76,19.10792,0.08320675,1.14206,1.04557
130.06,19.3307,0.08321013,1.16474,1.04474
132.36,19.55266,0.0832,1.1671,1.04391
134.66,19.77497,0.08188979,1.18693,1.04308
136.96,19.9968,0.08288004,1.19884,1.04224
139.26,20.2191,0.08320835,1.21173,1.04139
141.56,20.4403,0.08324917,1.22407,1.04053
143.86,20.66166,0.08443249,1.24509,1.03968
146.16,20.8831,0.08584,1.25418,1.03881
148.46,21.10427,0.0850345,1.25895,1.03794
150.76,21.32597,0.08584987,1.28467,1.03706
153.06,21.54656,0.0856339,1.29241,1.03618
155.36,21.76802,0.08716,1.30663,1.03529
157.66,21.98951,0.08614225,1.32093,1.0344
159.96,22.21031,0.08552442,1.33495,1.0335
162.26,22.43121,0.08767653,1.34326,1.03259
164.56,22.6514,0.08714397,1.36041,1.03168
166.86,22.87189,0.08683113,1.37735,1.03076
169.16,23.092,0.08789828,1.38103,1.02984
171.46,23.31189,0.08716,1.39221,1.02891
173.76,23.53114,0.08852053,1.40255,1.02797
176.06,23.751,0.08716675,1.41272,1.02703
178.36,23.97085,0.08782617,1.41532,1.02608
180.66,24.19088,0.08717144,1.4243,1.02513
182.96,24.41071,0.08584996,1.44181,1.02417
185.26,24.62961,0.0865,1.45246,1.0232
187.56,24.8492,0.0878158,1.46287,1.02223
189.86,25.0684,0.0865002,1.47766,1.02125
192.16,25.28704,0.08420394,1.48346,1.02027
194.46,25.50603,0.08550968,1.5062,1.01927
196.76,25.72479,0.0848714,1.51102,1.01828
199.06,25.9435,0.08551,1.51411,1.01728
201.36,26.16249,0.08551,1.5248,1.01627
203.66,26.3816,0.08419,1.53236,1.01525
205.96,26.6011,0.0828808,1.54219,1.01423
208.26,26.81917,0.08387007,1.55117,1.0132
210.56,27.03821,0.08321024,1.55387,1.01217
212.86,27.25638,0.08321001,1.58709,1.01113
215.16,27.4756,0.08321,1.57512,1.01008
217.46,27.6942,0.08315725,1.60158,1.00903
219.76,27.9146,0.08257535,1.61896,1.00797
222.06,28.13223,0.08386016,1.61365,1.00691
224.36,28.35213,0.08254,1.64184,1.00584
226.66,28.57242,0.08523071,1.6681,1.00476
228.96,28.79155,0.08330735,1.68873,1.00368
231.26,29.0102,0.08287877,1.71065,1.00259
233.56,29.2294,0.08288015,1.75907,1.00149
235.86,29.44858,0.08355905,1.79887,1.00039
238.16,29.66767,0.08123054,1.86391,0.99928
240.46,29.88591,0.08387674,1.94254,0.99817
242.76,30.10486,0.08254996,2.05904,0.99705
245.06,30.3243,0.08387002,2.21523,0.99592
247.36,30.5434,0.08386812,2.47861,0.99479
249.66,30.76285,0.08386113,3.38962,0.99365
251.96,30.98371,0.08254678,4.76964,0.9925
254.26,31.20625,0.08385808,5.69428,0.99135
256.56,31.42802,0.08254071,5.05344,0.99019
258.86,31.6474,0.0832,3.25703,0.98903
261.16,31.8651,0.0832,2.30673,0.98785
263.46,32.08188,0.08320007,2.02012,0.98668
265.76,32.29848,0.08321,1.95482,0.98549
268.06,32.51717,0.08354,1.90912,0.9843
270.36,32.7354,0.08186395,1.90504,0.9831
272.66,32.95486,0.08321615,1.89823,0.9819
274.96,33.17372,0.08325323,1.89678,0.98069
277.26,33.3915,0.08351752,1.89068,0.97948
279.56,33.61168,0.08295121,1.89492,0.97825
281.86,33.83157,0.08406396,1.89296,0.97702
284.16,34.0498,0.08282535,1.90318,0.97579
286.46,34.26938,0.08222007,1.90075,0.97455
288.76,34.4889,0.08046006,1.90249,0.9733
291.06,34.70835,0.08112005,1.90566,0.97204
293.36,34.92838,0.08309,1.91205,0.97078
295.66,35.14568,0.08341999,1.90816,0.96952
297.96,35.36501,0.08047534,1.91246,0.96824
300.26,35.58712,0.08170124,1.90148,0.96696
302.56,35.808,0.0821,1.89444,0.96567
304.86,36.02802,0.08145947,1.89851,0.96438
307.16,36.24799,0.08244,1.89981,0.96308
309.46,36.46935,0.08244,1.91416,0.96178
311.76,36.69036,0.08461254,1.90544,0.96046
314.06,36.90987,0.08320065,1.90981,0.95914
316.36,37.12997,0.08152616,1.91329,0.95782
318.66,37.35239,0.08250688,1.91282,0.95649
320.96,37.57193,0.08255024,1.9175,0.95515
323.26,37.79508,0.08255565,1.90781,0.9538
325.56,38.0163,0.08120042,1.9018,0.95245
327.86,38.23717,0.08255,1.92216,0.95109
330.16,38.45868,0.08123199,1.91448,0.94973
332.46,38.67944,0.08025,1.92198,0.94836
334.76,38.90023,0.08082045,1.93687,0.94698
337.06,39.12198,0.08156982,1.94988,0.9456
339.36,39.34304,0.08222579,1.93431,0.94421
341.66,39.56456,0.0801401,1.94046,0.94281
343.96,39.7849,0.07948,1.95211,0.94141
346.26,40.00843,0.0794799,1.9573,0.94
348.56,40.22987,0.08079077,1.96602,0.93858
350.86,40.45237,0.07917359,1.94539,0.93716
353.16,40.67516,0.07971909,1.95358,0.93573
355.46,40.89703,0.07838312,1.95441,0.9343
357.76,41.12023,0.07708592,1.96064,0.93285
360.06,41.34233,0.07466634,1.97331,0.93141
362.36,41.56365,0.07475992,1.98868,0.92995
364.66,41.78541,0.07377323,2.0117,0.92849
366.96,42.0092,0.07377023,2.01718,0.92702
369.26,42.23133,0.07064908,2.02933,0.92555
371.56,42.4536,0.06849989,2.05508,0.92407
373.86,42.6763,0.06595155,2.06851,0.92258
376.16,42.89969,0.06190987,2.08413,0.92109
378.46,43.12292,0.05936316,2.10899,0.91959
380.76,43.34313,0.05168713,2.14663,0.91808
383.06,43.56904,0.04358076,2.15915,0.91657
385.36,43.79218,0.03625122,2.17222,0.91505
387.66,44.01448,0.02263406,2.20391,0.91353
389.96,44.23956,0.00895689,2.22107,0.91199
392.26,44.46354,-0.007393126,2.25031,0.91046
394.56,44.68567,-0.0228111,2.29113,0.90891
396.86,44.9084,-0.04513747,2.35406,0.90736
399.16,45.13134,-0.06863485,2.41171,0.9058
401.46,45.35546,-0.09967819,2.4707,0.90424
403.76,45.5816,-0.13289,2.54016,0.90267
406.06,45.804,-0.17209,2.56365,0.90109
408.36,46.0285,-0.21899,2.63215,0.89951
410.66,46.2522,-0.26769,2.6611,0.89792
412.96,46.47723,-0.3247,2.71848,0.89633
415.26,46.70235,-0.38994,2.81478,0.89473
417.56,46.92739,-0.46459,2.93404,0.89312
419.86,47.1535,-0.54614,3.0825,0.89151
422.16,47.3795,-0.6395,3.19309,0.88989
424.46,47.6062,-0.74534,3.29212,0.88826
426.76,47.832,-0.86099,3.43998,0.88663
429.06,48.05814,-0.99119,3.57321,0.88499
431.36,48.28415,-1.13398,3.67021,0.88335
433.66,48.50932,-1.28819,3.67064,0.8817
435.96,48.7351,-1.45407,3.69958,0.88004
438.26,48.95952,-1.62819,3.70459,0.87838
440.56,49.18482,-1.80852,3.6558,0.87671
442.86,49.41005,-1.99128,3.55428,0.87503
445.16,49.63469,-2.16319,3.38337,0.87335
447.46,49.85937,-2.33347,3.15151,0.87166
449.76,50.08448,-2.48498,2.86965,0.86997
452.06,50.3093,-2.60808,2.54364,0.86827
454.36,50.53382,-2.70369,2.22343,0.86656
456.66,50.75775,-2.77479,1.96074,0.86485
458.96,50.9831,-2.82774,1.74834,0.86313
461.26,51.20835,-2.86781,1.56761,0.86141
463.56,51.43373,-2.90121,1.40058,0.85968
465.86,51.659,-2.92757,1.26902,0.85795
468.16,51.88552,-2.9499,1.1337,0.8562
470.46,52.11184,-2.96832,1.00099,0.85446
472.76,52.33842,-2.98208,0.89395,0.8527
475.06,52.56494,-2.99689,0.79042,0.85095
477.36,52.7916,-3.00945,0.7275,0.84918
479.66,53.01739,-3.01809,0.76973,0.84741
481.96,53.24329,-3.02654,0.78271,0.84563
484.26,53.4699,-3.0352,0.79468,0.84385
486.56,53.69582,-3.04218,0.80406,0.84206
488.86,53.9227,-3.04698,0.78714,0.84027
491.16,54.14926,-3.05243,0.75432,0.83847
493.46,54.37669,-3.06134,0.72277,0.83667
495.76,54.6043,-3.0628,0.68992,0.83485
498.06,54.8314,-3.0682,0.66943,0.83304
500.36,55.05894,-3.06704,0.94157,0.83122
502.66,55.28663,-3.07435,0.92917,0.82939
504.96,55.5146,-3.08032,0.89864,0.82756
507.26,55.74225,-3.08425,0.87474,0.82572
509.56,55.97048,-3.0869,0.83339,0.82387
511.86,56.19826,-3.08854,0.80358,0.82202
514.16,56.42645,-3.0909,0.77577,0.82017
516.46,56.65465,-3.09348,0.75177,0.81831
518.76,56.88239,-3.0948,0.71152,0.81644
521.06,57.11022,-3.09743,0.69971,0.81457
523.36,57.33855,-3.10008,0.68058,0.8127
525.66,57.56694,-3.10139,0.67335,0.81081
527.96,57.79472,-3.1027,0.66564,0.80893
530.26,58.02228,-3.10402,0.64644,0.80703
532.56,58.25056,-3.10632,0.64281,0.80514
534.86,58.4787,-3.10665,0.64968,0.80323
537.16,58.70729,-3.10797,0.63691,0.80133
539.46,58.9362,-3.11081,0.6476,0.79941
541.76,59.165,-3.11335,0.65033,0.79749
544.06,59.3939,-3.1127,0.63246,0.79557
546.36,59.6225,-3.11396,0.64127,0.79364
548.66,59.85207,-3.11617,0.62589,0.79171
550.96,60.0808,-3.11631,0.63099,0.78977
553.26,60.3096,-3.11763,0.63724,0.78783
555.56,60.5386,-3.11895,0.64659,0.78588
557.86,60.76721,-3.12159,0.65533,0.78393
560.16,60.99572,-3.12192,0.65227,0.78197
562.46,61.22453,-3.12354,0.64745,0.78001
564.76,61.4535,-3.12488,0.65667,0.77804
567.06,61.68225,-3.1262,0.66249,0.77607
569.36,61.91112,-3.12755,0.65115,0.77409
571.66,62.1387,-3.13015,0.64912,0.77211
573.96,62.3675,-3.13022,0.64154,0.77012
576.26,62.5958,-3.13222,0.64221,0.76813
578.56,62.8247,-3.13355,0.64242,0.76614
580.86,63.05375,-3.13515,0.64064,0.76414
583.16,63.28301,-3.13748,0.64577,0.76213
585.46,63.5129,-3.13786,0.64124,0.76012
587.76,63.7428,-3.14049,0.63094,0.75811
590.06,63.9737,-3.14179,0.62611,0.75609
592.36,64.20461,-3.14311,0.62415,0.75407
594.66,64.43581,-3.14311,0.6152,0.75204
596.96,64.66632,-3.14574,0.60458,0.75001
599.26,64.89676,-3.14706,0.60333,0.74798
600.26,64.99719,-3.14838,0.62161,0.74709