Folder: fsri_materials_database/01_Data/Cellulose_Insulation/Cone (part 2)

File: Cellulose_Insulation_Cone_HF75Scalar_220426_R2.csv
LABORATORY,FSRI
TEST IDENT,Cellulose_Ins_HF75_2
OPERATOR,Dow
MATERIAL,cellulose insulation
ORIENTATION,Horizontal
HEAT FLUX,75
SURF AREA,0.01
C FACTOR,0.0394783
SPEC HOLDER DIFF,-566
SPECIMEN MASS,28.17
SCAN TIME,0.25
O2 DELAY TIME,11
CO DELAY TIME,11
CO2 DELAY TIME,8
FLOW FACTOR,1
SCAN COUNT,2885
TIME TO IGN,0
END OF TEST SCAN,2405
END OF TEST TIME,601.25
TEST STATUS,1
PRE TEST CMT,Dimensions: 103.1 x 102.2 x 35.7 mm
POST TEST CMT,No ignition. Test ended after 10 minutes. No mass loss after 10 minutes in replicate R1.