Folder: fsri_materials_database/01_Data/Cellulose_Insulation/Cone

Note: 01_Data/README.md
# Materials and Products Database
## 01_Data

Raw data generated from each apparatus are included here in plain-text format. The data is organized first by material, next by the short name of test apparatus used, and where applicable additional filtering by test settings.

### material.json

Each material directory contains a json file of the same name as the material. This file links the data stored in the repository as well as data and graphs produced by the accompanying scripts (__02_Scripts__) to the respective landing page for the material on the front-end website.

File: Cellulose_Insulation_Cone_HF25Scalar_220426_R1.csv
LABORATORY,FSRI
TEST IDENT,Cellulose_Ins_HF25_1
OPERATOR,Dow
MATERIAL,cellulose insulation
ORIENTATION,Horizontal
HEAT FLUX,25
SURF AREA,0.01
C FACTOR,0.0394783
SPEC HOLDER DIFF,-566
SPECIMEN MASS,25.3
SCAN TIME,0.25
O2 DELAY TIME,11
CO DELAY TIME,11
CO2 DELAY TIME,8
FLOW FACTOR,1
SCAN COUNT,7688
TIME TO IGN,0
END OF TEST SCAN,7208
END OF TEST TIME,1802
TEST STATUS,1
PRE TEST CMT,Dimensions: 100.8 x 100.9 x 44.5 mm
POST TEST CMT,No ignition. Test ended after 30 minutes.

File: Cellulose_Insulation_Cone_HF25Scalar_220426_R2.csv
LABORATORY,FSRI
TEST IDENT,Cellulose_Ins_HF25_2
OPERATOR,Dow
MATERIAL,cellulose insulation
ORIENTATION,Horizontal
HEAT FLUX,25
SURF AREA,0.01
C FACTOR,0.0394783
SPEC HOLDER DIFF,-566
SPECIMEN MASS,26.02
SCAN TIME,0.25
O2 DELAY TIME,11
CO DELAY TIME,11
CO2 DELAY TIME,8
FLOW FACTOR,1
SCAN COUNT,2886
TIME TO IGN,0
END OF TEST SCAN,2406
END OF TEST TIME,601.5
TEST STATUS,1
PRE TEST CMT,Dimensions: 102.0 x 97.1 x 43.9 mm
POST TEST CMT,No ignition. Test ended after 10 minutes. No mass loss after 10 minutes in replicate R1.

File: Cellulose_Insulation_Cone_HF25Scalar_220426_R3.csv
LABORATORY,FSRI
TEST IDENT,Cellulose_Ins_HF25_3
OPERATOR,Dow
MATERIAL,cellulose insulation
ORIENTATION,Horizontal
HEAT FLUX,25
SURF AREA,0.01
C FACTOR,0.0394783
SPEC HOLDER DIFF,-566
SPECIMEN MASS,26.19
SCAN TIME,0.25
O2 DELAY TIME,11
CO DELAY TIME,11
CO2 DELAY TIME,8
FLOW FACTOR,1
SCAN COUNT,2985
TIME TO IGN,0
END OF TEST SCAN,2505
END OF TEST TIME,626.25
TEST STATUS,1
PRE TEST CMT,Dimensions: 100.5 x 102.9 x 41.5 mm
POST TEST CMT,No ignition. Test ended after 10 minutes. No mass loss after 10 minutes in replicate R1.

File: Cellulose_Insulation_Cone_HF25Scan_220426_R1.csv
Names,Time,Stack TC,Smoke TC,Exh Press,Smoke Comp,Smoke Meas,CO Meter,CO2 Meter,O2 Meter,Sample Mass,Ext Coeff,Start Test,Flame Verif
Chan Gain,,500,500,1,1,1,1,1,1,1,1,1.0,1.0
Offset,,0,0,0.135223,0,0,0,0,0,0,0,0.0,0.0
Gain,,1,1,25.011,13.0939,14.0471,1,1,1,1.00088,1.00971,1.0,1.0
Units,sec,C,C,Pa,%,%,%,%,%,g,/m,,
Baseline,,19.7814,20.431,151.879,97.1797,93.98,0.000998649,0.0462581,21.0096,-834.16,0.296547,,
82,20.25,18.8696,19.0078,150.173,97.1614,94.1187,0.0010246,0.0459965,21.0127,-311.765,0.2818,0.0,0.0
164,40.75,19.1573,19.5005,149.159,97.1694,93.9339,0.0009275,0.0450024,21.014,-311.855,0.299934,0.0,0.0
246,61.25,19.395,19.7169,151.076,97.1977,93.9421,0.000743016,0.0444475,21.0174,-311.825,0.301751,0.0,0.0
328,81.75,19.6539,20.3308,151.148,97.1829,93.8529,0.000787284,0.045842,21.0136,-311.875,0.308815,0.0,0.0
410,102.25,19.5251,20.1642,152.602,97.1578,93.8979,0.00103932,0.045162,21.0157,-311.955,0.302273,0.0,0.0
492,122.75,19.3834,20.3655,148.169,97.1522,93.9412,0.0010975,0.0445128,21.0194,-311.935,0.29768,0.0,0.0
574,143.25,19.9487,20.709,151.581,97.1546,94.0853,0.000994058,0.0442726,21.0221,-312.045,0.284329,0.0,0.0
656,163.75,19.7885,20.8478,153.932,97.1446,93.8118,0.00130612,0.0439865,21.0215,-311.975,0.309203,0.0,0.0
738,184.25,19.8145,20.8509,154.249,97.1446,93.9267,0.000977902,0.0438436,21.0197,-312.045,0.298362,0.0,0.0
820,204.75,20.4094,21.0603,150.268,97.1642,94.069,0.000716789,0.0436053,21.0217,-312.105,0.286737,0.0,0.0
902,225.25,20.1439,20.7586,150.88,97.1594,94.2336,0.00119708,0.0432717,21.0211,-312.015,0.270814,0.0,0.0
984,245.75,19.9568,20.6125,153.247,97.1562,93.8752,0.00080665,0.0429724,21.0243,-312.085,0.304271,0.0,0.0
1066,266.25,20.1307,20.8758,149.269,97.1438,94.0591,0.000654707,0.0428277,21.0215,-312.025,0.285807,0.0,0.0
1148,286.75,20.3031,20.9797,154.833,97.1502,94.0587,0.000969563,0.0429079,21.0207,-312.095,0.28643,0.0,0.0
1230,307.25,20.4388,20.9046,156.537,97.159,94.0724,0.000693878,0.0429037,21.0238,-312.115,0.285939,0.0,0.0
1312,327.75,19.98,21.0302,151.242,97.2441,93.9202,0.000612896,0.0426226,21.0245,-312.045,0.308035,0.0,0.0
1394,348.25,20.2628,21.114,150.907,97.4307,94.2237,0.000547382,0.042579,21.0247,-312.065,0.296439,0.0,0.0
1476,368.75,20.3325,21.1076,150.642,97.6641,94.4141,0.00079358,0.0428452,21.026,-312.075,0.299755,0.0,0.0
1558,389.25,20.7407,21.3005,150.671,97.8515,95.0464,0.000693749,0.0423756,21.0247,-312.075,0.257615,0.0,0.0
1640,409.75,20.5138,21.2238,149.291,98.0581,95.0699,0.000835452,0.0439596,21.0245,-312.075,0.274098,0.0,0.0
1722,430.25,20.4679,20.7941,154.233,98.2119,94.9306,0.000762605,0.0432955,21.0238,-312.075,0.300973,0.0,0.0
1804,450.75,20.0564,21.5538,149.519,98.1076,95.3246,0.000672315,0.0430857,21.0257,-312.075,0.254881,0.0,0.0
1886,471.25,20.1909,20.857,147.582,97.8471,94.8316,0.00069605,0.0446821,21.0233,-312.085,0.277254,0.0,0.0
1968,491.75,20.5525,21.6673,154.888,97.6221,94.3836,0.000838046,0.0427842,21.0228,-312.065,0.298805,0.0,0.0
2050,512.25,20.6725,21.5174,149.056,97.4131,94.2199,0.000885625,0.0425983,21.0238,-312.065,0.295205,0.0,0.0
2132,532.75,20.4178,21.6055,149.382,97.2593,94.1959,0.000442064,0.0425997,21.0224,-312.075,0.283462,0.0,0.0
2214,553.25,20.2837,21.7703,150.673,97.155,94.0548,0.000820114,0.0430243,21.0267,-312.075,0.28723,0.0,0.0
2296,573.75,20.4349,21.2709,149.081,97.1766,94.111,0.00079107,0.0429377,21.023,-312.075,0.283911,0.0,0.0
2378,594.25,20.5916,21.2574,151.27,97.348,94.1757,0.00057381,0.0429869,21.0246,-312.065,0.293432,0.0,0.0
2460,614.75,20.6072,21.3125,151.779,97.6509,94.6434,0.000667281,0.0427922,21.0284,-312.085,0.277069,0.0,0.0
2542,635.25,20.1903,21.3283,150.093,97.9194,94.9692,0.000356744,0.0427721,21.0259,-312.105,0.270955,0.0,0.0
2624,655.75,20.1796,21.2704,150.928,98.07,94.7887,0.000699628,0.0427259,21.0253,-312.105,0.301419,0.0,0.0
2706,676.25,20.7421,20.9727,155.127,98.2135,94.9739,0.000688665,0.0426799,21.0235,-312.065,0.297077,0.0,0.0
2788,696.75,20.3204,21.1214,151.628,98.3206,95.3036,0.000743375,0.0424257,21.0256,-312.075,0.27604,0.0,0.0
2870,717.25,20.4762,21.2257,153.36,98.3641,95.5385,0.000823202,0.0424539,21.0259,-312.095,0.258157,0.0,0.0
2952,737.75,20.5716,21.3271,145.25,98.3597,95.2821,0.000450401,0.04228,21.0256,-312.075,0.28156,0.0,0.0
3034,758.25,20.5551,21.3181,147.411,98.3318,95.322,0.000379448,0.0422482,21.0262,-312.105,0.275336,0.0,0.0
3116,778.75,20.2695,21.5286,146.451,98.303,95.1784,0.000871746,0.0424856,21.0262,-312.085,0.286097,0.0,0.0
3198,799.25,20.7292,21.4285,149.329,98.3222,95.4639,0.000476463,0.0427171,21.0262,-312.085,0.261297,0.0,0.0
3280,819.75,20.4465,21.1034,150.075,98.3566,95.2033,0.0007469,0.0425117,21.0267,-312.095,0.288607,0.0,0.0
3362,840.25,20.3231,21.0649,155.873,98.4157,95.3019,0.000490505,0.0426344,21.028,-312.065,0.284762,0.0,0.0
3444,860.75,20.4298,21.3506,152.627,98.4692,95.2191,0.000729064,0.0424284,21.0266,-312.075,0.297273,0.0,0.0
3526,881.25,20.2332,21.3208,151.795,98.4365,95.0669,0.000466744,0.0423242,21.0263,-312.075,0.308492,0.0,0.0
3608,901.75,20.6033,21.6665,153.305,98.3769,95.157,0.000766235,0.0424882,21.0266,-312.055,0.29475,0.0,0.0
3690,922.25,20.6719,21.3333,154.458,98.2998,95.4125,0.000262389,0.0421619,21.0266,-312.095,0.264055,0.0,0.0
3772,942.75,20.3115,20.9957,148.778,98.2786,95.0832,0.000348869,0.0423072,21.0266,-312.105,0.292761,0.0,0.0
3854,963.25,20.6598,20.8312,149.681,98.2742,94.9992,0.00038789,0.0421701,21.0307,-312.095,0.300195,0.0,0.0
3936,983.75,20.2307,21.4382,150.609,98.3462,95.0631,0.000638818,0.0422901,21.0266,-312.075,0.300723,0.0,0.0
4018,1004.25,19.8969,21.3734,152.173,98.4205,95.3687,0.000554634,0.042107,21.0293,-312.085,0.278982,0.0,0.0
4100,1024.75,20.0512,21.1996,153.901,98.4728,95.1947,0.000856407,0.0422131,21.0263,-312.165,0.299869,0.0,0.0
4182,1045.25,20.3429,20.8604,153.024,98.512,95.5145,0.000640112,0.0422225,21.0273,-312.075,0.273687,0.0,0.0
4264,1065.75,20.2344,21.2555,149.334,98.5272,95.4455,0.000517193,0.0422408,21.0277,-312.075,0.281454,0.0,0.0
4346,1086.25,20.2676,21.0201,151.709,98.5252,95.722,0.00120118,0.0420367,21.0289,-312.115,0.255653,0.0,0.0
4428,1106.75,20.6415,21.1618,149.944,98.5208,95.4776,0.000699312,0.042095,21.0298,-312.165,0.277896,0.0,0.0
4510,1127.25,20.2285,21.2103,151.519,98.5064,95.4005,0.000806068,0.0420739,21.0284,-312.085,0.283764,0.0,0.0
4592,1147.75,19.8619,20.8347,151.951,98.462,95.0837,0.000997583,0.0422963,21.0277,-312.055,0.309235,0.0,0.0
4674,1168.25,20.3535,21.1425,146.487,98.3354,95.2496,0.000338553,0.0422018,21.0295,-312.065,0.282393,0.0,0.0
4756,1188.75,20.2567,21.2036,149.997,98.1879,95.2238,0.000839639,0.0418188,21.0304,-312.055,0.271494,0.0,0.0
4838,1209.25,20.0141,21.219,147.544,98.0357,94.535,0.000751315,0.0422102,21.0275,-312.075,0.32206,0.0,0.0
4920,1229.75,20.8098,21.2315,150.422,97.8523,94.7124,0.00082912,0.042057,21.0286,-312.045,0.288861,0.0,0.0
5002,1250.25,19.7642,21.0634,152.879,97.7028,94.8265,0.000872039,0.042181,21.0303,-312.075,0.264667,0.0,0.0
5084,1270.75,20.6237,20.9985,147.851,97.6117,94.5247,0.000302313,0.0421811,21.0312,-312.065,0.284638,0.0,0.0
5166,1291.25,20.4545,20.6609,152.993,97.4715,94.1161,0.000616085,0.0421867,21.0314,-312.075,0.310264,0.0,0.0
5248,1311.75,20.7475,21.1343,152.383,97.3851,94.3167,0.000366083,0.042117,21.0295,-312.085,0.283558,0.0,0.0
5330,1332.25,19.7144,20.9072,147.373,97.3128,94.1676,0.000671308,0.0420951,21.0291,-312.065,0.290998,0.0,0.0
5412,1352.75,20.3346,21.0158,149.678,97.2948,94.2151,0.000633208,0.0420261,21.0279,-312.075,0.284887,0.0,0.0
5494,1373.25,20.6996,21.3883,148.57,97.3448,94.0943,0.000736162,0.0417395,21.0285,-312.055,0.300804,0.0,0.0
5576,1393.75,20.5359,20.9214,153.15,97.3763,94.4218,0.000467156,0.0417226,21.0291,-312.115,0.2729,0.0,0.0
5658,1414.25,20.4694,21.4297,153.21,97.4167,94.5521,0.000474607,0.0418727,21.0276,-312.085,0.264355,0.0,0.0
5740,1434.75,20.8309,21.2891,152.073,97.4447,94.291,0.000593318,0.0419253,21.0304,-312.065,0.291387,0.0,0.0
5822,1455.25,20.4183,20.7067,149.863,97.4906,94.4449,0.000564034,0.0418918,21.028,-312.065,0.281119,0.0,0.0
5904,1475.75,20.2938,20.8567,151.255,97.5258,94.5551,0.000620941,0.041942,21.0275,-312.095,0.273986,0.0,0.0
5986,1496.25,20.6683,20.5757,151.106,97.5825,94.105,0.000303625,0.0418895,21.0292,-312.045,0.321402,0.0,0.0
6068,1516.75,20.6459,21.3817,151.398,97.7088,94.7986,0.000507424,0.0420162,21.0282,-312.045,0.267813,0.0,0.0
6150,1537.25,20.65625,20.6654,148.768,97.7863,94.4548,0.0001327,0.0419765,21.0282,-312.035,0.307017,0.0,0.0
6232,1557.75,20.3829,21.0702,150.635,97.8099,94.5054,0.000943131,0.0421052,21.0288,-312.035,0.30441,0.0,0.0
6314,1578.25,20.0112,21.2874,151.068,97.7967,95.0232,0.000287059,0.04207,21.0294,-312.035,0.254817,0.0,0.0
6396,1598.75,19.9345,21.455,148.436,97.7448,94.685,0.000792324,0.0419404,21.0294,-312.035,0.281693,0.0,0.0
6478,1619.25,20.4758,21.1631,149.645,97.6968,94.6083,0.000730852,0.0418316,21.0298,-312.035,0.284527,0.0,0.0
6560,1639.75,20.1052,20.911,151.922,97.7188,94.195,0.000817708,0.0420973,21.0286,-312.055,0.325292,0.0,0.0
6642,1660.25,20.2811,20.4571,149.302,97.8459,94.9821,0.000774322,0.042256,21.0287,-312.025,0.263103,0.0,0.0
6724,1680.75,20.4926,20.7384,149.081,98.0385,94.7111,0.000640894,0.0420234,21.0308,-312.015,0.305821,0.0,0.0
6806,1701.25,20.4003,20.7478,149.23,98.2962,95.0978,0.000389513,0.0419724,21.0316,-312.055,0.292988,0.0,0.0
6888,1721.75,20.4893,21.0477,151.55,98.4648,95.2067,0.000775844,0.0419439,21.0314,-312.045,0.298035,0.0,0.0
6970,1742.25,20.0934,21.0022,149.572,98.4964,95.3443,0.000430099,0.0418744,21.0309,-312.015,0.288081,0.0,0.0
7052,1762.75,20.1827,21.0128,152.125,98.482,95.415,0.000510501,0.042059,21.0322,-312.035,0.280219,0.0,0.0
7134,1783.25,20.4218,21.361,153.052,98.4121,95.4729,0.000534263,0.0417038,21.031,-312.015,0.268557,0.0,0.0
7216,1803.75,19.7646,19.9194,152.025,98.2431,95.3705,0.000454917,0.0420363,21.0285,-312.015,0.262842,0.0,0.0
7298,1824.25,19.5321,20.1226,149.754,98.5196,95.3439,0.000587254,0.0419804,21.0296,-312.015,0.290205,0.0,0.0
7380,1844.75,19.7668,20.0824,152.052,98.8445,95.9869,0.000621869,0.0419519,21.0267,-312.025,0.259829,0.0,0.0
7462,1865.25,19.7089,20.7285,154.101,98.9064,96.0645,0.000647206,0.0420103,21.0293,-312.035,0.258221,0.0,0.0
7544,1885.75,19.6013,20.2614,148.424,98.8836,95.6684,0.000496384,0.0421438,21.0287,-312.015,0.292777,0.0,0.0
7626,1906.25,19.88,20.3838,147.16,98.7637,95.659,0.000366725,0.0420809,21.0289,-312.005,0.282905,0.0,0.0
7688,1921.75,19.7366,20.424,151.866,98.6858,95.3666,,,,-312.025,0.303026,0.0,0.0

File: Cellulose_Insulation_Cone_HF25Scan_220426_R2.csv
Names,Time,Stack TC,Smoke TC,Exh Press,Smoke Comp,Smoke Meas,CO Meter,CO2 Meter,O2 Meter,Sample Mass,Ext Coeff,Start Test,Flame Verif
Chan Gain,,500,500,1,1,1,1,1,1,1,1,1.0,1.0
Offset,,0,0,0.135223,0,0,0,0,0,0,0,0.0,0.0
Gain,,1,1,25.011,13.0939,14.0471,1,1,1,1.00088,1.00971,1.0,1.0
Units,sec,C,C,Pa,%,%,%,%,%,g,/m,,
Baseline,,20.1871,20.8996,151.807,97.3986,93.7049,0.0010329,0.0430103,21.0203,-834.065,0.342423,,
31,7.5,18.835,18.8138,151.989,98.2515,94.177,0.00111299,0.050615,21.0123,-309.193,0.375133,0.0,0.0
62,15.25,18.4311,19.0983,150.425,98.2914,94.4492,0.00116236,0.0452272,21.0193,-309.203,0.353172,0.0,0.0
93,23,18.6536,19.0198,158.608,98.3278,94.4989,0.00108289,0.0431636,21.0219,-309.253,0.351786,0.0,0.0
124,30.75,19.3541,19.4012,152.324,98.3757,94.6533,0.000902441,0.0429556,21.0246,-309.223,0.341651,0.0,0.0
155,38.5,19.2154,20.2966,149.474,98.4069,95.0524,0.0010264,0.0430181,21.0253,-309.283,0.30719,0.0,0.0
186,46.25,19.1535,20.1619,152.639,98.4433,94.6631,0.0011756,0.042851,21.0247,-309.283,0.346806,0.0,0.0
217,54,19.5306,19.8996,148.453,98.4612,94.6563,0.000962708,0.0428493,21.0245,-309.293,0.349066,0.0,0.0
248,61.75,19.5227,20.6978,153.974,98.4736,94.8162,0.00123434,0.0429093,21.0245,-309.323,0.335231,0.0,0.0
279,69.5,19.9922,20.3307,157.525,98.4728,94.7189,0.00100744,0.0428687,21.0253,-309.313,0.344253,0.0,0.0
310,77.25,19.7772,20.4436,147.828,98.4752,94.6027,0.000750212,0.0429917,21.0243,-309.313,0.355339,0.0,0.0
341,85,19.3086,19.8888,147.675,98.482,94.7994,0.000961339,0.0428112,21.0236,-309.333,0.337548,0.0,0.0
372,92.75,20.1267,20.3149,151.696,98.4864,94.8183,0.0012902,0.0429326,21.0238,-309.353,0.336181,0.0,0.0
403,100.5,19.974,20.5842,154.677,98.4904,94.8535,0.000893719,0.0430372,21.0235,-309.363,0.333257,0.0,0.0
434,108.25,19.8877,20.853,149.361,98.5008,94.8303,0.000848124,0.0430497,21.0235,-309.383,0.336352,0.0,0.0
465,116,19.9475,20.8127,152.053,98.5144,94.6434,0.000997213,0.0429179,21.0229,-309.353,0.355049,0.0,0.0
496,123.75,20.2498,21.1101,152.98,98.5104,94.7733,0.00100534,0.0429373,21.0241,-309.393,0.342542,0.0,0.0
527,131.5,20.0818,20.9438,153.649,98.5132,94.8059,0.000884478,0.042975,21.0237,-309.403,0.339749,0.0,0.0
558,139.25,20.3063,21.2576,154.236,98.5204,94.7103,0.00117091,0.0430534,21.0255,-309.423,0.349332,0.0,0.0
589,147,20.5392,21.1157,149.597,98.516,94.7823,0.000857304,0.0427698,21.0258,-309.413,0.342204,0.0,0.0
620,154.75,20.4592,21.0434,150.492,98.5152,94.64,0.00129905,0.0428993,21.0258,-309.433,0.355441,0.0,0.0
651,162.5,20.4975,20.7949,153.969,98.5212,94.6447,0.000938011,0.0430212,21.0239,-309.433,0.355539,0.0,0.0
682,170.25,20.4254,21.0081,153.335,98.5212,94.8102,0.00123917,0.0430511,21.0235,-309.423,0.340068,0.0,0.0
713,178,20.3207,21.2372,149.158,98.5136,94.8363,0.000760451,0.0431128,21.0227,-309.423,0.336942,0.0,0.0
744,185.75,20.2294,21.0625,151.338,98.5116,94.7523,0.000540541,0.043144,21.0245,-309.453,0.344614,0.0,0.0
775,193.5,20.2323,21.4339,145.893,98.52,94.7463,0.000386434,0.0431027,21.0227,-309.463,0.345928,0.0,0.0
806,201.25,20.6874,21.6688,149.871,98.5192,94.718,0.000670319,0.0430024,21.0247,-309.463,0.348502,0.0,0.0
837,209,20.5417,21.0849,151.109,98.5092,94.6683,0.000915174,0.0427619,21.0243,-309.463,0.352256,0.0,0.0
868,216.75,20.0777,21.2704,150.204,98.4976,94.7004,0.000819944,0.0430835,21.0247,-309.483,0.348205,0.0,0.0
899,224.5,20.8267,21.2242,150.117,98.4712,94.865,0.0010669,0.0428625,21.0234,-309.483,0.330452,0.0,0.0
930,232.25,20.6179,21.431,151.645,98.4397,94.6417,0.000940575,0.0429801,21.0247,-309.493,0.348488,0.0,0.0
961,240,20.5545,21.6664,150.448,98.4113,94.6597,0.000985026,0.0427984,21.0248,-309.503,0.34425,0.0,0.0
992,247.75,20.4083,21.355,149.306,98.3861,94.6696,0.00112815,0.0429884,21.0253,-309.493,0.341063,0.0,0.0
1023,255.5,20.4578,21.3317,149.119,98.3186,94.6927,0.000601227,0.0429114,21.0251,-309.493,0.332815,0.0,0.0
1054,263.25,20.7918,21.2575,151.572,98.2511,94.7073,0.000753445,0.0429908,21.0259,-309.493,0.325366,0.0,0.0
1085,271,20.5684,21.1101,150.93,98.1971,94.4981,0.000954469,0.0427204,21.0261,-309.493,0.340087,0.0,0.0
1116,278.75,20.4183,21.371,148.936,98.1591,94.4612,0.00109289,0.0430109,21.0254,-309.513,0.34012,0.0,0.0
1147,286.5,20.4446,21.4656,148.898,98.3917,94.8097,0.000863515,0.0431264,21.0237,-309.493,0.32846,0.0,0.0
1178,294.25,20.6801,20.9229,151.154,98.6602,95.0241,0.000826597,0.0430571,21.0236,-309.443,0.332599,0.0,0.0
1209,302,20.432,21.4757,151.471,98.862,95.211,0.00079579,0.0429169,21.0233,-309.473,0.333292,0.0,0.0
1240,309.75,20.3985,21.2876,150.841,98.9647,95.1214,0.000556467,0.0431443,21.0231,-309.483,0.350827,0.0,0.0
1271,317.5,20.9007,21.4301,150.235,98.9723,95.2796,0.00110579,0.0435862,21.0225,-309.493,0.336789,0.0,0.0
1302,325.25,20.7706,21.2181,154.893,98.9452,95.2629,0.000693591,0.0435398,21.0216,-309.483,0.335911,0.0,0.0
1333,333,20.8346,21.6248,149.99,98.8892,95.5334,0.00070094,0.0434964,21.0225,-309.503,0.305788,0.0,0.0
1364,340.75,21.2146,21.3556,151.715,98.8161,94.9649,0.000815488,0.0435962,21.0221,-309.513,0.352094,0.0,0.0
1395,348.5,20.4442,21.0542,151.339,98.7629,95.1107,0.000973173,0.0435728,21.0258,-309.543,0.333746,0.0,0.0
1426,356.25,20.627,21.3597,150.603,98.721,95.0262,0.000978575,0.0435881,21.0261,-309.523,0.33785,0.0,0.0
1457,364,20.8819,21.566,154.295,98.6694,95.1647,0.000978796,0.0433808,21.0267,-309.523,0.320327,0.0,0.0
1488,371.75,20.472,21.6431,150.658,98.6383,94.9988,0.000869327,0.0434979,21.0244,-309.523,0.332983,0.0,0.0
1519,379.5,20.6105,21.4979,148.786,98.5755,95.1167,0.000640068,0.0434892,21.024,-309.533,0.316364,0.0,0.0
1550,387.25,20.3775,21.2226,152.017,98.5408,95.0811,0.000303221,0.0438531,21.0244,-309.543,0.316553,0.0,0.0
1581,395,20.7467,21.8205,147.587,98.5092,94.9628,0.000815236,0.0440075,21.0245,-309.523,0.324743,0.0,0.0
1612,402.75,20.4163,21.401,152.812,98.4513,94.8547,0.00114044,0.0436751,21.0245,-309.533,0.329615,0.0,0.0
1643,410.5,20.4837,21.3076,150.811,98.4201,94.7673,0.000593156,0.04344,21.0245,-309.533,0.33498,0.0,0.0
1674,418.25,21.0363,21.467,151.124,98.4341,94.7394,0.000634668,0.0432591,21.0252,-309.533,0.338843,0.0,0.0
1705,426,20.5726,21.325,146.227,98.468,94.7107,0.000949904,0.0432351,21.0247,-309.543,0.344584,0.0,0.0
1736,433.75,20.833,21.4792,150.755,98.4952,94.8187,0.000886983,0.0431328,21.0249,-309.553,0.336931,0.0,0.0
1767,441.5,20.5762,21.7533,152.865,98.522,94.7026,0.000582644,0.0432445,21.0227,-309.543,0.350196,0.0,0.0
1798,449.25,20.6397,21.9759,151.079,98.5404,94.6914,0.000434248,0.0431819,21.024,-309.533,0.352892,0.0,0.0
1829,457,20.8411,21.4463,152.381,98.5747,94.7926,0.000885253,0.0431398,21.0235,-309.543,0.346522,0.0,0.0
1860,464.75,20.986,21.7685,150.932,98.6019,94.664,0.00100709,0.0434077,21.0222,-309.553,0.360987,0.0,0.0
1891,472.5,20.671,21.8191,149.818,98.6279,94.7729,0.000756814,0.0432216,21.0241,-309.553,0.353139,0.0,0.0
1922,480.25,21.2027,21.9957,150.586,98.6231,94.874,0.000661552,0.0435243,21.0233,-309.543,0.343258,0.0,0.0
1953,488,21.1993,21.6678,150.58,98.6311,94.8745,0.000628755,0.0439953,21.0236,-309.553,0.343936,0.0,0.0
1984,495.75,21.0353,21.6662,150.324,98.6299,95.0052,0.000855474,0.0443088,21.0235,-309.543,0.331631,0.0,0.0
2015,503.5,21.0748,21.501,147.792,98.6543,95.085,0.0006203,0.0439257,21.0246,-309.533,0.326388,0.0,0.0
2046,511.25,21.1357,22.147,151.564,98.6862,95.1158,0.00075716,0.0439987,21.0232,-309.533,0.326384,0.0,0.0
2077,519,20.8957,21.5479,152.231,98.7062,94.9122,0.000683121,0.043793,21.0229,-309.563,0.347157,0.0,0.0
2108,526.75,21.2537,21.5707,152.992,98.735,95.0172,0.000675513,0.043683,21.0236,-309.543,0.339944,0.0,0.0
2139,534.5,20.9895,21.8858,152.293,98.7929,95.1167,0.000699966,0.0437493,21.0229,-309.543,0.335874,0.0,0.0
2170,542.25,20.6626,21.9093,151.287,98.8465,95.1274,0.000909686,0.0440564,21.0224,-309.563,0.339676,0.0,0.0
2201,550,20.9937,21.7868,151.26,98.8656,95.0391,0.000674743,0.0440718,21.022,-309.553,0.34962,0.0,0.0
2232,557.75,20.7174,21.1468,151.805,98.9112,95.3585,0.00067802,0.0440672,21.0219,-309.553,0.323986,0.0,0.0
2263,565.5,20.3995,21.5843,149.229,98.9711,95.2208,0.000679081,0.0437416,21.0205,-309.563,0.342144,0.0,0.0
2294,573.25,21.0752,21.0736,152.758,99.0207,95.1968,0.000413949,0.0437479,21.0221,-309.553,0.348809,0.0,0.0
2325,581,20.5895,21.483,151.551,99.0734,95.5496,0.000548103,0.0436993,21.023,-309.563,0.320762,0.0,0.0
2356,588.75,20.3396,21.7656,150.843,99.1274,95.4433,0.000521232,0.0442845,21.0214,-309.563,0.335444,0.0,0.0
2387,596.5,20.6649,21.8266,145.939,99.1653,95.355,0.00032818,0.0444514,21.0216,-309.583,0.347033,0.0,0.0
2418,604.25,20.1996,20.6062,148.632,99.1941,95.5681,0.000785568,0.0438935,21.024,-309.553,0.329835,0.0,0.0
2449,612,20.7772,21.2382,151.126,99.2141,95.3812,0.000680464,0.0433554,21.0247,-309.543,0.348958,0.0,0.0
2480,619.75,20.039,21.3951,147.463,99.2089,95.6993,0.000613577,0.0433671,21.0247,-309.553,0.319006,0.0,0.0
2511,627.5,20.6545,21.349,148.028,99.2029,95.265,0.000594374,0.0432134,21.0241,-309.553,0.358753,0.0,0.0
2542,635.25,19.8272,21.3654,148.208,99.1873,95.4163,0.000576843,0.0430756,21.0241,-309.563,0.343305,0.0,0.0
2573,643,20.6981,21.2107,154.649,99.1637,95.364,0.000703513,0.0430928,21.0241,-309.563,0.346055,0.0,0.0
2604,650.75,19.9454,21.0817,148.466,99.1609,95.5051,0.000678365,0.0430365,21.0262,-309.563,0.332716,0.0,0.0
2635,658.5,20.8147,21.6244,147.637,99.1166,95.2821,0.000637422,0.0431035,21.0262,-309.563,0.34945,0.0,0.0
2666,666.25,20.382,21.1556,148.624,99.0858,95.2714,0.000352997,0.0430433,21.0256,-309.573,0.347695,0.0,0.0
2697,674,20.4333,21.798,151.921,99.0363,95.2273,0.000473373,0.0430319,21.0238,-309.573,0.347372,0.0,0.0
2728,681.75,20.2079,21.2743,150.05,98.9863,95.3006,0.000432702,0.0432145,21.0238,-309.573,0.336088,0.0,0.0
2759,689.5,20.6856,21.6211,148.935,98.898,95.19,0.000572371,0.0432765,21.0236,-309.573,0.338468,0.0,0.0
2790,697.25,20.4232,21.5485,153.215,98.7905,95.0172,0.000516446,0.043644,21.0225,-309.553,0.344926,0.0,0.0
2821,705,20.0259,20.9771,148.201,98.685,94.859,0.000233262,0.0436343,21.0195,-309.563,0.35022,0.0,0.0
2852,712.75,20.8722,21.5985,152.811,98.6123,94.8012,,0.043931,,-309.563,0.349095,0.0,0.0
2883,720.5,20.8299,21.585,151.025,98.5735,94.7549,,,,-309.583,0.34994,0.0,0.0
2886,721.25,20.6135,21.2489,155.195,98.5619,94.7896,,,,-309.563,0.345654,0.0,0.0

File: Cellulose_Insulation_Cone_HF50Scalar_220426_R1.csv
LABORATORY,FSRI
TEST IDENT,Cellulose_Ins_HF50_1
OPERATOR,Dow
MATERIAL,cellulose insulation
ORIENTATION,Horizontal
HEAT FLUX,50
SURF AREA,0.01
C FACTOR,0.0394783
SPEC HOLDER DIFF,-566
SPECIMEN MASS,17.74
SCAN TIME,0.25
O2 DELAY TIME,11
CO DELAY TIME,11
CO2 DELAY TIME,8
FLOW FACTOR,1
SCAN COUNT,7688
TIME TO IGN,0
END OF TEST SCAN,7208
END OF TEST TIME,1802
TEST STATUS,1
PRE TEST CMT,Dimensions: 94.3 x 96.8 x 30.8 mm
POST TEST CMT,No ignition. Test ended after 30 minutes.

File: Cellulose_Insulation_Cone_HF50Scalar_220426_R2.csv
LABORATORY,FSRI
TEST IDENT,Cellulose_Ins_HF50_2
OPERATOR,Dow
MATERIAL,cellulose insulation
ORIENTATION,Horizontal
HEAT FLUX,50
SURF AREA,0.01
C FACTOR,0.0394783
SPEC HOLDER DIFF,-566
SPECIMEN MASS,16.83
SCAN TIME,0.25
O2 DELAY TIME,11
CO DELAY TIME,11
CO2 DELAY TIME,8
FLOW FACTOR,1
SCAN COUNT,2885
TIME TO IGN,0
END OF TEST SCAN,2405
END OF TEST TIME,601.25
TEST STATUS,1
PRE TEST CMT,Dimensions: 100.0 x 99.5 x 36.1 mm
POST TEST CMT,No ignition. Test ended after 10 minutes. No mass loss after 10 minutes in replicate R1.

File: Cellulose_Insulation_Cone_HF50Scalar_220426_R3.csv
LABORATORY,FSRI
TEST IDENT,Cellulose_Ins_HF50_3
OPERATOR,Dow
MATERIAL,cellulose insulation
ORIENTATION,Horizontal
HEAT FLUX,50
SURF AREA,0.01
C FACTOR,0.0394783
SPEC HOLDER DIFF,-566
SPECIMEN MASS,16.36
SCAN TIME,0.25
O2 DELAY TIME,11
CO DELAY TIME,11
CO2 DELAY TIME,8
FLOW FACTOR,1
SCAN COUNT,2885
TIME TO IGN,0
END OF TEST SCAN,2405
END OF TEST TIME,601.25
TEST STATUS,1
PRE TEST CMT,Dimensions: 102.2 x 96.9 x 32.4 mm
POST TEST CMT,No ignition. Test ended after 10 minutes. No mass loss after 10 minutes in replicate R1.

File: Cellulose_Insulation_Cone_HF75Scalar_220426_R1.csv
LABORATORY,FSRI
TEST IDENT,Cellulose_Ins_HF75_1
OPERATOR,Dow
MATERIAL,cellulose insulation
ORIENTATION,Horizontal
HEAT FLUX,75
SURF AREA,0.01
C FACTOR,0.0394783
SPEC HOLDER DIFF,-566
SPECIMEN MASS,20.47
SCAN TIME,0.25
O2 DELAY TIME,11
CO DELAY TIME,11
CO2 DELAY TIME,8
FLOW FACTOR,1
SCAN COUNT,7711
TIME TO IGN,0
END OF TEST SCAN,7231
END OF TEST TIME,1807.75
TEST STATUS,1
PRE TEST CMT,Dimensions: 97.9 x 97.8 x 38.7 mm
POST TEST CMT,No ignition. Test ended after 30 minutes.