Folder: fsri_materials_database/01_Data/Cellulose_Insulation/HFM

Note: 01_Data/README.md
# Materials and Products Database
## 01_Data

Raw data generated from each apparatus are included here in plain-text format. The data is organized first by material, next by the short name of test apparatus used, and where applicable additional filtering by test settings.

### material.json

Each material directory contains a json file of the same name as the material. This file links the data stored in the repository as well as data and graphs produced by the accompanying scripts (__02_Scripts__) to the respective landing page for the material on the front-end website.

File: Cellulose_Insulation_Density_Wet_R1.csv
,Cellulose_Insulation_WET_1
Sample Mass [g],38.5
Sample Volume [cm3],479.9
Sample Density [kg/m3],80

File: Cellulose_Insulation_Density_Wet_R2.csv
,Cellulose_Insulation_WET_2
Sample Mass [g],33.6
Sample Volume [cm3],472.2
Sample Density [kg/m3],71

File: Cellulose_Insulation_Density_Wet_R3.csv
,Cellulose_Insulation_WET_3
Sample Mass [g],25.0
Sample Volume [cm3],474.8
Sample Density [kg/m3],53

File: Cellulose_Insulation_Ignition_Temp_Properties.csv
Thermal Conductivity (W/m-K),0.05
Heat Capacity (J/kg-K),1741.0
Density (kg/m3),68.0