Folder: fsri_materials_database/01_Data/Cellulose_Insulation/MCC (part 2)

File: Cellulose_Insulation_MCC_30K_min_220121_R3.txt
Sample ID:	C:\MCC\MCC Cal\Test\Cellulose_Insulation_MCC_30K_min_220121_R3.txt
Sample Weight (mg):	4.85
Heating Rate (C/s):	0.5
Combustor Temp (C):	900
N2 Flow Rate (cc/min):	80
O2 Flow Rate (cc/min):	20
Calibration File:	C:\MCC\MCC Cal\Coeff1 JN10440_30_210304.txt.txt
T Correction Coefficients:	0	1.024463	0
Time Shift (s):	14
*
Time (s)	Temperature (C)	N2 flow rate (cc/min)	O2 flow rate (cc/min)	Flow Rate (cc/min)	Oxygen (%)	HRR (W/g)	Heating rate (C/s)
0.000	111.183	80.006	19.993	103.651	20.098	0.027	-0.001
8.000	111.207	80.003	19.995	103.671	20.096	0.124	0.008
16.000	111.224	80.001	19.995	103.759	20.084	0.933	0.013
24.000	111.585	80.004	19.994	103.776	20.080	1.176	0.061
32.001	112.190	80.004	19.993	103.784	20.075	1.512	0.054
40.000	113.233	80.003	19.992	103.862	20.066	2.167	0.146
48.000	114.627	80.006	19.993	103.865	20.063	2.330	0.215
56.000	116.318	80.006	19.993	103.873	20.059	2.595	0.188
64.000	118.437	80.004	19.993	103.901	20.056	2.807	0.282
72.000	120.764	80.004	19.993	103.904	20.059	2.606	0.311
80.000	123.371	80.005	19.993	103.899	20.056	2.780	0.320
88.000	126.149	80.003	19.993	103.904	20.058	2.674	0.377
96.000	129.114	80.004	19.996	103.909	20.055	2.844	0.382
104.000	132.288	80.003	19.995	103.931	20.056	2.831	0.411
112.000	135.554	80.005	19.995	103.921	20.054	2.920	0.424
120.000	139.030	80.003	19.993	103.915	20.052	3.081	0.438
128.000	142.632	80.005	19.994	103.910	20.049	3.306	0.443
136.000	146.369	80.005	19.993	103.939	20.047	3.388	0.500
144.000	150.196	80.005	19.993	103.919	20.047	3.397	0.494
152.000	154.060	80.003	19.994	103.915	20.046	3.506	0.486
160.000	157.979	80.005	19.994	103.908	20.043	3.645	0.494
168.000	161.912	80.004	19.994	103.908	20.041	3.820	0.482
176.000	165.954	80.004	19.993	103.905	20.042	3.736	0.537
184.000	169.954	80.004	19.995	103.904	20.045	3.564	0.499
192.000	173.994	80.002	19.996	103.902	20.043	3.699	0.495
200.000	178.073	80.003	19.993	103.898	20.044	3.593	0.507
208.000	182.124	80.004	19.992	103.897	20.044	3.602	0.501
216.000	186.111	80.004	19.995	103.880	20.046	3.463	0.480
224.000	190.209	80.004	19.993	103.887	20.042	3.733	0.500
232.000	194.194	80.005	19.993	103.879	20.042	3.740	0.493
240.000	198.154	80.006	19.994	103.870	20.044	3.638	0.478
248.000	202.126	80.003	19.995	103.887	20.041	3.837	0.522
256.000	206.108	80.004	19.994	103.877	20.041	3.777	0.516
264.000	210.127	80.004	19.993	103.878	20.039	3.933	0.484
272.000	214.075	80.002	19.993	103.896	20.027	4.754	0.491
280.000	218.063	80.003	19.994	103.947	19.995	6.923	0.463
288.000	222.029	80.003	19.995	104.036	19.911	12.545	0.507
296.000	225.968	80.006	19.992	104.137	19.785	20.979	0.476
304.000	229.908	80.003	19.993	104.181	19.636	30.898	0.502
312.000	233.847	80.006	19.993	104.073	19.541	37.193	0.493
320.000	237.859	80.007	19.994	103.928	19.560	35.912	0.546
328.000	241.819	80.003	19.993	103.861	19.655	29.570	0.526
336.000	245.940	80.003	19.995	103.831	19.762	22.454	0.536
344.000	250.089	80.004	19.994	103.844	19.841	17.186	0.544
352.001	254.192	80.004	19.993	103.841	19.888	14.040	0.474
360.000	258.267	80.004	19.994	103.865	19.918	12.040	0.491
368.000	262.359	80.005	19.994	103.865	19.935	10.886	0.496
376.000	266.444	80.003	19.995	103.863	19.945	10.209	0.507
384.000	270.524	80.003	19.994	103.870	19.950	9.854	0.527
392.000	274.577	80.005	19.992	103.870	19.955	9.530	0.501
400.000	278.592	80.004	19.995	103.871	19.957	9.440	0.541
408.000	282.583	80.003	19.994	103.870	19.954	9.630	0.502
416.000	286.604	80.005	19.993	103.872	19.953	9.705	0.518
424.000	290.650	80.004	19.993	103.886	19.940	10.547	0.536
432.000	294.672	80.003	19.993	103.882	19.943	10.329	0.496
440.000	298.657	80.002	19.995	103.892	19.938	10.701	0.478
448.000	302.660	80.004	19.993	103.886	19.936	10.820	0.536
456.000	306.676	80.005	19.995	103.876	19.932	11.075	0.491
464.000	310.694	80.002	19.993	103.882	19.931	11.188	0.503
472.000	314.783	80.005	19.995	103.891	19.930	11.219	0.521
480.000	318.817	80.004	19.993	103.877	19.928	11.352	0.526
488.000	322.862	80.004	19.995	103.886	19.928	11.352	0.516
496.000	326.903	80.004	19.994	103.882	19.932	11.096	0.503
504.000	330.960	80.004	19.994	103.873	19.934	10.949	0.496
512.000	335.077	80.004	19.992	103.874	19.932	11.080	0.524
520.000	339.191	80.002	19.994	103.874	19.942	10.441	0.513
528.000	343.246	80.004	19.994	103.874	19.938	10.721	0.522
536.000	347.230	80.005	19.994	103.866	19.941	10.494	0.489
544.000	351.303	80.005	19.994	103.867	19.947	10.107	0.497
552.000	355.410	80.005	19.993	103.866	19.948	10.019	0.491
560.000	359.464	80.006	19.994	103.865	19.943	10.355	0.510
568.000	363.503	80.003	19.994	103.867	19.947	10.091	0.506
576.000	367.541	80.004	19.994	103.871	19.946	10.124	0.483
584.000	371.606	80.003	19.993	103.871	19.950	9.857	0.516
592.000	375.712	80.004	19.992	103.869	19.954	9.610	0.514
600.000	379.765	80.004	19.993	103.863	19.957	9.432	0.500
608.000	383.820	80.003	19.993	103.851	19.963	9.045	0.523
616.000	387.795	80.006	19.994	103.853	19.970	8.548	0.486
624.000	391.886	80.004	19.994	103.856	19.974	8.249	0.519
632.000	395.977	80.006	19.993	103.830	19.982	7.765	0.509
640.000	399.990	80.006	19.994	103.838	19.991	7.149	0.492
648.000	404.017	80.003	19.995	103.829	19.992	7.080	0.507
656.000	408.103	80.004	19.993	103.831	20.001	6.467	0.511
664.000	412.088	80.005	19.994	103.825	20.011	5.775	0.498
672.000	416.111	80.004	19.994	103.823	20.015	5.516	0.471
680.000	420.245	80.002	19.993	103.812	20.020	5.214	0.521
688.000	424.329	80.005	19.994	103.813	20.028	4.685	0.524
696.000	428.388	80.005	19.994	103.799	20.031	4.469	0.512
704.000	432.439	80.003	19.994	103.808	20.036	4.153	0.487
712.000	436.583	80.005	19.993	103.812	20.041	3.789	0.508
720.000	440.670	80.005	19.993	103.797	20.044	3.624	0.506
728.000	444.772	80.004	19.993	103.788	20.049	3.238	0.551
736.000	448.808	80.003	19.995	103.790	20.054	2.933	0.514
744.000	452.877	80.004	19.996	103.789	20.060	2.556	0.522
752.000	456.918	80.004	19.994	103.791	20.058	2.667	0.497
760.000	460.993	80.003	19.994	103.796	20.060	2.519	0.481
768.000	465.049	80.003	19.993	103.792	20.065	2.191	0.509
776.000	469.156	80.002	19.993	103.789	20.072	1.723	0.524
784.000	473.235	80.004	19.993	103.790	20.070	1.836	0.517
792.000	477.366	80.005	19.994	103.785	20.078	1.363	0.487
800.000	481.475	80.005	19.995	103.778	20.081	1.156	0.532
808.000	485.563	80.002	19.994	103.775	20.082	1.059	0.536
816.000	489.644	80.005	19.996	103.782	20.084	0.928	0.516
824.000	493.746	80.002	19.993	103.773	20.086	0.820	0.528
832.000	497.891	80.003	19.995	103.783	20.088	0.678	0.529
840.000	501.992	80.002	19.993	103.791	20.091	0.494	0.537
848.000	506.071	80.005	19.993	103.785	20.091	0.468	0.531
856.000	510.156	80.004	19.994	103.785	20.095	0.208	0.469
864.000	514.277	80.005	19.993	103.769	20.099	-0.097	0.539
872.000	518.485	80.006	19.994	103.768	20.095	0.171	0.545
880.000	522.561	80.006	19.992	103.760	20.096	0.148	0.510
888.000	526.673	80.003	19.995	103.769	20.097	0.058	0.516
896.000	530.839	80.002	19.993	103.770	20.097	0.031	0.520
904.000	534.961	80.004	19.994	103.755	20.101	-0.195	0.551
912.000	539.073	80.003	19.994	103.764	20.107	-0.614	0.501
920.000	543.209	80.002	19.996	103.766	20.104	-0.408	0.503
928.000	547.311	80.005	19.994	103.751	20.104	-0.419	0.496
936.000	551.404	80.006	19.994	103.759	20.106	-0.534	0.492
944.000	555.521	80.005	19.993	103.752	20.110	-0.804	0.515
952.000	559.570	80.006	19.993	103.764	20.111	-0.866	0.507
960.000	563.647	80.005	19.994	103.759	20.108	-0.698	0.516
968.000	567.693	80.002	19.994	103.777	20.109	-0.742	0.482
976.000	571.751	80.004	19.995	103.764	20.111	-0.864	0.490
984.000	575.863	80.004	19.993	103.771	20.109	-0.734	0.493
992.000	579.915	80.003	19.993	103.750	20.105	-0.474	0.501
1000.000	584.021	80.003	19.995	103.754	20.110	-0.805	0.495
1008.000	588.071	80.006	19.995	103.747	20.109	-0.727	0.506
1016.000	592.152	80.003	19.993	103.756	20.106	-0.549	0.514
1024.000	596.212	80.004	19.995	103.761	20.112	-0.915	0.481
1032.000	600.300	80.006	19.993	103.763	20.111	-0.867	0.524
1040.000	604.360	80.006	19.994	103.768	20.110	-0.822	0.505
1048.000	608.486	80.004	19.993	103.749	20.108	-0.669	0.491
1056.000	612.611	80.005	19.994	103.762	20.116	-1.216	0.509
1064.000	616.727	80.003	19.994	103.750	20.114	-1.061	0.553
1072.000	620.819	80.002	19.993	103.751	20.116	-1.179	0.503
1080.000	624.877	80.003	19.994	103.775	20.116	-1.228	0.502
1088.000	629.001	80.004	19.995	103.761	20.116	-1.188	0.532
1096.000	633.061	80.005	19.996	103.760	20.120	-1.502	0.516
1104.000	637.225	80.005	19.994	103.762	20.118	-1.314	0.533
1112.000	641.299	80.007	19.993	103.763	20.119	-1.425	0.490
1120.000	645.398	80.005	19.993	103.761	20.116	-1.190	0.527
1128.000	649.450	80.003	19.995	103.750	20.117	-1.265	0.496
1136.000	653.546	80.002	19.995	103.750	20.118	-1.365	0.498
1144.000	657.564	80.004	19.993	103.763	20.118	-1.332	0.470
1152.000	661.602	80.003	19.994	103.758	20.123	-1.660	0.481
1160.000	665.660	80.003	19.993	103.758	20.121	-1.518	0.491
1168.000	669.736	80.004	19.994	103.758	20.120	-1.502	0.512
1176.000	673.720	80.003	19.995	103.757	20.121	-1.555	0.487
1184.000	677.789	80.004	19.995	103.750	20.119	-1.432	0.502
1192.000	681.759	80.008	19.994	103.752	20.121	-1.542	0.508
1200.000	685.715	80.004	19.992	103.766	20.121	-1.522	0.501
1208.000	689.643	80.004	19.995	103.756	20.122	-1.617	0.460
1216.000	693.663	80.004	19.992	103.757	20.124	-1.711	0.500
1224.000	697.710	80.005	19.995	103.756	20.120	-1.483	0.522
1232.000	701.730	80.004	19.993	103.751	20.120	-1.491	0.518
1240.001	705.767	80.005	19.994	103.750	20.123	-1.658	0.484
1248.000	709.838	80.005	19.994	103.741	20.121	-1.553	0.485
1256.000	713.992	80.003	19.992	103.744	20.126	-1.877	0.666
1264.000	717.846	80.004	19.993	103.748	20.122	-1.600	0.530
1272.000	721.818	80.005	19.994	103.747	20.123	-1.653	0.498
1280.001	725.843	80.003	19.994	103.734	20.123	-1.669	0.523
1288.001	729.802	80.005	19.993	103.729	20.122	-1.614	0.484
1296.000	733.747	80.005	19.995	103.741	20.121	-1.551	0.486
1304.000	737.742	80.005	19.995	103.747	20.122	-1.585	0.488
1312.001	741.799	80.005	19.993	103.733	20.123	-1.642	0.523
1314.500	743.092	80.006	19.994	103.727	20.121	-1.565	0.523