Folder: fsri_materials_database/01_Data/Black_PMMA/STA/N2/10K_min

Note: 01_Data/README.md
# Materials and Products Database
## 01_Data

Raw data generated from each apparatus are included here in plain-text format. The data is organized first by material, next by the short name of test apparatus used, and where applicable additional filtering by test settings.

### material.json

Each material directory contains a json file of the same name as the material. This file links the data stored in the repository as well as data and graphs produced by the accompanying scripts (__02_Scripts__) to the respective landing page for the material on the front-end website.

File: Black_PMMA_STA_N2_10KData_220211_R2.csv
##Temp./Â°C,Time/min,Mass(subtr.2)/%,DSC(subtr.2)/(mW/mg),Sensit./(uV/mW)
49.805,10.01,99.33844,0.0008915217,1.0751
51.905,11.11612,99.29828,0.08498262,1.07401
54.005,11.46676,99.30261,0.13373,1.07291
56.105,11.75252,99.31165,0.16217,1.07182
58.205,12.01302,99.3492,0.18297,1.07073
60.305,12.25833,99.2674,0.19925,1.06964
62.405,12.4955,99.257,0.20876,1.06854
64.505,12.72899,99.27075,0.21669,1.06745
66.605,12.959,99.23872,0.22095,1.06636
68.705,13.1862,99.28765,0.22874,1.06528
70.805,13.41075,99.28113,0.23422,1.06419
72.905,13.63385,99.27234,0.24118,1.0631
75.005,13.85501,99.24021,0.24388,1.06201
77.105,14.07501,99.2072,0.24848,1.06093
79.205,14.29221,99.1987,0.25381,1.05984
81.305,14.5093,99.1918,0.25674,1.05876
83.405,14.72466,99.19843,0.25486,1.05767
85.505,14.9382,99.2008,0.25178,1.05659
87.605,15.15042,99.20076,0.25251,1.05551
89.705,15.36147,99.20075,0.25211,1.05443
91.805,15.5723,99.2011,0.25417,1.05335
93.905,15.78173,99.19905,0.25533,1.05226
96.005,15.9899,99.15955,0.25712,1.05119
98.105,16.2005,99.1676,0.26114,1.05011
100.205,16.40759,99.14316,0.2642,1.04903
102.305,16.61501,99.13439,0.26656,1.04795
104.405,16.82199,99.13467,0.27098,1.04687
106.505,17.0285,99.13557,0.27451,1.0458
108.605,17.23445,99.1215,0.28063,1.04472
110.705,17.4403,99.1346,0.28339,1.04365
112.805,17.64667,99.13444,0.28781,1.04257
114.905,17.852,99.11455,0.29476,1.0415
117.005,18.05728,99.10151,0.29936,1.04043
119.105,18.26292,99.09116,0.31043,1.03935
121.205,18.4677,99.06863,0.31997,1.03828
123.305,18.67223,99.0663,0.32962,1.03721
125.405,18.87663,99.06859,0.33689,1.03614
127.505,19.0811,99.0373,0.34505,1.03507
129.605,19.28576,99.01055,0.35053,1.034
131.705,19.48935,99.03543,0.3554,1.03293
133.805,19.69291,99.045,0.35823,1.03186
135.905,19.89656,98.99494,0.35944,1.0308
138.005,20.09881,98.96935,0.36245,1.02973
140.105,20.3022,98.91959,0.36386,1.02866
142.205,20.5048,98.9196,0.36751,1.0276
144.305,20.70682,98.9196,0.36833,1.02653
146.405,20.90929,98.89505,0.37144,1.02547
148.505,21.11113,98.87839,0.3757,1.0244
150.605,21.31277,98.84533,0.37847,1.02334
152.705,21.5152,98.8116,0.38161,1.02227
154.805,21.71728,98.78719,0.38336,1.02121
156.905,21.9197,98.7546,0.38763,1.02015
159.005,22.12184,98.72112,0.39116,1.01909
161.105,22.32392,98.68819,0.39553,1.01802
163.205,22.5259,98.67993,0.4042,1.01696
165.305,22.72769,98.61752,0.41199,1.0159
167.405,22.92955,98.5155,0.42149,1.01484
169.505,23.13131,98.51335,0.42971,1.01378
171.605,23.33268,98.4153,0.43838,1.01272
173.705,23.53438,98.34883,0.44493,1.01166
175.805,23.7361,98.28296,0.45096,1.0106
177.905,23.93771,98.18468,0.45897,1.00954
180.005,24.13907,98.08476,0.46698,1.00848
182.105,24.34047,97.98544,0.46892,1.00742
184.205,24.54186,97.8534,0.47281,1.00636
186.305,24.7427,97.76738,0.47469,1.00531
188.405,24.94444,97.61888,0.47139,1.00425
190.505,25.14611,97.4846,0.46912,1.00319
192.605,25.34795,97.3664,0.45914,1.00213
194.705,25.5492,97.21797,0.45833,1.00107
196.805,25.75049,97.13364,0.45637,1.00001
198.905,25.9522,97.03498,0.4535,0.99896
201.005,26.15316,96.9026,0.4503,0.9979
203.105,26.3541,96.8194,0.45359,0.99684
205.205,26.5554,96.7243,0.45801,0.99578
207.305,26.7558,96.63754,0.45957,0.99472
209.405,26.9573,96.47318,0.46502,0.99367
211.505,27.15812,96.40194,0.46539,0.99261
213.605,27.3591,96.31533,0.46198,0.99155
215.705,27.5596,96.2658,0.45735,0.99049
217.805,27.7601,96.19974,0.44944,0.98943
219.905,27.96068,96.1336,0.44146,0.98837
222.005,28.16137,96.0674,0.43432,0.98732
224.105,28.3617,96.0009,0.42966,0.98626
226.205,28.5616,96.00101,0.42836,0.9852
228.305,28.76267,95.96688,0.42275,0.98414
230.405,28.9629,95.96809,0.42365,0.98308
232.505,29.16341,95.93517,0.42542,0.98202
234.605,29.36375,95.9103,0.42478,0.98096
236.705,29.5646,95.94312,0.42202,0.9799
238.805,29.76575,95.87714,0.4245,0.97883
240.905,29.96625,95.843,0.42708,0.97777
243.005,30.16767,95.79449,0.42905,0.97671
245.105,30.3689,95.77784,0.42998,0.97565
247.205,30.56973,95.77789,0.4359,0.97458
249.305,30.7706,95.744,0.43817,0.97352
251.405,30.9713,95.71181,0.4429,0.97246
253.505,31.17225,95.6447,0.44356,0.97139
255.605,31.37272,95.64569,0.45883,0.97032
257.705,31.573,95.61247,0.46768,0.96926
259.805,31.7733,95.5794,0.47295,0.96819
261.905,31.97311,95.5368,0.48186,0.96712
264.005,32.1738,95.4802,0.48367,0.96606
266.105,32.37421,95.41407,0.49082,0.96499
268.205,32.57465,95.31491,0.49777,0.96392
270.305,32.77532,95.28421,0.50191,0.96285
272.405,32.97607,95.2076,0.50645,0.96177
274.505,33.17671,95.08201,0.51333,0.9607
276.605,33.3784,94.9625,0.52009,0.95963
278.705,33.58031,94.84074,0.52894,0.95855
280.805,33.78175,94.73318,0.53428,0.95748
282.905,33.98353,94.5694,0.54412,0.9564
285.005,34.1854,94.46607,0.55391,0.95532
287.105,34.38698,94.2963,0.5647,0.95425
289.205,34.58878,94.0853,0.57437,0.95317
291.305,34.78982,93.9093,0.58369,0.95209
293.405,34.99065,93.67698,0.5917,0.951
295.505,35.19274,93.44896,0.59613,0.94992
297.605,35.3936,93.28007,0.60533,0.94884
299.705,35.5957,93.05428,0.6099,0.94775
301.805,35.79742,92.80122,0.61365,0.94666
303.905,35.9993,92.4892,0.61537,0.94558
306.005,36.2004,92.24167,0.60892,0.94449
308.105,36.4015,91.93225,0.61254,0.9434
310.205,36.60327,91.64795,0.63342,0.9423
312.305,36.805,91.33243,0.65665,0.94121
314.405,37.0085,90.9898,0.69158,0.94012
316.505,37.21165,90.50968,0.72617,0.93902
318.605,37.41362,90.04398,0.76448,0.93792
320.705,37.61651,89.55891,0.80928,0.93682
322.805,37.81977,88.97928,0.85768,0.93572
324.905,38.0229,88.2838,0.91754,0.93462
327.005,38.22632,87.5385,0.98515,0.93352
329.105,38.42965,86.69803,1.06131,0.93241
331.205,38.6328,85.71124,1.14568,0.9313
333.305,38.83632,84.56355,1.24201,0.93019
335.405,39.03983,83.25616,1.34932,0.92908
337.505,39.24315,81.78489,1.4694,0.92797
339.605,39.44628,80.1935,1.59485,0.92685
341.705,39.65234,78.34022,1.73352,0.92574
343.805,39.85733,76.3,1.8807,0.92462
345.905,40.062,73.9943,2.02868,0.9235
348.005,40.26797,71.44085,2.1829,0.92238
350.105,40.47306,68.69159,2.33203,0.92125
352.205,40.6785,65.72117,2.4757,0.92013
354.305,40.88371,62.5335,2.60415,0.919
356.405,41.0895,59.15846,2.71857,0.91787
358.505,41.29445,55.59316,2.80763,0.91674
360.605,41.5,51.93391,2.86994,0.9156
362.705,41.70473,48.11775,2.88503,0.91447
364.805,41.90918,44.35597,2.86387,0.91333
366.905,42.11311,40.54442,2.85157,0.91219
369.005,42.3175,36.75734,2.78789,0.91104
371.105,42.52153,33.03933,2.76004,0.9099
373.205,42.72473,29.43814,2.66261,0.90875
375.305,42.92781,25.94414,2.52495,0.9076
377.405,43.1309,22.6693,2.3643,0.90645
379.505,43.3335,19.55804,2.19385,0.90529
381.605,43.5355,16.7132,2.00956,0.90413
383.705,43.73786,14.10109,1.82229,0.90298
385.805,43.94027,11.69164,1.64035,0.90181
387.905,44.1425,9.55977,1.45021,0.90065
390.005,44.3446,7.66807,1.26214,0.89948
392.105,44.54708,6.04791,1.09373,0.89831
394.205,44.74913,4.61622,0.94296,0.89714
396.305,44.95146,3.40592,0.80154,0.89596
398.405,45.15527,2.31195,0.67378,0.89479
400.505,45.3586,1.38634,0.56196,0.89361
402.605,45.56227,0.70069,0.46156,0.89242
404.705,45.76611,0.09954517,0.37694,0.89124
406.805,45.97006,-0.34629,0.30345,0.89005
408.905,46.17442,-0.78764,0.24479,0.88886
411.005,46.37883,-1.04756,0.19665,0.88767
413.105,46.58338,-1.29981,0.15631,0.88647
415.205,46.7881,-1.59303,0.12485,0.88527
417.305,46.9932,-1.73589,0.09905397,0.88407
419.405,47.1987,-1.85914,0.08229581,0.88286
421.505,47.40381,-1.93455,0.07336817,0.88165
423.605,47.60924,-2.03592,0.07486908,0.88044
425.705,47.81474,-2.12784,0.07710123,0.87923
427.805,48.02041,-2.13473,0.06943974,0.87801
429.905,48.22615,-2.22597,0.06365835,0.87679
432.005,48.43192,-2.26708,0.05212458,0.87557
434.105,48.63759,-2.29908,0.03823083,0.87434
436.205,48.84359,-2.30026,0.01131504,0.87311
438.305,49.0495,-2.29196,-0.02975848,0.87188
440.405,49.2562,-2.28123,-0.0333041,0.87064
442.505,49.46278,-2.31683,-0.0179312,0.8694
444.605,49.66981,-2.34975,-0.0059746,0.86816
446.705,49.8763,-2.33281,-0.00407888,0.86691
448.805,50.08274,-2.36768,0.0003586928,0.86567
450.905,50.29005,-2.30025,0.002001809,0.86441
453.005,50.49718,-2.33316,0.00542727,0.86316
455.105,50.7038,-2.26804,0.00777509,0.8619
457.205,50.9109,-2.28397,0.008118439,0.86064
459.305,51.11781,-2.28367,0.01059678,0.85937
461.405,51.3257,-2.34147,0.01160069,0.8581
463.505,51.53277,-2.33316,0.01273123,0.85683
465.605,51.73859,-2.33301,0.01518206,0.85556
467.705,51.94596,-2.34914,0.01441548,0.85428
469.805,52.15494,-2.33342,0.01431114,0.85299
471.905,52.36248,-2.34172,0.01770713,0.85171
474.005,52.56954,-2.34171,0.01937722,0.85042
476.105,52.7769,-2.32478,0.0217579,0.84913
478.205,52.98405,-2.29194,0.02035604,0.84783
480.305,53.1912,-2.32487,0.02185637,0.84653
482.405,53.399,-2.32489,0.01936655,0.84523
484.505,53.606,-2.34975,0.0253982,0.84392
486.605,53.81364,-2.34976,0.02489609,0.84261
488.705,54.02126,-2.36658,0.02690371,0.84129
490.805,54.2285,-2.36633,0.02988226,0.83997
492.905,54.436,-2.33317,0.03226673,0.83865
495.005,54.64349,-2.29933,0.0354717,0.83733
497.105,54.8512,-2.30025,0.03414355,0.836
499.205,55.05828,-2.31683,0.03760632,0.83466
501.305,55.26566,-2.31684,0.03764737,0.83333
503.405,55.47364,-2.31247,0.03779994,0.83199
505.505,55.68189,-2.32965,0.03824177,0.83064
507.605,55.8895,-2.31683,0.04140837,0.82929
509.705,56.09779,-2.31683,0.04195155,0.82794
511.805,56.3065,-2.31695,0.04345318,0.82659
513.905,56.5153,-2.33605,0.0414115,0.82523
516.005,56.7238,-2.31681,0.04497162,0.82386
518.105,56.93252,-2.34975,0.04506455,0.8225
520.205,57.1411,-2.35001,0.04866644,0.82112
522.305,57.34959,-2.31658,0.04980475,0.81975
524.405,57.55835,-2.28367,0.04943843,0.81837
526.505,57.76713,-2.33515,0.05231685,0.81699
528.605,57.9761,-2.34146,0.05420684,0.8156
530.705,58.1848,-2.32487,0.05207195,0.81421
532.805,58.39399,-2.35804,0.05394278,0.81282
534.905,58.60264,-2.3254,0.05649204,0.81142
537.005,58.81241,-2.35337,0.05747201,0.81001
539.105,59.02135,-2.33317,0.05849733,0.80861
541.205,59.23076,-2.33342,0.05931131,0.8072
543.305,59.4404,-2.30025,0.05850118,0.80578
545.405,59.64983,-2.30889,0.06123263,0.80436
547.505,59.8589,-2.33316,0.06118066,0.80294
548.905,59.9992,-2.33316,0.05947095,0.80199