Folder: fsri_materials_database/01_Data/Black_PMMA/STA/N2/3K_min

Note: 01_Data/README.md
# Materials and Products Database
## 01_Data

Raw data generated from each apparatus are included here in plain-text format. The data is organized first by material, next by the short name of test apparatus used, and where applicable additional filtering by test settings.

### material.json

Each material directory contains a json file of the same name as the material. This file links the data stored in the repository as well as data and graphs produced by the accompanying scripts (__02_Scripts__) to the respective landing page for the material on the front-end website.

File: Black_PMMA_STA_N2_3KData_220214_R1.csv
##Temp./Â°C,Time/min,DSC(subtr.2)/(mW/mg),Mass(subtr.2)/%,Sensit./(uV/mW)
50.232,10.0158,0.00567056,100.0495,1.04796
52.332,11.85193,0.06489885,100.046,1.04703
54.432,12.6928,0.07566505,100.079,1.04611
56.532,13.4789,0.0780141,100.0633,1.04518
58.632,14.23595,0.08374629,100.058,1.04426
60.732,14.9749,0.08513021,100.046,1.04334
62.832,15.6994,0.08679451,100.0304,1.04242
64.932,16.41999,0.08944729,100.072,1.04151
67.032,17.1375,0.08922698,100.055,1.0406
69.132,17.85116,0.08968251,100.014,1.03969
71.232,18.55661,0.09482021,100.039,1.03878
73.332,19.26034,0.09340265,99.99715,1.03787
75.432,19.96698,0.09568195,99.9962,1.03697
77.532,20.67204,0.09387032,99.99985,1.03606
79.632,21.37535,0.09286102,100.005,1.03516
81.732,22.0805,0.09228565,99.9727,1.03427
83.832,22.79176,0.09264005,99.93949,1.03337
85.932,23.49569,0.09476057,99.94753,1.03248
88.032,24.19075,0.09716024,99.9631,1.03159
90.132,24.89648,0.09475092,99.88995,1.03069
92.232,25.59674,0.0941861,99.90655,1.02981
94.332,26.29777,0.09597579,99.91427,1.02892
96.432,26.9931,0.09500327,99.88995,1.02804
98.532,27.6909,0.09710976,99.86376,1.02715
100.632,28.3819,0.10198,99.89819,1.02627
102.732,29.0762,0.09778285,99.8819,1.02539
104.832,29.77239,0.0982253,99.88995,1.02451
106.932,30.47083,0.10365,99.8817,1.02364
109.032,31.1603,0.10564,99.8158,1.02276
111.132,31.8501,0.10581,99.86508,1.02189
113.232,32.54312,0.10823,99.83924,1.02102
115.332,33.23806,0.11052,99.82404,1.02015
117.432,33.93168,0.11022,99.79775,1.01928
119.532,34.62551,0.11558,99.8253,1.01841
121.632,35.32512,0.11852,99.79071,1.01755
123.732,36.02493,0.11809,99.71497,1.01668
125.832,36.7192,0.1249,99.73266,1.01582
127.932,37.40609,0.12937,99.69885,1.01495
130.032,38.0923,0.12671,99.7142,1.01409
132.132,38.7818,0.12911,99.65005,1.01323
134.232,39.47285,0.13082,99.65025,1.01237
136.332,40.1631,0.13174,99.60001,1.01152
138.432,40.8549,0.12923,99.5929,1.01066
140.532,41.54412,0.1326,99.5754,1.0098
142.632,42.23345,0.12849,99.51784,1.00895
144.732,42.92284,0.13323,99.43474,1.00809
146.832,43.60946,0.13425,99.40202,1.00724
148.932,44.29514,0.13556,99.353,1.00639
151.032,44.98008,0.1365,99.327,1.00553
153.132,45.6654,0.14228,99.3116,1.00468
155.232,46.35005,0.14129,99.2604,1.00383
157.332,47.03862,0.14294,99.16507,1.00298
159.432,47.72537,0.14537,99.09045,1.00213
161.532,48.41125,0.1501,99.03242,1.00128
163.632,49.09795,0.14977,98.98974,1.00044
165.732,49.78539,0.15228,98.87217,0.99959
167.832,50.4722,0.15664,98.8252,0.99874
169.932,51.15688,0.16076,98.69035,0.99789
172.032,51.83916,0.15923,98.5937,0.99704
174.132,52.5235,0.16057,98.46307,0.9962
176.232,53.2046,0.15903,98.36241,0.99535
178.332,53.89037,0.15969,98.21428,0.9945
180.432,54.57545,0.15768,98.0972,0.99366
182.532,55.26514,0.15432,97.96587,0.99281
184.632,55.9566,0.14959,97.86709,0.99196
186.732,56.64141,0.15517,97.7325,0.99112
188.832,57.3229,0.15517,97.66835,0.99027
190.932,58.0069,0.15485,97.5693,0.98942
193.032,58.69036,0.1546,97.4701,0.98858
195.132,59.37894,0.15073,97.3875,0.98773
197.232,60.07111,0.14842,97.31306,0.98688
199.332,60.75962,0.14997,97.25483,0.98603
201.432,61.4366,0.15252,97.23869,0.98519
203.532,62.111,0.14944,97.20144,0.98434
205.632,62.78488,0.14773,97.1637,0.98349
207.732,63.45573,0.14702,97.1105,0.98264
209.832,64.13117,0.14337,97.0651,0.98179
211.932,64.81563,0.13989,97.04849,0.98094
214.032,65.5021,0.13892,97.03191,0.98009
216.132,66.18907,0.14212,96.98241,0.97923
218.232,66.87151,0.14188,96.96766,0.97838
220.332,67.55396,0.14071,96.94925,0.97753
222.432,68.23654,0.14455,96.91591,0.97667
224.532,68.9212,0.1442,96.94095,0.97582
226.632,69.6049,0.14468,96.908,0.97496
228.732,70.28693,0.14731,96.87487,0.9741
230.832,70.9678,0.14577,96.89232,0.97324
232.932,71.64747,0.15196,96.8168,0.97238
235.032,72.32508,0.15203,96.82525,0.97152
237.132,73.01016,0.14899,96.76734,0.97066
239.232,73.69877,0.15323,96.75905,0.96979
241.332,74.384,0.15311,96.64979,0.96893
243.432,75.06519,0.15755,96.60203,0.96806
245.532,75.74672,0.15989,96.55251,0.96719
247.632,76.42515,0.1618,96.48639,0.96633
249.732,77.10766,0.16156,96.38694,0.96545
251.832,77.79021,0.16635,96.33744,0.96458
253.932,78.47317,0.17331,96.21446,0.96371
256.032,79.15224,0.17967,96.15599,0.96283
258.132,79.83229,0.18527,96.0232,0.96195
260.232,80.51682,0.18331,95.91579,0.96108
262.332,81.1994,0.18965,95.78347,0.96019
264.432,81.8781,0.19459,95.63468,0.95931
266.532,82.55754,0.19537,95.4847,0.95843
268.632,83.2414,0.1966,95.33718,0.95754
270.732,83.92241,0.20108,95.13851,0.95665
272.832,84.60895,0.2047,94.97231,0.95576
274.932,85.291,0.20966,94.77255,0.95487
277.032,85.9743,0.20893,94.5399,0.95397
279.132,86.65516,0.21401,94.3266,0.95307
281.232,87.33458,0.21708,94.06945,0.95218
283.332,88.0168,0.21653,93.83234,0.95127
285.432,88.70326,0.21619,93.58498,0.95037
287.532,89.38805,0.22131,93.31582,0.94946
289.632,90.07254,0.22231,93.0526,0.94855
291.732,90.75636,0.22427,92.7855,0.94764
293.832,91.43982,0.22398,92.4023,0.94673
295.932,92.1236,0.23007,92.0502,0.94581
298.032,92.8047,0.24045,91.69298,0.94489
300.132,93.48863,0.24947,91.29428,0.94397
302.232,94.17648,0.26061,90.80192,0.94304
304.332,94.85821,0.27127,90.28741,0.94212
306.432,95.53997,0.28827,89.71757,0.94119
308.532,96.22699,0.30197,89.13758,0.94025
310.632,96.91844,0.32243,88.37101,0.93932
312.732,97.6001,0.3422,87.60738,0.93838
314.832,98.28148,0.366,86.71366,0.93743
316.932,98.96693,0.39505,85.68091,0.93649
319.032,99.65942,0.42316,84.51386,0.93554
321.132,100.349,0.46047,83.20567,0.93459
323.232,101.034,0.49877,81.67503,0.93363
325.332,101.717,0.54416,80.0232,0.93268
327.432,102.402,0.59245,78.102,0.93171
329.532,103.087,0.63931,75.9431,0.93075
331.632,103.779,0.6886,73.56622,0.92978
333.732,104.47,0.74158,70.9015,0.92881
335.832,105.159,0.79053,68.00848,0.92784
337.932,105.85,0.83346,64.83825,0.92686
340.032,106.539,0.8688,61.4386,0.92588
342.132,107.2307,0.90156,57.90981,0.92489
344.232,107.92,0.9217,54.22035,0.9239
346.332,108.611,0.92605,50.41648,0.92291
348.432,109.3,0.91663,46.59064,0.92191
350.532,109.986,0.90928,42.7936,0.92091
352.632,110.675,0.87713,38.96054,0.91991
354.732,111.3631,0.84401,35.32414,0.9189
356.832,112.045,0.81853,31.76,0.91789
358.932,112.728,0.77793,28.25495,0.91687
361.032,113.413,0.73545,24.95319,0.91585
363.132,114.102,0.68075,21.8666,0.91483
365.232,114.789,0.62687,18.97615,0.9138
367.332,115.479,0.56406,16.34388,0.91277
369.432,116.1712,0.50712,13.97916,0.91173
371.532,116.856,0.44746,11.92176,0.91069
373.632,117.54,0.39988,10.0804,0.90965
375.732,118.226,0.34872,8.44986,0.9086
377.832,118.913,0.30119,7.07489,0.90754
379.932,119.605,0.26053,5.84919,0.90649
382.032,120.298,0.22262,4.82973,0.90542
384.132,120.9867,0.19101,3.9553,0.90436
386.232,121.6704,0.16301,3.2306,0.90329
388.332,122.357,0.1358,2.6455,0.90221
390.432,123.052,0.11532,2.11425,0.90113
392.532,123.742,0.09967144,1.76676,0.90005
394.632,124.433,0.08499191,1.43394,0.89896
396.732,125.123,0.08108432,1.20258,0.89787
398.832,125.814,0.07808593,0.9548,0.89677
400.932,126.506,0.07636169,0.79505,0.89567
403.032,127.197,0.07468213,0.64022,0.89456
405.132,127.885,0.07087686,0.50873,0.89345
407.232,128.573,0.06243469,0.45607,0.89233
409.332,129.265,0.05038494,0.39222,0.89121
411.432,129.959,0.02980916,0.31764,0.89008
413.532,130.6518,0.01593915,0.33515,0.88895
415.632,131.351,-0.0114239,0.28481,0.88781
417.732,132.047,-0.02331296,0.28492,0.88667
419.832,132.74,-0.00832294,0.27844,0.88553
421.932,133.4355,0.00327537,0.27724,0.88437
424.032,134.134,0.007028094,0.31779,0.88322
426.132,134.827,0.008478517,0.27666,0.88206
428.232,135.517,0.01269523,0.26793,0.88089
430.332,136.207,0.01178948,0.26787,0.87972
432.432,136.903,0.01048304,0.26025,0.87854
434.532,137.605,0.009475638,0.24245,0.87736
436.632,138.297,0.01130961,0.26903,0.87617
438.732,138.992,0.01392022,0.23543,0.87498
440.832,139.687,0.01490887,0.25185,0.87378
442.932,140.382,0.01362322,0.24372,0.87258
445.032,141.076,0.01158189,0.24391,0.87137
447.132,141.774,0.01035955,0.26853,0.87016
449.232,142.467,0.01488981,0.25201,0.86894
451.332,143.163,0.01364798,0.24373,0.86772
453.432,143.867,0.0113741,0.26004,0.86649
455.532,144.562,0.01454152,0.20987,0.86525
457.632,145.253,0.01640247,0.23536,0.86401
459.732,145.9438,0.01571242,0.21054,0.86277
461.832,146.643,0.01689525,0.21858,0.86151
463.932,147.346,0.01442954,0.21882,0.86026
466.032,148.0452,0.01717297,0.23262,0.85899
468.132,148.7467,0.01757515,0.22763,0.85773
470.232,149.447,0.01972286,0.22729,0.85645
472.332,150.14,0.01945127,0.21437,0.85517
474.432,150.832,0.02086282,0.22714,0.85389
476.532,151.53,0.02196281,0.21055,0.8526
478.632,152.228,0.02255328,0.22055,0.8513
480.732,152.927,0.02485203,0.17695,0.85
482.832,153.623,0.02235197,0.18227,0.84869
484.932,154.319,0.02415749,0.17739,0.84738
487.032,155.019,0.02527242,0.18568,0.84606
489.132,155.715,0.02571044,0.18568,0.84474
491.232,156.413,0.02409362,0.16935,0.84341
493.332,157.1141,0.0262398,0.18568,0.84207
495.432,157.817,0.02511714,0.14422,0.84073
497.532,158.512,0.02723123,0.15252,0.83938
499.632,159.2111,0.02357263,0.17694,0.83803
501.732,159.917,0.02345985,0.15252,0.83667
503.832,160.617,0.02231262,0.15241,0.8353
505.932,161.31,0.02432941,0.15276,0.83393
508.032,162.004,0.02612536,0.14447,0.83255
510.132,162.704,0.02831668,0.13662,0.83117
512.232,163.407,0.02758851,0.10338,0.82978
514.332,164.111,0.02799823,0.12789,0.82839
516.432,164.812,0.02691025,0.16006,0.82699
518.532,165.507,0.02821822,0.12785,0.82558
520.632,166.207,0.02920661,0.14422,0.82417
522.732,166.909,0.02752374,0.11113,0.82275
524.832,167.612,0.02955082,0.1196,0.82133
526.932,168.316,0.0301514,0.12789,0.8199
529.032,169.016,0.03164524,0.15282,0.81846
531.132,169.715,0.03466139,0.12789,0.81702
533.232,170.414,0.03412112,0.13121,0.81557
535.332,171.116,0.03575628,0.12789,0.81412
537.432,171.819,0.03546128,0.13621,0.81266
539.532,172.524,0.03658142,0.1729,0.81119
541.632,173.227,0.04028868,0.15253,0.80972
543.732,173.93,0.04454545,0.11214,0.80824
545.832,174.631,0.03884446,0.09472625,0.80676
547.932,175.331,0.04258313,0.06155672,0.80527
550.032,176.027,0.04370642,0.07860137,0.80378
551.932,176.662,0.04327867,0.07813851,0.80242