Folder: fsri_materials_database/02_Data/MDF/Cone (part 2)

File: MDF_Cone_HF50scan_210326_R2.csv
Names,Time,Stack TC,Smoke TC,Exh Press,Smoke Comp,Smoke Meas,CO Meter,CO2 Meter,O2 Meter,Sample Mass,Ext Coeff,Start Test,Flame Verif
Chan Gain,,500,500,1,1,1,1,1,1,1,1,1,1
Offset,,0,0,0.138348,0,0,0,0,0,0,0,0,0
Gain,,1,1,25.011,13.5067,16.616,1,1,1,1.00091,1.04608,1,1
Units,sec,C,C,Pa,%,%,%,%,%,g,/m,,
Baseline,,30.7405,32.6648,159.584,101.226,98.239,-0.001043379,0.0609083,20.9321,-0.402366,0.274901,,
47,11.5,28.1387,30.2946,156.728,101.672,98.3957,-0.000883971,0.0632792,20.9297,616.791,0.300597,0,0
94,23.25,29.3436,31.5557,162.735,101.599,97.1315,-0.001147301,0.0699508,20.9187,616.711,0.412629,0,0
141,35,33.1247,38.9918,147.524,101.478,97.9869,0.000954706,0.234823,20.6355,615.69,0.321253,0,1
188,46.75,47.4965,60.5538,137.03,101.33,95.4262,0.003636939,0.618378,20.2378,613.468,0.55082,0,0
235,58.5,55.4749,71.8146,133.316,101.198,93.4106,0.004800048,0.655599,20.2323,611.066,0.734804,0,0
282,70.25,58.7964,75.9003,143.341,101.241,91.4608,0.005535651,0.618624,20.2867,608.854,0.932209,0,0
329,82,59.5423,75.128,137.291,101.31,90.6485,0.005452241,0.561447,20.3597,606.742,1.02035,0,0
376,93.75,59.5535,73.623,139.432,101.366,93.2513,0.004548018,0.512387,20.4187,604.76,0.765619,0,0
423,105.5,58.7645,72.1807,143.06,101.469,92.4801,0.003717505,0.47795,20.4615,602.919,0.851154,0,0
470,117.25,58.3029,70.256,137.749,101.621,93.8162,0.003918929,0.452143,20.4891,601.127,0.73327,0,0
517,129,57.8262,69.2808,143.073,101.776,93.695,0.003287039,0.430881,20.5134,599.396,0.759152,0,0
564,140.75,57.8111,67.8734,142.758,101.889,95.9089,0.002789445,0.413327,20.5332,597.734,0.554992,0,0
611,152.5,57.2161,67.0295,143.29,101.961,96.5671,0.002671357,0.401286,20.544,596.143,0.498729,0,0
658,164.25,57.4496,66.9246,141.595,102.003,96.3384,0.002652033,0.397538,20.545,594.531,0.524231,0,0
705,176,58.0512,67.1515,147.122,102.041,97.3749,0.002542361,0.3953,20.5455,592.93,0.429485,0,0
752,187.75,57.8277,67.4321,142.283,102.05,97.7425,0.002193988,0.392883,20.5442,591.248,0.395723,0,0
799,199.5,58.1495,67.2404,142.947,102.023,98.2709,0.001850577,0.381308,20.5612,589.577,0.343842,0,0
846,211.25,58.3585,67.0412,145.659,101.936,98.5381,0.001392371,0.370244,20.5738,587.925,0.31106,0,0
893,223,57.8866,66.3344,145.088,101.785,97.5833,0.001495962,0.364428,20.578,586.384,0.3868559,0,0
940,234.75,57.6094,65.9093,139.955,101.608,98.0615,0.001531558,0.360584,20.5833,584.832,0.326009,0,0
987,246.5,57.4291,65.6503,138.826,101.322,96.8759,0.001138261,0.354556,20.5907,583.271,0.41179,0,0
1034,258.25,57.6436,65.1658,145.432,101.024,97.9281,0.001407715,0.348215,20.5967,581.75,0.28556,0,0
1081,270,57.0659,64.4223,148.444,100.812,98.0473,0.001446167,0.347005,20.5981,580.298,0.255174,0,0
1128,281.75,57.2835,64.7049,144.697,100.674,97.8759,0.000728101,0.341573,20.6026,578.837,0.258651,0,0
1175,293.5,56.8505,64.1297,141.906,100.522,98.9626,0.000610488,0.33566,20.61,577.456,0.143498,0,0
1222,305.25,56.8577,63.7873,144.509,100.358,98.5092,0.000600379,0.328248,20.619,576.074,0.170604,0,0
1269,317,56.662,63.0208,144.805,100.251,98.5777,0.00094597,0.321641,20.6239,574.743,0.154425,0,0
1316,328.75,56.2214,62.7077,141.167,100.219,98.4286,0.000779451,0.315742,20.6309,573.432,0.165407,0,0
1363,340.5,55.8745,62.454,141.383,100.229,98.0767,0.000817971,0.311694,20.6386,572.171,0.199217,0,0
1410,352.25,55.9848,62.197,145.697,100.267,98.065,-7.4009E-05,0.304987,20.6442,570.99,0.203741,0,0
1457,364,55.8908,62.2649,145.623,100.348,98.3662,0.000398082,0.298088,20.6536,569.789,0.18299,0,0
1504,375.75,54.9214,61.2317,147.641,100.437,99.2754,0.000165581,0.294066,20.6581,568.608,0.106742,0,0
1551,387.5,54.7244,60.6681,145.947,100.564,98.9945,0.00019647,0.289346,20.6634,567.477,0.144374,0,0
1598,399.25,54.3521,60.2204,146.575,100.715,99.355,9.38329E-05,0.285446,20.6704,566.366,0.124771,0,0
1645,411,54.2415,59.9348,148.105,100.881,99.1314,8.09825E-05,0.2817173,20.6744,565.205,0.160568,0,0
1692,422.75,53.9326,58.925,150.538,100.99,98.8262,0.000138999,0.275884,20.6808,564.164,0.198724,0,0
1739,434.5,53.3036,58.9822,144.606,101.097,99.0746,0.000302658,0.274641,20.6816,563.123,0.185453,0,0
1786,446.25,53.1489,58.4777,152.647,101.207,99.9331,0.000502026,0.272973,20.6827,562.012,0.116268,0,0
1833,458,52.9731,58.529,147.575,101.294,99.1882,-0.000157678,0.275265,20.6823,561.001,0.192768,0,0
1880,469.75,52.706,57.7107,153.93,101.407,99.5594,0.000158941,0.267549,20.6908,559.98,0.168756,0,0
1927,481.5,52.364,57.3531,142.109,101.475,99.8429,8.32045E-05,0.269616,20.6876,558.999,0.148819,0,0
1974,493.25,52.6611,57.635,147.451,101.499,99.3581,-9.24805E-06,0.269216,20.6893,557.988,0.195642,0,0
2021,505,52.3202,57.3511,147.932,101.514,99.6481,0.000105528,0.265756,20.6953,556.977,0.170198,0,0
2068,516.75,51.8613,57.1523,144.659,101.524,99.4397,0.000172075,0.269088,20.6904,555.966,0.190378,0,0
2115,528.5,51.8436,56.7299,148.654,101.538,99.8849,0.000285092,0.272179,20.6893,554.955,0.150578,0,0
2162,540.25,52.5831,57.6781,145.224,101.526,100.841,-0.000118914,0.280363,20.6762,553.944,0.0621054,0,0
2209,552,51.846,57.6705,144.972,101.536,99.7992,8.69178E-05,0.286554,20.6705,552.873,0.158304,0,0
2256,563.75,53.332,58.8605,145.507,101.536,99.3971,0.000140449,0.28813,20.6686,551.882,0.195389,0,0
2303,575.5,52.9464,58.8837,147.3,101.527,99.606,0.000353798,0.296678,20.6583,550.791,0.175304,0,0
2350,587.25,53.3096,58.6792,141.683,101.51,98.7308,0.000405553,0.305467,20.6482,549.67,0.254687,0,0
2397,599,53.7568,59.8815,146.806,101.487,98.9428,0.00036039,0.316155,20.6368,548.549,0.232996,0,0
2444,610.75,54.0742,60.4961,146.529,101.443,98.424,0.000486232,0.327409,20.6236,547.348,0.277206,0,0
2491,622.5,54.5203,61.076,146.39,101.376,97.0108,0.000630586,0.337813,20.6109,546.157,0.403837,0,0
2538,634.25,54.948,61.9776,138.25,101.3125,97.7065,0.001188447,0.347618,20.5985,544.916,0.332555,0,0
2585,646,55.8453,63.019,143.895,101.262,96.5681,0.001529542,0.363124,20.5788,543.585,0.435539,0,0
2632,657.75,56.2389,63.3685,141.056,101.235,95.5961,0.001985916,0.377146,20.559,542.224,0.52591,0,0
2679,669.5,57.1527,64.7044,146.491,101.187,95.3968,0.001861441,0.392575,20.5422,540.812,0.540724,0,0
2726,681.25,57.0037,65.2959,142.677,101.131,95.021,0.001912628,0.399104,20.5351,539.381,0.571815,0,0
2773,693,57.9583,66.459,144.794,101.059,93.2554,0.002584064,0.408128,20.5226,537.92,0.737455,0,0
2820,704.75,58.8462,66.8719,145.797,100.965,93.48,0.002762324,0.415318,20.5115,536.368,0.706765,0,0
2867,716.5,59.59,67.382,142.321,100.91,92.9263,0.002694866,0.415536,20.5116,534.857,0.756337,0,0
2914,728.25,59.8838,68.1519,146.648,100.924,93.0526,0.002503429,0.42356,20.5007,533.295,0.745113,0,0
2961,740,60.4403,68.9389,136.988,101.035,91.8908,0.003213304,0.430819,20.4889,531.714,0.870508,0,0
3008,751.75,61.5065,70.0422,141.451,101.202,92.2874,0.003840131,0.443229,20.4704,530.133,0.84618,0,0
3055,763.5,62.6412,71.4299,137.554,101.319,91.2514,0.004192743,0.455354,20.4545,528.491,0.960302,0,0
3102,775.25,63.1888,72.2099,136.804,101.383,91.0531,0.00520097,0.466699,20.4401,526.74,0.986045,0,0
3149,787,64.3143,73.703,139.199,101.435,90.1363,0.005504285,0.484708,20.4115,525.048,1.08364,0,0
3196,798.75,64.8535,74.6989,138.497,101.521,91.0734,0.006742097,0.498013,20.3949,523.256,0.996529,0,0
3243,810.5,66.7291,76.3598,137.267,101.622,89.8696,0.006775273,0.51176,20.3789,521.455,1.12771,0,0
3290,822.25,67.7546,77.122,139.932,101.706,89.4244,0.006458875,0.514192,20.3731,519.623,1.18087,0,0
3337,834,67.811,78.3735,142.582,101.78,90.6591,0.007150212,0.506628,20.384,517.891,1.0617,0,0
3384,845.75,67.5022,76.7084,140.145,101.801,90.5592,0.005837934,0.476622,20.4212,516.21,1.07378,0,0
3431,857.5,65.7639,74.5084,143.585,101.802,91.9806,0.004242864,0.430899,20.4803,514.769,0.930954,0,0
3478,869.25,63.3575,69.615,148.333,101.774,96.1488,0.00154718,0.336423,20.5947,513.768,0.521749,0,0
3525,881,58.9232,63.6571,146.924,101.688,97.2456,0.00103141,0.243229,20.6967,513.187,0.409894,0,0
3572,892.75,55.9267,58.8805,149.885,101.534,98.6806,0.001458637,0.198443,20.7482,512.787,0.261589,0,0
3619,904.5,53.1773,55.0669,153.752,101.365,99.0072,0.001822439,0.173192,20.7811,512.587,0.21595,0,0
3666,916.25,51.4566,53.0751,148.22,101.29,99.2344,0.00165008,0.160556,20.7956,512.246,0.188163,0,0
3713,928,49.911,50.6636,150.231,101.372,99.1132,0.002050223,0.15175,20.8074,512.076,0.206767,0,0
3760,939.75,48.417,48.8818,150.898,101.435,99.1958,0.002206417,0.145638,20.8145,511.816,0.204788,0,0
3807,951.5,47.2275,48.0333,153.411,101.51,99.1857,0.003190172,0.152135,20.8059,511.666,0.212547,0,0
3854,963.25,45.899,47.128,153.69,101.617,99.3195,0.003191622,0.148927,20.8133,511.446,0.209815,0,0
3901,975,44.7938,46.049,155.202,101.736,99.208,0.003890312,0.140291,20.8245,511.255,0.230879,0,0
3948,986.75,44.4332,45.2778,152.626,101.826,99.6669,0.003762789,0.135853,20.8293,511.115,0.196706,0,0
3995,998.5,43.6327,44.7615,152.339,101.903,99.4778,0.004285943,0.139584,20.8203,510.945,0.221043,0,0
4042,1010.25,43.2129,44.5009,151.556,102.01,99.3388,0.0046888,0.144305,20.8176,510.775,0.243476,0,0
4089,1022,42.1444,43.5792,154.775,102.101,99.6892,0.00480893,0.139533,20.8269,510.585,0.219395,0,0
4136,1033.75,41.9222,43.0019,155.776,102.141,99.4681,0.004813571,0.143313,20.8227,510.445,0.243286,0,0
4183,1045.5,41.0079,42.3766,157.806,102.122,99.5553,0.005351989,0.142103,20.8203,510.294,0.233613,0,0
4230,1057.25,40.7285,41.9652,152.98,102.076,99.2962,0.005753615,0.137865,20.8256,510.144,0.25338,0,0
4277,1069,40.3588,41.1793,151.408,102.011,99.4661,0.006067351,0.131527,20.8359,510.004,0.231839,0,0
4324,1080.75,39.7396,41.2781,153.061,101.952,99.5523,0.00627559,0.128975,20.8371,509.874,0.218548,0,0
4371,1092.5,38.6236,40.8576,155.08,101.893,99.1547,0.006427518,0.12925,20.837,509.714,0.249959,0,0
4418,1104.25,38.718,39.6305,156.519,101.819,99.2065,0.006653127,0.128593,20.8401,509.584,0.23849,0,0
4465,1116,38.5123,40.0658,153.221,101.754,98.9859,0.006940485,0.129336,20.8412,509.434,0.253044,0,0
4512,1127.75,38.7033,40.4398,152.917,101.686,98.9301,0.006833453,0.127313,20.8448,509.324,0.252118,0,0
4559,1139.5,37.9551,40.2019,156.06,101.62,98.8809,0.007325286,0.127211,20.8436,509.163,0.250728,0,0
4606,1151.25,37.5044,39.9342,155.917,101.567,98.74,,,,509.003,0.259016,0,0
4635,1158.5,37.4177,38.4149,154.148,101.563,99.029,,,,508.923,0.231823,0,0

File: MDF_Cone_HF75scan_210325_R2.csv
Names,Time,Stack TC,Smoke TC,Exh Press,Smoke Comp,Smoke Meas,CO Meter,CO2 Meter,O2 Meter,Sample Mass,Ext Coeff,Start Test,Flame Verif
Chan Gain,,500,500,1,1,1,1,1,1,1,1,1,1
Offset,,0,0,0.138348,0,0,0,0,0,0,0,0,0
Gain,,1,1,25.011,13.5067,16.616,1,1,1,1.00091,1.04608,1,1
Units,sec,C,C,Pa,%,%,%,%,%,g,/m,,
Baseline,,38.7014,42.1891,157.626,101.279,101.357,0.000294439,0.0825696,20.8474,-2.2244,-0.007111542,,
50,12.25,36.2454,39.6483,155.754,101.002,98.743,0.000781557,0.08680018,20.8347,605.872,0.207536,0,0
100,24.75,54.4265,71.0744,132.355,100.949,94.2503,0.005541937,0.577158,20.0562,603.159,0.630005,0,0
150,37.25,69.529,94.0181,127.402,100.892,86.6583,0.009569919,0.88257,19.8485,599.806,1.39549,0,0
200,49.75,74.1537,98.829,135.08,100.823,88.3088,0.0103292,0.826972,19.979,596.713,1.2161,0,0
250,62.25,74.5454,96.1132,135.224,100.8,90.149,0.009651675,0.722642,20.1214,594.031,1.02471,0,0
300,74.75,73.7581,92.2702,134.567,100.783,92.6601,0.007983441,0.636954,20.2105,591.649,0.771109,0,0
350,87.25,72.6206,89.1945,140.226,100.76,92.9735,0.007551134,0.579695,20.2727,589.357,0.738026,0,0
400,99.75,71.983,87.211,136.141,100.751,94.9009,0.007106235,0.547747,20.3044,587.174,0.54888,0,0
450,112.25,71.6878,85.8639,140.809,100.774,93.9425,0.00621677,0.526086,20.3256,585.063,0.64412,0,0
500,124.75,72.1518,85.5179,132.143,100.877,94.7645,0.005796814,0.51447,20.3356,582.971,0.573597,0,0
550,137.25,72.4577,84.6438,139.521,101.049,95.7097,0.005521223,0.506268,20.3441,580.859,0.498111,0,0
600,149.75,72.6924,84.7084,140.6,101.143,96.4388,0.005101851,0.50141,20.3466,578.827,0.437033,0,0
650,162.25,73.2431,86.0233,138.825,101.2,96.0611,0.004993343,0.496427,20.3488,576.815,0.47817,0,0
700,174.75,73.6871,84.9232,138.958,101.281,96.3536,0.004567676,0.482454,20.3718,574.753,0.457662,0,0
750,187.25,73.0099,84.7546,137.801,101.332,99.7886,0.004375714,0.46146,20.3937,572.711,0.140864,0,0
800,199.75,71.908,84.4561,140.87,101.374,99.3885,0.003393311,0.449295,20.4049,570.78,0.181534,0,0
850,212.25,71.605,83.626,140.074,101.48,99.5508,0.00342454,0.443634,20.4108,568.908,0.17615,0,0
900,224.75,72.5552,82.8891,133.833,101.569,99.6385,0.003257045,0.435091,20.424,567.076,0.176076,0,0
950,237.25,72.1153,82.0219,137.799,101.64,101.207,0.002947761,0.428687,20.4305,565.245,0.0392017,0,0
1000,249.75,71.937,82.1048,146.758,101.685,100.274,0.002748359,0.420792,20.4393,563.553,0.128198,0,0
1050,262.25,71.3435,81.8984,137.704,101.692,101.321,0.002808508,0.414611,20.4478,561.811,0.0335131,0,0
1100,274.75,71.2789,80.6308,142.689,101.627,100.592,0.002533479,0.405156,20.4574,560.13,0.0938653,0,0
1150,287.25,70.6783,80.5787,137.729,101.56,100.782,0.002406625,0.40071,20.4641,558.548,0.0705415,0,0
1200,299.75,70.3937,80.0463,146.047,101.474,101.223,0.002202962,0.393607,20.4749,556.947,0.0227671,0,0
1250,312.25,70.6006,79.6635,139.318,101.329,101.979,0.002171996,0.388994,20.4798,555.396,-0.0586543,0,0
1300,324.75,70.2001,78.914,147.867,101.193,102.412,0.002282323,0.38452,20.4819,553.834,-0.109901,0,0
1350,337.25,69.9958,78.3328,139.647,101.247,101.392,0.002318141,0.381439,20.4888,552.323,-0.0131803,0,0
1400,349.75,69.0367,78.2393,141.632,101.32,101.559,0.002098503,0.375397,20.4968,550.871,-0.0216186,0,0
1450,362.25,68.4074,78.0575,139.542,101.44,100.771,0.002067658,0.373004,20.4979,549.39,0.06072221,0,0
1500,374.75,69.2169,77.1964,140.089,101.596,101.828,0.002167719,0.37278,20.4992,547.899,-0.0208829,0,0
1550,387.25,68.5439,77.6397,139.74,101.732,101.14,0.001913707,0.371259,20.501,546.427,0.0534833,0,0
1600,399.75,68.4093,77.1312,138.79,101.873,101.661,0.002202977,0.37107,20.5001,545.026,0.0191098,0,0
1650,412.25,68.9448,76.7352,139.265,101.971,101.183,0.001938262,0.372544,20.4993,543.535,0.0712047,0,0
1700,424.75,68.5866,77.5166,140.129,102.026,102.302,0.002442582,0.37659,20.4912,542.164,-0.024761,0,0
1750,437.25,69.1501,76.4653,142.354,102.046,100.982,0.002351583,0.383795,20.4865,540.632,0.0961355,0,0
1800,449.75,68.4959,76.7748,145.937,102.032,101.139,0.002448753,0.380947,20.4903,539.211,0.0806484,0,0
1850,462.25,68.8656,77.0299,139.825,101.995,100.276,0.002663182,0.385555,20.4848,537.679,0.155987,0,0
1900,474.75,68.9449,77.819,139.482,101.942,100.628,0.002819826,0.391937,20.4775,536.158,0.11901,0,0
1950,487.25,69.4009,78.2792,138.424,101.813,99.8712,0.003039003,0.397086,20.4709,534.677,0.176685,0,0
2000,499.75,69.288,78.0872,141.696,101.617,99.9093,0.003225026,0.403227,20.4645,533.095,0.155491,0,0
2050,512.25,69.2986,78.9264,145.994,101.425,99.137,0.003428967,0.40708,20.4595,531.574,0.209372,0,0
2100,524.75,70.4738,77.8751,140.005,101.276,98.2552,0.003639676,0.407624,20.4599,530.003,0.277886,0,0
2150,537.25,70.2038,78.8487,136.818,101.122,98.0169,0.003497798,0.409157,20.4588,528.451,0.286155,0,0
2200,549.75,69.9753,78.7229,143.003,100.97,98.5772,0.003264042,0.41082,20.4555,526.87,0.22011,0,0
2250,562.25,69.8585,78.7983,139.37,100.851,98.3683,0.003088005,0.411582,20.4533,525.308,0.228746,0,0
2300,574.75,69.7227,78.8312,141.741,100.712,97.6842,0.003537904,0.41066,20.4521,523.857,0.280132,0,0
2350,587.25,70.2312,79.5992,138.612,100.594,97.3075,0.00332543,0.411348,20.4497,522.305,0.304807,0,0
2400,599.75,70.6366,79.2228,147.956,100.463,97.2426,0.003091222,0.416524,20.4401,520.784,0.299003,0,0
2450,612.25,70.3316,79.836,142.347,100.381,96.7674,0.003522508,0.418075,20.4402,519.293,0.336453,0,0
2500,624.75,70.8395,79.5988,143.903,100.322,96.0174,0.003847151,0.422502,20.4323,517.711,0.402382,0,0
2550,637.25,71.1003,80.1588,139.829,100.289,95.9333,0.004261546,0.432483,20.417,516.13,0.407488,0,0
2600,649.75,72.0207,81.1351,141.859,100.258,94.9566,0.004456892,0.437968,20.4061,514.598,0.498479,0,0
2650,662.25,72.4126,81.203,141.926,100.253,94.7497,0.004614062,0.443838,20.3996,513.007,0.518041,0,0
2700,674.75,72.3195,81.9167,137.594,100.267,94.48,0.004463162,0.447608,20.3937,511.406,0.545486,0,0
2750,687.25,73.0332,82.0087,135.002,100.283,93.4577,0.004719961,0.452998,20.3889,509.784,0.646821,0,0
2800,699.75,73.1749,82.9559,136.311,100.351,93.4628,0.004639363,0.46075,20.3756,508.203,0.652507,0,0
2850,712.25,74.2768,83.6596,136.956,100.458,94.3517,0.004944531,0.464051,20.3684,506.581,0.575403,0,0
2900,724.75,72.8523,83.4769,133.172,100.507,93.8319,0.00492525,0.461886,20.3689,504.539,0.630647,0,0
2950,737.25,73.9703,84.0866,140.028,100.621,94.7198,0.005581856,0.465979,20.3615,503.038,0.554568,0,0
3000,749.75,73.2842,83.4028,134.893,100.777,96.0129,0.004788341,0.452234,20.3777,501.607,0.444422,0,0
3050,762.25,72.6546,81.2279,143.74,100.888,98.3678,0.003419864,0.418948,20.4159,500.365,0.232094,0,0
3100,774.75,70.1211,78.1823,142.963,101.034,99.6197,0.003106133,0.363833,20.4905,497.663,0.129379,0,0
3150,787.25,67.6716,72.75,143.835,101.177,101.437,0.004498309,0.300336,20.5667,496.992,-0.0235239,0,0
3200,799.75,64.3525,67.8097,150.811,101.285,102.326,0.003777218,0.250212,20.6237,496.622,-0.0938424,0,0
3250,812.25,61.3979,64.4306,147.326,101.41,102.619,0.004253861,0.218115,20.6605,496.252,-0.10878,0,0
3300,824.75,60.1886,62.4777,147.906,101.471,102.631,0.004144482,0.197659,20.6813,495.951,-0.10435,0,0
3350,837.25,58.0088,61.0896,144.985,101.511,102.593,0.004517411,0.19024,20.6891,495.741,-0.09729711,0,0
3400,849.75,56.8619,60.3062,147.782,101.562,102.625,0.005912804,0.194942,20.6846,572.901,-0.0954892,0,0
[...]
,,,,,,,,,,,,,
,,,,,,,,,,,,,
,,,,,,,,,,,,,
,,,,,,,,,,,,,
,,,,,,,,,,,,,
,,,,,,,,,,,,,
,,,,,,,,,,,,,
,,,,,,,,,,,,,
,,,,,,,,,,,,,
,,,,,,,,,,,,,
,,,,,,,,,,,,,
,,,,,,,,,,,,,
,,,,,,,,,,,,,
,,,,,,,,,,,,,
,,,,,,,,,,,,,
,,,,,,,,,,,,,
,,,,,,,,,,,,,
,,,,,,,,,,,,,
,,,,,,,,,,,,,
,,,,,,,,,,,,,
,,,,,,,,,,,,,
,,,,,,,,,,,,,
,,,,,,,,,,,,,
,,,,,,,,,,,,,
,,,,,,,,,,,,,
,,,,,,,,,,,,,
,,,,,,,,,,,,,
,,,,,,,,,,,,,
,,,,,,,,,,,,,
,,,,,,,,,,,,,
,,,,,,,,,,,,,
,,,,,,,,,,,,,
,,,,,,,,,,,,,
,,,,,,,,,,,,,
,,,,,,,,,,,,,
,,,,,,,,,,,,,
,,,,,,,,,,,,,
,,,,,,,,,,,,,
,,,,,,,,,,,,,
,,,,,,,,,,,,,
,,,,,,,,,,,,,
,,,,,,,,,,,,,
,,,,,,,,,,,,,
,,,,,,,,,,,,,
,,,,,,,,,,,,,
,,,,,,,,,,,,,
,,,,,,,,,,,,,
,,,,,,,,,,,,,
,,,,,,,,,,,,,
,,,,,,,,,,,,,
,,,,,,,,,,,,,
,,,,,,,,,,,,,
,,,,,,,,,,,,,
,,,,,,,,,,,,,
,,,,,,,,,,,,,
,,,,,,,,,,,,,
,,,,,,,,,,,,,
,,,,,,,,,,,,,
,,,,,,,,,,,,,
,,,,,,,,,,,,,
,,,,,,,,,,,,,
,,,,,,,,,,,,,
,,,,,,,,,,,,,
,,,,,,,,,,,,,
,,,,,,,,,,,,,
,,,,,,,,,,,,,
,,,,,,,,,,,,,
,,,,,,,,,,,,,
,,,,,,,,,,,,,
,,,,,,,,,,,,,
,,,,,,,,,,,,,
,,,,,,,,,,,,,
,,,,,,,,,,,,,
,,,,,,,,,,,,,
,,,,,,,,,,,,,
,,,,,,,,,,,,,
,,,,,,,,,,,,,
,,,,,,,,,,,,,
,,,,,,,,,,,,,
,,,,,,,,,,,,,
,,,,,,,,,,,,,
,,,,,,,,,,,,,
,,,,,,,,,,,,,
,,,,,,,,,,,,,
,,,,,,,,,,,,,
,,,,,,,,,,,,,
,,,,,,,,,,,,,
,,,,,,,,,,,,,
,,,,,,,,,,,,,
,,,,,,,,,,,,,
,,,,,,,,,,,,,
,,,,,,,,,,,,,
,,,,,,,,,,,,,
,,,,,,,,,,,,,
,,,,,,,,,,,,,
,,,,,,,,,,,,,
,,,,,,,,,,,,,
,,,,,,,,,,,,,
,,,,,,,,,,,,,
,,,,,,,,,,,,,
,,,,,,,,,,,,,
,,,,,,,,,,,,,
,,,,,,,,,,,,,
,,,,,,,,,,,,,
,,,,,,,,,,,,,
,,,,,,,,,,,,,
,,,,,,,,,,,,,
,,,,,,,,,,,,,
,,,,,,,,,,,,,
,,,,,,,,,,,,,
,,,,,,,,,,,,,
,,,,,,,,,,,,,
,,,,,,,,,,,,,
,,,,,,,,,,,,,
,,,,,,,,,,,,,
,,,,,,,,,,,,,
,,,,,,,,,,,,,
,,,,,,,,,,,,,
,,,,,,,,,,,,,
,,,,,,,,,,,,,
,,,,,,,,,,,,,
,,,,,,,,,,,,,
,,,,,,,,,,,,,
,,,,,,,,,,,,,
,,,,,,,,,,,,,
,,,,,,,,,,,,,
,,,,,,,,,,,,,
,,,,,,,,,,,,,
,,,,,,,,,,,,,
,,,,,,,,,,,,,
,,,,,,,,,,,,,
,,,,,,,,,,,,,
,,,,,,,,,,,,,
,,,,,,,,,,,,,
,,,,,,,,,,,,,
,,,,,,,,,,,,,
,,,,,,,,,,,,,
,,,,,,,,,,,,,
,,,,,,,,,,,,,
,,,,,,,,,,,,,
,,,,,,,,,,,,,
,,,,,,,,,,,,,
,,,,,,,,,,,,,
,,,,,,,,,,,,,
,,,,,,,,,,,,,
,,,,,,,,,,,,,
,,,,,,,,,,,,,
,,,,,,,,,,,,,
,,,,,,,,,,,,,
,,,,,,,,,,,,,
,,,,,,,,,,,,,
,,,,,,,,,,,,,
,,,,,,,,,,,,,
,,,,,,,,,,,,,
,,,,,,,,,,,,,
,,,,,,,,,,,,,
,,,,,,,,,,,,,
,,,,,,,,,,,,,
,,,,,,,,,,,,,
,,,,,,,,,,,,,
,,,,,,,,,,,,,
,,,,,,,,,,,,,
,,,,,,,,,,,,,
,,,,,,,,,,,,,
,,,,,,,,,,,,,
,,,,,,,,,,,,,
,,,,,,,,,,,,,
,,,,,,,,,,,,,
,,,,,,,,,,,,,
,,,,,,,,,,,,,
,,,,,,,,,,,,,
,,,,,,,,,,,,,
,,,,,,,,,,,,,
,,,,,,,,,,,,,
,,,,,,,,,,,,,
,,,,,,,,,,,,,
,,,,,,,,,,,,,
,,,,,,,,,,,,,
,,,,,,,,,,,,,
,,,,,,,,,,,,,
,,,,,,,,,,,,,
,,,,,,,,,,,,,
,,,,,,,,,,,,,
,,,,,,,,,,,,,
,,,,,,,,,,,,,
,,,,,,,,,,,,,
,,,,,,,,,,,,,
,,,,,,,,,,,,,
,,,,,,,,,,,,,
,,,,,,,,,,,,,
,,,,,,,,,,,,,
,,,,,,,,,,,,,
,,,,,,,,,,,,,
,,,,,,,,,,,,,
,,,,,,,,,,,,,
,,,,,,,,,,,,,
,,,,,,,,,,,,,
,,,,,,,,,,,,,
,,,,,,,,,,,,,
,,,,,,,,,,,,,
,,,,,,,,,,,,,
,,,,,,,,,,,,,
,,,,,,,,,,,,,
,,,,,,,,,,,,,
,,,,,,,,,,,,,
,,,,,,,,,,,,,
,,,,,,,,,,,,,
,,,,,,,,,,,,,
,,,,,,,,,,,,,
,,,,,,,,,,,,,
,,,,,,,,,,,,,
,,,,,,,,,,,,,
,,,,,,,,,,,,,
,,,,,,,,,,,,,
,,,,,,,,,,,,,
,,,,,,,,,,,,,
,,,,,,,,,,,,,
,,,,,,,,,,,,,
,,,,,,,,,,,,,
,,,,,,,,,,,,,
,,,,,,,,,,,,,
,,,,,,,,,,,,,
,,,,,,,,,,,,,
,,,,,,,,,,,,,
,,,,,,,,,,,,,
,,,,,,,,,,,,,
,,,,,,,,,,,,,
,,,,,,,,,,,,,
,,,,,,,,,,,,,
,,,,,,,,,,,,,
,,,,,,,,,,,,,
,,,,,,,,,,,,,
,,,,,,,,,,,,,
,,,,,,,,,,,,,
,,,,,,,,,,,,,
,,,,,,,,,,,,,
,,,,,,,,,,,,,
,,,,,,,,,,,,,
,,,,,,,,,,,,,
,,,,,,,,,,,,,
,,,,,,,,,,,,,
,,,,,,,,,,,,,
,,,,,,,,,,,,,
,,,,,,,,,,,,,
,,,,,,,,,,,,,
,,,,,,,,,,,,,
,,,,,,,,,,,,,
,,,,,,,,,,,,,
,,,,,,,,,,,,,
,,,,,,,,,,,,,
,,,,,,,,,,,,,
,,,,,,,,,,,,,
,,,,,,,,,,,,,
,,,,,,,,,,,,,
,,,,,,,,,,,,,
,,,,,,,,,,,,,
,,,,,,,,,,,,,
,,,,,,,,,,,,,
,,,,,,,,,,,,,
,,,,,,,,,,,,,
,,,,,,,,,,,,,