Folder: fsri_materials_database/02_Data/MDF/Cone

Note: README.md
# fsri_materials_database
Database of Contemporary Material Properties for Fire Investigation Analysis

File: MDF_Cone_HF25scan_210323_R1.csv
Names,Time,Stack TC,Smoke TC,Exh Press,Smoke Comp,Smoke Meas,CO Meter,CO2 Meter,O2 Meter,Sample Mass,Ext Coeff,Start Test,Flame Verif
Chan Gain,,500,500,1,1,1,1,1,1,1,1,1,1
Offset,,0,0,0.194005,0,0,0,0,0,0,0,0,0
Gain,,1,1,25.011,13.5067,16.616,1,1,1,1.00091,1.04608,1,1
Units,sec,C,C,Pa,%,%,%,%,%,g,/m,,
Baseline,,18.6598,20.0589,175.721,101.346,101.076,0.000296106,0.0424434,20.9654,-0.0313619,0.02450805,,
66,16.25,17.4871,18.8542,174.742,101.749,101.526,0.000515977,0.0492895,20.9626,621.636,0.02014789,0,0
132,32.75,17.4593,19.5271,170.311,101.813,101.893,0.000572508,0.0437859,20.9673,621.406,-0.007177008,0,0
198,49.25,17.4851,19.369,172.666,101.54,101.341,0.000134026,0.043163,20.9696,621.235,0.0179417,0,0
264,65.75,17.4386,19.192,172.899,100.25,99.8956,0.000120657,0.0429765,20.9686,621.065,0.0324853,0,0
330,82.25,17.6911,18.964,176.444,101.279,100.555,3.41031E-05,0.0433024,20.9689,620.885,0.0658607,0,0
396,98.75,18.2212,18.7686,179.766,101.439,100.563,0.000145428,0.0441349,20.9659,620.725,0.0796367,0,0
462,115.25,17.852,18.6673,169.82,100.967,99.7141,0.000783346,0.0458731,20.9665,620.535,0.114589,0,0
528,131.75,18.1015,19.9364,178.157,101.465,98.5554,0.001367532,0.0487178,20.9646,620.185,0.26702,0,0
594,148.25,28.9546,37.3404,151.725,101.8,100.886,0.002427769,0.286203,20.5828,618.573,0.0826943,0,0
660,164.75,40.1917,52.5641,152.034,101.792,100.388,0.003928713,0.464679,20.4731,615.931,0.127429,0,0
726,181.25,41.8047,53.8573,152.982,101.557,99.5533,0.003681462,0.446459,20.5272,613.378,0.1828821,0,0
792,197.75,41.1609,50.9122,156.856,101.347,97.9347,0.003785068,0.399747,20.5891,611.166,0.314286,0,0
858,214.25,40.1885,48.4857,164.227,101.478,98.6822,0.002858297,0.352727,20.643,609.145,0.256342,0,0
924,230.75,38.7243,46.1209,161.954,101.643,100.217,0.00249231,0.320151,20.6753,607.283,0.129657,0,0
990,247.25,38.5196,44.1153,166.202,101.787,101.484,0.002000608,0.297825,20.6986,605.491,0.0274088,0,0
1056,263.75,37.6588,43.019,162.542,101.911,102.127,0.001968818,0.27794,20.716,603.84,-0.0194495,0,0
1122,280.25,37.1075,42.3664,160.589,101.926,102.067,0.001988058,0.26767,20.7295,602.338,-0.0126907,0,0
1188,296.75,36.8283,41.8234,162.673,101.952,101.443,0.001924046,0.255717,20.74,600.787,0.04593711,0,0
1254,313.25,36.7793,41.5097,162.792,101.929,102.7,0.001590372,0.245459,20.7526,599.316,-0.0691937,0,0
1320,329.75,37.3599,41.4489,164.187,101.88,103.641,0.001372268,0.234125,20.7628,597.844,-0.157272,0,0
1386,346.25,35.9682,40.6142,167.2556,101.823,103.483,0.001519993,0.228889,20.7656,596.373,-0.148342,0,0
1452,362.75,35.9906,39.8507,165.966,101.757,102.061,0.001764889,0.223297,20.772,594.862,-0.0273329,0,0
1518,379.25,35.5513,39.3169,163.909,101.623,102.387,0.001773263,0.219701,20.7774,593.53,-0.0687352,0,0
1584,395.75,34.6368,38.198,166.427,101.499,102.497,0.001708989,0.215331,20.7815,592.059,-0.0897555,0,0
1650,412.25,34.2407,37.8022,166.743,101.378,102.686,0.001366242,0.210294,20.7862,590.738,-0.117598,0,0
1716,428.75,33.8351,37.5236,157.869,101.559,102.681,0.001452178,0.209377,20.7859,589.396,-0.100781,0,0
1782,445.25,33.7529,37.2503,166.105,101.817,102.781,0.00155368,0.208606,20.7868,588.095,-0.0865029,0,0
1848,461.75,33.9401,37.7952,165.653,101.811,102.734,0.001501783,0.205603,20.7906,586.914,-0.0828033,0,0
1914,478.25,33.6097,36.677,165.222,101.518,102.684,0.001431062,0.200652,20.7926,585.653,-0.104816,0,0
1980,494.75,33.3318,37.0578,166.565,100.992,101.749,0.001407211,0.198271,20.7962,584.462,-0.0685468,0,0
2046,511.25,33.1059,35.9429,164.601,100.981,101.581,0.001488535,0.196296,20.7953,583.281,-0.0543629,0,0
2112,527.75,32.0348,36.0061,161.542,101.189,101.887,0.001496073,0.194509,20.7998,582.13,-0.0630832,0,0
2178,544.25,32.2247,35.5849,163.07,101.394,101.872,0.001976732,0.191873,20.8004,580.929,-0.0431547,0,0
2244,560.75,31.7787,34.8843,160.639,101.527,102.405,0.001982638,0.188505,20.8035,579.878,-0.0790016,0,0
2310,577.25,31.8828,35.2786,165.336,101.584,102.217,0.002363523,0.183459,20.8086,578.747,-0.0570268,0,0
2376,593.75,31.6968,34.909,168.497,101.506,102.009,0.002290112,0.18216,20.8149,577.676,-0.045347,0,0
2442,610.25,30.6839,33.7958,170.174,101.409,102.296,0.002712792,0.178772,20.8167,576.525,-0.0799174,0,0
2508,626.75,31.257,34.2353,167.144,101.304,102.119,0.00257898,0.179495,20.8149,575.634,-0.0735163,0,0
2574,643.25,30.41,33.5376,171.656,101.17,102.207,0.003814812,0.175043,20.8186,574.593,-0.0935755,0,0
2640,659.75,30.4407,33.4603,169.664,100.955,101.607,0.003217787,0.172873,20.8211,573.662,-0.0590578,0,0
2706,676.25,30.6306,33.0196,165.044,100.824,101.287,0.002764244,0.171379,20.8222,572.621,-0.0420761,0,0
2772,692.75,30.6999,33.4699,172.695,100.751,101.174,0.003120873,0.170348,20.8236,571.61,-0.0385147,0,0
2838,709.25,29.6906,32.4242,166.94,100.677,101.002,0.004231442,0.167307,20.8274,570.699,-0.0295862,0,0
2904,725.75,29.4158,32.5404,171.688,100.634,101.108,0.004017804,0.166141,20.8312,569.759,-0.0430338,0,0
2970,742.25,29.8014,32.0109,165.395,100.503,101.3,0.003850807,0.165419,20.8299,568.848,-0.0724655,0,0
3036,758.75,29.471,31.8674,167.771,100.349,100.563,0.004510432,0.162734,20.8334,567.857,-0.019558,0,0
3102,775.25,29.5244,32.2329,168.721,100.236,100.394,0.003803936,0.166766,20.8262,567.026,-0.0144237,0,0
3168,791.75,29.0015,31.6093,167.648,100.343,100.533,0.005050701,0.162744,20.8323,566.115,-0.01731766,0,0
3234,808.25,29.7054,32.6942,169.849,100.742,101.025,0.004721187,0.163546,20.8303,565.215,-0.0256879,0,0
3300,824.75,28.674,31.2405,165.603,101.288,101.66,0.00433744,0.16354,20.8301,564.294,-0.033681,0,0
3366,841.25,29.0357,31.4691,162.855,101.737,102.125,0.004377214,0.16446,20.8303,563.393,-0.0348608,0,0
3432,857.75,29.1743,32.115,167.108,102.001,102.205,0.003591035,0.169435,20.8234,562.522,-0.018377,0,0
3498,874.25,29.4,32.7648,168.563,102.13,102.158,0.003065092,0.173784,20.8211,561.621,-0.002497118,0,0
3564,890.75,29.7491,33.0557,169.834,102.153,102.699,0.003173176,0.178667,20.8147,560.7,-0.0489023,0,0
3630,907.25,29.8323,32.8641,168.51,102.094,102.192,0.002495805,0.18018,20.8161,559.75,-0.00877108,0,0
3696,923.75,30.194,33.3299,171.333,101.932,102.095,0.002539726,0.185287,20.8085,558.799,-0.0146045,0,0
3762,940.25,30.6612,33.9799,164.284,101.701,101.991,0.002778643,0.191065,20.8017,557.858,-0.0261794,0,0
3828,956.75,31.1826,35.0629,163.977,101.469,101.944,0.002211371,0.196522,20.7932,556.897,-0.04281459,0,0
3894,973.25,31.7816,35.6432,164.121,101.495,101.818,0.001967067,0.20274,20.7886,555.876,-0.0291862,0,0
3960,989.75,32.2296,36.1914,164.284,101.827,102.48,0.001881368,0.21122,20.7799,554.805,-0.0586351,0,0
4026,1006.25,32.8342,36.9477,163.064,101.882,103.113,0.001846005,0.219411,20.7698,553.634,-0.110186,0,0
4092,1022.75,33.8345,38.519,164.512,101.64,102.646,0.001246154,0.229653,20.7589,552.463,-0.0904028,0,0
4158,1039.25,34.7996,39.6215,162.868,101.186,101.349,0.001178878,0.241094,20.7458,551.252,-0.014725,0,0
4224,1055.75,34.797,40.3956,164.556,101.003,101.315,0.001353225,0.25313,20.7315,549.881,-0.0282601,0,0
4290,1072.25,36.1849,41.6545,159.746,101.139,101.303,0.001542152,0.2685,20.7139,548.439,-0.0149299,0,0
4356,1088.75,38.561,43.3194,159.568,101.358,101.042,0.001704069,0.286487,20.6937,546.868,0.0286662,0,0
4422,1105.25,39.324,45.2924,157.885,101.483,101.111,0.002063099,0.30606,20.6704,545.226,0.0337518,0,0
4488,1121.75,40.6419,47.106,167.414,101.551,100.334,0.002131244,0.326049,20.6462,543.395,0.110589,0,0
4554,1138.25,41.5147,48.6927,154.031,101.559,100.288,0.002366199,0.3463,20.6226,541.463,0.115593,0,0
4620,1154.75,43.0811,50.5448,158.802,101.527,98.852,0.00271044,0.366177,20.5985,539.431,0.244995,0,0
4686,1171.25,44.8617,52.6436,147.926,101.515,97.9951,0.002946427,0.3889,20.571,537.249,0.323848,0,0
4752,1187.75,46.9657,55.3822,155.023,101.49,96.8587,0.003968209,0.416219,20.53722,534.947,0.428604,0,0
4818,1204.25,48.7134,57.6511,159.556,101.484,96.2451,0.004560493,0.44515,20.4991,532.525,0.486321,0,0
4884,1220.75,51.211,60.8876,154.436,101.486,95.4825,0.005531561,0.473549,20.4618,529.912,0.559544,0,0
4950,1237.25,53.402,63.606,155.708,101.48,95.2249,0.006598134,0.49989,20.4314,527.18,0.583775,0,0
5016,1253.75,54.5778,65.1184,146.859,101.481,95.2715,0.007385851,0.508517,20.4229,524.508,0.57943,0,0
5082,1270.25,54.393,63.6247,152.243,101.495,96.1564,0.006667117,0.472579,20.4733,522.015,0.495828,0,0
5148,1286.75,50.4077,57.1979,154.883,101.536,98.0072,0.003062824,0.371423,20.6001,520.143,0.324608,0,0
5214,1303.25,45.0933,48.7794,160.481,101.559,98.8419,0.002790701,0.253383,20.7221,519.093,0.248879,0,0
5280,1319.75,41.1181,43.412,163.515,101.55,100.121,0.004768257,0.203536,20.7696,518.392,0.129976,0,0
5346,1336.25,37.7743,38.4909,164.238,101.504,101.693,0.005981016,0.166554,20.8135,517.811,-0.0170261,0,0
5412,1352.75,35.2229,34.9594,169.832,101.359,101.512,0.007340401,0.145974,20.8349,517.351,-0.0138392,0,0
5478,1369.25,33.5905,33.3416,172.916,101.191,101.651,0.007915295,0.136364,20.844,516.901,-0.0416365,0,0
5544,1385.75,32.2121,32.0125,171.293,101.042,101.152,0.007807454,0.139173,20.8406,516.49,-0.009978862,0,0
5610,1402.25,30.4553,30.7815,166.714,100.947,101.407,0.007660238,0.132091,20.8543,516.11,-0.0417102,0,0
5676,1418.75,30.1714,30.1067,172.21,101.291,101.314,0.007630452,0.134166,20.848,515.729,-0.002067663,0,0
5742,1435.25,29.3143,29.6289,166.073,101.661,101.708,0.009013002,0.128892,20.8557,515.369,-0.004295572,0,0
5808,1451.75,28.2205,28.9179,171.453,101.824,101.781,0.009013978,0.125485,20.8575,514.999,0.003886821,0,0
5874,1468.25,27.8063,28.4076,173.349,101.877,101.658,0.009495208,0.124847,20.8628,514.708,0.0197921,0,0
5940,1484.75,26.43,27.1329,167.948,101.777,101.756,0.0113768,0.116379,20.8739,514.378,0.001853937,0,0
6006,1501.25,25.5293,25.8268,168.713,101.573,101.229,0.012423,0.112479,20.8766,514.058,0.0311107,0,0
6072,1517.75,24.9256,24.5629,172.2,101.337,101.267,0.0117727,0.111481,20.8777,513.758,0.006347769,0,0
6138,1534.25,24.4841,24.7138,168.906,101.374,101.13,0.0115425,0.111135,20.8787,513.497,0.022084,0,0
6204,1550.75,24.4417,24.6185,167.395,101.466,101.285,0.011751,0.110884,20.8784,513.217,0.0163608,0,0
6270,1567.25,24.0957,24.9346,173.48,101.627,101.475,0.0117202,0.109999,20.8781,512.957,0.0137682,0,0
6336,1583.75,24.0654,24.46,169.155,101.793,101.784,0.01163178,0.110185,20.8792,512.697,0.000825841,0,0
6402,1600.25,23.5888,23.9926,168.253,101.911,101.777,,,,512.466,0.0120412,0,0
6410,1602.25,23.2168,24.5235,173.356,101.921,101.665,,,,512.406,0.0231239,0,0

File: MDF_Cone_HF50scan_210326_R1.csv
Names,Time,Stack TC,Smoke TC,Exh Press,Smoke Comp,Smoke Meas,CO Meter,CO2 Meter,O2 Meter,Sample Mass,Ext Coeff,Start Test,Flame Verif
Chan Gain,,500,500,1,1,1,1,1,1,1,1,1,1
Offset,,0,0,0.138348,0,0,0,0,0,0,0,0,0
Gain,,1,1,25.011,13.5067,16.616,1,1,1,1.00091,1.04608,1,1
Units,sec,C,C,Pa,%,%,%,%,%,g,/m,,
Baseline,,24.7095,27.2458,162.152,100.501,97.457,-0.000839825,0.0622675,20.9266,-0.111351,0.282233,,
46,11.25,24.0849,26.7777,161.517,99.6382,96.2786,-0.000807352,0.0660817,20.9215,612.518,0.314735,0,0
92,22.75,24.7671,26.9652,158.568,99.1526,94.735,-0.000492956,0.078362,20.9093,612.257,0.418214,0,0
138,34.25,28.2642,33.3029,152.513,99.3587,95.5809,0.000451025,0.201732,20.6612,611.457,0.355704,0,1
184,45.75,43.194,57.0967,139.111,99.9927,94.0642,0.003703443,0.604244,20.2169,609.094,0.56084,0,0
230,57.25,51.7538,69.3957,140.361,100.493,92.1616,0.005220369,0.672871,20.2001,606.692,0.794184,0,0
276,68.75,55.8393,73.0463,137.03,100.532,90.7981,0.006041849,0.636637,20.269,604.33,0.934496,0,0
322,80.25,56.6006,73.0287,144.812,100.331,89.8164,0.005459991,0.581539,20.3411,602.228,1.01583,0,0
368,91.75,56.0181,71.4897,145.81,100.369,91.9705,0.005271667,0.537214,20.3918,600.236,0.801827,0,0
414,103.25,56.7157,70.0182,138.166,101.058,92.6449,0.004231839,0.496416,20.443,598.315,0.797577,0,0
460,114.75,55.6348,67.4586,147.517,100.961,93.7042,0.00370239,0.465659,20.4743,596.543,0.684491,0,0
506,126.25,55.4551,66.9745,143.402,100.628,93.6281,0.003268652,0.443547,20.4955,594.791,0.661623,0,0
552,137.75,54.9406,66.2978,148.487,101.048,94.6164,0.003495035,0.428902,20.5085,593.11,0.603493,0,0
598,149.25,54.8723,65.1294,143.81,101.317,95.7228,0.002601248,0.420032,20.5168,591.488,0.521144,0,0
644,160.75,54.6594,65.3681,142.006,101.139,95.6123,0.002592653,0.41092,20.5255,589.867,0.515681,0,0
690,172.25,55.514,65.617,145.62,100.56,96.2806,0.002214131,0.406234,20.5288,588.235,0.399031,0,0
736,183.75,55.6034,65.3214,145.94,99.841,95.7756,0.002061705,0.40049,20.5381,586.574,0.38146,0,0
782,195.25,55.2856,65.0112,146.279,99.3847,96.1909,0.002174876,0.391228,20.5474,584.972,0.299725,0,0
828,206.75,55.5802,64.3543,142.389,99.4181,96.4824,0.002108141,0.383987,20.5564,583.361,0.275035,0,0
874,218.25,55.8887,63.4473,147.741,99.841,96.807,0.001975243,0.375902,20.5664,581.73,0.283172,0,0
920,229.75,55.9467,63.8518,144.782,100.408,97.1584,0.001749858,0.370824,20.5698,580.198,0.301865,0,0
966,241.25,55.226,63.0835,142.118,100.745,97.5351,0.001391825,0.367361,20.5721,578.647,0.297152,0,0
1012,252.75,56.0635,63.5967,139.171,100.64,98.2461,0.001526249,0.364047,20.5765,577.145,0.220893,0,0
1058,264.25,55.7839,63.2504,147.078,100.381,97.8318,0.001275461,0.356994,20.5841,575.634,0.236074,0,0
1104,275.75,56.0595,62.2,147.205,100.754,98.1441,0.000904163,0.351437,20.5907,574.223,0.240784,0,0
1150,287.25,54.6488,63.0078,144.924,101.252,98.3657,0.00086328,0.345637,20.5962,572.821,0.265365,0,0
1196,298.75,54.9273,62.5376,146.348,100.93,98.9499,0.000630724,0.341575,20.6041,571.42,0.181848,0,0
1242,310.25,54.5797,62.8494,147.058,100.896,98.4149,0.000436415,0.332814,20.6157,570.099,0.228445,0,0
1288,321.75,54.7405,61.7504,144.121,101.331,100.192,0.00075576,0.330978,20.6138,568.798,0.103794,0,0
1334,333.25,54.8407,61.6961,140.815,101.477,100.206,0.000647691,0.325938,20.6189,567.467,0.115577,0,0
1380,344.75,54.5996,61.4351,142.669,101.204,99.3505,0.000557029,0.32109,20.6237,566.185,0.169624,0,0
1426,356.25,54.5149,61.0303,144.717,100.547,100.102,0.000247257,0.316178,20.6307,564.974,0.0407472,0,0
1472,367.75,54.0937,60.7662,148.319,99.8859,98.5392,0.00032622,0.311449,20.6386,563.723,0.124562,0,0
1518,379.25,53.9048,60.131,143.56,99.552,97.9819,7.17142E-05,0.304916,20.6491,562.622,0.145881,0,0
1564,390.75,53.8712,58.8809,150.773,99.6621,97.7795,0.000100545,0.300327,20.6536,561.381,0.174988,0,0
1610,402.25,53.1321,59.1134,144.507,100.144,98.8282,-1.66532E-05,0.297009,20.6563,560.26,0.121323,0,0
1656,413.75,52.8389,58.2942,143.735,100.627,99.4854,0.0002015,0.293604,20.6623,559.119,0.10474,0,0
1702,425.25,52.7866,58.6247,151.643,100.913,99.7688,0.000246536,0.292664,20.6624,557.988,0.104681,0,0
1748,436.75,52.6235,58.0045,149.254,100.811,98.3049,3.14103E-05,0.290858,20.6625,556.897,0.230984,0,0
1794,448.25,52.3141,58.0566,143.509,100.52,98.9676,0.000104263,0.291586,20.6602,555.826,0.142839,0,0
1840,459.75,52.329,57.727,149.341,100.623,99.3895,-0.000135482,0.288859,20.6652,554.725,0.113171,0,0
1886,471.25,52.1122,57.4784,145.533,101.267,100.394,8.55086E-05,0.287541,20.6665,553.624,0.0794578,0,0
1932,482.75,52.3967,57.1629,147.159,101.369,100.713,0.000106983,0.288046,20.6656,552.583,0.0596094,0,0
1978,494.25,52.1713,57.271,146.752,100.925,99.4189,0.000236595,0.290508,20.6644,551.502,0.138004,0,0
2024,505.75,52.0612,58.1445,151.282,101.034,99.4331,0.000414046,0.293517,20.6624,550.411,0.146545,0,0
2070,517.25,51.9649,57.8926,149.742,101.374,99.5969,0.000361929,0.29553,20.6576,549.32,0.162239,0,0
2116,528.75,52.3817,57.5156,144.586,101.615,98.9727,0.000453072,0.299137,20.6546,548.239,0.24173,0,0
2162,540.25,51.9975,58.4948,153.117,101.612,99.2764,0.00045338,0.301385,20.6526,547.128,0.213352,0,0
2208,551.75,52.447,58.5675,143.412,101.313,99.6284,0.0003405,0.3090446,20.6433,546.017,0.153856,0,0
2254,563.25,52.0427,59.5167,149.28,100.753,97.6817,0.00043583,0.314088,20.6392,544.856,0.28405,0,0
2300,574.75,52.768,59.8158,143.731,100.164,96.4622,0.000804477,0.321555,20.6298,543.665,0.345529,0,0
2346,586.25,53.7681,60.0376,145.946,99.7684,97.2892,0.000475597,0.329064,20.6211,542.464,0.230906,0,0
2392,597.75,53.5861,61.2147,146.429,99.7342,96.6209,0.000406495,0.334411,20.6125,541.233,0.291012,0,0
2438,609.25,54.3899,60.9177,147.805,100.042,96.3242,0.000880065,0.343223,20.6027,540.042,0.347475,0,0
2484,620.75,55.2868,61.111,148.599,100.445,96.8982,0.00107933,0.349045,20.5974,538.82,0.329893,0,0
2530,632.25,55.7673,61.671,140.267,100.826,96.8891,0.000790273,0.353211,20.5928,537.539,0.365449,0,0
2576,643.75,55.4173,62.8988,145.714,101.073,97.3572,0.001066604,0.357245,20.5866,536.278,0.343747,0,0
2622,655.25,55.5296,63.021,146.521,101.057,96.6604,0.001089201,0.360053,20.5841,534.997,0.408155,0,0
2668,666.75,56.4692,63.7036,141.357,100.887,95.9358,0.000938546,0.367568,20.5732,533.626,0.461731,0,0
2714,678.25,56.4957,63.8534,148.315,100.699,95.2259,0.00128274,0.375145,20.5623,532.335,0.512774,0,0
2760,689.75,57.2456,64.7274,141.012,100.541,94.947,0.001409019,0.383843,20.5516,531.003,0.525291,0,0
2806,701.25,58.2026,65.6936,139.081,101.099,95.0479,0.001765274,0.396543,20.5314,529.582,0.56634,0,0
2852,712.75,57.9978,66.6445,144.079,101.44,95.374,0.001828905,0.407284,20.5182,528.151,0.565842,0,0
2898,724.25,59.2817,67.1986,141.792,101.498,94.3852,0.001564215,0.420753,20.5014,526.679,0.666692,0,0
2944,735.75,60.0218,69.1556,137.847,101.371,93.7696,0.002020275,0.437831,20.4795,525.098,0.715214,0,0
2990,747.25,61.0135,69.72,140.818,101.023,93.2473,0.002227946,0.451401,20.4625,523.497,0.734922,0,0
3036,758.75,62.1515,71.193,141.369,101.056,92.5561,0.003261895,0.465146,20.4441,521.915,0.80622,0,0
3082,770.25,62.816,72.1801,136.21,101.282,92.511,0.003437383,0.479512,20.4233,520.193,0.831183,0,0
3128,781.75,63.7898,73.5323,140.156,101.549,92.2458,0.004107208,0.485706,20.4156,518.512,0.881693,0,0
3174,793.25,64.6195,74.7494,142.899,101.734,91.2159,0.004395804,0.497879,20.3976,516.75,1.00139,0,0
3220,804.75,65.6526,75.831,135.428,101.782,91.655,0.005414272,0.505532,20.3868,514.949,0.961704,0,0
3266,816.25,66.1746,76.879,136.835,101.688,90.217,0.005692064,0.519594,20.3659,513.137,1.09831,0,0
3312,827.75,67.141,77.5791,139.075,101.423,89.2251,0.005590003,0.520754,20.3654,511.375,1.17576,0,0
3358,839.25,67.3669,77.1347,136.679,101.045,90.6637,0.00531274,0.502103,20.3957,509.684,0.99477,0,0
3404,850.75,66.0349,74.6264,141.464,100.628,91.294,0.003113532,0.449087,20.459,508.203,0.893239,0,0
3450,862.25,63.3824,70.6676,151.395,100.2,92.8776,0.001365681,0.354699,20.5818,507.162,0.696372,0,0
3496,873.75,60.0772,64.0744,148.262,99.9498,95.2386,0.001015031,0.259457,20.6824,506.561,0.443049,0,0
3542,885.25,55.8982,59.1475,149.009,99.876,96.275,0.001557704,0.206801,20.7426,506.151,0.33695,0,0
3588,896.75,52.9551,55.5595,139.803,99.9745,98.6183,0.002039284,0.184685,20.7654,505.85,0.125336,0,0
3634,908.25,51.3026,52.6478,148.794,100.2,98.2866,0.002147444,0.173373,20.7777,505.52,0.176917,0,0
3680,919.75,49.3044,50.7814,156.746,100.489,98.7643,0.002210893,0.166608,20.7854,505.27,0.158889,0,0
3726,931.25,48.5791,49.6252,155.951,100.83,99.1938,0.002779595,0.160983,20.7892,505.05,0.150147,0,0
3772,942.75,47.6705,48.4966,151.35,101.087,99.6933,0.002864598,0.158313,20.7926,504.769,0.127398,0,0
3818,954.25,46.5688,47.5453,153.552,101.22,98.9458,0.00289348,0.155561,20.7961,504.589,0.208494,0,0
3864,965.75,45.9341,47.0459,157.385,101.223,98.9372,0.003016665,0.15689,20.7945,504.359,0.209555,0,0
3910,977.25,45.2837,46.1455,155.467,101.073,98.8449,0.003581967,0.156303,20.7996,504.159,0.204582,0,0
3956,988.75,44.5983,45.1282,155.821,100.831,98.8601,0.003559586,0.154038,20.8025,503.949,0.181139,0,0
4002,1000.25,43.8013,45.2235,153.154,100.709,98.7161,0.003963002,0.148442,20.8109,503.729,0.183369,0,0
4048,1011.75,43.525,44.8675,153.79,100.834,99.1096,0.004396454,0.148494,20.8109,503.548,0.158238,0,0
4094,1023.25,42.4774,43.9962,154.239,101.208,99.5127,0.004519224,0.144511,20.8118,503.338,0.155022,0,0
4140,1034.75,41.7325,43.6097,153.643,101.498,99.2927,0.004658822,0.157515,20.7965,503.178,0.201536,0,0
4186,1046.25,41.1618,43.0608,153.838,101.624,99.4058,0.005242184,0.148748,20.8131,502.978,0.202487,0,0
4232,1057.75,41.0399,42.7146,154.609,101.564,99.2186,0.005430987,0.145229,20.8154,502.798,0.214341,0,0
4278,1069.25,40.1155,42.1173,155.232,101.382,99.1578,0.006324563,0.149793,20.8062,502.648,0.203569,0,0
4324,1080.75,39.7251,41.7123,155.604,101.08,99.3799,0.005882028,0.14565,20.8113,502.437,0.155653,0,0
4370,1092.25,39.1702,41.188,157.657,101.219,99.1056,0.00655382,0.143373,20.8159,502.297,0.193619,0,0
4416,1103.75,39.5615,41.6073,149.515,101.436,99.0929,0.006406367,0.143607,20.8168,502.157,0.214465,0,0
4462,1115.25,38.6939,41.3307,157.635,101.608,99.1324,0.006807921,0.143577,20.8173,501.957,0.226375,0,0
4508,1126.75,39.1924,41.0231,158.703,101.737,99.3155,0.007315844,0.144359,20.8164,501.767,0.22109,0,0
4554,1138.25,39.064,40.8533,158.852,101.849,99.1532,0.006999523,0.143065,20.8176,501.647,0.246127,0,0
4600,1149.75,38.3816,40.5085,156.144,101.901,99.5219,,,,501.446,0.216789,0,0
4615,1153.5,38.4189,40.4415,154.992,101.905,99.6319,,,,501.406,0.20702,0,0
,,,,,,,,,,,,,
,,,,,,,,,,,,,
,,,,,,,,,,,,,
,,,,,,,,,,,,,
,,,,,,,,,,,,,
,,,,,,,,,,,,,
,,,,,,,,,,,,,
,,,,,,,,,,,,,
,,,,,,,,,,,,,
,,,,,,,,,,,,,
,,,,,,,,,,,,,
,,,,,,,,,,,,,
,,,,,,,,,,,,,
,,,,,,,,,,,,,
,,,,,,,,,,,,,
,,,,,,,,,,,,,
,,,,,,,,,,,,,
,,,,,,,,,,,,,
,,,,,,,,,,,,,
,,,,,,,,,,,,,