Folder: fsri_materials_database/01_Data/Cedar_Shingle/HFM

Note: 01_Data/README.md
# Materials and Products Database
## 01_Data

Raw data generated from each apparatus are included here in plain-text format. The data is organized first by material, next by the short name of test apparatus used, and where applicable additional filtering by test settings.

### material.json

Each material directory contains a json file of the same name as the material. This file links the data stored in the repository as well as data and graphs produced by the accompanying scripts (__02_Scripts__) to the respective landing page for the material on the front-end website.

File: Cedar_Shingle_Density_Dry_R1.csv
,Cedar_Shingle_DRY_1
Sample Mass [g],45.9
Sample Volume [cm3],161.2
Sample Density [kg/m3],285

File: Cedar_Shingle_Density_Dry_R2.csv
,Cedar_Shingle_DRY_2
Sample Mass [g],42.7
Sample Volume [cm3],137.1
Sample Density [kg/m3],311

File: Cedar_Shingle_Density_Dry_R3.csv
,Cedar_Shingle_DRY_3
Sample Mass [g],39.2
Sample Volume [cm3],123.4
Sample Density [kg/m3],318

File: Cedar_Shingle_Density_Wet_R1.csv
,Cedar_Shingle_WET_1
Sample Mass [g],50.5
Sample Volume [cm3],161.2
Sample Density [kg/m3],313

File: Cedar_Shingle_Density_Wet_R2.csv
,Cedar_Shingle_WET_2
Sample Mass [g],47.2
Sample Volume [cm3],137.1
Sample Density [kg/m3],344

File: Cedar_Shingle_Density_Wet_R3.csv
,Cedar_Shingle_WET_3
Sample Mass [g],43.1
Sample Volume [cm3],123.4
Sample Density [kg/m3],349

File: Cedar_Shingle_Ignition_Temp_Properties.csv
Thermal Conductivity (W/m-K),0.089
Heat Capacity (J/kg-K),1860.0
Density (kg/m3),335.333