Folder: fsri_materials_database/01_Data/Cedar_Shingle/MCC (part 2)

File: Cedar_Single_MCC_30K_min_211214_R2.txt
Sample ID:	C:\MCC\MCC Cal\Test\Cedar_Single_MCC_30K_min_211214_R2.txt
Sample Weight (mg):	4.62
Heating Rate (C/s):	0.5
Combustor Temp (C):	900
N2 Flow Rate (cc/min):	80
O2 Flow Rate (cc/min):	20
Calibration File:	C:\MCC\MCC Cal\Coeff1 JN10440_30_210304.txt.txt
T Correction Coefficients:	0	1.024463	0
Time Shift (s):	14
*
Time (s)	Temperature (C)	N2 flow rate (cc/min)	O2 flow rate (cc/min)	Flow Rate (cc/min)	Oxygen (%)	HRR (W/g)	Heating rate (C/s)
0.000	109.093	80.006	19.997	103.002	19.867	0.009	-0.025
8.000	109.110	80.003	19.996	103.009	19.863	0.310	-0.034
16.000	109.153	80.003	19.996	103.061	19.858	0.655	0.012
24.000	109.449	80.006	19.996	103.131	19.845	1.570	0.089
32.000	110.150	80.004	19.995	103.204	19.828	2.729	0.092
40.001	111.412	80.006	19.995	103.244	19.823	3.139	0.181
48.001	113.155	80.006	19.993	103.257	19.817	3.497	0.245
56.000	115.308	80.005	19.993	103.285	19.813	3.822	0.264
64.000	117.880	80.007	19.994	103.284	19.813	3.783	0.332
72.000	120.783	80.007	19.993	103.284	19.814	3.751	0.419
80.000	123.952	80.003	19.996	103.286	19.811	3.940	0.387
88.001	127.304	80.004	19.994	103.278	19.809	4.056	0.400
96.000	130.864	80.003	19.995	103.282	19.810	4.016	0.458
104.000	134.510	80.005	19.995	103.283	19.809	4.076	0.491
112.000	138.275	80.004	19.996	103.282	19.804	4.401	0.454
120.000	142.199	80.005	19.995	103.285	19.808	4.122	0.467
128.000	146.268	80.007	19.995	103.283	19.803	4.529	0.520
136.000	150.366	80.005	19.995	103.272	19.805	4.368	0.524
144.000	154.464	80.005	19.995	103.261	19.804	4.457	0.523
152.000	158.557	80.008	19.994	103.247	19.799	4.754	0.525
160.000	162.618	80.006	19.994	103.243	19.802	4.568	0.518
168.000	166.717	80.005	19.995	103.243	19.797	4.891	0.518
176.000	170.744	80.006	19.994	103.243	19.795	5.038	0.480
184.001	174.702	80.004	19.995	103.240	19.792	5.271	0.460
192.000	178.651	80.003	19.994	103.237	19.791	5.370	0.491
200.000	182.629	80.003	19.996	103.235	19.794	5.124	0.523
208.000	186.600	80.006	19.994	103.241	19.788	5.521	0.503
216.000	190.543	80.006	19.993	103.219	19.788	5.536	0.484
224.000	194.518	80.005	19.994	103.211	19.785	5.781	0.501
232.000	198.385	80.007	19.994	103.210	19.779	6.187	0.472
240.000	202.380	80.007	19.994	103.213	19.772	6.673	0.496
248.000	206.281	80.005	19.993	103.210	19.766	7.110	0.487
256.000	210.251	80.004	19.994	103.214	19.761	7.416	0.501
264.000	214.190	80.004	19.994	103.210	19.754	7.950	0.503
272.000	218.174	80.004	19.994	103.211	19.745	8.575	0.491
280.001	222.098	80.004	19.995	103.210	19.741	8.831	0.490
288.000	226.047	80.006	19.995	103.211	19.730	9.582	0.477
296.000	230.103	80.006	19.996	103.204	19.727	9.829	0.500
304.000	234.094	80.006	19.994	103.213	19.719	10.334	0.507
312.000	238.085	80.006	19.994	103.214	19.714	10.680	0.519
320.000	242.060	80.008	19.994	103.214	19.705	11.353	0.512
328.000	246.070	80.002	19.994	103.220	19.697	11.892	0.516
336.000	250.081	80.003	19.994	103.219	19.689	12.469	0.510
344.000	254.137	80.005	19.995	103.242	19.681	12.977	0.483
352.000	258.158	80.006	19.994	103.233	19.667	13.968	0.506
360.000	262.144	80.004	19.996	103.227	19.660	14.503	0.489
368.000	266.131	80.007	19.995	103.243	19.649	15.234	0.511
376.000	270.157	80.005	19.994	103.243	19.638	15.978	0.497
384.000	274.173	80.003	19.995	103.245	19.628	16.692	0.515
392.000	278.194	80.007	19.995	103.251	19.610	17.937	0.528
400.000	282.207	80.006	19.994	103.248	19.596	18.933	0.492
408.000	286.231	80.005	19.994	103.254	19.576	20.311	0.485
416.000	290.193	80.004	19.993	103.255	19.559	21.523	0.511
424.000	294.224	80.005	19.994	103.278	19.538	22.954	0.491
432.000	298.272	80.004	19.995	103.282	19.512	24.776	0.508
440.000	302.307	80.004	19.997	103.298	19.484	26.782	0.504
448.000	306.396	80.006	19.995	103.298	19.448	29.247	0.498
456.000	310.430	80.006	19.995	103.317	19.412	31.782	0.519
464.000	314.496	80.006	19.995	103.325	19.372	34.598	0.533
472.000	318.538	80.006	19.994	103.322	19.333	37.274	0.510
480.000	322.565	80.008	19.995	103.335	19.291	40.261	0.503
488.000	326.562	80.004	19.995	103.353	19.254	42.817	0.483
496.001	330.633	80.004	19.996	103.360	19.215	45.538	0.503
504.000	334.699	80.004	19.994	103.367	19.176	48.274	0.538
512.000	338.683	80.005	19.994	103.369	19.141	50.715	0.507
520.000	342.734	80.004	19.994	103.371	19.108	53.012	0.505
528.000	346.750	80.004	19.995	103.397	19.069	55.787	0.501
536.000	350.818	80.007	19.995	103.404	19.027	58.719	0.523
544.000	354.902	80.006	19.995	103.431	18.979	62.089	0.524
552.000	358.970	80.007	19.996	103.433	18.934	65.237	0.516
560.000	363.031	80.008	19.996	103.437	18.889	68.384	0.509
568.000	367.093	80.004	19.996	103.443	18.852	70.924	0.536
576.000	371.044	80.004	19.995	103.439	18.843	71.514	0.468
584.000	375.133	80.004	19.994	103.406	18.876	69.191	0.473
592.000	379.252	80.004	19.995	103.361	18.954	63.690	0.521
600.000	383.336	80.004	19.994	103.290	19.079	54.970	0.558
608.000	387.371	80.005	19.996	103.235	19.237	43.922	0.502
616.000	391.452	80.007	19.994	103.193	19.398	32.731	0.497
624.000	395.570	80.007	19.993	103.165	19.530	23.540	0.530
632.000	399.658	80.005	19.996	103.145	19.619	17.329	0.506
640.000	403.769	80.007	19.993	103.152	19.665	14.107	0.533
648.000	407.828	80.006	19.995	103.135	19.688	12.502	0.522
656.000	411.913	80.005	19.994	103.143	19.700	11.703	0.517
664.000	415.874	80.004	19.995	103.147	19.709	11.075	0.523
672.000	419.927	80.004	19.996	103.134	19.710	10.957	0.513
680.000	424.030	80.004	19.996	103.130	19.723	10.083	0.513
688.000	428.096	80.005	19.994	103.138	19.727	9.812	0.523
696.000	432.123	80.006	19.993	103.131	19.734	9.332	0.464
704.000	436.291	80.006	19.995	103.130	19.744	8.606	0.513
712.000	440.360	80.005	19.994	103.135	19.744	8.619	0.512
720.000	444.418	80.007	19.993	103.131	19.750	8.169	0.499
728.000	448.479	80.007	19.994	103.126	19.759	7.563	0.507
736.000	452.590	80.004	19.995	103.126	19.765	7.129	0.520
744.000	456.653	80.004	19.994	103.125	19.771	6.745	0.482
752.000	460.764	80.006	19.994	103.127	19.779	6.137	0.482
760.000	464.816	80.003	19.996	103.125	19.782	5.952	0.501
768.000	468.972	80.002	19.995	103.129	19.788	5.555	0.508
776.000	473.042	80.004	19.995	103.130	19.787	5.581	0.492
784.000	477.223	80.005	19.994	103.130	19.792	5.245	0.495
792.000	481.378	80.003	19.994	103.129	19.798	4.826	0.536
800.000	485.565	80.006	19.994	103.130	19.799	4.796	0.503
808.000	489.731	80.007	19.994	103.125	19.802	4.593	0.527
816.000	493.840	80.003	19.995	103.123	19.803	4.483	0.514
824.000	498.062	80.004	19.995	103.124	19.807	4.250	0.514
832.000	502.193	80.005	19.995	103.129	19.809	4.051	0.524
840.000	506.295	80.004	19.995	103.124	19.811	3.956	0.499
848.000	510.343	80.003	19.994	103.128	19.809	4.085	0.491
856.000	514.294	80.002	19.996	103.124	19.808	4.123	0.466
864.001	518.328	80.006	19.993	103.114	19.810	4.031	0.492
872.000	522.304	80.004	19.995	103.109	19.807	4.185	0.515
880.000	526.323	80.006	19.994	103.121	19.807	4.188	0.515
888.000	530.349	80.008	19.994	103.122	19.809	4.055	0.501
896.000	534.556	80.004	19.993	103.128	19.806	4.313	0.503
904.000	538.795	80.003	19.994	103.128	19.807	4.224	0.529
912.000	543.019	80.004	19.994	103.119	19.807	4.222	0.560
920.000	547.174	80.005	19.995	103.129	19.806	4.294	0.512
928.000	551.337	80.004	19.994	103.124	19.807	4.240	0.522
936.000	555.417	80.005	19.994	103.116	19.807	4.217	0.505
944.000	559.516	80.004	19.995	103.111	19.805	4.335	0.498
952.000	563.495	80.004	19.994	103.115	19.808	4.165	0.490
960.000	567.486	80.005	19.993	103.117	19.807	4.229	0.499
968.000	571.541	80.006	19.994	103.124	19.806	4.257	0.471
976.001	575.619	80.004	19.995	103.123	19.798	4.856	0.512
984.000	579.720	80.003	19.995	103.125	19.806	4.303	0.479
992.000	584.106	80.005	19.994	103.124	19.804	4.408	1.149
1000.000	587.955	80.003	19.996	103.116	19.808	4.170	0.551
1008.000	591.884	80.004	19.995	103.095	19.806	4.299	0.464
1016.000	595.916	80.004	19.995	103.104	19.809	4.065	0.477
1024.000	599.979	80.007	19.994	103.111	19.804	4.404	0.504
1032.000	603.980	80.004	19.994	103.116	19.808	4.162	0.506
1040.000	607.965	80.004	19.997	103.128	19.811	3.971	0.495
1048.000	612.039	80.006	19.994	103.107	19.810	4.030	0.505
1056.000	616.164	80.006	19.994	103.108	19.805	4.328	0.513
1064.001	620.271	80.004	19.994	103.110	19.806	4.262	0.485
1072.001	624.458	80.005	19.995	103.121	19.806	4.319	0.506
1080.000	628.637	80.004	19.994	103.105	19.804	4.407	0.523
1088.001	632.822	80.004	19.993	103.111	19.803	4.475	0.524
1096.000	637.076	80.005	19.994	103.108	19.803	4.462	0.520
1104.001	641.236	80.005	19.994	103.100	19.802	4.544	0.538
1112.000	645.458	80.006	19.993	103.106	19.804	4.414	0.527
1120.000	649.576	80.006	19.995	103.096	19.809	4.088	0.525
1128.001	653.736	80.006	19.995	103.097	19.806	4.307	0.514
1136.001	657.850	80.006	19.995	103.102	19.812	3.867	0.493
1144.001	661.984	80.004	19.994	103.113	19.808	4.135	0.541
1152.000	666.018	80.004	19.994	103.099	19.807	4.195	0.470
1160.000	670.019	80.006	19.995	103.094	19.805	4.367	0.537
1168.000	673.986	80.003	19.995	103.094	19.805	4.369	0.494
1176.000	677.975	80.005	19.994	103.094	19.803	4.496	0.497
1184.000	682.108	80.005	19.993	103.091	19.802	4.593	0.835
1192.000	685.951	80.006	19.995	103.093	19.806	4.293	0.510
1200.000	689.954	80.004	19.994	103.089	19.807	4.246	0.565
1208.001	694.044	80.006	19.994	103.089	19.806	4.290	0.536
1216.000	698.160	80.006	19.994	103.089	19.808	4.128	0.515
1224.000	702.253	80.004	19.995	103.096	19.810	3.980	0.537
1232.000	706.290	80.003	19.995	103.098	19.805	4.358	0.495
1240.000	710.377	80.005	19.993	103.091	19.806	4.307	0.520
1248.001	714.312	80.005	19.994	103.087	19.802	4.547	0.461
1256.001	718.306	80.004	19.994	103.088	19.804	4.437	0.509
1264.001	722.266	80.005	19.994	103.093	19.802	4.569	0.498
1272.001	726.205	80.009	19.994	103.089	19.804	4.419	0.515
1280.000	730.192	80.005	19.995	103.091	19.804	4.427	0.488
1288.000	734.253	80.005	19.995	103.091	19.804	4.437	0.518
1296.000	738.241	80.006	19.994	103.089	19.802	4.587	0.533
1304.000	742.288	80.005	19.995	103.090	19.802	4.539	0.488
1306.000	743.320	80.005	19.994	103.090	19.799	4.801	0.477