Folder: fsri_materials_database/01_Data/Cedar_Shingle/MCC

Note: 01_Data/README.md
# Materials and Products Database
## 01_Data

Raw data generated from each apparatus are included here in plain-text format. The data is organized first by material, next by the short name of test apparatus used, and where applicable additional filtering by test settings.

### material.json

Each material directory contains a json file of the same name as the material. This file links the data stored in the repository as well as data and graphs produced by the accompanying scripts (__02_Scripts__) to the respective landing page for the material on the front-end website.

File: Cedar_Shingle_MCC_30K_min_211215_R3.txt
Sample ID:	C:\MCC\MCC Cal\Test\Cedar_Single_MCC_30K_min_211215_R3.txt
Sample Weight (mg):	4.8
Heating Rate (C/s):	0.5
Combustor Temp (C):	900
N2 Flow Rate (cc/min):	80
O2 Flow Rate (cc/min):	20
Calibration File:	C:\MCC\MCC Cal\Coeff1 JN10440_30_210304.txt.txt
T Correction Coefficients:	0	1.024463	0
Time Shift (s):	14
*
Time (s)	Temperature (C)	N2 flow rate (cc/min)	O2 flow rate (cc/min)	Flow Rate (cc/min)	Oxygen (%)	HRR (W/g)	Heating rate (C/s)
-0.001	109.428	80.003	19.996	102.972	20.366	-0.060	0.014
8.000	109.458	80.002	20.000	102.978	20.366	-0.053	-0.006
16.000	109.497	80.003	19.995	103.090	20.350	1.010	0.026
23.999	109.979	80.003	19.995	103.168	20.335	2.040	0.084
31.999	110.939	80.001	19.996	103.209	20.325	2.664	0.119
40.000	112.438	80.003	19.995	103.239	20.319	3.097	0.198
48.000	114.406	80.005	19.995	103.242	20.314	3.399	0.215
55.999	116.832	80.004	19.996	103.226	20.317	3.241	0.327
63.999	119.443	80.004	19.996	103.222	20.315	3.364	0.324
71.999	122.420	80.007	19.995	103.233	20.315	3.373	0.416
79.999	125.589	80.011	19.996	103.248	20.316	3.258	0.426
88.001	128.789	80.004	19.996	103.238	20.313	3.505	0.404
96.000	132.269	79.999	19.997	103.254	20.313	3.512	0.492
103.999	135.856	80.003	19.998	103.249	20.318	3.143	0.467
111.999	139.512	80.002	19.998	103.244	20.318	3.150	0.449
119.999	143.263	80.004	19.991	103.241	20.317	3.212	0.460
128.000	147.178	80.008	19.995	103.242	20.315	3.362	0.492
136.000	151.040	80.004	19.996	103.242	20.314	3.402	0.481
144.000	154.919	80.005	19.992	103.238	20.308	3.787	0.498
152.000	158.836	80.003	19.995	103.233	20.304	4.071	0.457
160.000	162.784	80.005	19.996	103.217	20.304	4.105	0.501
168.000	166.740	80.004	19.995	103.213	20.305	4.054	0.505
176.000	170.703	80.000	19.997	103.227	20.298	4.471	0.467
184.000	174.763	80.002	19.998	103.214	20.301	4.297	0.565
192.000	178.714	80.003	19.996	103.215	20.294	4.749	0.547
200.000	182.703	80.003	19.993	103.213	20.296	4.622	0.487
208.000	186.702	80.002	19.993	103.214	20.294	4.776	0.478
216.000	190.762	80.003	19.995	103.214	20.286	5.278	0.482
224.000	194.723	80.006	19.994	103.212	20.283	5.488	0.485
231.999	198.620	80.000	19.996	103.200	20.274	6.126	0.480
240.000	202.624	80.006	19.994	103.182	20.275	6.040	0.487
247.999	206.617	80.002	19.997	103.208	20.263	6.843	0.507
255.999	210.627	80.004	19.995	103.197	20.260	7.059	0.505
264.000	214.609	80.007	19.995	103.194	20.252	7.580	0.514
272.000	218.523	80.007	19.996	103.193	20.239	8.421	0.470
280.000	222.490	80.002	19.996	103.203	20.231	8.967	0.499
288.000	226.489	80.007	19.995	103.197	20.231	9.001	0.578
296.000	230.446	80.004	19.995	103.201	20.223	9.519	0.482
304.000	234.396	80.002	19.995	103.216	20.221	9.667	0.485
312.000	238.367	80.015	19.995	103.213	20.207	10.621	0.517
320.000	242.273	80.003	19.995	103.213	20.196	11.301	0.494
328.000	246.215	80.005	19.995	103.212	20.190	11.734	0.496
336.000	250.248	80.003	19.995	103.213	20.181	12.315	0.497
344.000	254.243	80.002	19.994	103.220	20.171	13.022	0.482
352.000	258.309	80.002	19.995	103.227	20.162	13.611	0.545
360.000	262.289	80.002	19.997	103.235	20.149	14.518	0.509
368.000	266.261	80.001	19.996	103.240	20.135	15.428	0.470
376.000	270.247	80.002	19.996	103.244	20.124	16.152	0.517
384.000	274.282	80.004	19.994	103.252	20.107	17.305	0.515
392.000	278.224	80.003	19.995	103.252	20.093	18.252	0.496
400.000	282.211	80.002	19.995	103.254	20.079	19.223	0.515
408.000	286.182	80.004	19.995	103.261	20.065	20.113	0.511
416.000	290.175	80.002	19.995	103.268	20.044	21.580	0.507
424.000	294.160	80.010	19.994	103.268	20.022	23.014	0.482
432.000	298.155	80.015	19.994	103.295	19.996	24.789	0.501
440.000	302.165	80.015	19.993	103.290	19.968	26.657	0.539
448.000	306.234	80.005	19.995	103.304	19.934	28.936	0.508
456.000	310.225	79.998	19.997	103.311	19.896	31.503	0.515
464.000	314.267	80.007	19.997	103.325	19.852	34.419	0.519
472.000	318.288	80.009	19.994	103.329	19.810	37.309	0.487
480.000	322.331	79.998	19.996	103.349	19.767	40.144	0.506
488.000	326.290	80.001	19.995	103.356	19.724	43.071	0.491
496.000	330.286	80.003	19.996	103.367	19.685	45.701	0.503
504.000	334.375	79.999	19.994	103.367	19.642	48.549	0.531
512.000	338.408	80.006	19.995	103.383	19.605	51.095	0.492
520.000	342.511	80.005	19.995	103.409	19.565	53.789	0.557
528.000	346.606	80.009	19.994	103.414	19.521	56.712	0.511
536.000	350.722	80.005	19.995	103.429	19.474	59.885	0.487
544.000	354.923	80.001	19.996	103.444	19.422	63.423	0.500
552.000	359.081	80.003	19.997	103.442	19.369	66.985	0.545
560.000	363.173	80.019	19.992	103.470	19.317	70.451	0.520
568.000	367.265	80.002	19.995	103.457	19.270	73.614	0.517
576.000	371.326	80.002	19.995	103.460	19.264	74.021	0.503
584.000	375.339	80.002	19.995	103.435	19.290	72.228	0.479
592.000	379.335	80.005	19.994	103.395	19.366	67.067	0.505
600.000	383.323	80.001	19.993	103.334	19.488	58.836	0.459
608.001	387.316	80.005	19.995	103.278	19.652	47.840	0.466
616.000	391.283	80.001	19.996	103.225	19.829	35.969	0.483
624.000	395.410	80.005	19.995	103.201	19.976	26.067	0.537
632.000	399.461	80.021	19.993	103.176	20.076	19.409	0.497
640.000	403.631	80.004	19.995	103.170	20.130	15.730	0.527
648.000	407.753	80.001	19.995	103.166	20.160	13.709	0.510
656.000	411.890	80.003	19.995	103.163	20.174	12.789	0.523
664.000	416.024	80.006	19.995	103.162	20.183	12.168	0.514
672.000	420.147	80.003	19.994	103.168	20.189	11.774	0.533
680.000	424.245	80.000	19.996	103.168	20.196	11.347	0.497
688.000	428.391	80.004	19.995	103.160	20.200	11.062	0.521
696.000	432.458	80.004	19.995	103.157	20.204	10.804	0.548
704.000	436.536	80.005	19.994	103.148	20.209	10.446	0.516
712.000	440.544	80.006	19.993	103.154	20.213	10.192	0.496
720.000	444.475	80.005	19.994	103.145	20.222	9.604	0.479
728.000	448.493	80.002	19.995	103.141	20.227	9.242	0.515
736.000	452.467	80.003	19.996	103.146	20.233	8.860	0.479
744.000	456.440	80.006	19.995	103.147	20.234	8.801	0.500
752.000	460.516	80.005	19.993	103.136	20.243	8.179	0.507
760.000	464.546	80.005	19.995	103.147	20.252	7.597	0.523
768.000	468.599	80.005	19.995	103.138	20.253	7.535	0.504
776.000	472.617	80.004	19.997	103.136	20.254	7.412	0.478
784.000	476.713	80.005	19.995	103.147	20.258	7.193	0.490
792.000	480.817	80.009	19.996	103.151	20.260	7.011	0.513
800.000	484.791	80.002	20.001	103.143	20.261	6.937	0.480
808.000	488.915	80.004	19.997	103.136	20.260	7.035	0.512
816.000	492.978	80.003	19.992	103.135	20.263	6.842	0.500
824.000	497.014	80.003	19.997	103.133	20.259	7.081	0.484
832.000	501.127	80.004	19.996	103.133	20.256	7.282	0.546
840.000	505.072	80.001	19.997	103.131	20.264	6.774	0.501
848.000	509.116	80.005	19.995	103.140	20.263	6.833	0.539
856.000	513.212	80.005	19.993	103.134	20.264	6.762	0.528
864.000	517.269	80.005	19.997	103.136	20.262	6.911	0.510
872.000	521.359	80.007	19.994	103.136	20.260	7.009	0.500
880.000	525.477	80.008	19.996	103.140	20.260	7.004	0.520
888.000	529.676	80.002	19.999	103.140	20.259	7.110	0.544
896.000	533.863	80.004	19.994	103.134	20.252	7.599	0.525
904.000	538.053	80.004	19.994	103.135	20.251	7.636	0.509
912.000	542.189	80.004	19.996	103.136	20.252	7.578	0.516
920.000	546.121	79.999	19.999	103.136	20.253	7.527	0.245
928.000	550.351	80.002	19.998	103.135	20.253	7.488	0.417
936.000	554.574	80.003	19.996	103.136	20.252	7.604	0.533
944.000	558.717	80.003	19.995	103.132	20.249	7.748	0.477
952.000	562.897	80.005	19.993	103.134	20.245	8.071	0.539
960.000	566.932	80.004	19.994	103.130	20.245	8.065	0.501
968.000	571.037	80.003	19.993	103.132	20.242	8.217	0.478
976.000	575.191	80.005	19.994	103.138	20.241	8.314	0.519
984.000	579.309	80.005	19.994	103.139	20.238	8.506	0.534
992.000	583.360	80.003	19.994	103.139	20.237	8.559	0.507
1000.000	587.442	80.004	19.992	103.138	20.238	8.505	0.506
1008.001	591.549	79.999	19.996	103.139	20.235	8.702	0.495
1016.000	595.637	80.008	19.992	103.130	20.234	8.792	0.501
1024.001	599.661	80.005	19.995	103.130	20.234	8.805	0.531
1032.000	603.685	80.005	19.996	103.134	20.235	8.734	0.507
1039.999	607.771	80.004	19.992	103.135	20.226	9.295	0.524
1047.999	611.881	80.006	19.994	103.133	20.230	9.066	0.524
1056.000	616.053	80.004	19.993	103.131	20.225	9.410	0.511
1063.999	620.154	80.004	19.995	103.138	20.218	9.835	0.493
1071.999	624.238	80.004	19.994	103.136	20.226	9.322	0.502
1080.000	628.265	80.004	19.994	103.131	20.226	9.290	0.516
1088.000	632.247	80.004	19.997	103.136	20.225	9.353	0.525
1096.000	636.247	80.003	19.996	103.126	20.223	9.488	0.497
1103.999	640.224	80.005	19.995	103.132	20.216	10.012	0.507
1111.999	644.384	80.004	19.995	103.139	20.210	10.372	0.509
1119.999	648.482	80.005	19.995	103.135	20.214	10.118	0.514
1128.000	652.742	80.006	19.994	103.130	20.207	10.598	0.529
1135.999	656.916	80.005	19.995	103.132	20.206	10.657	0.536
1143.999	661.091	80.003	19.996	103.134	20.208	10.549	0.569
1151.999	665.215	80.004	19.995	103.133	20.209	10.466	0.508
1159.999	669.281	80.005	19.994	103.119	20.204	10.782	0.522
1168.000	673.362	80.003	19.995	103.111	20.206	10.647	0.484
1175.999	677.428	80.005	19.995	103.124	20.206	10.646	0.502
1183.999	681.426	80.004	19.995	103.124	20.200	11.053	0.485
1191.999	685.462	80.005	19.995	103.131	20.202	10.912	0.491
1199.999	689.385	80.005	19.994	103.124	20.200	11.085	0.512
1207.999	693.446	80.005	19.995	103.116	20.200	11.057	0.508
1216.000	697.522	80.005	19.996	103.116	20.194	11.428	0.498
1223.999	701.492	80.003	19.995	103.119	20.190	11.739	0.502
1232.000	705.460	80.005	19.995	103.121	20.190	11.716	0.476
1239.999	709.526	80.004	19.995	103.119	20.191	11.673	0.525
1248.000	713.605	80.003	19.995	103.122	20.187	11.944	0.527
1255.999	717.724	80.003	19.994	103.113	20.183	12.179	0.526
1263.999	721.771	80.005	19.995	103.122	20.183	12.189	0.519
1272.000	725.813	80.004	19.995	103.124	20.180	12.378	0.483
1280.000	729.946	80.004	19.995	103.130	20.177	12.609	0.516
1288.000	734.025	80.006	19.994	103.126	20.174	12.769	0.503
1295.999	738.095	80.007	19.995	103.128	20.168	13.172	0.497
1303.999	742.262	80.003	19.995	103.128	20.171	13.013	0.524
1309.999	745.281	80.004	19.995	103.121	20.164	13.482	0.498

File: Cedar_Single_MCC_30K_min_211214_R1.txt
Sample ID:	C:\MCC\MCC Cal\Test\Cedar_Single_MCC_30K_min_211214_R1.txt
Sample Weight (mg):	4.66
Heating Rate (C/s):	0.5
Combustor Temp (C):	900
N2 Flow Rate (cc/min):	80
O2 Flow Rate (cc/min):	20
Calibration File:	C:\MCC\MCC Cal\Coeff1 JN10440_30_210304.txt.txt
T Correction Coefficients:	0	1.024463	0
Time Shift (s):	14
*
Time (s)	Temperature (C)	N2 flow rate (cc/min)	O2 flow rate (cc/min)	Flow Rate (cc/min)	Oxygen (%)	HRR (W/g)	Heating rate (C/s)
0.000	109.110	80.005	19.994	103.013	19.803	0.123	-0.040
8.001	109.164	80.005	19.993	103.014	19.802	0.193	-0.007
16.000	109.176	80.005	19.996	103.071	19.796	0.588	0.038
24.000	109.327	80.005	19.993	103.126	19.788	1.096	0.004
32.001	109.768	80.006	19.993	103.173	19.778	1.820	0.083
40.001	110.713	80.005	19.995	103.221	19.766	2.642	0.166
48.001	111.971	80.005	19.994	103.249	19.758	3.174	0.199
56.000	113.731	80.007	19.994	103.281	19.755	3.393	0.206
64.000	115.978	80.006	19.994	103.286	19.750	3.748	0.308
72.000	118.581	80.005	19.995	103.298	19.750	3.782	0.336
80.001	121.430	80.004	19.995	103.290	19.751	3.714	0.397
88.000	124.606	80.007	19.993	103.291	19.747	3.951	0.399
96.000	127.932	80.005	19.994	103.290	19.745	4.089	0.431
104.001	131.396	80.003	19.994	103.288	19.749	3.804	0.461
112.001	134.977	80.006	19.994	103.287	19.749	3.846	0.452
120.000	138.750	80.007	19.995	103.286	19.750	3.780	0.464
128.000	142.642	80.007	19.995	103.286	19.752	3.641	0.507
136.001	146.598	80.008	19.995	103.282	19.747	3.982	0.499
144.000	150.581	80.008	19.995	103.280	19.748	3.929	0.489
152.000	154.549	80.006	19.995	103.283	19.744	4.186	0.486
160.000	158.614	80.005	19.996	103.278	19.742	4.341	0.481
168.000	162.636	80.004	19.996	103.273	19.742	4.335	0.464
176.001	166.745	80.004	19.994	103.267	19.740	4.454	0.513
184.000	170.739	80.005	19.994	103.246	19.738	4.557	0.483
192.000	174.757	80.007	19.994	103.246	19.738	4.588	0.500
200.000	178.696	80.006	19.993	103.244	19.739	4.518	0.471
208.000	182.638	80.005	19.994	103.246	19.735	4.783	0.482
216.000	186.670	80.008	19.994	103.248	19.732	4.989	0.518
224.001	190.599	80.007	19.995	103.237	19.730	5.156	0.477
232.000	194.553	80.003	19.995	103.242	19.727	5.352	0.471
240.000	198.465	80.004	19.996	103.245	19.721	5.759	0.487
248.000	202.375	80.006	19.996	103.235	19.717	6.019	0.486
256.000	206.315	80.005	19.995	103.235	19.710	6.509	0.490
264.000	210.321	80.005	19.997	103.233	19.703	6.978	0.514
272.000	214.288	80.007	19.994	103.237	19.698	7.315	0.494
280.000	218.203	80.006	19.995	103.227	19.691	7.821	0.510
288.001	222.218	80.006	19.994	103.229	19.682	8.453	0.477
296.000	226.163	80.007	19.992	103.235	19.677	8.790	0.484
304.000	230.204	80.008	19.994	103.243	19.672	9.128	0.504
312.000	234.221	80.005	19.995	103.234	19.663	9.744	0.499
320.000	238.220	80.005	19.995	103.231	19.655	10.311	0.471
328.000	242.224	80.005	19.994	103.242	19.648	10.812	0.517
336.000	246.241	80.005	19.994	103.243	19.639	11.458	0.523
344.000	250.283	80.004	19.995	103.246	19.633	11.863	0.501
352.000	254.264	80.006	19.995	103.245	19.619	12.811	0.487
360.000	258.290	80.006	19.994	103.247	19.613	13.261	0.503
368.000	262.288	80.007	19.994	103.260	19.599	14.186	0.500
376.000	266.350	80.008	19.994	103.255	19.583	15.269	0.511
384.000	270.380	80.008	19.994	103.251	19.571	16.117	0.547
392.000	274.373	80.006	19.994	103.269	19.558	16.999	0.517
400.000	278.426	80.006	19.993	103.279	19.545	17.931	0.488
408.000	282.470	80.005	19.994	103.281	19.530	18.989	0.513
416.000	286.450	80.004	19.994	103.285	19.510	20.331	0.488
424.000	290.481	80.005	19.995	103.289	19.492	21.630	0.513
432.000	294.525	80.004	19.995	103.302	19.468	23.252	0.519
440.000	298.574	80.007	19.994	103.303	19.445	24.888	0.540
448.000	302.571	80.005	19.995	103.318	19.413	27.099	0.487
456.000	306.640	80.008	19.995	103.320	19.375	29.699	0.522
464.000	310.622	80.007	19.993	103.335	19.345	31.812	0.513
472.000	314.682	80.005	19.993	103.350	19.301	34.860	0.514
480.000	318.735	80.004	19.993	103.362	19.263	37.498	0.505
488.000	322.776	80.005	19.995	103.366	19.221	40.340	0.530
496.000	326.789	80.005	19.993	103.374	19.180	43.209	0.509
504.000	330.794	80.004	19.994	103.400	19.140	45.967	0.497
512.000	334.882	80.007	19.995	103.400	19.101	48.685	0.516
520.000	338.908	80.006	19.996	103.400	19.068	51.009	0.536
528.000	342.920	80.007	19.995	103.404	19.027	53.807	0.495
536.000	346.941	80.007	19.995	103.435	18.988	56.520	0.526
544.000	350.966	80.007	19.995	103.441	18.945	59.555	0.510
552.000	355.044	80.003	19.993	103.451	18.895	63.009	0.514
560.000	359.096	80.005	19.993	103.477	18.847	66.333	0.523
568.000	363.092	80.005	19.994	103.478	18.803	69.349	0.521
576.000	367.170	80.006	19.995	103.478	18.780	70.943	0.506
584.000	371.199	80.005	19.995	103.450	18.786	70.528	0.495
592.000	375.247	80.006	19.994	103.409	18.841	66.657	0.502
600.000	379.294	80.007	19.996	103.361	18.943	59.585	0.446
608.000	383.368	80.005	19.995	103.288	19.088	49.500	0.498
616.000	387.362	80.005	19.994	103.241	19.261	37.554	0.504
624.000	391.436	80.006	19.993	103.203	19.412	27.117	0.500
632.000	395.538	80.003	19.997	103.170	19.528	19.110	0.534
640.000	399.549	80.005	19.995	103.167	19.594	14.537	0.513
648.000	403.512	80.003	19.994	103.167	19.628	12.170	0.497
656.000	407.523	80.003	19.994	103.166	19.647	10.900	0.502
664.000	411.548	80.004	19.995	103.168	19.655	10.320	0.493
672.000	415.616	80.004	19.994	103.171	19.661	9.877	0.515
680.000	419.622	80.007	19.993	103.169	19.671	9.204	0.496
688.000	423.693	80.006	19.993	103.170	19.674	9.013	0.482
696.001	427.906	80.006	19.994	103.168	19.676	8.863	0.518
704.000	432.084	80.009	19.994	103.164	19.688	8.033	0.554
712.000	436.305	80.004	19.994	103.166	19.686	8.142	0.501
720.000	440.587	80.005	19.996	103.164	19.699	7.299	0.522
728.000	444.783	80.005	19.995	103.162	19.702	7.034	0.553
736.000	448.916	80.005	19.993	103.161	19.710	6.524	0.493
744.000	453.084	80.004	19.994	103.155	19.716	6.070	0.505
752.000	457.214	80.005	19.994	103.163	19.725	5.464	0.529
760.000	461.364	80.006	19.996	103.155	19.731	5.062	0.484
768.000	465.372	80.006	19.997	103.158	19.743	4.256	0.508
776.000	469.298	80.008	19.993	103.142	19.746	4.041	0.520
784.000	473.187	80.008	19.996	103.139	19.752	3.587	0.515
792.000	477.113	80.005	19.995	103.144	19.751	3.694	0.502
800.000	480.966	80.006	19.995	103.143	19.751	3.650	0.476
808.000	484.891	80.005	19.995	103.149	19.755	3.416	0.496
816.000	488.920	80.004	19.997	103.141	19.757	3.286	0.518
824.000	492.940	80.003	19.995	103.157	19.755	3.411	0.485
832.000	497.155	80.004	19.994	103.162	19.757	3.302	0.525
840.000	501.490	80.008	19.993	103.153	19.759	3.148	0.493
848.000	505.770	80.007	19.992	103.162	19.761	2.993	0.535
856.000	510.132	80.006	19.995	103.148	19.761	3.014	0.554
864.000	514.330	80.008	19.994	103.148	19.764	2.799	0.585
872.000	518.730	80.006	19.993	103.149	19.760	3.038	0.507
880.000	523.117	80.005	19.996	103.154	19.761	2.960	0.490
888.000	527.062	80.005	19.994	103.132	19.760	3.074	0.545
896.000	531.252	80.006	19.995	103.138	19.764	2.752	0.508
904.000	535.395	80.005	19.995	103.131	19.765	2.743	0.575
912.000	539.362	80.004	19.997	103.134	19.763	2.875	0.505
920.000	543.340	80.006	19.993	103.131	19.764	2.793	0.458
928.000	547.366	80.005	19.993	103.126	19.765	2.719	0.505
936.000	551.369	80.006	19.994	103.137	19.765	2.710	0.526
944.000	555.440	80.007	19.992	103.129	19.764	2.782	0.520
952.000	559.491	80.007	19.993	103.130	19.765	2.713	0.500
960.001	563.549	80.007	19.994	103.136	19.767	2.561	0.489
968.000	567.666	80.005	19.995	103.133	19.773	2.162	0.523
976.000	571.843	80.006	19.995	103.133	19.770	2.372	0.502
984.000	576.105	80.005	19.995	103.133	19.770	2.390	0.519
992.000	580.310	80.004	19.995	103.140	19.769	2.460	0.562
1000.000	584.491	80.005	19.997	103.141	19.769	2.445	0.502
1008.000	588.719	80.005	19.995	103.135	19.771	2.311	0.524
1016.000	592.860	80.007	19.995	103.131	19.770	2.399	0.525
1024.000	597.038	80.008	19.994	103.127	19.768	2.483	0.546
1032.000	601.090	80.007	19.993	103.130	19.771	2.309	0.526
1040.000	605.151	80.005	19.995	103.127	19.768	2.517	0.482
1048.000	609.222	80.005	19.994	103.127	19.772	2.263	0.513
1056.000	613.278	80.005	19.995	103.128	19.765	2.712	0.516
1064.000	617.389	80.004	19.995	103.134	19.769	2.465	0.519
1072.000	621.421	80.004	19.993	103.132	19.769	2.430	0.508
1080.001	625.505	80.005	19.995	103.130	19.770	2.380	0.512
1088.000	629.574	80.006	19.995	103.124	19.770	2.342	0.515
1096.000	633.687	80.006	19.995	103.123	19.768	2.482	0.541
1104.001	637.754	80.006	19.994	103.125	19.770	2.397	0.528
1112.001	641.852	80.006	19.995	103.125	19.771	2.285	0.529
1120.000	645.889	80.006	19.995	103.125	19.772	2.217	0.513
1128.000	649.975	80.005	19.994	103.123	19.771	2.318	0.519
1136.000	654.109	80.006	19.994	103.128	19.771	2.283	0.531
1144.000	658.127	80.006	19.993	103.123	19.769	2.456	0.507
1152.000	662.144	80.005	19.993	103.127	19.768	2.474	0.477
1160.000	666.244	80.007	19.994	103.118	19.764	2.757	0.504
1168.001	670.365	80.007	19.995	103.124	19.768	2.506	0.493
1176.000	674.456	80.006	19.995	103.125	19.768	2.520	0.894
1184.000	678.531	80.006	19.995	103.125	19.768	2.498	0.536
1192.000	682.626	80.006	19.995	103.123	19.766	2.671	0.532
1200.000	686.643	80.005	19.993	103.123	19.770	2.375	0.484
1208.000	690.818	80.005	19.994	103.126	19.769	2.447	0.496
1216.000	694.955	80.005	19.994	103.122	19.767	2.546	0.518
1224.000	699.066	80.004	19.994	103.119	19.768	2.522	0.500
1232.000	703.215	80.005	19.995	103.120	19.768	2.533	0.545
1240.000	707.328	80.006	19.993	103.120	19.766	2.663	0.515
1248.000	711.322	80.006	19.994	103.123	19.767	2.555	0.515
1256.000	715.353	80.006	19.994	103.118	19.768	2.496	0.510
1264.000	719.388	80.006	19.994	103.119	19.768	2.518	0.479
1272.001	723.460	80.007	19.994	103.098	19.767	2.591	0.521
1280.000	727.511	80.004	19.995	103.111	19.768	2.480	0.522
1288.000	731.528	80.004	19.995	103.119	19.765	2.691	0.500
1296.000	735.601	80.006	19.994	103.126	19.767	2.575	0.527
1304.001	739.611	80.006	19.993	103.120	19.765	2.731	0.508
1312.000	743.637	80.005	19.994	103.122	19.761	2.979	0.487