Folder: fsri_materials_database/01_Data/Feather_Pillow_Cover/STA/N2/10K_min

Note: 01_Data/README.md
# Materials and Products Database
## 01_Data

Raw data generated from each apparatus are included here in plain-text format. The data is organized first by material, next by the short name of test apparatus used, and where applicable additional filtering by test settings.

### material.json

Each material directory contains a json file of the same name as the material. This file links the data stored in the repository as well as data and graphs produced by the accompanying scripts (__02_Scripts__) to the respective landing page for the material on the front-end website.

File: Feather_Pillow_Cover_STA_N2_10KData_2216_R3.csv
##Temp./Â°C,Time/min,Mass loss(subtr.2)/mg,DSC(subtr.2)/(mW/mg),Sensit./(uV/mW)
49.737,10.00917,-0.03042,0.02226751,1.07017
52.837,11.3108,-0.03048237,0.13024,1.06931
55.937,11.75387,-0.03182972,0.18143,1.06845
59.037,12.13113,-0.03175909,0.21495,1.06757
62.137,12.4834,-0.03317159,0.23767,1.06669
65.237,12.82552,-0.03315826,0.25426,1.06579
68.337,13.1603,-0.0344758,0.27034,1.06489
71.437,13.4906,-0.03580812,0.28498,1.06397
74.537,13.8182,-0.0373657,0.30012,1.06304
77.637,14.14197,-0.03876094,0.31152,1.06211
80.737,14.46239,-0.04258836,0.32217,1.06116
83.837,14.7797,-0.04447154,0.32985,1.06021
86.937,15.09341,-0.04652085,0.33404,1.05924
90.037,15.406,-0.04884566,0.33536,1.05827
93.137,15.71544,-0.05038626,0.33415,1.05728
96.237,16.0226,-0.05312713,0.3307,1.05628
99.337,16.32788,-0.05510587,0.32665,1.05528
102.437,16.6327,-0.05499998,0.32137,1.05426
105.537,16.93563,-0.05516051,0.31616,1.05323
108.637,17.2389,-0.05729535,0.30958,1.0522
111.737,17.54168,-0.05732262,0.30408,1.05115
114.837,17.8441,-0.05866081,0.30004,1.05009
117.937,18.14582,-0.05928033,0.29961,1.04902
121.037,18.44812,-0.05896603,0.29704,1.04794
124.137,18.74925,-0.05995,0.29886,1.04685
127.237,19.05007,-0.05961686,0.29982,1.04575
130.337,19.35079,-0.05963798,0.29945,1.04464
133.437,19.65012,-0.05969478,0.30125,1.04352
136.537,19.9493,-0.05929963,0.30273,1.04239
139.637,20.24844,-0.05995,0.30862,1.04125
142.737,20.5474,-0.05995002,0.31126,1.0401
145.837,20.84584,-0.06044797,0.31471,1.03893
148.937,21.1433,-0.06027,0.31623,1.03776
152.037,21.4406,-0.06264258,0.31903,1.03657
155.137,21.73852,-0.0612533,0.32035,1.03538
158.237,22.03545,-0.06130598,0.32365,1.03417
161.337,22.33201,-0.06126673,0.32899,1.03296
164.437,22.6281,-0.06191904,0.33086,1.03173
167.537,22.92505,-0.06191787,0.33585,1.03049
170.637,23.2216,-0.06191999,0.33803,1.02924
173.737,23.51745,-0.06191675,0.34164,1.02798
176.837,23.81351,-0.06259166,0.34506,1.02671
179.937,24.10889,-0.06421991,0.34762,1.02543
183.037,24.40404,-0.06333485,0.35104,1.02413
186.137,24.69899,-0.0655402,0.35417,1.02283
189.237,24.99407,-0.06581265,0.35538,1.02152
192.337,25.28963,-0.06588,0.35675,1.02019
195.437,25.58383,-0.06545897,0.35805,1.01885
198.537,25.87855,-0.06763997,0.36261,1.0175
201.637,26.17365,-0.06797225,0.36546,1.01614
204.737,26.4678,-0.06658498,0.36665,1.01477
207.837,26.76237,-0.06829006,0.37011,1.01339
210.937,27.0571,-0.06720347,0.3744,1.012
214.037,27.35234,-0.06949999,0.37617,1.0106
217.137,27.64588,-0.07018482,0.37618,1.00918
220.237,27.9404,-0.07049,0.37648,1.00775
223.337,28.2347,-0.07046466,0.37726,1.00632
226.437,28.52965,-0.07181977,0.38286,1.00487
229.537,28.82425,-0.07345,0.38295,1.00341
232.637,29.1194,-0.07445117,0.38476,1.00193
235.737,29.41433,-0.07673066,0.38683,1.00045
238.837,29.7098,-0.07829235,0.38726,0.99896
241.937,30.0044,-0.08091,0.39132,0.99745
245.037,30.29963,-0.08223,0.39466,0.99593
248.137,30.5944,-0.08486037,0.39524,0.9944
251.237,30.8891,-0.0874999,0.39718,0.99286
254.337,31.18445,-0.08882197,0.40178,0.99131
257.437,31.47995,-0.08979898,0.4037,0.98975
260.537,31.7744,-0.09947,0.40816,0.98817
263.637,32.06908,-0.10079,0.40926,0.98659
266.737,32.36472,-0.10821,0.41325,0.98499
269.837,32.66037,-0.10968,0.41521,0.98338
272.937,32.9561,-0.11671,0.41541,0.98176
276.037,33.25238,-0.11928,0.41288,0.98012
279.137,33.5483,-0.12725,0.41299,0.97848
282.237,33.84513,-0.13347,0.41667,0.97682
285.337,34.1417,-0.14111,0.4247,0.97515
288.437,34.43734,-0.14984,0.42935,0.97347
291.537,34.73336,-0.15859,0.43905,0.97178
294.637,35.03005,-0.16785,0.44694,0.97008
297.737,35.3262,-0.18113,0.45463,0.96837
300.837,35.6232,-0.19337,0.46405,0.96664
303.937,35.92005,-0.20892,0.47435,0.9649
307.037,36.2168,-0.2263,0.48735,0.96315
310.137,36.5146,-0.24395,0.50191,0.96139
313.237,36.81165,-0.26809,0.51901,0.95962
316.337,37.10887,-0.29311,0.54132,0.95783
319.437,37.40562,-0.32051,0.56607,0.95603
322.537,37.70296,-0.35569,0.59482,0.95423
325.637,38.00074,-0.39396,0.6338,0.95241
328.737,38.29909,-0.43901,0.67745,0.95057
331.837,38.5976,-0.49411,0.73316,0.94873
334.937,38.89665,-0.55571,0.80455,0.94688
338.037,39.19611,-0.63379,0.89172,0.94501
341.137,39.49562,-0.72763,1.00319,0.94313
344.237,39.79566,-0.83732,1.13965,0.94124
347.337,40.09592,-0.97287,1.31137,0.93934
350.437,40.39663,-1.13683,1.5091,0.93742
353.537,40.6989,-1.33321,1.72367,0.9355
356.637,41.00115,-1.56266,1.93613,0.93356
359.737,41.30352,-1.82654,2.10772,0.93161
362.837,41.60453,-2.10532,2.18176,0.92965
365.937,41.90469,-2.38923,2.11518,0.92768
369.037,42.20465,-2.6506,1.9013,0.92569
372.137,42.50262,-2.87522,1.56003,0.9237
375.237,42.79867,-3.04814,1.11927,0.92169
378.337,43.09427,-3.15897,0.66172,0.91967
381.437,43.39013,-3.21494,0.32717,0.91764
384.537,43.68671,-3.23744,0.16216,0.91559
387.637,43.98532,-3.24787,0.09816443,0.91354
390.737,44.2849,-3.25465,0.08067624,0.91147
393.837,44.58442,-3.25992,0.07795584,0.9094
396.937,44.88477,-3.26381,0.07307071,0.90731
400.037,45.18452,-3.26782,0.07082593,0.90521
403.137,45.48543,-3.27177,0.07148484,0.9031
406.237,45.78667,-3.2744,0.07204531,0.90097
409.337,46.08825,-3.27703,0.07113246,0.89884
412.437,46.38953,-3.28044,0.07007172,0.89669
415.537,46.69148,-3.28439,0.07042733,0.89453
418.637,46.99419,-3.28677,0.07202866,0.89237
421.737,47.2964,-3.29098,0.0697528,0.89019
424.837,47.59918,-3.29395,0.06752198,0.88799
427.937,47.90168,-3.29724,0.06654469,0.88579
431.037,48.20465,-3.30124,0.06409871,0.88358
434.137,48.50677,-3.30514,0.06620296,0.88135
437.237,48.81041,-3.3049,0.06548436,0.87912
440.337,49.1134,-3.30887,0.06389423,0.87687
443.437,49.4169,-3.3111,0.06241736,0.87461
446.537,49.7196,-3.31644,0.06348115,0.87234
449.637,50.02319,-3.31777,0.06020592,0.87006
452.737,50.32748,-3.3204,0.06208188,0.86777
455.837,50.63132,-3.32435,0.06100784,0.86546
458.937,50.93483,-3.32633,0.06855946,0.86315
462.037,51.23977,-3.33028,0.06793237,0.86083
465.137,51.54432,-3.33323,0.06806415,0.85849
468.237,51.84897,-3.33687,0.07160756,0.85615
471.337,52.1534,-3.33786,0.06937869,0.85379
474.437,52.4581,-3.33923,0.07203305,0.85142
477.537,52.7634,-3.34181,0.06945043,0.84904
480.637,53.06833,-3.3438,0.07198155,0.84666
483.737,53.37345,-3.34647,0.06943921,0.84426
486.837,53.6786,-3.35005,0.07083056,0.84185
489.937,53.9842,-3.35136,0.07228975,0.83943
493.037,54.2903,-3.35165,0.06964631,0.837
496.137,54.5958,-3.35432,0.06857979,0.83456
499.237,54.9021,-3.35696,0.06871037,0.83211
502.337,55.2082,-3.35893,0.06585513,0.82965
505.437,55.51373,-3.35894,0.06534081,0.82718
508.537,55.8199,-3.36063,0.06901694,0.82469
511.637,56.1257,-3.3629,0.07190293,0.8222
514.737,56.43198,-3.36553,0.07474783,0.8197
517.837,56.7389,-3.36619,0.07240496,0.81719
520.937,57.045,-3.3675,0.06321319,0.81467
524.037,57.3526,-3.37112,0.05441552,0.81214
527.137,57.65948,-3.37112,0.05172157,0.8096
530.237,57.967,-3.37276,0.04668237,0.80705
533.337,58.27455,-3.37373,0.04424461,0.80449
536.437,58.5818,-3.37507,0.04109873,0.80193
539.537,58.89,-3.37505,0.03900098,0.79935
542.637,59.1976,-3.3787,0.03736955,0.79676
545.737,59.506,-3.37871,0.03243872,0.79417
548.837,59.8133,-3.37871,0.0318075,0.79156
551.937,60.1217,-3.38198,0.02957219,0.78895
555.037,60.42994,-3.3843,0.02661758,0.78632
558.137,60.7378,-3.38198,0.02333719,0.78369
561.237,61.0464,-3.38461,0.02634581,0.78105
564.337,61.3553,-3.38693,0.0238411,0.7784
567.437,61.66457,-3.38754,0.02209298,0.77574
570.537,61.97514,-3.38829,0.02135485,0.77308
573.637,62.28526,-3.38989,0.02078482,0.7704
576.737,62.59502,-3.39081,0.02214346,0.76772
579.837,62.9041,-3.3926,0.0220926,0.76503
582.937,63.2128,-3.3932,0.02628403,0.76233
586.037,63.5216,-3.39385,0.02766974,0.75962
589.137,63.8306,-3.39385,0.02907701,0.7569
592.237,64.13975,-3.39484,0.02691133,0.75418
595.337,64.44937,-3.39747,0.03040783,0.75145
598.437,64.75949,-3.39747,0.03105929,0.74871
601.537,65.0693,-3.39648,0.03323374,0.74596
604.637,65.37939,-3.3978,0.03596855,0.7432
607.737,65.68944,-3.39747,0.03687002,0.74044
610.837,65.9996,-3.39813,0.03752831,0.73767
613.937,66.31019,-3.4011,0.04504723,0.73489
617.037,66.62034,-3.40109,0.04541969,0.73211
620.137,66.93082,-3.40176,0.04954022,0.72932
623.237,67.24178,-3.40175,0.04998799,0.72652
626.337,67.5522,-3.40389,0.04804103,0.72372
629.437,67.86279,-3.40405,0.0481728,0.7209
632.537,68.1729,-3.40504,0.04739885,0.71809
635.637,68.48345,-3.40538,0.04827227,0.71526
638.737,68.79396,-3.40546,0.04891344,0.71243
641.837,69.1044,-3.40735,0.05425507,0.70959
644.937,69.41504,-3.40726,0.05448109,0.70675
648.037,69.72662,-3.40669,0.05313757,0.7039
651.137,70.03792,-3.40733,0.05281521,0.70104
654.237,70.34878,-3.40834,0.05037445,0.69818
657.337,70.65981,-3.40998,0.05548261,0.69531
660.437,70.97057,-3.40932,0.05980295,0.69244
663.537,71.28164,-3.41065,0.05654945,0.68956
666.637,71.59335,-3.41032,0.04897035,0.68668
669.737,71.9054,-3.40976,0.04772652,0.68379
672.837,72.21749,-3.41097,0.04663217,0.68089
675.937,72.52905,-3.41328,0.04932807,0.67799
679.037,72.84066,-3.41295,0.04869061,0.67509
682.137,73.15208,-3.41363,0.05252545,0.67218
685.237,73.4641,-3.41447,0.05145477,0.66926
688.337,73.7761,-3.41297,0.04666025,0.66634
691.437,74.0877,-3.41394,0.0448363,0.66342
694.537,74.39971,-3.4146,0.0427585,0.66049
697.637,74.71114,-3.41558,0.04351783,0.65756
700.737,75.02242,-3.41424,0.04127002,0.65462
703.837,75.33412,-3.41492,0.03999744,0.65168
706.937,75.6463,-3.41549,0.03683051,0.64873
710.037,75.95783,-3.41562,0.03797536,0.64579
713.137,76.27035,-3.41657,0.03546811,0.64283
716.237,76.5824,-3.41658,0.03983861,0.63988
719.337,76.89499,-3.41559,0.03722112,0.63692
722.437,77.20871,-3.41405,0.03084497,0.63396
725.537,77.52195,-3.41701,0.03307775,0.63099
728.637,77.83535,-3.41811,0.03411722,0.62802
731.737,78.14839,-3.41938,0.03844714,0.62505
734.837,78.46133,-3.41793,0.03928553,0.62208
737.937,78.7752,-3.42008,0.03972302,0.6191
741.037,79.0883,-3.42075,0.03608356,0.61612
744.137,79.40066,-3.42201,0.03533213,0.61314
747.237,79.71313,-3.42272,0.03428631,0.61015
750.037,79.99654,-3.4214,0.03442931,0.60746