Folder: fsri_materials_database/01_Data/Feather_Pillow_Cover/STA/N2/30K_min

Note: 01_Data/README.md
# Materials and Products Database
## 01_Data

Raw data generated from each apparatus are included here in plain-text format. The data is organized first by material, next by the short name of test apparatus used, and where applicable additional filtering by test settings.

### material.json

Each material directory contains a json file of the same name as the material. This file links the data stored in the repository as well as data and graphs produced by the accompanying scripts (__02_Scripts__) to the respective landing page for the material on the front-end website.

File: Feather_Pillow_Cover_STA_N2_30KData_2216_R1.csv
##Temp./Â°C,Time/min,Mass loss(subtr.2)/mg,DSC(subtr.2)/(mW/mg),Sensit./(uV/mW)
48.411,10.01,-0.04183,0.02135293,1.05403
51.611,10.88638,-0.04469989,0.18739,1.05338
54.811,11.12191,-0.04720708,0.30542,1.05271
58.011,11.30226,-0.04415209,0.39879,1.05201
61.211,11.4568,-0.0472699,0.47978,1.0513
64.411,11.59787,-0.04650993,0.54744,1.05057
67.611,11.72921,-0.04724927,0.61179,1.04982
70.811,11.85563,-0.04840878,0.66348,1.04906
74.011,11.9772,-0.05025028,0.7167,1.04827
77.211,12.09579,-0.05025181,0.76196,1.04747
80.411,12.21183,-0.05446148,0.80553,1.04665
83.611,12.32581,-0.05236031,0.84942,1.04581
86.811,12.4384,-0.05493382,0.88666,1.04495
90.011,12.54929,-0.05812289,0.92161,1.04408
93.211,12.6587,-0.05952798,0.9539,1.04319
96.411,12.76782,-0.05960895,0.97894,1.04228
99.611,12.87601,-0.06150705,0.99788,1.04135
102.811,12.9838,-0.06428129,1.01225,1.0404
106.011,13.09112,-0.06624784,1.02054,1.03944
109.211,13.19811,-0.06817928,1.02214,1.03846
112.411,13.30511,-0.06949342,1.01883,1.03746
115.611,13.4116,-0.07150112,1.01083,1.03644
118.811,13.5175,-0.07191429,0.99919,1.03541
122.011,13.62321,-0.07351789,0.98623,1.03436
125.211,13.7284,-0.07311981,0.97009,1.03329
128.411,13.8331,-0.07443893,0.95993,1.03221
131.611,13.93731,-0.07575001,0.94763,1.03111
134.811,14.0407,-0.07710509,0.93988,1.02999
138.011,14.1438,-0.07839698,0.93728,1.02886
141.211,14.24632,-0.07838901,0.9347,1.02771
144.411,14.3485,-0.0770699,0.93882,1.02654
147.611,14.4502,-0.07838004,0.94236,1.02536
150.811,14.5517,-0.07970006,0.94973,1.02416
154.011,14.65264,-0.07838086,0.95703,1.02294
157.211,14.7532,-0.08105256,0.96786,1.02171
160.411,14.8537,-0.08075078,0.97842,1.02046
163.611,14.95385,-0.08069,0.98858,1.01919
166.811,15.05364,-0.0806547,0.99951,1.01791
170.011,15.1534,-0.07973501,1.01158,1.01662
173.211,15.25291,-0.07969783,1.02123,1.01531
176.411,15.3522,-0.08101297,1.03043,1.01398
179.611,15.45098,-0.08166539,1.04339,1.01263
182.811,15.54969,-0.08233,1.05391,1.01128
186.011,15.6481,-0.08101966,1.06444,1.0099
189.211,15.74601,-0.08233548,1.07454,1.00851
192.411,15.84371,-0.08101011,1.08251,1.00711
195.611,15.94126,-0.08234215,1.09044,1.00569
198.811,16.03856,-0.08193623,1.09658,1.00425
202.011,16.13578,-0.08332,1.10808,1.0028
205.211,16.23299,-0.08329855,1.11446,1.00134
208.411,16.33018,-0.08365,1.12282,0.99986
211.611,16.4272,-0.08495551,1.13223,0.99837
214.811,16.52411,-0.08628815,1.13907,0.99686
218.011,16.62112,-0.08629,1.14792,0.99534
221.211,16.7179,-0.08677407,1.15259,0.9938
224.411,16.81446,-0.08761,1.1606,0.99225
227.611,16.91121,-0.08761,1.16577,0.99068
230.811,17.0076,-0.08761,1.1727,0.9891
234.011,17.10391,-0.08822113,1.17734,0.98751
237.211,17.2008,-0.08990995,1.18369,0.9859
240.411,17.29716,-0.08992319,1.19224,0.98428
243.611,17.3932,-0.09122985,1.19697,0.98265
246.811,17.48959,-0.09397817,1.20255,0.981
250.011,17.58602,-0.09388449,1.21278,0.97934
253.211,17.6824,-0.09526954,1.21972,0.97766
256.411,17.77851,-0.09854242,1.22832,0.97598
259.611,17.8745,-0.10016,1.23739,0.97428
262.811,17.9709,-0.10287,1.24785,0.97256
266.011,18.0669,-0.1041,1.25732,0.97083
269.211,18.16318,-0.10681,1.2649,0.96909
272.411,18.25949,-0.10966,1.2723,0.96734
275.611,18.35568,-0.11347,1.27832,0.96557
278.811,18.4518,-0.11711,1.2868,0.9638
282.011,18.54831,-0.12155,1.29435,0.96201
285.211,18.64451,-0.12674,1.30392,0.9602
288.411,18.74089,-0.1316,1.31621,0.95839
291.611,18.8373,-0.13664,1.32887,0.95656
294.811,18.93364,-0.14291,1.33948,0.95472
298.011,19.03027,-0.149,1.35536,0.95287
301.211,19.1268,-0.15447,1.36678,0.951
304.411,19.22338,-0.16207,1.3832,0.94913
307.611,19.31983,-0.16949,1.40059,0.94724
310.811,19.4166,-0.17873,1.4183,0.94534
314.011,19.51332,-0.18986,1.44014,0.94343
317.211,19.6101,-0.20026,1.46045,0.94151
320.411,19.7067,-0.21423,1.48833,0.93958
323.611,19.80385,-0.22876,1.51816,0.93764
326.811,19.9009,-0.24505,1.55463,0.93568
330.011,19.99788,-0.26297,1.59384,0.93371
333.211,20.095,-0.28261,1.64329,0.93174
336.411,20.19216,-0.30909,1.69848,0.92975
339.611,20.28945,-0.33795,1.77324,0.92775
342.811,20.38681,-0.37016,1.86149,0.92574
346.011,20.4843,-0.40821,1.97065,0.92372
349.211,20.58195,-0.45273,2.10942,0.92169
352.411,20.67962,-0.5055,2.28188,0.91965
355.611,20.7776,-0.56912,2.50134,0.9176
358.811,20.87565,-0.64696,2.76836,0.91554
362.011,20.97403,-0.74191,3.0947,0.91347
365.211,21.07249,-0.8517,3.48187,0.91139
368.411,21.17139,-0.99072,3.93695,0.9093
371.611,21.27045,-1.14922,4.44206,0.9072
374.811,21.36975,-1.34277,4.9771,0.90509
378.011,21.46929,-1.55499,5.50193,0.90297
381.211,21.569,-1.81208,5.95076,0.90084
384.411,21.66897,-2.08438,6.22257,0.8987
387.611,21.76884,-2.35549,6.2396,0.89655
390.811,21.86851,-2.62001,5.93636,0.8944
394.011,21.96773,-2.86135,5.29667,0.89223
397.211,22.06653,-3.05303,4.30039,0.89005
400.411,22.1645,-3.19641,3.06322,0.88787
403.611,22.2621,-3.28776,1.90137,0.88568
406.811,22.3592,-3.33074,1.08867,0.88348
410.011,22.45618,-3.34803,0.64367,0.88127
413.211,22.55385,-3.35566,0.42611,0.87905
416.411,22.65172,-3.3627,0.32593,0.87682
419.611,22.74999,-3.36607,0.2761,0.87459
422.811,22.84887,-3.37353,0.25356,0.87235
426.011,22.94768,-3.37744,0.23908,0.8701
429.211,23.04733,-3.38035,0.22874,0.86784
432.411,23.1467,-3.38321,0.22376,0.86557
435.611,23.24633,-3.38576,0.22126,0.86329
438.811,23.34614,-3.38971,0.21633,0.86101
442.011,23.4461,-3.3923,0.21039,0.85872
445.211,23.54627,-3.39528,0.20899,0.85642
448.411,23.64644,-3.3992,0.20505,0.85412
451.611,23.74689,-3.40169,0.20318,0.85181
454.811,23.84732,-3.40438,0.19734,0.84949
458.011,23.94823,-3.4065,0.19599,0.84716
461.211,24.0489,-3.40844,0.19488,0.84483
464.411,24.14978,-3.41415,0.18995,0.84249
467.611,24.2509,-3.41689,0.18797,0.84014
470.811,24.3519,-3.41984,0.18618,0.83778
474.011,24.4531,-3.42276,0.18556,0.83542
477.211,24.5545,-3.42465,0.18525,0.83306
480.411,24.6558,-3.42898,0.18354,0.83068
483.611,24.75735,-3.4305,0.18251,0.8283
486.811,24.85869,-3.43248,0.18179,0.82591
490.011,24.9604,-3.43556,0.18272,0.82352
493.211,25.06206,-3.43842,0.1811,0.82112
496.411,25.16362,-3.4411,0.18211,0.81872
499.611,25.2657,-3.44236,0.1807,0.81631
502.811,25.36767,-3.44498,0.18523,0.81389
506.011,25.46953,-3.44632,0.18496,0.81147
509.211,25.57179,-3.44844,0.18639,0.80904
512.411,25.6738,-3.45027,0.18916,0.8066
515.611,25.77606,-3.45359,0.19044,0.80416
518.811,25.8785,-3.45489,0.19017,0.80172
522.011,25.98085,-3.45719,0.19038,0.79927
525.211,26.08351,-3.45851,0.18922,0.79681
528.411,26.18628,-3.46121,0.18943,0.79435
531.611,26.28896,-3.46246,0.18961,0.79189
534.811,26.39163,-3.46312,0.18819,0.78942
538.011,26.4946,-3.46454,0.18597,0.78694
541.211,26.5977,-3.46588,0.18543,0.78446
544.411,26.70058,-3.46993,0.18369,0.78197
547.611,26.8039,-3.47059,0.18608,0.77948
550.811,26.90692,-3.47218,0.19104,0.77699
554.011,27.0101,-3.47356,0.19927,0.77449
557.211,27.1132,-3.47454,0.20951,0.77199
560.411,27.21661,-3.47585,0.21762,0.76948
563.611,27.32002,-3.47717,0.22108,0.76697
566.811,27.4235,-3.47849,0.2181,0.76445
570.011,27.52723,-3.47981,0.21104,0.76193
573.211,27.63082,-3.47978,0.20413,0.75941
576.411,27.73493,-3.4825,0.19807,0.75688
579.611,27.83894,-3.48243,0.19263,0.75435
582.811,27.94319,-3.48508,0.18694,0.75182
586.011,28.04758,-3.4851,0.18178,0.74928
589.211,28.1519,-3.4864,0.17907,0.74674
592.411,28.2562,-3.48771,0.17372,0.74419
595.611,28.3606,-3.48903,0.17181,0.74164
598.811,28.4653,-3.49029,0.17079,0.73909
602.011,28.5699,-3.48903,0.16498,0.73654
605.211,28.67452,-3.49158,0.16292,0.73398
608.411,28.77935,-3.49298,0.16348,0.73142
611.611,28.8842,-3.4943,0.15957,0.72885
614.811,28.98873,-3.4943,0.15983,0.72629
618.011,29.09386,-3.49527,0.1581,0.72372
621.211,29.1989,-3.49557,0.1555,0.72115
624.411,29.30397,-3.49692,0.15751,0.71857
627.611,29.40908,-3.49693,0.1564,0.71599
630.811,29.5141,-3.49899,0.16017,0.71341
634.011,29.61928,-3.5011,0.16019,0.71083
637.211,29.72438,-3.50092,0.16298,0.70825
640.411,29.82958,-3.49956,0.16602,0.70566
643.611,29.9348,-3.50022,0.16944,0.70307
646.811,30.04,-3.50154,0.17454,0.70048
650.011,30.14545,-3.50351,0.1796,0.69789
653.211,30.2506,-3.50615,0.18153,0.69529
656.411,30.356,-3.50486,0.18108,0.6927
659.611,30.4615,-3.50691,0.1772,0.6901
662.811,30.5667,-3.50505,0.17176,0.6875
666.011,30.6722,-3.50515,0.17089,0.6849
669.211,30.77773,-3.50736,0.1719,0.6823
672.411,30.8832,-3.50833,0.16865,0.67969
675.611,30.98883,-3.50933,0.1682,0.67709
678.811,31.0942,-3.50931,0.16664,0.67448
682.011,31.1997,-3.50866,0.16834,0.67187
685.211,31.3053,-3.50867,0.16988,0.66927
688.411,31.4107,-3.51133,0.16992,0.66666
691.611,31.5168,-3.51131,0.17213,0.66404
694.811,31.6225,-3.51131,0.17119,0.66143
698.011,31.7284,-3.51131,0.17062,0.65882
701.211,31.8341,-3.51207,0.17142,0.65621
704.411,31.9402,-3.51131,0.16751,0.65359
707.611,32.04613,-3.51262,0.16958,0.65098
710.811,32.15213,-3.51147,0.17236,0.64837
714.011,32.25822,-3.51405,0.17281,0.64575
717.211,32.36438,-3.51405,0.17606,0.64314
720.411,32.4707,-3.51537,0.1721,0.64052
723.611,32.5768,-3.51439,0.17396,0.6379
726.811,32.68303,-3.51439,0.17105,0.63529
730.011,32.78969,-3.51537,0.17237,0.63267
733.211,32.89612,-3.51497,0.17573,0.63006
736.411,33.00254,-3.51504,0.1747,0.62744
739.611,33.10922,-3.51537,0.17438,0.62483
742.811,33.21589,-3.51669,0.16915,0.62221
746.011,33.32242,-3.51664,0.16892,0.6196
749.211,33.42905,-3.518,0.16481,0.61698
752.411,33.536,-3.51735,0.16469,0.61437
755.611,33.64283,-3.51663,0.16319,0.61175
758.811,33.74968,-3.518,0.15786,0.60914
762.011,33.8566,-3.51933,0.15803,0.60653
765.211,33.9635,-3.51961,0.15682,0.60392
768.411,34.07056,-3.52064,0.15259,0.60131
771.611,34.17736,-3.51965,0.15113,0.5987
774.811,34.28447,-3.52097,0.14974,0.59609
778.011,34.3914,-3.52095,0.15253,0.59348
781.211,34.49862,-3.52228,0.14737,0.59087
784.411,34.60563,-3.52112,0.15042,0.58827
787.611,34.7127,-3.51932,0.14696,0.58566
790.811,34.81992,-3.51833,0.1531,0.58306
794.011,34.927,-3.51953,0.15319,0.58046
796.111,34.9974,-3.52097,0.15183,0.57875