Folder: fsri_materials_database/01_Data/Feather_Pillow_Cover/STA/N2/3K_min

Note: 01_Data/README.md
# Materials and Products Database
## 01_Data

Raw data generated from each apparatus are included here in plain-text format. The data is organized first by material, next by the short name of test apparatus used, and where applicable additional filtering by test settings.

### material.json

Each material directory contains a json file of the same name as the material. This file links the data stored in the repository as well as data and graphs produced by the accompanying scripts (__02_Scripts__) to the respective landing page for the material on the front-end website.

File: Feather_Pillow_Cover_STA_N2_3KData_2226_R1.csv
##Temp./Â°C,Time/min,Mass loss(subtr.2)/mg,DSC(subtr.2)/(mW/mg),Sensit./(uV/mW)
50.148,10.01667,-0.06609,0.02545976,1.05675
53.148,12.235,-0.07121662,0.08760011,1.05642
56.148,13.3745,-0.07560379,0.10225,1.05607
59.148,14.4584,-0.07783941,0.11083,1.0557
62.148,15.5069,-0.08015167,0.11603,1.05532
65.148,16.52683,-0.08310318,0.12205,1.05493
68.148,17.5483,-0.08795787,0.12446,1.05452
71.148,18.55646,-0.08935631,0.12752,1.0541
74.148,19.56472,-0.09300866,0.12586,1.05366
77.148,20.57189,-0.09705998,0.1234,1.05321
80.148,21.56992,-0.10034,0.12362,1.05274
83.148,22.57325,-0.10237,0.11776,1.05226
86.148,23.57459,-0.10418,0.11297,1.05177
89.148,24.5719,-0.1055,0.11012,1.05126
92.148,25.5665,-0.10682,0.10864,1.05073
95.148,26.55578,-0.10881,0.106,1.05019
98.148,27.5504,-0.11078,0.10195,1.04963
101.148,28.5489,-0.11074,0.10243,1.04906
104.148,29.5398,-0.11208,0.10271,1.04848
107.148,30.5286,-0.11275,0.10283,1.04788
110.148,31.5179,-0.11204,0.10254,1.04726
113.148,32.50996,-0.11375,0.10365,1.04663
116.148,33.50023,-0.11406,0.10255,1.04598
119.148,34.48496,-0.11376,0.10471,1.04532
122.148,35.46539,-0.11406,0.10405,1.04465
125.148,36.45447,-0.11523,0.10109,1.04395
128.148,37.44559,-0.11538,0.10256,1.04324
131.148,38.43027,-0.11439,0.10415,1.04252
134.148,39.4118,-0.11604,0.10642,1.04178
137.148,40.39433,-0.11835,0.10815,1.04103
140.148,41.38166,-0.1167,0.1075,1.04026
143.148,42.35927,-0.11703,0.11178,1.03947
146.148,43.34534,-0.11802,0.11067,1.03867
149.148,44.32566,-0.11754,0.11016,1.03785
152.148,45.30622,-0.11871,0.10912,1.03702
155.148,46.28479,-0.119,0.11162,1.03617
158.148,47.26129,-0.12006,0.11402,1.0353
161.148,48.23551,-0.12,0.11246,1.03442
164.148,49.21617,-0.11999,0.11304,1.03352
167.148,50.19605,-0.11867,0.11359,1.03261
170.148,51.16742,-0.119,0.11644,1.03168
173.148,52.14495,-0.11895,0.11651,1.03073
176.148,53.1221,-0.11934,0.11914,1.02977
179.148,54.0944,-0.11994,0.12192,1.02879
182.148,55.0652,-0.12067,0.11938,1.02779
185.148,56.04218,-0.12232,0.12083,1.02678
188.148,57.0206,-0.12202,0.12094,1.02575
191.148,57.9901,-0.12229,0.12115,1.02471
194.148,58.9602,-0.1213,0.12238,1.02365
197.148,59.93564,-0.12329,0.12287,1.02257
200.148,60.90955,-0.12394,0.12323,1.02148
203.148,61.88086,-0.12559,0.12628,1.02037
206.148,62.8527,-0.12708,0.12664,1.01924
209.148,63.8268,-0.12651,0.12591,1.0181
212.148,64.79983,-0.12757,0.12926,1.01694
215.148,65.77494,-0.12757,0.12869,1.01576
218.148,66.74514,-0.12888,0.12858,1.01457
221.148,67.7166,-0.12921,0.1337,1.01336
224.148,68.68696,-0.13124,0.13257,1.01213
227.148,69.65745,-0.13349,0.13239,1.01089
230.148,70.628,-0.1358,0.13693,1.00963
233.148,71.6024,-0.13843,0.13829,1.00835
236.148,72.575,-0.14446,0.13976,1.00706
239.148,73.54728,-0.14568,0.14213,1.00575
242.148,74.518,-0.14932,0.14447,1.00442
245.148,75.4926,-0.15424,0.14447,1.00308
248.148,76.46392,-0.15818,0.14788,1.00172
251.148,77.43621,-0.16182,0.14788,1.00034
254.148,78.4126,-0.16708,0.15239,0.99895
257.148,79.38286,-0.17237,0.15472,0.99753
260.148,80.35667,-0.17725,0.15839,0.99611
263.148,81.32635,-0.18484,0.15875,0.99466
266.148,82.2984,-0.1927,0.16216,0.9932
269.148,83.2714,-0.20101,0.16492,0.99172
272.148,84.2424,-0.21106,0.16664,0.99022
275.148,85.2132,-0.22209,0.16787,0.98871
278.148,86.19375,-0.23346,0.16249,0.98718
281.148,87.1683,-0.24701,0.16404,0.98564
284.148,88.13786,-0.26182,0.166,0.98407
287.148,89.11077,-0.27921,0.17063,0.98249
290.148,90.08668,-0.29968,0.17332,0.98089
293.148,91.05996,-0.32234,0.17828,0.97928
296.148,92.03653,-0.34779,0.18625,0.97765
299.148,93.0158,-0.37761,0.19508,0.976
302.148,93.99308,-0.40849,0.20451,0.97434
305.148,94.96271,-0.44575,0.21808,0.97265
308.148,95.93821,-0.49247,0.22994,0.97096
311.148,96.91381,-0.54402,0.24651,0.96924
314.148,97.89224,-0.60491,0.26846,0.96751
317.148,98.86661,-0.67671,0.2947,0.96576
320.148,99.84335,-0.76287,0.32744,0.96399
323.148,100.824,-0.86847,0.3693,0.96221
326.148,101.802,-0.99581,0.42355,0.96041
329.148,102.78,-1.14636,0.49235,0.9586
332.148,103.762,-1.33389,0.5649,0.95676
335.148,104.741,-1.55905,0.64754,0.95492
338.148,105.725,-1.81876,0.70963,0.95305
341.148,106.705,-2.10177,0.74257,0.95117
344.148,107.686,-2.39333,0.72025,0.94927
347.148,108.665,-2.66317,0.6518,0.94735
350.148,109.6362,-2.89812,0.5418,0.94542
353.148,110.606,-3.07847,0.40737,0.94347
356.148,111.579,-3.19636,0.26292,0.94151
359.148,112.557,-3.25886,0.14943,0.93953
362.148,113.532,-3.28732,0.09746537,0.93753
365.148,114.512,-3.30027,0.07885082,0.93551
368.148,115.495,-3.30718,0.07336776,0.93348
371.148,116.472,-3.31099,0.0788481,0.93144
374.148,117.457,-3.31531,0.07639572,0.92938
377.148,118.439,-3.31976,0.07721451,0.9273
380.148,119.424,-3.32226,0.07344412,0.9252
383.148,120.41,-3.32687,0.07238302,0.92309
386.148,121.395,-3.33084,0.07272828,0.92097
389.148,122.379,-3.33437,0.07091381,0.91882
392.148,123.365,-3.3384,0.0704496,0.91666
395.148,124.349,-3.34235,0.06977612,0.91449
398.148,125.337,-3.34491,0.07024857,0.9123
401.148,126.326,-3.34762,0.06953377,0.91009
404.148,127.313,-3.34992,0.06912936,0.90787
407.148,128.288,-3.35513,0.0681065,0.90564
410.148,129.276,-3.35644,0.06876732,0.90338
413.148,130.268,-3.36014,0.0649499,0.90112
416.148,131.259,-3.3641,0.06469701,0.89883
419.148,132.246,-3.36601,0.06645336,0.89654
422.148,133.233,-3.36936,0.06529981,0.89422
425.148,134.225,-3.37198,0.06180606,0.89189
428.148,135.211,-3.37612,0.06438485,0.88955
431.148,136.201,-3.37694,0.06216131,0.88719
434.148,137.195,-3.37924,0.06178715,0.88482
437.148,138.182,-3.38253,0.05901382,0.88243
440.148,139.169,-3.3855,0.05655256,0.88003
443.148,140.163,-3.38811,0.05657863,0.87761
446.148,141.15,-3.39143,0.0562159,0.87518
449.148,142.134,-3.39307,0.05964965,0.87273
452.148,143.13,-3.39537,0.05932133,0.87027
455.148,144.12,-3.39768,0.05914041,0.86779
458.148,145.115,-3.40003,0.05908158,0.8653
461.148,146.109,-3.40065,0.06298607,0.8628
464.148,147.0972,-3.40262,0.05994665,0.86028
467.148,148.091,-3.40328,0.05954323,0.85775
470.148,149.082,-3.40657,0.05776113,0.8552
473.148,150.076,-3.4079,0.0597818,0.85265
476.148,151.073,-3.41089,0.04981277,0.85007
479.148,152.068,-3.41119,0.03958178,0.84749
482.148,153.061,-3.41359,0.03487132,0.84489
485.148,154.058,-3.41415,0.02992753,0.84227
488.148,155.054,-3.41709,0.03277283,0.83965
491.148,156.051,-3.41712,0.03098236,0.83701
494.148,157.045,-3.41912,0.03243361,0.83435
497.148,158.038,-3.42172,0.03215028,0.83169
500.148,159.034,-3.42272,0.03639038,0.82901
503.148,160.0352,-3.42436,0.04096252,0.82632
506.148,161.037,-3.4258,0.04515555,0.82361
509.148,162.031,-3.42671,0.04350687,0.8209
512.148,163.022,-3.42791,0.04715683,0.81817
515.148,164.017,-3.42964,0.04573682,0.81543
518.148,165.019,-3.43062,0.04772908,0.81268
521.148,166.021,-3.43356,0.04955853,0.80991
524.148,167.023,-3.43424,0.05028851,0.80713
527.148,168.02,-3.43625,0.05018713,0.80434
530.148,169.013,-3.43687,0.05107753,0.80154
533.148,170.013,-3.43777,0.05301051,0.79873
536.148,171.017,-3.43921,0.05288743,0.79591
539.148,172.019,-3.43951,0.0579688,0.79308
542.148,173.02,-3.44083,0.05906075,0.79023
545.148,174.019,-3.44242,0.0580344,0.78737
548.148,175.019,-3.44379,0.06111652,0.78451
551.148,176.021,-3.4438,0.05935376,0.78163
554.148,177.025,-3.44675,0.06250424,0.77874
557.148,178.032,-3.44708,0.06009895,0.77584
560.148,179.034,-3.44676,0.06110675,0.77293
563.148,180.031,-3.44709,0.05936255,0.77001
566.148,181.0367,-3.44775,0.06608331,0.76708
569.148,182.039,-3.44863,0.07190523,0.76414
572.148,183.037,-3.44906,0.06843822,0.76119
575.148,184.045,-3.45071,0.07465677,0.75823
578.148,185.049,-3.45104,0.07228748,0.75526
581.148,186.054,-3.45135,0.07445913,0.75228
584.148,187.063,-3.45089,0.06914359,0.7493
587.148,188.071,-3.45236,0.07162536,0.7463
590.148,189.078,-3.45364,0.06934576,0.7433
593.148,190.081,-3.45361,0.06836152,0.74028
596.148,191.084,-3.45367,0.07250422,0.73726
599.148,192.086,-3.45532,0.06973997,0.73423
602.148,193.092,-3.45631,0.07151998,0.73119
605.148,194.103,-3.45761,0.07645946,0.72814
608.148,195.112,-3.45828,0.07983182,0.72508
611.148,196.116,-3.45763,0.07772865,0.72202
614.148,197.121,-3.46026,0.08054213,0.71895
617.148,198.13,-3.46029,0.07798511,0.71587
620.148,199.133,-3.45994,0.07661698,0.71278
623.148,200.139,-3.46106,0.08098564,0.70969
626.148,201.1434,-3.46054,0.07802183,0.70659
629.148,202.15,-3.46257,0.07539652,0.70348
632.148,203.162,-3.46191,0.0716504,0.70036
635.148,204.168,-3.46224,0.07228326,0.69724
638.148,205.176,-3.46153,0.06667831,0.69411
641.148,206.187,-3.46348,0.06939191,0.69098
644.148,207.2,-3.45502,0.06043486,0.68784
647.148,208.202,-3.46198,0.07039671,0.68469
650.148,209.21,-3.46911,0.07335725,0.68154
653.148,210.22,-3.46388,0.06384206,0.67838
656.148,211.225,-3.46449,0.06244276,0.67521
659.148,212.234,-3.46453,0.06231424,0.67205
662.148,213.238,-3.46487,0.06154565,0.66887
665.148,214.247,-3.46487,0.0578147,0.66569
668.148,215.261,-3.46621,0.0568881,0.66251
671.148,216.269,-3.4675,0.05645974,0.65932
674.148,217.277,-3.46794,0.05332456,0.65612
677.148,218.288,-3.46751,0.0483093,0.65292
680.148,219.298,-3.46655,0.04680964,0.64972
683.148,220.305,-3.46784,0.04848949,0.64651
686.148,221.312,-3.46949,0.04572843,0.6433
689.148,222.327,-3.46984,0.04033876,0.64009
692.148,223.336,-3.47145,0.03737005,0.63687
695.148,224.348,-3.47194,0.03807353,0.63365
698.148,225.355,-3.46986,0.03381465,0.63042
701.148,226.368,-3.47143,0.03386635,0.62719
704.148,227.374,-3.47329,0.0339417,0.62396
707.148,228.3845,-3.47311,0.03444687,0.62073
710.148,229.4,-3.47445,0.03045187,0.61749
713.148,230.41,-3.47574,0.03608301,0.61425
716.148,231.416,-3.47509,0.03446135,0.61101
719.148,232.432,-3.47673,0.03035606,0.60777
722.148,233.448,-3.47706,0.03131311,0.60452
725.148,234.456,-3.47771,0.03294461,0.60128
728.148,235.4693,-3.47804,0.03397723,0.59803
731.148,236.483,-3.47903,0.04008297,0.59478
734.148,237.499,-3.47936,0.04051413,0.59152
737.148,238.51,-3.48068,0.04456339,0.58827
740.148,239.52,-3.48079,0.04964843,0.58502
743.148,240.533,-3.48031,0.05316106,0.58176
746.148,241.5463,-3.48167,0.0556532,0.57851
749.148,242.553,-3.48171,0.05310137,0.57525
751.448,243.3298,-3.48199,0.05648259,0.57276