Folder: fsri_materials_database/01_Data/Overstuffed_Chair_Polyurethane_Foam/FTIR/ATR

Note: 01_Data/README.md
# Materials and Products Database
## 01_Data

Raw data generated from each apparatus are included here in plain-text format. The data is organized first by material, next by the short name of test apparatus used, and where applicable additional filtering by test settings.

### material.json

Each material directory contains a json file of the same name as the material. This file links the data stored in the repository as well as data and graphs produced by the accompanying scripts (__02_Scripts__) to the respective landing page for the material on the front-end website.

File: Overstuffed_Chair_Polyurethane_Foam_ATR_210608_R4.tst
4497.79,-0.00546
4484.29,-0.00525
4470.79,-0.00531
4457.29,-0.00527
4443.79,-0.00484
4430.28,-0.00485
4416.78,-0.00423
4403.28,-0.00434
4389.78,-0.00409
4376.28,-0.00420
4362.78,-0.00374
4349.28,-0.00355
4335.78,-0.00319
4322.28,-0.00325
4308.77,-0.00358
4295.27,-0.00380
4281.77,-0.00364
4268.27,-0.00364
4254.77,-0.00377
4241.27,-0.00373
4227.77,-0.00369
4214.27,-0.00372
4200.77,-0.00369
4187.26,-0.00342
4173.76,-0.00345
4160.26,-0.00342
4146.76,-0.00352
4133.26,-0.00334
4119.76,-0.00328
4106.26,-0.00293
4092.76,-0.00316
4079.26,-0.00276
4065.75,-0.00268
4052.25,-0.00251
4038.75,-0.00252
4025.25,-0.00212
4011.75,-0.00201
3998.25,-0.00208
3984.75,-0.00199
3971.25,-0.00137
3957.75,-0.00119
3944.25,-0.00018
3930.74,0.00058
3917.24,0.00049
3903.74,0.00427
3890.24,0.00069
3876.74,-0.00029
3863.24,0.00332
3849.74,0.00139
3836.24,0.00338
3822.74,0.00256
3809.23,-0.00040
3795.73,-0.00027
3782.23,-0.00040
3768.73,0.00113
3755.23,0.00297
3741.73,0.00429
3728.23,0.00203
3714.73,0.00105
3701.23,-0.00007
3687.72,0.00248
3674.22,0.00429
3660.72,0.00036
3647.22,0.00628
3633.72,0.00332
3620.22,0.00602
3606.72,0.00480
3593.22,0.00511
3579.72,0.00468
3566.21,0.01027
3552.71,0.00608
3539.21,0.00520
3525.71,0.00911
3512.21,0.00652
3498.71,0.00677
3485.21,0.00667
3471.71,0.00577
3458.21,0.00662
3444.7,0.00730
3431.2,0.00649
3417.7,0.00756
3404.2,0.00879
3390.7,0.01164
3377.2,0.01475
3363.7,0.01825
3350.2,0.02052
3336.7,0.02427
3323.2,0.02702
3309.69,0.03080
3296.19,0.03254
3282.69,0.03253
3269.19,0.03050
3255.69,0.02701
3242.19,0.02240
3228.69,0.01864
3215.19,0.01591
3201.69,0.01449
3188.18,0.01273
3174.68,0.01130
3161.18,0.01007
3147.68,0.00970
3134.18,0.00949
3120.68,0.00937
3107.18,0.00872
3093.68,0.00893
3080.18,0.00970
3066.67,0.00983
3053.17,0.00948
3039.67,0.00958
3026.17,0.01001
3012.67,0.01104
2999.17,0.01860
2985.67,0.04440
2972.17,0.07433
2958.67,0.04402
2945.16,0.04417
2931.66,0.06766
2918.16,0.06480
2904.66,0.07115
2891.16,0.07547
2877.66,0.08267
2864.16,0.08672
2850.66,0.06124
2837.16,0.03191
2823.66,0.01978
2810.15,0.01660
2796.65,0.01546
2783.15,0.01393
2769.65,0.01241
2756.15,0.01106
2742.65,0.00994
2729.15,0.00900
2715.65,0.00774
2702.15,0.00695
2688.64,0.00627
2675.14,0.00609
2661.64,0.00577
2648.14,0.00505
2634.64,0.00448
2621.14,0.00385
2607.64,0.00359
2594.14,0.00364
2580.64,0.00337
2567.13,0.00279
2553.63,0.00245
2540.13,0.00242
2526.63,0.00224
2513.13,0.00227
2499.63,0.00217
2486.13,0.00235
2472.63,0.00244
2459.13,0.00222
2445.62,0.00196
2432.12,0.00225
2418.62,0.00211
2405.12,0.00231
2391.62,0.00248
2378.12,0.00279
2364.62,-0.00434
2351.12,0.00096
2337.62,-0.00268
2324.12,0.00126
2310.61,0.00397
2297.11,0.00401
2283.61,0.00458
2270.11,0.00442
2256.61,0.00368
2243.11,0.00317
2229.61,0.00293
2216.11,0.00234
2202.61,0.00190
2189.1,0.00141
2175.6,0.00057
2162.1,-0.00019
2148.6,0.00142
2135.1,0.00173
2121.6,0.00194
2108.1,0.00180
2094.6,0.00245
2081.1,0.00271
2067.59,0.00340
2054.09,0.00308
2040.59,0.00358
2027.09,0.00328
2013.59,0.00406
2000.09,0.00389
1986.59,0.00422
1973.09,0.00354
1959.59,0.00395
1946.08,0.00518
1932.58,0.00452
1919.08,0.00625
1905.58,0.00496
1892.08,0.00576
1878.58,0.00483
1865.08,0.00635
1851.58,0.00539
1838.08,0.00632
1824.57,0.00757
1811.07,0.00819
1797.57,0.01018
1784.07,0.00995
1770.57,0.01359
1757.07,0.01624
1743.57,0.04135
1730.07,0.08306
1716.57,0.08403
1703.07,0.07119
1689.56,0.05879
1676.06,0.05655
1662.56,0.06229
1649.06,0.08664
1635.56,0.09133
1622.06,0.06462
1608.56,0.08255
1595.06,0.09463
1581.56,0.06602
1568.05,0.08987
1554.55,0.14979
1541.05,0.18297
1527.55,0.17643
1514.05,0.13137
1500.55,0.11814
1487.05,0.09504
1473.55,0.11133
1460.05,0.10885
1446.54,0.11828
1433.04,0.06946
1419.54,0.07346
1406.04,0.07756
1392.54,0.07189
1379.04,0.11474
1365.54,0.09398
1352.04,0.06526
1338.54,0.07928
1325.03,0.07109
1311.53,0.08635
1298.03,0.10380
1284.53,0.09291
1271.03,0.09794
1257.53,0.10433
1244.03,0.12594
1230.53,0.17646
1217.03,0.17264
1203.53,0.13247
1190.02,0.10714
1176.52,0.11181
1163.02,0.14761
1149.52,0.18368
1136.02,0.23006
1122.52,0.30248
1109.02,0.40232
1095.52,0.45557
1082.02,0.44543
1068.51,0.37556
1055.01,0.28778
1041.51,0.19594
1028.01,0.14972
1014.51,0.16210
1001.01,0.14768
987.508,0.09193
974.007,0.07793
960.506,0.07126
947.005,0.07018
933.503,0.10321
920.002,0.10252
906.501,0.08800
893,0.06864
879.499,0.07370
865.998,0.07847
852.497,0.07046
838.996,0.07070
825.495,0.08782
811.994,0.09626
798.493,0.07721
784.992,0.06880
771.49,0.08019
757.989,0.07787
744.488,0.06775
730.987,0.06366
717.486,0.07187
703.985,0.07854
690.484,0.08560
676.983,0.09351
663.482,0.09819
649.981,0.09262
636.48,0.08876
622.979,0.08360
609.477,0.08182
599.834,0.08865