Folder: fsri_materials_database/01_Data/Overstuffed_Chair_Polyurethane_Foam/FTIR/IS

Note: 01_Data/README.md
# Materials and Products Database
## 01_Data

Raw data generated from each apparatus are included here in plain-text format. The data is organized first by material, next by the short name of test apparatus used, and where applicable additional filtering by test settings.

### material.json

Each material directory contains a json file of the same name as the material. This file links the data stored in the repository as well as data and graphs produced by the accompanying scripts (__02_Scripts__) to the respective landing page for the material on the front-end website.

File: Overstuffed_Chair_Polyurethane_Foam_IS_REFLECT_MEAS_210623_R1.dpt
5996.41,0.48936
5977.12,0.45994
5957.84,0.41009
5938.55,0.38741
5919.26,0.38945
5899.97,0.36131
5880.69,0.39290
5861.4,0.39974
5842.11,0.39863
5822.82,0.38954
5803.54,0.37583
5784.25,0.36482
5764.96,0.35687
5745.68,0.37299
5726.39,0.39493
5707.1,0.40836
5687.81,0.41170
5668.53,0.41328
5649.24,0.41460
5629.95,0.43084
5610.66,0.43427
5591.38,0.43980
5572.09,0.44060
5552.8,0.43767
5533.52,0.43690
5514.23,0.43982
5494.94,0.43596
5475.65,0.44638
5456.37,0.44834
5437.08,0.45275
5417.79,0.46037
5398.5,0.46888
5379.22,0.47751
5359.93,0.48641
5340.64,0.47706
5321.36,0.48209
5302.07,0.47752
5282.78,0.45840
5263.49,0.44133
5244.21,0.43520
5224.92,0.42287
5205.63,0.42174
5186.34,0.42489
5167.06,0.43645
5147.77,0.44096
5128.48,0.44468
5109.2,0.44712
5089.91,0.44414
5070.62,0.44627
5051.33,0.44340
5032.05,0.43585
5012.76,0.42839
4993.47,0.41845
4974.18,0.40401
4954.9,0.38890
4935.61,0.37490
4916.32,0.36044
4897.04,0.35140
4877.75,0.34359
4858.46,0.33797
4839.17,0.33497
4819.89,0.34389
4800.6,0.35639
4781.31,0.37232
4762.02,0.37724
4742.74,0.38167
4723.45,0.38032
4704.16,0.37758
4684.88,0.37066
4665.59,0.36014
4646.3,0.35150
4627.01,0.34702
4607.73,0.34581
4588.44,0.34490
4569.15,0.34038
4549.87,0.33733
4530.58,0.33319
4511.29,0.32850
4492,0.32267
4472.72,0.30750
4453.43,0.26934
4434.14,0.20805
4414.85,0.16485
4395.57,0.17615
4376.28,0.16411
4356.99,0.13553
4337.71,0.12050
4318.42,0.12511
4299.13,0.15225
4279.84,0.16264
4260.56,0.16945
4241.27,0.17601
4221.98,0.18334
4202.69,0.19900
4183.41,0.19959
4164.12,0.19347
4144.83,0.18558
4125.55,0.18191
4106.26,0.17270
4086.97,0.16089
4067.68,0.14896
4048.4,0.14123
4029.11,0.13813
4009.82,0.14102
3990.53,0.14419
3971.25,0.15576
3951.96,0.17070
3932.67,0.19085
3913.39,0.20781
3894.1,0.21505
3874.81,0.21923
3855.52,0.21830
3836.24,0.22411
3816.95,0.23125
3797.66,0.23023
3778.37,0.23709
3759.09,0.25118
3739.8,0.26356
3720.51,0.26612
3701.23,0.25387
3681.94,0.20692
3662.65,0.17137
3643.36,0.13641
3624.08,0.11243
3604.79,0.09312
3585.5,0.08257
3566.21,0.07895
3546.93,0.07298
3527.64,0.06490
3508.35,0.06169
3489.07,0.06244
3469.78,0.05942
3450.49,0.05259
3431.2,0.04978
3411.92,0.03794
3392.63,0.02667
3373.34,0.02014
3354.05,0.01823
3334.77,0.01652
3315.48,0.01492
3296.19,0.01445
3276.91,0.01497
3257.62,0.01685
3238.33,0.01924
3219.04,0.02052
3199.76,0.02338
3180.47,0.02608
3161.18,0.03009
3141.89,0.03166
3122.61,0.03327
3103.32,0.03398
3084.03,0.03234
3064.75,0.03213
3045.46,0.03183
3026.17,0.03003
3006.88,0.02387
2987.6,0.01429
2968.31,0.01305
2949.02,0.01531
2929.74,0.01303
2910.45,0.01327
2891.16,0.01329
2871.87,0.01420
2852.59,0.01583
2833.3,0.02174
2814.01,0.02705
2794.72,0.02960
2775.44,0.03357
2756.15,0.03875
2736.86,0.04443
2717.58,0.05431
2698.29,0.06539
2679,0.07385
2659.71,0.08036
2640.43,0.08737
2621.14,0.10012
2601.85,0.10193
2582.56,0.10577
2563.28,0.13202
2543.99,0.14558
2524.7,0.15207
2505.42,0.15411
2486.13,0.15338
2466.84,0.15418
2447.55,0.16026
2428.27,0.16966
2408.98,0.16932
2389.69,0.16276
2370.4,0.15748
2351.12,0.15929
2331.83,0.14950
2312.54,0.12944
2293.26,0.09516
2273.97,0.06603
2254.68,0.09412
2235.39,0.11241
2216.11,0.11925
2196.82,0.12409
2177.53,0.12618
2158.24,0.12815
2138.96,0.13195
2119.67,0.13384
2100.38,0.13246
2081.1,0.12723
2061.81,0.12329
2042.52,0.11639
2023.23,0.10739
2003.95,0.10702
1984.66,0.11052
1965.37,0.11177
1946.08,0.11302
1926.8,0.11110
1907.51,0.11335
1888.22,0.11511
1868.94,0.11824
1849.65,0.11411
1830.36,0.10769
1811.07,0.09293
1791.79,0.07765
1772.5,0.06037
1753.21,0.02764
1733.92,0.01328
1714.64,0.01412
1695.35,0.01395
1676.06,0.01337
1656.78,0.01217
1637.49,0.01353
1618.2,0.01329
1598.91,0.01219
1579.63,0.01282
1560.34,0.01352
1541.05,0.01437
1521.76,0.01257
1502.48,0.01435
1483.19,0.01379
1463.9,0.01331
1444.62,0.01391
1425.33,0.01539
1406.04,0.01335
1386.75,0.01307
1367.47,0.01386
1348.18,0.01435
1328.89,0.01343
1309.61,0.01222
1290.32,0.01243
1271.03,0.01220
1251.74,0.01087
1232.46,0.01101
1213.17,0.01212
1193.88,0.01161
1174.59,0.01014
1155.31,0.00936
1136.02,0.01055
1116.73,0.01047
1097.45,0.01484
1078.16,0.01545
1058.87,0.01758
1039.58,0.01837
1020.3,0.01864
1001.01,0.01960
981.722,0.02551
962.434,0.02548
943.147,0.02284
923.86,0.02014
904.573,0.02432
885.285,0.02526
865.998,0.02343
846.711,0.02594
827.424,0.02193
808.136,0.02287
788.849,0.02835
769.562,0.02418
750.274,0.02582
730.987,0.02913
711.7,0.02399
692.413,0.02282
673.125,0.02048
653.838,0.01990
634.551,0.02309
615.264,0.02398
595.976,0.02246
576.689,0.02381
557.402,0.02447
538.115,0.02446
518.827,0.02926
499.54,0.02720
480.253,0.02740
460.966,0.02681
441.678,0.03061
422.391,0.03508
403.104,0.02579
399.246,0.04126