Folder: fsri_materials_database/01_Data/Cotton_Rug/Cone (part 3)

File: Cotton_Rug_Cone_HF50Scan_220321_R2.csv
Names,Time,Stack TC,Smoke TC,Exh Press,Smoke Comp,Smoke Meas,CO Meter,CO2 Meter,O2 Meter,Sample Mass,Ext Coeff,Start Test,Flame Verif
Chan Gain,,500,500,1,1,1,1,1,1,1,1,1.0,1.0
Offset,,0,0,0.134026,0,0,0,0,0,0,0,0.0,0.0
Gain,,1,1,25.011,13.1637,13.6028,1,1,1,1.00089,1.01066,1.0,1.0
Units,sec,C,C,Pa,%,%,%,%,%,g,/m,,
Baseline,,33.2106,34.4508,147.776,98.6103,94.5673,0.000511667,0.0530962,21.003,-834.873,0.371217,,
13,3,31.1006,32.1596,146.734,98.7525,94.7302,0.00089989,0.063739,20.9896,203.19,0.368662,0.0,0.0
26,6.25,31.0611,32.3288,143.474,98.7469,94.5371,0.000923563,0.0623501,20.991,203.09,0.38624,0.0,0.0
39,9.5,30.6473,32.3869,148.442,98.7376,91.8538,0.00111508,0.0617453,20.9921,203.02,0.640691,0.0,0.0
52,12.75,30.8167,32.7886,150.507,98.7416,89.8147,0.00155416,0.0700289,20.9807,202.81,0.840076,0.0,0.0
65,16,31.9206,33.1273,133.188,98.7529,93.6027,0.00178992,0.184729,20.8486,202.479,0.474848,0.0,1.0
78,19.25,33.3897,34.8487,127.734,98.7392,92.7259,0.00250465,0.32818,20.678,202.049,0.557052,0.0,1.0
91,22.5,36.0274,38.025,123.756,98.7424,89.0301,0.00356072,0.442209,20.5346,201.539,0.917934,0.0,0.0
104,25.75,38.9815,40.5895,124.164,98.724,86.6203,0.00490381,0.544142,20.4098,200.968,1.15954,0.0,0.0
117,29,42.0316,44.3025,123.515,98.7091,86.14,0.00656891,0.654631,20.2837,200.317,1.20751,0.0,0.0
130,32.25,45.938,48.2997,119.958,98.6974,84.7319,0.00813837,0.756642,20.1715,199.607,1.35258,0.0,0.0
143,35.5,49.9457,52.3615,122.197,98.6838,80.1693,0.0100509,0.862988,20.0471,198.806,1.84207,0.0,0.0
156,38.75,53.8734,56.8272,114.182,98.6633,79.9106,0.0119392,0.964118,19.9328,197.965,1.86888,0.0,0.0
169,42,57.4349,61.5568,112.158,98.6408,76.3235,0.0134069,1.04573,19.8373,197.135,2.27402,0.0,0.0
182,45.25,61.8399,65.9699,120.834,98.6259,77.8815,0.0143998,1.08607,19.7984,196.284,2.09354,0.0,0.0
195,48.5,65.1257,69.8611,123.937,98.5962,77.845,0.0150151,1.08724,19.8033,195.493,2.09503,0.0,0.0
208,51.75,66.9824,74.4321,119.203,98.5826,77.0272,0.0151286,1.05056,19.8483,194.773,2.18743,0.0,0.0
221,55,70.4087,75.9665,122.326,98.5922,78.9874,0.0147597,0.963304,19.9589,194.082,1.96551,0.0,0.0
234,58.25,71.7991,77.87,119.45,98.6287,78.434,0.0135916,0.838245,20.0878,193.541,2.03112,0.0,0.0
247,61.5,72.2405,78.3775,126.564,98.6006,80.1917,0.0114128,0.687493,20.2782,193.201,1.83212,0.0,0.0
260,64.75,71.4029,78.0077,135.108,98.5974,84.4492,0.00867868,0.527843,20.4623,192.841,1.37322,0.0,0.0
273,68,70.081,76.8356,138.712,98.6131,91.3614,0.00616535,0.392719,20.6272,192.681,0.677149,0.0,0.0
286,71.25,68.1897,74.7413,145.75,98.6155,93.3378,0.00463404,0.287705,20.7414,192.551,0.487624,0.0,0.0
299,74.5,66.262,72.9205,141.375,98.6159,93.6571,0.00393068,0.22496,20.8104,192.481,0.457391,0.0,0.0
312,77.75,64.5214,70.5659,140.879,98.6062,93.9825,0.00419774,0.186474,20.8535,192.38,0.425771,0.0,0.0
325,81,62.6679,69.0112,141.866,98.6042,93.7907,0.00537895,0.167195,20.872,192.36,0.4437,0.0,0.0
338,84.25,61.0894,67.1006,142.575,98.5978,93.8891,0.00642608,0.154446,20.8866,192.28,0.433828,0.0,0.0
351,87.5,59.4773,65.3302,144.984,98.5769,93.9846,0.00689564,0.144604,20.8959,192.21,0.422938,0.0,0.0
364,90.75,58.1137,63.4128,145.036,98.5657,94.3292,0.00738372,0.140583,20.8991,192.17,0.389484,0.0,0.0
377,94,56.1154,61.908,144.866,98.5641,93.9319,0.00785073,0.13937,20.8999,192.08,0.426757,0.0,0.0
390,97.25,54.818,60.5379,146.288,98.5207,93.6309,0.00806637,0.139637,20.9001,192.05,0.451305,0.0,0.0
403,100.5,53.9496,59.2658,146.58,98.5199,93.9941,0.0083862,0.137337,20.903,192,0.416906,0.0,0.0
416,103.75,52.5308,58.5824,146.091,98.5118,93.3897,0.00861868,0.134226,20.9042,191.94,0.473375,0.0,0.0
429,107,51.759,56.9222,145.171,98.4833,93.2926,0.00847164,0.132742,20.9067,191.86,0.480034,0.0,0.0
442,110.25,51.113,55.5693,143.128,98.4705,93.5516,0.00866282,0.131236,20.9082,191.82,0.454294,0.0,0.0
455,113.5,49.7605,54.5536,144.049,98.4797,93.1776,0.00876717,0.131188,20.9086,191.76,0.490643,0.0,0.0
468,116.75,49.206,53.8725,146.434,98.4552,93.5209,0.00865818,0.131375,20.9087,191.7,0.455833,0.0,0.0
481,120,48.353,52.4463,145.603,98.4319,93.6114,0.00852061,0.130636,20.9118,191.65,0.445159,0.0,0.0
494,123.25,47.6112,51.4904,146.085,98.4391,93.3349,0.00854663,0.129497,20.913,191.62,0.472032,0.0,0.0
507,126.5,47.0368,51.2358,143.321,98.4271,93.1822,0.00860037,0.129818,20.9132,191.56,0.48547,0.0,0.0
520,129.75,46.5726,50.5128,144.706,98.407,93.1556,0.00872213,0.130701,20.9131,191.47,0.486189,0.0,0.0
533,133,45.9308,49.5457,141.307,98.4078,93.2756,0.00857713,0.13011,20.9137,191.44,0.474851,0.0,0.0
546,136.25,45.2203,49.0327,143.914,98.3982,93.0526,0.00849032,0.129141,20.9149,191.36,0.495195,0.0,0.0
559,139.5,44.6045,48.7383,144.412,98.3937,92.9646,0.00853625,0.12902,20.9152,191.289,0.503186,0.0,0.0
572,142.75,44.3374,47.7895,143.324,98.3917,92.9945,0.00860737,0.127791,20.9158,191.229,0.500155,0.0,0.0
585,146,44.0263,47.1399,143.608,98.3853,92.8106,0.00892828,0.126382,20.9181,191.189,0.517125,0.0,0.0
598,149.25,43.7043,46.8794,145.424,98.3793,93.7625,0.00904054,0.124572,20.9186,191.119,0.426119,0.0,0.0
611,152.5,43.5396,45.5882,145.494,98.3676,93.5516,0.00902087,0.123494,20.919,191.069,0.445031,0.0,0.0
624,155.75,42.8545,45.8269,144.342,98.3745,93.1568,0.00871331,0.122234,20.9199,190.999,0.483137,0.0,0.0
637,159,42.2789,45.8864,147.674,98.3789,93.1481,0.00824334,0.121618,20.9218,190.949,0.484366,0.0,0.0
650,162.25,42.2266,44.4628,144.877,98.3704,93.0805,0.00818342,0.120564,20.9223,190.899,0.490048,0.0,0.0
663,165.5,41.4569,44.7366,148.905,98.3604,93.129,0.00815801,0.119158,20.9241,190.839,0.484518,0.0,0.0
676,168.75,41.6348,44.3787,143.945,98.3604,93.3403,0.00790697,0.118471,20.9246,190.789,0.464427,0.0,0.0
689,172,41.5705,44.181,142.201,98.358,93.4441,0.00779974,0.117871,20.9253,190.749,0.454358,0.0,0.0
702,175.25,41.1725,43.4346,147.115,98.3315,93.4246,0.00778943,0.116548,20.9286,190.669,0.453818,0.0,0.0
715,178.5,40.5673,43.3285,143.592,98.3331,93.5064,0.00796151,0.114924,20.9321,190.619,0.446206,0.0,0.0
728,181.75,41.0877,42.5517,146.602,98.3283,93.5848,0.00811874,0.113507,20.9339,190.609,0.438336,0.0,0.0
741,185,40.4326,43.0738,142.765,98.2953,93.2058,0.00811164,0.112217,20.9344,190.549,0.471342,0.0,0.0
754,188.25,39.9497,42.4921,142.515,98.2989,93.3117,0.00828598,0.111406,20.9357,190.499,0.461605,0.0,0.0
767,191.5,40.0604,42.1221,148.659,98.307,93.1162,0.00848382,0.109779,20.9371,190.449,0.480926,0.0,0.0
780,194.75,38.6191,41.6035,145.44,98.276,93.396,0.00848124,0.107545,20.9405,190.399,0.451538,0.0,0.0
793,198,38.7905,40.8534,151.561,98.2656,93.5026,0.00855339,0.10596,20.943,190.339,0.440474,0.0,0.0
806,201.25,38.8995,41.5581,142.489,98.2668,93.4142,0.00871504,0.105299,20.9437,190.299,0.448969,0.0,0.0
819,204.5,38.6698,40.513,141.462,98.2519,93.618,0.00853959,0.104429,20.9441,190.249,0.428307,0.0,0.0
832,207.75,38.1478,40.6711,145.035,98.2391,93.4794,0.00832232,0.103107,20.9458,190.199,0.440286,0.0,0.0
845,211,38.3795,40.1653,144.642,98.2443,93.5421,0.00816817,0.102055,20.9476,190.158,0.434813,0.0,0.0
858,214.25,38.1168,40.1919,148.009,98.2443,93.4213,0.00802457,0.100408,20.9483,190.108,0.446269,0.0,0.0
871,217.5,38.0957,40.0367,148.409,98.233,93.577,0.00798806,0.0994881,20.9503,190.058,0.430495,0.0,0.0
884,220.75,37.8998,39.7726,144.31,98.2182,92.9758,0.00773532,0.098317,20.951,190.038,0.486285,0.0,0.0
897,224,37.7751,39.3844,144.474,98.2451,93.4819,0.00760983,0.0965597,20.9527,189.998,0.440594,0.0,0.0
910,227.25,37.7655,39.2854,143.703,98.2467,93.068,0.00771799,0.0954322,20.9548,189.928,0.480075,0.0,0.0
923,230.5,37.7139,39.3113,142.359,98.2515,93.4209,0.00752754,0.0943715,20.9557,189.908,0.446963,0.0,0.0
936,233.75,37.1723,39.0206,142.293,98.2576,93.6417,0.00718588,0.0937288,20.9571,189.858,0.426572,0.0,0.0
949,237,37.5403,39.0632,142.996,98.2656,93.76,0.00695429,0.0927214,20.9593,189.808,0.416103,0.0,0.0
962,240.25,37.6691,39.0773,142.173,98.2523,92.9256,0.0068109,0.0908906,20.9603,189.778,0.494157,0.0,0.0
975,243.5,37.2808,38.9997,146.58,98.2632,93.5176,0.00662499,0.0898482,20.9615,189.738,0.43884,0.0,0.0
988,246.75,37.4129,38.8274,142.792,98.2941,93.4757,0.00635717,0.0888434,20.9634,189.678,0.445606,0.0,0.0
1001,250,36.9114,38.5518,146.257,98.2849,93.5105,0.00623441,0.0879717,20.9643,189.638,0.441465,0.0,0.0
1014,253.25,37.135,38.4708,148.828,98.2849,93.0776,0.00606788,0.08659,20.965,189.628,0.48261,0.0,0.0
1027,256.5,36.9265,38.4073,147.299,98.3042,94.0672,0.00609727,0.0854154,20.9664,189.598,0.390584,0.0,0.0
1040,259.75,37.0582,38.6432,148.654,98.2957,93.6504,0.00598085,0.0840536,20.9693,189.558,0.42919,0.0,0.0
1053,263,36.7424,38.2861,148.202,98.2969,93.7085,0.00566649,0.082716,20.971,189.488,0.423799,0.0,0.0
1066,266.25,36.9404,38.63,146.06,98.3198,92.9547,0.00552784,0.0820477,20.9718,189.468,0.497473,0.0,0.0
1079,269.5,36.8641,38.0271,146.251,98.3287,93.5819,0.0051348,0.0812342,20.9721,189.438,0.438648,0.0,0.0
1092,272.75,36.4566,37.9362,144.721,98.3383,93.4815,0.004945,0.0804549,20.9733,189.428,0.44904,0.0,0.0
1105,276,36.5994,38.0792,146.621,98.358,93.364,0.00480956,0.0792127,20.9742,189.368,0.461962,0.0,0.0
1118,279.25,36.6344,37.6858,147.488,98.368,94.3213,0.00461387,0.0773511,20.977,189.318,0.372431,0.0,0.0
1131,282.5,36.7677,38.3173,144.042,98.3849,93.4051,0.00436775,0.0763848,20.979,189.308,0.460485,0.0,0.0
1144,285.75,36.2317,38.2028,148.673,98.3961,93.87,0.00410524,0.075443,20.9798,189.288,0.41748,0.0,0.0
1157,289,35.975,37.7929,146.768,98.415,93.8019,0.00384992,0.0747345,20.9805,189.248,0.425612,0.0,0.0
1170,292.25,36.0416,37.5952,144.776,98.4211,94.7675,0.00379066,0.0737674,20.9825,189.218,0.335362,0.0,0.0
1183,295.5,36.2516,37.1374,149.208,98.4215,94.1137,0.00392033,0.0728666,20.9826,189.188,0.396776,0.0,0.0
1196,298.75,36.0763,37.4597,142.846,98.4235,93.9348,0.00389246,0.0720187,20.9832,189.148,0.413826,0.0,0.0
1209,302,36.0263,37.6664,144.775,98.4456,93.863,,0.0710162,,189.138,0.422597,0.0,0.0
1222,305.25,36.2726,37.2959,142.23,98.4648,94.5708,,,,189.098,0.357733,0.0,0.0
1235,308.5,36.1601,37.7077,144.12,98.4484,93.7837,,,,189.068,0.430342,0.0,0.0
1248,311.75,36.1293,37.3096,146.315,98.4524,94.4753,,,,189.088,0.365566,0.0,0.0
1251,312.5,36.038,37.5036,144.947,98.458,94.6691,,,,189.068,0.3479,0.0,0.0

File: Cotton_Rug_Cone_HF50Scan_220321_R3.csv
Names,Time,Stack TC,Smoke TC,Exh Press,Smoke Comp,Smoke Meas,CO Meter,CO2 Meter,O2 Meter,Sample Mass,Ext Coeff,Start Test,Flame Verif
Chan Gain,,500,500,1,1,1,1,1,1,1,1,1.0,1.0
Offset,,0,0,0.134026,0,0,0,0,0,0,0,0.0,0.0
Gain,,1,1,25.011,13.1637,13.6028,1,1,1,1.00089,1.01066,1.0,1.0
Units,sec,C,C,Pa,%,%,%,%,%,g,/m,,
Baseline,,33.7875,34.7397,147.853,99.3417,95.2746,0.000265609,0.0533413,21.0035,-834.895,0.370657,,
15,3.5,31.4012,32.0411,146.81,99.2153,94.5064,0.000331342,0.0614161,20.994,181.891,0.431076,0.0,0.0
30,7.25,31.6023,32.3487,142.108,99.21,94.8605,0.000333392,0.0607411,20.9945,181.811,0.397454,0.0,0.0
45,11,31.2432,32.0694,144.615,99.2036,92.5138,0.000682421,0.0630653,20.9913,181.741,0.618955,0.0,0.0
60,14.75,31.71,32.5133,146.744,99.1964,90.4631,0.00148638,0.0670244,20.991,181.621,0.817037,0.0,0.0
75,18.5,32.02,33.2417,134.341,99.1703,94.2511,0.00184571,0.160676,20.8542,181.181,0.451037,0.0,1.0
90,22.25,33.7685,34.5356,126.669,99.161,92.7301,0.00238713,0.33333,20.6592,180.77,0.594448,0.0,0.0
105,26,37.1256,38.3664,125.364,99.1634,88.3962,0.00411064,0.482393,20.492,180.16,1.019,0.0,0.0
120,29.75,40.7566,42.3995,123.928,99.1735,85.453,0.00616954,0.618245,20.3266,179.379,1.32011,0.0,0.0
135,33.5,45.384,46.8119,124.707,99.1646,84.6074,0.00807855,0.770067,20.1592,178.508,1.40749,0.0,0.0
150,37.25,49.6272,52.1616,109.109,99.1574,82.8468,0.0113153,0.905428,20.0024,177.557,1.59326,0.0,0.0
165,41,54.6816,57.7386,113.448,99.1502,78.7338,0.0139035,1.03541,19.8573,176.586,2.04405,0.0,0.0
180,44.75,59.5724,63.4692,111.015,99.1566,76.9844,0.0152232,1.10771,19.7705,175.596,2.24383,0.0,0.0
195,48.5,63.7939,68.544,109.345,99.1663,77.1521,0.0155046,1.12391,19.7548,174.615,2.2254,0.0,0.0
210,52.25,67.9211,73.1707,114.552,99.1602,77.7881,0.0150274,1.09341,19.8004,173.724,2.15208,0.0,0.0
225,56,70.9867,76.6369,116.26,99.1518,76.4186,0.0146002,1.00576,19.8822,172.923,2.3088,0.0,0.0
240,59.75,72.9821,78.8361,124.675,99.1454,75.314,0.014725,0.892202,20.0158,172.233,2.43731,0.0,0.0
255,63.5,73.4654,79.8681,128.634,99.155,77.6162,0.013507,0.749876,20.1819,171.612,2.17122,0.0,0.0
270,67.25,73.1964,79.4069,137.045,99.1582,84.8037,0.00987927,0.571487,20.4093,171.282,1.38636,0.0,0.0
285,71,71.8464,78.1388,139.656,99.1466,92.3938,0.00608836,0.385174,20.6186,171.092,0.62536,0.0,0.0
300,74.75,69.3126,75.8855,139.445,99.1401,93.9252,0.00444188,0.265892,20.7591,170.971,0.479048,0.0,0.0
315,78.5,67.5007,73.2842,144.481,99.1377,93.6284,0.00453625,0.201939,20.8329,170.851,0.506893,0.0,0.0
330,82.25,64.7278,70.9437,144.684,99.1156,94.7679,0.00535533,0.169075,20.8668,170.801,0.39767,0.0,0.0
345,86,62.4796,68.9568,139.8,99.1136,94.2897,0.00630538,0.154046,20.8837,170.731,0.442341,0.0,0.0
360,89.75,60.2814,66.5336,144.277,99.1108,94.4657,0.00638911,0.150232,20.8883,170.631,0.425555,0.0,0.0
375,93.5,58.3277,65.0201,144.924,99.0947,93.9904,0.00628401,0.148297,20.8907,170.551,0.468838,0.0,0.0
390,97.25,57.3361,63.0526,144.271,99.0807,94.1295,0.0064645,0.144456,20.8935,170.471,0.454473,0.0,0.0
405,101,55.7352,60.875,145.986,99.0714,94.1448,0.00657996,0.141709,20.8987,170.411,0.4522,0.0,0.0
420,104.75,54.5714,59.2816,147.114,99.061,94.4861,0.00657406,0.139915,20.902,170.331,0.41919,0.0,0.0
435,108.5,53.1319,58.1208,142.957,99.0542,93.8003,0.00632918,0.137145,20.9053,170.261,0.483159,0.0,0.0
450,112.25,52.1944,56.545,145.272,99.0313,94.4429,0.00619194,0.136323,20.9076,170.191,0.42058,0.0,0.0
465,116,51.3274,55.7511,148.322,99.0164,93.7887,0.00620189,0.134421,20.9108,170.101,0.480878,0.0,0.0
480,119.75,49.811,54.6265,145.006,99.008,94.0635,0.00602023,0.133288,20.911,170.061,0.454183,0.0,0.0
495,123.5,48.8343,53.5244,145.216,99.0108,94.4728,0.00607567,0.133302,20.9101,169.991,0.415941,0.0,0.0
510,127.25,48.2169,52.435,143.571,98.9883,93.9751,0.00616948,0.133299,20.909,169.911,0.460758,0.0,0.0
525,131,47.4995,51.6544,143.503,98.9734,93.4707,0.00605033,0.132857,20.9081,169.861,0.507138,0.0,0.0
540,134.75,46.9305,50.9703,144.304,98.9513,94.4637,0.00626132,0.131901,20.9091,169.8,0.411473,0.0,0.0
555,138.5,46.3218,50.1253,140.363,98.9566,94.2424,0.00642943,0.131169,20.9101,169.72,0.43273,0.0,0.0
570,142.25,45.4412,49.6319,146.513,98.9425,93.4989,0.00645316,0.130248,20.9111,169.66,0.501689,0.0,0.0
585,146,44.9214,48.9004,146.501,98.9272,94.0099,0.00630434,0.128598,20.9121,169.59,0.451998,0.0,0.0
600,149.75,44.769,48.1594,148.673,98.9011,93.8206,0.00629229,0.127557,20.9136,169.53,0.467527,0.0,0.0
615,153.5,44.4,47.6907,148.606,98.8911,93.8675,0.00629211,0.126117,20.9146,169.46,0.462196,0.0,0.0
630,157.25,44.0073,46.549,143.534,98.8903,93.8381,0.00636345,0.124847,20.9155,169.41,0.464908,0.0,0.0
645,161,43.2134,46.1526,144.155,98.8826,93.9082,0.00661549,0.124616,20.9157,169.34,0.457598,0.0,0.0
660,164.75,42.9127,45.8422,145.434,98.8754,94.1664,0.00647307,0.12382,20.9162,169.3,0.432606,0.0,0.0
675,168.5,42.6629,45.207,147.178,98.865,94.1104,0.00635662,0.121578,20.9194,169.23,0.436948,0.0,0.0
690,172.25,42.2762,44.9428,145.306,98.8549,94.5351,0.0064825,0.120318,20.9202,169.21,0.396132,0.0,0.0
705,176,41.9277,44.5804,147.389,98.8545,93.9821,0.00657194,0.119283,20.9213,169.16,0.448103,0.0,0.0
720,179.75,41.064,44.2294,145.511,98.8766,94.5637,0.00651239,0.119419,20.9228,169.1,0.395391,0.0,0.0
735,183.5,41.4211,44.2399,147.457,98.8646,94.0531,0.00621047,0.117443,20.9246,169.05,0.44231,0.0,0.0
750,187.25,41.2917,43.7915,145.886,98.867,94.0884,0.00606098,0.116125,20.9255,169,0.439201,0.0,0.0
765,191,41.1091,43.3299,148.379,98.8714,94.44,0.00610227,0.114705,20.9273,168.97,0.406529,0.0,0.0
780,194.75,40.3395,43.0047,146.901,98.9011,94.3524,0.00638844,0.113458,20.9281,168.93,0.417419,0.0,0.0
795,198.5,40.928,42.5128,147.926,98.9172,94.2337,0.00656141,0.111898,20.9308,168.86,0.430022,0.0,0.0
810,202.25,39.9277,42.4392,149.032,98.9453,94.3142,0.00644189,0.110404,20.9333,168.82,0.42497,0.0,0.0
825,206,39.9318,41.7619,146.131,98.9477,94.7928,0.00635827,0.109441,20.9343,168.76,0.380307,0.0,0.0
840,209.75,39.6964,41.8885,144.979,98.963,94.9651,0.00642983,0.108232,20.9358,168.76,0.365578,0.0,0.0
855,213.5,39.7422,41.7721,143.604,98.9931,94.1772,0.00663933,0.107078,20.9369,168.699,0.442138,0.0,0.0
870,217.25,39.4053,41.3718,145.883,99.012,94.3893,0.00659174,0.105598,20.9382,168.659,0.423883,0.0,0.0
885,221,39.2312,40.9493,145.79,99.0321,94.2403,0.0060863,0.104111,20.9386,168.609,0.43969,0.0,0.0
900,224.75,38.9389,41.0536,143.351,99.0457,94.5575,0.00599808,0.103157,20.9396,168.579,0.411127,0.0,0.0
915,228.5,38.8782,40.5209,146.07,99.0594,94.6189,0.00598393,0.103019,20.9404,168.539,0.40659,0.0,0.0
930,232.25,38.8043,40.5722,143.722,99.0919,95.017,0.00607178,0.101253,20.9421,168.489,0.37228,0.0,0.0
945,236,38.2759,40.359,145.938,99.1249,95.23,0.00623257,0.099978,20.9423,168.449,0.355379,0.0,0.0
960,239.75,38.3174,39.9743,149.373,99.1622,94.6833,0.00645071,0.0995994,20.9421,168.409,0.409762,0.0,0.0
975,243.5,38.3347,39.7933,147.291,99.1803,95.1063,0.00645123,0.0994095,20.9435,168.389,0.371859,0.0,0.0
990,247.25,38.3807,40.0122,146.895,99.196,94.6542,0.00649912,0.0998285,20.9444,168.329,0.4155,0.0,0.0
1005,251,37.4019,39.2027,143.893,99.2402,94.9149,0.00633486,0.100419,20.9446,168.299,0.395066,0.0,0.0
1020,254.75,37.2333,38.8759,145.548,99.2908,95.2644,0.00610798,0.100937,20.9446,168.239,0.366997,0.0,0.0
1035,258.5,37.1497,38.845,144.828,99.3193,95.1303,0.00611206,0.0985732,20.9466,168.239,0.382031,0.0,0.0
1050,262.25,37.4831,38.8872,143.855,99.3326,94.4471,0.0059745,0.0956167,20.9515,168.169,0.447122,0.0,0.0
1065,266,37.6764,38.7611,142.241,99.3498,95.0328,0.00588003,0.0926925,20.9547,168.129,0.393852,0.0,0.0
1080,269.75,37.1463,38.5996,150.159,99.3723,94.8975,0.0058745,0.0901821,20.9569,168.089,0.408493,0.0,0.0
1095,273.5,37.1725,38.5411,144.392,99.3977,95.2262,0.00585205,0.088264,20.9608,168.059,0.380089,0.0,0.0
1110,277.25,37.0938,38.2446,143.81,99.4302,94.4724,0.0057443,0.086296,20.9619,168.039,0.453454,0.0,0.0
1125,281,37.3434,38.7313,143.095,99.4483,94.5114,0.00544706,0.0846177,20.9634,168.019,0.451404,0.0,0.0
1140,284.75,37.0421,38.3557,147.977,99.4587,95.5534,0.00533433,0.0836052,20.9645,167.969,0.355131,0.0,0.0
1155,288.5,36.2205,38.2918,141.414,99.4832,94.6658,0.00542481,0.0823399,20.967,167.949,0.440046,0.0,0.0
1170,292.25,37.1599,38.4957,145.165,99.5081,95.0336,0.00523839,0.081426,20.9686,167.909,0.407887,0.0,0.0
1185,296,36.339,38.0505,145.31,99.521,95.1602,0.0051565,0.0796784,20.9705,167.889,0.39723,0.0,0.0
1200,299.75,36.5941,37.9948,146.663,99.5262,95.7514,0.0050011,0.078232,20.9726,167.859,0.342792,0.0,0.0
1215,303.5,36.5267,37.5036,148.36,99.5511,95.6115,0.00464873,0.0769523,20.974,167.829,0.357973,0.0,0.0
1230,307.25,36.6732,37.7485,143.313,99.568,95.7061,0.00429157,0.0762339,20.9764,167.819,0.350703,0.0,0.0
1245,311,36.479,38.1366,146.854,99.5736,94.8323,0.00382952,0.0749419,20.9778,167.779,0.432521,0.0,0.0
1260,314.75,36.7661,37.3456,150.283,99.6073,95.2121,0.00379875,0.0737114,20.9788,167.769,0.400087,0.0,0.0
1275,318.5,35.7638,37.7106,147.204,99.6282,95.1328,0.00385905,0.0724345,20.9803,167.739,0.409332,0.0,0.0
1290,322.25,36.7877,37.309,146.06,99.6234,95.7045,0.00361599,0.0717763,20.9809,167.699,0.355792,0.0,0.0
1305,326,36.6189,37.2717,146.486,99.6335,95.5293,0.00354814,0.070905,20.9794,167.669,0.372928,0.0,0.0
1320,329.75,36.0413,37.4502,144.276,99.6692,94.9697,0.00332214,0.0702348,20.9807,167.649,0.428194,0.0,0.0
1335,333.5,36.2122,37.2207,143.114,99.668,95.5791,0.00319346,0.069372,20.9836,167.629,0.37138,0.0,0.0
1350,337.25,36.3556,37.5998,148.134,99.6724,95.4521,0.0031339,0.068451,20.9846,167.588,0.383564,0.0,0.0
1365,341,35.5714,37.066,146.249,99.6592,95.8651,0.00300585,0.0677107,20.9845,167.568,0.344103,0.0,0.0
1380,344.75,35.7798,36.6137,148.402,99.6499,95.3242,0.00292707,0.0670026,20.9846,167.518,0.393446,0.0,0.0
1395,348.5,35.8274,36.485,145.463,99.6688,94.9826,0.00291282,0.0662832,20.986,167.528,0.426957,0.0,0.0
1410,352.25,35.7182,36.6374,146.37,99.6716,94.3607,0.00275682,0.0658354,20.9863,167.478,0.485441,0.0,0.0
1425,356,35.5465,36.6779,143.297,99.658,95.0627,,0.0656052,,167.468,0.418517,0.0,0.0
1440,359.75,35.7915,37.1544,146.949,99.6451,94.677,,,,167.438,0.453412,0.0,0.0
1455,363.5,35.2463,37.3135,143.17,99.6379,94.956,,,,167.428,0.426684,0.0,0.0
1468,366.75,35.7411,36.8965,144.658,99.627,94.8427,,,,167.428,0.436307,0.0,0.0

File: Cotton_Rug_Cone_HF75Scalar_220321_R1.csv
LABORATORY,FSRI
TEST IDENT,CottonRug_HF75_1
OPERATOR,Dow
MATERIAL,Cotton Rug
ORIENTATION,Horizontal
HEAT FLUX,75
SURF AREA,0.01
C FACTOR,0.0392277
SPEC HOLDER DIFF,-566
SPECIMEN MASS,14.25
SCAN TIME,0.25
O2 DELAY TIME,11
CO DELAY TIME,11
CO2 DELAY TIME,8
FLOW FACTOR,1
SCAN COUNT,1248
TIME TO IGN,6.5
END OF TEST SCAN,768
END OF TEST TIME,192
TEST STATUS,1
PRE TEST CMT,Dimensions: 101.0 x 103.0 x 5.31 mm; with frame; with calcium silicate substrate

File: Cotton_Rug_Cone_HF75Scalar_220321_R2.csv
LABORATORY,FSRI
TEST IDENT,CottonRug_HF75_2
OPERATOR,Dow
MATERIAL,Cotton Rug
ORIENTATION,Horizontal
HEAT FLUX,75
SURF AREA,0.00884
C FACTOR,0.0392277
SPEC HOLDER DIFF,-566
SPECIMEN MASS,14.11
SCAN TIME,0.25
O2 DELAY TIME,11
CO DELAY TIME,11
CO2 DELAY TIME,8
FLOW FACTOR,1
SCAN COUNT,1001
TIME TO IGN,6.25
END OF TEST SCAN,521
END OF TEST TIME,130.25
TEST STATUS,1
PRE TEST CMT,Dimensions: 100.0 x 100.0 x 5.34 mm; with frame; with calcium silicate substrate

File: Cotton_Rug_Cone_HF75Scalar_220321_R3.csv
LABORATORY,FSRI
TEST IDENT,CottonRug_HF75_3
OPERATOR,Dow
MATERIAL,Cotton Rug
ORIENTATION,Horizontal
HEAT FLUX,75
SURF AREA,0.00884
C FACTOR,0.0392277
SPEC HOLDER DIFF,-566
SPECIMEN MASS,38.05
SCAN TIME,0.25
O2 DELAY TIME,11
CO DELAY TIME,11
CO2 DELAY TIME,8
FLOW FACTOR,1
SCAN COUNT,1083
TIME TO IGN,6
END OF TEST SCAN,603
END OF TEST TIME,150.75
TEST STATUS,1
PRE TEST CMT,Dimensions: 99.65 x 101.60 x 16.50 mm; with frame; with calcium silicate substrate