Folder: fsri_materials_database/01_Data/Cotton_Rug/Cone (part 4)

File: Cotton_Rug_Cone_HF75Scan_220321_R1.csv
Names,Time,Stack TC,Smoke TC,Exh Press,Smoke Comp,Smoke Meas,CO Meter,CO2 Meter,O2 Meter,Sample Mass,Ext Coeff,Start Test,Flame Verif
Chan Gain,,500,500,1,1,1,1,1,1,1,1,1.0,1.0
Offset,,0,0,0.129198,0,0,0,0,0,0,0,0.0,0.0
Gain,,1,1,25.011,13.1874,13.4895,1,1,1,1.00089,1.01187,1.0,1.0
Units,sec,C,C,Pa,%,%,%,%,%,g,/m,,
Baseline,,40.1427,42.1954,126.491,99.9138,94.3779,0.00105099,0.0697317,20.9922,-835.135,0.505995,,
13,3,39.7356,41.3137,126.916,99.9002,91.2512,0.00127397,0.072922,20.9875,179.29,0.803786,0.0,0.0
26,6.25,39.6639,41.8045,112.951,99.9026,94.7458,0.00228855,0.141189,20.87,178.9,0.470421,0.0,1.0
39,9.5,41.4359,43.2703,111.656,99.9187,91.4965,0.0036945,0.381439,20.5972,178.319,0.781596,0.0,1.0
52,12.75,44.9372,47.1927,104.255,99.9103,83.9062,0.00608337,0.633238,20.2786,177.558,1.54953,0.0,1.0
65,16,49.4873,52.1707,98.0117,99.9059,81.9405,0.00868448,0.859809,20.0123,176.728,1.75955,0.0,0.0
78,19.25,53.9423,57.1709,90.1523,99.9087,80.9196,0.0112114,1.07187,19.779,175.847,1.87109,0.0,0.0
91,22.5,60.2888,64.5974,88.4288,99.9103,78.713,0.0151821,1.33711,19.523,174.756,2.11663,0.0,0.0
104,25.75,66.9826,72.4374,95.6311,99.8998,71.2322,0.0205452,1.5725,19.2287,173.675,3.00209,0.0,0.0
117,29,73.9882,80.7186,83.3492,99.9059,70.8362,0.0241652,1.69702,19.1022,172.484,3.05211,0.0,0.0
130,32.25,80.5946,88.2872,89.6974,99.9179,71.2088,0.0253876,1.69619,19.1054,171.453,3.00662,0.0,0.0
143,35.5,84.8404,93.8398,94.4396,99.9103,70.3056,0.0253016,1.63493,19.1916,170.472,3.11925,0.0,0.0
156,38.75,89.7733,99.0117,89.7394,99.9022,71.7654,0.0241845,1.51138,19.3294,169.561,2.93612,0.0,0.0
169,42,92.0701,101.955,100.969,99.9123,75.5535,0.0213975,1.25204,19.6038,168.921,2.48044,0.0,0.0
182,45.25,92.6728,103.176,112.152,99.9026,79.8941,0.0164236,0.923711,19.9593,168.56,1.98375,0.0,0.0
195,48.5,91.011,101.031,117.6,99.9014,88.6227,0.0105192,0.614993,20.3781,168.35,1.06332,0.0,0.0
208,51.75,88.8849,99.1306,117.719,99.9171,91.3471,0.00654053,0.414967,20.6052,168.2,0.795962,0.0,0.0
221,55,86.6063,95.9863,119.361,99.9087,92.4479,0.00441945,0.304564,20.7379,168.11,0.688888,0.0,0.0
234,58.25,84.3272,93.4129,122.569,99.9079,93.081,0.00349628,0.243925,20.806,168.05,0.628234,0.0,0.0
247,61.5,82.2043,91.0651,122.13,99.8934,93.1444,0.00324033,0.212092,20.8432,167.94,0.620904,0.0,0.0
260,64.75,79.6861,88.4688,123.725,99.9038,93.5927,0.00321094,0.194127,20.8603,167.84,0.579215,0.0,0.0
273,68,77.4012,85.6778,121.576,99.8994,93.5779,0.00335403,0.183982,20.8696,167.76,0.580227,0.0,0.0
286,71.25,75.5986,83.7569,120.978,99.8942,93.2354,0.00362739,0.177695,20.8756,167.72,0.61231,0.0,0.0
299,74.5,73.9197,81.9045,122.037,99.9067,93.689,0.00382871,0.17382,20.8792,167.62,0.570334,0.0,0.0
312,77.75,71.9364,79.7162,122.024,99.899,94.3864,0.00422458,0.171327,20.8834,167.559,0.503832,0.0,0.0
325,81,69.963,78.1782,121.369,99.8894,93.3478,0.00452703,0.168238,20.887,167.479,0.601188,0.0,0.0
338,84.25,68.8743,75.9707,119.26,99.9046,93.8088,0.00474898,0.164896,20.8908,167.409,0.558813,0.0,0.0
351,87.5,67.4085,74.1725,122.264,99.9127,93.6503,0.00482102,0.162953,20.8925,167.349,0.574537,0.0,0.0
364,90.75,66.213,73.5925,122.298,99.8966,94.1517,0.00515228,0.160956,20.8927,167.259,0.525711,0.0,0.0
377,94,65.2269,72.0236,122.121,99.8966,94.3811,0.00539956,0.159493,20.8948,167.199,0.50412,0.0,0.0
390,97.25,63.7597,70.3732,120.319,99.901,93.8344,0.0056926,0.158107,20.8978,167.149,0.556077,0.0,0.0
403,100.5,62.7575,69.3973,122.814,99.899,93.9731,0.00602801,0.156614,20.8998,167.039,0.542785,0.0,0.0
416,103.75,62.1198,68.6372,121.943,99.891,93.8607,0.00640036,0.155405,20.9018,167.019,0.552692,0.0,0.0
429,107,61.1832,67.2958,121.957,99.9038,94.7289,0.00661992,0.154062,20.9019,166.919,0.47211,0.0,0.0
442,110.25,60.2927,66.3613,122.424,99.9143,93.9562,0.00667603,0.152714,20.9037,166.899,0.545739,0.0,0.0
455,113.5,59.3481,65.3918,123.182,99.9034,94.1785,0.00678015,0.151378,20.9067,166.829,0.523796,0.0,0.0
468,116.75,58.9235,64.7449,120.419,99.9022,93.9875,0.00705668,0.150085,20.9077,166.759,0.541711,0.0,0.0
481,120,57.8332,63.6508,122.443,99.9147,93.9295,0.00772466,0.148536,20.9111,166.709,0.548302,0.0,0.0
494,123.25,57.5428,63.0259,120.46,99.8982,94.3045,0.00815872,0.147006,20.9131,166.669,0.511467,0.0,0.0
507,126.5,57.219,62.3246,122.476,99.8998,94.2374,0.00841152,0.145615,20.9145,166.599,0.517928,0.0,0.0
520,129.75,56.0559,61.4265,124.102,99.9071,94.4778,0.0084851,0.144467,20.9149,166.549,0.495957,0.0,0.0
533,133,56.5844,61.1902,123.309,99.9022,93.9455,0.0084994,0.1434,20.9166,166.499,0.545677,0.0,0.0
546,136.25,55.218,60.0707,121.115,99.9055,94.4831,0.00848067,0.14223,20.9171,166.448,0.495311,0.0,0.0
559,139.5,54.8076,59.8724,124.426,99.9038,94.3164,0.00854107,0.140786,20.9185,166.378,0.510845,0.0,0.0
572,142.75,54.3215,58.8523,120.333,99.9143,94.23,0.00869408,0.139253,20.921,166.318,0.519914,0.0,0.0
585,146,53.3119,58.1811,121.804,99.899,94.0464,0.00907836,0.137212,20.923,166.248,0.535866,0.0,0.0
598,149.25,54.1163,57.9725,123.726,99.8966,94.5906,0.00934894,0.135766,20.9236,166.238,0.484435,0.0,0.0
611,152.5,53.1409,57.817,120.802,99.9195,93.7236,0.00952043,0.135264,20.9236,166.168,0.568203,0.0,0.0
624,155.75,53.4553,57.071,121.005,99.9159,94.0748,0.00954132,0.134042,20.9258,166.118,0.534688,0.0,0.0
637,159,52.6673,57.2905,123.258,99.8938,94.1328,0.00981283,0.131502,20.9288,166.088,0.527247,0.0,0.0
650,162.25,52.5844,56.5158,124.197,99.9199,94.2687,0.010141,0.128813,20.9328,166.028,0.51677,0.0,0.0
663,165.5,52.1677,55.8084,123.826,99.9071,94.253,0.010391,0.126072,20.9352,165.978,0.517099,0.0,0.0
676,168.75,51.869,56.101,121.092,99.8974,94.5013,0.0103915,0.124489,20.9369,165.958,0.492895,0.0,0.0
689,172,52.0642,55.5591,121.046,99.903,93.806,0.0105938,0.12293,20.9383,165.918,0.558943,0.0,0.0
702,175.25,51.698,55.0728,119.937,99.9127,94.2818,0.0107877,0.121324,20.9401,165.868,0.514886,0.0,0.0
715,178.5,51.3249,54.4498,122.644,99.9063,94.5774,0.0107426,0.119965,20.9417,165.818,0.48653,0.0,0.0
728,181.75,50.9532,54.1727,125.935,99.895,95.0414,0.010426,0.118979,20.9433,165.758,0.442095,0.0,0.0
741,185,50.0626,53.4025,121.619,99.9195,94.6289,0.0100764,0.117728,20.9456,165.728,0.482882,0.0,0.0
754,188.25,50.3776,53.3668,121.473,99.9095,94.1946,0.00991087,0.116597,20.9462,165.668,0.52282,0.0,0.0
767,191.5,50.7493,53.3504,123.469,99.8934,94.251,0.00972963,0.115707,20.9464,165.618,0.516077,0.0,0.0
780,194.75,49.5436,52.3333,122.816,99.8898,94.2888,0.00974041,0.115015,20.9464,165.608,0.512189,0.0,0.0
793,198,49.1771,52.5707,126.015,99.9059,94.1579,0.00971234,0.113957,20.9475,165.588,0.525951,0.0,0.0
806,201.25,49.2867,52.3658,126.851,99.8938,94.2217,0.00961997,0.113005,20.9496,165.508,0.518865,0.0,0.0
819,204.5,48.7911,51.6896,121.389,99.8934,94.0208,0.0095094,0.111881,20.9504,165.458,0.537775,0.0,0.0
832,207.75,48.7895,51.5582,123.713,99.9163,94.3312,0.00942867,0.110642,20.9511,165.418,0.510559,0.0,0.0
845,211,48.4187,51.8864,123.433,99.899,94.5041,0.00908503,0.109586,20.9524,165.348,0.492767,0.0,0.0
858,214.25,48.7624,51.3306,126.166,99.893,94.4136,0.008978,0.109004,20.9527,165.337,0.500741,0.0,0.0
871,217.5,48.9228,51.2631,121.879,99.8898,94.3658,0.00892381,0.10818,20.9543,165.307,0.504945,0.0,0.0
884,220.75,48.1936,50.7605,123.838,99.9014,93.8241,0.00855813,0.106866,20.9563,165.277,0.557086,0.0,0.0
897,224,47.8226,51.1209,120.829,99.8793,95.1085,0.00836729,0.105525,20.9589,165.217,0.434435,0.0,0.0
910,227.25,48.3465,50.8475,125.874,99.8753,94.388,0.0081517,0.105035,20.9599,165.157,0.501567,0.0,0.0
923,230.5,48.3649,50.9823,122.205,99.891,93.9389,0.00813436,0.104696,20.9603,165.147,0.545298,0.0,0.0
936,233.75,48.0798,50.4748,125.86,99.8741,94.0661,0.0080727,0.104099,20.9618,165.087,0.531784,0.0,0.0
949,237,47.9254,50.4831,120.293,99.8688,94.2905,0.00788826,0.103286,20.9632,165.057,0.510174,0.0,0.0
962,240.25,47.9722,50.5431,120.302,99.8608,94.2526,0.00787147,0.102496,20.9619,164.997,0.513025,0.0,0.0
975,243.5,48.0102,50.3357,120.916,99.868,94.3399,0.00784185,0.101889,20.9609,164.967,0.505454,0.0,0.0
988,246.75,47.5677,50.0785,124.073,99.864,94.006,0.00739585,0.101112,20.9606,164.917,0.536564,0.0,0.0
1001,250,47.7218,50.117,121.382,99.8447,94.9249,0.00686574,0.100208,20.9619,164.887,0.44851,0.0,0.0
1014,253.25,47.3462,49.9403,120.613,99.8568,94.957,0.00650758,0.0991837,20.9635,164.857,0.446582,0.0,0.0
1027,256.5,46.7789,49.3242,121.573,99.829,94.3769,0.00616021,0.0982031,20.9654,164.817,0.498498,0.0,0.0
1040,259.75,47.2172,49.4701,124.393,99.8137,93.8348,0.00591264,0.0976169,20.9663,164.787,0.548275,0.0,0.0
1053,263,47.1259,49.8918,121.591,99.8081,94.3275,0.00598691,0.0968293,20.9657,164.747,0.501285,0.0,0.0
1066,266.25,47.6596,49.937,119.335,99.8036,94.1221,0.00590645,0.0963285,20.9662,164.697,0.520243,0.0,0.0
1079,269.5,47.3773,49.4688,127.287,99.7835,94.2065,0.00560243,0.0960201,20.9654,164.677,0.510497,0.0,0.0
1092,272.75,47.0453,49.6281,126.294,99.7682,94.1448,0.00544432,0.0955644,20.9641,164.627,0.514956,0.0,0.0
1105,276,47.0972,49.3176,123.428,99.7654,94.8989,0.00527038,0.0948952,20.9638,164.587,0.443885,0.0,0.0
1118,279.25,47.1363,49.1854,123.717,99.7485,93.6779,0.00522373,0.0948389,20.9637,164.567,0.557325,0.0,0.0
1131,282.5,47.1074,49.3767,123.932,99.7425,93.645,0.00534257,0.0946886,20.9637,164.517,0.559908,0.0,0.0
1144,285.75,47.1978,49.5882,123.694,99.7461,94.0859,0.00495723,0.0937303,20.9637,164.507,0.518539,0.0,0.0
1157,289,46.6636,49.5618,123.865,99.7203,94.491,0.00448687,0.09313,20.9643,164.457,0.478113,0.0,0.0
1170,292.25,47.0556,49.0354,123.091,99.7046,94.479,0.00439048,0.0923511,20.9654,164.447,0.477837,0.0,0.0
1183,295.5,46.3216,48.9553,124.661,99.7002,93.7125,0.00463678,0.0915974,20.966,164.387,0.549751,0.0,0.0
1196,298.75,47.0295,49.2724,126.354,99.6865,93.7434,0.0047269,0.091283,20.9663,164.387,0.545608,0.0,0.0
1209,302,47.1026,49.2906,124.817,99.6515,94.6585,,0.0909003,,164.327,0.45626,0.0,0.0
1222,305.25,46.979,49.3341,123.879,99.6475,94.1493,,,,164.317,0.503781,0.0,0.0
1235,308.5,47.2154,49.409,122.051,99.6463,94.272,,,,164.257,0.492117,0.0,0.0
1248,311.75,46.544,48.7786,123.435,99.6217,94.309,,,,164.267,0.486442,0.0,0.0

File: Cotton_Rug_Cone_HF75Scan_220321_R2.csv
Names,Time,Stack TC,Smoke TC,Exh Press,Smoke Comp,Smoke Meas,CO Meter,CO2 Meter,O2 Meter,Sample Mass,Ext Coeff,Start Test,Flame Verif
Chan Gain,,500,500,1,1,1,1,1,1,1,1,1.0,1.0
Offset,,0,0,0.129198,0,0,0,0,0,0,0,0.0,0.0
Gain,,1,1,25.011,13.1874,13.4895,1,1,1,1.00089,1.01187,1.0,1.0
Units,sec,C,C,Pa,%,%,%,%,%,g,/m,,
Baseline,,43.6046,45.3661,125.095,97.9596,92.8384,0.000736154,0.0698688,20.9921,-835.816,0.476673,,
10,2.25,42.5174,44.4696,124.165,99.1823,93.2379,0.000903133,0.0769944,20.9731,175.777,0.548589,0.0,0.0
20,4.75,42.2265,44.4509,127.529,99.1911,88.5992,0.00127798,0.0852279,20.9637,175.627,1.00234,0.0,0.0
30,7.25,42.7033,44.3921,109.446,99.1903,93.9109,0.00201164,0.181398,20.7941,175.306,0.485464,0.0,1.0
40,9.75,44.4289,46.0357,105.922,99.2036,91.5463,0.00329321,0.384727,20.5666,174.826,0.713008,0.0,1.0
50,12.25,46.8908,48.5445,100.906,99.1971,88.5399,0.00504643,0.580465,20.3664,174.275,1.00882,0.0,0.0
60,14.75,49.8983,52.0979,99.8657,99.2088,86.5927,0.00719571,0.747734,20.1732,173.735,1.20725,0.0,0.0
70,17.25,53.9571,56.5433,92.6826,99.1947,81.0962,0.0093535,0.912721,20.0078,173.074,1.78808,0.0,0.0
80,19.75,57.2617,60.1846,91.788,99.1963,80.0892,0.0119878,1.07555,19.79,172.384,1.89912,0.0,0.0
90,22.25,61.5503,65.6096,88.3479,99.1839,75.6659,0.0149574,1.27693,19.552,171.583,2.40229,0.0,0.0
100,24.75,66.7794,71.167,83.1836,99.1971,73.5038,0.0179781,1.47928,19.3306,170.672,2.6608,0.0,0.0
110,27.25,72.3258,77.7472,82.418,99.1879,69.9079,0.0208419,1.66021,19.1227,169.771,3.10518,0.0,0.0
120,29.75,77.8456,84.1223,84.5109,99.1963,69.798,0.023007,1.77577,19.007,168.921,3.11991,0.0,0.0
130,32.25,82.4383,90.2721,91.3255,99.1911,70.3694,0.0243737,1.79546,18.9816,168.02,3.04707,0.0,0.0
140,34.75,87.2301,95.3646,86.842,99.1887,67.1201,0.0249456,1.74633,19.0408,167.189,3.46647,0.0,0.0
150,37.25,90.5275,99.5092,98.9399,99.1963,68.5313,0.024701,1.64911,19.1268,166.438,3.28247,0.0,0.0
160,39.75,93.0772,102.761,92.8986,99.1754,68.2271,0.0232426,1.51563,19.2794,165.848,3.32009,0.0,0.0
170,42.25,95.4688,105.014,102.348,99.1919,74.0011,0.0209687,1.31523,19.5519,165.317,2.60048,0.0,0.0
180,44.75,96.3588,106.294,106.437,99.1839,78.2083,0.0177034,1.07802,19.7901,164.937,2.10895,0.0,0.0
190,47.25,95.5694,105.88,108.588,99.1806,83.0808,0.0138315,0.849699,20.0555,164.707,1.57221,0.0,0.0
200,49.75,94.5493,105.057,113.033,99.1609,84.2594,0.0105096,0.652325,20.3022,164.477,1.44542,0.0,0.0
210,52.25,92.7964,103.385,113.798,99.1758,85.2602,0.00806956,0.527989,20.4478,164.317,1.34195,0.0,0.0
220,54.75,91.4237,100.949,114.863,99.1593,87.9574,0.0065651,0.449418,20.5476,164.156,1.06402,0.0,0.0
230,57.25,89.7873,99.067,113.983,99.1605,88.2884,0.0057575,0.393136,20.6146,163.976,1.03079,0.0,0.0
240,59.75,88.7895,97.8253,118.118,99.1505,89.1875,0.00525085,0.351358,20.6599,163.856,0.939959,0.0,0.0
250,62.25,86.6946,96.2613,120.883,99.142,90.4986,0.00472961,0.318944,20.6949,163.766,0.809664,0.0,0.0
260,64.75,85.4375,94.0882,119.486,99.1392,91.019,0.00436782,0.291325,20.7316,163.666,0.758523,0.0,0.0
270,67.25,83.5027,92.3247,119.535,99.1352,91.6311,0.00430407,0.271082,20.7529,163.616,0.698667,0.0,0.0
280,69.75,82.0465,90.7059,120.278,99.1295,92.2923,0.00450875,0.256414,20.7704,163.526,0.634349,0.0,0.0
290,72.25,80.8825,89.0851,121.613,99.1162,92.8826,0.00454519,0.244249,20.7824,163.426,0.576566,0.0,0.0
300,74.75,79.1484,87.6592,118.791,99.1086,93.4494,0.00468293,0.232733,20.7963,163.336,0.521875,0.0,0.0
310,77.25,78.3137,85.9403,116.318,99.1014,93.2115,0.00508714,0.222066,20.8077,163.286,0.543856,0.0,0.0
320,79.75,76.527,84.4288,119.857,99.1154,93.9439,0.00565559,0.21386,20.8163,163.196,0.475651,0.0,0.0
330,82.25,75.2783,82.664,120.67,99.0941,93.3828,0.00632377,0.206869,20.8247,163.106,0.526914,0.0,0.0
340,84.75,74.0016,81.436,122.229,99.1058,93.7977,0.00689587,0.20004,20.8335,163.075,0.488604,0.0,0.0
350,87.25,72.9489,80.0175,120.256,99.0804,93.5972,0.00750111,0.194273,20.8399,162.955,0.505326,0.0,0.0
360,89.75,71.7761,79.3813,118.528,99.1062,94.0315,0.00823341,0.190182,20.8446,162.955,0.466541,0.0,0.0
370,92.25,70.4736,77.338,118.746,99.0663,93.4017,0.0088785,0.186918,20.8491,162.885,0.522626,0.0,0.0
380,94.75,69.7148,76.7597,118.447,99.0728,94.0089,0.00941414,0.184671,20.8528,162.855,0.465687,0.0,0.0
390,97.25,68.2066,75.9002,120.695,99.0623,93.2074,0.009794,0.181628,20.8551,162.775,0.540751,0.0,0.0
400,99.75,67.4035,74.4201,122.633,99.0651,93.957,0.0100568,0.179959,20.8558,162.745,0.469901,0.0,0.0
410,102.25,66.8927,73.3231,123.062,99.0567,93.3708,0.0103458,0.178208,20.8573,162.685,0.524696,0.0,0.0
420,104.75,65.8667,72.8097,119.707,99.0374,93.7195,0.0105146,0.175006,20.862,162.705,0.489879,0.0,0.0
430,107.25,65.5555,71.795,122.491,99.0406,93.2626,0.0105228,0.171577,20.8657,162.645,0.533551,0.0,0.0
440,109.75,64.6056,70.8636,120.985,99.0341,93.5659,0.0105097,0.168814,20.8694,162.615,0.504146,0.0,0.0
450,112.25,64.0599,70.1617,121.219,99.0386,93.3605,0.01062,0.165578,20.8734,162.485,0.524052,0.0,0.0
460,114.75,63.2371,69.1698,121.247,99.0177,93.7771,0.0108209,0.162508,20.8763,162.485,0.482656,0.0,0.0
470,117.25,62.3175,68.4481,122.03,99.0346,93.0036,0.0112272,0.160854,20.8774,162.435,0.557689,0.0,0.0
480,119.75,61.6855,67.8081,122.006,99.0185,94.2802,0.0118235,0.160328,20.8777,162.375,0.435241,0.0,0.0
490,122.25,61.5915,67.0966,120.617,99.0181,93.7351,0.0122063,0.159186,20.8773,162.365,0.486666,0.0,0.0
500,124.75,60.7934,66.5918,119.226,98.9943,93.5248,0.0123799,0.157262,20.8782,162.335,0.50448,0.0,0.0
510,127.25,60.4111,65.6683,123.483,98.9838,94.139,0.0125971,0.154808,20.8809,162.245,0.445441,0.0,0.0
520,129.75,59.3946,64.7032,118.99,98.9698,92.9933,0.0129599,0.152008,20.883,162.245,0.552861,0.0,0.0
530,132.25,58.5648,64.1992,121.239,98.9838,93.435,0.0132844,0.150027,20.8841,162.195,0.512063,0.0,0.0
540,134.75,58.6962,63.4831,119.507,98.9669,93.3515,0.0135788,0.149204,20.8846,162.185,0.51849,0.0,0.0
550,137.25,57.8328,62.7783,123.545,98.9537,93.1106,0.0138311,0.148491,20.8848,162.125,0.540226,0.0,0.0
560,139.75,57.3137,62.6627,123.344,98.9472,93.2691,0.0138779,0.146948,20.8849,162.105,0.524552,0.0,0.0
570,142.25,56.9928,61.5932,121.835,98.9347,93.3041,0.0138584,0.145795,20.8848,162.055,0.520105,0.0,0.0
580,144.75,56.0717,61.1947,124.366,98.9339,93.4795,0.0140269,0.145391,20.8831,162.025,0.503365,0.0,0.0
590,147.25,56.333,60.8258,122.188,98.9368,93.298,0.0140532,0.145189,20.8822,161.995,0.520872,0.0,0.0
600,149.75,56.0535,60.6792,124.013,98.9259,94.1225,0.0138126,0.144532,20.8819,161.964,0.441796,0.0,0.0
610,152.25,55.7892,59.8347,122.908,98.9174,93.2654,0.0134276,0.143075,20.8832,161.904,0.522234,0.0,0.0
620,154.75,55.1065,59.443,121.664,98.9158,93.7936,0.0130185,0.141019,20.8851,161.864,0.471965,0.0,0.0
630,157.25,54.6357,58.7855,118.374,98.8981,93.1489,0.0126367,0.138556,20.8894,161.864,0.531594,0.0,0.0
640,159.75,54.2454,58.9278,125.567,98.9158,93.6248,0.0122654,0.136513,20.8938,161.804,0.487952,0.0,0.0
650,162.25,54.5782,58.5642,124.422,98.886,93.9542,0.0119763,0.134983,20.8966,161.794,0.454111,0.0,0.0
660,164.75,54.4704,58.2565,125.794,98.8917,93.1584,0.0116642,0.133686,20.8984,161.764,0.530114,0.0,0.0
670,167.25,54.2624,57.9047,121.095,98.8784,92.818,0.0112789,0.13244,20.9012,161.714,0.561419,0.0,0.0
680,169.75,54.0949,57.4167,121.308,98.8696,93.517,0.0109352,0.130736,20.9024,161.714,0.49403,0.0,0.0
690,172.25,53.6634,57.685,119.247,98.8579,93.3922,0.0106324,0.128355,20.9064,161.664,0.504829,0.0,0.0
700,174.75,53.4333,57.0447,119.122,98.8458,94.0793,0.0102882,0.1257,20.9105,161.644,0.438684,0.0,0.0
710,177.25,52.9757,56.7352,120.28,98.8478,93.7829,0.0100312,0.124027,20.9132,161.584,0.466873,0.0,0.0
720,179.75,52.4584,56.5606,121.873,98.8317,93.8895,0.00985225,0.123074,20.9138,161.584,0.455341,0.0,0.0
730,182.25,52.4392,56.0452,121.397,98.8446,93.1535,0.00969981,0.122362,20.914,161.544,0.526357,0.0,0.0
740,184.75,53.0439,55.6502,121.77,98.8261,93.7343,0.00946324,0.121366,20.9151,161.504,0.469521,0.0,0.0
750,187.25,51.6025,54.9334,122.524,98.8293,93.5989,0.00924709,0.120248,20.9169,161.494,0.482644,0.0,0.0
760,189.75,52.0536,55.4968,121.871,98.816,93.4,0.00905167,0.118956,20.9176,161.494,0.500327,0.0,0.0
770,192.25,51.9181,55.4191,125.137,98.8172,92.9517,0.00872961,0.11788,20.9191,161.474,0.543141,0.0,0.0
780,194.75,51.2132,54.7383,123.31,98.7995,93.2062,0.00842397,0.116886,20.9202,161.414,0.517289,0.0,0.0
790,197.25,51.7805,54.8632,120.011,98.8112,94.2242,0.00819086,0.115908,20.9208,161.364,0.421914,0.0,0.0
800,199.75,51.8324,55.0314,120.141,98.7959,93.5301,0.00791436,0.114882,20.9224,161.384,0.486166,0.0,0.0
810,202.25,51.7459,54.6031,123.784,98.7899,93.4634,0.00754097,0.113463,20.9277,161.344,0.491954,0.0,0.0
820,204.75,51.4094,54.6048,121.368,98.777,93.3523,0.00726015,0.111846,20.9316,161.284,0.501359,0.0,0.0
830,207.25,51.1463,54.2479,123.558,98.7875,92.869,0.0071569,0.11088,20.9337,161.254,0.548371,0.0,0.0
840,209.75,50.5136,53.9598,121.914,98.7923,93.6742,0.00713261,0.10968,20.9362,161.244,0.472177,0.0,0.0
850,212.25,51.1083,54.092,122.222,98.7802,93.764,0.00698314,0.108485,20.9384,161.234,0.462592,0.0,0.0
860,214.75,51.2918,53.6102,123.585,98.7746,94.1773,0.00679137,0.107474,20.9399,161.184,0.423046,0.0,0.0
870,217.25,51.332,53.7315,119.306,98.7633,93.2951,0.00674776,0.106771,20.9404,161.184,0.505572,0.0,0.0
880,219.75,49.9359,52.9401,125.789,98.7629,93.2127,0.00679766,0.106398,20.9406,161.154,0.513372,0.0,0.0
890,222.25,50.7146,52.8656,120.757,98.7601,93.7446,0.00667114,0.10616,20.9396,161.124,0.462616,0.0,0.0
900,224.75,50.7036,52.9402,120.831,98.771,93.3367,0.00642732,0.105906,20.9393,161.134,0.502304,0.0,0.0
910,227.25,49.9999,52.3918,124.294,98.7557,93.9702,0.00607758,0.105712,20.9385,161.094,0.440884,0.0,0.0
920,229.75,50.1835,52.9475,123.107,98.7633,93.1728,0.00583047,0.105172,20.938,161.084,0.517211,0.0,0.0
930,232.25,50.2254,52.8256,124.455,98.7492,93.4248,0.00569591,0.104552,20.938,161.054,0.491977,0.0,0.0
940,234.75,49.9548,52.3916,120.125,98.7512,93.6347,0.00566233,0.103884,20.9394,161.024,0.472233,0.0,0.0
950,237.25,50.2259,52.4277,120.569,98.7392,92.8949,0.00567488,0.103157,20.9395,161.024,0.541553,0.0,0.0
960,239.75,49.7574,52.252,122.892,98.7468,92.9213,,0.102234,,161.004,0.539723,0.0,0.0
970,242.25,50.1684,52.4441,119.158,98.7323,94.0632,,,,160.964,0.430001,0.0,0.0
980,244.75,49.3636,52.5733,123.297,98.738,93.927,,,,160.934,0.443377,0.0,0.0
990,247.25,49.621,52.4229,122.95,98.7371,93.2012,,,,160.934,0.512154,0.0,0.0
1000,249.75,49.4533,52.0237,121.778,98.738,93.4075,,,,160.934,0.492606,0.0,0.0
1001,250,49.4443,52.0575,123.161,98.7239,94.2147,,,,160.914,0.414957,0.0,0.0