Folder: fsri_materials_database/01_Data/Cotton_Rug/Cone

Note: 01_Data/README.md
# Materials and Products Database
## 01_Data

Raw data generated from each apparatus are included here in plain-text format. The data is organized first by material, next by the short name of test apparatus used, and where applicable additional filtering by test settings.

### material.json

Each material directory contains a json file of the same name as the material. This file links the data stored in the repository as well as data and graphs produced by the accompanying scripts (__02_Scripts__) to the respective landing page for the material on the front-end website.

File: Cotton_Rug_Cone_HF25Scalar_220318_R1.csv
LABORATORY,FSRI
TEST IDENT,CottonRug_HF25_1
OPERATOR,Dow
MATERIAL,Cotton Rug
ORIENTATION,Horizontal
HEAT FLUX,25
SURF AREA,0.00884
C FACTOR,0.0398508
SPEC HOLDER DIFF,-566
SPECIMEN MASS,14.57
SCAN TIME,0.25
O2 DELAY TIME,11
CO DELAY TIME,11
CO2 DELAY TIME,8
FLOW FACTOR,1
SCAN COUNT,1407
TIME TO IGN,70.5
END OF TEST SCAN,927
END OF TEST TIME,231.75
TEST STATUS,1
PRE TEST CMT,Dimensions: 101.0 x 103.0 x 5.35 mm; with frame; with calcium silicate substrate
POST TEST CMT,Prior to ignition a sample edge lifted and impacted the spark ignitor and caused spikes in the mass data.

File: Cotton_Rug_Cone_HF25Scalar_220318_R2.csv
LABORATORY,FSRI
TEST IDENT,CottonRug_HF25_2
OPERATOR,Dow
MATERIAL,Cotton Rug
ORIENTATION,Horizontal
HEAT FLUX,25
SURF AREA,0.00884
C FACTOR,0.0398508
SPEC HOLDER DIFF,-566
SPECIMEN MASS,14.88
SCAN TIME,0.25
O2 DELAY TIME,11
CO DELAY TIME,11
CO2 DELAY TIME,8
FLOW FACTOR,1
SCAN COUNT,1201
TIME TO IGN,62.25
END OF TEST SCAN,721
END OF TEST TIME,180.25
TEST STATUS,1
PRE TEST CMT,Dimensions: 100.5 x 104 x 5.32 mm; with frame; with calcium silicate substrate

File: Cotton_Rug_Cone_HF25Scalar_220318_R3.csv
LABORATORY,FSRI
TEST IDENT,CottonRug_HF25_3
OPERATOR,Dow
MATERIAL,Cotton Rug
ORIENTATION,Horizontal
HEAT FLUX,25
SURF AREA,0.00884
C FACTOR,0.0398508
SPEC HOLDER DIFF,-566
SPECIMEN MASS,14.87
SCAN TIME,0.25
O2 DELAY TIME,11
CO DELAY TIME,11
CO2 DELAY TIME,8
FLOW FACTOR,1
SCAN COUNT,1223
TIME TO IGN,69.25
END OF TEST SCAN,743
END OF TEST TIME,185.75
TEST STATUS,1
PRE TEST CMT,Dimensions: 101.5 x 102 x 5.00 mm; with frame; with calcium silicate substrate

File: Cotton_Rug_Cone_HF25Scan_220318_R1.csv
Names,Time,Stack TC,Smoke TC,Exh Press,Smoke Comp,Smoke Meas,CO Meter,CO2 Meter,O2 Meter,Sample Mass,Ext Coeff,Start Test,Flame Verif
Chan Gain,,500,500,1,1,1,1,1,1,1,1,1.0,1.0
Offset,,0,0,0.134026,0,0,0,0,0,0,0,0.0,0.0
Gain,,1,1,25.011,13.1637,13.6028,1,1,1,1.00089,1.01066,1.0,1.0
Units,sec,C,C,Pa,%,%,%,%,%,g,/m,,
Baseline,,20.0366,20.7199,155.568,99.6941,97.9158,0.00060037,0.0521075,21.0078,-833.742,0.1596,,
15,3.5,18.0676,18.7684,155.538,100.002,98.4248,0.000736007,0.0667388,20.9927,184.564,0.140962,0.0,0.0
30,7.25,17.8794,18.8205,151.524,99.9858,98.0445,0.000722976,0.0630987,20.9978,184.554,0.173818,0.0,0.0
45,11,18.0121,18.9881,155.994,99.9749,97.9901,0.000519004,0.0588017,21.0033,184.523,0.177776,0.0,0.0
60,14.75,18.3872,18.7323,152.409,99.9625,97.9739,0.000608736,0.0555015,21.006,184.473,0.178136,0.0,0.0
75,18.5,18.058,18.847,152.51,99.952,98.1562,0.000907036,0.0546908,21.0064,184.423,0.160735,0.0,0.0
90,22.25,18.1198,18.9087,151.071,99.9633,97.7402,0.000602997,0.0543925,21.0065,184.393,0.199381,0.0,0.0
105,26,18.5599,18.9642,156.259,99.9637,98.3297,0.000327973,0.0533626,21.0068,184.353,0.146108,0.0,0.0
120,29.75,18.2462,19.3677,154.749,99.9577,98.1774,0.000110145,0.0528891,21.0063,184.333,0.159322,0.0,0.0
135,33.5,18.5104,19.1593,156.464,99.9589,97.6452,9.23308e-05,0.0523961,21.0076,184.263,0.207615,0.0,0.0
150,37.25,18.3842,18.8843,155.075,99.9605,97.8316,0.000219594,0.0521673,21.0083,184.233,0.190852,0.0,0.0
165,41,18.1728,19.1852,154.676,99.9769,97.5949,0.000197306,0.0521738,21.0122,184.193,0.21378,0.0,0.0
180,44.75,18.8689,19.1637,150.376,99.9741,97.0922,0.000277912,0.0523724,21.0116,184.153,0.259315,0.0,0.0
195,48.5,18.5547,19.1641,153.386,99.9886,96.9959,0.000613526,0.0535957,21.0098,184.103,0.269397,0.0,0.0
210,52.25,18.716,19.0549,159.645,99.9822,96.6219,0.000904797,0.0561406,21.0073,187.136,0.303079,0.0,0.0
225,56,18.9393,19.2204,153.74,99.9838,95.626,0.000967652,0.0608932,21.0013,190.789,0.395073,0.0,0.0
240,59.75,18.5799,19.5038,153.544,99.9946,95.3711,0.00127634,0.0619013,20.9997,191.149,0.419696,0.0,0.0
255,63.5,18.8837,19.572,157.306,100.001,95.2761,0.00121867,0.0615676,20.9983,189.898,0.429107,0.0,0.0
270,67.25,19.0029,19.4997,151.159,100.024,94.3611,0.0013104,0.0596769,20.996,189.478,0.516718,0.0,0.0
285,71,19.7342,19.7964,141.064,100.021,96.5995,0.00155612,0.125799,20.8841,183.453,0.308554,0.0,1.0
300,74.75,20.8654,21.8134,138.64,100.012,94.0996,0.00234992,0.291682,20.6973,183.012,0.54022,0.0,1.0
315,78.5,23.5981,23.8659,133.946,100.026,91.9733,0.00338735,0.420071,20.5595,182.492,0.744052,0.0,1.0
330,82.25,26.8254,27.0668,134.481,100.031,89.6499,0.00478148,0.488349,20.4818,181.931,0.971389,0.0,0.0
345,86,29.2543,30.0683,132.767,100.037,86.4401,0.00611783,0.534372,20.4438,181.311,1.29516,0.0,0.0
360,89.75,31.8913,33.387,133.011,100.029,85.2699,0.0075434,0.571586,20.3982,180.73,1.41529,0.0,0.0
375,93.5,34.3232,36.0608,135.43,100.029,81.3109,0.00946952,0.598589,20.3693,180.1,1.83677,0.0,0.0
390,97.25,36.6615,38.6521,132.93,100.023,80.946,0.0110624,0.608937,20.3591,179.499,1.87611,0.0,0.0
405,101,38.804,41.395,132.642,100.036,79.7504,0.0121923,0.61135,20.3563,178.858,2.00917,0.0,0.0
420,104.75,40.5868,43.1266,132.96,100.026,81.7534,0.0121661,0.611068,20.3587,178.238,1.78836,0.0,0.0
435,108.5,42.3754,45.1326,129.346,100.028,81.0597,0.0117073,0.607402,20.364,177.647,1.86412,0.0,0.0
450,112.25,43.7847,46.6366,131.307,100.024,81.4491,0.01116,0.593734,20.3835,177.107,1.82125,0.0,0.0
465,116,44.537,47.7623,130.693,100.025,82.8128,0.010793,0.573929,20.4091,176.556,1.67411,0.0,0.0
480,119.75,45.2574,48.7695,134.806,100.026,84.5235,0.0103284,0.538309,20.4539,176.066,1.49294,0.0,0.0
495,123.5,46.1696,49.2329,135.807,100.025,84.5808,0.00965445,0.500936,20.4943,175.626,1.48687,0.0,0.0
510,127.25,45.4062,49.0914,140.891,100.017,84.4118,0.00885966,0.463033,20.5371,175.225,1.50385,0.0,0.0
525,131,45.9869,49.5981,141.042,100.005,85.7639,0.00787984,0.425676,20.5872,174.865,1.36194,0.0,0.0
540,134.75,45.9333,49.704,143.574,100.016,86.7224,0.0068623,0.379549,20.6398,174.555,1.2644,0.0,0.0
555,138.5,45.5114,49.4386,143.464,100.028,88.1708,0.00548013,0.341049,20.6914,174.264,1.11863,0.0,0.0
570,142.25,44.5422,47.9126,147.817,100.008,91.7201,0.0042024,0.303281,20.7332,174.064,0.766964,0.0,0.0
585,146,43.5908,47.3399,147.416,99.9978,94.1735,0.00357302,0.269979,20.7726,173.874,0.532015,0.0,0.0
600,149.75,42.8395,46.9507,149.37,99.9822,95.7252,0.00338851,0.237323,20.8083,173.714,0.385735,0.0,0.0
615,153.5,41.9047,45.6394,146.234,99.9982,96.4338,0.00338807,0.210142,20.835,173.594,0.321775,0.0,0.0
630,157.25,40.846,44.67,149.23,99.9898,96.3068,0.00382736,0.187999,20.8548,173.484,0.332713,0.0,0.0
645,161,39.7173,43.0025,146.294,99.993,95.9967,0.00469342,0.170553,20.876,173.394,0.361589,0.0,0.0
660,164.75,38.983,42.5825,153.525,99.9858,97.0308,0.00606242,0.153687,20.8921,173.304,0.265961,0.0,0.0
675,168.5,37.5653,41.1646,154.682,99.9902,96.2566,0.00708326,0.141183,20.9053,173.223,0.337374,0.0,0.0
690,172.25,36.6384,40.3063,159.109,100.003,96.932,0.00804855,0.132014,20.9141,173.153,0.276524,0.0,0.0
705,176,35.6566,38.9444,152.99,100.001,96.712,0.00854627,0.125584,20.9217,173.083,0.296528,0.0,0.0
720,179.75,34.8362,37.8803,152.844,100.004,96.492,0.00869246,0.120733,20.926,173.033,0.316932,0.0,0.0
735,183.5,34.1436,37.2091,154.311,100.001,96.8556,0.00893288,0.116808,20.9306,172.963,0.283299,0.0,0.0
750,187.25,32.8705,36.2415,151.53,99.987,96.6497,0.00912962,0.113724,20.9343,172.923,0.300955,0.0,0.0
765,191,32.1964,35.2375,150.368,100.002,96.7186,0.0090344,0.110942,20.9374,172.853,0.295989,0.0,0.0
780,194.75,31.7545,34.4091,149.248,100.017,96.9191,0.00882993,0.108429,20.941,172.813,0.278947,0.0,0.0
795,198.5,30.9677,33.5883,154.874,99.987,97.5235,0.00917294,0.105818,20.9432,172.763,0.22116,0.0,0.0
810,202.25,30.4504,33.0555,156.323,99.9934,97.0046,0.00916986,0.10437,20.9444,172.703,0.269028,0.0,0.0
825,206,29.4891,32.0384,153.825,99.991,96.9473,0.00911125,0.102451,20.9462,172.663,0.274051,0.0,0.0
840,209.75,28.6799,31.0773,154.75,99.9826,96.6966,0.00922485,0.0999852,20.9476,172.623,0.296261,0.0,0.0
855,213.5,28.1002,30.1563,153.271,99.9777,97.1632,0.00913066,0.0979143,20.9507,172.583,0.253157,0.0,0.0
870,217.25,27.8294,30.4427,156.59,99.9729,97.0071,0.00930591,0.0963452,20.9531,172.543,0.266983,0.0,0.0
885,221,27.9829,30.1225,150.674,99.9577,96.648,0.00939508,0.0954923,20.9537,172.503,0.298507,0.0,0.0
900,224.75,27.2766,29.5184,154.576,99.9432,97.0387,0.00954861,0.0956504,20.9516,172.443,0.261463,0.0,0.0
915,228.5,26.5392,28.4133,153.365,99.94,96.6771,0.00943945,0.0963335,20.949,172.413,0.294274,0.0,0.0
930,232.25,26.1817,27.9782,154.229,99.9327,96.844,0.00929945,0.095355,20.9506,172.393,0.278343,0.0,0.0
945,236,25.4195,27.0023,152.599,99.9307,96.7082,0.00925763,0.0935652,20.9539,172.353,0.2906,0.0,0.0
960,239.75,25.3018,27.0314,152.78,99.8966,97.2147,0.00917528,0.0924375,20.9549,172.333,0.241263,0.0,0.0
975,243.5,24.6184,26.4394,153.063,99.8938,96.9523,0.00903406,0.0918539,20.9551,172.293,0.264971,0.0,0.0
990,247.25,24.5663,26.3939,153.455,99.8665,96.9835,0.00921181,0.0909807,20.9569,172.263,0.2597,0.0,0.0
1005,251,24.2407,25.7022,152.82,99.8383,96.7655,0.0091502,0.0904415,20.9574,172.203,0.277148,0.0,0.0
1020,254.75,23.8825,25.9828,150.05,99.8267,97.037,0.00904177,0.0897653,20.959,172.163,0.251275,0.0,0.0
1035,258.5,23.7562,25.2953,153.738,99.7942,97.3978,0.00927792,0.0902386,20.9586,172.122,0.215489,0.0,0.0
1050,262.25,23.5722,24.9607,151.706,99.7672,97.0623,0.0094109,0.0903673,20.9577,172.102,0.24368,0.0,0.0
1065,266,23.6371,25.2928,154.908,99.7508,96.9361,0.00899425,0.0902561,20.9589,172.062,0.253751,0.0,0.0
1080,269.75,23.3809,24.2349,154.618,99.7251,96.9494,0.00898941,0.0900622,20.9596,172.022,0.250251,0.0,0.0
1095,273.5,23.267,24.5637,152.778,99.6833,97.1889,0.00915661,0.0895962,20.9604,171.972,0.224659,0.0,0.0
1110,277.25,23.2038,24.4809,151.996,99.6411,97.0391,0.00911601,0.0896084,20.9606,171.942,0.234587,0.0,0.0
1125,281,22.6916,23.8032,152.993,99.6194,97.074,0.00902425,0.0896795,20.9606,171.902,0.229471,0.0,0.0
1140,284.75,22.8578,23.7863,152.106,99.5857,97.1906,0.0089668,0.0895667,20.96,171.862,0.215822,0.0,0.0
1155,288.5,22.8974,23.915,153.364,99.5366,97.1188,0.00855895,0.0892672,20.9598,171.842,0.21801,0.0,0.0
1170,292.25,22.5706,23.8092,153.511,99.4917,96.6078,0.00860487,0.0886937,20.9611,171.792,0.260774,0.0,0.0
1185,296,22.6657,23.7697,154.448,99.4382,96.8668,0.00873017,0.087952,20.9628,171.762,0.232272,0.0,0.0
1200,299.75,22.4816,23.368,158.213,99.3993,96.4122,0.00872984,0.0877113,20.9638,171.732,0.270498,0.0,0.0
1215,303.5,22.0945,22.7814,155.511,99.3675,96.9395,0.00863438,0.0877412,20.9642,171.692,0.21932,0.0,0.0
1230,307.25,21.7758,22.6064,155.08,99.3269,96.7099,0.00857981,0.0867418,20.9659,171.652,0.236719,0.0,0.0
1245,311,21.7771,22.6154,151.501,99.2715,96.5443,0.00839986,0.0860092,20.9663,171.612,0.246966,0.0,0.0
1260,314.75,21.4205,22.2786,152.3,99.2036,97.015,0.00837402,0.086108,20.9667,171.582,0.197777,0.0,0.0
1275,318.5,21.6025,22.8361,152.136,99.1422,96.3599,0.00792701,0.0856186,20.967,171.542,0.252348,0.0,0.0
1290,322.25,21.6313,22.6864,157.315,99.1008,97.0789,0.00753307,0.0849812,20.967,171.512,0.182742,0.0,0.0
1305,326,21.7003,22.3861,152.587,99.0184,96.4554,0.00774021,0.0847292,20.9675,171.482,0.232497,0.0,0.0
1320,329.75,21.5624,22.8067,152.651,98.9316,96.0926,0.00761251,0.0842695,20.9689,171.442,0.258134,0.0,0.0
1335,333.5,21.8508,22.3821,155.501,98.8244,96.2794,0.00757945,0.0837068,20.9695,171.412,0.231299,0.0,0.0
1350,337.25,21.8942,22.7024,152.462,98.7432,96.4575,0.00739754,0.0830073,20.9717,171.382,0.207634,0.0,0.0
1365,341,21.8959,22.1306,153.609,98.6617,96.5306,,0.0820895,,171.342,0.193596,0.0,0.0
1380,344.75,21.6027,21.8072,153.454,98.5685,96.3952,,,,171.322,0.197655,0.0,0.0
1395,348.5,21.0677,21.9068,157.141,98.4801,95.6712,,,,171.292,0.256538,0.0,0.0
1407,351.5,21.4025,21.9129,155.053,98.3969,95.8763,,,,171.252,0.230066,0.0,0.0

File: Cotton_Rug_Cone_HF25Scan_220318_R2.csv
Names,Time,Stack TC,Smoke TC,Exh Press,Smoke Comp,Smoke Meas,CO Meter,CO2 Meter,O2 Meter,Sample Mass,Ext Coeff,Start Test,Flame Verif
Chan Gain,,500,500,1,1,1,1,1,1,1,1,1.0,1.0
Offset,,0,0,0.134026,0,0,0,0,0,0,0,0.0,0.0
Gain,,1,1,25.011,13.1637,13.6028,1,1,1,1.00089,1.01066,1.0,1.0
Units,sec,C,C,Pa,%,%,%,%,%,g,/m,,
Baseline,,19.3881,19.8282,154.691,99.0961,97.1306,0.000445616,0.0516302,21.0111,-833.818,0.177651,,
13,3,18.518,18.6624,158.661,99.7439,98.018,0.000414163,0.0574755,21.0058,182.011,0.154752,0.0,0.0
26,6.25,17.9767,18.6941,156.178,99.7793,98.6668,0.000520978,0.0563967,21.0057,181.981,0.0994024,0.0,0.0
39,9.5,18.4559,19.0014,157.299,99.8094,98.0997,0.000404175,0.0574586,21.0049,181.931,0.153177,0.0,0.0
52,12.75,18.4526,18.7687,149.843,99.8488,97.6016,0.000326056,0.0595479,21.0023,181.901,0.201807,0.0,0.0
65,16,18.1829,18.7741,152.344,99.8584,97.9432,0.000419342,0.0599557,21.0015,181.871,0.171683,0.0,0.0
78,19.25,18.6966,18.7725,157.143,99.842,97.7141,0.000570552,0.0586582,21.0045,181.831,0.190987,0.0,0.0
91,22.5,18.2038,19.3356,152.788,99.8596,97.4642,0.00064883,0.0565711,21.0069,181.791,0.21526,0.0,0.0
104,25.75,18.4256,19.0789,152.273,99.8616,97.4069,0.000690095,0.0550289,21.0076,181.761,0.220651,0.0,0.0
117,29,18.6297,19.046,152.267,99.8592,97.4243,0.000674495,0.0545053,21.0078,181.731,0.218849,0.0,0.0
130,32.25,18.604,18.8547,150.456,99.856,98.0441,0.000508568,0.0545864,21.0088,181.711,0.162343,0.0,0.0
143,35.5,18.6328,18.97,155.723,99.8681,97.8341,0.000520395,0.0543672,21.0103,181.681,0.182427,0.0,0.0
156,38.75,18.4799,18.8993,156.268,99.8705,97.8843,0.000402422,0.0543128,21.0105,181.641,0.178091,0.0,0.0
169,42,18.396,19.4063,149.965,99.8548,97.5808,0.000219268,0.0538377,21.0106,181.591,0.204227,0.0,0.0
182,45.25,18.7442,19.3943,152.816,99.8777,97.4567,0.000191423,0.0533089,21.0119,181.561,0.217544,0.0,0.0
195,48.5,18.9732,19.0097,147.866,99.8584,97.4488,0.000207409,0.0526224,21.0125,181.521,0.21655,0.0,0.0
208,51.75,18.4387,19.1391,155.191,99.8424,97.5103,0.000391427,0.0519836,21.0134,181.471,0.209535,0.0,0.0
221,55,19.1105,19.5418,154.8,99.8359,97.0204,0.000740296,0.0516371,21.0142,181.421,0.253612,0.0,0.0
234,58.25,18.442,19.2138,150.858,99.799,96.4803,0.00107938,0.0519315,21.0131,181.381,0.299819,0.0,0.0
247,61.5,18.7182,19.5323,156.644,99.7612,95.9527,0.00122978,0.0643882,20.9932,181.261,0.345079,0.0,0.0
260,64.75,19.38,19.7155,142.849,99.7166,96.6381,0.00134833,0.145015,20.8683,180.94,0.278017,0.0,1.0
273,68,20.4567,21.051,141.705,99.6724,95.3022,0.00190916,0.267196,20.7391,180.61,0.397493,0.0,1.0
286,71.25,22.0889,22.8504,138.911,99.6154,93.7347,0.0023431,0.344942,20.6586,180.23,0.539448,0.0,0.0
299,74.5,24.491,25.3128,135.856,99.5447,93.3669,0.00265387,0.396897,20.5992,179.839,0.568008,0.0,0.0
312,77.75,26.6126,27.3905,135.491,99.4712,92.1801,0.00305488,0.429637,20.5726,179.429,0.674874,0.0,0.0
325,81,28.5789,29.9494,132.799,99.3948,91.1921,0.00356988,0.455517,20.5427,179.009,0.763603,0.0,0.0
338,84.25,30.648,32.0878,135.45,99.302,90.8375,0.00407214,0.4793,20.5148,178.558,0.789855,0.0,0.0
351,87.5,32.2227,34.6247,135.038,99.2707,90.1991,0.00449179,0.49833,20.4918,178.098,0.849588,0.0,0.0
364,90.75,34.166,35.9405,137.542,99.3137,88.7831,0.00519195,0.512296,20.4779,177.657,0.993706,0.0,0.0
377,94,36.4736,38.2668,135.778,99.3386,88.5469,0.0058142,0.5225,20.465,177.187,1.01955,0.0,0.0
390,97.25,38.2644,40.2364,132.119,99.3643,87.6469,0.0062001,0.53131,20.4554,176.707,1.11241,0.0,0.0
403,100.5,39.271,41.3927,134.335,99.4017,86.849,0.00664442,0.53514,20.4533,176.236,1.19682,0.0,0.0
416,103.75,41.2398,43.657,135.788,99.4519,87.2824,0.00693858,0.535205,20.453,175.816,1.15716,0.0,0.0
429,107,42.0022,44.3897,135.357,99.4884,85.9806,0.00735284,0.531229,20.4601,175.355,1.29365,0.0,0.0
442,110.25,42.6428,45.6373,135.739,99.5583,85.5381,0.00767475,0.52204,20.4689,174.945,1.34562,0.0,0.0
455,113.5,43.6369,46.8734,134.853,99.6327,86.1807,0.00802938,0.508418,20.486,174.515,1.28588,0.0,0.0
468,116.75,44.3204,47.2724,136,99.6909,84.6783,0.00806334,0.487283,20.5121,174.124,1.44697,0.0,0.0
481,120,45.4072,47.8773,136.542,99.7407,85.5144,0.00809418,0.470127,20.5287,173.744,1.3643,0.0,0.0
494,123.25,45.3962,48.9051,139.593,99.8058,84.7556,0.00801454,0.451473,20.5506,173.394,1.4491,0.0,0.0
507,126.5,45.53,49.1392,143.809,99.8721,84.3081,0.00778099,0.432505,20.5736,173.033,1.50192,0.0,0.0
520,129.75,45.2482,48.8492,143.301,99.9123,85.3023,0.0074552,0.407715,20.6067,172.723,1.40155,0.0,0.0
533,133,45.6514,49.2043,145.718,99.9781,86.1749,0.0069729,0.384813,20.6297,172.433,1.31717,0.0,0.0
546,136.25,44.9042,48.4101,143.563,100.014,87.9831,0.0061906,0.361895,20.6604,172.153,1.13627,0.0,0.0
559,139.5,44.5838,48.1957,141.531,100.034,88.7528,0.00560349,0.34153,20.6837,171.882,1.0608,0.0,0.0
572,142.75,44.3181,47.7101,145.113,100.05,90.439,0.00504353,0.313682,20.7175,171.712,0.8954,0.0,0.0
585,146,43.7879,47.3886,144.088,100.061,93.3764,0.00442411,0.279054,20.7507,171.562,0.612958,0.0,0.0
598,149.25,42.7385,46.7171,148.72,100.011,96.1997,0.00383479,0.240966,20.7967,171.422,0.344501,0.0,0.0
611,152.5,42.0717,45.4118,144.336,99.9621,96.0573,0.0041338,0.20504,20.8374,171.312,0.353251,0.0,0.0
624,155.75,41.2592,44.898,150.295,99.8761,97.0283,0.00517138,0.178351,20.8677,171.252,0.25646,0.0,0.0
637,159,40.0533,43.7195,149.276,99.7905,96.4575,0.00592589,0.154915,20.8934,171.182,0.301168,0.0,0.0
650,162.25,39.0183,42.6596,154.573,99.6688,96.7717,0.00703359,0.136641,20.9115,171.142,0.261512,0.0,0.0
663,165.5,38.0373,41.5059,151.556,99.5447,96.8813,0.00853992,0.121147,20.9294,171.092,0.240428,0.0,0.0
676,168.75,36.9576,40.2509,146.138,99.4205,96.3761,0.00956221,0.110416,20.9385,171.052,0.275718,0.0,0.0
689,172,35.9477,39.1963,152.483,99.3028,96.5164,0.00992745,0.105204,20.9439,171.022,0.252319,0.0,0.0
702,175.25,34.6022,37.5615,153.206,99.1867,97.037,0.00978522,0.102451,20.9455,170.981,0.194259,0.0,0.0
715,178.5,34.0502,37.167,149.931,99.0843,96.1071,0.00969972,0.100326,20.9483,170.931,0.270463,0.0,0.0
728,181.75,32.6526,35.9128,153.037,98.9839,96.2827,0.00997091,0.098447,20.9507,170.901,0.245289,0.0,0.0
741,185,31.9881,34.6294,148.35,98.8943,95.9639,0.0100632,0.0967809,20.9523,170.871,0.266666,0.0,0.0
754,188.25,31.1812,33.9143,152.187,98.8228,95.9623,0.0101192,0.0960107,20.9528,170.841,0.260406,0.0,0.0
767,191.5,30.6651,33.2706,151.748,98.7545,96.3575,0.00997453,0.0958979,20.9529,170.801,0.217843,0.0,0.0
780,194.75,30.1594,32.5877,151.802,98.6782,95.4504,0.00971984,0.0953548,20.9529,170.751,0.294837,0.0,0.0
793,198,29.0154,31.9672,150.149,98.6336,96.0307,0.00980697,0.0947119,20.9541,170.721,0.237091,0.0,0.0
806,201.25,28.9324,31.3967,155.039,98.5942,96.2856,0.00976583,0.094366,20.955,170.671,0.210052,0.0,0.0
819,204.5,28.1979,30.4928,154.615,98.5532,96.1752,0.00968032,0.0942494,20.9552,170.661,0.21654,0.0,0.0
832,207.75,28.0045,30.4169,153.559,98.5026,96.3342,0.00964039,0.0936116,20.9552,170.631,0.197341,0.0,0.0
845,211,27.2949,29.3211,156.079,98.4721,95.966,0.00961163,0.0932262,20.9562,170.601,0.228544,0.0,0.0
858,214.25,26.7193,29.6926,148.842,98.4403,96.2528,0.00961107,0.093215,20.9572,170.561,0.199227,0.0,0.0
871,217.5,26.7678,28.9935,152.361,98.4098,96.1046,0.00940396,0.0928065,20.9575,170.521,0.210137,0.0,0.0
884,220.75,26.3016,28.3357,152.019,98.372,95.5102,0.00950067,0.0924981,20.9575,170.491,0.261742,0.0,0.0
897,224,25.9183,27.6021,153.486,98.3487,95.9523,0.00948077,0.0924666,20.9575,170.461,0.218699,0.0,0.0
910,227.25,25.7003,27.8423,152.453,98.325,95.9934,0.00951881,0.092347,20.9575,170.431,0.212766,0.0,0.0
923,230.5,25.2873,27.3608,153.673,98.2925,95.9191,0.00942461,0.0920779,20.9583,170.391,0.216697,0.0,0.0
936,233.75,25.5401,26.6352,151.333,98.2817,96.0117,0.00943463,0.0913894,20.9595,170.371,0.207167,0.0,0.0
949,237,24.6625,26.6062,150.901,98.2355,95.1142,0.00941364,0.0910444,20.9598,170.331,0.286261,0.0,0.0
962,240.25,24.2227,26.3919,154.454,98.2005,95.8987,0.00921886,0.0907498,20.9598,170.311,0.210276,0.0,0.0
975,243.5,24.4467,26.4753,156.456,98.1752,95.3881,0.00919304,0.0907323,20.9599,170.261,0.25532,0.0,0.0
988,246.75,24.1424,25.7144,153.446,98.1607,95.7505,0.00906495,0.0906799,20.96,170.241,0.220396,0.0,0.0
1001,250,23.9946,25.6,152.932,98.1354,95.8294,0.00902871,0.0898701,20.9605,170.201,0.21081,0.0,0.0
1014,253.25,23.8491,25.7384,152.48,98.1101,95.2366,0.00910768,0.0895933,20.9607,170.171,0.263535,0.0,0.0
1027,256.5,24.2025,25.1843,154.196,98.0973,95.2134,0.00917265,0.0900459,20.9607,170.141,0.264538,0.0,0.0
1040,259.75,23.7909,24.9377,150.086,98.0844,95.4994,0.00904475,0.0892864,20.9609,170.111,0.236784,0.0,0.0
1053,263,23.4162,24.4274,155.113,98.0651,95.6098,0.0088211,0.0885196,20.9623,170.081,0.224796,0.0,0.0
1066,266.25,23.3015,24.772,154.889,98.0358,95.4874,0.00875488,0.0881057,20.9627,170.051,0.233506,0.0,0.0
1079,269.5,23.4861,24.2827,152.992,98.0362,95.5837,0.00888509,0.0882736,20.9628,170.021,0.224606,0.0,0.0
1092,272.75,22.6567,23.6682,157.183,98.0141,95.1353,0.00894481,0.0880427,20.9628,170.001,0.264289,0.0,0.0
1105,276,22.8638,24.5072,151.911,97.9976,95.252,0.00889526,0.0876187,20.9628,169.981,0.251935,0.0,0.0
1118,279.25,22.7424,23.9794,156.727,98.0005,95.4267,0.00891337,0.0875916,20.9633,169.931,0.235939,0.0,0.0
1131,282.5,22.7086,23.9805,153.193,97.9908,95.4147,0.00878057,0.0870997,20.9647,169.901,0.236184,0.0,0.0
1144,285.75,22.5228,23.5137,155.682,97.9711,95.66,0.00874907,0.0869044,20.9655,169.871,0.211637,0.0,0.0
1157,289,22.4423,23.6283,156.898,97.9784,96.2039,0.00884909,0.0867781,20.9657,169.84,0.162035,0.0,0.0
1170,292.25,22.1824,23.5562,151.761,97.9667,95.5525,,,,169.81,0.221207,0.0,0.0
1183,295.5,22.5682,23.633,151.139,97.9731,95.1391,,,,169.78,0.260234,0.0,0.0
1196,298.75,22.2578,23.2927,152.878,97.9623,95.7555,,,,169.76,0.201993,0.0,0.0
1201,300,21.9579,22.2954,155.335,97.9571,95.9701,,,,169.75,0.181672,0.0,0.0