Folder: fsri_materials_database/01_Data/Cotton_Rug/Cone (part 2)

File: Cotton_Rug_Cone_HF25Scan_220318_R3.csv
Names,Time,Stack TC,Smoke TC,Exh Press,Smoke Comp,Smoke Meas,CO Meter,CO2 Meter,O2 Meter,Sample Mass,Ext Coeff,Start Test,Flame Verif
Chan Gain,,500,500,1,1,1,1,1,1,1,1,1.0,1.0
Offset,,0,0,0.134026,0,0,0,0,0,0,0,0.0,0.0
Gain,,1,1,25.011,13.1637,13.6028,1,1,1,1.00089,1.01066,1.0,1.0
Units,sec,C,C,Pa,%,%,%,%,%,g,/m,,
Baseline,,19.923,20.4391,154.829,98.9815,97.4091,0.000573642,0.0498751,21.014,-833.906,0.142,,
13,3,17.4899,18.3702,153.733,99.2904,97.6282,0.000510211,0.0543917,21.0099,204.952,0.149674,0.0,0.0
26,6.25,17.7755,18.4275,153.598,99.3032,97.6763,0.000350773,0.0532064,21.0099,205.002,0.146451,0.0,0.0
39,9.5,18.4118,18.8585,151.676,99.296,97.9009,0.000378968,0.0527927,21.0117,204.932,0.125445,0.0,0.0
52,12.75,18.4455,18.8193,154.028,99.2936,97.382,0.00037029,0.0518149,21.0121,204.902,0.172344,0.0,0.0
65,16,18.3985,18.985,163.151,99.2683,98.2384,0.000314313,0.0522747,21.0122,204.861,0.0924605,0.0,0.0
78,19.25,18.1166,19.1165,160.375,99.2852,97.4339,7.42412e-05,0.0521051,21.0135,204.811,0.166868,0.0,0.0
91,22.5,18.4822,19.1933,155.839,99.2703,97.7855,-4.84864e-05,0.0505477,21.0143,204.781,0.133606,0.0,0.0
104,25.75,18.7041,18.7375,156.278,99.2611,97.7996,3.0741e-05,0.0503705,21.0145,204.751,0.131501,0.0,0.0
117,29,18.8995,19.6559,153.512,99.2619,97.6082,3.97035e-05,0.0506487,21.0146,204.701,0.148938,0.0,0.0
130,32.25,18.5618,18.77,154.923,99.2667,97.6327,0.000110031,0.0505199,21.0146,204.671,0.147144,0.0,0.0
143,35.5,18.8175,18.895,160.018,99.2462,97.673,0.000232907,0.0509863,21.0141,204.631,0.141658,0.0,0.0
156,38.75,18.6763,19.1488,155.751,99.2333,97.5833,0.000275667,0.0534706,21.0101,204.601,0.148653,0.0,0.0
169,42,18.8912,19.4972,156.127,99.241,97.5078,0.00031834,0.0555151,21.0083,204.561,0.156201,0.0,0.0
182,45.25,18.8959,19.1557,153.951,99.2406,97.262,0.000416532,0.0577756,21.0061,204.511,0.178537,0.0,0.0
195,48.5,18.2033,19.288,155.288,99.2313,97.3455,0.000599769,0.0582272,21.0055,204.491,0.170109,0.0,0.0
208,51.75,18.0043,19.5845,155.596,99.2249,96.7875,0.000816104,0.0571888,21.0068,204.441,0.220493,0.0,0.0
221,55,18.2752,19.3917,156.569,99.2249,96.5787,0.000684065,0.0563045,21.0074,204.391,0.239639,0.0,0.0
234,58.25,18.9332,19.6167,154.004,99.2121,96.1495,0.000432967,0.0558972,21.008,204.361,0.277981,0.0,0.0
247,61.5,19.1024,19.6507,155.031,99.2032,96.4608,0.000489687,0.0551465,21.0095,204.301,0.248531,0.0,0.0
260,64.75,18.9741,19.2931,153.625,99.2221,95.9556,0.000846246,0.0546582,21.0088,204.251,0.296771,0.0,0.0
273,68,19.1903,19.6049,156.312,99.1843,95.0212,0.001093,0.058887,21.0048,204.141,0.380155,0.0,0.0
286,71.25,19.3773,19.8176,143.33,99.1727,95.186,0.00138601,0.145327,20.9151,203.811,0.36375,0.0,1.0
299,74.5,20.862,21.3229,137.321,99.165,94.6629,0.0018959,0.280519,20.744,203.49,0.411919,0.0,1.0
312,77.75,22.8464,22.9402,134.708,99.1526,93.5085,0.00245693,0.366307,20.6516,203.09,0.519589,0.0,0.0
325,81,24.8746,26.2063,131.651,99.1345,93.5794,0.00269259,0.419137,20.5854,202.68,0.511245,0.0,0.0
338,84.25,27.0798,28.371,131.656,99.1305,92.3075,0.00327754,0.458452,20.5383,202.249,0.632213,0.0,0.0
351,87.5,29.3939,30.7544,139.396,99.1285,90.811,0.00416242,0.491347,20.4965,201.749,0.776941,0.0,0.0
364,90.75,31.7834,33,126.796,99.1096,88.4755,0.00493583,0.524466,20.4601,201.258,1.00624,0.0,0.0
377,94,34.3441,35.6056,127.482,99.098,88.1272,0.00565974,0.557954,20.4268,200.738,1.04016,0.0,0.0
390,97.25,36.0719,37.7689,133.375,99.0968,87.8536,0.00620934,0.586794,20.3893,200.217,1.06762,0.0,0.0
403,100.5,38.5152,40.5481,134.056,99.0903,86.7818,0.00661008,0.608795,20.3659,199.717,1.17587,0.0,0.0
416,103.75,40.3999,42.6525,133.107,99.0658,85.2188,0.00710951,0.616058,20.3574,199.176,1.3348,0.0,0.0
429,107,41.8744,43.7739,132.454,99.067,84.7244,0.00763334,0.614639,20.3607,198.696,1.3865,0.0,0.0
442,110.25,43.82,46.5689,131.984,99.0602,84.631,0.00776016,0.604648,20.3723,198.186,1.39566,0.0,0.0
455,113.5,44.5322,47.4019,127.785,99.0441,85.0918,0.00782948,0.588039,20.3941,197.745,1.34609,0.0,0.0
468,116.75,45.7504,49.0702,135.791,99.0317,86.1894,0.00782417,0.564305,20.417,197.305,1.23135,0.0,0.0
481,120,46.6474,50.5378,133.373,99.0269,85.4347,0.00777915,0.538281,20.4469,196.904,1.30889,0.0,0.0
494,123.25,47.2755,50.7001,138.886,99.0265,86.4339,0.00763126,0.510327,20.4829,196.474,1.20577,0.0,0.0
507,126.5,47.6654,51.3168,137.568,99.006,87.9649,0.00751406,0.478916,20.5189,196.124,1.04827,0.0,0.0
520,129.75,47.3781,51.3553,140.107,99.0803,86.7776,0.00716435,0.444712,20.5643,195.813,1.1754,0.0,0.0
533,133,47.5869,50.9889,143.378,99.1775,87.4198,0.00668116,0.407739,20.6064,195.533,1.11873,0.0,0.0
546,136.25,47.1449,51.2645,144.314,99.2442,88.5838,0.00580274,0.368221,20.6575,195.233,1.00742,0.0,0.0
559,139.5,46.6527,50.7307,140.222,99.3069,90.9957,0.00486148,0.327685,20.6971,195.053,0.774862,0.0,0.0
572,142.75,46.1936,50.0691,144.717,99.3639,91.8069,0.0040967,0.291711,20.7343,194.883,0.701276,0.0,0.0
585,146,45.706,49.2441,143.265,99.3832,93.6969,0.00328262,0.259636,20.7775,194.703,0.522332,0.0,0.0
598,149.25,44.1295,48.0195,147.271,99.4181,94.9647,0.00266419,0.231316,20.8105,194.592,0.406297,0.0,0.0
611,152.5,43.1754,46.9898,142.249,99.4483,96.1553,0.00279855,0.205174,20.8375,194.482,0.298528,0.0,0.0
624,155.75,42.1419,45.8407,149.794,99.4607,97.4355,0.00325449,0.181154,20.8658,194.392,0.182379,0.0,0.0
637,159,41.7699,45.1955,154.699,99.4708,96.6294,0.00390554,0.160988,20.8871,194.322,0.256932,0.0,0.0
650,162.25,40.1932,43.9439,150.078,99.4941,96.3031,0.00553746,0.144703,20.9018,194.262,0.288995,0.0,0.0
663,165.5,39.191,43.0356,151.647,99.5362,96.9399,0.00722385,0.132255,20.9143,194.182,0.234323,0.0,0.0
676,168.75,37.8572,41.7002,149.962,99.5636,96.5945,0.00884867,0.121069,20.9262,194.142,0.268398,0.0,0.0
689,172,37.6479,40.6472,150.214,99.5933,96.3637,0.0104063,0.11134,20.9354,194.092,0.292254,0.0,0.0
702,175.25,36.2197,39.6376,153.824,99.6174,97.3114,0.010977,0.105684,20.9404,194.042,0.207635,0.0,0.0
715,178.5,35.2619,38.6655,153.245,99.6371,96.3932,0.0112258,0.103392,20.943,194.002,0.29344,0.0,0.0
728,181.75,34.5415,37.6481,150.485,99.656,97.1059,0.011334,0.102575,20.9442,193.962,0.229806,0.0,0.0
741,185,33.8961,36.6221,152.557,99.6965,97.9901,0.0112699,0.10172,20.9461,193.922,0.153054,0.0,0.0
754,188.25,32.2684,35.7795,154.027,99.7142,97.0092,0.0111794,0.10099,20.9473,193.862,0.243821,0.0,0.0
767,191.5,31.7189,34.7321,148.634,99.7234,97.4584,0.011184,0.100239,20.9484,193.822,0.20369,0.0,0.0
780,194.75,31.1044,33.6042,154.008,99.7496,98.1259,0.0111613,0.09875,20.9493,193.772,0.145495,0.0,0.0
793,198,30.3743,33.0736,147.933,99.7652,97.6717,0.0112344,0.0972409,20.9507,193.762,0.188014,0.0,0.0
806,201.25,29.6439,32.5756,148.638,99.7929,97.438,0.0113577,0.0967753,20.9502,193.722,0.211717,0.0,0.0
819,204.5,29.4709,31.7943,155.699,99.7913,97.5758,0.011415,0.0974251,20.9495,193.682,0.199042,0.0,0.0
832,207.75,29.1339,31.2391,150.161,99.8082,97.2425,0.0114259,0.0973662,20.9497,193.632,0.23088,0.0,0.0
845,211,28.4747,30.6637,156.244,99.817,97.2894,0.011278,0.097022,20.9514,193.592,0.227389,0.0,0.0
858,214.25,27.6651,30.1106,150.328,99.813,97.2309,0.01126,0.0967207,20.9519,193.551,0.232368,0.0,0.0
871,217.5,27.3856,29.5726,149.37,99.8239,97.338,0.0110636,0.0965436,20.952,193.521,0.22357,0.0,0.0
884,220.75,27.3407,29.5577,155.998,99.8255,97.546,0.0108355,0.0960186,20.952,193.471,0.204792,0.0,0.0
897,224,27.2383,29.0104,151.047,99.8331,97.411,0.0107915,0.0956234,20.953,193.441,0.217739,0.0,0.0
910,227.25,26.4671,28.5054,152.268,99.8158,97.164,0.0108755,0.0959152,20.9546,193.411,0.238714,0.0,0.0
923,230.5,26.03,27.9241,153.575,99.8207,97.9519,0.0108192,0.0958055,20.955,193.361,0.167541,0.0,0.0
936,233.75,25.7462,28.0991,157.004,99.8146,97.1512,0.0104887,0.0951965,20.9542,193.311,0.239781,0.0,0.0
949,237,25.5712,27.3506,152.579,99.801,97.9785,0.0102871,0.0945861,20.9533,193.311,0.163389,0.0,0.0
962,240.25,25.7357,27.0206,153.001,99.8042,97.7797,0.0105238,0.0944658,20.953,193.251,0.181685,0.0,0.0
975,243.5,25.1113,27.4326,155.463,99.7917,98.02,0.0104565,0.094023,20.9529,193.231,0.158812,0.0,0.0
988,246.75,24.5159,25.7702,152.384,99.7729,97.7066,0.0102866,0.0940198,20.9539,193.201,0.185527,0.0,0.0
1001,250,24.3628,25.863,149.07,99.7861,97.262,0.0103979,0.0942236,20.9548,193.171,0.227138,0.0,0.0
1014,253.25,24.2655,25.5215,156.982,99.7596,97.6049,0.0105667,0.0941506,20.9537,193.111,0.193583,0.0,0.0
1027,256.5,24.7806,25.9294,149.184,99.7588,97.9138,0.010289,0.0938933,20.9538,193.091,0.165502,0.0,0.0
1040,259.75,24.7162,26.0249,152.058,99.7431,97.3508,0.01012,0.0933163,20.9554,193.041,0.215225,0.0,0.0
1053,263,24.0952,25.6625,153.096,99.7375,97.5962,0.0101717,0.0932712,20.9561,193.011,0.192411,0.0,0.0
1066,266.25,24.0146,25.2623,152.974,99.7359,97.4733,0.010067,0.0931119,20.9565,192.991,0.203437,0.0,0.0
1079,269.5,24.0183,25.6705,154.409,99.7146,97.4322,0.00992092,0.0928263,20.9566,192.961,0.205282,0.0,0.0
1092,272.75,23.8817,25.1658,153.415,99.7319,97.4447,0.00979801,0.0928071,20.9567,192.931,0.205685,0.0,0.0
1105,276,23.3387,25.0554,150.987,99.7291,97.5198,0.00978919,0.0929297,20.9567,192.891,0.198603,0.0,0.0
1118,279.25,23.0138,23.8589,149.629,99.7267,96.8008,0.00971066,0.0936114,20.9567,192.851,0.263993,0.0,0.0
1131,282.5,23.5589,24.0124,151.106,99.7335,97.9283,0.00981314,0.0935639,20.9559,192.801,0.161937,0.0,0.0
1144,285.75,22.8441,23.6544,152.732,99.7419,97.4808,0.00976479,0.0934345,20.9565,192.771,0.203293,0.0,0.0
1157,289,22.8769,24.0907,153.944,99.7484,97.3272,0.0097235,0.0930152,20.9553,192.731,0.217844,0.0,0.0
1170,292.25,23.1134,24.1158,150.765,99.7419,97.7593,0.00965756,0.0930729,20.9563,192.701,0.177996,0.0,0.0
1183,295.5,23.4759,24.2801,152.444,99.7584,97.5015,,0.0930897,,192.651,0.20287,0.0,0.0
1196,298.75,22.7181,24.3527,151.428,99.7721,97.6074,,,,192.611,0.194463,0.0,0.0
1209,302,23.0951,23.9631,156.487,99.7616,97.3803,,,,192.601,0.214184,0.0,0.0
1222,305.25,22.7386,24.337,151.843,99.7889,97.1462,,,,192.551,0.237951,0.0,0.0
1223,305.5,22.6187,23.6125,154.017,99.7733,97.5817,,,,192.561,0.196908,0.0,0.0

File: Cotton_Rug_Cone_HF50Scalar_220321_R1.csv
LABORATORY,FSRI
TEST IDENT,CottonRug_HF50_1
OPERATOR,Dow
MATERIAL,Cotton Rug
ORIENTATION,Horizontal
HEAT FLUX,50
SURF AREA,0.00884
C FACTOR,0.0398508
SPEC HOLDER DIFF,-566
SPECIMEN MASS,14.73
SCAN TIME,0.25
O2 DELAY TIME,11
CO DELAY TIME,11
CO2 DELAY TIME,8
FLOW FACTOR,1
SCAN COUNT,1311
TIME TO IGN,15
END OF TEST SCAN,831
END OF TEST TIME,207.75
TEST STATUS,1
PRE TEST CMT,Dimensions: 102.5 x 103.0 x 4.99 mm; with frame; with calcium silicate substrate

File: Cotton_Rug_Cone_HF50Scalar_220321_R2.csv
LABORATORY,FSRI
TEST IDENT,CottonRug_HF50_2
OPERATOR,Dow
MATERIAL,Cotton Rug
ORIENTATION,Horizontal
HEAT FLUX,50
SURF AREA,0.00884
C FACTOR,0.0398508
SPEC HOLDER DIFF,-566
SPECIMEN MASS,14.11
SCAN TIME,0.25
O2 DELAY TIME,11
CO DELAY TIME,11
CO2 DELAY TIME,8
FLOW FACTOR,1
SCAN COUNT,1251
TIME TO IGN,13.75
END OF TEST SCAN,771
END OF TEST TIME,192.75
TEST STATUS,1
PRE TEST CMT,Dimensions: 100.0 x 102.5 x 5.22 mm; with frame; with calcium silicate substrate

File: Cotton_Rug_Cone_HF50Scalar_220321_R3.csv
LABORATORY,FSRI
TEST IDENT,CottonRug_HF50_3
OPERATOR,Dow
MATERIAL,Cotton Rug
ORIENTATION,Horizontal
HEAT FLUX,50
SURF AREA,0.00884
C FACTOR,0.0398508
SPEC HOLDER DIFF,-566
SPECIMEN MASS,14.19
SCAN TIME,0.25
O2 DELAY TIME,11
CO DELAY TIME,11
CO2 DELAY TIME,8
FLOW FACTOR,1
SCAN COUNT,1468
TIME TO IGN,16.75
END OF TEST SCAN,988
END OF TEST TIME,247
TEST STATUS,1
PRE TEST CMT,Dimensions: 102.5 x 102.0 x 5.02 mm; with frame; with calcium silicate substrate

File: Cotton_Rug_Cone_HF50Scan_220321_R1.csv
Names,Time,Stack TC,Smoke TC,Exh Press,Smoke Comp,Smoke Meas,CO Meter,CO2 Meter,O2 Meter,Sample Mass,Ext Coeff,Start Test,Flame Verif
Chan Gain,,500,500,1,1,1,1,1,1,1,1,1.0,1.0
Offset,,0,0,0.134026,0,0,0,0,0,0,0,0.0,0.0
Gain,,1,1,25.011,13.1637,13.6028,1,1,1,1.00089,1.01066,1.0,1.0
Units,sec,C,C,Pa,%,%,%,%,%,g,/m,,
Baseline,,32.2973,33.2494,148.412,98.1453,94.5162,0.000322624,0.0525501,21.0055,-834.568,0.334087,,
14,3.25,30.9534,31.4268,145.546,98.4785,94.2187,0.000425358,0.0596143,20.9934,183.993,0.392025,0.0,0.0
28,6.75,30.5405,32.1841,150.872,98.493,93.2631,0.000532463,0.0603747,20.9951,183.913,0.483704,0.0,0.0
42,10.25,30.8745,31.3598,146.82,98.5066,89.0276,0.00115719,0.060842,20.994,183.793,0.896984,0.0,0.0
56,13.75,30.405,32.2168,144.806,98.503,87.6141,0.00197097,0.0637897,20.9718,183.603,1.03855,0.0,0.0
70,17.25,31.6572,32.5039,136.91,98.5006,93.5512,0.00250505,0.178344,20.84,183.232,0.457047,0.0,1.0
84,20.75,33.4103,34.447,132.815,98.4881,92.1394,0.0027799,0.322219,20.6667,182.782,0.59074,0.0,0.0
98,24.25,36.2118,37.4982,124.595,98.5026,89.2497,0.00376638,0.439112,20.5442,182.261,0.874535,0.0,0.0
112,27.75,39.0846,40.3109,120.029,98.5042,86.6091,0.00506608,0.532295,20.437,181.621,1.14094,0.0,0.0
126,31.25,42.5999,44.0857,118.151,98.513,86.436,0.0062179,0.632316,20.3242,180.94,1.15947,0.0,0.0
140,34.75,45.5162,48.3714,116.059,98.4946,83.5737,0.00777103,0.72494,20.2046,180.23,1.45635,0.0,0.0
154,38.25,49.9826,52.5103,118.732,98.5219,81.9904,0.00949731,0.821841,20.0959,179.379,1.62838,0.0,0.0
168,41.75,53.3271,56.7734,117.851,98.5106,79.7321,0.0111053,0.911913,19.9926,178.548,1.87497,0.0,0.0
182,45.25,57.4728,61.7295,118.615,98.5195,79.317,0.0125399,0.964235,19.9364,177.687,1.92205,0.0,0.0
196,48.75,60.9562,64.8684,118.629,98.5303,77.0293,0.012899,0.989196,19.9134,176.847,2.18249,0.0,0.0
210,52.25,64.0791,69.3186,116.276,98.5343,77.153,0.012813,0.986408,19.9152,176.056,2.16863,0.0,0.0
224,55.75,66.9644,71.9503,118.413,98.5649,78.4755,0.0126397,0.952906,19.9615,175.305,2.02069,0.0,0.0
238,59.25,68.9641,74.6748,123.859,98.5568,79.498,0.0125638,0.892341,20.0264,174.615,1.9052,0.0,0.0
252,62.75,70.4403,76.3119,126.463,98.595,82.5255,0.0121829,0.818613,20.1194,173.984,1.57728,0.0,0.0
266,66.25,71.7328,78.0736,128.456,98.6151,80.6031,0.0107069,0.70452,20.2546,173.504,1.78805,0.0,0.0
280,69.75,71.4208,77.766,133.418,98.6388,87.1633,0.00837206,0.574745,20.4039,173.123,1.09649,0.0,0.0
294,73.25,70.3164,76.6559,140.012,98.6537,86.825,0.00700143,0.469528,20.5051,172.813,1.13231,0.0,0.0
308,76.75,69.3799,75.7929,139.733,98.6922,88.3862,0.00621155,0.393102,20.6043,172.543,0.977772,0.0,0.0
322,80.25,67.559,74.3938,134.795,98.7147,89.3908,0.005693,0.33247,20.6745,172.343,0.879595,0.0,0.0
336,83.75,66.4527,72.1372,139.297,98.7477,89.0264,0.00532055,0.294298,20.7225,172.173,0.918775,0.0,0.0
350,87.25,64.8942,70.9952,135.714,98.7649,88.6826,0.00516051,0.270142,20.7529,171.992,0.95462,0.0,0.0
364,90.75,63.1477,69.0101,143.311,98.7774,90.564,0.00526829,0.247692,20.7824,171.822,0.76963,0.0,0.0
378,94.25,61.9288,67.341,140.55,98.8284,92.8999,0.00581851,0.221327,20.808,171.732,0.548442,0.0,0.0
392,97.75,60.3812,66.1587,143.556,98.8758,94.2569,0.00676486,0.196679,20.8371,171.622,0.424127,0.0,0.0
406,101.25,58.7479,64.511,143.831,98.9067,93.9024,0.00744216,0.177415,20.8556,171.552,0.460307,0.0,0.0
420,104.75,57.3498,62.8852,141.51,98.9341,93.841,0.00823053,0.167884,20.8673,171.462,0.468559,0.0,0.0
434,108.25,55.9423,61.4501,142.736,98.9863,93.7745,0.00873765,0.159402,20.8774,171.382,0.479513,0.0,0.0
448,111.75,54.5678,59.7202,141.705,99.0156,94.1245,0.00881391,0.153889,20.8839,171.292,0.449117,0.0,0.0
462,115.25,53.3033,58.3411,141.796,99.0586,93.973,0.0090135,0.149401,20.8875,171.232,0.467248,0.0,0.0
476,118.75,52.6009,57.2209,146.778,99.1092,94.3956,0.00927423,0.14569,20.8915,171.152,0.431998,0.0,0.0
490,122.25,51.352,55.819,143.713,99.161,94.0813,0.00966604,0.14326,20.8934,171.102,0.466196,0.0,0.0
504,125.75,50.1828,54.644,144.645,99.1863,93.7513,0.00987422,0.140923,20.8965,171.032,0.499612,0.0,0.0
518,129.25,50.0014,54.0208,143.794,99.2141,94.6783,0.00984121,0.139494,20.8975,170.981,0.414861,0.0,0.0
532,132.75,48.7714,52.7128,146.265,99.2643,94.956,0.00967518,0.137671,20.8989,170.911,0.39338,0.0,0.0
546,136.25,48.1093,52.1646,146.288,99.2639,94.8294,0.00988621,0.136002,20.9002,170.841,0.405173,0.0,0.0
560,139.75,47.2474,50.9312,142.278,99.2996,94.9137,0.00987126,0.134747,20.9037,170.761,0.400491,0.0,0.0
574,143.25,46.7182,50.4507,150.442,99.2908,94.9323,0.00998694,0.132093,20.9058,170.701,0.397957,0.0,0.0
588,146.75,46.0289,49.5562,143.601,99.3221,94.6426,0.0100257,0.129623,20.9088,170.651,0.427855,0.0,0.0
602,150.25,45.2615,49.0184,148.095,99.3145,94.853,0.00998987,0.127234,20.9121,170.611,0.407481,0.0,0.0
616,153.75,44.706,48.1279,146.02,99.3278,94.7953,0.010212,0.12496,20.9153,170.551,0.414059,0.0,0.0
630,157.25,44.163,47.7349,144.689,99.3338,94.4495,0.0100434,0.122233,20.9177,170.481,0.446996,0.0,0.0
644,160.75,43.8507,47.142,141.563,99.3547,95.3167,0.00988901,0.119724,20.9199,170.431,0.367833,0.0,0.0
658,164.25,43.2839,46.3866,144.223,99.3519,94.7679,0.00951837,0.116801,20.9242,170.391,0.418773,0.0,0.0
672,167.75,43.1828,46.258,143.509,99.3506,94.484,0.00944709,0.11487,20.9291,170.321,0.445268,0.0,0.0
686,171.25,42.7393,45.5679,147.067,99.3551,95.4732,0.00925091,0.112921,20.9324,170.281,0.353324,0.0,0.0
700,174.75,42.1535,45.0191,144.821,99.3474,94.8609,0.00898205,0.110308,20.9374,170.231,0.409684,0.0,0.0
714,178.25,42.2029,44.7048,141.709,99.3551,94.7464,0.00898038,0.108622,20.9398,170.191,0.421079,0.0,0.0
728,181.75,41.4483,44.4655,142.921,99.3338,94.814,0.00894008,0.106876,20.9418,170.151,0.41285,0.0,0.0
742,185.25,41.0658,44.0719,145.126,99.3498,94.2553,0.00847623,0.104586,20.943,170.101,0.466685,0.0,0.0
756,188.75,40.7533,43.0694,143.863,99.3213,94.9282,0.00798417,0.103018,20.9446,170.041,0.401071,0.0,0.0
770,192.25,40.6339,42.883,143.977,99.3141,94.6384,0.00758538,0.101073,20.9477,169.991,0.427527,0.0,0.0
784,195.75,40.4775,42.9458,147.649,99.3093,94.9045,0.0073885,0.0992139,20.9495,169.941,0.402204,0.0,0.0
798,199.25,40.2066,42.5031,147.247,99.288,95.0963,0.00733416,0.0977506,20.9517,169.921,0.382407,0.0,0.0
812,202.75,39.3502,41.8031,146.636,99.2884,95.6273,0.00733675,0.0964866,20.954,169.881,0.333082,0.0,0.0
826,206.25,39.4279,41.6634,145.616,99.2643,94.8618,0.00713812,0.0958041,20.9548,169.85,0.402183,0.0,0.0
840,209.75,38.9058,41.2604,146.944,99.2675,94.3246,0.00711539,0.0940633,20.955,169.8,0.452814,0.0,0.0
854,213.25,38.8558,40.9576,145.087,99.2398,94.9855,0.00713979,0.0925807,20.9549,169.76,0.38844,0.0,0.0
868,216.75,38.3594,40.7077,147.577,99.2362,94.9149,0.00692435,0.0928279,20.9543,169.75,0.394706,0.0,0.0
882,220.25,38.3632,39.8597,148.892,99.2024,95.6268,0.00674175,0.0922417,20.9551,169.69,0.325441,0.0,0.0
896,223.75,37.8541,40.1006,147.224,99.2028,94.4678,0.00667785,0.0907001,20.9568,169.63,0.433586,0.0,0.0
910,227.25,37.9804,39.5132,146.506,99.1783,95.3832,0.00676711,0.0890721,20.9595,169.61,0.345907,0.0,0.0
924,230.75,38.1139,39.4454,143.944,99.1807,94.6243,0.00651707,0.0883634,20.9604,169.58,0.416936,0.0,0.0
938,234.25,37.2827,39.1533,146.151,99.1634,95.3308,0.00618052,0.087417,20.9629,169.54,0.349441,0.0,0.0
952,237.75,37.6067,39.0267,144.166,99.1273,95.3827,0.00596011,0.087001,20.9653,169.5,0.341383,0.0,0.0
966,241.25,37.544,39.0969,145.35,99.1233,95.5592,0.00589453,0.0862821,20.9659,169.47,0.324641,0.0,0.0
980,244.75,37.419,38.5172,144.924,99.0935,95.1121,0.00574337,0.0855514,20.9677,169.43,0.363558,0.0,0.0
994,248.25,36.6817,38.2685,146.603,99.0767,95.6617,0.00570309,0.0852103,20.9682,169.39,0.310964,0.0,0.0
1008,251.75,36.7558,38.7079,144.389,99.0453,95.0502,0.00584914,0.0849799,20.9683,169.36,0.365011,0.0,0.0
1022,255.25,36.8564,38.1968,147.608,99.0381,94.9307,0.00576598,0.0846481,20.9683,169.31,0.375522,0.0,0.0
1036,258.75,36.4896,37.6708,149.302,99.0048,94.0481,0.00555814,0.0839786,20.968,169.28,0.455344,0.0,0.0
1050,262.25,36.7981,37.9402,145.277,98.9971,94.8987,0.00567838,0.0839187,20.9678,169.24,0.374839,0.0,0.0
1064,265.75,36.5048,38.1053,146.953,98.9823,94.303,0.00572223,0.0836465,20.9677,169.2,0.429334,0.0,0.0
1078,269.25,36.4491,38.1555,144.252,98.9686,94.7048,0.00560916,0.0830795,20.9694,169.19,0.390414,0.0,0.0
1092,272.75,36.8791,37.6749,149.704,98.9638,95.374,0.00544979,0.0826723,20.9699,169.14,0.327559,0.0,0.0
1106,276.25,36.1679,37.2748,143.489,98.9393,94.6845,0.00537462,0.0821486,20.97,169.09,0.38969,0.0,0.0
1120,279.75,36.5086,37.4644,141.056,98.9405,94.6716,0.00514444,0.081753,20.97,169.03,0.391003,0.0,0.0
1134,283.25,36.3368,37.7645,141.736,98.9204,94.3013,0.00474177,0.0817233,20.9719,169.01,0.423947,0.0,0.0
1148,286.75,36.1538,37.8458,144.155,98.9276,94.7405,0.00450674,0.0810443,20.9722,168.98,0.383401,0.0,0.0
1162,290.25,35.7483,37.2468,147.45,98.9047,94.3786,0.00453272,0.0806931,20.9723,168.94,0.415287,0.0,0.0
1176,293.75,36.5088,37.2839,146.663,98.9252,94.2221,0.00478561,0.0803175,20.9726,168.9,0.431836,0.0,0.0
1190,297.25,35.6571,37.0408,144.031,98.9015,94.7397,0.0046533,0.0794558,20.9742,168.88,0.381138,0.0,0.0
1204,300.75,36.1368,37.5959,146.854,98.9031,94.2025,0.00413451,0.0787545,20.9761,168.85,0.431693,0.0,0.0
1218,304.25,35.6923,37.0371,150.057,98.9031,95.6318,0.00405573,0.078364,20.9768,168.82,0.298192,0.0,0.0
1232,307.75,36.0456,36.833,143.614,98.8855,95.1046,0.00415519,0.0775861,20.9769,168.78,0.345618,0.0,0.0
1246,311.25,35.2521,37.3069,146.74,98.8818,94.8672,0.00441287,0.0766667,20.978,168.75,0.367456,0.0,0.0
1260,314.75,35.4904,37.2238,148.617,98.9268,94.67,0.004249,0.0754502,20.9793,168.709,0.389936,0.0,0.0
1274,318.25,36.0171,36.7434,148.197,99.006,95.0938,,0.0745818,,168.689,0.357422,0.0,0.0
1288,321.75,35.4412,37.0671,143.098,99.0847,95.3504,,,,168.649,0.340584,0.0,0.0
1302,325.25,35.4566,36.2893,148.476,99.1807,95.2902,,,,168.629,0.354769,0.0,0.0
1311,327.5,35.4974,36.3659,147.761,99.2333,95.061,,,,168.599,0.380817,0.0,0.0