Folder: fsri_materials_database/01_Data/Cotton_Rug/Cone (part 5)

File: Cotton_Rug_Cone_HF75Scan_220321_R3.csv
Names,Time,Stack TC,Smoke TC,Exh Press,Smoke Comp,Smoke Meas,CO Meter,CO2 Meter,O2 Meter,Sample Mass,Ext Coeff,Start Test,Flame Verif
Chan Gain,,500,500,1,1,1,1,1,1,1,1,1.0,1.0
Offset,,0,0,0.129198,0,0,0,0,0,0,0,0.0,0.0
Gain,,1,1,25.011,13.1874,13.4895,1,1,1,1.00089,1.01187,1.0,1.0
Units,sec,C,C,Pa,%,%,%,%,%,g,/m,,
Baseline,,44.4862,46.0741,124.696,99.1636,94.1917,0.000536254,0.0711532,20.9907,-836.061,0.456625,,
11,2.5,42.8552,45.1869,121.063,98.9533,91.5216,0.00113445,0.0737464,20.9855,183.784,0.692979,0.0,0.0
22,5.25,42.6645,44.7186,120.025,98.6148,92.347,0.00182307,0.10219,20.961,183.494,0.582875,0.0,0.0
33,8,43.3767,45.2843,105.469,98.3476,93.009,0.0027567,0.245037,20.8072,183.193,0.495392,0.0,1.0
44,10.75,46.3852,47.8665,104.896,98.1455,88.6692,0.00389933,0.472347,20.5277,182.603,0.901271,0.0,1.0
55,13.5,49.0057,51.4116,103.475,98.0687,86.3556,0.005392,0.677671,20.2727,181.982,1.12899,0.0,0.0
66,16.25,52.9031,55.8193,92.4261,98.1222,85.0893,0.00709893,0.820363,20.0953,181.442,1.26495,0.0,0.0
77,19,56.51,60.0576,95.5761,98.2836,84.0466,0.00892347,0.935277,19.969,180.791,1.38898,0.0,0.0
88,21.75,60.5981,64.5704,91.5743,98.4904,81.125,0.0115023,1.06181,19.8089,179.971,1.72168,0.0,0.0
99,24.5,65.2669,69.8741,99.088,98.7311,75.9125,0.0141751,1.25588,19.6013,179.12,2.3328,0.0,0.0
110,27.25,70.4631,75.3185,92.7887,98.9903,73.4071,0.0173593,1.42961,19.39,178.199,2.65396,0.0,0.0
121,30,75.9085,81.934,87.951,99.204,71.3014,0.0199728,1.59934,19.2263,177.248,2.93144,0.0,0.0
132,32.75,80.7179,87.5601,85.4879,99.3444,72.8336,0.0219759,1.68731,19.127,176.317,2.75527,0.0,0.0
143,35.5,85.8787,93.4753,83.8202,99.3895,70.9046,0.0235233,1.72441,19.0855,175.376,2.99756,0.0,0.0
154,38.25,90.2952,98.9796,89.731,99.3537,71.6814,0.0241156,1.70761,19.0978,174.536,2.89765,0.0,0.0
165,41,94.0808,103.243,89.9103,99.2639,70.6349,0.0231873,1.61731,19.1855,173.705,3.02016,0.0,0.0
176,43.75,96.8728,106.784,95.6921,99.1187,73.0806,0.0208722,1.42015,19.4596,173.084,2.70503,0.0,0.0
187,46.5,98.067,108.637,106.048,99.0092,79.4886,0.0172631,1.10214,19.802,172.674,1.94918,0.0,0.0
198,49.25,97.4661,108.109,112.801,98.8824,83.758,0.0126816,0.798495,20.1576,172.394,1.47343,0.0,0.0
209,52,95.9063,106.406,114.602,98.9291,87.1505,0.00887499,0.563177,20.4064,172.234,1.12519,0.0,0.0
220,54.75,93.895,104.145,115.242,99.3549,86.8138,0.00619984,0.436585,20.5499,172.033,1.19767,0.0,0.0
231,57.5,91.8569,101.924,112.974,99.6113,87.1407,0.00497506,0.362927,20.6475,171.843,1.18719,0.0,0.0
242,60.25,90.0371,99.7422,116.405,99.7336,87.9253,0.00452287,0.327954,20.6934,171.703,1.11852,0.0,0.0
253,63,87.9899,98.0363,115.875,99.7252,87.0764,0.00430006,0.311519,20.7154,171.573,1.20388,0.0,0.0
264,65.75,86.8888,96.2554,115.885,99.5923,87.048,0.00426415,0.30034,20.7317,171.433,1.19494,0.0,0.0
275,68.5,85.104,93.6076,116.901,99.3436,87.4268,0.00407073,0.287947,20.7477,171.283,1.13422,0.0,0.0
286,71.25,83.5016,92.6713,115.635,99.3151,88.9149,0.00378004,0.273486,20.7638,171.213,0.981846,0.0,0.0
297,74,82.2838,90.7603,117.723,99.4595,90.4645,0.00360447,0.256654,20.7834,171.103,0.841399,0.0,0.0
308,76.75,80.9704,88.7823,118.539,99.6141,91.4109,0.00363376,0.237658,20.8021,171.033,0.762803,0.0,0.0
319,79.5,79.1278,87.708,120.009,99.7835,92.4602,0.00398014,0.220289,20.8249,170.922,0.676575,0.0,0.0
330,82.25,77.5489,86.3216,120.333,99.9312,92.9633,0.00443633,0.204731,20.8406,170.842,0.641542,0.0,0.0
341,85,76.2966,84.3041,121.186,100.035,92.6047,0.00472701,0.194104,20.8542,170.742,0.685025,0.0,0.0
352,87.75,74.5365,82.8871,118.206,100.074,93.0036,0.00498316,0.186189,20.8628,170.702,0.650372,0.0,0.0
363,90.5,73.7651,81.198,117.562,100.07,93.2691,0.00531303,0.180248,20.8689,170.622,0.62471,0.0,0.0
374,93.25,72.4433,79.7421,122.585,100.019,94.0917,0.00575353,0.175777,20.8733,170.562,0.542207,0.0,0.0
385,96,71.4914,78.8149,125.418,99.9075,93.2568,0.00623666,0.171439,20.8761,170.522,0.611451,0.0,0.0
396,98.75,69.955,77.3591,125.509,99.7477,93.0234,0.00650002,0.166085,20.8811,170.462,0.61949,0.0,0.0
407,101.5,68.8002,76.3644,120.852,99.5332,93.363,0.00668771,0.161904,20.8847,170.432,0.568035,0.0,0.0
418,104.25,67.8123,75.2172,119.824,99.3155,92.9106,0.00703243,0.15895,20.8875,170.362,0.591713,0.0,0.0
429,107,67.0164,73.5273,121.617,99.0853,92.9069,0.00743099,0.156636,20.8891,170.342,0.57147,0.0,0.0
440,109.75,65.9899,72.6218,121.802,98.886,92.797,0.00771538,0.154924,20.8904,170.292,0.564113,0.0,0.0
451,112.5,64.6007,71.8323,119.738,98.6828,92.27,0.00811532,0.153284,20.8916,170.262,0.596397,0.0,0.0
462,115.25,63.8867,70.4959,122.616,98.4973,92.5224,0.00852067,0.152495,20.8913,170.212,0.555452,0.0,0.0
473,118,63.1725,70.0469,121.07,98.3556,92.5598,0.00876706,0.152264,20.8903,170.182,0.539083,0.0,0.0
484,120.75,62.5577,68.8167,123.407,98.2582,92.0947,0.00910353,0.151404,20.8904,170.122,0.575011,0.0,0.0
495,123.5,62.2238,67.8393,122.907,98.2144,92.4088,0.00954766,0.14933,20.8923,170.112,0.540826,0.0,0.0
506,126.25,61.4157,67.5416,120.399,98.222,92.1103,0.0102969,0.147244,20.8953,170.082,0.570232,0.0,0.0
517,129,60.6691,66.8168,120.737,98.2643,92.2914,0.0110668,0.144774,20.8998,170.042,0.556611,0.0,0.0
528,131.75,59.8321,65.6891,118.843,98.3576,92.1996,0.0116781,0.143299,20.902,170.002,0.573875,0.0,0.0
539,134.5,59.6929,64.4349,124.036,98.4482,92.0848,0.0122221,0.141303,20.9049,169.932,0.593107,0.0,0.0
550,137.25,58.0173,63.8246,122.466,98.5729,92.5039,0.0123373,0.139451,20.9072,169.912,0.564045,0.0,0.0
561,140,58.5828,63.8124,119.993,98.6836,92.2,0.0123573,0.137263,20.9103,169.902,0.603204,0.0,0.0
572,142.75,58.0186,63.2099,119.661,98.8237,92.741,0.0125051,0.135638,20.9133,169.831,0.563869,0.0,0.0
583,145.5,57.3574,62.4072,125.203,98.9448,92.6154,0.0125846,0.134788,20.9143,169.781,0.586768,0.0,0.0
594,148.25,57.3121,61.8948,120.323,99.0712,92.8534,0.0124701,0.133893,20.915,169.761,0.575323,0.0,0.0
605,151,56.6778,61.2396,117.5,99.1988,93.0118,0.0124905,0.134129,20.9152,169.721,0.571607,0.0,0.0
616,153.75,56.3272,60.101,121.42,99.2772,93.2856,0.0124741,0.134353,20.9153,169.701,0.55254,0.0,0.0
627,156.5,55.5194,60.1491,122.05,99.3589,93.0003,0.0124328,0.134015,20.9153,169.691,0.587028,0.0,0.0
638,159.25,55.3692,59.8433,122.94,99.4318,93.0658,0.0123539,0.134206,20.9153,169.611,0.587288,0.0,0.0
649,162,54.929,59.3571,122.701,99.4998,93.5075,0.0123381,0.133754,20.9153,169.571,0.551329,0.0,0.0
660,164.75,54.4063,58.89,121.247,99.5151,93.1061,0.0123522,0.132859,20.9153,169.541,0.590875,0.0,0.0
671,167.5,54.5457,58.776,118.669,99.5159,92.9118,0.0124217,0.132596,20.9153,169.511,0.60949,0.0,0.0
682,170.25,54.2226,57.6882,118.516,99.5038,93.477,0.0122101,0.132497,20.9161,169.491,0.55458,0.0,0.0
693,173,53.4093,57.4219,121.088,99.4724,93.0312,0.0119601,0.133034,20.9165,169.431,0.594214,0.0,0.0
704,175.75,53.1853,57.4449,125.956,99.4213,93.2481,0.0119192,0.132631,20.9166,169.381,0.568978,0.0,0.0
715,178.5,53.1355,56.9928,122.218,99.3646,93.0748,0.0120124,0.13249,20.9176,169.371,0.580423,0.0,0.0
726,181.25,52.69,56.5256,122.143,99.2917,93.1341,0.0120615,0.132226,20.9186,169.331,0.568261,0.0,0.0
737,184,52.9282,56.3694,122.761,99.2189,93.1732,0.0119115,0.131493,20.92,169.301,0.55802,0.0,0.0
748,186.75,52.9126,56.1538,126.712,99.167,92.9674,0.0118704,0.131017,20.9209,169.261,0.573006,0.0,0.0
759,189.5,52.3495,55.9244,122.903,99.1078,92.7286,0.0116789,0.130449,20.9222,169.181,0.590535,0.0,0.0
770,192.25,51.9957,56.0986,121.134,99.0563,93.0143,0.011408,0.130123,20.9229,169.171,0.558615,0.0,0.0
781,195,52.3042,55.4286,121.538,99.0128,92.9056,0.0112446,0.129607,20.923,169.191,0.565096,0.0,0.0
792,197.75,52.798,55.6153,122.839,98.9746,92.4787,0.0112858,0.129509,20.923,169.131,0.602547,0.0,0.0
803,200.5,52.3359,55.9582,121.5,98.9492,92.9876,0.0115076,0.129581,20.923,169.081,0.551571,0.0,0.0
814,203.25,52.3174,55.4477,122.323,98.9911,92.9447,0.0115229,0.129122,20.9249,168.981,0.559412,0.0,0.0
825,206,52.1645,54.4223,123.533,99.1714,92.8678,0.0111509,0.127429,20.9268,168.991,0.582919,0.0,0.0
836,208.75,51.4165,54.905,124.017,99.3231,92.974,0.0106794,0.126119,20.9277,168.951,0.586343,0.0,0.0
847,211.5,51.085,54.5062,124.1,99.4503,93.0328,0.0104013,0.125431,20.9287,168.931,0.592082,0.0,0.0
858,214.25,51.555,54.5571,121.927,99.5775,93.3198,0.0102382,0.124811,20.929,168.881,0.576091,0.0,0.0
869,217,51.0808,54.5654,121.648,99.6479,93.1699,0.00995882,0.124192,20.9314,168.841,0.596632,0.0,0.0
880,219.75,50.8859,54.0525,121.5,99.7284,93.7146,0.00983873,0.123804,20.9331,168.801,0.552064,0.0,0.0
891,222.5,51.1725,54.0556,121.687,99.761,93.6009,0.00991204,0.123196,20.9336,168.761,0.565732,0.0,0.0
902,225.25,50.9354,53.6684,121.997,99.8073,93.7792,0.00967368,0.122377,20.9345,168.731,0.552961,0.0,0.0
913,228,51.094,53.8418,123.479,99.8258,93.5067,0.00957138,0.121117,20.9371,168.721,0.58044,0.0,0.0
924,230.75,50.9887,53.4933,120.899,99.8318,93.8327,0.009422,0.120186,20.9381,168.65,0.550081,0.0,0.0
935,233.5,51.0437,53.0864,121.888,99.8109,93.5882,0.00892354,0.119054,20.9384,168.63,0.571381,0.0,0.0
946,236.25,51.203,53.9168,119.062,99.8052,93.2984,0.00843348,0.118152,20.9401,168.59,0.598409,0.0,0.0
957,239,50.6226,53.4977,122.477,99.7835,93.6355,0.00813587,0.117018,20.9403,168.55,0.564458,0.0,0.0
968,241.75,50.8105,53.1676,124.204,99.7324,93.151,0.00779233,0.115623,20.9412,168.54,0.60596,0.0,0.0
979,244.5,50.9218,53.1449,125.435,99.6793,93.3107,0.00747815,0.113895,20.9434,168.51,0.586025,0.0,0.0
990,247.25,50.5999,53.0046,120.771,99.6326,93.0732,0.00725232,0.111987,20.9459,168.46,0.604489,0.0,0.0
1001,250,50.375,53.2299,120.802,99.5686,93.5598,0.00705537,0.110357,20.9475,168.48,0.552504,0.0,0.0
1012,252.75,50.6524,52.9186,120.297,99.5038,93.3671,0.00690648,0.108652,20.9491,168.44,0.565022,0.0,0.0
1023,255.5,50.4026,52.6306,120.264,99.4277,93.4956,0.00657077,0.106682,20.9522,168.41,0.546033,0.0,0.0
1034,258.25,50.4996,52.8603,120.457,99.3392,92.983,0.00623473,0.104883,20.9549,168.39,0.586916,0.0,0.0
1045,261,50.0058,52.8041,122.78,99.3501,92.9295,,0.102726,,168.36,0.592998,0.0,0.0
1056,263.75,49.9467,52.1915,122.179,99.3803,93.517,,,,168.35,0.53976,0.0,0.0
1067,266.5,49.999,53.0938,121.258,99.412,93.2057,,,,168.31,0.572188,0.0,0.0
1078,269.25,50.1331,52.4649,123.823,99.4382,92.8068,,,,168.3,0.612593,0.0,0.0
1083,270.5,49.8453,52.1532,121.235,99.4921,93.349,,,,168.3,0.565704,0.0,0.0