Folder: fsri_materials_database/01_Data/Cotton_Rug/HFM

Note: 01_Data/README.md
# Materials and Products Database
## 01_Data

Raw data generated from each apparatus are included here in plain-text format. The data is organized first by material, next by the short name of test apparatus used, and where applicable additional filtering by test settings.

### material.json

Each material directory contains a json file of the same name as the material. This file links the data stored in the repository as well as data and graphs produced by the accompanying scripts (__02_Scripts__) to the respective landing page for the material on the front-end website.

File: Cotton_Rug_Density_Dry_R1.csv
,Cotton_Rug_DRY_1
Sample Mass [g],53.5
Sample Volume [cm3],206.8
Sample Density [kg/m3],259

File: Cotton_Rug_Density_Dry_R2.csv
,Cotton_Rug_DRY_2
Sample Mass [g],53.9
Sample Volume [cm3],218.7
Sample Density [kg/m3],247

File: Cotton_Rug_Density_Dry_R3.csv
,Cotton_Rug_DRY_3
Sample Mass [g],53.9
Sample Volume [cm3],209.8
Sample Density [kg/m3],257

File: Cotton_Rug_Density_Wet_R1.csv
,Cotton_Rug_WET_1
Sample Mass [g],55.0
Sample Volume [cm3],206.8
Sample Density [kg/m3],266

File: Cotton_Rug_Density_Wet_R2.csv
,Cotton_Rug_WET_2
Sample Mass [g],55.8
Sample Volume [cm3],218.7
Sample Density [kg/m3],255

File: Cotton_Rug_Density_Wet_R3.csv
,Cotton_Rug_WET_3
Sample Mass [g],56.3
Sample Volume [cm3],209.8
Sample Density [kg/m3],268