Folder: fsri_materials_database/01_Data/Cotton_Rug/MCC (part 2)

File: Cotton_Rug_MCC_30K_min_211115_R3.txt
Sample ID:	C:\MCC\MCC Cal\Test\Cotton_Rug_MCC_30K_min_211115_R3.txt
Sample Weight (mg):	4.11
Heating Rate (C/s):	0.5
Combustor Temp (C):	900
N2 Flow Rate (cc/min):	80
O2 Flow Rate (cc/min):	20
Calibration File:	C:\MCC\MCC Cal\Coeff1 JN10440_30_210304.txt.txt
T Correction Coefficients:	0	1.024463	0
Time Shift (s):	14
*
Time (s)	Temperature (C)	N2 flow rate (cc/min)	O2 flow rate (cc/min)	Flow Rate (cc/min)	Oxygen (%)	HRR (W/g)	Heating rate (C/s)
-0.001	110.002	80.006	19.993	103.098	20.083	0.126	0.011
7.999	109.967	80.017	19.997	103.102	20.083	0.066	-0.003
15.999	109.925	80.006	19.995	103.097	20.081	0.285	-0.023
23.999	109.867	80.008	19.995	103.109	20.084	0.002	-0.003
31.999	109.978	80.008	19.993	103.315	20.050	2.670	0.055
39.999	110.748	80.006	19.994	103.337	20.034	3.955	0.110
47.999	112.160	80.002	19.994	103.353	20.029	4.368	0.181
55.999	114.119	80.006	19.994	103.358	20.030	4.295	0.300
63.999	116.388	80.006	19.993	103.355	20.028	4.408	0.301
71.999	119.081	80.003	19.993	103.369	20.029	4.352	0.340
79.999	122.010	80.007	19.994	103.373	20.029	4.341	0.357
87.999	125.196	80.008	19.994	103.366	20.029	4.343	0.396
95.999	128.617	80.007	19.994	103.364	20.027	4.467	0.460
103.999	132.098	80.006	19.995	103.364	20.028	4.444	0.450
111.999	135.764	80.009	19.995	103.359	20.028	4.425	0.474
119.999	139.560	80.005	19.994	103.350	20.031	4.184	0.482
127.999	143.410	80.007	19.994	103.364	20.028	4.411	0.499
135.999	147.272	80.007	19.994	103.355	20.032	4.121	0.507
143.999	151.229	80.006	19.994	103.337	20.032	4.097	0.519
151.999	155.137	80.006	19.993	103.330	20.032	4.084	0.468
159.999	159.061	80.006	19.994	103.326	20.030	4.253	0.475
167.999	163.033	80.007	19.994	103.329	20.031	4.193	0.499
176.000	167.013	80.007	19.994	103.308	20.034	3.975	0.496
183.999	170.929	80.007	19.994	103.310	20.032	4.115	0.452
191.999	174.885	80.008	19.995	103.307	20.032	4.085	0.496
199.999	178.804	80.007	19.994	103.301	20.030	4.250	0.476
207.999	182.769	80.006	19.995	103.298	20.033	4.014	0.466
215.999	186.802	80.006	19.995	103.291	20.034	3.969	0.521
223.999	190.724	80.007	19.994	103.292	20.034	3.923	0.467
231.999	194.751	80.008	19.994	103.291	20.036	3.773	0.480
239.999	198.698	80.006	19.994	103.278	20.039	3.571	0.486
247.999	202.728	80.008	19.994	103.287	20.037	3.735	0.517
255.999	206.646	80.008	19.993	103.278	20.035	3.838	0.463
263.999	210.632	80.008	19.994	103.273	20.038	3.606	0.502
271.999	214.604	80.008	19.994	103.276	20.033	4.011	0.498
280.000	218.518	80.010	19.994	103.265	20.034	3.968	0.522
287.999	222.479	80.007	19.994	103.263	20.030	4.259	0.441
296.000	226.460	80.006	19.994	103.256	20.032	4.126	0.488
304.000	230.472	80.005	19.995	103.256	20.030	4.229	0.489
311.999	234.433	80.005	19.995	103.253	20.030	4.287	0.473
319.999	238.386	80.006	19.994	103.269	20.026	4.553	0.482
328.000	242.363	80.008	19.994	103.266	20.025	4.678	0.518
335.999	246.348	80.008	19.994	103.257	20.020	5.021	0.509
344.000	250.345	80.008	19.994	103.257	20.018	5.229	0.520
351.999	254.285	80.008	19.993	103.253	20.013	5.556	0.510
359.999	258.230	80.009	19.993	103.257	20.009	5.908	0.535
367.999	262.111	80.007	19.995	103.267	20.003	6.391	0.492
376.000	266.111	80.006	19.994	103.264	19.993	7.173	0.515
384.000	270.178	80.006	19.995	103.280	19.985	7.773	0.525
391.999	274.156	80.005	19.994	103.272	19.977	8.428	0.465
399.999	278.042	80.004	19.995	103.262	19.964	9.396	0.257
408.000	282.156	80.007	19.995	103.257	19.953	10.272	0.509
415.999	286.111	80.007	19.994	103.286	19.942	11.165	0.506
423.999	290.067	80.006	19.994	103.284	19.928	12.258	0.525
431.999	294.051	80.007	19.994	103.266	19.911	13.626	0.496
439.999	297.978	80.009	19.993	103.294	19.897	14.716	0.520
448.000	301.945	80.007	19.993	103.292	19.871	16.762	0.513
455.999	305.887	80.005	19.995	103.294	19.845	18.768	0.473
464.000	309.896	80.006	19.995	103.319	19.816	21.062	0.496
471.999	313.870	80.006	19.995	103.339	19.780	23.842	0.495
479.999	317.863	80.006	19.994	103.347	19.731	27.747	0.489
487.999	321.956	80.006	19.995	103.376	19.680	31.739	0.492
495.999	325.959	80.007	19.995	103.403	19.604	37.753	0.524
504.000	330.021	80.007	19.994	103.446	19.514	44.807	0.482
512.000	334.059	80.007	19.994	103.491	19.396	54.124	0.486
519.999	338.222	80.008	19.994	103.557	19.243	66.187	0.537
527.999	342.365	80.006	19.994	103.619	19.048	81.621	0.518
535.999	346.446	80.007	19.994	103.695	18.837	98.189	0.506
543.999	350.529	80.007	19.994	103.720	18.659	112.140	0.515
551.999	354.627	80.007	19.994	103.645	18.595	117.049	0.492
559.999	358.629	80.006	19.995	103.556	18.706	108.189	0.509
567.999	362.636	80.007	19.995	103.428	18.947	89.199	0.511
575.999	366.587	80.008	19.995	103.339	19.242	66.068	0.476
583.999	370.556	80.006	19.996	103.319	19.489	46.701	0.509
591.999	374.509	80.007	19.995	103.301	19.638	34.970	0.504
600.000	378.434	80.009	19.993	103.296	19.707	29.586	0.481
608.000	382.371	80.010	19.994	103.296	19.727	27.980	0.492
616.000	386.370	80.007	19.995	103.292	19.730	27.778	0.497
623.999	390.422	80.008	19.995	103.303	19.721	28.505	0.492
632.000	394.490	80.009	19.994	103.312	19.703	29.949	0.521
640.000	398.588	80.007	19.995	103.310	19.686	31.247	0.544
647.999	402.612	80.006	19.996	103.327	19.653	33.797	0.501
655.999	406.570	80.006	19.994	103.342	19.619	36.487	0.504
663.999	410.577	80.007	19.995	103.355	19.589	38.856	0.523
672.000	414.506	80.006	19.995	103.367	19.573	40.090	0.465
679.999	418.494	80.010	19.995	103.347	19.561	41.074	0.512
688.000	422.583	80.009	19.993	103.358	19.576	39.868	0.492
695.999	426.660	80.006	19.993	103.354	19.608	37.348	0.529
703.999	430.759	80.006	19.994	103.332	19.657	33.486	0.530
711.999	434.909	80.006	19.994	103.324	19.724	28.241	0.553
719.999	439.054	80.006	19.992	103.294	19.791	22.975	0.514
727.999	443.205	80.007	19.993	103.279	19.840	19.145	0.506
736.000	447.429	80.009	19.996	103.253	19.875	16.397	0.505
743.999	451.528	80.008	19.994	103.248	19.910	13.623	0.467
751.999	455.640	80.008	19.995	103.249	19.944	10.976	0.540
759.999	459.801	80.007	19.996	103.228	19.959	9.789	0.555
767.999	463.919	80.010	19.996	103.221	19.979	8.215	0.509
775.999	467.981	80.007	19.996	103.215	19.987	7.599	0.561
784.000	471.984	80.005	19.994	103.219	20.001	6.561	0.481
792.000	476.000	80.008	19.994	103.212	20.008	5.947	0.505
800.000	480.029	80.007	19.994	103.210	20.008	5.984	0.526
807.999	484.030	80.006	19.994	103.193	20.014	5.516	0.488
815.999	488.036	80.006	19.994	103.208	20.016	5.314	0.485
823.999	492.152	80.008	19.994	103.199	20.022	4.846	0.513
831.999	496.280	80.008	19.994	103.177	20.016	5.329	0.511
840.000	500.363	80.006	19.994	103.175	20.024	4.727	0.514
847.999	504.456	80.007	19.993	103.206	20.021	4.975	0.507
855.999	508.550	80.008	19.994	103.181	20.021	4.944	0.528
863.999	512.564	80.006	19.996	103.198	20.027	4.515	0.501
871.999	516.683	80.007	19.995	103.175	20.024	4.724	0.525
879.999	520.794	80.007	19.994	103.172	20.025	4.659	0.515
888.000	524.870	80.006	19.994	103.186	20.028	4.438	0.506
895.999	528.924	80.005	19.995	103.166	20.018	5.172	0.503
903.999	532.956	80.008	19.995	103.174	20.019	5.129	0.466
911.999	537.074	80.009	19.994	103.191	20.027	4.514	0.514
919.999	541.153	80.007	19.993	103.179	20.027	4.489	0.543
928.000	545.145	80.008	19.995	103.171	20.020	5.019	0.497
936.000	549.207	80.008	19.994	103.190	20.021	4.961	0.479
943.999	553.275	80.006	19.994	103.180	20.018	5.184	0.505
951.999	557.380	80.007	19.996	103.168	20.016	5.347	0.518
959.999	561.437	80.004	19.994	103.180	20.011	5.720	0.508
967.999	565.407	80.005	19.994	103.177	20.013	5.617	0.481
975.999	569.472	80.008	19.994	103.185	20.017	5.266	0.499
983.999	573.459	80.009	19.994	103.182	20.018	5.189	0.511
991.999	577.533	80.010	19.994	103.184	20.015	5.394	0.534
999.999	581.576	80.007	19.994	103.184	20.017	5.296	0.513
1007.999	585.624	80.010	19.994	103.182	20.016	5.331	0.521
1015.999	589.723	80.014	19.994	103.174	20.011	5.781	0.530
1023.999	593.780	80.008	19.994	103.198	20.009	5.883	0.504
1031.999	597.904	80.008	19.996	103.184	20.010	5.838	0.530
1040.000	601.913	80.009	19.995	103.185	20.013	5.579	0.492
1047.999	605.980	80.006	19.995	103.176	20.016	5.344	0.513
1056.000	610.046	80.006	19.996	103.186	20.022	4.903	0.490
1063.999	614.061	79.999	19.996	103.172	20.025	4.654	0.471
1071.999	618.128	80.010	19.995	103.176	20.023	4.766	0.486
1079.999	622.175	80.008	19.994	103.165	20.026	4.586	0.502
1087.999	626.259	80.009	19.995	103.176	20.031	4.185	0.491
1095.999	630.466	80.011	19.994	103.175	20.035	3.829	0.461
1103.999	634.685	80.007	19.993	103.169	20.032	4.099	0.545
1111.999	638.851	80.006	19.994	103.172	20.036	3.808	0.525
1120.000	642.976	80.006	19.994	103.174	20.032	4.101	0.516
1127.999	647.085	80.010	19.995	103.173	20.029	4.303	0.537
1135.999	651.035	80.007	19.995	103.171	20.033	4.022	0.502
1143.999	655.013	80.013	19.995	103.166	20.032	4.084	0.497
1151.999	658.982	80.009	19.995	103.164	20.034	3.962	0.487
1159.999	662.975	80.007	19.995	103.157	20.031	4.144	0.490
1167.999	666.861	80.011	19.994	103.165	20.033	4.026	0.498
1176.000	670.789	80.010	19.994	103.162	20.025	4.682	0.511
1184.000	674.705	80.007	19.996	103.176	20.031	4.163	0.490
1191.999	678.661	80.008	19.994	103.153	20.030	4.279	0.506
1199.999	682.762	80.010	19.992	103.167	20.031	4.200	0.501
1207.999	686.857	80.008	19.993	103.168	20.029	4.339	0.503
1215.999	690.956	80.008	19.996	103.164	20.029	4.307	0.488
1223.999	695.001	80.011	19.995	103.164	20.031	4.198	0.523
1231.999	699.059	80.011	19.993	103.165	20.035	3.831	0.510
1239.999	703.088	80.008	19.994	103.171	20.034	3.929	0.503
1247.999	707.127	80.005	19.994	103.169	20.030	4.270	0.538
1255.999	711.164	80.011	19.994	103.155	20.032	4.086	0.504
1263.999	715.119	80.002	19.993	103.160	20.034	3.919	0.527
1271.999	719.135	80.009	19.994	103.155	20.031	4.157	0.506
1279.999	723.184	80.007	19.994	103.163	20.034	3.936	0.495
1288.000	727.137	80.010	19.995	103.156	20.033	3.983	0.519
1296.000	731.306	80.005	19.995	103.173	20.030	4.223	0.542
1303.999	735.625	80.007	19.995	103.170	20.031	4.204	0.520
1311.999	740.011	80.006	19.997	103.176	20.030	4.281	0.566
1317.499	743.060	80.007	19.994	103.146	20.028	4.373	0.570