Folder: fsri_materials_database/01_Data/Cotton_Rug/MCC

Note: 01_Data/README.md
# Materials and Products Database
## 01_Data

Raw data generated from each apparatus are included here in plain-text format. The data is organized first by material, next by the short name of test apparatus used, and where applicable additional filtering by test settings.

### material.json

Each material directory contains a json file of the same name as the material. This file links the data stored in the repository as well as data and graphs produced by the accompanying scripts (__02_Scripts__) to the respective landing page for the material on the front-end website.

File: Cotton_Rug_MCC_30K_min_211115_R1.txt
Sample ID:	C:\MCC\MCC Cal\Test\Cotton_Rug_MCC_30K_min_211115_R1.txt
Sample Weight (mg):	4.17
Heating Rate (C/s):	0.5
Combustor Temp (C):	900
N2 Flow Rate (cc/min):	80
O2 Flow Rate (cc/min):	20
Calibration File:	C:\MCC\MCC Cal\Coeff1 JN10440_30_210304.txt.txt
T Correction Coefficients:	0	1.024463	0
Time Shift (s):	14
*
Time (s)	Temperature (C)	N2 flow rate (cc/min)	O2 flow rate (cc/min)	Flow Rate (cc/min)	Oxygen (%)	HRR (W/g)	Heating rate (C/s)
0.000	106.511	80.002	19.992	103.054	20.129	-0.017	0.001
8.000	106.494	80.003	19.995	103.069	20.127	0.152	-0.014
16.000	106.556	80.006	19.994	103.119	20.118	0.821	0.011
24.000	106.853	80.005	19.994	103.260	20.097	2.420	0.061
32.000	107.793	80.004	19.995	103.262	20.095	2.610	0.160
40.000	109.204	80.006	19.995	103.271	20.095	2.632	0.185
48.000	110.934	80.004	19.994	103.260	20.089	3.114	0.245
56.000	112.840	80.003	19.994	103.270	20.092	2.828	0.228
64.000	115.066	80.004	19.994	103.269	20.090	3.025	0.276
72.000	117.418	80.005	19.993	103.296	20.089	3.047	0.304
80.000	120.038	80.004	19.994	103.298	20.083	3.564	0.315
88.000	122.841	80.004	19.994	103.315	20.087	3.205	0.350
96.000	125.753	80.004	19.994	103.303	20.083	3.571	0.370
104.001	128.854	80.007	19.995	103.325	20.084	3.458	0.381
112.000	132.134	80.005	19.995	103.311	20.086	3.309	0.410
120.000	135.587	80.006	19.994	103.331	20.084	3.459	0.429
128.000	139.147	80.006	19.995	103.307	20.085	3.422	0.454
136.000	142.692	80.003	19.995	103.296	20.085	3.370	0.455
144.000	146.479	80.003	19.994	103.302	20.086	3.326	0.468
152.000	150.276	80.004	19.994	103.290	20.084	3.467	0.478
160.000	154.069	80.003	19.993	103.301	20.086	3.307	0.468
168.000	157.884	80.002	19.995	103.307	20.091	2.903	0.470
176.000	161.805	80.004	19.994	103.297	20.088	3.142	0.525
184.000	165.750	80.006	19.993	103.297	20.089	3.044	0.490
192.000	169.739	80.002	19.994	103.294	20.087	3.228	0.479
200.000	173.757	80.005	19.994	103.290	20.084	3.429	0.516
208.000	177.703	80.006	19.994	103.294	20.085	3.349	0.473
216.000	181.728	80.005	19.994	103.289	20.085	3.347	0.476
224.001	185.810	80.004	19.995	103.286	20.088	3.136	0.489
232.000	189.855	80.004	19.994	103.277	20.088	3.171	0.516
240.000	193.894	80.005	19.993	103.282	20.091	2.932	0.559
248.000	197.773	80.003	19.994	103.270	20.087	3.230	0.495
256.000	201.757	80.004	19.993	103.269	20.092	2.832	0.484
264.000	205.706	80.006	19.994	103.284	20.090	2.993	0.515
272.000	209.696	80.004	19.995	103.267	20.093	2.800	0.472
280.000	213.652	80.006	19.994	103.256	20.094	2.724	0.491
288.000	217.559	80.006	19.994	103.258	20.092	2.828	0.493
296.000	221.436	80.005	19.993	103.263	20.094	2.698	0.481
304.000	225.386	80.005	19.995	103.261	20.090	2.967	0.483
312.000	229.328	80.004	19.995	103.255	20.086	3.270	0.501
320.000	233.222	80.004	19.995	103.256	20.086	3.276	0.506
328.000	237.095	80.003	19.994	103.269	20.082	3.634	0.475
336.000	240.977	80.004	19.993	103.266	20.082	3.644	0.467
344.001	244.937	80.006	19.994	103.259	20.078	3.887	0.505
352.000	249.003	80.005	19.994	103.269	20.072	4.352	0.522
360.000	253.123	80.006	19.994	103.262	20.067	4.806	0.504
368.000	257.216	80.007	19.993	103.272	20.068	4.725	0.501
376.000	261.336	80.005	19.994	103.274	20.059	5.420	0.527
384.000	265.424	80.003	19.994	103.260	20.055	5.664	0.515
392.000	269.480	80.003	19.994	103.258	20.045	6.480	0.489
400.000	273.595	80.005	19.995	103.284	20.043	6.660	0.507
408.000	277.634	80.003	19.996	103.268	20.032	7.445	0.521
416.000	281.632	80.005	19.994	103.234	20.020	8.434	0.525
424.000	285.588	80.007	19.994	103.288	20.010	9.170	0.465
432.000	289.562	80.008	19.995	103.288	19.994	10.419	0.517
440.000	293.421	80.004	19.994	103.296	19.986	11.009	0.452
448.000	297.374	80.007	19.993	103.254	19.967	12.533	0.453
456.000	301.294	80.006	19.993	103.299	19.945	14.200	0.484
464.000	305.165	80.005	19.994	103.295	19.923	15.941	0.421
472.000	309.066	80.005	19.994	103.298	19.898	17.871	0.507
480.000	312.998	80.005	19.995	103.333	19.862	20.620	0.503
488.000	316.995	80.003	19.994	103.331	19.824	23.583	0.490
496.000	321.093	80.005	19.994	103.357	19.769	27.817	0.514
504.000	325.186	80.004	19.996	103.369	19.700	33.192	0.523
512.000	329.326	80.006	19.994	103.428	19.618	39.591	0.518
520.000	333.435	80.004	19.994	103.425	19.515	47.520	0.508
528.000	337.551	80.006	19.994	103.506	19.379	58.142	0.508
536.000	341.708	80.006	19.993	103.562	19.210	71.304	0.536
544.000	345.774	80.005	19.994	103.642	19.009	86.879	0.511
552.000	349.826	80.006	19.994	103.693	18.817	101.722	0.493
560.000	353.937	80.003	19.995	103.684	18.686	111.832	0.519
568.000	358.016	80.004	19.994	103.599	18.699	110.704	0.526
576.001	362.072	80.005	19.995	103.526	18.868	97.506	0.530
584.000	366.137	80.003	19.995	103.387	19.144	76.157	0.519
592.000	370.178	80.007	19.995	103.369	19.429	54.076	0.509
600.000	374.291	80.005	19.996	103.296	19.628	38.720	0.503
608.000	378.382	80.007	19.994	103.296	19.732	30.701	0.517
616.000	382.400	80.008	19.993	103.292	19.783	26.696	0.484
624.000	386.414	80.005	19.992	103.304	19.791	26.071	0.527
632.000	390.325	80.005	19.994	103.296	19.784	26.627	0.486
640.000	394.334	80.005	19.993	103.338	19.778	27.087	0.482
648.000	398.343	80.007	19.993	103.330	19.756	28.829	0.509
656.000	402.343	80.004	19.994	103.312	19.727	31.039	0.497
664.000	406.320	80.005	19.995	103.325	19.703	32.955	0.470
672.000	410.376	80.007	19.994	103.358	19.671	35.438	0.521
680.000	414.374	80.004	19.995	103.360	19.645	37.411	0.519
688.000	418.421	80.005	19.997	103.364	19.630	38.574	0.510
696.000	422.462	80.006	19.996	103.363	19.635	38.205	0.522
704.000	426.494	80.006	19.995	103.358	19.655	36.638	0.498
712.000	430.518	80.004	19.994	103.337	19.701	33.087	0.518
720.000	434.646	80.004	19.994	103.330	19.769	27.793	0.550
728.000	438.653	80.005	19.994	103.301	19.838	22.464	0.513
736.000	442.705	80.005	19.994	103.289	19.892	18.293	0.508
744.000	446.727	80.005	19.993	103.254	19.938	14.749	0.470
752.000	450.780	80.008	19.995	103.250	19.976	11.765	0.508
760.000	454.877	80.007	19.995	103.225	20.004	9.679	0.495
768.000	458.954	80.007	19.995	103.205	20.020	8.431	0.512
776.000	463.019	80.006	19.994	103.220	20.044	6.562	0.489
784.000	467.082	80.007	19.995	103.216	20.053	5.869	0.513
792.000	471.188	80.004	19.995	103.204	20.064	5.027	0.522
800.000	475.274	80.005	19.995	103.197	20.069	4.580	0.521
808.000	479.304	80.006	19.994	103.207	20.071	4.432	0.479
816.001	483.374	80.004	19.994	103.187	20.075	4.172	0.544
824.000	487.469	80.006	19.994	103.202	20.080	3.801	0.524
832.000	491.566	80.006	19.993	103.198	20.084	3.445	0.525
840.000	495.693	80.008	19.994	103.195	20.088	3.187	0.523
848.000	499.785	80.005	19.994	103.180	20.085	3.379	0.535
856.000	503.864	80.005	19.994	103.198	20.086	3.290	0.511
864.000	507.934	80.006	19.994	103.173	20.089	3.046	0.492
872.000	511.966	80.006	19.994	103.206	20.088	3.182	0.500
880.000	516.093	80.002	19.995	103.179	20.085	3.394	0.502
888.000	520.151	80.004	19.995	103.174	20.087	3.200	0.497
896.000	524.188	80.005	19.994	103.178	20.085	3.384	0.514
904.000	528.210	80.005	19.994	103.182	20.080	3.793	0.504
912.000	532.224	80.005	19.996	103.179	20.078	3.940	0.497
920.000	536.311	80.005	19.993	103.182	20.082	3.607	0.514
928.000	540.326	80.004	19.994	103.182	20.081	3.692	0.498
936.000	544.362	80.006	19.995	103.176	20.082	3.599	0.481
944.000	548.391	80.006	19.994	103.188	20.078	3.954	0.496
952.000	552.391	80.007	19.994	103.177	20.082	3.635	0.486
960.000	556.439	80.004	19.994	103.193	20.076	4.041	0.502
968.000	560.418	80.004	19.994	103.191	20.078	3.916	0.524
976.000	564.385	80.004	19.995	103.176	20.066	4.825	0.474
984.000	568.270	80.003	19.994	103.181	20.074	4.203	0.472
992.000	572.192	80.006	19.994	103.201	20.070	4.507	0.474
1000.000	576.248	80.006	19.994	103.199	20.079	3.870	0.492
1008.000	580.234	80.006	19.995	103.185	20.070	4.512	0.490
1016.000	584.300	80.005	19.994	103.190	20.073	4.282	0.507
1024.000	588.393	80.008	19.995	103.212	20.066	4.822	0.506
1032.000	592.502	80.006	19.993	103.181	20.070	4.513	0.512
1040.000	596.624	80.004	19.993	103.207	20.060	5.303	0.535
1048.000	600.732	80.003	19.994	103.184	20.063	5.067	0.498
1056.000	604.776	80.005	19.994	103.200	20.060	5.292	0.495
1064.000	608.778	80.005	19.995	103.188	20.065	4.917	0.506
1072.000	612.780	80.002	19.995	103.200	20.077	4.005	0.528
1080.000	616.730	80.005	19.994	103.197	20.077	3.981	0.464
1088.000	620.649	80.006	19.993	103.185	20.079	3.856	0.496
1096.000	624.657	80.004	19.994	103.179	20.081	3.681	0.482
1104.000	628.610	80.006	19.992	103.174	20.079	3.808	0.478
1112.001	632.835	80.008	19.994	103.179	20.077	3.973	0.544
1120.000	637.208	80.005	19.993	103.182	20.081	3.723	0.552
1128.000	641.572	80.005	19.994	103.170	20.078	3.888	0.545
1136.000	645.876	80.005	19.995	103.176	20.083	3.574	0.548
1144.000	650.205	80.006	19.994	103.175	20.083	3.529	0.539
1152.000	654.580	80.005	19.995	103.174	20.084	3.482	0.566
1160.000	658.866	80.005	19.995	103.177	20.080	3.738	0.525
1168.000	663.069	80.005	19.995	103.180	20.081	3.718	0.478
1176.000	667.144	80.004	19.994	103.174	20.084	3.489	0.536
1184.000	671.199	80.006	19.993	103.165	20.084	3.450	0.517
1192.000	675.354	80.005	19.993	103.174	20.089	3.089	0.563
1200.000	679.366	80.007	19.994	103.148	20.085	3.378	0.536
1208.000	683.390	80.006	19.994	103.171	20.078	3.901	0.476
1216.000	687.331	80.006	19.994	103.155	20.081	3.663	0.476
1224.000	691.249	80.004	19.994	103.151	20.085	3.344	0.501
1232.000	695.128	80.004	19.995	103.168	20.077	4.025	0.463
1240.000	699.056	80.004	19.994	103.145	20.079	3.877	0.480
1248.000	702.990	80.005	19.994	103.149	20.075	4.126	0.509
1256.000	706.931	80.006	19.995	103.159	20.079	3.822	0.473
1264.000	710.898	80.005	19.996	103.171	20.077	3.979	0.513
1272.000	714.944	80.006	19.993	103.166	20.075	4.132	0.508
1280.000	719.114	80.008	19.994	103.156	20.075	4.162	0.519
1288.000	723.241	80.006	19.994	103.168	20.074	4.214	0.538
1296.000	727.391	80.004	19.995	103.173	20.077	4.007	0.507
1304.000	731.597	80.006	19.993	103.151	20.080	3.748	0.540
1312.000	735.738	80.005	19.993	103.153	20.077	3.991	0.504
1320.000	739.945	80.005	19.994	103.173	20.075	4.145	0.521
1326.500	743.358	80.006	19.994	103.172	20.079	3.872	0.557

File: Cotton_Rug_MCC_30K_min_211115_R2.txt
Sample ID:	C:\MCC\MCC Cal\Test\Cotton_Rug_MCC_30K_min_211115_R2.txt
Sample Weight (mg):	4.82
Heating Rate (C/s):	0.5
Combustor Temp (C):	900
N2 Flow Rate (cc/min):	80
O2 Flow Rate (cc/min):	20
Calibration File:	C:\MCC\MCC Cal\Coeff1 JN10440_30_210304.txt.txt
T Correction Coefficients:	0	1.024463	0
Time Shift (s):	14
*
Time (s)	Temperature (C)	N2 flow rate (cc/min)	O2 flow rate (cc/min)	Flow Rate (cc/min)	Oxygen (%)	HRR (W/g)	Heating rate (C/s)
0.000	107.291	80.004	19.996	103.068	20.168	0.323	0.005
8.000	107.303	80.005	19.994	103.041	20.174	-0.106	0.005
16.000	107.285	80.004	19.994	103.033	20.170	0.159	0.003
24.000	107.404	80.003	19.995	103.136	20.161	0.786	0.034
32.000	107.733	80.007	19.994	103.193	20.154	1.205	0.058
40.000	108.302	80.005	19.995	103.233	20.146	1.760	0.095
48.000	109.325	80.001	19.995	103.247	20.141	2.074	0.132
56.001	110.670	80.004	19.994	103.278	20.138	2.320	0.202
64.001	112.412	80.003	19.994	103.274	20.131	2.734	0.241
72.000	114.454	80.003	19.995	103.289	20.133	2.659	0.255
80.000	116.684	80.003	19.994	103.299	20.131	2.778	0.309
88.000	119.187	80.004	19.994	103.294	20.128	2.998	0.318
96.000	121.955	80.004	19.996	103.297	20.129	2.875	0.377
104.000	124.833	80.004	19.994	103.285	20.126	3.068	0.355
112.000	127.822	80.005	19.992	103.328	20.128	2.967	0.373
120.001	131.057	80.005	19.993	103.301	20.130	2.840	0.440
128.000	134.355	80.002	19.994	103.326	20.127	3.018	0.436
136.000	137.835	80.005	19.995	103.292	20.127	3.034	0.448
144.000	141.411	80.004	19.995	103.327	20.126	3.101	0.453
152.000	145.078	80.004	19.995	103.298	20.127	3.034	0.462
160.000	148.851	80.002	19.996	103.335	20.127	3.022	0.477
168.000	152.745	80.005	19.996	103.326	20.129	2.888	0.493
176.000	156.604	80.005	19.993	103.294	20.126	3.084	0.480
184.000	160.506	80.005	19.993	103.302	20.131	2.778	0.502
192.000	164.518	80.005	19.995	103.290	20.130	2.848	0.495
200.000	168.479	80.006	19.994	103.292	20.132	2.683	0.481
208.000	172.437	80.003	19.995	103.287	20.135	2.473	0.496
216.000	176.418	80.006	19.994	103.287	20.134	2.555	0.519
224.000	180.333	80.005	19.994	103.294	20.132	2.670	0.497
232.000	184.195	80.004	19.994	103.293	20.135	2.515	0.450
240.000	188.230	80.002	19.995	103.291	20.132	2.670	0.508
248.000	192.203	80.003	19.995	103.276	20.130	2.810	0.494
256.000	196.240	80.007	19.995	103.284	20.135	2.527	0.524
264.000	200.273	80.005	19.994	103.265	20.133	2.642	0.542
272.000	204.271	80.006	19.995	103.269	20.136	2.452	0.490
280.000	208.297	80.008	19.992	103.261	20.131	2.783	0.485
288.000	212.308	80.006	19.994	103.285	20.131	2.750	0.496
296.000	216.238	80.003	19.994	103.256	20.132	2.673	0.533
304.000	220.193	80.005	19.994	103.254	20.130	2.858	0.507
312.001	224.144	80.004	19.993	103.245	20.133	2.651	0.479
320.000	228.068	80.005	19.995	103.259	20.131	2.744	0.487
328.000	232.023	80.004	19.993	103.243	20.128	2.960	0.479
336.000	235.872	80.005	19.995	103.252	20.124	3.240	0.480
344.001	239.820	80.004	19.996	103.254	20.122	3.379	0.491
352.000	243.730	80.004	19.994	103.280	20.118	3.613	0.483
360.000	247.800	80.006	19.994	103.253	20.114	3.923	0.525
368.000	251.950	80.005	19.994	103.250	20.108	4.283	0.562
376.000	255.919	80.003	19.995	103.251	20.103	4.670	0.503
384.000	259.953	80.005	19.995	103.260	20.094	5.253	0.478
392.000	263.976	80.003	19.993	103.259	20.091	5.434	0.486
400.000	268.015	80.004	19.995	103.252	20.088	5.655	0.510
408.000	272.052	80.005	19.995	103.266	20.077	6.350	0.495
416.000	276.075	80.005	19.995	103.255	20.067	7.017	0.456
424.000	279.956	80.006	19.995	103.267	20.052	8.062	0.465
432.000	283.925	80.002	19.994	103.259	20.037	9.061	0.534
440.000	287.791	80.007	19.994	103.292	20.027	9.742	0.496
448.000	291.732	80.005	19.993	103.288	20.011	10.819	0.501
456.000	295.717	80.004	19.994	103.291	19.989	12.259	0.491
464.000	299.641	80.004	19.994	103.291	19.966	13.803	0.469
472.000	303.581	80.006	19.995	103.306	19.938	15.686	0.500
480.000	307.515	80.005	19.994	103.317	19.910	17.572	0.534
488.000	311.510	80.002	19.994	103.338	19.872	20.083	0.511
496.000	315.651	80.003	19.995	103.367	19.826	23.153	0.509
504.000	319.836	80.006	19.997	103.375	19.763	27.378	0.538
512.000	323.972	80.005	19.996	103.410	19.700	31.660	0.508
520.000	328.143	80.005	19.994	103.448	19.606	37.942	0.498
528.000	332.324	80.005	19.995	103.484	19.490	45.778	0.506
536.000	336.394	80.005	19.995	103.545	19.345	55.494	0.489
544.000	340.458	80.003	19.994	103.614	19.162	67.802	0.534
552.000	344.409	80.003	19.994	103.674	18.933	83.229	0.473
560.000	348.335	80.002	19.994	103.751	18.705	98.484	0.473
568.000	352.147	80.004	19.994	103.744	18.543	109.314	0.504
576.000	356.111	80.004	19.993	103.654	18.531	109.964	0.456
584.000	360.289	80.006	19.992	103.557	18.682	99.786	0.491
592.000	363.977	80.004	19.994	103.478	18.969	80.483	0.488
600.000	367.924	80.007	19.994	103.364	19.280	59.689	0.473
608.000	371.952	80.006	19.994	103.328	19.530	42.979	0.498
616.000	376.080	80.003	19.995	103.325	19.681	32.853	0.527
624.000	380.268	80.002	19.995	103.306	19.758	27.701	0.526
632.000	384.315	80.003	19.995	103.293	19.786	25.868	0.503
640.000	388.413	80.003	19.993	103.300	19.788	25.720	0.524
648.000	392.437	80.003	19.995	103.324	19.781	26.181	0.499
656.000	396.456	80.006	19.995	103.304	19.763	27.371	0.496
664.000	400.450	80.005	19.994	103.329	19.735	29.253	0.500
672.000	404.427	80.005	19.994	103.338	19.703	31.386	0.501
680.000	408.386	80.006	19.994	103.349	19.667	33.835	0.513
688.000	412.432	80.007	19.995	103.365	19.629	36.360	0.481
696.000	416.451	80.004	19.994	103.374	19.604	38.053	0.517
704.000	420.504	80.004	19.993	103.367	19.593	38.786	0.504
712.000	424.580	80.003	19.995	103.385	19.603	38.094	0.514
720.000	428.587	80.003	19.996	103.366	19.635	35.921	0.479
728.000	432.715	80.003	19.995	103.321	19.688	32.409	0.525
736.000	436.947	80.004	19.995	103.334	19.768	27.046	0.552
744.000	441.129	80.005	19.995	103.301	19.837	22.436	0.528
752.000	445.328	80.002	19.995	103.276	19.895	18.541	0.523
760.000	449.573	80.005	19.994	103.270	19.949	14.937	0.517
768.000	453.773	80.007	19.994	103.257	19.992	12.080	0.549
776.000	458.007	80.005	19.994	103.238	20.025	9.863	0.538
784.000	462.176	80.004	19.995	103.208	20.050	8.167	0.528
792.000	466.340	80.003	19.995	103.249	20.073	6.629	0.518
800.000	470.464	80.004	19.995	103.228	20.088	5.667	0.536
808.000	474.559	80.003	19.996	103.214	20.103	4.660	0.509
816.000	478.664	80.003	19.996	103.201	20.110	4.172	0.544
824.000	482.737	80.005	19.994	103.216	20.115	3.860	0.484
832.000	486.856	80.003	19.996	103.210	20.124	3.261	0.511
840.000	490.870	80.003	19.994	103.184	20.124	3.247	0.502
848.000	494.985	80.007	19.994	103.171	20.122	3.334	0.517
856.000	499.031	80.006	19.994	103.205	20.128	2.943	0.527
864.000	503.083	80.005	19.994	103.177	20.133	2.654	0.538
872.000	507.154	80.004	19.995	103.206	20.132	2.706	0.537
880.000	511.221	80.004	19.994	103.187	20.133	2.660	0.477
888.000	515.361	80.005	19.995	103.181	20.134	2.571	0.514
896.000	519.395	80.004	19.995	103.193	20.133	2.638	0.501
904.000	523.550	80.006	19.996	103.172	20.133	2.612	0.516
912.000	527.653	80.005	19.995	103.181	20.129	2.920	0.517
920.000	531.750	80.004	19.994	103.173	20.127	3.013	0.487
928.000	535.861	80.006	19.993	103.173	20.126	3.068	0.556
936.000	539.944	80.005	19.994	103.199	20.131	2.744	0.496
944.000	544.053	80.003	19.994	103.215	20.130	2.809	0.526
952.000	548.194	80.004	19.994	103.192	20.129	2.918	0.520
960.000	552.292	80.003	19.994	103.206	20.125	3.161	0.517
968.000	556.476	80.003	19.995	103.174	20.123	3.298	0.517
976.000	560.603	80.004	19.996	103.186	20.118	3.664	0.494
984.000	564.735	80.005	19.994	103.176	20.117	3.666	0.528
992.000	568.820	80.005	19.995	103.178	20.122	3.394	0.523
1000.000	572.915	80.004	19.995	103.179	20.120	3.522	0.519
1008.000	576.980	80.005	19.994	103.207	20.121	3.457	0.498
1016.000	581.039	80.007	19.995	103.173	20.119	3.561	0.519
1024.000	585.106	80.004	19.995	103.204	20.121	3.403	0.494
1032.000	589.198	80.004	19.994	103.187	20.119	3.534	0.485
1040.001	593.359	80.003	19.994	103.182	20.112	4.019	0.537
1048.000	597.467	80.005	19.994	103.174	20.107	4.364	0.517
1056.000	601.498	80.004	19.994	103.210	20.116	3.787	0.524
1064.001	605.597	80.005	19.996	103.212	20.115	3.812	0.503
1072.000	609.628	80.005	19.995	103.188	20.124	3.227	0.493
1080.000	613.683	80.002	19.996	103.196	20.126	3.112	0.504
1088.000	617.781	80.004	19.996	103.174	20.129	2.881	0.450
1096.000	621.885	80.006	19.995	103.171	20.131	2.737	0.509
1104.000	625.963	80.005	19.994	103.174	20.134	2.588	0.507
1112.000	630.002	80.005	19.995	103.166	20.136	2.459	0.513
1120.001	634.063	80.004	19.995	103.173	20.136	2.457	0.526
1128.000	638.170	80.004	19.995	103.170	20.136	2.408	0.527
1136.001	642.219	80.005	19.993	103.177	20.137	2.349	0.510
1144.000	646.242	80.004	19.993	103.176	20.141	2.088	0.498
1152.001	650.358	80.005	19.994	103.174	20.137	2.391	0.510
1160.000	654.455	80.005	19.994	103.173	20.141	2.089	0.519
1168.001	658.499	80.006	19.994	103.145	20.133	2.628	0.473
1176.001	662.494	80.006	19.994	103.169	20.138	2.305	0.487
1184.001	666.516	80.004	19.995	103.169	20.137	2.362	0.516
1192.000	670.575	80.003	19.995	103.169	20.138	2.325	0.530
1200.000	674.916	80.005	19.994	103.166	20.140	2.190	0.547
1208.000	679.250	80.004	19.994	103.163	20.141	2.124	0.559
1216.001	683.744	80.004	19.995	103.153	20.145	1.830	0.562
1224.000	688.180	80.005	19.995	103.163	20.138	2.278	0.556
1232.000	692.594	80.006	19.994	103.162	20.139	2.219	0.559
1240.001	696.947	80.005	19.993	103.155	20.138	2.314	0.517
1248.000	701.161	80.005	19.994	103.146	20.144	1.896	0.502
1256.001	705.162	80.007	19.993	103.143	20.145	1.855	0.529
1264.001	709.175	80.005	19.994	103.153	20.136	2.415	0.502
1272.001	713.270	80.004	19.995	103.165	20.138	2.326	0.512
1280.000	717.443	80.003	19.995	103.144	20.137	2.391	0.518
1288.000	721.526	80.005	19.996	103.140	20.134	2.542	0.515
1296.000	725.640	80.006	19.994	103.141	20.137	2.347	0.533
1304.000	729.756	80.005	19.994	103.138	20.135	2.484	0.501
1312.000	733.886	80.005	19.993	103.152	20.135	2.512	0.540
1320.001	737.819	80.006	19.994	103.157	20.132	2.683	0.507
1328.000	741.756	80.004	19.994	103.147	20.137	2.382	0.509
1332.000	743.641	80.004	19.993	103.143	20.133	2.599	0.463