Folder: fsri_materials_database/01_Data/LatexPillow_A_Outer_Fabric/STA/N2/10K_min

Note: 01_Data/README.md
# Materials and Products Database
## 01_Data

Raw data generated from each apparatus are included here in plain-text format. The data is organized first by material, next by the short name of test apparatus used, and where applicable additional filtering by test settings.

### material.json

Each material directory contains a json file of the same name as the material. This file links the data stored in the repository as well as data and graphs produced by the accompanying scripts (__02_Scripts__) to the respective landing page for the material on the front-end website.

File: Latex_Pillow_Outer_Fabric_A_STA_N2_10KData_220801_R1.csv
##Temp./Â°C,Time/min,Mass loss(subtr.2)/mg,DSC(subtr.2)/mW,Sensit./(uV/mW)
49.387,10.00917,0.00396, 3.207829e-02,1.07026
52.887,11.37214,0.005242514,      0.29699,1.0693
56.387,11.85126,0.00568637,      0.39254,1.06832
59.887,12.2654,0.00569061,      0.43397,1.06733
63.387,12.6568,0.006238,      0.45001,1.06633
66.887,13.03832,0.005708286,      0.47655,1.06531
70.387,13.4138,0.005710195,      0.49118,1.06428
73.887,13.7852,0.006552255,      0.46895,1.06324
77.387,14.15078,0.007022665,      0.39918,1.06219
80.887,14.512,0.007919111,      0.34357,1.06112
84.387,14.86859,0.00701927,      0.32810,1.06004
87.887,15.22135,0.0083698,      0.31624,1.05894
91.387,15.5707,0.00969837,      0.29742,1.05784
94.887,15.9184,0.008339963,      0.28609,1.05672
98.387,16.2643,0.008343625,      0.28888,1.05559
101.887,16.60816,0.008338966,      0.30335,1.05444
105.387,16.95187,0.00932822,      0.31671,1.05328
108.887,17.29389,0.008881404,      0.33129,1.05211
112.387,17.63597,0.008349985,      0.35611,1.05093
115.887,17.97704,0.008342853,      0.36897,1.04973
119.387,18.318,0.009310686,      0.37532,1.04852
122.887,18.65854,0.009905103,      0.38218,1.04729
126.387,18.99909,0.00857033,      0.40550,1.04606
129.887,19.33801,0.008570939,      0.42402,1.0448
133.387,19.67626,0.009880378,      0.43839,1.04354
136.887,20.01344,0.008569651,      0.44557,1.04226
140.387,20.35088,0.009569736,      0.45226,1.04097
143.887,20.68802,0.00911498,      0.45497,1.03967
147.387,21.02542,0.008245177,      0.46241,1.03835
150.887,21.36129,0.007910001,      0.46671,1.03701
154.387,21.69686,0.00823,      0.46989,1.03567
157.887,22.03205,0.00831441,      0.47044,1.03431
161.387,22.36711,0.00823999,      0.47344,1.03294
164.887,22.70146,0.007144797,      0.47139,1.03155
168.387,23.037,0.00659,      0.46958,1.03015
171.887,23.372,0.0056,      0.47232,1.02873
175.387,23.70682,0.004283058,      0.47324,1.02731
178.887,24.04156,0.00314525,      0.47850,1.02586
182.387,24.3762,0.00195075,      0.47675,1.02441
185.887,24.70955,2.80358e-06,      0.48922,1.02294
189.387,25.04399,0.001037516,      0.49170,1.02145
192.887,25.37695,-0.0022675,      0.49652,1.01995
196.387,25.71045,-0.001969999,      0.49808,1.01844
199.887,26.04393,-0.003845017,      0.49532,1.01691
203.387,26.3767,-0.00428,      0.50461,1.01537
206.887,26.71,-0.0042819,      0.49661,1.01382
210.387,27.0428,-0.005589984,      0.49812,1.01225
213.887,27.37643,-0.00592236,      0.49680,1.01066
217.387,27.70973,-0.00724,      0.49588,1.00907
220.887,28.04242,-0.007580007,      0.52691,1.00745
224.387,28.37554,-0.00856023,      0.52933,1.00583
227.887,28.7084,-0.00856,      0.56153,1.00418
231.387,29.0408,-0.007569989,      0.59556,1.00253
234.887,29.3735,-0.01020827,      0.65844,1.00086
238.387,29.70702,-0.01042831,      0.73795,0.99917
241.887,30.0407,-0.008951854,      0.85818,0.99747
245.387,30.3744,-0.00975765,      1.07847,0.99576
248.887,30.70798,-0.01041235,      1.90981,0.99403
252.387,31.0449,-0.01035078,      4.03102,0.99229
255.887,31.3826,-0.01009953,      4.26079,0.99053
259.387,31.71521,-0.009358732,      1.64550,0.98876
262.887,32.04527,-0.01043,      0.87405,0.98697
266.387,32.3765,-0.01108415,      0.73302,0.98517
269.887,32.7087,-0.00877514,      0.70425,0.98335
273.387,33.04201,-0.00911,      0.68856,0.98152
276.887,33.3748,-0.0107525,      0.68850,0.97967
280.387,33.7087,-0.00977,      0.68106,0.97781
283.887,34.04325,-0.009827542,      0.68361,0.97594
287.387,34.37753,-0.00910851,      0.67513,0.97404
290.887,34.7115,-0.009208143,      0.68855,0.97214
294.387,35.04565,-0.01076,      0.69373,0.97022
297.887,35.38126,-0.01084715,      0.70044,0.96828
301.387,35.71709,-0.01043,      0.69913,0.96633
304.887,36.052,-0.009081808,      0.71531,0.96437
308.387,36.38777,-0.009765948,      0.71175,0.96239
311.887,36.723,-0.01101422,      0.70945,0.96039
315.387,37.05768,-0.009440516,      0.73517,0.95838
318.887,37.39439,-0.01074999,      0.74796,0.95635
322.387,37.7312,-0.01207561,      0.74237,0.95431
325.887,38.06793,-0.01207,      0.74294,0.95226
329.387,38.40461,-0.01206989,      0.74230,0.95019
332.887,38.74103,-0.01141,      0.73288,0.9481
336.387,39.07775,-0.01251793,      0.74211,0.946
339.887,39.4142,-0.01436728,      0.74267,0.94389
343.387,39.7524,-0.01306,      0.75644,0.94176
346.887,40.09044,-0.01341657,      0.75751,0.93961
350.387,40.4281,-0.01404842,      0.78763,0.93745
353.887,40.76594,-0.01537013,      0.79159,0.93528
357.387,41.10365,-0.01822701,      0.81194,0.93309
360.887,41.44169,-0.01942805,      0.82987,0.93088
364.387,41.78,-0.02081953,      0.85701,0.92866
367.887,42.11909,-0.02370853,      0.90012,0.92643
371.387,42.45774,-0.02798232,      0.91254,0.92418
374.887,42.7973,-0.03259848,      0.88933,0.92191
378.387,43.13708,-0.03918707,      0.90260,0.91964
381.887,43.47663,-0.05006475,      0.95470,0.91734
385.387,43.8161,-0.06630689,      0.95623,0.91503
388.887,44.1566,-0.08518632,      0.98840,0.91271
392.387,44.49671,-0.11081,      1.00692,0.91037
395.887,44.8371,-0.14031,      1.07923,0.90802
399.387,45.17797,-0.17816,      1.17548,0.90565
402.887,45.5199,-0.22568,      1.10758,0.90327
406.387,45.86162,-0.28716,      1.27255,0.90087
409.887,46.2041,-0.3642,      1.47219,0.89846
413.387,46.54618,-0.45806,      1.66990,0.89603
416.887,46.88884,-0.57041,      1.86952,0.89359
420.387,47.23168,-0.70566,      2.00437,0.89114
423.887,47.57456,-0.86404,      2.17037,0.88867
427.387,47.9167,-1.05225,      2.52124,0.88618
430.887,48.26013,-1.26942,      2.65578,0.88368
434.387,48.60281,-1.51311,      2.69999,0.88117
437.887,48.94553,-1.78032,      2.69189,0.87865
441.387,49.28952,-2.06449,      2.59044,0.8761
444.887,49.63215,-2.33922,      2.30694,0.87355
448.387,49.97484,-2.58457,      1.85199,0.87098
451.887,50.31668,-2.77405,      1.31399,0.8684
455.387,50.6582,-2.90697,      0.78631,0.8658
458.887,51.00112,-2.99278,      0.39618,0.86319
462.387,51.3435,-3.05287, 8.287695e-02,0.86056
465.887,51.6864,-3.09584,     -0.17178,0.85793
469.387,52.02986,-3.12966,     -0.41765,0.85527
472.887,52.37357,-3.15574,     -0.61402,0.85261
476.387,52.7175,-3.17465,     -0.75546,0.84993
479.887,53.0603,-3.19102,     -0.76749,0.84723
483.387,53.40436,-3.20073,     -0.74473,0.84453
486.887,53.7488,-3.21083,     -0.74503,0.84181
490.387,54.0938,-3.21784,     -0.76904,0.83908
493.887,54.4387,-3.22423,     -0.78988,0.83633
497.387,54.78415,-3.23011,     -0.82510,0.83357
500.887,55.12985,-3.23543,     -0.86416,0.8308
504.387,55.4759,-3.23918,     -0.89216,0.82801
507.887,55.8204,-3.24463,     -0.92907,0.82522
511.387,56.16625,-3.24596,     -0.98555,0.82241
514.887,56.5136,-3.24865,     -1.02771,0.81958
518.387,56.85957,-3.25123,     -1.04733,0.81675
521.887,57.2072,-3.2527,     -1.09644,0.8139
525.387,57.55471,-3.25419,     -1.13213,0.81104
528.887,57.9027,-3.25617,     -1.15374,0.80816
532.387,58.2503,-3.25913,     -1.17193,0.80528
535.887,58.5976,-3.26276,     -1.20246,0.80238
539.387,58.9452,-3.26453,     -1.21943,0.79947
542.887,59.29245,-3.26869,     -1.24095,0.79655
546.387,59.63985,-3.27099,     -1.26338,0.79362
549.887,59.9868,-3.27494,     -1.28742,0.79068
553.387,60.33426,-3.27494,     -1.29324,0.78772
556.887,60.68199,-3.27978,     -1.32471,0.78475
560.387,61.03082,-3.28021,     -1.33359,0.78178
563.887,61.3798,-3.28485,     -1.37063,0.77879
567.387,61.72954,-3.28714,     -1.37508,0.77579
570.887,62.0781,-3.29165,     -1.40608,0.77277
574.387,62.42706,-3.29185,     -1.43759,0.76975
577.887,62.7752,-3.29317,     -1.44734,0.76672
581.387,63.12426,-3.29848,     -1.47578,0.76368
584.887,63.4732,-3.29976,     -1.48679,0.76062
588.387,63.82306,-3.30239,     -1.49738,0.75756
591.887,64.1742,-3.30371,     -1.52438,0.75449
595.387,64.52436,-3.30628,     -1.54485,0.7514
598.887,64.87481,-3.30799,     -1.56137,0.74831
602.387,65.2243,-3.30958,     -1.57038,0.7452
605.887,65.57455,-3.31293,             ,0.74209
609.387,65.9248,-3.31354,             ,0.73897
612.887,66.27532,-3.31721,             ,0.73584
616.387,66.6249,-3.32051,             ,0.73269
619.887,66.97516,-3.3205,             ,0.72954
623.387,67.32536,-3.32457,             ,0.72639
626.887,67.67607,-3.32457,             ,0.72322
630.387,68.02767,-3.3278,             ,0.72004
633.887,68.3789,-3.32951,             ,0.71686
637.387,68.73051,-3.33083,             ,0.71366
640.887,69.08176,-3.33402,             ,0.71046
644.387,69.43242,-3.33313,             ,0.70725
647.887,69.7838,-3.33511,             ,0.70404
651.387,70.13479,-3.33642,             ,0.70081
654.887,70.48571,-3.33838,             ,0.69758
658.387,70.83749,-3.34005,             ,0.69434
661.887,71.18945,-3.3407,             ,0.69109
665.387,71.54044,-3.34069,             ,0.68784
668.887,71.8929,-3.34202,             ,0.68458
672.387,72.2443,-3.34336,             ,0.68131
675.887,72.59613,-3.34399,             ,0.67804
679.387,72.94821,-3.34531,             ,0.67476
682.887,73.3004,-3.34663,             ,0.67147
686.387,73.6528,-3.34794,             ,0.66818
689.887,74.0057,-3.34795,             ,0.66488
693.387,74.35717,-3.34913,             ,0.66158
696.887,74.70934,-3.35026,             ,0.65827
700.387,75.0621,-3.35157,             ,0.65495
703.887,75.41498,-3.35289,             ,0.65163
707.387,75.7675,-3.35289,             ,0.64831
710.887,76.12039,-3.35553,             ,0.64498
714.387,76.47364,-3.35684,             ,0.64164
717.887,76.82722,-3.35552,             ,0.6383
721.387,77.18015,-3.35816,             ,0.63496
724.887,77.53387,-3.35651,             ,0.63161
728.387,77.88707,-3.35914,             ,0.62826
731.887,78.24088,-3.35914,             ,0.62491
735.387,78.5947,-3.36113,             ,0.62155
738.887,78.94879,-3.36215,             ,0.61819
742.387,79.30253,-3.3633,             ,0.61482
745.887,79.6561,-3.36376,             ,0.61145
749.287,79.9987,-3.36508,             ,0.60818

File: Latex_Pillow_Outer_Fabric_A_STA_N2_10KData_220802_R3.csv
##Temp./Â°C,Time/min,Mass loss(subtr.2)/mg,DSC(subtr.2)/mW,Sensit./(uV/mW)
49.433,10.01,0.03283,0.02281154,1.07025
51.833,11.19007,0.03490802,0.33741,1.06959
54.233,11.57,0.03687805,0.48964,1.06892
56.633,11.88326,0.03876647,0.58518,1.06825
59.033,12.16997,0.04128025,0.63889,1.06757
61.433,12.44363,0.03997975,0.67916,1.06689
63.833,12.70854,0.03992211,0.70641,1.0662
66.233,12.96932,0.04117158,0.74027,1.0655
68.633,13.2271,0.0411594,0.76612,1.0648
71.033,13.4831,0.04130537,0.77815,1.06409
73.433,13.7358,0.04380786,0.7812,1.06338
75.833,13.9867,0.04529896,0.73769,1.06265
78.233,14.2359,0.0451102,0.69855,1.06193
80.633,14.48375,0.04644037,0.67805,1.0612
83.033,14.72926,0.04617814,0.67342,1.06046
85.433,14.9723,0.04647861,0.66942,1.05971
87.833,15.21442,0.04652901,0.66856,1.05896
90.233,15.45435,0.04638798,0.67463,1.0582
92.633,15.6949,0.04772412,0.67083,1.05744
95.033,15.933,0.04842278,0.66362,1.05667
97.433,16.1696,0.04776014,0.68726,1.0559
99.833,16.4062,0.04907,0.70269,1.05512
102.233,16.64187,0.04783493,0.71999,1.05433
104.633,16.87622,0.05006049,0.73092,1.05353
107.033,17.111,0.05184488,0.74403,1.05273
109.433,17.34662,0.05051252,0.76885,1.05193
111.833,17.5812,0.04984173,0.78723,1.05112
114.233,17.81554,0.05049677,0.7988,1.0503
116.633,18.05,0.05181982,0.82874,1.04947
119.033,18.2839,0.0518186,0.82682,1.04864
121.433,18.51718,0.05182013,0.83485,1.0478
123.833,18.75025,0.05314036,0.85915,1.04696
126.233,18.98366,0.05346992,0.87881,1.04611
128.633,19.21629,0.05435716,0.9044,1.04525
131.033,19.4485,0.05313994,0.9167,1.04439
133.433,19.68036,0.05456,0.92922,1.04352
135.833,19.9124,0.05389997,0.94122,1.04265
138.233,20.14361,0.05456156,0.95265,1.04177
140.633,20.37588,0.05587868,0.96358,1.04088
143.033,20.60626,0.05456222,0.97374,1.03999
145.433,20.83641,0.05456,0.9909,1.03908
147.833,21.0672,0.05489095,0.99739,1.03818
150.233,21.29735,0.05589249,1.00153,1.03726
152.633,21.52797,0.05589005,1.00459,1.03635
155.033,21.75809,0.05576995,1.01628,1.03542
157.433,21.9889,0.05637485,1.02762,1.03449
159.833,22.21955,0.05775461,1.02217,1.03355
162.233,22.44898,0.05709007,1.03529,1.0326
164.633,22.6795,0.05775058,1.05166,1.03165
167.033,22.9091,0.05648685,1.05381,1.03069
169.433,23.1392,0.05643076,1.06173,1.02973
171.833,23.36874,0.05643,1.06522,1.02876
174.233,23.5981,0.05644162,1.08504,1.02778
176.633,23.82706,0.05741986,1.09702,1.02679
179.033,24.056,0.05677865,1.09653,1.0258
181.433,24.28489,0.05771608,1.10843,1.0248
183.833,24.51347,0.05644,1.11387,1.0238
186.233,24.74174,0.05511963,1.12455,1.02279
188.633,24.97034,0.05709036,1.12964,1.02177
191.033,25.19837,0.05609389,1.13504,1.02075
193.433,25.42665,0.0554059,1.14727,1.01972
195.833,25.6559,0.05411765,1.15039,1.01868
198.233,25.8846,0.05412001,1.15342,1.01764
200.633,26.11307,0.05408789,1.16412,1.01659
203.033,26.3425,0.05281168,1.16864,1.01553
205.433,26.5708,0.05281,1.18452,1.01446
207.833,26.79982,0.05379975,1.19623,1.01339
210.233,27.0284,0.05115998,1.20837,1.01232
212.633,27.25807,0.05248,1.21442,1.01123
215.033,27.48573,0.05116,1.21748,1.01014
217.433,27.71329,0.05121155,1.2155,1.00904
219.833,27.94333,0.04977912,1.2535,1.00794
222.233,28.17197,0.05083952,1.25438,1.00683
224.633,28.39913,0.05044252,1.27543,1.00571
227.033,28.62823,0.04981712,1.28903,1.00459
229.433,28.85603,0.05083053,1.31544,1.00345
231.833,29.08431,0.04820001,1.3583,1.00232
234.233,29.313,0.04820114,1.40532,1.00117
236.633,29.54236,0.04819007,1.43975,1.00002
239.033,29.7712,0.04819007,1.49774,0.99886
241.433,29.99969,0.04689834,1.57038,0.9977
243.833,30.22792,0.04687722,1.70456,0.99652
246.233,30.45727,0.04951909,1.91475,0.99534
248.633,30.68497,0.0482,2.40932,0.99416
251.033,30.916,0.04810269,3.88806,0.99296
253.433,31.14817,0.04820533,4.95331,0.99176
255.833,31.3799,0.0482,4.86196,0.99056
258.233,31.6076,0.04687976,3.25498,0.98934
260.633,31.8346,0.04721114,2.05131,0.98812
263.033,32.06116,0.04819997,1.61762,0.9869
265.433,32.28705,0.04654551,1.49294,0.98566
267.833,32.5137,0.04819932,1.45401,0.98442
270.233,32.74244,0.04984,1.44922,0.98317
272.633,32.97181,0.04988034,1.41913,0.98192
275.033,33.202,0.04885,1.41721,0.98065
277.433,33.43011,0.05017003,1.41072,0.97938
279.833,33.65871,0.04906038,1.40174,0.97811
282.233,33.8857,0.04886075,1.40448,0.97682
284.633,34.1167,0.04984308,1.40514,0.97553
287.033,34.3471,0.04853066,1.40737,0.97424
289.433,34.57586,0.04885982,1.40511,0.97293
291.833,34.80422,0.04886184,1.40689,0.97162
294.233,35.03399,0.04886,1.41163,0.9703
296.633,35.26095,0.04911772,1.41811,0.96898
299.033,35.49388,0.05018021,1.42124,0.96765
301.433,35.7231,0.04984567,1.42487,0.96631
303.833,35.95286,0.04919,1.42778,0.96496
306.233,36.18357,0.05114618,1.43411,0.96361
308.633,36.41397,0.0503751,1.43328,0.96225
311.033,36.64452,0.04918,1.41744,0.96088
313.433,36.87523,0.04918,1.42656,0.9595
315.833,37.1055,0.05015787,1.44573,0.95812
318.233,37.33587,0.05016999,1.45877,0.95673
320.633,37.56673,0.04916608,1.45439,0.95534
323.033,37.79759,0.05016208,1.44831,0.95394
325.433,38.02797,0.04885,1.45606,0.95253
327.833,38.2564,0.04885,1.48369,0.95111
330.233,38.48851,0.04885,1.47721,0.94969
332.633,38.7185,0.04885,1.4663,0.94826
335.033,38.95001,0.04885,1.48749,0.94682
337.433,39.18071,0.04884977,1.48866,0.94537
339.833,39.41173,0.04754125,1.4699,0.94392
342.233,39.64291,0.04754079,1.49442,0.94246
344.633,39.8744,0.04755125,1.48631,0.941
347.033,40.10617,0.04621996,1.48461,0.93952
349.433,40.33671,0.04721,1.54215,0.93804
351.833,40.56803,0.04608181,1.53499,0.93656
354.233,40.80186,0.04852,1.53785,0.93506
356.633,41.03354,0.04818995,1.54702,0.93356
359.033,41.26482,0.04552005,1.55971,0.93205
361.433,41.49585,0.04353222,1.55391,0.93054
363.833,41.72675,0.04227,1.57803,0.92902
366.233,41.96157,0.04029,1.56762,0.92749
368.633,42.19359,0.03898,1.58539,0.92595
371.033,42.4251,0.03825455,1.62147,0.92441
373.433,42.65781,0.03639743,1.6664,0.92286
375.833,42.89158,0.03103402,1.67556,0.9213
378.233,43.12377,0.02646015,1.70442,0.91974
380.633,43.35584,0.01978871,1.74104,0.91817
383.033,43.58789,0.01295322,1.75422,0.91659
385.433,43.8188,0.003957482,1.76071,0.915
387.833,44.05393,-0.007274061,1.78286,0.91341
390.233,44.28868,-0.0199606,1.80248,0.91181
392.633,44.523,-0.03629533,1.81816,0.91021
395.033,44.75591,-0.05368157,1.73205,0.90859
397.433,44.9886,-0.07431064,1.69363,0.90697
399.833,45.22228,-0.09787298,1.66495,0.90535
402.233,45.45531,-0.12536,1.65181,0.90371
404.633,45.68915,-0.15565,1.6676,0.90207
407.033,45.92365,-0.19013,1.72978,0.90043
409.433,46.1578,-0.22809,1.76728,0.89877
411.833,46.39213,-0.27227,1.7886,0.89711
414.233,46.6276,-0.3193,1.81498,0.89544
416.633,46.86244,-0.36938,1.7891,0.89377
419.033,47.09619,-0.42711,1.91471,0.89209
421.433,47.33139,-0.49144,2.06893,0.8904
423.833,47.5662,-0.57082,2.22196,0.88871
426.233,47.80134,-0.66223,2.4591,0.887
428.633,48.03665,-0.77171,2.63734,0.8853
431.033,48.27235,-0.89199,2.74324,0.88358
433.433,48.5088,-1.02774,2.92386,0.88186
435.833,48.74504,-1.18242,3.11749,0.88013
438.233,48.9801,-1.35099,3.18589,0.87839
440.633,49.21673,-1.52914,3.19162,0.87665
443.033,49.45247,-1.71825,3.16793,0.8749
445.433,49.68817,-1.90721,3.07597,0.87315
447.833,49.92259,-2.09235,2.91209,0.87139
450.233,50.15679,-2.27111,2.67574,0.86962
452.633,50.39161,-2.42727,2.36617,0.86784
455.033,50.62643,-2.55147,2.00989,0.86606
457.433,50.86105,-2.6458,1.62704,0.86428
459.833,51.09553,-2.7121,1.32457,0.86248
462.233,51.33057,-2.76022,1.10677,0.86068
464.633,51.56563,-2.80074,0.94958,0.85887
467.033,51.8006,-2.82794,0.81248,0.85706
469.433,52.03613,-2.85144,0.65632,0.85524
471.833,52.27228,-2.87166,0.54245,0.85341
474.233,52.5078,-2.88837,0.44755,0.85158
476.633,52.74423,-2.90166,0.38109,0.84974
479.033,52.9795,-2.9132,0.43873,0.84789
481.433,53.21513,-2.92361,0.44647,0.84604
483.833,53.4512,-2.93126,0.416,0.84418
486.233,53.6873,-2.93965,0.35222,0.84232
488.633,53.92329,-2.94734,0.29789,0.84045
491.033,54.15981,-2.95251,0.25391,0.83857
493.433,54.39677,-2.95778,0.20321,0.83669
495.833,54.6343,-2.96321,0.16589,0.8348
498.233,54.87152,-2.96811,0.12689,0.8329
500.633,55.1098,-2.97106,0.08723414,0.831
503.033,55.3479,-2.97608,0.05064735,0.82909
505.433,55.5856,-2.97951,0.03238901,0.82718
507.833,55.82416,-2.98294,0.0162165,0.82526
510.233,56.0619,-2.98556,-0.005362496,0.82333
512.633,56.3003,-2.98819,-0.03529576,0.8214
515.033,56.53815,-2.99083,-0.04599424,0.81946
517.433,56.7763,-2.99474,-0.06284384,0.81752
519.833,57.0138,-2.99777,-0.08888507,0.81557
522.233,57.25173,-3.00012,-0.10791,0.81362
524.633,57.48965,-3.00136,-0.12518,0.81165
527.033,57.7274,-3.00327,-0.13561,0.80969
529.433,57.9659,-3.00531,-0.15608,0.80772
531.833,58.20482,-3.00795,-0.17594,0.80574
534.233,58.44304,-3.00961,-0.16615,0.80375
536.633,58.6815,-3.01224,-0.18853,0.80176
539.033,58.9197,-3.01224,-0.19085,0.79977
541.433,59.1576,-3.01354,-0.19365,0.79777
543.833,59.39615,-3.01487,-0.2061,0.79576
546.233,59.6342,-3.01719,-0.21274,0.79375
548.633,59.8729,-3.01849,-0.21573,0.79173
551.033,60.11147,-3.0211,-0.2283,0.78971
553.433,60.35005,-3.02014,-0.22863,0.78768
555.833,60.5881,-3.02245,-0.22594,0.78565
558.233,60.8268,-3.02376,-0.2249,0.78361
560.633,61.065,-3.02507,-0.22313,0.78157
563.033,61.30372,-3.02607,-0.22767,0.77952
565.433,61.543,-3.0277,-0.21756,0.77746
567.833,61.7819,-3.02903,-0.23068,0.7754
570.233,62.0202,-3.03035,-0.22505,0.77334
572.633,62.2587,-3.03235,-0.22325,0.77127
575.033,62.49765,-3.03364,-0.22751,0.76919
577.433,62.7372,-3.03566,-0.21291,0.76711
579.833,62.9768,-3.03695,-0.21446,0.76503
582.233,63.21617,-3.03895,-0.22824,0.76294
584.633,63.4563,-3.0396,-0.22281,0.76084
587.033,63.6965,-3.04087,-0.223,0.75875
589.433,63.9369,-3.04326,-0.21641,0.75664
591.833,64.17737,-3.04352,-0.22643,0.75453
594.233,64.41842,-3.04746,-0.2321,0.75242
596.633,64.6592,-3.04879,-0.2323,0.7503
599.033,64.8995,-3.04879,-0.22731,0.74818
600.033,64.9997,-3.04977,-0.20321,0.74729