Folder: fsri_materials_database/01_Data/Polyester_Carpet_High_Pile/MCC (part 2)

File: Polyester_Carpet_High_Pile_MCC_30K_min_211027_R3.txt
Sample ID:	C:\MCC\MCC Cal\Test\Polyester_Carpet_HighPile_MCC_30K_min_211027_R3.txt
Sample Weight (mg):	4.74
Heating Rate (C/s):	0.5
Combustor Temp (C):	900
N2 Flow Rate (cc/min):	80
O2 Flow Rate (cc/min):	20
Calibration File:	C:\MCC\MCC Cal\Coeff1 JN10440_30_210304.txt.txt
T Correction Coefficients:	0	1.024463	0
Time Shift (s):	14
*
Time (s)	Temperature (C)	N2 flow rate (cc/min)	O2 flow rate (cc/min)	Flow Rate (cc/min)	Oxygen (%)	HRR (W/g)	Heating rate (C/s)
0.000	108.184	79.998	19.995	102.997	20.260	-0.335	-0.019
8.000	108.224	79.999	19.994	103.005	20.260	-0.327	-0.027
16.000	108.234	80.000	19.996	103.030	20.258	-0.223	0.024
24.000	108.371	80.000	19.997	103.037	20.251	0.261	0.005
32.001	108.657	79.999	19.996	103.140	20.238	1.100	0.044
39.999	109.463	80.003	19.996	103.206	20.227	1.875	0.134
47.999	110.562	80.001	19.996	103.170	20.224	2.082	0.127
55.999	112.135	79.999	19.996	103.208	20.219	2.450	0.201
63.999	113.974	79.999	19.994	103.207	20.219	2.393	0.239
71.999	116.083	79.999	19.995	103.236	20.215	2.666	0.261
79.999	118.558	79.998	19.995	103.223	20.214	2.797	0.317
87.999	121.236	80.000	19.995	103.235	20.213	2.818	0.361
95.999	124.158	80.001	19.995	103.258	20.215	2.727	0.337
104.000	127.264	80.002	19.995	103.237	20.211	3.001	0.392
111.999	130.551	80.000	19.996	103.234	20.214	2.760	0.401
119.999	133.969	80.003	19.996	103.238	20.215	2.715	0.455
127.999	137.511	80.001	19.995	103.245	20.215	2.714	0.438
136.000	141.121	79.999	19.996	103.234	20.214	2.740	0.487
144.000	144.850	79.998	19.996	103.239	20.217	2.587	0.477
152.000	148.627	79.999	19.994	103.236	20.215	2.721	0.479
160.000	152.470	79.998	19.994	103.237	20.213	2.840	0.470
168.000	156.315	79.999	19.996	103.235	20.216	2.603	0.486
175.999	160.178	80.000	19.995	103.223	20.218	2.491	0.489
183.999	164.030	80.001	19.995	103.206	20.214	2.746	0.512
191.999	167.949	80.000	19.995	103.252	20.216	2.658	0.499
200.000	171.976	79.999	19.994	103.218	20.214	2.738	0.524
207.999	176.017	80.001	19.995	103.273	20.224	2.073	0.483
215.999	180.028	80.001	19.996	103.227	20.222	2.226	0.512
223.999	184.157	79.999	19.996	103.213	20.223	2.123	0.545
231.999	188.212	79.999	19.996	103.197	20.223	2.133	0.484
239.999	192.324	80.000	19.997	103.207	20.222	2.228	0.514
247.999	196.353	80.000	19.996	103.233	20.229	1.769	0.509
255.999	200.325	80.001	19.996	103.196	20.228	1.845	0.501
263.999	204.332	80.001	19.995	103.202	20.224	2.057	0.469
271.999	208.309	80.001	19.995	103.184	20.225	1.991	0.492
279.999	212.217	80.001	19.996	103.198	20.222	2.246	0.489
287.999	216.143	80.003	19.994	103.197	20.221	2.292	0.509
295.999	220.068	80.002	19.995	103.195	20.223	2.152	0.473
303.999	224.056	80.001	19.995	103.193	20.226	1.926	0.487
311.999	228.084	79.999	19.996	103.194	20.227	1.856	0.514
319.999	232.056	79.999	19.997	103.186	20.228	1.803	0.500
327.999	236.261	79.999	19.996	103.203	20.228	1.799	0.538
335.999	240.244	79.997	19.997	103.164	20.228	1.845	0.531
343.999	244.301	80.001	19.995	103.190	20.231	1.623	0.508
351.999	248.301	80.002	19.995	103.186	20.233	1.483	0.491
359.999	252.418	79.999	19.996	103.186	20.233	1.477	0.519
367.999	256.396	80.002	19.996	103.174	20.235	1.356	0.514
375.999	260.356	80.003	19.996	103.179	20.230	1.701	0.504
383.999	264.220	80.001	19.996	103.185	20.229	1.767	0.518
391.999	268.116	80.000	19.996	103.186	20.230	1.649	0.472
399.999	272.083	80.000	19.995	103.156	20.229	1.763	0.496
407.999	276.046	80.001	19.996	103.171	20.228	1.816	0.504
415.999	280.068	80.000	19.996	103.184	20.229	1.738	0.508
424.000	283.986	80.000	19.996	103.172	20.232	1.560	0.481
431.999	287.940	80.001	19.998	103.150	20.234	1.386	0.498
440.000	291.928	80.000	19.995	103.170	20.230	1.686	0.521
448.000	295.903	80.002	19.995	103.179	20.228	1.780	0.500
455.999	299.854	80.003	19.997	103.175	20.227	1.884	0.500
463.999	303.803	80.002	19.993	103.178	20.223	2.139	0.459
471.999	307.780	80.002	19.993	103.157	20.221	2.282	0.515
479.999	311.762	80.000	19.995	103.170	20.222	2.196	0.512
487.999	315.804	79.999	19.995	103.159	20.215	2.663	0.512
495.999	319.780	80.001	19.996	103.179	20.210	3.023	0.518
503.999	323.762	79.998	19.995	103.177	20.199	3.750	0.501
511.999	327.868	80.000	19.996	103.177	20.187	4.576	0.506
520.000	332.003	80.002	19.997	103.192	20.173	5.574	0.524
527.999	336.168	80.003	19.995	103.191	20.156	6.711	0.521
536.000	340.362	80.001	19.995	103.191	20.133	8.281	0.521
544.000	344.546	80.002	19.995	103.190	20.118	9.272	0.543
552.000	348.702	80.000	19.995	103.193	20.100	10.477	0.530
559.999	352.911	80.002	19.996	103.196	20.081	11.825	0.526
568.000	357.059	80.000	19.996	103.192	20.063	13.033	0.515
575.999	361.174	80.002	19.994	103.193	20.048	14.032	0.544
583.999	365.218	79.999	19.997	103.192	20.037	14.815	0.509
591.999	369.312	80.001	19.995	103.193	20.030	15.236	0.533
599.999	373.328	80.000	19.995	103.190	20.022	15.795	0.528
607.999	377.363	80.001	19.994	103.194	20.011	16.546	0.512
615.999	381.400	79.999	19.997	103.196	20.001	17.227	0.533
623.999	385.394	80.002	19.996	103.225	19.988	18.082	0.529
631.999	389.400	80.002	19.996	103.194	19.974	19.093	0.487
640.000	393.418	79.999	19.995	103.193	19.944	21.121	0.496
648.000	397.441	80.000	19.996	103.226	19.915	23.061	0.489
656.000	401.415	79.998	19.996	103.216	19.875	25.817	0.506
663.999	405.413	80.000	19.994	103.242	19.835	28.504	0.487
671.999	409.477	79.999	19.996	103.245	19.782	32.133	0.509
680.001	413.505	80.000	19.994	103.271	19.721	36.248	0.514
687.999	417.507	80.001	19.997	103.269	19.637	41.974	0.522
696.000	421.612	80.000	19.997	103.301	19.548	48.020	0.481
703.999	425.661	80.003	19.994	103.304	19.454	54.444	0.543
711.999	429.683	80.005	19.997	103.316	19.356	61.135	0.522
719.999	433.749	80.000	19.997	103.332	19.274	66.720	0.519
727.999	437.772	79.999	19.997	103.383	19.209	71.112	0.500
735.999	441.817	79.999	19.996	103.351	19.188	72.583	0.481
743.999	445.918	79.999	19.995	103.330	19.227	69.880	0.521
751.999	449.933	79.999	19.995	103.284	19.339	62.215	0.507
760.000	453.971	80.001	19.996	103.244	19.485	52.291	0.522
767.999	458.022	80.001	19.994	103.190	19.628	42.518	0.489
776.000	461.969	80.000	19.996	103.155	19.708	37.127	0.488
783.999	465.931	80.001	19.996	103.133	19.697	37.875	0.507
792.000	469.843	80.002	19.996	103.105	19.643	41.526	0.477
799.999	473.704	80.000	19.996	103.077	19.587	45.266	0.469
808.000	477.564	79.998	19.997	103.063	19.587	45.301	0.464
815.999	481.526	80.000	19.997	103.018	19.736	35.169	0.500
823.999	485.520	79.999	19.995	103.066	19.942	21.215	0.506
831.999	489.688	79.999	19.997	103.082	20.083	11.649	0.491
839.999	494.035	79.999	19.996	103.115	20.164	6.165	0.578
847.999	498.321	80.002	19.995	103.133	20.193	4.162	0.537
855.999	502.740	80.000	19.995	103.120	20.199	3.761	0.580
863.999	507.171	80.001	19.995	103.122	20.199	3.763	0.540
872.000	511.567	80.002	19.996	103.137	20.200	3.723	0.532
879.999	515.897	80.001	19.995	103.134	20.201	3.623	0.538
887.999	520.161	80.001	19.995	103.125	20.209	3.087	0.499
896.000	524.267	80.001	19.996	103.114	20.210	3.017	0.515
903.999	528.202	79.998	19.996	103.118	20.205	3.386	0.499
911.999	532.160	79.999	19.996	103.119	20.210	3.015	0.509
919.999	536.068	80.001	19.996	103.121	20.209	3.104	0.483
927.999	539.970	80.002	19.995	103.115	20.210	3.040	0.473
935.999	543.965	80.001	19.996	103.129	20.211	2.957	0.519
943.999	547.983	80.001	19.995	103.124	20.208	3.203	0.535
951.999	552.047	80.001	19.995	103.126	20.200	3.705	0.510
959.999	556.192	80.002	19.997	103.132	20.200	3.680	0.515
967.999	560.364	80.001	19.996	103.145	20.192	4.241	0.534
975.999	564.596	80.001	19.996	103.151	20.183	4.870	0.535
983.999	568.856	80.001	19.995	103.152	20.166	6.004	0.526
992.000	573.138	79.999	19.996	103.152	20.146	7.356	0.564
1000.000	577.374	79.997	19.997	103.155	20.111	9.779	0.540
1008.000	581.616	79.999	19.996	103.159	20.071	12.496	0.532
1015.999	585.740	80.002	19.996	103.167	20.023	15.710	0.527
1024.000	589.904	80.001	19.996	103.188	19.984	18.357	0.525
1031.999	594.083	80.002	19.998	103.209	19.945	21.039	0.505
1039.999	598.151	80.002	19.995	103.198	19.905	23.762	0.540
1047.999	602.196	80.001	19.995	103.211	19.879	25.544	0.506
1056.000	606.259	80.000	19.995	103.232	19.875	25.814	0.488
1064.000	610.272	80.000	19.995	103.223	19.894	24.527	0.480
1071.999	614.303	80.000	19.996	103.195	19.947	20.915	0.512
1079.999	618.404	80.000	19.995	103.182	20.052	13.790	0.493
1087.999	622.327	79.999	19.997	103.152	20.159	6.518	0.489
1095.999	626.086	80.002	19.996	103.111	20.199	3.759	0.466
1103.999	629.766	80.000	19.995	103.113	20.212	2.909	0.460
1111.999	633.357	80.000	19.995	103.116	20.212	2.887	0.462
1119.999	636.997	80.003	19.996	103.114	20.212	2.884	0.494
1127.999	640.637	80.001	19.995	103.155	20.213	2.843	0.473
1135.999	644.313	79.999	19.995	103.152	20.213	2.823	0.473
1143.999	648.058	80.000	19.995	103.124	20.207	3.270	0.454
1152.000	651.988	80.000	19.995	103.171	20.208	3.202	0.496
1159.999	655.957	80.000	19.998	103.167	20.204	3.432	0.509
1167.999	659.889	79.999	19.996	103.192	20.203	3.514	0.505
1175.999	663.868	80.000	19.996	103.194	20.201	3.654	0.530
1183.999	667.875	80.001	19.997	103.194	20.199	3.793	0.483
1192.000	671.937	80.001	19.996	103.222	20.198	3.835	0.505
1199.999	676.125	80.002	19.995	103.232	20.191	4.351	0.513
1208.000	680.251	80.003	19.995	103.236	20.187	4.630	0.523
1215.999	684.469	80.001	19.997	103.264	20.186	4.670	0.530
1223.999	688.637	80.001	19.995	103.269	20.180	5.107	0.529
1231.999	692.703	80.001	19.994	103.269	20.182	4.971	0.488
1239.999	696.766	80.002	19.995	103.280	20.174	5.465	0.509
1247.999	700.732	79.999	19.996	103.304	20.170	5.748	0.484
1255.999	704.705	80.002	19.996	103.309	20.165	6.078	0.492
1263.999	708.732	80.002	19.996	103.336	20.168	5.883	0.495
1271.999	712.685	80.001	19.996	103.320	20.162	6.336	0.540
1279.999	716.783	80.002	19.996	103.333	20.155	6.772	0.514
1287.999	720.864	80.003	19.996	103.343	20.156	6.731	0.511
1296.000	724.926	80.001	19.996	103.345	20.154	6.855	0.509
1304.000	728.932	79.999	19.995	103.334	20.160	6.425	0.498
1312.001	733.053	79.999	19.995	103.306	20.162	6.329	0.514
1320.000	737.187	80.002	19.995	103.243	20.179	5.127	0.484
1328.000	741.453	80.000	19.995	103.156	20.197	3.907	0.497
1331.500	743.308	80.000	19.995	103.141	20.207	3.267	0.540