Folder: fsri_materials_database/01_Data/Polyester_Carpet_High_Pile/MCC

Note: 01_Data/README.md
# Materials and Products Database
## 01_Data

Raw data generated from each apparatus are included here in plain-text format. The data is organized first by material, next by the short name of test apparatus used, and where applicable additional filtering by test settings.

### material.json

Each material directory contains a json file of the same name as the material. This file links the data stored in the repository as well as data and graphs produced by the accompanying scripts (__02_Scripts__) to the respective landing page for the material on the front-end website.

File: Polyester_Carpet_High_Pile_MCC_30K_min_211027_R1.txt
Sample ID:	C:\MCC\MCC Cal\Test\Polyester_Carpet_HighPile_MCC_30K_min_211027_R1.txt
Sample Weight (mg):	4.74
Heating Rate (C/s):	0.5
Combustor Temp (C):	900
N2 Flow Rate (cc/min):	80
O2 Flow Rate (cc/min):	20
Calibration File:	C:\MCC\MCC Cal\Coeff1 JN10440_30_210304.txt.txt
T Correction Coefficients:	0	1.024463	0
Time Shift (s):	14
*
Time (s)	Temperature (C)	N2 flow rate (cc/min)	O2 flow rate (cc/min)	Flow Rate (cc/min)	Oxygen (%)	HRR (W/g)	Heating rate (C/s)
0.000	107.360	79.998	19.996	102.998	20.134	-0.446	0.011
8.000	107.362	79.999	19.996	102.986	20.128	-0.047	0.017
16.000	107.409	79.997	19.996	103.041	20.120	0.543	0.007
24.000	107.697	79.996	19.997	103.125	20.110	1.212	0.036
32.000	108.459	79.996	19.997	103.197	20.100	1.879	0.124
40.000	109.592	79.996	19.995	103.164	20.099	1.974	0.118
48.000	111.156	79.997	19.996	103.192	20.094	2.298	0.204
56.000	112.971	79.998	19.995	103.187	20.093	2.330	0.233
64.001	115.108	79.999	19.996	103.220	20.094	2.277	0.277
72.000	117.505	79.999	19.995	103.201	20.094	2.306	0.311
80.001	120.121	79.999	19.996	103.238	20.088	2.690	0.368
88.000	122.979	80.001	19.996	103.244	20.090	2.583	0.339
96.000	126.129	79.998	19.996	103.242	20.087	2.754	0.438
104.000	129.421	79.996	19.996	103.270	20.086	2.861	0.411
112.000	132.903	79.997	19.998	103.240	20.084	2.958	0.440
120.000	136.556	79.997	19.998	103.239	20.087	2.750	0.477
128.000	140.283	79.996	19.995	103.259	20.088	2.664	0.480
136.000	144.161	79.999	19.995	103.256	20.086	2.817	0.513
144.000	148.059	79.999	19.995	103.236	20.089	2.651	0.490
152.000	152.038	79.998	19.996	103.238	20.086	2.799	0.475
160.000	156.079	79.997	19.996	103.281	20.089	2.653	0.493
168.000	160.118	80.000	19.996	103.236	20.091	2.457	0.522
176.000	164.196	79.997	19.997	103.218	20.096	2.136	0.525
184.000	168.250	79.995	19.996	103.240	20.108	1.317	0.518
192.000	172.200	79.998	19.996	103.230	20.109	1.260	0.465
200.000	176.197	79.997	19.997	103.207	20.100	1.883	0.498
208.000	180.198	79.998	19.997	103.186	20.090	2.527	0.501
216.000	184.120	80.000	19.995	103.172	20.091	2.489	0.482
224.000	188.081	79.999	19.994	103.198	20.091	2.502	0.476
232.000	192.008	79.999	19.995	103.192	20.092	2.440	0.454
240.000	195.945	79.997	19.996	103.203	20.094	2.303	0.462
248.000	199.910	80.001	19.995	103.196	20.091	2.470	0.513
256.000	203.866	79.999	19.996	103.200	20.096	2.152	0.495
264.000	207.897	79.998	19.996	103.185	20.096	2.148	0.511
272.001	211.970	79.997	19.996	103.195	20.101	1.799	0.503
280.001	215.991	79.997	19.997	103.191	20.098	2.025	0.502
288.000	220.007	79.996	19.995	103.168	20.100	1.905	0.504
296.000	224.003	79.997	19.997	103.195	20.101	1.825	0.507
304.000	227.979	79.997	19.997	103.179	20.104	1.577	0.489
312.001	232.043	79.997	19.996	103.159	20.102	1.740	0.526
320.000	235.944	79.997	19.996	103.161	20.103	1.659	0.505
328.000	239.918	79.999	19.997	103.163	20.105	1.570	0.496
336.000	243.885	79.998	19.995	103.160	20.105	1.542	0.504
344.000	247.859	79.997	19.995	103.169	20.105	1.538	0.471
352.000	251.890	79.997	19.996	103.169	20.108	1.327	0.509
360.000	255.807	79.997	19.996	103.161	20.107	1.401	0.493
368.000	259.788	79.996	19.996	103.161	20.110	1.225	0.466
376.000	263.725	79.996	19.996	103.159	20.110	1.191	0.527
384.000	267.630	79.998	19.996	103.138	20.112	1.094	0.516
392.000	271.546	79.999	19.997	103.149	20.110	1.178	0.539
400.000	275.477	79.999	19.996	103.160	20.113	0.992	0.520
408.000	279.433	80.000	19.996	103.149	20.112	1.032	0.495
416.000	283.398	80.002	19.992	103.160	20.114	0.946	0.503
424.001	287.336	79.997	19.994	103.163	20.110	1.202	0.506
432.000	291.284	79.999	19.994	103.145	20.109	1.282	0.479
440.000	295.249	79.996	19.997	103.156	20.114	0.897	0.491
448.000	299.259	79.994	19.999	103.159	20.108	1.305	0.490
456.000	303.336	79.997	19.997	103.143	20.108	1.340	0.496
464.000	307.327	79.997	19.992	103.159	20.105	1.564	0.514
472.000	311.411	79.998	19.996	103.163	20.102	1.766	0.531
480.000	315.464	79.997	19.994	103.162	20.094	2.313	0.492
488.000	319.529	79.999	19.995	103.143	20.088	2.662	0.513
496.000	323.520	79.997	19.998	103.144	20.084	2.990	0.521
504.000	327.606	79.999	19.994	103.149	20.076	3.539	0.553
512.000	331.621	79.994	19.994	103.161	20.060	4.586	0.508
520.000	335.661	79.996	19.995	103.159	20.043	5.777	0.487
528.000	339.689	80.001	19.992	103.162	20.028	6.781	0.533
536.000	343.620	79.998	19.997	103.165	20.013	7.766	0.516
544.000	347.641	79.996	19.996	103.166	19.993	9.123	0.499
552.000	351.746	79.998	19.994	103.163	19.982	9.888	0.532
560.000	355.771	79.997	19.995	103.164	19.962	11.238	0.511
568.000	359.769	80.002	19.995	103.157	19.951	11.969	0.471
576.000	363.799	80.001	19.993	103.159	19.942	12.586	0.499
584.000	367.832	79.998	19.995	103.158	19.933	13.217	0.489
592.000	371.915	80.001	19.999	103.160	19.926	13.679	0.513
600.000	376.013	79.995	19.998	103.161	19.916	14.347	0.524
608.000	380.059	79.998	19.996	103.162	19.911	14.687	0.548
616.000	384.073	79.999	19.995	103.161	19.904	15.203	0.494
624.000	388.201	79.997	19.996	103.165	19.882	16.713	0.513
632.000	392.114	79.999	19.995	103.175	19.863	17.976	0.565
640.000	396.268	79.997	19.998	103.184	19.839	19.569	0.434
648.000	400.379	79.999	19.996	103.173	19.810	21.557	0.492
656.000	404.355	79.999	19.994	103.190	19.776	23.862	0.510
664.000	408.315	80.000	19.995	103.187	19.722	27.558	0.499
672.000	412.278	79.997	19.997	103.215	19.670	31.118	0.464
680.000	416.260	79.998	19.995	103.206	19.603	35.628	0.472
688.000	420.256	79.997	19.996	103.252	19.526	40.901	0.506
696.000	424.234	79.998	19.996	103.282	19.441	46.665	0.493
704.000	428.235	79.998	19.997	103.274	19.347	53.115	0.486
712.000	432.392	79.999	19.997	103.293	19.266	58.607	0.539
720.000	436.533	79.999	19.995	103.315	19.189	63.849	0.551
728.000	440.651	79.998	19.996	103.317	19.139	67.245	0.519
736.000	444.762	79.998	19.995	103.288	19.140	67.099	0.509
744.001	448.830	79.999	19.996	103.271	19.205	62.703	0.500
752.000	452.856	79.996	19.995	103.208	19.326	54.418	0.494
760.000	456.801	79.997	19.996	103.199	19.470	44.623	0.493
768.000	460.789	79.996	19.997	103.159	19.586	36.728	0.500
776.000	464.715	79.997	19.996	103.104	19.610	35.092	0.521
784.000	468.747	79.998	19.997	103.077	19.571	37.737	0.492
792.000	472.875	79.999	19.995	103.083	19.506	42.182	0.523
800.000	476.993	79.999	19.995	103.048	19.455	45.589	0.521
808.000	481.087	79.998	19.995	103.000	19.501	42.507	0.510
816.001	485.184	79.998	19.995	103.011	19.707	28.541	0.473
824.000	489.362	80.001	19.995	103.056	19.909	14.815	0.507
832.000	493.423	79.997	19.998	103.083	20.034	6.362	0.506
840.001	497.494	79.998	19.996	103.085	20.084	2.933	0.514
848.000	501.541	79.998	19.996	103.083	20.099	1.975	0.535
856.000	505.492	79.997	19.997	103.089	20.105	1.567	0.449
864.000	509.401	79.996	19.996	103.088	20.103	1.641	0.489
872.000	513.310	79.999	19.996	103.103	20.108	1.350	0.498
880.000	517.323	80.000	19.996	103.056	20.109	1.270	0.519
888.000	521.459	79.999	19.996	103.090	20.106	1.452	0.515
896.001	525.662	79.999	19.996	103.119	20.106	1.474	0.505
904.000	529.979	80.000	19.996	103.109	20.111	1.098	0.560
912.000	534.313	79.998	19.997	103.089	20.105	1.510	0.583
920.000	538.653	79.997	19.997	103.105	20.112	1.033	0.532
928.000	542.920	79.998	19.996	103.113	20.112	1.052	0.570
936.000	547.124	79.998	19.996	103.101	20.109	1.249	0.539
944.000	551.307	79.997	19.996	103.110	20.107	1.389	0.493
952.000	555.425	79.996	19.997	103.096	20.105	1.565	0.527
960.000	559.440	79.998	19.995	103.099	20.105	1.546	0.534
968.000	563.463	79.998	19.995	103.103	20.094	2.303	0.510
976.000	567.417	80.000	19.995	103.113	20.081	3.191	0.520
984.001	571.297	80.001	19.995	103.119	20.057	4.789	0.463
992.000	575.301	79.999	19.995	103.107	20.029	6.718	0.495
1000.000	579.287	79.998	19.996	103.125	19.998	8.801	0.470
1008.000	583.353	79.997	19.996	103.127	19.953	11.888	0.520
1016.000	587.500	79.998	19.996	103.141	19.913	14.595	0.532
1024.000	591.571	79.997	19.996	103.174	19.875	17.163	0.515
1032.001	595.717	79.998	19.996	103.160	19.837	19.716	0.541
1040.000	599.819	80.000	19.997	103.171	19.807	21.744	0.519
1048.000	603.906	79.998	19.996	103.177	19.788	23.039	0.511
1056.000	607.976	79.999	19.995	103.176	19.785	23.242	0.514
1064.000	612.007	80.001	19.996	103.187	19.817	21.066	0.507
1072.000	616.196	79.999	19.995	103.171	19.884	16.550	0.499
1080.000	620.312	79.998	19.995	103.200	19.995	9.021	0.516
1088.000	624.366	79.998	19.995	103.144	20.078	3.391	0.494
1096.000	628.373	79.999	19.995	103.090	20.102	1.743	0.478
1104.000	632.530	79.996	19.996	103.091	20.111	1.120	0.521
1112.000	636.802	79.998	19.997	103.109	20.114	0.935	0.521
1120.000	640.927	79.998	19.995	103.108	20.113	0.988	0.486
1128.001	644.956	79.998	19.997	103.113	20.113	0.971	0.473
1136.000	648.965	79.998	19.997	103.154	20.114	0.909	0.537
1144.000	652.947	79.998	19.995	103.128	20.112	1.092	0.502
1152.000	656.912	80.001	19.995	103.126	20.110	1.225	0.482
1160.000	660.887	79.997	19.997	103.121	20.105	1.561	0.476
1168.001	664.934	79.998	19.995	103.150	20.104	1.640	0.502
1176.000	668.997	79.999	19.996	103.156	20.104	1.634	0.494
1184.000	673.042	79.998	19.996	103.191	20.099	1.922	0.496
1192.000	677.062	79.997	19.995	103.188	20.098	2.025	0.501
1200.000	681.121	79.999	19.996	103.198	20.090	2.584	0.508
1208.000	685.252	80.000	19.995	103.215	20.091	2.482	0.524
1216.000	689.503	79.999	19.996	103.236	20.084	2.943	0.533
1224.000	693.744	80.001	19.997	103.242	20.079	3.275	0.504
1232.000	697.982	80.000	19.996	103.235	20.077	3.442	0.521
1240.000	702.199	79.999	19.995	103.266	20.073	3.712	0.526
1248.000	706.375	79.998	19.995	103.276	20.070	3.908	0.504
1256.000	710.548	79.999	19.996	103.294	20.068	4.036	0.550
1264.000	714.564	79.998	19.996	103.307	20.065	4.247	0.483
1272.000	718.628	79.998	19.995	103.298	20.063	4.395	0.492
1280.000	722.573	80.000	19.995	103.294	20.058	4.705	0.486
1288.001	726.504	79.999	19.997	103.284	20.059	4.667	0.498
1296.000	730.347	79.999	19.996	103.278	20.061	4.551	0.484
1304.000	734.152	79.999	19.996	103.236	20.067	4.142	0.490
1312.000	737.972	80.001	19.996	103.190	20.088	2.659	0.477
1320.000	741.977	79.999	19.998	103.117	20.106	1.468	0.512
1322.500	743.239	79.998	19.996	103.119	20.110	1.198	0.462

File: Polyester_Carpet_High_Pile_MCC_30K_min_211027_R2.txt
Sample ID:	C:\MCC\MCC Cal\Test\Polyester_Carpet_HighPile_MCC_30K_min_211027_R2.txt
Sample Weight (mg):	4.74
Heating Rate (C/s):	0.5
Combustor Temp (C):	900
N2 Flow Rate (cc/min):	80
O2 Flow Rate (cc/min):	20
Calibration File:	C:\MCC\MCC Cal\Coeff1 JN10440_30_210304.txt.txt
T Correction Coefficients:	0	1.024463	0
Time Shift (s):	14
*
Time (s)	Temperature (C)	N2 flow rate (cc/min)	O2 flow rate (cc/min)	Flow Rate (cc/min)	Oxygen (%)	HRR (W/g)	Heating rate (C/s)
0.000	107.841	79.999	19.996	102.970	20.216	-0.023	-0.019
8.000	107.798	80.000	19.995	102.988	20.213	0.193	-0.005
16.000	107.844	79.998	19.994	103.049	20.205	0.701	0.015
24.000	108.293	79.998	19.995	103.166	20.186	2.032	0.090
32.000	109.108	79.997	19.996	103.112	20.181	2.326	0.103
40.000	110.237	79.999	19.996	103.192	20.177	2.595	0.178
48.000	111.773	80.000	19.996	103.203	20.176	2.726	0.202
56.000	113.684	79.999	19.995	103.198	20.171	3.022	0.244
64.000	115.925	79.999	19.998	103.216	20.166	3.348	0.313
72.001	118.402	80.001	19.996	103.234	20.169	3.142	0.338
80.000	121.207	79.998	19.995	103.234	20.166	3.350	0.347
88.001	124.208	79.997	19.996	103.239	20.166	3.407	0.370
96.000	127.437	79.998	19.995	103.245	20.170	3.131	0.394
104.002	130.860	79.998	19.997	103.243	20.168	3.236	0.455
112.001	134.402	79.999	19.995	103.255	20.168	3.238	0.448
120.001	138.082	79.998	19.995	103.241	20.165	3.413	0.483
128.000	141.953	79.998	19.996	103.234	20.163	3.568	0.488
136.000	145.891	79.999	19.995	103.245	20.165	3.454	0.522
144.000	149.886	80.000	19.995	103.238	20.169	3.205	0.535
152.000	153.888	80.001	19.996	103.225	20.171	3.031	0.492
160.000	157.883	79.998	19.996	103.206	20.171	3.058	0.448
168.000	161.988	79.999	19.995	103.234	20.175	2.754	0.511
176.000	166.042	79.998	19.995	103.207	20.174	2.830	0.527
184.000	170.088	79.998	19.996	103.210	20.172	2.943	0.504
192.000	174.073	79.998	19.996	103.195	20.175	2.743	0.489
200.000	178.061	79.997	19.996	103.194	20.176	2.716	0.485
208.000	182.029	80.000	19.995	103.245	20.176	2.695	0.497
216.000	185.990	80.000	19.996	103.196	20.178	2.583	0.520
224.000	189.922	79.998	19.995	103.197	20.183	2.225	0.501
232.000	193.838	80.003	19.996	103.189	20.180	2.451	0.483
240.000	197.671	80.002	19.996	103.192	20.183	2.243	0.499
248.000	201.580	79.999	19.996	103.191	20.180	2.443	0.475
256.000	205.407	79.999	19.996	103.189	20.184	2.174	0.450
264.000	209.349	80.000	19.995	103.176	20.180	2.455	0.482
272.000	213.235	80.000	19.996	103.181	20.183	2.196	0.498
280.000	217.104	79.998	19.996	103.164	20.182	2.301	0.493
288.000	221.015	80.000	19.996	103.170	20.187	1.951	0.483
296.000	224.966	80.002	19.994	103.177	20.184	2.155	0.520
304.000	228.938	80.000	19.997	103.175	20.185	2.051	0.490
312.000	232.936	80.000	19.996	103.162	20.187	1.954	0.526
320.000	236.925	80.002	19.996	103.164	20.184	2.172	0.503
328.000	240.911	79.999	19.995	103.156	20.183	2.238	0.482
336.000	244.913	79.999	19.995	103.160	20.188	1.876	0.487
344.000	248.959	79.999	19.996	103.157	20.190	1.757	0.511
352.000	253.010	79.998	19.997	103.151	20.189	1.846	0.504
360.000	256.923	79.997	19.995	103.159	20.186	2.033	0.470
368.000	260.780	79.999	19.996	103.148	20.188	1.878	0.487
376.000	264.578	80.000	19.996	103.149	20.187	1.956	0.466
384.000	268.458	79.999	19.995	103.152	20.188	1.899	0.451
392.000	272.486	80.000	19.995	103.152	20.188	1.890	0.508
400.000	276.392	80.001	19.995	103.144	20.189	1.829	0.478
408.000	280.367	79.999	19.996	103.137	20.185	2.096	0.501
416.000	284.337	79.998	19.996	103.154	20.187	1.920	0.513
424.000	288.355	79.999	19.995	103.160	20.186	2.016	0.503
432.000	292.326	79.999	19.995	103.138	20.183	2.204	0.492
440.000	296.343	79.998	19.996	103.142	20.188	1.855	0.488
448.000	300.348	79.999	19.996	103.128	20.185	2.054	0.531
456.000	304.307	80.000	19.995	103.188	20.176	2.706	0.516
464.000	308.248	80.001	19.995	103.140	20.181	2.382	0.479
472.000	312.230	80.000	19.996	103.157	20.175	2.791	0.506
480.000	316.239	80.000	19.995	103.138	20.165	3.476	0.493
488.000	320.175	80.000	19.995	103.160	20.159	3.849	0.410
496.000	324.276	79.998	19.996	103.152	20.148	4.628	0.525
504.000	328.320	79.998	19.996	103.153	20.135	5.497	0.542
512.000	332.351	79.999	19.996	103.157	20.119	6.582	0.511
520.000	336.484	79.997	19.996	103.157	20.100	7.837	0.493
528.000	340.573	79.997	19.996	103.161	20.080	9.211	0.503
536.000	344.597	79.999	19.997	103.160	20.068	10.014	0.493
544.001	348.661	79.999	19.996	103.168	20.050	11.278	0.503
552.000	352.689	79.998	19.996	103.166	20.034	12.343	0.520
560.000	356.670	80.002	19.996	103.156	20.022	13.150	0.473
568.000	360.671	80.000	19.995	103.163	20.013	13.772	0.543
576.000	364.646	79.999	19.996	103.113	20.003	14.413	0.488
584.000	368.633	79.999	19.995	103.162	19.998	14.810	0.519
592.000	372.644	79.998	19.995	103.155	19.983	15.818	0.498
600.000	376.681	79.998	19.997	103.177	19.974	16.444	0.492
608.000	380.751	79.998	19.996	103.190	19.968	16.797	0.497
616.000	384.820	79.998	19.997	103.164	19.953	17.843	0.513
624.000	388.849	80.000	19.997	103.158	19.937	18.921	0.518
632.000	392.816	79.999	19.996	103.174	19.918	20.208	0.479
640.000	396.920	80.001	19.996	103.183	19.888	22.235	0.528
648.000	400.999	80.002	19.995	103.204	19.863	23.943	0.515
656.000	405.054	79.999	19.996	103.188	19.823	26.662	0.503
664.000	409.018	79.999	19.996	103.232	19.774	29.992	0.506
672.000	413.041	79.999	19.994	103.240	19.723	33.489	0.495
680.000	417.085	80.000	19.996	103.236	19.646	38.698	0.498
688.001	421.263	79.998	19.997	103.242	19.572	43.768	0.526
696.001	425.391	79.999	19.996	103.244	19.489	49.383	0.535
704.000	429.573	80.000	19.994	103.273	19.406	55.022	0.515
712.000	433.713	79.998	19.997	103.291	19.331	60.156	0.527
720.000	437.859	79.999	19.997	103.304	19.272	64.140	0.524
728.001	441.918	80.003	19.995	103.303	19.250	65.646	0.516
736.000	445.938	80.000	19.996	103.258	19.294	62.627	0.499
744.000	449.933	79.999	19.995	103.232	19.393	55.897	0.499
752.000	453.898	79.999	19.995	103.195	19.514	47.668	0.508
760.000	457.810	80.000	19.997	103.154	19.624	40.145	0.491
768.000	461.767	80.000	19.996	103.120	19.666	37.327	0.498
776.000	465.685	79.998	19.996	103.102	19.650	38.359	0.493
784.000	469.639	80.000	19.996	103.076	19.590	42.467	0.498
792.000	473.659	79.999	19.996	103.064	19.527	46.722	0.523
800.000	477.632	80.002	19.995	103.041	19.504	48.267	0.476
808.000	481.680	80.001	19.995	103.002	19.609	41.149	0.520
816.001	485.714	80.000	19.996	103.026	19.825	26.483	0.497
824.000	489.805	80.002	19.996	103.049	20.010	13.950	0.519
832.000	493.896	80.002	19.996	103.088	20.119	6.583	0.502
840.000	498.044	79.999	19.996	103.085	20.157	4.016	0.506
848.000	502.122	80.001	19.996	103.106	20.168	3.268	0.517
856.000	506.183	80.000	19.995	103.113	20.175	2.763	0.499
864.000	510.232	80.001	19.996	103.117	20.174	2.852	0.507
872.000	514.338	80.001	19.996	103.121	20.173	2.915	0.525
880.000	518.436	80.001	19.996	103.111	20.173	2.915	0.521
888.000	522.529	80.003	19.996	103.103	20.177	2.617	0.515
896.000	526.647	80.004	19.995	103.107	20.173	2.899	0.513
904.000	530.798	79.999	19.996	103.112	20.181	2.351	0.526
912.000	535.004	79.999	19.997	103.116	20.181	2.377	0.520
920.000	539.144	79.998	19.995	103.117	20.183	2.233	0.534
928.000	543.184	80.001	19.994	103.087	20.176	2.663	0.500
936.000	547.145	80.000	19.995	103.100	20.177	2.654	0.483
944.000	551.192	80.001	19.995	103.120	20.176	2.703	0.493
952.000	555.475	80.002	19.996	103.115	20.169	3.166	0.536
960.000	559.836	80.000	19.995	103.117	20.166	3.378	0.551
968.000	564.229	80.000	19.995	103.117	20.153	4.257	0.558
976.000	568.597	80.001	19.996	103.122	20.142	5.007	0.537
984.000	572.987	79.999	19.996	103.126	20.118	6.617	0.525
992.000	577.418	79.998	19.996	103.122	20.087	8.751	0.533
1000.000	581.726	79.999	19.997	103.137	20.047	11.439	0.536
1008.000	586.018	79.999	19.996	103.157	20.001	14.596	0.528
1016.000	590.229	80.000	19.995	103.160	19.957	17.576	0.530
1024.000	594.490	79.999	19.995	103.178	19.913	20.584	0.505
1032.000	598.713	80.000	19.994	103.192	19.880	22.803	0.544
1040.000	602.894	79.999	19.996	103.192	19.853	24.643	0.527
1048.000	607.035	80.001	19.996	103.193	19.841	25.467	0.510
1056.001	611.124	80.002	19.995	103.200	19.860	24.152	0.496
1064.000	615.300	80.000	19.997	103.180	19.925	19.742	0.530
1072.000	619.315	80.000	19.996	103.151	20.033	12.367	0.510
1080.000	623.382	80.001	19.995	103.132	20.132	5.674	0.499
1088.000	627.410	79.999	19.997	103.120	20.166	3.382	0.485
1096.000	631.462	80.000	19.997	103.085	20.172	2.935	0.478
1104.000	635.518	80.000	19.996	103.118	20.181	2.373	0.501
1112.000	639.616	80.001	19.995	103.114	20.175	2.773	0.505
1120.000	643.600	80.000	19.995	103.124	20.172	2.938	0.458
1128.000	647.677	80.000	19.994	103.192	20.175	2.796	0.538
1136.000	651.661	80.003	19.995	103.137	20.173	2.891	0.493
1144.000	655.683	80.001	19.996	103.125	20.172	2.997	0.530
1152.000	659.690	79.998	19.995	103.155	20.171	3.052	0.492
1160.000	663.661	80.000	19.996	103.153	20.169	3.171	0.502
1168.000	667.607	79.999	19.996	103.156	20.163	3.590	0.516
1176.000	671.594	79.999	19.996	103.228	20.162	3.628	0.512
1184.000	675.486	79.998	19.996	103.195	20.157	3.968	0.517
1192.001	679.338	80.000	19.996	103.197	20.160	3.766	0.521
1200.001	683.236	80.000	19.995	103.207	20.149	4.524	0.529
1208.000	687.041	80.000	19.996	103.229	20.150	4.447	0.475
1216.000	690.944	80.003	19.995	103.253	20.149	4.519	0.508
1224.000	694.896	80.002	19.995	103.247	20.145	4.814	0.484
1232.001	698.820	80.000	19.996	103.272	20.144	4.897	0.481
1240.000	702.806	80.000	19.996	103.277	20.139	5.224	0.496
1248.001	706.771	80.001	19.996	103.278	20.130	5.836	0.479
1256.000	710.654	79.999	19.997	103.293	20.127	6.045	0.473
1264.000	714.824	80.000	19.996	103.345	20.125	6.199	0.540
1272.000	719.230	80.000	19.997	103.319	20.123	6.330	0.552
1280.000	723.747	80.002	19.996	103.325	20.124	6.237	0.592
1288.000	728.228	80.001	19.997	103.313	20.118	6.629	0.558
1296.000	732.744	80.004	19.995	103.290	20.124	6.249	0.545
1304.000	737.169	80.002	19.996	103.218	20.134	5.544	0.523
1312.000	741.670	80.001	19.996	103.180	20.155	4.136	0.579
1314.500	743.069	80.000	19.995	103.156	20.160	3.747	0.603