Folder: fsri_materials_database/01_Data/Polyester_Microfiber_Sheet/Cone

Note: 01_Data/README.md
# Materials and Products Database
## 01_Data

Raw data generated from each apparatus are included here in plain-text format. The data is organized first by material, next by the short name of test apparatus used, and where applicable additional filtering by test settings.

### material.json

Each material directory contains a json file of the same name as the material. This file links the data stored in the repository as well as data and graphs produced by the accompanying scripts (__02_Scripts__) to the respective landing page for the material on the front-end website.

File: Polyester_Microfiber_Sheet_Cone_HF25Scalar_220512_R1.csv
LABORATORY,FSRI
TEST IDENT,MicrofiberSheet_25_1
OPERATOR,Dow
MATERIAL,Microfiber Sheet
ORIENTATION,Horizontal
HEAT FLUX,25
SURF AREA,0.00884
C FACTOR,0.0412455
SPEC HOLDER DIFF,-566
SPECIMEN MASS,4.81
SCAN TIME,0.25
O2 DELAY TIME,11
CO DELAY TIME,11
CO2 DELAY TIME,8
FLOW FACTOR,1
SCAN COUNT,4196
TIME TO IGN,857.5
END OF TEST SCAN,3716
END OF TEST TIME,929
TEST STATUS,1
PRE TEST CMT,Dimensions: 100 x 102 x 1 mm; with frame and grid; with calcium silicate substrate; sample includes 5 layers of sheet
POST TEST CMT,Intermittent flashes of flames prior to ignition. The exposed area of the sample shrank upon heating due to shriveling and melting. See post-test pictures.

File: Polyester_Microfiber_Sheet_Cone_HF25Scalar_220512_R2.csv
LABORATORY,FSRI
TEST IDENT,MicrofiberSheet_25_2
OPERATOR,Dow
MATERIAL,Microfiber Sheet
ORIENTATION,Horizontal
HEAT FLUX,25
SURF AREA,0.00884
C FACTOR,0.0412455
SPEC HOLDER DIFF,-566
SPECIMEN MASS,4.84
SCAN TIME,0.25
O2 DELAY TIME,11
CO DELAY TIME,11
CO2 DELAY TIME,8
FLOW FACTOR,1
SCAN COUNT,2340
TIME TO IGN,400.25
END OF TEST SCAN,1860
END OF TEST TIME,465
TEST STATUS,1
PRE TEST CMT,Dimensions: 103 x 102 x 1 mm; with frame and grid; with calcium silicate substrate; sample includes 5 layers of sheet
POST TEST CMT,Intermittent flashes of flames prior to ignition. .

File: Polyester_Microfiber_Sheet_Cone_HF25Scalar_220512_R3.csv
LABORATORY,FSRI
TEST IDENT,MicrofiberSheet_25_3
OPERATOR,Dow
MATERIAL,Microfiber Sheet
ORIENTATION,Horizontal
HEAT FLUX,25
SURF AREA,0.00884
C FACTOR,0.0412455
SPEC HOLDER DIFF,-566
SPECIMEN MASS,4.81
SCAN TIME,0.25
O2 DELAY TIME,11
CO DELAY TIME,11
CO2 DELAY TIME,8
FLOW FACTOR,1
SCAN COUNT,2158
TIME TO IGN,356.25
END OF TEST SCAN,1678
END OF TEST TIME,419.5
TEST STATUS,1
PRE TEST CMT,Dimensions: 102 x 102 x 1 mm; with frame and grid; with calcium silicate substrate; sample includes 5 layers of sheet
POST TEST CMT,Intermittent flashes of flames prior to ignition.

File: Polyester_Microfiber_Sheet_Cone_HF25Scan_220512_R1.csv
Names,Time,Stack TC,Smoke TC,Exh Press,Smoke Comp,Smoke Meas,CO Meter,CO2 Meter,O2 Meter,Sample Mass,Ext Coeff,Start Test,Flame Verif
Chan Gain,,500,500,1,1,1,1,1,1,1,1,1.0,1.0
Offset,,0,0,0.138628,0,0,0,0,0,0,0,0.0,0.0
Gain,,1,1,25.011,13.1256,14.6231,1,1,1,1.001,0.958019,1.0,1.0
Units,sec,C,C,Pa,%,%,%,%,%,g,/m,,
Baseline,,23.1764,23.8138,141.059,98.8563,100.412,0.000221846,0.046335,20.9998,-444.529,-0.13116,,
45,11,21.5986,21.389,140.521,99.1893,100.922,0.000256265,0.0475849,21.0019,614.766,-0.145575,0.0,0.0
90,22.25,21.4693,22.1677,141.993,99.1452,100.785,0.000249323,0.0467453,21.002,614.766,-0.13782,0.0,0.0
135,33.5,21.3822,21.5067,142.315,99.1568,100.663,0.000345147,0.0454909,21.0023,614.726,-0.12667,0.0,0.0
180,44.75,21.6959,22.2166,140.016,99.1748,100.686,0.000314612,0.0452185,21.0009,614.716,-0.127043,0.0,0.0
225,56,21.9582,22.3605,142.942,99.148,100.949,4.04683e-05,0.0458616,21.0023,614.706,-0.151301,0.0,0.0
270,67.25,21.8514,22.5389,139.403,99.1171,100.877,0.00037592,0.0451525,21.0024,614.696,-0.147932,0.0,0.0
315,78.5,21.8502,22.7093,143.025,99.0751,100.892,0.000304851,0.0461725,21.0015,614.716,-0.152689,0.0,0.0
360,89.75,22.3457,22.6007,139.402,99.1236,100.672,0.00023582,0.0469745,21.0009,614.716,-0.130271,0.0,0.0
405,101,22.627,23.0032,143.403,99.1784,100.907,-1.58744e-05,0.0472559,20.9995,614.736,-0.145228,0.0,0.0
450,112.25,22.5823,22.8858,144.173,99.2826,100.84,0.000143171,0.0459904,21.0019,614.676,-0.130795,0.0,0.0
495,123.5,22.0443,23.2629,141.302,99.4104,100.449,0.000143247,0.0460941,21.0015,614.686,-0.0873447,0.0,0.0
540,134.75,22.3278,23.0987,142.542,99.549,101.54,0.000307043,0.0462634,21.0031,614.686,-0.166427,0.0,0.0
585,146,21.9481,23.3154,138.145,99.7048,101.474,9.92226e-05,0.0472506,21.0012,614.676,-0.147779,0.0,0.0
630,157.25,22.7222,23.2835,137.573,99.8053,101.407,0.000309342,0.0485087,21.0003,614.636,-0.133801,0.0,0.0
675,168.5,22.5596,23.3531,144.452,99.9039,101.296,0.000419699,0.0485819,20.9996,614.676,-0.116258,0.0,0.0
720,179.75,23.1628,23.777,143.425,99.9451,101.472,0.00050109,0.0478015,20.9974,614.646,-0.127399,0.0,0.0
765,191,23.2914,23.6721,138.6,99.9711,101.502,0.000697112,0.0458312,21.0029,614.636,-0.127686,0.0,0.0
810,202.25,22.9611,23.7892,140.406,100.032,101.439,0.000115173,0.0457753,21.0029,614.606,-0.117395,0.0,0.0
855,213.5,22.9059,23.9645,143.161,100.076,101.61,0.000326857,0.0455495,21.0052,614.576,-0.127842,0.0,0.0
900,224.75,23.2327,23.862,141.402,100.145,101.969,0.000246368,0.0461963,21.0023,614.546,-0.151647,0.0,0.0
945,236,23.1547,23.775,142.25,100.187,101.942,0.000401058,0.0462902,21.0019,614.536,-0.145875,0.0,0.0
990,247.25,22.6738,24.1677,142.366,100.237,101.878,0.00044159,0.0460716,21.0018,614.536,-0.13648,0.0,0.0
1035,258.5,23.3076,23.2849,142.369,100.284,102.22,0.000516253,0.0465573,21.002,614.526,-0.160672,0.0,0.0
1080,269.75,23.5272,23.8213,141.134,100.265,102.235,0.000309701,0.0467362,21.0024,614.516,-0.163527,0.0,0.0
1125,281,22.9188,23.6605,139.845,100.285,101.99,0.000344533,0.0460586,21.0027,614.486,-0.141723,0.0,0.0
1170,292.25,23.7952,24.1788,139.172,100.279,101.529,0.000230277,0.0460207,21.0034,614.466,-0.104119,0.0,0.0
1215,303.5,22.9821,23.7358,141.329,100.278,101.462,0.000398936,0.0460906,21.0019,614.436,-0.098641,0.0,0.0
1260,314.75,23.3392,23.8411,140.82,100.291,102.071,0.000501187,0.0476796,21.0001,614.446,-0.147872,0.0,0.0
1305,326,23.2116,23.4724,139.4,100.278,102.118,0.000458068,0.0465112,21.0029,614.426,-0.152767,0.0,0.0
1350,337.25,23.213,23.7831,141.53,100.247,102.244,0.000663898,0.051692,20.9948,614.426,-0.165738,0.0,0.0
1395,348.5,23.0709,24.0382,143.013,100.19,101.961,0.000449681,0.0466726,21.0011,614.386,-0.147221,0.0,0.0
1440,359.75,22.7824,24.1228,139.746,100.104,101.571,0.000509487,0.0461846,20.9999,614.376,-0.122276,0.0,0.0
1485,371,23.0952,23.914,137.939,100.003,101.752,0.00028337,0.0459545,20.9998,614.376,-0.145695,0.0,0.0
1530,382.25,23.3858,23.6981,140.922,99.8618,101.455,6.16977e-05,0.0456855,21.0009,614.356,-0.133003,0.0,0.0
1575,393.5,23.3726,24.5594,137.194,99.7532,101.411,0.000359614,0.0464168,21.0001,614.326,-0.138519,0.0,0.0
1620,404.75,23.562,24.3169,142.126,99.5886,100.856,0.000614063,0.0458964,20.9998,614.295,-0.106233,0.0,0.0
1665,416,23.3881,23.7808,138.971,99.4228,100.986,0.000459215,0.0452112,21.001,614.255,-0.131089,0.0,0.0
1710,427.25,23.1008,24.0908,141.065,99.2225,100.694,0.000223717,0.0456161,21.0019,614.255,-0.123712,0.0,0.0
1755,438.5,23.6706,24.2965,141.907,99.0563,100.425,0.00034933,0.0452734,21.0036,614.225,-0.115352,0.0,0.0
1800,449.75,23.6519,24.5567,140.767,98.858,100.258,0.000329527,0.0454191,21.0027,614.225,-0.118213,0.0,0.0
1845,461,23.1533,24.5495,139.795,98.7206,100.217,0.00039247,0.0453726,21.0029,614.195,-0.126421,0.0,0.0
1890,472.25,23.9977,24.4796,139.132,98.6629,99.7019,0.000232631,0.0456709,21.0041,614.165,-0.0880361,0.0,0.0
1935,483.5,23.9184,24.223,140.045,98.6449,99.7363,0.000330074,0.0455011,21.0043,614.155,-0.0924678,0.0,0.0
1980,494.75,23.6629,24.3223,140.621,98.6164,100.253,0.000106731,0.0450878,21.003,614.155,-0.138284,0.0,0.0
2025,506,23.7729,23.8911,141.116,98.6449,99.4614,3.49629e-05,0.0466293,21.0012,614.105,-0.0692735,0.0,0.0
2070,517.25,23.7033,24.6444,136.943,98.6585,100.093,0.000502076,0.0460659,21.0023,614.085,-0.121298,0.0,0.0
2115,528.5,23.8371,24.8523,138.298,98.6573,99.6921,0.000110951,0.0455955,21.0032,614.045,-0.0876863,0.0,0.0
2160,539.75,23.8039,24.3616,138.652,98.6513,99.826,0.000245698,0.0454899,21.0035,614.055,-0.0994763,0.0,0.0
2205,551,23.7434,24.3193,140.592,98.6052,99.5908,0.000393696,0.0450481,21.0026,614.065,-0.0835804,0.0,0.0
2250,562.25,24.0284,24.3012,139.835,98.574,99.8858,0.000458255,0.045147,21.0062,614.035,-0.111097,0.0,0.0
2295,573.5,23.5551,24.519,134.222,98.5203,98.8897,-2.03975e-05,0.0452491,21.006,613.975,-0.0314526,0.0,0.0
2340,584.75,23.7603,24.3847,142.123,98.5035,99.6926,0.000572147,0.0478262,21.0049,613.955,-0.100836,0.0,0.0
2385,596,23.3277,24.463,142.002,98.4622,99.506,0.000630885,0.0451783,21.0059,613.935,-0.0886182,0.0,0.0
2430,607.25,23.9918,24.407,142.602,98.4234,99.3726,0.000276341,0.0455786,21.0034,613.915,-0.0806588,0.0,0.0
2475,618.5,23.8194,24.7998,143.329,98.4254,99.7765,0.000536017,0.0454523,21.0033,613.905,-0.114573,0.0,0.0
2520,629.75,23.9998,24.6696,141.036,98.4082,98.813,0.000390878,0.0460946,21.0042,613.825,-0.0345,0.0,0.0
2565,641,23.7217,24.5764,138.988,98.4174,99.0004,0.000683117,0.0457703,21.0041,613.815,-0.0496376,0.0,0.0
2610,652.25,23.9645,24.6433,141.687,98.4062,98.7996,0.000351729,0.0459467,21.0041,613.795,-0.0335318,0.0,0.0
2655,663.5,23.8635,24.7939,137.733,98.4042,99.0258,0.000438605,0.0462364,21.0055,613.795,-0.0529254,0.0,0.0
2700,674.75,23.8562,25.0956,144.93,98.4198,98.5724,0.000341559,0.0468563,21.0028,613.715,-0.0130259,0.0,0.0
2745,686,24.0245,24.726,142.856,98.4214,99.4266,0.000884612,0.0461919,21.0023,613.675,-0.0853948,0.0,0.0
2790,697.25,24.2511,24.748,139.327,98.4122,98.9156,0.000752536,0.0467085,21.0003,613.675,-0.0428824,0.0,0.0
2835,708.5,23.8529,24.7439,137.75,98.443,99.4627,0.000553132,0.0487701,20.9987,613.665,-0.0866022,0.0,0.0
2880,719.75,23.8895,24.8425,135.84,98.4454,98.9098,0.000931621,0.0471673,21.0032,613.615,-0.0395507,0.0,0.0
2925,731,23.8313,24.4784,139.209,98.4811,99.0709,0.000543647,0.0477794,21.0031,613.585,-0.0501843,0.0,0.0
2970,742.25,24.0405,24.9526,140.611,98.4987,99.1263,0.000472285,0.0488491,21.0009,613.565,-0.053373,0.0,0.0
3015,753.5,24.3453,24.9573,142.446,98.5339,99.0816,0.000663183,0.0547444,20.9922,613.495,-0.0465822,0.0,0.0
3060,764.75,24.0883,24.8549,135.423,98.5744,98.7148,0.000924831,0.0534653,20.9947,613.495,-0.0119619,0.0,0.0
3105,776,24.0089,24.9119,137.809,98.5928,99.2976,0.000427822,0.0505219,20.997,613.455,-0.0598612,0.0,0.0
3150,787.25,23.7407,24.8756,137.686,98.6998,98.7385,0.000350451,0.0524058,20.9945,613.405,-0.00329355,0.0,0.0
3195,798.5,23.421,24.7032,136.74,98.8007,98.5854,0.000635209,0.0469243,21.0044,613.375,0.0183339,0.0,0.0
3240,809.75,24.5769,24.4572,141.396,98.8828,99.016,0.00102068,0.0463563,21.0052,613.344,-0.0113139,0.0,0.0
3285,821,24.0854,24.5763,140.632,98.8788,98.8643,0.000711266,0.0479619,21.0015,613.315,0.00123312,0.0,0.0
3330,832.25,24.5794,24.9717,141.158,98.8023,99.0772,0.000809341,0.0496757,20.997,613.254,-0.0233462,0.0,0.0
3375,843.5,24.4898,25.285,141.721,98.7322,99.4654,0.000530814,0.0480212,21.0014,613.234,-0.0621765,0.0,0.0
3420,854.75,24.0144,25.1493,143.171,98.6541,98.3471,0.000864906,0.0477596,21.0007,613.184,0.0261942,0.0,0.0
3465,866,23.3986,23.98,130.878,98.574,90.2532,0.00313664,0.154254,20.8756,612.834,0.741103,0.0,0.0
3510,877.25,27.8919,27.7441,125.597,98.5047,82.5481,0.00828302,0.363047,20.6354,611.883,1.48512,0.0,0.0
3555,888.5,31.055,30.9422,134.054,98.4526,95.6012,0.00462897,0.275803,20.7478,611.172,0.246981,0.0,0.0
3600,899.75,30.3076,31.4897,137.755,98.4162,100.31,0.0027859,0.157354,20.8753,610.932,-0.160155,0.0,0.0
3645,911,29.5816,30.3478,137.015,98.3965,100.179,0.00169041,0.089848,20.956,610.792,-0.150832,0.0,0.0
3690,922.25,27.7495,29.5806,137.162,98.4017,99.706,0.00097244,0.062458,20.9851,610.762,-0.11065,0.0,0.0
3735,933.5,25.6154,26.7883,139.311,98.409,100.361,0.000580281,0.0529301,20.9937,610.712,-0.165032,0.0,0.0
3780,944.75,24.696,26.0632,139.257,98.4009,99.98,0.000788466,0.0491789,20.9986,610.722,-0.133781,0.0,0.0
3825,956,24.2895,25.9411,140.045,98.4014,99.5877,0.000450346,0.0475648,21.0005,610.702,-0.10071,0.0,0.0
3870,967.25,23.4161,25.3169,137.783,98.4022,100.015,0.000489332,0.0467401,21.0022,610.712,-0.136603,0.0,0.0
3915,978.5,23.3398,24.7298,137.675,98.4082,100.249,0.000798994,0.0472613,20.9993,610.662,-0.155715,0.0,0.0
3960,989.75,23.1841,24.4594,141.976,98.4058,99.4141,0.000697107,0.049398,20.9964,610.622,-0.0856731,0.0,0.0
4005,1001,22.4795,23.7435,136.191,98.3941,99.481,0.000803193,0.0476073,20.999,610.642,-0.0923214,0.0,0.0
4050,1012.25,22.5246,23.4633,136.669,98.4074,99.768,0.00105022,0.0469393,21.0005,610.582,-0.115397,0.0,0.0
4095,1023.5,22.532,23.8958,141.36,98.4106,99.7207,0.000144699,0.047022,21,610.602,-0.111138,0.0,0.0
4140,1034.75,22.5113,23.1549,138.904,98.4422,100.202,0.00042068,0.0469654,21,610.572,-0.14888,0.0,0.0
4185,1046,22.1296,23.1897,139.707,98.4807,99.8086,,,,610.572,-0.11256,0.0,0.0
4196,1048.75,22.4889,23.4003,138.429,98.4867,99.8099,,,,610.572,-0.112159,0.0,0.0

File: Polyester_Microfiber_Sheet_Cone_HF25Scan_220512_R2.csv
Names,Time,Stack TC,Smoke TC,Exh Press,Smoke Comp,Smoke Meas,CO Meter,CO2 Meter,O2 Meter,Sample Mass,Ext Coeff,Start Test,Flame Verif
Chan Gain,,500,500,1,1,1,1,1,1,1,1,1.0,1.0
Offset,,0,0,0.138628,0,0,0,0,0,0,0,0.0,0.0
Gain,,1,1,25.011,13.1256,14.6231,1,1,1,1.001,0.958019,1.0,1.0
Units,sec,C,C,Pa,%,%,%,%,%,g,/m,,
Baseline,,24.0993,24.8206,140.499,99.379,101.599,0.000571712,0.0448616,20.999,-444.368,-0.185596,,
25,6,20.8294,22.1525,140.195,99.0919,101.461,0.000577889,0.047605,20.9995,620.612,-0.198522,0.0,0.0
50,12.25,20.8751,21.978,137.572,99.0855,101.425,0.000771898,0.0464742,20.9996,620.652,-0.196108,0.0,0.0
75,18.5,21.4842,22.1205,147.915,99.0751,100.926,0.000430498,0.0455241,21,620.662,-0.155587,0.0,0.0
100,24.75,21.4418,22.1131,139.174,99.0595,101.061,0.000440456,0.0455961,21.0001,620.632,-0.16809,0.0,0.0
125,31,21.5095,22.3052,140.347,99.0827,100.593,0.000808267,0.0463437,20.9984,620.652,-0.127102,0.0,0.0
150,37.25,21.8065,21.9173,139.613,99.1384,101.287,0.000411392,0.0456335,21.0004,620.602,-0.180191,0.0,0.0
175,43.5,21.4214,22.2552,142.192,99.1604,100.953,0.000524145,0.0448743,21.0002,620.552,-0.150546,0.0,0.0
200,49.75,21.6087,22.7747,139.898,99.2069,100.867,0.000535025,0.04484,21.0002,620.602,-0.139474,0.0,0.0
225,56,21.6191,22.0428,139.098,99.2273,100.957,0.000408815,0.0464802,20.9984,620.572,-0.145214,0.0,0.0
250,62.25,21.8391,22.1549,140.757,99.2449,101.208,0.00047335,0.0474305,20.9987,620.562,-0.164609,0.0,0.0
275,68.5,21.7609,22.7144,140.029,99.263,101.295,0.00065163,0.0474988,20.9983,620.622,-0.170268,0.0,0.0
300,74.75,21.7225,22.5712,139.018,99.2565,101.641,0.000391062,0.0460757,21,620.592,-0.199491,0.0,0.0
325,81,21.6723,22.5605,144.021,99.2325,101.491,0.000492028,0.0447977,21.0024,620.612,-0.189157,0.0,0.0
350,87.25,21.9691,22.6083,139.032,99.2141,101.692,0.000445258,0.0444262,21.0024,620.602,-0.207329,0.0,0.0
375,93.5,22.1848,23.3003,142.628,99.1704,101.31,0.00048445,0.0455105,21.0023,620.612,-0.179401,0.0,0.0
400,99.75,22.2051,22.923,142.377,99.1348,101.522,0.000199624,0.0458155,21.0009,620.612,-0.19995,0.0,0.0
425,106,22.5928,22.9312,135.93,99.1436,101.109,0.000279509,0.044386,21.0022,620.562,-0.164964,0.0,0.0
450,112.25,22.2862,23.1633,140.062,99.1596,100.888,0.00041183,0.0437301,21.0032,620.582,-0.145226,0.0,0.0
475,118.5,22.2722,23.4497,139.263,99.2201,100.796,0.000503695,0.0451151,21.0026,620.572,-0.132441,0.0,0.0
500,124.75,22.4522,23.2625,141.709,99.3158,101.267,0.000704515,0.0445456,21.0033,620.552,-0.163497,0.0,0.0
525,131,22.6594,23.0585,141.223,99.3491,101.669,0.000403457,0.0439419,21.0037,620.552,-0.193948,0.0,0.0
550,137.25,22.31,22.8564,139.622,99.3995,101.536,0.000382111,0.0438015,21.0007,620.522,-0.17868,0.0,0.0
575,143.5,22.599,22.951,141.07,99.4849,101.302,0.000464705,0.0470567,20.9944,620.562,-0.152094,0.0,0.0
600,149.75,22.4943,23.1529,142.056,99.547,101.59,0.000794172,0.0499127,20.9933,620.532,-0.170695,0.0,0.0
625,156,22.8745,23.3585,140.034,99.6066,101.934,0.000656242,0.0480952,20.9951,620.502,-0.194109,0.0,0.0
650,162.25,22.5341,23.6222,139.273,99.6663,102.161,0.000497883,0.0464995,20.9988,620.532,-0.207744,0.0,0.0
675,168.5,22.2327,23.283,144.305,99.7056,101.533,0.000273843,0.0444315,21.0021,620.522,-0.152663,0.0,0.0
700,174.75,22.6983,23.2522,140.864,99.7276,102.269,0.00038626,0.0429174,21.0039,620.452,-0.211457,0.0,0.0
725,181,22.8431,23.9141,139.334,99.7653,102.105,0.000303993,0.0425368,21.0039,620.522,-0.194853,0.0,0.0
750,187.25,22.5117,23.765,138.747,99.7821,101.502,0.000664819,0.042374,21.004,620.472,-0.143594,0.0,0.0
775,193.5,23.3692,23.2479,138.965,99.7625,102.552,0.000615885,0.0423846,21.004,620.472,-0.231738,0.0,0.0
800,199.75,22.849,23.8305,140.282,99.7717,102.174,0.000505965,0.0422393,21.004,620.422,-0.199931,0.0,0.0
825,206,22.5781,23.8009,140.467,99.7669,101.826,0.000243213,0.0421733,21.0037,620.452,-0.171657,0.0,0.0
850,212.25,22.945,23.5716,140.59,99.7496,102.025,0.000240476,0.041989,21.0038,620.442,-0.189555,0.0,0.0
875,218.5,23.3209,23.8988,139.34,99.7444,101.665,0.000108973,0.0420764,21.0033,620.442,-0.160277,0.0,0.0
900,224.75,23.4625,23.6794,136.446,99.744,101.425,0.000168039,0.0422148,21.0047,620.462,-0.140442,0.0,0.0
925,231,23.1387,23.9729,136.959,99.6908,102.114,0.00030891,0.0423759,21.005,620.412,-0.201828,0.0,0.0
950,237.25,23.6625,23.6034,135.957,99.692,101.777,0.000289803,0.0422767,21.005,620.432,-0.173953,0.0,0.0
975,243.5,23.2842,24.0545,139.903,99.6611,101.798,0.000123287,0.0437846,21.0029,620.392,-0.178286,0.0,0.0
1000,249.75,23.0416,24.0214,141.037,99.6547,101.637,0.000350996,0.0437916,21.0033,620.362,-0.165516,0.0,0.0
1025,256,23.9207,24.0435,138.515,99.6615,101.741,0.000349684,0.0432262,21.0044,620.382,-0.173535,0.0,0.0
1050,262.25,22.5868,24.1477,140.983,99.6451,101.697,0.000124069,0.042855,21.0048,620.312,-0.171307,0.0,0.0
1075,268.5,23.2505,24.1194,137.681,99.6439,102.056,0.000246823,0.0423772,21.0054,620.322,-0.201005,0.0,0.0
1100,274.75,23.6231,23.7141,138.844,99.6747,102.346,0.000618101,0.0424178,21.006,620.312,-0.222256,0.0,0.0
1125,281,23.5375,23.7771,140.379,99.7012,101.769,0.000438895,0.0424206,21.0068,620.312,-0.172513,0.0,0.0
1150,287.25,22.5437,23.6831,140.568,99.7452,101.754,0.000566237,0.0430222,21.0061,620.261,-0.167547,0.0,0.0
1175,293.5,23.0004,24.1455,140.537,99.7737,102.06,0.000445631,0.0438936,21.0032,620.281,-0.19036,0.0,0.0
1200,299.75,22.7214,23.7786,140.393,99.8189,102.436,0.000474535,0.0435329,21.0035,620.271,-0.217469,0.0,0.0
1225,306,23.0497,24.2144,140.3,99.841,102.045,0.000406364,0.0436442,21.0036,620.201,-0.183481,0.0,0.0
1250,312.25,22.8228,23.7981,139.571,99.8686,101.802,0.000364409,0.0443537,21.0019,620.211,-0.161102,0.0,0.0
1275,318.5,22.9658,23.9061,140.15,99.8866,102.085,0.00040373,0.0441262,21.0001,620.181,-0.182982,0.0,0.0
1300,324.75,23.1591,24.104,142.964,99.9002,102.035,0.000526103,0.0431935,20.9996,620.141,-0.177721,0.0,0.0
1325,331,23.2413,23.9192,141.086,99.8954,101.952,0.000324742,0.043698,21.0013,620.191,-0.17125,0.0,0.0
1350,337.25,23.7178,24.012,137.62,99.8778,101.907,0.000550552,0.0438155,21.0005,620.211,-0.169054,0.0,0.0
1375,343.5,23.2141,24.0118,141.483,99.8362,101.668,0.000841705,0.0451539,21.0029,620.171,-0.152774,0.0,0.0
1400,349.75,23.8279,24.5888,139.158,99.8057,102.209,0.00100894,0.0445806,21.0043,620.211,-0.199926,0.0,0.0
1425,356,23.0241,24.1267,142.263,99.75,101.638,0.000422798,0.0437231,21.0044,620.141,-0.157554,0.0,0.0
1450,362.25,23.7317,24.3517,140.928,99.6499,100.959,0.000542256,0.0431229,21.0042,620.121,-0.109648,0.0,0.0
1475,368.5,23.4479,24.2288,137.565,99.5337,101.83,0.000455909,0.043182,21.004,620.101,-0.191684,0.0,0.0
1500,374.75,23.5761,24.6402,139.762,99.4276,101.204,0.000425549,0.0436112,21.0026,620.101,-0.148859,0.0,0.0
1525,381,23.6861,24.7729,138.981,99.4696,101.449,0.000661,0.0436729,21.003,620.071,-0.16555,0.0,0.0
1550,387.25,23.8148,24.5515,137.133,99.5221,101.837,0.000711374,0.0441759,21.0011,620.031,-0.193255,0.0,0.0
1575,393.5,23.5541,24.5365,138.496,99.5818,101.059,0.000698955,0.0452854,20.9997,620.011,-0.123746,0.0,0.0
1600,399.75,23.4853,24.6966,141.042,99.6034,100.949,0.000880008,0.0458404,20.9992,620.001,-0.112787,0.0,0.0
1625,406,22.3242,22.8016,135.626,99.6735,95.416,0.00266315,0.0924948,20.9465,619.851,0.366849,0.0,0.0
1650,412.25,24.7886,24.3725,125.478,99.708,82.3116,0.00989536,0.290724,20.7179,619.32,1.61127,0.0,0.0
1675,418.5,30.0113,28.8532,121.843,99.752,74.5042,0.0174617,0.557225,20.4131,618.33,2.45246,0.0,0.0
1700,424.75,34.0236,33.1909,126.514,99.7949,86.8532,0.014974,0.506124,20.4795,617.579,1.16725,0.0,0.0
1725,431,35.0728,34.9979,131.859,99.8378,95.1974,0.00860288,0.377248,20.6361,617.118,0.399966,0.0,0.0
1750,437.25,35.2801,35.376,136.062,99.8554,100.76,0.0043296,0.246747,20.7844,616.818,-0.0758274,0.0,0.0
1775,443.5,34.0223,34.8379,137.622,99.8722,102.386,0.00343531,0.17464,20.8638,616.668,-0.208883,0.0,0.0
1800,449.75,33.082,34.4351,139.033,99.8818,103.331,0.00322466,0.125114,20.9199,616.558,-0.285334,0.0,0.0
1825,456,32.2187,34.0141,137.807,99.9159,101.965,0.0026438,0.0861363,20.9591,616.468,-0.170598,0.0,0.0
1850,462.25,30.526,32.4264,138.592,99.9523,102.591,0.00236416,0.0623307,20.9856,616.508,-0.219013,0.0,0.0
1875,468.5,28.194,30.0684,136.353,99.9679,101.874,0.00205186,0.0537222,20.9945,616.468,-0.158713,0.0,0.0
1900,474.75,27.0535,29.9297,141.076,99.9916,102.647,0.00178272,0.0502018,20.9977,616.448,-0.220281,0.0,0.0
1925,481,26.5887,28.8215,140.49,100.028,102.559,0.00186882,0.0483623,21.0005,616.408,-0.209948,0.0,0.0
1950,487.25,25.9567,28.0311,135.502,100.045,102.28,0.00185348,0.0483502,21.0014,616.398,-0.18572,0.0,0.0
1975,493.5,25.5579,27.5773,137.23,100.057,102.592,0.00191309,0.0475542,21.0036,616.368,-0.210267,0.0,0.0
2000,499.75,24.3566,26.6589,140.693,100.095,103.257,0.0017208,0.0468889,21.0034,616.287,-0.261397,0.0,0.0
2025,506,24.5468,26.4171,139.015,100.108,102.51,0.00144395,0.0463134,21.003,616.328,-0.199265,0.0,0.0
2050,512.25,23.6667,25.9537,136.554,100.144,102.822,0.0012413,0.0461698,21.0004,616.318,-0.221775,0.0,0.0
2075,518.5,24.0557,25.5251,141.86,100.174,102.448,0.00110331,0.0460378,21.0012,616.257,-0.188668,0.0,0.0
2100,524.75,23.4234,25.4648,143.025,100.204,102.944,0.000922378,0.0460729,21.0017,616.267,-0.226686,0.0,0.0
2125,531,23.3339,24.6819,136.472,100.232,102.752,0.000793313,0.0461166,21.0033,616.197,-0.208689,0.0,0.0
2150,537.25,23.112,24.6023,139.09,100.256,102.533,0.00115612,0.0459891,21.0038,616.117,-0.188737,0.0,0.0
2175,543.5,22.3875,24.0316,137.153,100.269,102.845,0.00084588,0.0455124,21.0033,616.207,-0.21319,0.0,0.0
2200,549.75,22.7933,24.399,140.032,100.289,102.624,0.000851186,0.0450609,21.0015,616.187,-0.19337,0.0,0.0
2225,556,22.7348,24.2846,138.342,100.281,103.181,0.000924283,0.0448483,21.0013,616.227,-0.239557,0.0,0.0
2250,562.25,22.1088,23.7744,139.941,100.266,102.935,0.000970627,0.0450505,21.0007,616.167,-0.220715,0.0,0.0
2275,568.5,22.3816,23.54,139.282,100.238,102.335,0.00124743,0.0455578,20.9997,616.197,-0.173956,0.0,0.0
2300,574.75,22.1554,23.3079,141.805,100.181,102.863,,0.0454048,,616.137,-0.221968,0.0,0.0
2325,581,21.7601,23.6397,139.22,100.087,102.893,,,,616.137,-0.23231,0.0,0.0
2340,584.75,22.5297,23.1522,135.205,100.042,102.726,,,,616.097,-0.222435,0.0,0.0