Folder: fsri_materials_database/01_Data/Polyester_Microfiber_Sheet/Cone (part 5)

File: Polyester_Microfiber_Sheet_Cone_HF75Scan_220523_R3.csv
Names,Time,Stack TC,Smoke TC,Exh Press,Smoke Comp,Smoke Meas,CO Meter,CO2 Meter,O2 Meter,Sample Mass,Ext Coeff,Start Test,Flame Verif
Chan Gain,,500,500,1,1,1,1,1,1,1,1,1.0,1.0
Offset,,0,0,0.135828,0,0,0,0,0,0,0,0.0,0.0
Gain,,1,1,25.011,13.8491,15.2622,1,1,1,1.00087,1.03118,1.0,1.0
Units,sec,C,C,Pa,%,%,%,%,%,g,/m,,
Baseline,,51.1382,53.1213,127.48,105.004,113.429,0.000261016,0.0428463,20.9957,-451.201,-0.697982,,
12,2.75,50.5311,52.5087,124.785,105.447,113.934,0.00010804,0.0465404,20.9949,583.248,-0.700254,0.0,0.0
24,5.75,50.5758,52.3972,125.77,105.43,113.141,0.000287258,0.0489152,20.992,583.128,-0.63851,0.0,0.0
36,8.75,50.4832,52.4103,128.904,105.427,113.416,0.000446333,0.0498553,20.9901,583.168,-0.660707,0.0,0.0
48,11.75,50.3467,52.8658,126.054,105.392,113.104,0.000495908,0.0495059,20.9905,583.138,-0.638869,0.0,0.0
60,14.75,50.611,52.6827,126.919,105.362,112.209,0.000365043,0.0485329,20.9907,583.168,-0.569457,0.0,0.0
72,17.75,50.7722,52.5665,127.374,105.33,112.072,0.000913093,0.0505648,20.9875,583.088,-0.561205,0.0,0.0
84,20.75,51.4027,52.9226,120.124,105.28,95.5605,0.00470256,0.140076,20.8512,582.897,0.876185,0.0,1.0
96,23.75,52.0936,52.9564,107.6,105.237,74.5075,0.0176358,0.486742,20.5324,582.357,3.12351,0.0,1.0
108,26.75,59.7801,57.2326,89.4247,105.167,59.9276,0.0331646,1.09349,19.8748,581.196,5.0873,0.0,0.0
120,29.75,69.367,64.9746,100.652,105.092,65.3659,0.0388091,1.34867,19.559,580.335,4.29515,0.0,0.0
132,32.75,73.8424,70.2334,112.228,105.015,83.642,0.0291147,1.06769,19.8794,579.875,2.0584,0.0,0.0
144,35.75,73.4823,71.7803,117.074,104.941,102.116,0.0182243,0.676363,20.296,579.665,0.2468,0.0,0.0
156,38.75,72.4747,71.849,118.641,104.842,108.03,0.0101221,0.429015,20.5617,579.565,-0.270971,0.0,0.0
168,41.75,71.0126,71.8691,120.701,104.765,110.009,0.0062691,0.293354,20.708,579.454,-0.441817,0.0,0.0
180,44.75,69.3263,70.9313,125.044,104.684,110.756,0.00461951,0.226343,20.7843,579.364,-0.510007,0.0,0.0
192,47.75,68.5091,70.0925,124.101,104.631,111.442,0.00424445,0.192201,20.8244,579.314,-0.570395,0.0,0.0
204,50.75,66.9303,69.813,125.782,104.759,112.037,0.00438399,0.170515,20.8471,579.234,-0.607518,0.0,0.0
216,53.75,66.3324,68.7806,124.563,104.878,111.922,0.0045527,0.159122,20.8615,579.144,-0.587976,0.0,0.0
228,56.75,65.0528,68.4629,123.288,104.976,113.741,0.00460619,0.149954,20.8732,579.084,-0.725373,0.0,0.0
240,59.75,64.2429,67.7603,123.772,105.051,114.236,0.00478772,0.141774,20.8818,579.034,-0.758183,0.0,0.0
252,62.75,63.7799,67.4187,124.292,105.16,114.343,0.0050773,0.135896,20.8889,578.984,-0.757277,0.0,0.0
264,65.75,63.1572,67.3035,123.248,105.242,114.151,0.0054114,0.129936,20.8953,578.934,-0.735071,0.0,0.0
276,68.75,62.5969,65.9141,125.699,105.333,113.59,0.00547138,0.126219,20.8998,578.834,-0.68268,0.0,0.0
288,71.75,62.0108,65.9844,123.848,105.379,114.155,0.00550087,0.122043,20.903,578.754,-0.723567,0.0,0.0
300,74.75,60.7058,65.7222,123.735,105.377,114.034,0.00550657,0.119386,20.9068,578.754,-0.714149,0.0,0.0
312,77.75,60.7829,64.9489,124.951,105.349,113.965,0.00559463,0.117078,20.9094,578.694,-0.711109,0.0,0.0
324,80.75,60.2062,64.3441,122.435,105.274,113.567,0.00580871,0.114434,20.912,578.674,-0.685872,0.0,0.0
336,83.75,59.959,63.9045,121.194,105.212,114.828,0.00603571,0.112409,20.9154,578.674,-0.791155,0.0,0.0
348,86.75,59.6478,64.0516,124.563,105.093,113.634,0.00611939,0.109009,20.92,578.604,-0.706768,0.0,0.0
360,89.75,58.8496,63.541,126.043,104.972,113.265,0.00612178,0.105718,20.9233,578.554,-0.687804,0.0,0.0
372,92.75,58.9318,63.2795,124.101,104.941,113.9,0.00615408,0.101371,20.9273,578.534,-0.741093,0.0,0.0
384,95.75,58.0996,62.3448,126.329,104.983,112.654,0.00607758,0.0974648,20.9321,578.454,-0.637849,0.0,0.0
396,98.75,58.0315,61.998,124.386,105.038,114.11,0.00615627,0.093135,20.9378,578.404,-0.749348,0.0,0.0
408,101.75,57.0169,61.6532,126.976,105.106,113.207,0.00632163,0.0891567,20.9421,578.394,-0.671652,0.0,0.0
420,104.75,56.8907,61.2999,124.795,105.161,113.823,0.00625576,0.0856122,20.9461,578.323,-0.715917,0.0,0.0
432,107.75,56.9328,60.7842,126.795,105.22,114.392,0.00615702,0.0821752,20.95,578.344,-0.756021,0.0,0.0
444,110.75,56.5145,61.07,127.173,105.281,114.596,0.00598251,0.078218,20.9557,578.313,-0.766871,0.0,0.0
456,113.75,56.3375,60.7975,123.208,105.319,113.793,0.00566809,0.0751218,20.9591,578.273,-0.699999,0.0,0.0
468,116.75,55.8901,60.5415,126.193,105.347,113.403,0.00556912,0.0711111,20.9634,578.213,-0.66656,0.0,0.0
480,119.75,56.3462,60.2625,127.605,105.367,114.275,0.00540067,0.0670425,20.9676,578.203,-0.734137,0.0,0.0
492,122.75,55.3305,59.5539,125.227,105.377,114.25,0.00491788,0.0640176,20.9699,578.183,-0.731274,0.0,0.0
504,125.75,55.1919,59.3345,124.503,105.364,113.824,0.00480023,0.0618989,20.9729,578.173,-0.698594,0.0,0.0
516,128.75,55.4615,59.3478,128.501,105.356,113.696,0.00466619,0.060208,20.9751,578.053,-0.689174,0.0,0.0
528,131.75,54.6693,59.1137,125.74,105.331,114.422,0.00426202,0.059125,20.9761,578.093,-0.748827,0.0,0.0
540,134.75,54.3753,58.6003,127.691,105.265,113.458,0.00422091,0.0583777,20.9764,578.023,-0.677987,0.0,0.0
552,137.75,54.5351,57.9641,124.911,105.126,114.166,0.00412553,0.0576093,20.9772,577.933,-0.746173,0.0,0.0
564,140.75,54.505,57.807,124.279,105.054,113.104,0.00383091,0.0566938,20.9783,577.893,-0.667788,0.0,0.0
576,143.75,54.0615,57.4159,127.179,104.997,113.136,0.00357086,0.0566698,20.9796,577.953,-0.675309,0.0,0.0
588,146.75,53.7874,57.5513,130.239,104.95,113.798,0.00374793,0.056274,20.9804,577.903,-0.732077,0.0,0.0
600,149.75,53.5135,57.1953,126.095,104.926,113.505,0.00370893,0.055699,20.9808,577.883,-0.71091,0.0,0.0
612,152.75,53.7089,57.2833,124.975,104.895,114.007,0.0034444,0.0550532,20.9826,577.863,-0.753531,0.0,0.0
624,155.75,53.5314,57.2144,124.032,104.979,113.372,0.0032296,0.0541718,20.983,577.823,-0.695735,0.0,0.0
636,158.75,52.0929,55.1792,126.224,105.052,113.6,0.00308424,0.0536182,20.9835,577.823,-0.707627,0.0,0.0
648,161.75,52.1181,55.2945,126.155,105.114,113.799,0.00292581,0.0530455,20.9844,577.773,-0.718138,0.0,0.0
660,164.75,51.9493,55.3765,127.008,105.165,113.664,0.00291774,0.0524014,20.9849,577.703,-0.70296,0.0,0.0
672,167.75,52.2041,54.8533,127.622,105.208,114.308,0.00283146,0.0522128,20.9859,577.723,-0.750443,0.0,0.0
684,170.75,51.6276,54.9937,124.912,105.244,113.289,0.00249641,0.0519794,20.9872,577.713,-0.66635,0.0,0.0
696,173.75,52.1856,54.7595,126.283,105.274,113.585,0.0021982,0.0515871,20.9875,577.633,-0.687356,0.0,0.0
708,176.75,51.7074,54.134,127.334,105.289,113.296,0.00226312,0.0511238,20.9876,577.653,-0.663022,0.0,0.0
720,179.75,51.6891,54.4209,129.609,105.311,113.784,0.00226889,0.0510334,20.9877,577.593,-0.699948,0.0,0.0
732,182.75,51.6666,54.4785,124.848,105.335,112.984,0.00205877,0.0510032,20.9877,577.623,-0.634116,0.0,0.0
744,185.75,51.6642,54.0924,129.33,105.343,113.252,0.00201039,0.0509122,20.9877,577.553,-0.654768,0.0,0.0
756,188.75,51.3281,54.2815,125.864,105.34,113.635,0.00201023,0.0505776,20.9883,577.563,-0.685625,0.0,0.0
768,191.75,51.2214,54.0387,125.109,105.333,114.428,0.00191409,0.0504195,20.9894,577.563,-0.749125,0.0,0.0
780,194.75,51.152,54.1014,126.195,105.315,113.897,0.00190156,0.0504675,20.9906,577.583,-0.708613,0.0,0.0
792,197.75,51.0988,54.3076,126.121,105.297,113.925,0.00176937,0.0504118,20.9909,577.443,-0.712358,0.0,0.0
804,200.75,51.2314,53.9212,125.1,105.252,113.961,0.0014465,0.0501332,20.9905,577.403,-0.71909,0.0,0.0
816,203.75,51.1695,54.2379,125.15,105.19,114.253,0.00137264,0.0499157,20.9909,577.413,-0.747581,0.0,0.0
828,206.75,50.7802,53.738,123.909,105.131,113.898,0.00159258,0.0499518,20.991,577.403,-0.724492,0.0,0.0
840,209.75,50.9667,53.9123,126.331,105.078,114.661,0.00173926,0.0499957,20.9908,577.353,-0.789499,0.0,0.0
852,212.75,51.3372,53.8195,124.033,104.998,113.031,0.00172522,0.0501338,20.9902,577.343,-0.666891,0.0,0.0
864,215.75,51.1092,54.0617,127.323,104.961,112.503,0.00147726,0.049826,20.9901,577.323,-0.627728,0.0,0.0
876,218.75,51.3658,53.8259,124.746,104.96,112.726,0.00131793,0.0497551,20.99,577.283,-0.645647,0.0,0.0
888,221.75,51.6886,54.2464,127.59,104.913,113.691,0.00141509,0.0497022,20.99,577.293,-0.726837,0.0,0.0
900,224.75,51.1331,53.6959,125.974,104.885,113.037,0.0014045,0.0496432,20.9895,577.213,-0.677064,0.0,0.0
912,227.75,51.3692,53.3904,124.193,104.862,113.097,0.00136787,0.0495269,20.9899,577.263,-0.68384,0.0,0.0
924,230.75,51.6362,53.7755,123.235,104.843,113.392,0.0013876,0.0497773,20.99,577.213,-0.709067,0.0,0.0
936,233.75,51.1566,53.7935,123.622,104.81,113.464,0.00139425,0.0496327,20.99,577.213,-0.717705,0.0,0.0
948,236.75,51.1196,53.5609,124.608,104.808,112.723,0.00124691,0.0496767,20.99,577.192,-0.658507,0.0,0.0
960,239.75,51.2277,53.9179,124.954,104.813,113.263,0.00123988,0.0496184,20.99,577.152,-0.701321,0.0,0.0
972,242.75,51.6333,53.8646,124.683,104.806,112.742,0.00137136,0.049513,20.99,577.102,-0.660185,0.0,0.0
984,245.75,51.4454,53.8522,127.723,104.83,112.729,0.00133642,0.0494394,20.99,577.062,-0.657134,0.0,0.0
996,248.75,51.0136,53.3796,123.184,104.835,113.281,0.00118377,0.0494911,20.99,577.032,-0.700802,0.0,0.0
1008,251.75,51.2794,53.7101,124.777,104.847,113.14,0.0012063,0.0494719,20.99,577.052,-0.688542,0.0,0.0
1020,254.75,51.7226,53.7047,128.32,104.866,113.399,0.00131784,0.0496171,20.99,577.032,-0.707618,0.0,0.0
1032,257.75,51.7485,53.8891,124.596,104.88,113.296,0.00148118,0.0496407,20.9913,577.032,-0.6982,0.0,0.0
1044,260.75,51.7253,54.0083,124.867,104.896,112.928,0.00133572,0.0496602,20.9918,576.972,-0.667428,0.0,0.0
1056,263.75,51.778,53.723,127.167,104.908,113.964,0.0010529,0.0497377,20.9919,576.972,-0.749001,0.0,0.0
1068,266.75,51.4286,53.7181,123.7,104.902,113.449,,0.0499499,,576.962,-0.708495,0.0,0.0
1080,269.75,51.3375,54.2008,128.154,104.895,113.088,,,,576.942,-0.680252,0.0,0.0
1092,272.75,51.3162,53.8757,128.814,104.902,113.656,,,,576.922,-0.724969,0.0,0.0
1104,275.75,51.8564,54.0937,129.697,104.898,113.351,,,,576.912,-0.701094,0.0,0.0