Folder: fsri_materials_database/01_Data/Polyester_Microfiber_Sheet/Cone (part 2)

File: Polyester_Microfiber_Sheet_Cone_HF25Scan_220512_R3.csv
Names,Time,Stack TC,Smoke TC,Exh Press,Smoke Comp,Smoke Meas,CO Meter,CO2 Meter,O2 Meter,Sample Mass,Ext Coeff,Start Test,Flame Verif
Chan Gain,,500,500,1,1,1,1,1,1,1,1,1.0,1.0
Offset,,0,0,0.138628,0,0,0,0,0,0,0,0.0,0.0
Gain,,1,1,25.011,13.1256,14.6231,1,1,1,1.001,0.958019,1.0,1.0
Units,sec,C,C,Pa,%,%,%,%,%,g,/m,,
Baseline,,24.0741,24.7434,140.522,99.4426,101.967,0.000484174,0.0429005,21.0044,-444.236,-0.210641,,
23,5.5,21.1678,21.8563,141.043,99.408,101.966,0.000406193,0.0477867,20.9999,595.927,-0.213537,0.0,0.0
46,11.25,21.32,21.8594,142.424,99.3983,101.748,0.000357942,0.0470077,21.0002,595.897,-0.196308,0.0,0.0
69,17,21.8068,22.3476,137.099,99.4068,102.263,0.000339394,0.0452556,21.0038,595.917,-0.238025,0.0,0.0
92,22.75,21.9493,22.3336,138.844,99.4192,102.858,0.00022701,0.0442476,21.0047,595.897,-0.285754,0.0,0.0
115,28.5,21.3413,22.8148,138.029,99.4496,101.99,0.000273377,0.043449,21.0064,595.877,-0.211965,0.0,0.0
138,34.25,21.9851,22.5455,138.569,99.4945,102.051,0.000431657,0.0430724,21.0071,595.917,-0.213174,0.0,0.0
161,40,22.0461,22.5443,142.673,99.5293,101.541,0.000411683,0.0428631,21.0088,595.897,-0.168196,0.0,0.0
184,45.75,22.19,22.3024,141.891,99.5401,101.892,0.000327386,0.0428183,21.0077,595.897,-0.196224,0.0,0.0
207,51.5,22.272,22.5074,141.031,99.5281,102.157,0.000258407,0.043208,21.0074,595.877,-0.21911,0.0,0.0
230,57.25,22.263,22.5956,138.672,99.5097,102.369,0.00034498,0.0432651,21.0073,595.887,-0.23805,0.0,0.0
253,63,22.0563,22.6987,142.223,99.4973,101.816,0.000333697,0.0432833,21.0053,595.867,-0.193585,0.0,0.0
276,68.75,22.4259,22.7174,139.476,99.4881,102.087,0.000520887,0.044137,21.004,595.847,-0.216728,0.0,0.0
299,74.5,22.4605,22.922,141.287,99.4416,102.458,0.000470308,0.0481818,21.0003,595.827,-0.251162,0.0,0.0
322,80.25,22.6326,23.3142,139.642,99.3987,101.871,0.000509775,0.0552896,20.9926,595.797,-0.206478,0.0,0.0
345,86,22.7484,22.9897,140.154,99.3595,101.727,0.000785959,0.054702,20.993,595.827,-0.197898,0.0,0.0
368,91.75,22.6638,22.9447,143.979,99.3046,102.147,0.000610971,0.0537772,20.9946,595.817,-0.237123,0.0,0.0
391,97.5,22.7598,22.5973,138.462,99.2393,101.582,0.00100572,0.0510064,20.9971,595.787,-0.196041,0.0,0.0
414,103.25,22.5495,23.3116,138.573,99.1832,101.4,0.000879999,0.0534158,20.9939,595.807,-0.185715,0.0,0.0
437,109,22.4711,22.9175,147.186,99.1168,102.057,0.000678274,0.0521587,20.9977,595.847,-0.24569,0.0,0.0
460,114.75,22.8009,23.584,145.18,99.0467,101.433,0.000646357,0.0509024,20.9982,595.747,-0.200106,0.0,0.0
483,120.5,22.9198,23.1414,141.222,98.9798,101.346,0.000518198,0.0507635,20.9982,595.827,-0.198497,0.0,0.0
506,126.25,22.7934,23.1774,139.528,98.9145,101.36,0.000514744,0.0502878,20.9999,595.767,-0.205264,0.0,0.0
529,132,23.2011,23.723,135.665,98.8436,101.704,0.00044334,0.0517212,20.9977,595.787,-0.239768,0.0,0.0
552,137.75,22.3036,23.6667,140.564,98.8091,101.059,0.000413655,0.0552781,20.9948,595.787,-0.189244,0.0,0.0
575,143.5,22.6873,23.7072,139.976,98.7566,101.414,0.000245821,0.0530738,20.9968,595.727,-0.223159,0.0,0.0
598,149.25,23.0913,23.9121,141.589,98.7026,101.271,0.000355699,0.0496426,21.0012,595.747,-0.215883,0.0,0.0
621,155,22.9638,23.6906,139.202,98.6709,101.218,0.00023989,0.0479857,21.0012,595.707,-0.214169,0.0,0.0
644,160.75,23.2351,23.4687,138.91,98.6329,101.396,0.000350615,0.0475194,21.0028,595.787,-0.232218,0.0,0.0
667,166.5,23.1072,23.2438,144.639,98.6209,100.986,0.000439573,0.0475097,21.0033,595.687,-0.199146,0.0,0.0
690,172.25,22.3474,23.6361,137.958,98.614,100.802,0.000741476,0.0506511,20.9999,595.727,-0.18445,0.0,0.0
713,178,23.3425,23.2378,135.737,98.5972,101.595,0.000579884,0.0479796,21.0029,595.747,-0.251661,0.0,0.0
736,183.75,23.1128,23.4375,140.202,98.5972,101.175,0.00056427,0.0465996,21.0034,595.697,-0.216854,0.0,0.0
759,189.5,23.0692,23.5411,141.23,98.6016,101.253,0.000661262,0.0457299,21.0027,595.737,-0.222962,0.0,0.0
782,195.25,23.0384,23.9503,139.975,98.5712,101.016,0.000664276,0.0451717,21.0038,595.707,-0.205904,0.0,0.0
805,201,23.246,23.598,143.159,98.5632,101.157,0.000536045,0.0450641,21.0046,595.737,-0.21831,0.0,0.0
828,206.75,23.1125,23.9698,138.404,98.5463,100.859,0.00038357,0.0442074,21.0055,595.697,-0.194944,0.0,0.0
851,212.5,23.3021,23.8149,138.1,98.5255,101.071,0.000151198,0.0440275,21.0059,595.657,-0.214326,0.0,0.0
874,218.25,23.4597,24.1393,139.606,98.5071,100.372,0.000172568,0.0433607,21.006,595.557,-0.157627,0.0,0.0
897,224,22.9463,23.9144,144.721,98.4999,100.804,0.000386015,0.0430997,21.0064,595.567,-0.194295,0.0,0.0
920,229.75,23.3808,23.4839,136.274,98.455,100.736,0.000400847,0.042792,21.0058,595.607,-0.192504,0.0,0.0
943,235.5,23.4758,23.6321,138.726,98.4482,100.474,0.000707505,0.0427813,21.0075,595.657,-0.171166,0.0,0.0
966,241.25,22.9739,23.7706,143.412,98.4494,100.723,0.000565845,0.043011,21.0065,595.637,-0.191865,0.0,0.0
989,247,23.5874,23.7876,138.078,98.4558,100.679,0.000495731,0.0439458,21.0033,595.567,-0.187669,0.0,0.0
1012,252.75,23.1051,23.6423,141.377,98.4646,100.29,0.00052887,0.0444138,21.0025,595.547,-0.154372,0.0,0.0
1035,258.5,23.4431,23.4598,139.387,98.4819,100.877,0.0003092,0.0435335,21.004,595.547,-0.201969,0.0,0.0
1058,264.25,23.0259,24.0424,139.274,98.5095,101.081,0.000493849,0.0427321,21.006,595.537,-0.216547,0.0,0.0
1081,270,23.3255,24.0719,140.408,98.5608,100.898,0.00064074,0.0424168,21.0069,595.557,-0.196948,0.0,0.0
1104,275.75,23.8181,24.2245,140.3,98.6108,100.972,0.00024983,0.0426078,21.0071,595.497,-0.198885,0.0,0.0
1127,281.5,23.5374,23.7119,139.986,98.6613,100.382,0.000496961,0.0427432,21.0062,595.497,-0.14534,0.0,0.0
1150,287.25,23.3056,24.2128,137.257,98.725,100.671,0.000490808,0.0427079,21.0041,595.477,-0.164017,0.0,0.0
1173,293,23.5543,24.0003,137.065,98.8023,100.789,0.000545139,0.0428385,21.007,595.447,-0.167268,0.0,0.0
1196,298.75,23.2386,24.2595,142.795,98.872,100.488,0.000390057,0.042974,21.0079,595.457,-0.136263,0.0,0.0
1219,304.5,23.798,24.482,140.969,98.9501,100.035,0.000499792,0.0428703,21.0072,595.417,-0.0916606,0.0,0.0
1242,310.25,23.6171,24.3633,142.076,99.0174,101.453,0.000441181,0.043001,21.0071,595.427,-0.204178,0.0,0.0
1265,316,23.7005,24.1753,137.404,99.0975,100.669,0.00042968,0.0430728,21.0051,595.377,-0.132217,0.0,0.0
1288,321.75,23.6625,24.2616,138.12,99.1508,100.728,0.000517412,0.0430801,21.0048,595.407,-0.132617,0.0,0.0
1311,327.5,23.8253,24.1286,137.818,99.2057,101.111,0.00053345,0.043409,21.0048,595.397,-0.159888,0.0,0.0
1334,333.25,23.3812,24.7067,138.427,99.281,101.084,0.00034592,0.0444413,21.0028,595.386,-0.151248,0.0,0.0
1357,339,23.8775,24.7115,140.464,99.3603,101.488,0.000572116,0.0456334,21.0033,595.286,-0.178084,0.0,0.0
1380,344.75,23.9438,24.3897,135.803,99.412,100.672,0.000782631,0.044772,21.005,595.266,-0.105856,0.0,0.0
1403,350.5,23.1638,24.5412,138.271,99.4664,101.126,0.00060134,0.044958,21.0037,595.296,-0.139089,0.0,0.0
1426,356.25,23.7585,24.3925,141.615,99.4997,101.457,0.000671084,0.046935,21.0001,595.256,-0.163678,0.0,1.0
1449,362,22.7333,22.7666,134.895,99.5217,93.6069,0.00370804,0.122039,20.9077,595.086,0.514909,0.0,0.0
1472,367.75,25.9606,25.1877,124.088,99.5578,78.8905,0.0121221,0.360726,20.6273,594.426,1.95534,0.0,0.0
1495,373.5,31.2958,29.5283,123.088,99.6066,80.1191,0.019616,0.610817,20.3586,593.485,1.8296,0.0,0.0
1518,379.25,34.6946,33.4913,128.072,99.6347,84.3724,0.0167416,0.545094,20.4391,592.734,1.39728,0.0,0.0
1541,385,35.711,35.3843,131.79,99.6615,91.3046,0.00979007,0.391726,20.6004,592.263,0.735978,0.0,0.0
1564,390.75,36.4902,35.8402,137.001,99.6683,97.3162,0.00552438,0.289249,20.7266,591.903,0.200698,0.0,0.0
1587,396.5,35.3154,35.732,137.851,99.6735,101.462,0.00356935,0.204065,20.824,591.713,-0.149489,0.0,0.0
1610,402.25,34.5691,35.3337,134.977,99.6912,103.112,0.00301969,0.142894,20.8973,591.653,-0.283552,0.0,0.0
1633,408,32.9685,34.8443,138.299,99.692,102.593,0.00271756,0.0986682,20.9432,591.593,-0.241042,0.0,0.0
1656,413.75,31.5777,33.8403,137.957,99.6563,101.898,0.00224804,0.0702209,20.9765,591.573,-0.186903,0.0,0.0
1679,419.5,28.8712,30.9549,135.821,99.6134,102.07,0.00180485,0.0539457,20.9924,591.543,-0.204748,0.0,0.0
1702,425.25,28.6091,30.504,141.151,99.5381,101.815,0.00168067,0.0491389,20.9981,591.493,-0.190061,0.0,0.0
1725,431,27.1901,29.2863,141.262,99.4584,101.865,0.00168165,0.047118,21.0017,591.443,-0.200955,0.0,0.0
1748,436.75,26.7573,28.7324,139.796,99.3859,101.46,0.00124223,0.0457802,21.0037,591.483,-0.173551,0.0,0.0
1771,442.5,25.7275,27.7075,139.844,99.3074,102.202,0.00106806,0.045268,21.0032,591.473,-0.241474,0.0,0.0
1794,448.25,25.6694,27.4715,137.543,99.2329,101.861,0.00104397,0.044863,21.0052,591.423,-0.219663,0.0,0.0
1817,454,24.4864,27.2125,139.189,99.2025,101.026,0.000870829,0.0446684,21.0025,591.433,-0.15311,0.0,0.0
1840,459.75,23.996,26.6057,136.543,99.174,101.825,0.00093133,0.0446902,21.0023,591.403,-0.221705,0.0,0.0
1863,465.5,23.9449,26.1275,139.772,99.1428,102.115,0.000870596,0.0445677,21.0022,591.342,-0.248259,0.0,0.0
1886,471.25,23.867,25.9773,140.029,99.14,101.954,0.000953802,0.0445064,21.0018,591.393,-0.235191,0.0,0.0
1909,477,23.7952,25.0172,140.864,99.1155,101.137,0.000970569,0.0445326,21.0047,591.403,-0.16964,0.0,0.0
1932,482.75,23.1069,25.0706,139.955,99.0903,102.23,0.000870022,0.0447286,21.0047,591.393,-0.262104,0.0,0.0
1955,488.5,23.1212,24.2245,138.839,99.0775,102.19,0.00114307,0.0448254,21.0048,591.372,-0.259925,0.0,0.0
1978,494.25,22.5153,24.5359,141.349,99.0531,101.449,0.00131946,0.0446787,21.0053,591.322,-0.200856,0.0,0.0
2001,500,22.9507,24.4111,142.157,99.0767,101.511,0.00116101,0.044494,21.0039,591.302,-0.203988,0.0,0.0
2024,505.75,22.4977,24.2477,138.618,99.1576,101.65,0.000961699,0.0446291,21.0032,591.302,-0.208647,0.0,0.0
2047,511.5,22.4076,23.9201,144.672,99.2349,101.62,0.00123436,0.0446905,21.0036,591.292,-0.199551,0.0,0.0
2070,517.25,22.0944,23.9871,140.093,99.3611,102.019,0.00111812,0.044663,21.0024,591.292,-0.221875,0.0,0.0
2093,523,22.0692,23.6927,136.927,99.4829,102.039,0.00128767,0.0445559,21.0041,591.252,-0.213199,0.0,0.0
2116,528.75,22.3238,23.3764,136.875,99.5458,102.04,,0.044588,,591.262,-0.207998,0.0,0.0
2139,534.5,22.1797,23.4049,138.145,99.6026,101.8,,,,591.172,-0.183402,0.0,0.0
2158,539.25,22.219,23.3413,138.476,99.6423,102.318,,,,591.232,-0.222683,0.0,0.0

File: Polyester_Microfiber_Sheet_Cone_HF50Scalar_220512_R1.csv
LABORATORY,FSRI
TEST IDENT,Microfiber_HF50_1
OPERATOR,Dow
MATERIAL,microfiber sheet
ORIENTATION,Horizontal
HEAT FLUX,50
SURF AREA,0.01
C FACTOR,0.0418335
SPEC HOLDER DIFF,-566
SPECIMEN MASS,4.75
SCAN TIME,0.25
O2 DELAY TIME,11
CO DELAY TIME,11
CO2 DELAY TIME,8
FLOW FACTOR,1
SCAN COUNT,1042
TIME TO IGN,40.25
END OF TEST SCAN,562
END OF TEST TIME,140.5
TEST STATUS,1
PRE TEST CMT,Dimensions: 100 x 101 x 1 mm; with frame and grid; with calcium silicate substrate; sample includes 5 layers
POST TEST CMT,Intermittent flashes of flames prior to ignition. The exposed area of the sample shrank upon heating due to shriveling and melting.

File: Polyester_Microfiber_Sheet_Cone_HF50Scalar_220512_R2.csv
LABORATORY,FSRI
TEST IDENT,Microfiber_HF50_2
OPERATOR,Dow
MATERIAL,microfiber sheet
ORIENTATION,Horizontal
HEAT FLUX,50
SURF AREA,0.01
C FACTOR,0.0418335
SPEC HOLDER DIFF,-566
SPECIMEN MASS,4.85
SCAN TIME,0.25
O2 DELAY TIME,11
CO DELAY TIME,11
CO2 DELAY TIME,8
FLOW FACTOR,1
SCAN COUNT,1036
TIME TO IGN,40.25
END OF TEST SCAN,556
END OF TEST TIME,139
TEST STATUS,1
PRE TEST CMT,Dimensions: 102 x 102 x 1 mm; with frame and grid; with calcium silicate substrate; sample includes 5 layers
POST TEST CMT,Intermittent flashes of flames prior to ignition. The exposed area of the sample shrank upon heating due to shriveling and melting.

File: Polyester_Microfiber_Sheet_Cone_HF50Scalar_220512_R3.csv
LABORATORY,FSRI
TEST IDENT,Microfiber_HF50_3
OPERATOR,Dow
MATERIAL,microfiber sheet
ORIENTATION,Horizontal
HEAT FLUX,50
SURF AREA,0.01
C FACTOR,0.0418335
SPEC HOLDER DIFF,-566
SPECIMEN MASS,4.75
SCAN TIME,0.25
O2 DELAY TIME,11
CO DELAY TIME,11
CO2 DELAY TIME,8
FLOW FACTOR,1
SCAN COUNT,943
TIME TO IGN,34.5
END OF TEST SCAN,463
END OF TEST TIME,115.75
TEST STATUS,1
PRE TEST CMT,Dimensions: 101 x 100 x 1 mm; with frame and grid; with calcium silicate substrate; sample includes 5 layers
POST TEST CMT,Intermittent flashes of flames prior to ignition. The exposed area of the sample shrank upon heating due to shriveling and melting.

File: Polyester_Microfiber_Sheet_Cone_HF50Scan_220512_R1.csv
Names,Time,Stack TC,Smoke TC,Exh Press,Smoke Comp,Smoke Meas,CO Meter,CO2 Meter,O2 Meter,Sample Mass,Ext Coeff,Start Test,Flame Verif
Chan Gain,,500,500,1,1,1,1,1,1,1,1,1.0,1.0
Offset,,0,0,0.135828,0,0,0,0,0,0,0,0.0,0.0
Gain,,1,1,25.011,13.8491,15.2622,1,1,1,1.00087,1.03118,1.0,1.0
Units,sec,C,C,Pa,%,%,%,%,%,g,/m,,
Baseline,,37.1656,38.4777,133.091,104.246,107.103,0.000633279,0.0491941,20.9909,-445.944,-0.244475,,
11,2.5,34.2266,35.7541,136.558,104.983,108.036,0.000283525,0.0510659,20.9924,619.9,-0.259304,0.0,0.0
22,5.25,33.9964,35.2502,132.641,104.93,107.848,0.000480243,0.0496341,20.9917,619.87,-0.248089,0.0,0.0
33,8,34.0385,36.1484,137.54,104.854,108.179,0.000593511,0.0487146,20.992,619.86,-0.282421,0.0,0.0
44,10.75,34.3104,35.6781,132.344,104.807,107.567,0.000632709,0.0481974,20.9927,619.88,-0.235186,0.0,0.0
55,13.5,34.8863,35.6687,129.133,104.764,107.098,0.000592876,0.0480645,20.9939,619.85,-0.199305,0.0,0.0
66,16.25,34.8352,36.0268,136.007,104.729,108.131,0.000586644,0.0475665,20.9943,619.86,-0.289131,0.0,0.0
77,19,34.6485,36.087,130.464,104.677,107.207,0.000615964,0.0470559,20.9939,619.87,-0.215989,0.0,0.0
88,21.75,35.0141,36.1695,133.007,104.629,107.649,0.000533308,0.0465678,20.9937,619.89,-0.257371,0.0,0.0
99,24.5,35.0329,36.2137,131.641,104.627,107.222,0.000480805,0.0462643,20.9936,619.87,-0.221632,0.0,0.0
110,27.25,35.2418,36.1698,132.929,104.628,108.114,0.000397256,0.0463036,20.9966,619.9,-0.296418,0.0,0.0
121,30,35.0354,36.2236,132.601,104.62,107.453,0.000425985,0.0464437,20.9979,619.88,-0.241646,0.0,0.0
132,32.75,34.9989,36.3347,137.174,104.608,106.566,0.000566916,0.0465368,20.9983,619.81,-0.167741,0.0,0.0
143,35.5,35.3014,36.4579,130.751,104.63,106.94,0.000646395,0.0469017,20.9982,619.83,-0.197571,0.0,0.0
154,38.25,34.9774,36.3535,135.793,104.666,105.26,0.000612274,0.0474937,20.9969,619.78,-0.0512338,0.0,0.0
165,41,35.5701,36.5489,134.191,104.694,106.549,0.000839953,0.0524318,20.9903,619.78,-0.158905,0.0,1.0
176,43.75,35.7554,36.8666,127.385,104.716,106.28,0.00154179,0.0787545,20.9456,619.77,-0.134122,0.0,1.0
187,46.5,35.1957,35.376,126.44,104.756,101.835,0.00311852,0.13573,20.8827,619.559,0.255815,0.0,0.0
198,49.25,36.0058,35.9652,120.095,104.793,93.1371,0.00674548,0.23123,20.7895,619.259,1.06657,0.0,0.0
209,52,38.9991,37.718,105.136,104.863,80.0775,0.0140461,0.399297,20.5689,618.849,2.43923,0.0,0.0
220,54.75,43.4216,41.0612,101.582,104.901,65.4022,0.0238747,0.716132,20.1821,618.038,4.27367,0.0,0.0
231,57.5,49.1524,45.5866,112.56,104.951,77.2913,0.0273721,0.860699,20.065,617.478,2.7671,0.0,0.0
242,60.25,52.6188,47.9783,118.825,104.988,77.9201,0.0248132,0.811648,20.1376,617.017,2.69698,0.0,0.0
253,63,53.6448,50.6237,119.595,105.052,85.2904,0.0191133,0.680271,20.32,616.757,1.88504,0.0,0.0
264,65.75,53.3513,52.0664,123.338,105.11,94.5936,0.0135378,0.532865,20.4911,616.557,0.953533,0.0,0.0
275,68.5,52.7076,51.7748,126.622,105.157,101.609,0.0089162,0.415134,20.6103,616.387,0.31047,0.0,0.0
286,71.25,52.3895,51.9007,127.793,105.204,104.444,0.0060445,0.324892,20.7013,616.276,0.0655408,0.0,0.0
297,74,52.1137,51.3316,129.751,105.246,106.952,0.00476896,0.262901,20.7636,616.206,-0.145439,0.0,0.0
308,76.75,50.5801,51.4694,128.353,105.291,107.288,0.00473175,0.213769,20.8206,616.136,-0.169952,0.0,0.0
319,79.5,50.0848,51.5229,128.088,105.322,108.457,0.00524622,0.177723,20.8574,616.096,-0.265331,0.0,0.0
330,82.25,49.3339,50.2019,127.598,105.335,108.137,0.00588977,0.151999,20.8823,616.056,-0.237516,0.0,0.0
341,85,48.5071,50.2199,131.487,105.305,108.881,0.0066236,0.13317,20.902,616.006,-0.3021,0.0,0.0
352,87.75,47.809,49.0417,131.843,105.296,108.493,0.0074839,0.120113,20.9151,615.966,-0.270536,0.0,0.0
363,90.5,46.5645,49.1547,129.723,105.251,108.981,0.00828909,0.112023,20.9228,615.946,-0.315065,0.0,0.0
374,93.25,46.1104,48.6565,127.168,105.207,108.583,0.00866093,0.105543,20.9276,615.856,-0.285728,0.0,0.0
385,96,45.2097,48.0667,133.734,105.124,108.548,0.00873511,0.09948,20.9319,615.726,-0.289982,0.0,0.0
396,98.75,44.607,47.3631,127.547,105.03,108.372,0.00873225,0.0942285,20.9365,615.766,-0.283336,0.0,0.0
407,101.5,44.2489,47.0105,129.496,104.957,108.839,0.00900541,0.0901008,20.9392,615.776,-0.328547,0.0,0.0
418,104.25,43.4304,46.4671,130.848,104.879,108.362,0.00952229,0.0871072,20.942,615.806,-0.295526,0.0,0.0
429,107,43.0611,46.179,131.113,104.756,108.38,0.00975813,0.084343,20.9454,615.716,-0.307653,0.0,0.0
440,109.75,42.9943,46.1549,132.07,104.674,107.564,0.00969741,0.0821018,20.9478,615.666,-0.246373,0.0,0.0
451,112.5,41.7281,45.1043,130.745,104.614,108.044,0.00951085,0.0802356,20.9493,615.646,-0.291816,0.0,0.0
462,115.25,42.1086,44.9603,129.695,104.572,108.255,0.00950549,0.0779549,20.9521,615.616,-0.31308,0.0,0.0
473,118,41.3887,44.8426,129.239,104.54,107.138,0.00957868,0.0763224,20.9543,615.626,-0.222045,0.0,0.0
484,120.75,40.9684,44.3113,132.836,104.506,108.318,0.00925291,0.0739469,20.9575,615.596,-0.324076,0.0,0.0
495,123.5,41.1439,44.2259,136.468,104.472,107.102,0.00902224,0.0712176,20.9605,615.526,-0.224873,0.0,0.0
506,126.25,41.1023,43.6883,132.165,104.456,107.408,0.00902094,0.0694104,20.9632,615.536,-0.252108,0.0,0.0
517,129,40.4732,44.0004,131.065,104.448,107.383,0.00876322,0.0682574,20.9645,615.496,-0.250724,0.0,0.0
528,131.75,40.2301,42.9285,128.771,104.449,107.936,0.0085112,0.0675431,20.9661,615.436,-0.297065,0.0,0.0
539,134.5,39.6151,43.2853,131.502,104.433,108.632,0.00835537,0.067146,20.9665,615.466,-0.356621,0.0,0.0
550,137.25,39.4881,42.6387,137.257,104.453,108.141,0.00814678,0.0668154,20.9667,615.406,-0.313857,0.0,0.0
561,140,39.538,42.6218,132.515,104.488,108.06,0.00795806,0.0665583,20.9667,615.326,-0.304073,0.0,0.0
572,142.75,37.0956,40.6905,131.351,104.519,108.516,0.00770946,0.0659092,20.9671,615.316,-0.339419,0.0,0.0
583,145.5,37.9713,41.2042,130.45,104.517,107.431,0.00741154,0.0650868,20.968,615.286,-0.2488,0.0,0.0
594,148.25,37.3425,40.5491,125.919,104.511,107.592,0.00726084,0.0650942,20.9692,615.326,-0.262792,0.0,0.0
605,151,37.0433,39.9728,132.676,104.509,107.706,0.00712935,0.064979,20.97,615.296,-0.272566,0.0,0.0
616,153.75,36.9097,40.1522,127.703,104.489,108.479,0.00665208,0.0640711,20.9714,615.256,-0.338987,0.0,0.0
627,156.5,36.8613,39.4999,131.191,104.486,107.737,0.00630184,0.0626433,20.973,615.206,-0.277199,0.0,0.0
638,159.25,37.0521,38.8848,132.477,104.453,108.417,0.00597127,0.061392,20.9749,615.186,-0.336889,0.0,0.0
649,162,36.8894,40.0234,131.235,104.45,107.351,0.0056369,0.0605254,20.9761,615.276,-0.24787,0.0,0.0
660,164.75,36.4634,39.9241,129.365,104.46,107.521,0.00547561,0.0600373,20.9765,615.246,-0.261268,0.0,0.0
671,167.5,37.3063,39.4993,132.158,104.492,107.63,0.00528535,0.0593597,20.9774,615.256,-0.267652,0.0,0.0
682,170.25,37.1071,39.6329,131.647,104.528,107.832,0.00511637,0.0586343,20.9785,615.206,-0.281473,0.0,0.0
693,173,36.5238,39.0342,131.756,104.555,107.904,0.00498231,0.0580074,20.98,615.196,-0.285186,0.0,0.0
704,175.75,36.7664,39.0402,132.535,104.593,107.545,0.00487823,0.0575747,20.9814,615.186,-0.251782,0.0,0.0
715,178.5,36.8549,38.8486,128.926,104.654,108.016,0.00470014,0.0572918,20.9819,615.196,-0.286039,0.0,0.0
726,181.25,36.6248,39.131,134.658,104.684,107.556,0.00464063,0.0570695,20.983,615.146,-0.244831,0.0,0.0
737,184,36.7649,39.1321,130.578,104.721,108.23,0.00438476,0.0565231,20.9839,615.075,-0.298081,0.0,0.0
748,186.75,36.7378,38.7382,132.173,104.754,108.525,0.00402295,0.0556459,20.9838,615.025,-0.31988,0.0,0.0
759,189.5,35.936,38.5189,131.954,104.807,107.337,0.0039459,0.0552585,20.9848,615.025,-0.215778,0.0,0.0
770,192.25,36.6376,39.0603,132.928,104.868,108.083,0.00382012,0.0550021,20.9851,615.005,-0.273077,0.0,0.0
781,195,36.1776,38.5821,133.234,104.938,108.744,0.00367891,0.0548391,20.9852,615.055,-0.322322,0.0,0.0
792,197.75,36.5177,38.0678,128.344,104.999,108.391,0.00358099,0.0546797,20.9852,614.975,-0.28759,0.0,0.0
803,200.5,36.4173,38.351,130.326,105.035,108.343,0.00345491,0.0543724,20.9852,614.945,-0.280528,0.0,0.0
814,203.25,35.7661,38.7449,130.255,105.089,108.969,0.00326582,0.0541274,20.9852,614.955,-0.32798,0.0,0.0
825,206,36.4941,38.6581,127.079,105.13,108.19,0.00331393,0.054156,20.9852,614.935,-0.259539,0.0,0.0
836,208.75,36.0106,38.4239,132.522,105.177,108.034,0.00359914,0.0539505,20.9864,614.905,-0.242412,0.0,0.0
847,211.5,36.145,37.839,138.215,105.214,108.435,0.00365418,0.0538714,20.9866,614.875,-0.272766,0.0,0.0
858,214.25,36.4322,38.7265,131.219,105.231,107.721,0.00336111,0.0539053,20.9866,614.865,-0.211514,0.0,0.0
869,217,36.5702,38.273,129.681,105.256,108.65,0.00317492,0.0538301,20.9865,614.845,-0.287138,0.0,0.0
880,219.75,36.5824,38.5443,125.347,105.293,108.508,0.00314446,0.0536276,20.9865,614.845,-0.272033,0.0,0.0
891,222.5,36.1209,38.049,131.098,105.32,108.405,0.00302115,0.0535219,20.9865,614.835,-0.2612,0.0,0.0
902,225.25,36.9102,38.8985,132.985,105.325,108.11,0.00288826,0.0533976,20.9865,614.835,-0.236091,0.0,0.0
913,228,36.3304,38.0037,131.635,105.34,108.633,0.00269428,0.0531617,20.9865,614.785,-0.27844,0.0,0.0
924,230.75,36.6442,38.3229,132.407,105.361,108.124,0.00250303,0.053151,20.9879,614.775,-0.234136,0.0,0.0
935,233.5,36.4106,38.1752,132.598,105.375,108.744,0.0024395,0.0530675,20.9885,614.785,-0.284656,0.0,0.0
946,236.25,36.4903,38.2319,131.545,105.369,108.989,0.00249739,0.0531234,20.9885,614.765,-0.305556,0.0,0.0
957,239,36.3696,38.2646,133.646,105.348,109.096,0.00262342,0.0530987,20.9885,614.755,-0.316217,0.0,0.0
968,241.75,35.8503,37.9256,133.394,105.337,110.094,0.00285564,0.0531782,20.9885,614.685,-0.399507,0.0,0.0
979,244.5,36.2096,37.9653,135.534,105.337,108.327,0.0028321,0.0531383,20.9898,614.705,-0.253217,0.0,0.0
990,247.25,36.0639,38.4057,131.241,105.319,109.088,0.00267292,0.053065,20.9905,614.675,-0.318032,0.0,0.0
1001,250,36.3022,38.2916,130.433,105.296,108.495,,0.0529971,,614.665,-0.270727,0.0,0.0
1012,252.75,36.4028,37.746,128.469,105.252,108.685,,,,614.645,-0.290333,0.0,0.0
1023,255.5,36.748,37.8949,130.837,105.23,108.782,,,,614.625,-0.300284,0.0,0.0
1034,258.25,36.2267,38.0275,130.208,105.194,108.978,,,,614.615,-0.319625,0.0,0.0
1042,260.25,36.555,37.4967,130.513,105.165,108.245,,,,614.625,-0.261077,0.0,0.0