Folder: fsri_materials_database/01_Data/Polyester_Microfiber_Sheet/Cone (part 3)

File: Polyester_Microfiber_Sheet_Cone_HF50Scan_220512_R2.csv
Names,Time,Stack TC,Smoke TC,Exh Press,Smoke Comp,Smoke Meas,CO Meter,CO2 Meter,O2 Meter,Sample Mass,Ext Coeff,Start Test,Flame Verif
Chan Gain,,500,500,1,1,1,1,1,1,1,1,1.0,1.0
Offset,,0,0,0.135828,0,0,0,0,0,0,0,0.0,0.0
Gain,,1,1,25.011,13.8491,15.2622,1,1,1,1.00087,1.03118,1.0,1.0
Units,sec,C,C,Pa,%,%,%,%,%,g,/m,,
Baseline,,36.99,38.1895,132.3,105.325,108.459,0.000360682,0.0470996,20.9951,-446.641,-0.265196,,
11,2.5,38.1347,39.641,130.941,103.719,106.298,0.000328839,0.0529598,20.9913,611.592,-0.222203,0.0,0.0
22,5.25,38.2272,39.4327,134.716,103.713,107.033,0.00031771,0.0523858,20.9909,611.672,-0.285011,0.0,0.0
33,8,38.6241,39.8083,129.663,103.727,106.33,0.000400119,0.0511589,20.9924,611.723,-0.224199,0.0,0.0
44,10.75,38.3326,39.3306,132.85,103.74,106.139,0.000322732,0.0499129,20.9943,611.642,-0.206836,0.0,0.0
55,13.5,38.185,39.5439,128.757,103.761,106.9,0.000220531,0.049073,20.9951,611.662,-0.269579,0.0,0.0
66,16.25,38.1602,39.2152,129.766,103.769,107.825,0.000265293,0.0486548,20.9953,611.672,-0.346892,0.0,0.0
77,19,38.3922,39.8336,131.341,103.8,106.794,0.000376528,0.0490555,20.9941,611.672,-0.257202,0.0,0.0
88,21.75,38.4712,39.9967,132.899,103.835,106.931,0.000381749,0.0496848,20.9934,611.642,-0.265701,0.0,0.0
99,24.5,38.7444,39.4266,130.909,103.88,106,0.000431437,0.0496455,20.9932,611.632,-0.182729,0.0,0.0
110,27.25,39.0992,40.3431,130.921,103.917,106.449,0.000431325,0.0490333,20.9944,611.632,-0.217766,0.0,0.0
121,30,38.9204,40.1884,132.105,104,105.967,0.000429095,0.0482037,20.9951,611.632,-0.169462,0.0,0.0
132,32.75,38.6195,39.9001,132.251,104.056,106.791,0.000359325,0.0476916,20.9953,611.622,-0.234677,0.0,0.0
143,35.5,38.3765,40.1513,132.109,104.134,105.779,0.000374378,0.047545,20.9954,611.622,-0.141819,0.0,0.0
154,38.25,38.8711,39.7096,131.061,104.214,105.493,0.000513815,0.047794,20.9941,611.622,-0.110355,0.0,0.0
165,41,38.7383,40.1806,126.205,104.282,104.428,0.00142795,0.0661037,20.9745,611.612,-0.0126547,0.0,1.0
176,43.75,39.5043,40.4383,125.041,104.375,95.1851,0.00501322,0.147029,20.8704,611.392,0.833672,0.0,1.0
187,46.5,40.4364,39.4332,117.186,104.456,81.1767,0.0129344,0.342652,20.6354,610.942,2.28069,0.0,0.0
198,49.25,44.6215,42.5152,105.431,104.538,62.7623,0.0252003,0.671549,20.2682,610.151,4.615,0.0,0.0
209,52,50.8997,46.4106,110.848,104.636,77.9611,0.0307332,0.894451,20.0489,609.481,2.66184,0.0,0.0
220,54.75,54.2337,51.0404,117.722,104.696,81.8535,0.0272322,0.839513,20.1279,609.07,2.22636,0.0,0.0
231,57.5,56.0823,53.2251,116.026,104.772,88.6388,0.0203935,0.686954,20.2868,608.74,1.51253,0.0,0.0
242,60.25,56.4068,54.1509,121.061,104.832,96.2759,0.0139632,0.52324,20.4746,608.54,0.770181,0.0,0.0
253,63,55.7276,54.6498,124.474,104.887,102.751,0.00940543,0.398416,20.6082,608.44,0.186072,0.0,0.0
264,65.75,55.3007,54.7854,126.324,104.926,106.839,0.00685161,0.305973,20.7063,608.34,-0.163444,0.0,0.0
275,68.5,54.5439,54.658,129.547,104.947,107.826,0.00562485,0.247352,20.7803,608.27,-0.244832,0.0,0.0
286,71.25,53.5251,54.1223,127.804,104.962,108.38,0.00522261,0.203939,20.8191,608.209,-0.289859,0.0,0.0
297,74,52.8852,53.9659,127.926,104.994,108.036,0.00549148,0.176604,20.8513,608.159,-0.258282,0.0,0.0
308,76.75,51.4779,53.9152,127.969,104.98,108.642,0.00602345,0.157698,20.8712,608.089,-0.310191,0.0,0.0
319,79.5,50.9068,52.9161,129.107,104.971,108.926,0.00686885,0.145139,20.8837,608.089,-0.334542,0.0,0.0
330,82.25,50.1138,52.5936,128.204,104.953,108.331,0.00750307,0.137543,20.8911,607.989,-0.286542,0.0,0.0
341,85,49.6493,51.9604,127.488,104.97,108.676,0.00799517,0.13314,20.8953,607.999,-0.313859,0.0,0.0
352,87.75,49.1057,51.8903,132.038,104.971,108.294,0.00840311,0.128692,20.9005,607.859,-0.281942,0.0,0.0
363,90.5,48.6433,51.2565,131.496,104.964,108.119,0.00867959,0.123126,20.9062,607.859,-0.267885,0.0,0.0
374,93.25,48.3857,51.3604,131.028,104.966,108.123,0.00873639,0.118503,20.9107,607.859,-0.267975,0.0,0.0
385,96,48.0058,51.1642,130.896,104.953,108.641,0.00865114,0.114939,20.9141,607.809,-0.31233,0.0,0.0
396,98.75,47.5189,49.8864,127.879,104.955,108.913,0.00839512,0.111101,20.919,607.829,-0.33484,0.0,0.0
407,101.5,46.7895,49.8412,130.726,104.962,108.867,0.00810181,0.106963,20.9243,607.709,-0.330393,0.0,0.0
418,104.25,46.6359,49.2252,133.004,104.945,108.553,0.00798306,0.10327,20.9283,607.679,-0.305804,0.0,0.0
429,107,46.3453,49.3877,129.111,104.917,108.832,0.00789961,0.100783,20.9307,607.629,-0.331352,0.0,0.0
440,109.75,45.4387,48.7107,133.131,104.919,108.676,0.00765184,0.0978871,20.9342,607.649,-0.318267,0.0,0.0
451,112.5,45.3799,48.9679,130.845,104.897,108.42,0.00740703,0.094752,20.9374,607.569,-0.298812,0.0,0.0
462,115.25,45.5168,48.3767,134.479,104.86,108.324,0.0072291,0.0921014,20.9403,607.539,-0.29405,0.0,0.0
473,118,44.7159,47.9436,126.857,104.797,107.369,0.00721257,0.0883244,20.9441,607.499,-0.219328,0.0,0.0
484,120.75,45.0158,47.989,131.014,104.731,107.772,0.00717786,0.0847864,20.9481,607.519,-0.258896,0.0,0.0
495,123.5,44.6936,47.4472,130.666,104.657,108.575,0.0071066,0.0814688,20.9517,607.489,-0.332434,0.0,0.0
506,126.25,44.1653,47.7709,131.232,104.564,107.878,0.0068936,0.0788482,20.9545,607.449,-0.282195,0.0,0.0
517,129,44.0463,47.0606,136.613,104.41,107.603,0.00664072,0.0762019,20.9575,607.409,-0.272481,0.0,0.0
528,131.75,43.5792,46.9617,125.685,104.298,108.191,0.00632048,0.0732724,20.9623,607.439,-0.331503,0.0,0.0
539,134.5,43.5415,46.8645,128.569,104.165,106.196,0.00588135,0.0704861,20.9651,607.369,-0.17468,0.0,0.0
550,137.25,43.5455,46.3718,130.309,104.025,107.075,0.00564638,0.0676181,20.9679,607.349,-0.261426,0.0,0.0
561,140,41.1606,45.0009,132.441,103.905,106.39,0.00538931,0.0649602,20.9707,607.359,-0.213765,0.0,0.0
572,142.75,41.5703,43.9901,129.751,103.789,107.024,0.00500286,0.0626396,20.9736,607.389,-0.277664,0.0,0.0
583,145.5,41.3369,44.207,129.283,103.701,106.385,0.00465952,0.0606735,20.9768,607.319,-0.231161,0.0,0.0
594,148.25,41.0618,43.7483,129.847,103.675,105.506,0.00438918,0.0593516,20.9785,607.329,-0.15837,0.0,0.0
605,151,40.1664,43.2318,132.484,103.669,106.95,0.00417572,0.0584,20.9799,607.329,-0.281871,0.0,0.0
616,153.75,40.839,43.2977,130.724,103.688,105.678,0.00398902,0.0575673,20.981,607.319,-0.17191,0.0,0.0
627,156.5,40.5354,42.9117,135.766,103.742,106.765,0.00396479,0.0566485,20.9826,607.259,-0.259879,0.0,0.0
638,159.25,40.1747,42.88,129.832,103.837,106.485,0.00376846,0.0560278,20.9837,607.239,-0.227729,0.0,0.0
649,162,39.8479,42.8623,130.984,103.984,106.942,0.00334888,0.0554399,20.9854,607.239,-0.253732,0.0,0.0
660,164.75,39.6209,42.3265,132.409,104.162,107.329,0.00312634,0.0547669,20.9838,607.259,-0.270946,0.0,0.0
671,167.5,39.9854,42.2882,131.784,104.299,106.935,0.00300707,0.0545867,20.9829,607.229,-0.225795,0.0,0.0
682,170.25,39.2302,41.9741,130.744,104.446,106.703,0.00283816,0.0541294,20.9842,607.199,-0.193328,0.0,0.0
693,173,39.5177,41.6986,130.632,104.586,107.608,0.00277665,0.053805,20.9846,607.149,-0.257693,0.0,0.0
704,175.75,39.3437,42.0844,130.593,104.736,108.165,0.00275174,0.0535846,20.9848,607.128,-0.29139,0.0,0.0
715,178.5,39.0379,41.2809,131.887,104.835,107.142,0.00279065,0.0532639,20.9856,607.089,-0.19691,0.0,0.0
726,181.25,39.0455,42.256,128.812,104.931,107.279,0.00274344,0.0527941,20.9866,607.058,-0.200228,0.0,0.0
737,184,39.4502,41.8018,132.363,105.005,107.55,0.00233408,0.0525052,20.987,607.058,-0.216606,0.0,0.0
748,186.75,39.1745,42.0235,131.246,105.061,108.358,0.00203736,0.0524692,20.9873,607.048,-0.279513,0.0,0.0
759,189.5,39.9727,41.6624,130.463,105.117,107.998,0.00210426,0.0523673,20.9879,607.048,-0.244608,0.0,0.0
770,192.25,39.5007,41.4317,132.853,105.155,108.637,0.00213697,0.0521397,20.9893,607.028,-0.2947,0.0,0.0
781,195,39.3803,41.4123,128.443,105.18,108.648,0.00204506,0.0521675,20.9901,606.978,-0.293373,0.0,0.0
792,197.75,38.7499,41.6731,127.385,105.22,108.512,0.00207581,0.0520196,20.9903,607.008,-0.278741,0.0,0.0
803,200.5,39.7704,41.1928,132.786,105.261,108.764,0.00203292,0.0519621,20.9904,606.958,-0.29612,0.0,0.0
814,203.25,39.2883,41.1902,131.019,105.301,108.192,0.00191127,0.0519605,20.9895,606.968,-0.245055,0.0,0.0
825,206,39.0191,41.1715,130.665,105.323,108.256,0.00185384,0.0519955,20.9886,606.958,-0.248461,0.0,0.0
836,208.75,38.9246,40.6654,130.123,105.317,108.718,0.00194123,0.0523228,20.9883,606.948,-0.287458,0.0,0.0
847,211.5,38.7908,41.1277,132.806,105.341,108.235,0.00201296,0.0525695,20.9885,606.928,-0.245152,0.0,0.0
858,214.25,38.6719,40.9339,132.001,105.378,109.107,0.0019389,0.0526094,20.9887,606.918,-0.314532,0.0,0.0
869,217,39.086,40.6486,132.515,105.387,108.495,0.0017163,0.052607,20.9888,606.908,-0.262925,0.0,0.0
880,219.75,39.0756,40.7251,132.767,105.393,108.126,0.00162381,0.0525236,20.9888,606.888,-0.231538,0.0,0.0
891,222.5,38.3644,40.5494,129.497,105.384,108.931,0.00167827,0.0523052,20.9888,606.838,-0.299455,0.0,0.0
902,225.25,38.8842,40.3243,131.851,105.397,108.643,0.00175719,0.0521315,20.9888,606.848,-0.274433,0.0,0.0
913,228,38.8893,40.7766,129.713,105.409,108.786,0.00165598,0.0518792,20.9901,606.848,-0.285276,0.0,0.0
924,230.75,38.8643,40.6399,130.601,105.414,108.395,0.00156392,0.0518588,20.9908,606.838,-0.252214,0.0,0.0
935,233.5,38.7354,40.7836,130.442,105.411,109.116,0.00152045,0.0515729,20.991,606.828,-0.312475,0.0,0.0
946,236.25,38.7535,40.9094,133.74,105.417,108.021,0.00161105,0.0514294,20.9911,606.818,-0.22066,0.0,0.0
957,239,39.183,40.491,130.344,105.423,108.715,0.00181402,0.0513741,20.9911,606.788,-0.278155,0.0,0.0
968,241.75,38.6533,40.471,131.601,105.424,108.386,0.00203786,0.0512939,20.9911,606.788,-0.250606,0.0,0.0
979,244.5,39.2365,41.0369,134.264,105.441,107.767,0.00204521,0.0512768,20.9911,606.778,-0.19735,0.0,0.0
990,247.25,39.3969,40.7586,131.003,105.436,108.952,0.00194737,0.0513349,20.9926,606.748,-0.296698,0.0,0.0
1001,250,38.7983,40.5829,129.669,105.433,108.621,,0.0511434,,606.748,-0.269527,0.0,0.0
1012,252.75,38.7276,40.1947,131.022,105.447,108.025,,,,606.748,-0.218436,0.0,0.0
1023,255.5,38.7932,40.4157,132.734,105.436,109.306,,,,606.728,-0.326,0.0,0.0
1034,258.25,38.3174,40.6535,131.969,105.448,108.198,,,,606.718,-0.232896,0.0,0.0
1036,258.75,38.6842,40.6291,132.337,105.443,109.221,,,,606.738,-0.318441,0.0,0.0

File: Polyester_Microfiber_Sheet_Cone_HF50Scan_220512_R3.csv
Names,Time,Stack TC,Smoke TC,Exh Press,Smoke Comp,Smoke Meas,CO Meter,CO2 Meter,O2 Meter,Sample Mass,Ext Coeff,Start Test,Flame Verif
Chan Gain,,500,500,1,1,1,1,1,1,1,1,1.0,1.0
Offset,,0,0,0.135828,0,0,0,0,0,0,0,0.0,0.0
Gain,,1,1,25.011,13.8491,15.2622,1,1,1,1.00087,1.03118,1.0,1.0
Units,sec,C,C,Pa,%,%,%,%,%,g,/m,,
Baseline,,40.2986,41.627,132.045,104.698,108.817,0.000443894,0.0432727,20.9986,-448.015,-0.348903,,
10,2.25,37.2829,39.1846,133.619,104.426,107.681,0.000764633,0.0436751,20.9963,586.13,-0.277626,0.0,0.0
20,4.75,37.081,39.0522,133.811,104.403,108.236,0.000780977,0.0439232,20.9983,586.14,-0.326194,0.0,0.0
30,7.25,37.2024,38.4858,128.233,104.389,108.415,0.000636839,0.043912,20.999,586.16,-0.342301,0.0,0.0
40,9.75,37.1207,38.3215,131.408,104.385,108.077,0.00026871,0.0442179,20.9983,586.21,-0.314411,0.0,0.0
50,12.25,36.7203,38.3251,132.625,104.376,107.844,4.91198e-05,0.0449405,20.9967,586.13,-0.295592,0.0,0.0
60,14.75,36.9137,38.1684,130.079,104.382,108.446,0.000183422,0.0455922,20.9955,586.14,-0.345488,0.0,0.0
70,17.25,36.8312,38.0438,133.334,104.385,108.678,0.000239524,0.0458166,20.9962,586.19,-0.364597,0.0,0.0
80,19.75,36.5224,38.0195,133.873,104.409,109.167,0.000287136,0.0458024,20.9968,586.08,-0.403121,0.0,0.0
90,22.25,36.8554,38.3971,135.469,104.396,108.67,0.000288868,0.0455532,20.997,586.17,-0.362911,0.0,0.0
100,24.75,37.1,38.0405,134.819,104.455,109.023,0.000271877,0.0453228,20.9971,586.12,-0.387199,0.0,0.0
110,27.25,37.7452,38.879,132.348,104.46,107.778,0.000284969,0.0451117,20.9964,586.12,-0.282832,0.0,0.0
120,29.75,37.3086,38.4774,130.324,104.488,107.286,0.000371517,0.0452064,20.9956,586.1,-0.238968,0.0,0.0
130,32.25,37.5205,38.5961,129.68,104.534,106.847,0.000595158,0.0459341,20.9934,586.1,-0.19795,0.0,0.0
140,34.75,37.7361,38.7003,131.118,104.583,105.604,0.00128256,0.0641202,20.9707,586.04,-0.0878902,0.0,1.0
150,37.25,37.7495,39.2014,126.315,104.625,97.1334,0.00331223,0.123328,20.9029,585.87,0.672016,0.0,1.0
160,39.75,37.4788,38.049,122.856,104.687,92.5777,0.00727267,0.234021,20.7945,585.62,1.11193,0.0,0.0
170,42.25,40.1726,39.4821,114.638,104.725,76.3775,0.0136681,0.409782,20.5253,585.219,2.85518,0.0,0.0
180,44.75,43.558,42.389,106.321,104.788,74.2694,0.0202786,0.650974,20.2516,584.639,3.11378,0.0,0.0
190,47.25,48.7763,45.6142,104.818,104.833,73.2862,0.0248234,0.814196,20.101,584.099,3.23827,0.0,0.0
200,49.75,52.3055,48.2401,108.78,104.866,71.5773,0.026944,0.877539,20.0387,583.518,3.4545,0.0,0.0
210,52.25,54.8426,51.5101,117.686,104.896,78.527,0.0250154,0.838271,20.097,583.138,2.6189,0.0,0.0
220,54.75,56.3551,53.5573,118.031,104.909,83.3966,0.0198707,0.706205,20.2493,582.847,2.07577,0.0,0.0
230,57.25,56.3838,54.5935,123.529,104.936,94.6956,0.014084,0.548555,20.4226,582.607,0.928822,0.0,0.0
240,59.75,55.9243,54.6557,125.567,104.897,100.917,0.00984447,0.416313,20.5761,582.537,0.349873,0.0,0.0
250,62.25,55.4802,54.6017,126.28,104.89,104.636,0.00712744,0.320086,20.6969,582.467,0.0218976,0.0,0.0
260,64.75,54.2346,54.5897,126.549,104.84,106.519,0.00581109,0.249703,20.7735,582.357,-0.143748,0.0,0.0
270,67.25,53.2509,54.0281,128.425,104.815,108.351,0.00551854,0.202336,20.8205,582.257,-0.300096,0.0,0.0
280,69.75,51.839,53.3618,128.932,104.743,109.435,0.00580585,0.169363,20.8569,582.217,-0.39637,0.0,0.0
290,72.25,50.9795,52.3833,131.751,104.696,108.885,0.00618624,0.145068,20.8823,582.187,-0.354839,0.0,0.0
300,74.75,50.4681,52.3896,127.801,104.612,108.549,0.0067214,0.129519,20.8977,582.177,-0.33417,0.0,0.0
310,77.25,49.5607,52.1184,131.358,104.557,109.127,0.00736108,0.1171,20.9116,582.127,-0.386997,0.0,0.0
320,79.75,48.7572,51.4331,127.866,104.482,107.976,0.00811561,0.107388,20.9223,582.117,-0.297564,0.0,0.0
330,82.25,48.2221,50.4987,126.69,104.43,108.381,0.0087858,0.0991044,20.9319,582.077,-0.335873,0.0,0.0
340,84.75,47.2455,49.7969,128.341,104.367,109.693,0.00929197,0.0917188,20.9399,582.027,-0.450177,0.0,0.0
350,87.25,47.0306,49.81,129.258,104.314,108.318,0.0097479,0.0865275,20.9458,582.037,-0.340699,0.0,0.0
360,89.75,46.066,49.7436,127.202,104.29,108.381,0.0101621,0.0829703,20.9491,581.987,-0.348074,0.0,0.0
370,92.25,45.5083,48.8451,130.619,104.245,108.538,0.0104701,0.0795463,20.952,581.977,-0.365051,0.0,0.0
380,94.75,45.2367,48.3312,132.445,104.243,108.574,0.0105741,0.0772726,20.9543,581.937,-0.368262,0.0,0.0
390,97.25,45.0379,48.0899,131.103,104.204,108.096,0.0106006,0.0755791,20.9538,581.937,-0.331622,0.0,0.0
400,99.75,44.5644,47.9419,133.205,104.197,107.781,0.0105533,0.0747581,20.9537,581.877,-0.305896,0.0,0.0
410,102.25,43.8384,47.9614,133.428,104.173,108.818,0.0102993,0.0748708,20.9536,581.877,-0.394662,0.0,0.0
420,104.75,43.506,47.4845,130.991,104.182,108.309,0.00994529,0.0753228,20.9536,581.887,-0.351475,0.0,0.0
430,107.25,43.285,46.7108,130.371,104.168,107.8,0.00978775,0.0751182,20.9536,581.867,-0.310031,0.0,0.0
440,109.75,42.6934,47.0575,130.613,104.17,108.574,0.00970051,0.0744403,20.953,581.827,-0.374569,0.0,0.0
450,112.25,42.536,46.1349,128.86,104.151,108.413,0.00962333,0.0741733,20.9534,581.766,-0.362749,0.0,0.0
460,114.75,42.1601,45.7422,131.189,104.181,108.252,0.00953983,0.0737178,20.9544,581.726,-0.346724,0.0,0.0
470,117.25,40.6794,43.8434,129.239,104.171,108.168,0.00940694,0.0724506,20.9552,581.706,-0.340562,0.0,0.0
480,119.75,39.6962,43.7223,128.973,104.193,107.684,0.00914845,0.0710444,20.9577,581.656,-0.298092,0.0,0.0
490,122.25,39.9766,43.2286,131.579,104.209,108.023,0.00875721,0.0696927,20.9603,581.656,-0.325173,0.0,0.0
500,124.75,38.9764,42.8813,128.396,104.231,108.916,0.00848237,0.0685233,20.9612,581.686,-0.397689,0.0,0.0
510,127.25,39.5428,42.6466,130.003,104.252,107.511,0.00821803,0.0671065,20.9636,581.626,-0.27843,0.0,0.0
520,129.75,39.2219,42.4988,129.897,104.259,108.281,0.00783082,0.0655759,20.9669,581.606,-0.342352,0.0,0.0
530,132.25,39.5087,42.6343,131.411,104.293,109.052,0.00737846,0.0641518,20.9696,581.596,-0.403624,0.0,0.0
540,134.75,38.6881,42.3053,127.254,104.295,109.464,0.00688866,0.0632671,20.9705,581.586,-0.43749,0.0,0.0
550,137.25,38.9842,42.3978,132.356,104.326,108.806,0.00654941,0.0623764,20.9722,581.546,-0.38038,0.0,0.0
560,139.75,38.611,41.8327,130.226,104.333,108.785,0.00641842,0.0614292,20.9729,581.526,-0.37794,0.0,0.0
570,142.25,38.7784,41.9104,131.929,104.376,109.138,0.00631012,0.0606631,20.9734,581.516,-0.403547,0.0,0.0
580,144.75,38.6359,41.5295,126.115,104.4,109.369,0.00618068,0.0601758,20.9744,581.526,-0.420549,0.0,0.0
590,147.25,38.607,41.2103,131.809,104.43,108.791,0.00596182,0.0595446,20.9766,581.516,-0.370092,0.0,0.0
600,149.75,38.08,41.2807,130.712,104.433,109.314,0.00564,0.0588152,20.9779,581.486,-0.413146,0.0,0.0
610,152.25,38.4332,40.4273,131.525,104.467,108.666,0.00520947,0.0586004,20.9784,581.486,-0.35645,0.0,0.0
620,154.75,37.942,41.0453,132.089,104.458,107.607,0.00497871,0.0579688,20.9798,581.456,-0.268655,0.0,0.0
630,157.25,37.9966,40.8395,135.746,104.482,109.688,0.00474056,0.0573356,20.9813,581.456,-0.439796,0.0,0.0
640,159.75,38.3889,41.2379,131.944,104.486,108.254,0.00442443,0.0567409,20.9826,581.426,-0.320502,0.0,0.0
650,162.25,37.9489,40.518,130.406,104.489,108.476,0.00422374,0.0558442,20.9841,581.386,-0.338713,0.0,0.0
660,164.75,37.651,40.4472,133.251,104.503,108.901,0.00402514,0.0550364,20.985,581.356,-0.372935,0.0,0.0
670,167.25,38.2627,40.733,130.813,104.5,107.745,0.00380172,0.0545525,20.9847,581.366,-0.276581,0.0,0.0
680,169.75,37.9708,40.1201,128.963,104.518,108.081,0.00355408,0.0543463,20.9843,581.316,-0.303268,0.0,0.0
690,172.25,37.1425,40.0522,129.435,104.495,108.546,0.00340492,0.0541883,20.9839,581.316,-0.344103,0.0,0.0
700,174.75,37.7122,40.7504,132.141,104.515,108.592,0.00328344,0.0539531,20.984,581.276,-0.346185,0.0,0.0
710,177.25,38.2,40.0589,128.135,104.492,108.727,0.00310617,0.0535001,20.9853,581.266,-0.35933,0.0,0.0
720,179.75,37.8369,39.7306,130.002,104.493,107.758,0.00297595,0.0532343,20.9852,581.276,-0.278334,0.0,0.0
730,182.25,37.0138,39.8576,129.815,104.483,109.718,0.00286518,0.052903,20.9862,581.246,-0.442221,0.0,0.0
740,184.75,37.6952,39.6479,127.502,104.472,108.803,0.0027632,0.052655,20.9866,581.216,-0.367439,0.0,0.0
750,187.25,37.5347,39.9927,132.348,104.46,108.33,0.00267827,0.0524906,20.9867,581.226,-0.329073,0.0,0.0
760,189.75,37.5125,39.486,131.331,104.452,108.716,0.0026534,0.0523125,20.9868,581.206,-0.36199,0.0,0.0
770,192.25,37.7641,39.592,128.52,104.42,108.88,0.00261805,0.0521538,20.9868,581.196,-0.378328,0.0,0.0
780,194.75,37.0024,39.8961,132.14,104.431,107.923,0.00252282,0.0518482,20.9868,581.156,-0.297583,0.0,0.0
790,197.25,37.0107,39.0779,132.663,104.407,108.364,0.00242724,0.0516201,20.988,581.146,-0.336527,0.0,0.0
800,199.75,37.1432,39.8242,132.997,104.398,108.378,0.00238419,0.0515616,20.9887,581.146,-0.338422,0.0,0.0
810,202.25,37.7629,39.491,131.29,104.396,108.24,0.00230248,0.0514392,20.989,581.126,-0.327092,0.0,0.0
820,204.75,37.5122,39.9049,131.829,104.388,109.651,0.00225506,0.0511451,20.9891,581.146,-0.444963,0.0,0.0
830,207.25,38.008,39.4394,132.256,104.392,107.331,0.00231413,0.0508207,20.9891,581.076,-0.251122,0.0,0.0
840,209.75,37.3794,39.5255,129.189,104.39,108.884,0.00231216,0.0507232,20.9891,581.086,-0.381239,0.0,0.0
850,212.25,37.7254,39.3505,130.745,104.385,108.596,0.0021221,0.0506592,20.9894,581.116,-0.357772,0.0,0.0
860,214.75,37.5548,39.5838,132.99,104.385,108.774,0.0018776,0.0505905,20.9896,581.086,-0.372579,0.0,0.0
870,217.25,37.6091,39.6578,130.363,104.401,108.49,0.00175675,0.0505378,20.9897,581.046,-0.347455,0.0,0.0
880,219.75,38.0006,39.5246,130.442,104.401,108.1,0.0017846,0.0503608,20.9898,581.006,-0.314931,0.0,0.0
890,222.25,37.6605,39.1912,131.673,104.406,108.563,0.00185067,0.050299,20.9898,581.016,-0.353183,0.0,0.0
900,224.75,37.2313,38.8222,129.544,104.39,107.748,,0.0503331,,580.976,-0.286408,0.0,0.0
910,227.25,37.7603,39.6276,132.652,104.406,108.829,,0.0502776,,580.956,-0.375242,0.0,0.0
920,229.75,37.5478,39.5248,133.257,104.389,108.312,,,,580.936,-0.333709,0.0,0.0
930,232.25,37.1402,39.0952,130.681,104.376,108.333,,,,580.956,-0.336594,0.0,0.0
940,234.75,37.5024,39.4659,134.295,104.375,108.294,,,,580.946,-0.3334,0.0,0.0
943,235.5,37.27,39.0095,130.802,104.382,107.745,,,,580.956,-0.28683,0.0,0.0

File: Polyester_Microfiber_Sheet_Cone_HF75Scalar_220523_R1.csv
LABORATORY,FSRI
TEST IDENT,Microfiber_HF75_1
OPERATOR,Dow
MATERIAL,microfiber sheet
ORIENTATION,Horizontal
HEAT FLUX,75
SURF AREA,0.01
C FACTOR,0.0418335
SPEC HOLDER DIFF,-566
SPECIMEN MASS,4.89
SCAN TIME,0.25
O2 DELAY TIME,11
CO DELAY TIME,11
CO2 DELAY TIME,8
FLOW FACTOR,1
SCAN COUNT,962
TIME TO IGN,17
END OF TEST SCAN,482
END OF TEST TIME,120.5
TEST STATUS,1
PRE TEST CMT,Dimensions: 102 x 103 x 1 mm; with frame and grid; with calcium silicate substrate; sample includes 5 layers

File: Polyester_Microfiber_Sheet_Cone_HF75Scalar_220523_R2.csv
LABORATORY,FSRI
TEST IDENT,Microfiber_HF75_2
OPERATOR,Dow
MATERIAL,microfiber sheet
ORIENTATION,Horizontal
HEAT FLUX,75
SURF AREA,0.01
C FACTOR,0.0418335
SPEC HOLDER DIFF,-566
SPECIMEN MASS,4.77
SCAN TIME,0.25
O2 DELAY TIME,11
CO DELAY TIME,11
CO2 DELAY TIME,8
FLOW FACTOR,1
SCAN COUNT,1205
TIME TO IGN,17.25
END OF TEST SCAN,725
END OF TEST TIME,181.25
TEST STATUS,1
PRE TEST CMT,Dimensions: 105 x 105 x 0.83 mm; with frame and grid; with calcium silicate substrate; sample includs 5 layers

File: Polyester_Microfiber_Sheet_Cone_HF75Scalar_220523_R3.csv
LABORATORY,FSRI
TEST IDENT,Microfiber_HF75_3
OPERATOR,Dow
MATERIAL,microfiber sheet
ORIENTATION,Horizontal
HEAT FLUX,75
SURF AREA,0.01
C FACTOR,0.0418335
SPEC HOLDER DIFF,-566
SPECIMEN MASS,4.76
SCAN TIME,0.25
O2 DELAY TIME,11
CO DELAY TIME,11
CO2 DELAY TIME,8
FLOW FACTOR,1
SCAN COUNT,1104
TIME TO IGN,18.75
END OF TEST SCAN,624
END OF TEST TIME,156
TEST STATUS,1
PRE TEST CMT,Dimensions: 105 x 105 x 0.78 mm; with frame and grid; with calcium silicate substrate; sample includes 5 layers