Folder: fsri_materials_database/01_Data/Polyester_Microfiber_Sheet/MCC

Note: 01_Data/README.md
# Materials and Products Database
## 01_Data

Raw data generated from each apparatus are included here in plain-text format. The data is organized first by material, next by the short name of test apparatus used, and where applicable additional filtering by test settings.

### material.json

Each material directory contains a json file of the same name as the material. This file links the data stored in the repository as well as data and graphs produced by the accompanying scripts (__02_Scripts__) to the respective landing page for the material on the front-end website.

File: Polyester_Microfiber_Sheet_MCC_30K_min_211209_R1.txt
Sample ID:	C:\MCC\MCC Cal\Test\Polyester_Microfiber_Sheet_MCC_30K_min_211209_R1.txt
Sample Weight (mg):	4.19
Heating Rate (C/s):	0.5
Combustor Temp (C):	900
N2 Flow Rate (cc/min):	80
O2 Flow Rate (cc/min):	20
Calibration File:	C:\MCC\MCC Cal\Coeff1 JN10440_30_210304.txt.txt
T Correction Coefficients:	0	1.024463	0
Time Shift (s):	14
*
Time (s)	Temperature (C)	N2 flow rate (cc/min)	O2 flow rate (cc/min)	Flow Rate (cc/min)	Oxygen (%)	HRR (W/g)	Heating rate (C/s)
0.000	108.610	80.009	19.994	103.070	20.145	-0.101	0.019
8.000	108.585	80.006	19.996	103.069	20.139	0.368	-0.041
16.000	108.587	80.007	19.995	103.091	20.135	0.682	0.010
24.000	108.693	80.008	19.995	103.168	20.126	1.372	0.051
32.001	109.029	80.008	19.993	103.260	20.109	2.696	0.069
40.000	109.975	80.009	19.993	103.321	20.092	3.951	0.134
48.000	111.505	80.008	19.994	103.342	20.083	4.665	0.227
56.000	113.540	80.007	19.995	103.333	20.081	4.805	0.281
64.000	115.983	80.007	19.994	103.330	20.079	4.944	0.328
72.000	118.706	80.008	19.994	103.332	20.082	4.717	0.341
80.000	121.688	80.006	19.995	103.339	20.086	4.437	0.391
88.000	124.961	80.006	19.994	103.354	20.085	4.544	0.404
96.001	128.392	80.007	19.994	103.357	20.086	4.428	0.438
104.001	132.016	80.009	19.994	103.353	20.087	4.405	0.453
112.000	135.795	80.007	19.995	103.352	20.085	4.506	0.481
120.001	139.701	80.010	19.994	103.338	20.087	4.368	0.484
128.000	143.715	80.010	19.994	103.342	20.083	4.687	0.518
136.000	147.712	80.010	19.994	103.323	20.085	4.541	0.485
144.000	151.806	80.005	19.994	103.327	20.090	4.126	0.514
152.000	155.868	80.006	19.994	103.326	20.086	4.441	0.501
160.001	159.919	80.006	19.993	103.323	20.089	4.243	0.508
168.000	163.953	80.008	19.995	103.311	20.094	3.855	0.514
176.001	168.041	80.006	19.994	103.297	20.091	4.093	0.495
184.001	172.074	80.010	19.995	103.288	20.093	3.909	0.489
192.000	176.051	80.006	19.994	103.287	20.092	3.952	0.487
200.001	179.946	80.008	19.995	103.287	20.094	3.863	0.467
208.000	183.931	80.008	19.995	103.290	20.096	3.694	0.500
216.000	187.944	80.010	19.996	103.284	20.091	4.033	0.544
224.001	191.807	80.007	19.994	103.287	20.093	3.936	0.502
232.000	195.737	80.007	19.994	103.286	20.094	3.820	0.499
240.000	199.590	80.008	19.995	103.279	20.096	3.641	0.475
248.001	203.498	80.008	19.994	103.280	20.098	3.537	0.480
256.000	207.405	80.005	19.994	103.281	20.096	3.692	0.507
264.000	211.246	80.007	19.994	103.278	20.095	3.744	0.443
272.000	215.080	80.005	19.995	103.274	20.092	3.945	0.483
280.000	218.962	80.008	19.995	103.277	20.097	3.612	0.467
288.000	222.887	80.007	19.994	103.278	20.097	3.569	0.494
296.001	226.814	80.010	19.996	103.273	20.100	3.384	0.497
304.000	230.834	80.006	19.996	103.278	20.104	3.042	0.528
312.001	234.879	80.006	19.995	103.269	20.100	3.354	0.515
320.000	238.970	80.008	19.995	103.261	20.101	3.310	0.521
328.000	242.948	80.007	19.994	103.263	20.100	3.359	0.497
336.001	246.999	80.007	19.995	103.259	20.098	3.481	0.500
344.000	251.039	80.009	19.994	103.258	20.100	3.381	0.459
352.000	255.083	80.009	19.994	103.254	20.099	3.430	0.529
360.000	259.077	80.009	19.994	103.261	20.101	3.284	0.498
368.001	262.973	80.009	19.994	103.251	20.098	3.493	0.441
376.000	266.996	80.009	19.994	103.252	20.097	3.583	0.501
384.000	270.936	80.008	19.996	103.250	20.095	3.710	0.452
392.000	274.945	80.006	19.995	103.245	20.096	3.668	0.493
400.000	278.942	80.007	19.995	103.245	20.095	3.769	0.511
408.000	282.986	80.008	19.993	103.249	20.095	3.731	0.504
416.000	287.031	80.008	19.994	103.247	20.096	3.705	0.500
424.000	291.067	80.005	19.994	103.249	20.096	3.638	0.530
432.000	295.136	80.009	19.994	103.247	20.091	4.026	0.523
440.000	299.157	80.008	19.995	103.243	20.094	3.808	0.507
448.000	303.183	80.010	19.993	103.242	20.093	3.867	0.517
456.000	307.222	80.010	19.994	103.233	20.091	4.061	0.500
464.000	311.233	80.011	19.995	103.237	20.094	3.815	0.518
472.001	315.332	80.008	19.994	103.231	20.095	3.745	0.534
480.000	319.434	80.007	19.994	103.232	20.094	3.806	0.544
488.000	323.471	80.006	19.994	103.230	20.092	3.993	0.505
496.000	327.474	80.007	19.995	103.209	20.091	4.092	0.495
504.000	331.560	80.008	19.995	103.224	20.087	4.349	0.531
512.000	335.663	80.009	19.995	103.215	20.085	4.499	0.480
520.000	339.523	80.010	19.993	103.208	20.087	4.370	0.400
528.000	343.783	80.009	19.994	103.208	20.080	4.869	0.472
536.000	347.865	80.010	19.994	103.212	20.079	5.004	0.513
544.000	351.939	80.010	19.993	103.220	20.079	4.965	0.547
552.000	356.018	80.007	19.994	103.210	20.080	4.892	0.513
560.000	360.158	80.009	19.995	103.213	20.066	5.949	0.507
568.000	364.262	80.009	19.995	103.212	20.062	6.305	0.493
576.000	368.348	80.008	19.995	103.210	20.046	7.531	0.528
584.000	372.476	80.007	19.995	103.217	20.031	8.685	0.527
592.000	376.690	80.008	19.996	103.216	20.011	10.233	0.536
600.000	380.779	80.029	19.997	103.242	19.984	12.309	0.510
608.000	384.893	80.009	19.995	103.247	19.950	14.886	0.491
616.000	388.970	80.009	19.994	103.255	19.910	17.953	0.497
624.000	393.097	80.009	19.994	103.286	19.856	22.099	0.559
632.000	397.267	80.009	19.994	103.280	19.808	25.860	0.542
640.000	401.404	80.008	19.994	103.322	19.730	31.831	0.513
648.000	405.530	80.009	19.994	103.356	19.638	38.955	0.501
656.001	409.617	80.007	19.996	103.400	19.506	49.126	0.502
664.000	413.677	80.008	19.995	103.474	19.364	60.172	0.521
672.000	417.647	80.007	19.994	103.519	19.181	74.248	0.528
680.000	421.635	80.008	19.994	103.576	18.943	92.702	0.508
688.000	425.604	80.008	19.995	103.770	18.661	114.601	0.512
696.000	429.552	80.008	19.995	103.754	18.413	133.830	0.520
704.000	433.580	80.011	19.994	103.835	18.246	146.885	0.510
712.000	437.623	80.011	19.993	103.942	18.066	160.857	0.503
720.000	441.603	80.008	19.994	103.953	17.910	172.970	0.498
728.000	445.674	80.008	19.993	103.988	17.841	178.205	0.499
736.000	449.669	80.009	19.994	103.979	17.915	172.366	0.499
744.000	453.666	80.008	19.994	103.901	18.168	152.615	0.479
752.000	457.730	80.005	19.995	103.771	18.546	123.277	0.513
760.000	461.822	80.008	19.996	103.625	19.005	87.714	0.500
768.000	465.949	80.008	19.993	103.520	19.384	58.495	0.542
776.001	470.074	80.008	19.996	103.405	19.625	39.906	0.530
784.001	474.177	80.007	19.995	103.356	19.777	28.177	0.537
792.000	478.330	80.010	19.994	103.315	19.873	20.805	0.541
800.000	482.470	80.008	19.994	103.283	19.940	15.645	0.523
808.000	486.510	80.004	19.994	103.270	19.982	12.473	0.530
816.000	490.637	80.007	19.993	103.247	20.011	10.199	0.519
824.000	494.782	80.008	19.994	103.236	20.019	9.587	0.517
832.000	498.879	80.007	19.993	103.215	20.027	8.956	0.526
840.000	502.920	80.006	19.994	103.208	20.038	8.130	0.526
848.000	506.971	80.010	19.994	103.206	20.039	8.071	0.483
856.000	511.103	80.010	19.995	103.205	20.043	7.713	0.508
864.000	515.211	80.008	19.995	103.208	20.045	7.616	0.507
872.000	519.382	80.011	19.995	103.200	20.048	7.331	0.527
880.000	523.531	80.010	19.994	103.197	20.044	7.673	0.526
888.000	527.642	80.007	19.993	103.200	20.043	7.761	0.522
896.000	531.703	80.010	19.994	103.180	20.051	7.093	0.496
904.000	535.836	80.009	19.994	103.196	20.045	7.571	0.549
912.000	539.975	80.008	19.993	103.183	20.048	7.331	0.524
920.000	544.121	80.008	19.995	103.199	20.042	7.792	0.513
928.000	548.334	80.010	19.994	103.187	20.042	7.840	0.521
936.000	552.475	80.009	19.994	103.191	20.037	8.196	0.475
944.000	556.723	80.008	19.994	103.190	20.037	8.228	0.494
952.000	560.892	80.010	19.994	103.182	20.039	8.034	0.528
960.000	565.017	80.010	19.993	103.184	20.040	7.989	0.489
968.000	569.181	80.007	19.994	103.176	20.038	8.113	0.513
976.000	573.372	80.007	19.995	103.167	20.036	8.271	0.525
984.001	577.557	80.009	19.995	103.168	20.036	8.300	0.503
992.000	581.652	80.008	19.995	103.176	20.035	8.322	0.496
1000.000	585.690	80.006	19.995	103.176	20.033	8.534	0.502
1008.000	589.852	80.007	19.994	103.179	20.027	8.938	0.507
1016.000	593.957	80.009	19.993	103.172	20.024	9.213	0.512
1024.000	597.966	80.009	19.993	103.175	20.024	9.203	0.481
1032.000	601.964	80.009	19.994	103.169	20.025	9.150	0.502
1040.000	606.037	80.012	19.994	103.169	20.022	9.342	0.491
1048.000	610.112	80.009	19.994	103.165	20.024	9.173	0.489
1056.001	614.211	80.009	19.995	103.166	20.023	9.266	0.536
1064.000	618.293	80.008	19.995	103.168	20.029	8.839	0.497
1072.000	622.330	80.007	19.996	103.169	20.031	8.628	0.459
1080.000	626.373	80.007	19.994	103.170	20.031	8.658	0.460
1088.000	630.487	80.008	19.994	103.171	20.035	8.343	0.509
1096.000	634.617	80.009	19.995	103.167	20.034	8.451	0.495
1104.000	638.710	80.008	19.995	103.165	20.038	8.117	0.522
1112.001	642.813	80.010	19.992	103.171	20.045	7.554	0.519
1120.000	646.932	80.009	19.994	103.166	20.048	7.369	0.504
1128.000	651.063	80.010	19.992	103.166	20.047	7.416	0.499
1136.000	655.269	80.007	19.994	103.165	20.046	7.521	0.540
1144.000	659.263	80.007	19.994	103.163	20.050	7.233	0.511
1152.000	663.299	80.006	19.993	103.164	20.046	7.527	0.494
1160.000	667.322	80.007	19.995	103.166	20.051	7.105	0.527
1168.001	671.356	80.006	19.995	103.163	20.052	7.079	0.503
1176.001	675.422	80.007	19.996	103.162	20.046	7.500	0.511
1184.000	679.599	80.009	19.996	103.156	20.050	7.228	0.520
1192.000	683.601	80.010	19.995	103.156	20.049	7.255	0.500
1200.000	687.699	80.009	19.995	103.157	20.046	7.470	0.456
1208.000	691.772	80.012	19.994	103.162	20.054	6.929	0.489
1216.000	695.865	80.008	19.993	103.162	20.048	7.321	0.536
1224.000	699.867	80.008	19.995	103.166	20.049	7.242	0.493
1232.000	703.901	80.008	19.996	103.147	20.045	7.549	0.531
1240.000	707.860	80.007	19.995	103.143	20.052	7.008	0.466
1248.000	711.834	80.008	19.994	103.151	20.050	7.222	0.487
1256.000	715.940	80.008	19.994	103.150	20.048	7.367	0.505
1264.000	719.944	80.009	19.996	103.146	20.049	7.252	0.517
1272.000	723.926	80.009	19.995	103.156	20.049	7.249	0.500
1280.000	728.048	80.008	19.994	103.146	20.051	7.097	0.493
1288.000	732.154	80.010	19.995	103.157	20.055	6.809	0.492
1296.000	736.222	80.010	19.994	103.142	20.050	7.165	0.522
1304.000	740.243	80.008	19.994	103.151	20.052	7.072	0.465
1310.501	743.524	80.010	19.994	103.149	20.049	7.247	0.507

File: Polyester_Microfiber_Sheet_MCC_30K_min_211209_R2.txt
Sample ID:	C:\MCC\MCC Cal\Test\Polyester_Microfiber_Sheet_MCC_30K_min_211209_R2.txt
Sample Weight (mg):	4.76
Heating Rate (C/s):	0.5
Combustor Temp (C):	900
N2 Flow Rate (cc/min):	80
O2 Flow Rate (cc/min):	20
Calibration File:	C:\MCC\MCC Cal\Coeff1 JN10440_30_210304.txt.txt
T Correction Coefficients:	0	1.024463	0
Time Shift (s):	14
*
Time (s)	Temperature (C)	N2 flow rate (cc/min)	O2 flow rate (cc/min)	Flow Rate (cc/min)	Oxygen (%)	HRR (W/g)	Heating rate (C/s)
-0.001	107.856	80.008	19.995	103.083	19.817	-0.099	-0.042
8.000	107.864	80.008	19.997	103.061	19.816	-0.038	-0.021
16.000	107.892	80.009	19.995	103.093	19.813	0.163	-0.012
24.000	108.121	80.009	19.995	103.187	19.801	0.951	0.073
32.000	108.665	80.009	19.994	103.263	19.786	1.964	0.095
39.999	109.746	80.010	19.994	103.283	19.773	2.881	0.185
47.999	111.234	80.008	19.994	103.292	19.772	2.936	0.224
55.999	113.027	80.008	19.994	103.323	19.768	3.232	0.241
63.999	115.253	80.009	19.994	103.312	19.772	2.943	0.281
72.000	117.745	80.007	19.995	103.320	19.770	3.069	0.319
79.999	120.493	80.008	19.995	103.326	19.768	3.223	0.377
87.999	123.468	80.008	19.994	103.323	19.768	3.185	0.387
95.999	126.568	80.008	19.994	103.323	19.764	3.454	0.397
103.999	129.854	80.009	19.996	103.325	19.767	3.260	0.433
111.999	133.240	80.009	19.995	103.327	19.770	3.071	0.463
119.999	136.766	80.011	19.994	103.330	19.763	3.524	0.438
128.000	140.462	80.009	19.994	103.329	19.771	3.037	0.451
136.000	144.250	80.008	19.995	103.332	19.767	3.258	0.443
144.000	148.127	80.009	19.994	103.325	19.771	3.013	0.458
152.000	152.099	80.010	19.994	103.334	19.775	2.720	0.491
160.000	156.089	80.009	19.995	103.325	19.770	3.106	0.489
168.000	160.095	80.007	19.995	103.326	19.771	3.007	0.474
176.000	164.081	80.009	19.995	103.322	19.768	3.206	0.513
184.000	168.207	80.009	19.994	103.321	19.770	3.076	0.514
192.000	172.137	80.010	19.996	103.300	19.775	2.759	0.520
200.000	176.123	80.009	19.995	103.289	19.775	2.750	0.525
208.000	180.118	80.009	19.995	103.287	19.774	2.801	0.510
216.000	184.120	80.008	19.994	103.294	19.777	2.613	0.488
224.000	188.125	80.010	19.994	103.283	19.777	2.602	0.511
232.000	192.051	80.009	19.994	103.289	19.775	2.735	0.486
240.000	196.001	80.008	19.995	103.285	19.781	2.357	0.486
248.000	199.985	80.008	19.995	103.286	19.780	2.424	0.527
256.000	203.889	80.011	19.994	103.287	19.776	2.675	0.487
264.000	207.836	80.009	19.995	103.273	19.778	2.510	0.488
272.000	211.784	80.010	19.995	103.275	19.775	2.706	0.505
280.000	215.713	80.010	19.994	103.276	19.778	2.552	0.481
288.000	219.655	80.011	19.995	103.253	19.778	2.504	0.467
296.000	223.632	80.007	19.996	103.265	19.780	2.395	0.513
304.000	227.670	80.007	19.994	103.269	19.781	2.343	0.494
312.000	231.697	80.008	19.994	103.263	19.781	2.356	0.495
320.000	235.692	80.009	19.994	103.247	19.782	2.259	0.505
328.000	239.713	80.008	19.994	103.248	19.783	2.199	0.483
336.000	243.743	80.009	19.994	103.242	19.788	1.824	0.488
344.000	247.707	80.010	19.993	103.243	19.792	1.594	0.501
352.000	251.740	80.009	19.995	103.241	19.793	1.517	0.545
360.000	255.682	80.010	19.995	103.245	19.796	1.303	0.498
368.000	259.667	80.010	19.995	103.242	19.794	1.444	0.530
376.000	263.581	80.007	19.996	103.243	19.791	1.687	0.503
384.000	267.486	80.007	19.995	103.246	19.791	1.632	0.505
392.000	271.478	80.008	19.995	103.217	19.794	1.471	0.524
400.000	275.452	80.008	19.995	103.212	19.797	1.239	0.493
408.000	279.446	80.009	19.994	103.216	19.797	1.228	0.497
416.000	283.422	80.009	19.995	103.231	19.794	1.436	0.495
424.000	287.445	80.010	19.994	103.224	19.795	1.394	0.493
432.000	291.447	80.009	19.993	103.219	19.799	1.089	0.525
440.000	295.482	80.010	19.994	103.215	19.798	1.157	0.475
448.000	299.512	80.010	19.993	103.228	19.798	1.193	0.499
456.000	303.486	80.008	19.994	103.208	19.799	1.138	0.469
464.000	307.494	80.009	19.994	103.210	19.798	1.180	0.482
472.000	311.514	80.008	19.994	103.206	19.799	1.082	0.519
480.000	315.591	80.008	19.996	103.204	19.801	0.952	0.509
488.000	319.674	80.007	19.995	103.205	19.809	0.451	0.511
496.000	323.700	80.008	19.995	103.210	19.807	0.544	0.493
504.000	327.737	80.009	19.995	103.208	19.804	0.786	0.500
512.000	331.777	80.010	19.994	103.209	19.801	0.961	0.490
520.000	335.833	80.010	19.995	103.207	19.806	0.632	0.492
528.000	339.844	80.012	19.994	103.205	19.805	0.687	0.488
536.000	343.879	80.011	19.994	103.204	19.808	0.495	0.478
544.000	347.967	80.008	19.995	103.203	19.803	0.813	0.510
552.000	352.023	80.008	19.994	103.200	19.800	1.034	0.505
560.000	356.104	80.009	19.995	103.204	19.800	1.072	0.472
568.000	360.214	80.007	19.994	103.208	19.797	1.279	0.531
576.000	364.312	80.007	19.994	103.206	19.784	2.114	0.505
584.000	368.409	80.009	19.995	103.207	19.769	3.135	0.513
592.000	372.490	80.009	19.994	103.205	19.752	4.285	0.518
600.000	376.561	80.008	19.993	103.207	19.728	5.951	0.528
608.000	380.728	80.010	19.994	103.228	19.708	7.278	0.532
616.000	384.835	80.009	19.995	103.233	19.675	9.518	0.534
624.000	388.912	80.008	19.994	103.256	19.627	12.748	0.475
632.000	393.010	80.008	19.995	103.277	19.575	16.251	0.510
640.000	397.213	80.007	19.995	103.297	19.514	20.394	0.532
648.000	401.272	80.008	19.995	103.328	19.435	25.792	0.525
656.000	405.324	80.006	19.995	103.345	19.321	33.506	0.513
664.000	409.457	80.008	19.996	103.391	19.220	40.407	0.507
672.000	413.576	80.008	19.995	103.472	19.060	51.271	0.540
680.000	417.604	80.009	19.995	103.516	18.860	64.906	0.515
688.000	421.667	80.009	19.994	103.606	18.602	82.604	0.519
696.000	425.684	80.010	19.993	103.855	18.204	109.789	0.538
704.000	429.655	80.008	19.995	103.578	17.922	128.929	0.506
712.000	433.781	80.008	19.993	103.938	17.707	143.816	0.530
720.000	437.874	80.008	19.995	104.050	17.545	154.862	0.527
728.000	441.887	80.007	19.994	104.058	17.387	165.657	0.411
736.000	445.857	80.007	19.994	104.077	17.308	171.018	0.768
744.000	449.992	80.009	19.995	104.061	17.396	164.819	0.463
752.000	454.081	80.009	19.994	103.986	17.675	145.630	0.536
760.000	458.030	80.010	19.995	103.850	18.108	115.971	0.487
768.000	462.129	80.008	19.994	103.703	18.616	81.421	0.519
776.000	466.212	80.011	19.993	103.576	19.052	51.746	0.477
784.000	470.256	80.007	19.994	103.443	19.331	32.801	0.512
792.000	474.417	80.008	19.994	103.352	19.506	20.942	0.542
800.000	478.545	80.008	19.994	103.314	19.616	13.470	0.471
808.000	482.619	80.008	19.995	103.281	19.692	8.379	0.510
816.000	486.690	80.006	19.993	103.249	19.735	5.435	0.544
824.000	490.718	80.007	19.994	103.236	19.765	3.420	0.520
832.000	494.828	80.008	19.995	103.220	19.788	1.844	0.534
840.000	498.829	80.008	19.995	103.205	19.804	0.802	0.461
848.000	502.848	80.008	19.995	103.196	19.814	0.113	0.505
856.000	506.999	80.009	19.996	103.198	19.815	0.013	0.486
864.000	511.124	80.008	19.995	103.196	19.820	-0.287	0.506
872.000	515.198	80.007	19.994	103.175	19.823	-0.482	0.517
880.000	519.385	80.006	19.994	103.169	19.826	-0.720	0.548
888.000	523.544	80.007	19.994	103.168	19.834	-1.242	0.534
896.000	527.683	80.006	19.994	103.170	19.829	-0.917	0.526
904.000	531.850	80.007	19.995	103.173	19.828	-0.862	0.510
912.000	536.007	80.010	19.995	103.168	19.835	-1.306	0.497
920.000	540.143	80.008	19.995	103.168	19.832	-1.087	0.536
928.000	544.304	80.010	19.996	103.166	19.836	-1.399	0.497
936.000	548.492	80.010	19.994	103.162	19.832	-1.127	0.522
944.000	552.589	80.006	19.994	103.154	19.833	-1.216	0.520
952.000	556.721	80.005	19.995	103.156	19.829	-0.899	0.529
960.000	560.817	80.007	19.993	103.161	19.833	-1.182	0.491
968.000	564.866	80.007	19.994	103.158	19.833	-1.216	0.531
976.000	568.962	80.006	19.996	103.157	19.836	-1.360	0.522
984.000	573.033	80.007	19.994	103.160	19.837	-1.431	0.525
992.000	577.235	80.010	19.995	103.155	19.835	-1.342	0.536
1000.000	581.343	80.010	19.994	103.154	19.834	-1.284	0.519
1008.000	585.414	80.008	19.996	103.156	19.831	-1.079	0.497
1016.000	589.586	80.010	19.995	103.148	19.829	-0.922	0.522
1024.000	593.675	80.007	19.995	103.149	19.830	-1.004	0.532
1031.999	597.793	80.005	19.994	103.158	19.831	-1.061	0.525
1039.999	601.920	80.006	19.996	103.152	19.834	-1.225	0.524
1047.999	606.001	80.006	19.995	103.148	19.836	-1.395	0.474
1055.999	610.143	80.008	19.995	103.152	19.835	-1.324	0.487
1063.999	614.274	80.007	19.994	103.140	19.833	-1.163	0.512
1072.000	618.279	80.009	19.994	103.151	19.838	-1.547	0.456
1079.999	622.405	80.008	19.996	103.135	19.838	-1.523	0.510
1087.999	626.548	80.010	19.993	103.142	19.840	-1.629	0.528
1096.000	630.737	80.009	19.994	103.148	19.847	-2.112	0.515
1103.999	635.039	80.008	19.994	103.142	19.848	-2.193	0.553
1111.999	639.314	80.008	19.995	103.134	19.846	-2.059	0.529
1119.999	643.566	80.008	19.996	103.129	19.853	-2.567	0.494
1128.000	647.735	80.010	19.995	103.128	19.856	-2.757	0.511
1135.999	652.058	80.005	19.997	103.129	19.859	-2.954	0.566
1143.999	656.203	80.007	19.994	103.132	19.861	-3.075	0.529
1151.999	660.338	80.007	19.993	103.131	19.865	-3.328	0.504
1159.999	664.490	80.006	19.994	103.131	19.865	-3.350	0.511
1167.999	668.691	80.009	19.994	103.112	19.866	-3.423	0.516
1175.999	672.839	80.010	19.994	103.123	19.868	-3.585	0.521
1183.999	676.982	80.007	19.993	103.125	19.869	-3.602	0.479
1192.000	680.949	80.007	19.994	103.124	19.871	-3.779	0.494
1199.999	685.000	80.007	19.995	103.131	19.879	-4.319	0.466
1207.999	688.989	80.007	19.994	103.127	19.878	-4.212	0.467
1216.000	693.023	80.005	19.995	103.122	19.875	-4.037	0.526
1223.999	697.011	80.007	19.995	103.130	19.879	-4.299	0.490
1231.999	700.983	80.010	19.995	103.122	19.880	-4.378	0.495
1239.999	705.102	80.009	19.995	103.125	19.882	-4.502	0.518
1247.999	709.210	80.010	19.994	103.117	19.882	-4.516	0.499
1255.999	713.325	80.009	19.993	103.114	19.883	-4.595	0.546
1263.999	717.452	80.009	19.994	103.122	19.881	-4.438	0.503
1271.999	721.587	80.007	19.994	103.128	19.887	-4.803	0.535
1279.999	725.636	80.008	19.993	103.119	19.892	-5.157	0.514
1287.999	729.683	80.006	19.994	103.111	19.891	-5.114	0.489
1296.000	733.811	80.007	19.994	103.101	19.889	-4.945	0.507
1303.999	737.754	80.006	19.995	103.121	19.900	-5.698	0.479
1311.999	741.769	80.008	19.995	103.115	19.892	-5.199	0.468
1319.000	745.362	80.008	19.995	103.089	19.890	-5.029	0.500