Folder: fsri_materials_database/01_Data/Polyester_Microfiber_Sheet/MCC (part 2)

File: Polyester_Microfiber_Sheet_MCC_30K_min_211209_R3.txt
Sample ID:	C:\MCC\MCC Cal\Test\Polyester_Microfiber_Sheet_MCC_30K_min_211209_R3.txt
Sample Weight (mg):	4.85
Heating Rate (C/s):	0.5
Combustor Temp (C):	900
N2 Flow Rate (cc/min):	80
O2 Flow Rate (cc/min):	20
Calibration File:	C:\MCC\MCC Cal\Coeff1 JN10440_30_210304.txt.txt
T Correction Coefficients:	0	1.024463	0
Time Shift (s):	14
*
Time (s)	Temperature (C)	N2 flow rate (cc/min)	O2 flow rate (cc/min)	Flow Rate (cc/min)	Oxygen (%)	HRR (W/g)	Heating rate (C/s)
0.000	108.004	80.011	19.993	103.045	19.867	0.050	0.006
8.000	108.050	80.007	19.993	103.055	19.872	-0.245	0.017
16.000	108.112	80.011	19.995	103.125	19.858	0.712	0.017
24.000	108.495	80.009	19.993	103.166	19.850	1.207	0.050
32.000	109.174	80.008	19.994	103.207	19.845	1.544	0.080
40.000	110.176	80.008	19.994	103.246	19.838	1.975	0.155
48.000	111.631	80.010	19.995	103.259	19.834	2.280	0.239
56.000	113.389	80.011	19.994	103.246	19.831	2.446	0.272
64.000	115.388	80.010	19.995	103.258	19.828	2.692	0.266
72.001	117.565	80.011	19.996	103.273	19.828	2.665	0.267
80.000	120.057	80.011	19.995	103.279	19.829	2.598	0.309
88.000	122.780	80.008	19.994	103.285	19.832	2.426	0.337
96.000	125.613	80.008	19.994	103.284	19.828	2.688	0.348
104.000	128.582	80.009	19.994	103.285	19.824	2.910	0.398
112.000	131.642	80.008	19.995	103.297	19.821	3.170	0.378
120.000	134.861	80.008	19.994	103.315	19.822	3.044	0.401
128.000	138.307	80.010	19.994	103.311	19.822	3.080	0.485
136.000	141.799	80.009	19.995	103.312	19.823	3.026	0.429
144.000	145.470	80.009	19.995	103.307	19.822	3.104	0.428
152.000	149.195	80.010	19.996	103.297	19.824	2.968	0.481
160.000	152.990	80.009	19.994	103.305	19.826	2.786	0.473
168.000	156.857	80.007	19.996	103.300	19.822	3.058	0.471
176.000	160.737	80.007	19.995	103.296	19.828	2.649	0.489
184.000	164.704	80.009	19.994	103.303	19.826	2.828	0.505
192.000	168.744	80.008	19.995	103.290	19.828	2.677	0.508
200.000	172.704	80.009	19.995	103.282	19.830	2.559	0.501
208.000	176.729	80.009	19.996	103.279	19.833	2.358	0.478
216.000	180.775	80.009	19.994	103.278	19.831	2.455	0.482
224.000	184.782	80.009	19.993	103.282	19.829	2.595	0.511
232.000	188.847	80.009	19.995	103.279	19.830	2.550	0.481
240.000	192.810	80.011	19.994	103.267	19.833	2.365	0.513
248.000	196.737	80.007	19.995	103.257	19.834	2.264	0.502
256.000	200.700	80.007	19.995	103.254	19.832	2.416	0.504
264.000	204.701	80.008	19.994	103.243	19.835	2.232	0.526
272.000	208.660	80.009	19.996	103.243	19.836	2.172	0.504
280.000	212.619	80.007	19.995	103.246	19.839	1.964	0.505
288.000	216.567	80.008	19.994	103.256	19.835	2.181	0.507
296.000	220.464	80.008	19.994	103.252	19.841	1.812	0.469
304.000	224.446	80.008	19.994	103.246	19.838	1.984	0.501
312.000	228.417	80.008	19.994	103.250	19.843	1.681	0.502
320.000	232.474	80.012	19.993	103.240	19.840	1.900	0.547
328.000	236.440	80.009	19.993	103.240	19.842	1.742	0.485
336.000	240.421	80.007	19.994	103.236	19.844	1.578	0.509
344.000	244.481	80.007	19.994	103.220	19.843	1.645	0.467
352.000	248.579	80.008	19.996	103.234	19.847	1.401	0.515
360.000	252.652	80.008	19.996	103.227	19.850	1.236	0.481
368.000	256.603	80.007	19.995	103.219	19.853	1.035	0.499
376.000	260.530	80.009	19.994	103.224	19.852	1.072	0.497
384.000	264.462	80.009	19.994	103.215	19.850	1.223	0.478
392.000	268.409	80.007	19.994	103.213	19.853	1.040	0.481
400.000	272.432	80.009	19.994	103.209	19.850	1.210	0.503
408.000	276.367	80.009	19.993	103.217	19.853	1.013	0.466
416.000	280.351	80.006	19.995	103.211	19.855	0.889	0.471
424.000	284.387	80.006	19.994	103.222	19.855	0.879	0.481
432.000	288.404	80.007	19.995	103.209	19.851	1.124	0.507
440.000	292.430	80.007	19.994	103.209	19.857	0.776	0.525
448.000	296.395	80.005	19.996	103.206	19.851	1.112	0.484
456.000	300.523	80.006	19.994	103.203	19.860	0.545	0.514
464.000	304.574	80.008	19.994	103.201	19.858	0.671	0.514
472.000	308.547	80.008	19.994	103.203	19.856	0.785	0.492
480.000	312.603	80.009	19.993	103.202	19.860	0.536	0.514
488.000	316.641	80.010	19.994	103.204	19.860	0.574	0.509
496.000	320.650	80.007	19.994	103.205	19.857	0.744	0.501
504.000	324.663	80.006	19.994	103.206	19.859	0.606	0.500
512.000	328.692	80.008	19.995	103.204	19.858	0.662	0.512
520.000	332.731	80.007	19.995	103.202	19.857	0.717	0.517
528.000	336.784	80.005	19.994	103.203	19.856	0.785	0.509
536.000	340.865	80.007	19.994	103.194	19.858	0.680	0.533
544.000	344.890	80.009	19.995	103.194	19.859	0.608	0.523
552.000	348.946	80.007	19.995	103.194	19.861	0.500	0.508
560.000	353.070	80.009	19.992	103.201	19.861	0.500	0.534
568.000	357.150	80.010	19.995	103.197	19.857	0.714	0.521
576.000	361.218	80.007	19.996	103.196	19.851	1.122	0.487
584.000	365.226	80.008	19.995	103.202	19.843	1.691	0.507
592.000	369.243	80.008	19.995	103.199	19.829	2.580	0.487
600.000	373.353	80.009	19.996	103.202	19.817	3.421	0.543
608.000	377.407	80.006	19.996	103.198	19.794	4.901	0.526
616.000	381.523	80.008	19.993	103.211	19.771	6.426	0.561
624.000	385.622	80.010	19.997	103.219	19.737	8.722	0.507
632.000	389.712	80.007	19.995	103.247	19.692	11.710	0.504
640.000	393.813	80.008	19.996	103.246	19.629	15.864	0.522
648.000	397.993	80.010	19.994	103.272	19.569	19.877	0.506
656.000	402.208	80.005	19.994	103.325	19.504	24.208	0.535
664.000	406.356	80.007	19.994	103.336	19.409	30.578	0.511
672.000	410.539	80.007	19.995	103.360	19.280	39.164	0.511
680.000	414.632	80.007	19.994	103.458	19.131	49.093	0.490
688.000	418.731	80.005	19.995	103.512	18.932	62.384	0.498
696.000	422.847	80.007	19.993	103.592	18.679	79.412	0.542
704.000	426.824	80.008	19.997	103.705	18.379	99.495	0.482
712.000	430.821	80.009	19.996	103.792	17.990	125.645	0.523
720.000	434.871	80.010	19.995	103.965	17.633	149.689	0.521
728.000	438.911	80.010	19.993	103.920	17.451	161.860	0.512
736.000	442.920	80.008	19.995	104.075	17.363	167.798	0.501
744.000	446.940	80.007	19.995	104.119	17.309	171.288	0.510
752.000	451.010	80.006	19.995	104.063	17.395	165.404	0.509
760.000	455.124	80.008	19.993	103.994	17.671	146.723	0.524
768.000	459.229	80.004	19.995	103.855	18.108	117.340	0.543
776.000	463.315	80.007	19.992	103.697	18.617	83.351	0.520
784.000	467.386	80.010	19.992	103.576	19.075	52.745	0.517
792.000	471.456	80.008	19.995	103.436	19.365	33.478	0.516
800.000	475.648	80.009	19.996	103.357	19.546	21.398	0.512
808.000	479.825	80.009	19.994	103.305	19.660	13.822	0.528
816.000	483.941	80.004	19.996	103.270	19.736	8.752	0.510
824.000	488.067	80.005	19.995	103.244	19.779	5.923	0.542
832.000	492.177	80.006	19.995	103.224	19.811	3.823	0.481
840.000	496.407	80.008	19.993	103.203	19.828	2.652	0.550
848.000	500.599	80.005	19.995	103.201	19.845	1.569	0.513
856.000	504.693	80.006	19.996	103.174	19.853	1.007	0.521
864.000	508.711	80.008	19.996	103.166	19.858	0.679	0.482
872.000	512.812	80.007	19.993	103.164	19.860	0.538	0.490
880.000	516.938	80.008	19.993	103.168	19.861	0.479	0.508
888.000	520.995	80.010	19.997	103.159	19.867	0.106	0.473
896.000	525.107	80.006	19.995	103.164	19.872	-0.276	0.479
904.000	529.174	80.005	19.994	103.157	19.872	-0.256	0.550
912.000	533.343	80.004	19.996	103.147	19.869	-0.050	0.480
920.000	537.341	80.006	19.996	103.152	19.872	-0.240	0.549
928.000	541.281	80.006	19.995	103.156	19.877	-0.574	0.468
936.000	545.347	80.006	19.995	103.149	19.875	-0.421	0.502
944.000	549.352	80.008	19.994	103.151	19.879	-0.744	0.567
952.000	553.304	80.008	19.995	103.152	19.874	-0.382	0.464
960.000	557.362	80.007	19.994	103.149	19.875	-0.444	0.539
968.000	561.393	80.011	19.993	103.147	19.875	-0.432	0.511
976.000	565.439	80.007	19.995	103.160	19.877	-0.586	0.487
984.000	569.522	80.010	19.997	103.146	19.874	-0.412	0.522
992.000	573.597	80.006	19.996	103.152	19.874	-0.392	0.503
1000.000	577.721	80.006	19.995	103.137	19.873	-0.290	0.519
1008.000	581.750	80.006	19.996	103.141	19.874	-0.376	0.508
1016.000	585.851	80.005	19.995	103.138	19.873	-0.292	0.507
1024.000	589.910	80.009	19.995	103.107	19.871	-0.158	0.533
1032.000	594.029	80.008	19.995	103.151	19.868	0.002	0.547
1040.001	598.130	80.008	19.994	103.148	19.869	-0.034	0.512
1048.000	602.205	80.010	19.994	103.144	19.869	-0.034	0.503
1056.000	606.333	80.009	19.995	103.148	19.869	-0.072	0.523
1064.000	610.464	80.006	19.996	103.144	19.868	-0.013	0.515
1072.000	614.592	80.005	19.995	103.134	19.868	-0.016	0.522
1080.000	618.677	80.007	19.996	103.133	19.865	0.229	0.506
1088.000	622.708	80.005	19.995	103.134	19.871	-0.161	0.515
1096.000	626.775	80.006	19.996	103.129	19.873	-0.287	0.539
1104.000	630.858	80.008	19.996	103.128	19.875	-0.434	0.534
1112.000	634.970	80.008	19.996	103.131	19.878	-0.636	0.441
1120.000	639.151	80.008	19.995	103.129	19.878	-0.676	0.517
1128.000	643.254	80.009	19.994	103.128	19.885	-1.091	0.528
1136.001	647.348	80.007	19.994	103.126	19.887	-1.249	0.490
1144.000	651.526	80.006	19.994	103.131	19.886	-1.179	0.516
1152.000	655.688	80.007	19.994	103.128	19.891	-1.521	0.539
1160.000	659.694	80.007	19.996	103.127	19.895	-1.765	0.499
1168.000	663.740	80.008	19.996	103.127	19.894	-1.709	0.457
1176.000	667.386	80.004	19.995	103.125	19.894	-1.681	0.206
1184.000	671.978	80.007	19.995	103.120	19.894	-1.718	0.477
1192.000	676.090	80.006	19.997	103.126	19.894	-1.718	0.542
1200.001	680.209	80.005	19.995	103.123	19.905	-2.453	0.665
1208.001	684.330	80.008	19.992	103.125	19.897	-1.935	0.519
1216.000	688.380	80.011	19.996	103.124	19.901	-2.141	0.437
1224.000	692.462	80.007	19.996	103.103	19.900	-2.116	0.506
1232.000	696.523	80.007	19.995	103.122	19.899	-2.028	0.537
1240.000	700.543	80.007	19.997	103.118	19.896	-1.829	0.515
1248.000	704.591	80.006	19.995	103.102	19.902	-2.216	0.524
1256.000	708.606	80.005	19.995	103.106	19.897	-1.937	0.532
1264.000	712.627	80.006	19.995	103.117	19.900	-2.139	0.516
1272.000	716.702	80.006	19.995	103.122	19.902	-2.259	0.517
1280.000	720.742	80.006	19.995	103.126	19.905	-2.417	0.504
1288.000	724.844	80.008	19.996	103.112	19.904	-2.379	0.517
1296.001	728.846	80.008	19.995	103.088	19.906	-2.475	0.477
1304.000	732.880	80.006	19.995	103.117	19.906	-2.474	0.512
1312.000	736.936	80.006	19.995	103.092	19.901	-2.184	0.503
1320.000	740.905	80.005	19.995	103.099	19.906	-2.497	0.503
1325.000	743.431	80.006	19.994	103.104	19.905	-2.436	0.493