Folder: fsri_materials_database/01_Data/Corian_Countertop/HFM

Note: 01_Data/README.md
# Materials and Products Database
## 01_Data

Raw data generated from each apparatus are included here in plain-text format. The data is organized first by material, next by the short name of test apparatus used, and where applicable additional filtering by test settings.

### material.json

Each material directory contains a json file of the same name as the material. This file links the data stored in the repository as well as data and graphs produced by the accompanying scripts (__02_Scripts__) to the respective landing page for the material on the front-end website.

File: Corian_Countertop_Density_Dry_R1.csv
,Corian_Countertop_DRY_1
Sample Mass [g],850.2
Sample Volume [cm3],508.7
Sample Density [kg/m3],1671

File: Corian_Countertop_Density_Dry_R2.csv
,Corian_Countertop_DRY_2
Sample Mass [g],848.5
Sample Volume [cm3],502.6
Sample Density [kg/m3],1688

File: Corian_Countertop_Density_Dry_R3.csv
,Corian_Countertop_DRY_3
Sample Mass [g],849.5
Sample Volume [cm3],508.0
Sample Density [kg/m3],1672

File: Corian_Countertop_Ignition_Temp_Properties.csv
Thermal Conductivity (W/m-K),0.386
Heat Capacity (J/kg-K),
Density (kg/m3),