Folder: fsri_materials_database/01_Data/Corian_Countertop/MCC (part 2)

File: Corian_Countertop_30K_min_210930_R3.txt
Sample ID:	C:\MCC\MCC Cal\Test\Corian_Countertop_30K_min_210930_R3.txt
Sample Weight (mg):	4.89
Heating Rate (C/s):	0.5
Combustor Temp (C):	900
N2 Flow Rate (cc/min):	80
O2 Flow Rate (cc/min):	20
Calibration File:	C:\MCC\MCC Cal\Coeff1 JN10440_30_210304.txt.txt
T Correction Coefficients:	0	1.024463	0
Time Shift (s):	14
*
Time (s)	Temperature (C)	N2 flow rate (cc/min)	O2 flow rate (cc/min)	Flow Rate (cc/min)	Oxygen (%)	HRR (W/g)	Heating rate (C/s)
-0.001	107.144	79.999	19.997	100.553	20.465	0.062	0.006
8.000	107.127	80.000	19.995	100.553	20.465	0.055	-0.019
16.000	107.141	80.000	19.994	100.605	20.453	0.790	0.000
24.000	107.354	80.002	19.994	100.645	20.442	1.518	0.058
32.000	107.822	80.002	19.996	100.705	20.434	2.021	0.080
39.999	108.732	80.002	19.998	100.760	20.426	2.542	0.143
47.999	110.067	80.003	19.997	100.744	20.418	3.053	0.162
55.999	111.719	80.002	19.996	100.789	20.419	3.023	0.208
63.999	113.759	79.999	19.997	100.803	20.414	3.324	0.260
71.999	116.093	79.999	19.995	100.806	20.409	3.634	0.322
79.999	118.713	80.000	19.996	100.854	20.409	3.660	0.315
88.000	121.555	80.000	19.994	100.802	20.406	3.833	0.367
95.999	124.524	79.999	19.996	100.803	20.404	3.977	0.364
103.999	127.622	80.002	19.996	100.802	20.402	4.061	0.352
112.000	130.895	80.002	19.996	100.798	20.405	3.924	0.402
120.000	134.251	80.000	19.997	100.803	20.403	4.012	0.406
127.999	137.674	80.001	19.996	100.806	20.400	4.242	0.439
136.000	141.178	80.003	19.995	100.806	20.397	4.403	0.430
144.000	144.821	80.001	19.996	100.806	20.393	4.654	0.472
152.000	148.477	80.001	19.996	100.803	20.390	4.865	0.470
160.000	152.214	79.999	19.996	100.800	20.385	5.197	0.477
168.000	155.976	80.002	19.995	100.801	20.378	5.618	0.473
176.000	159.770	80.002	19.996	100.803	20.373	5.957	0.483
184.000	163.563	80.001	19.995	100.806	20.364	6.516	0.464
192.000	167.449	80.001	19.995	100.805	20.354	7.179	0.452
200.000	171.351	80.002	19.996	100.807	20.344	7.816	0.491
208.000	175.337	80.002	19.995	100.807	20.338	8.192	0.476
216.000	179.241	80.002	19.996	100.802	20.338	8.197	0.502
224.000	183.224	80.002	19.996	100.801	20.340	8.107	0.495
232.000	187.264	79.999	19.996	100.799	20.346	7.721	0.496
240.000	191.302	80.000	19.997	100.792	20.355	7.127	0.509
248.000	195.381	80.000	19.997	100.799	20.362	6.680	0.516
256.000	199.407	79.999	19.997	100.781	20.368	6.291	0.484
264.000	203.459	80.000	19.996	100.784	20.372	6.021	0.507
272.000	207.527	80.002	19.996	100.778	20.376	5.777	0.567
280.000	211.502	80.001	19.996	100.779	20.378	5.629	0.475
288.000	215.518	80.003	19.996	100.766	20.379	5.595	0.478
296.000	219.511	80.004	19.995	100.770	20.377	5.688	0.494
304.000	223.422	80.001	19.996	100.767	20.373	5.954	0.514
312.000	227.318	80.001	19.995	100.777	20.372	5.990	0.483
320.000	231.252	80.001	19.996	100.787	20.366	6.395	0.493
328.000	235.135	80.001	19.996	100.795	20.365	6.487	0.504
336.000	238.949	79.999	19.995	100.795	20.366	6.437	0.480
344.000	242.768	80.000	19.997	100.801	20.358	6.904	0.466
352.000	246.661	80.003	19.996	100.805	20.358	6.938	0.495
360.000	250.526	80.002	19.996	100.804	20.353	7.229	0.490
368.000	254.444	80.002	19.996	100.807	20.347	7.598	0.491
376.000	258.352	80.003	19.996	100.810	20.340	8.102	0.475
384.000	262.190	80.002	19.995	100.813	20.327	8.942	0.511
392.000	266.011	80.001	19.995	100.817	20.308	10.162	0.486
400.000	269.878	80.001	19.995	100.819	20.279	12.024	0.488
408.000	273.923	80.001	19.996	100.810	20.235	14.826	0.509
416.000	277.954	80.002	19.995	100.762	20.185	18.045	0.503
424.000	282.031	80.001	19.998	100.686	20.118	22.299	0.528
432.000	286.228	80.000	19.996	100.600	20.037	27.551	0.542
440.000	290.586	80.003	19.997	100.633	19.952	33.024	0.534
448.000	295.128	80.002	19.996	100.726	19.909	35.750	0.543
456.000	299.562	80.003	19.995	100.730	19.938	33.937	0.527
464.000	303.907	80.000	19.995	100.736	20.008	29.394	0.534
472.000	308.180	80.000	19.995	100.724	20.092	23.999	0.535
480.000	312.329	80.001	19.995	100.728	20.157	19.802	0.525
488.000	316.446	80.002	19.996	100.726	20.198	17.182	0.482
496.000	320.530	80.000	19.998	100.727	20.209	16.509	0.523
504.000	324.448	79.999	19.995	100.729	20.203	16.853	0.488
512.000	328.411	80.002	19.997	100.739	20.186	17.978	0.484
520.000	332.280	80.001	19.997	100.738	20.169	19.095	0.462
528.000	336.226	79.999	19.996	100.753	20.146	20.523	0.479
536.000	340.194	80.003	19.996	100.757	20.121	22.146	0.463
544.000	344.077	80.003	19.995	100.748	20.093	23.978	0.479
552.000	347.994	80.001	19.996	100.763	20.060	26.072	0.451
560.000	351.981	80.000	19.996	100.763	20.022	28.505	0.502
568.000	356.020	80.003	19.996	100.774	19.985	30.918	0.484
576.000	360.053	80.000	19.996	100.774	19.943	33.588	0.477
584.000	364.173	79.999	19.995	100.783	19.897	36.592	0.509
592.000	368.244	80.001	19.996	100.785	19.857	39.148	0.474
600.000	372.496	80.002	19.996	100.798	19.814	41.886	0.537
608.000	376.763	80.001	19.995	100.800	19.777	44.289	0.515
616.000	380.974	80.001	19.998	100.785	19.749	46.102	0.524
624.000	385.186	80.003	19.996	100.784	19.738	46.778	0.535
632.000	389.389	80.000	19.995	100.768	19.747	46.218	0.506
640.000	393.621	80.000	19.996	100.768	19.772	44.594	0.506
648.000	397.897	80.000	19.995	100.765	19.813	41.942	0.531
656.000	402.123	80.001	19.996	100.755	19.876	37.866	0.529
664.000	406.361	80.001	19.996	100.750	19.945	33.464	0.524
672.000	410.567	80.001	19.995	100.728	20.019	28.683	0.497
680.000	414.734	80.003	19.997	100.724	20.096	23.755	0.511
688.000	418.835	80.001	19.997	100.723	20.166	19.268	0.506
696.000	423.013	80.002	19.998	100.720	20.221	15.704	0.503
704.000	427.065	80.004	19.996	100.701	20.265	12.879	0.497
712.000	431.074	80.000	19.997	100.699	20.300	10.622	0.473
720.000	435.103	80.001	19.997	100.698	20.320	9.348	0.455
728.000	438.975	80.002	19.996	100.710	20.333	8.538	0.490
736.000	442.845	80.002	19.996	100.699	20.344	7.785	0.506
744.000	446.762	80.001	19.995	100.711	20.345	7.732	0.503
752.000	450.727	80.001	19.997	100.713	20.351	7.369	0.499
760.000	454.646	80.003	19.995	100.698	20.350	7.424	0.516
768.000	458.610	80.003	19.996	100.700	20.356	7.067	0.488
776.000	462.532	80.002	19.996	100.696	20.352	7.317	0.514
784.000	466.417	80.003	19.996	100.703	20.354	7.193	0.476
792.000	470.390	80.003	19.994	100.702	20.351	7.392	0.517
800.000	474.417	80.000	19.996	100.701	20.352	7.323	0.492
808.000	478.419	80.001	19.997	100.715	20.352	7.268	0.504
816.000	482.450	80.003	19.997	100.691	20.349	7.473	0.486
824.000	486.421	80.002	19.996	100.698	20.352	7.291	0.493
832.000	490.498	80.002	19.996	100.718	20.345	7.769	0.491
840.000	494.673	80.002	19.996	100.712	20.344	7.813	0.528
848.000	498.866	80.003	19.994	100.721	20.345	7.774	0.528
856.000	503.189	80.003	19.995	100.713	20.342	7.941	0.528
864.000	507.525	80.003	19.996	100.701	20.345	7.760	0.533
872.000	511.807	80.004	19.996	100.708	20.348	7.575	0.528
880.000	516.228	80.002	19.996	100.693	20.345	7.750	0.553
888.000	520.512	80.001	19.994	100.685	20.345	7.721	0.566
896.000	524.665	80.001	19.996	100.687	20.346	7.708	0.532
904.000	528.701	80.002	19.996	100.698	20.343	7.886	0.526
912.000	532.701	80.000	19.995	100.691	20.341	8.003	0.474
920.000	536.808	80.002	19.996	100.694	20.340	8.088	0.515
928.000	540.957	80.004	19.995	100.685	20.339	8.122	0.508
936.000	545.143	80.003	19.995	100.686	20.341	8.011	0.520
944.000	549.191	80.004	19.994	100.685	20.343	7.882	0.491
952.000	553.218	80.005	19.994	100.685	20.338	8.174	0.525
960.000	557.245	80.002	19.994	100.691	20.339	8.120	0.470
968.000	561.376	80.001	19.996	100.693	20.341	8.028	0.518
976.000	565.489	80.003	19.994	100.706	20.338	8.213	0.507
984.000	569.726	80.002	19.995	100.704	20.338	8.224	0.529
992.000	573.952	80.000	19.997	100.700	20.342	7.948	0.537
1000.000	578.194	80.001	19.997	100.685	20.339	8.114	0.528
1008.000	582.327	80.003	19.996	100.684	20.339	8.136	0.490
1016.000	586.488	80.004	19.995	100.684	20.340	8.050	0.538
1024.000	590.613	80.005	19.995	100.688	20.341	7.996	0.541
1031.999	594.721	80.005	19.996	100.688	20.340	8.089	0.509
1039.999	598.780	80.004	19.995	100.695	20.338	8.165	0.493
1047.999	602.808	80.001	19.994	100.699	20.342	7.953	0.494
1055.999	606.739	80.002	19.995	100.686	20.344	7.810	0.483
1064.000	610.457	80.002	19.998	100.686	20.338	8.192	0.464
1071.999	614.274	80.003	19.995	100.686	20.336	8.296	0.462
1080.000	618.118	80.002	19.996	100.684	20.335	8.379	0.477
1088.000	622.132	80.003	19.997	100.688	20.337	8.254	0.478
1095.999	626.125	80.003	19.996	100.692	20.340	8.086	0.487
1103.999	630.061	80.003	19.996	100.689	20.337	8.233	0.495
1111.999	634.052	80.005	19.995	100.691	20.333	8.540	0.490
1119.999	638.076	80.006	19.995	100.686	20.333	8.527	0.515
1128.001	642.095	80.003	19.995	100.708	20.332	8.613	0.527
1135.999	646.108	80.003	19.995	100.712	20.326	8.971	0.518
1143.999	650.326	80.003	19.995	100.716	20.327	8.879	0.525
1151.999	654.582	80.002	19.996	100.693	20.328	8.847	0.522
1159.999	658.805	80.003	19.995	100.694	20.324	9.068	0.496
1167.999	662.950	80.003	19.995	100.699	20.327	8.906	0.500
1176.000	667.037	80.004	19.997	100.698	20.329	8.784	0.518
1183.999	671.134	80.003	19.997	100.698	20.327	8.877	0.517
1191.999	675.306	80.003	19.995	100.693	20.324	9.123	0.528
1200.000	679.425	80.005	19.995	100.694	20.324	9.110	0.522
1207.999	683.586	80.002	19.994	100.694	20.321	9.320	0.547
1215.999	687.906	80.004	19.996	100.720	20.318	9.503	0.530
1223.999	692.288	80.003	19.996	100.701	20.321	9.315	0.543
1231.999	696.808	80.003	19.994	100.711	20.313	9.833	0.589
1239.999	701.241	80.001	19.997	100.711	20.315	9.656	0.548
1247.999	705.651	80.004	19.997	100.697	20.308	10.106	0.537
1255.999	709.977	80.004	19.996	100.691	20.312	9.878	0.531
1263.999	714.333	80.002	19.996	100.710	20.310	9.994	0.551
1272.000	718.597	80.003	19.996	100.706	20.308	10.152	0.523
1279.999	722.810	80.006	19.997	100.690	20.312	9.871	0.516
1287.999	726.900	80.004	19.994	100.703	20.311	9.964	0.510
1295.999	730.943	80.003	19.996	100.693	20.308	10.119	0.488
1304.001	734.713	80.003	19.995	100.689	20.308	10.099	0.455
1311.999	738.296	80.002	19.995	100.690	20.304	10.372	0.452
1319.999	741.810	80.002	19.995	100.700	20.307	10.198	0.442
1324.499	743.832	80.002	19.995	100.686	20.305	10.336	0.458