Folder: fsri_materials_database/01_Data/Corian_Countertop/MCC

Note: 01_Data/README.md
# Materials and Products Database
## 01_Data

Raw data generated from each apparatus are included here in plain-text format. The data is organized first by material, next by the short name of test apparatus used, and where applicable additional filtering by test settings.

### material.json

Each material directory contains a json file of the same name as the material. This file links the data stored in the repository as well as data and graphs produced by the accompanying scripts (__02_Scripts__) to the respective landing page for the material on the front-end website.

File: Corian_Countertop_30K_min_210930_R1.txt
Sample ID:	C:\MCC\MCC Cal\Test\Corian_Countertop_30K_min_210930_R1.txt
Sample Weight (mg):	4.69
Heating Rate (C/s):	0.5
Combustor Temp (C):	900
N2 Flow Rate (cc/min):	80
O2 Flow Rate (cc/min):	20
Calibration File:	C:\MCC\MCC Cal\Coeff1 JN10440_30_210304.txt.txt
T Correction Coefficients:	0	1.024463	0
Time Shift (s):	14
*
Time (s)	Temperature (C)	N2 flow rate (cc/min)	O2 flow rate (cc/min)	Flow Rate (cc/min)	Oxygen (%)	HRR (W/g)	Heating rate (C/s)
0.000	107.566	80.006	19.996	100.606	20.286	0.138	-0.013
8.000	107.514	80.003	19.997	100.599	20.282	0.403	0.008
16.000	107.529	80.002	19.997	100.608	20.289	-0.057	-0.029
24.000	107.571	80.004	19.996	100.678	20.282	0.383	0.025
32.000	107.860	80.002	19.995	100.644	20.279	0.584	0.055
40.000	108.270	80.004	19.996	100.712	20.272	1.049	0.078
48.000	108.985	80.002	19.999	100.731	20.270	1.182	0.115
56.000	109.947	80.006	19.997	100.739	20.273	1.031	0.146
64.001	111.209	80.004	19.996	100.784	20.256	2.125	0.176
72.000	112.785	80.001	19.997	100.810	20.255	2.207	0.193
80.000	114.727	80.004	20.000	100.823	20.249	2.613	0.273
88.000	116.992	80.007	19.996	100.839	20.245	2.915	0.305
96.000	119.493	80.001	19.995	100.843	20.246	2.801	0.315
104.000	122.275	80.002	19.994	100.845	20.250	2.565	0.343
112.000	125.339	80.000	19.996	100.849	20.245	2.862	0.427
120.000	128.569	80.004	19.995	100.852	20.243	3.011	0.425
128.000	131.947	80.002	19.996	100.847	20.244	2.945	0.466
136.000	135.441	80.003	19.996	100.846	20.239	3.279	0.442
144.001	139.032	80.005	19.998	100.846	20.240	3.199	0.462
152.000	142.698	80.005	19.996	100.843	20.242	3.074	0.433
160.000	146.542	80.004	19.996	100.841	20.238	3.363	0.464
168.000	150.328	80.005	19.995	100.845	20.234	3.641	0.487
176.000	154.254	80.001	19.995	100.853	20.225	4.246	0.467
184.000	158.301	80.000	19.997	100.849	20.218	4.689	0.520
192.000	162.307	79.999	19.995	100.847	20.214	4.986	0.498
200.000	166.408	80.004	19.994	100.903	20.206	5.478	0.468
208.000	170.550	80.002	19.996	100.842	20.197	6.085	0.494
216.000	174.703	80.004	19.996	100.834	20.201	5.841	0.529
224.000	178.768	80.003	19.996	100.826	20.196	6.202	0.484
232.000	182.895	80.002	19.996	100.817	20.202	5.774	0.557
240.000	186.913	80.002	19.995	100.805	20.205	5.597	0.492
248.000	190.917	80.003	19.995	100.815	20.214	4.988	0.494
256.000	194.959	80.004	19.997	100.812	20.226	4.163	0.492
264.000	198.979	80.002	19.998	100.833	20.237	3.447	0.484
272.000	202.895	80.003	19.997	100.804	20.240	3.204	0.515
280.000	206.901	80.003	19.998	100.799	20.241	3.180	0.512
288.000	210.839	80.001	19.997	100.801	20.240	3.200	0.492
296.000	214.717	80.004	19.997	100.806	20.242	3.093	0.487
304.000	218.627	80.004	19.996	100.809	20.245	2.898	0.463
312.000	222.603	80.004	19.997	100.807	20.245	2.913	0.471
320.000	226.525	80.002	19.996	100.813	20.236	3.475	0.485
328.000	230.534	80.003	19.996	100.803	20.236	3.500	0.513
336.000	234.480	80.003	19.996	100.821	20.236	3.510	0.524
344.000	238.482	80.001	19.997	100.816	20.230	3.910	0.520
352.000	242.457	80.003	19.996	100.821	20.230	3.913	0.504
360.000	246.460	80.001	19.997	100.829	20.228	4.006	0.524
368.000	250.383	80.002	19.997	100.829	20.233	3.698	0.509
376.000	254.263	80.002	19.995	100.827	20.223	4.380	0.473
384.000	258.060	80.002	19.996	100.846	20.213	5.004	0.482
392.000	261.931	80.002	19.996	100.842	20.198	6.011	0.468
400.000	265.844	80.002	19.995	100.840	20.185	6.887	0.500
408.000	269.773	80.005	19.995	100.833	20.147	9.476	0.499
416.000	273.854	80.004	19.995	100.805	20.102	12.465	0.528
424.000	277.867	80.001	19.997	100.768	20.043	16.387	0.513
432.000	281.871	80.003	19.996	100.692	19.972	21.140	0.505
440.000	286.080	80.002	19.996	100.612	19.896	26.293	0.534
448.000	290.360	79.999	19.997	100.683	19.815	31.722	0.566
456.000	294.728	80.001	19.996	100.754	19.785	33.725	0.518
464.000	298.983	80.006	19.995	100.773	19.835	30.337	0.499
472.000	303.471	80.003	19.996	100.764	19.909	25.371	0.771
480.000	307.495	80.003	19.996	100.755	19.991	19.889	0.548
488.000	311.615	80.003	19.994	100.747	20.055	15.593	0.491
496.001	315.721	80.005	19.994	100.750	20.090	13.258	0.485
504.000	319.667	80.001	19.995	100.759	20.094	12.976	0.482
512.000	323.556	80.000	19.997	100.759	20.090	13.266	0.496
520.000	327.395	80.001	19.995	100.752	20.075	14.252	0.483
528.000	331.229	80.002	19.997	100.763	20.061	15.211	0.448
536.000	335.096	80.002	19.998	100.765	20.039	16.714	0.487
544.000	338.896	80.003	19.996	100.764	20.014	18.368	0.504
552.000	342.744	80.003	19.994	100.770	19.992	19.824	0.472
560.000	346.612	80.003	19.996	100.772	19.957	22.195	0.484
568.000	350.556	80.002	19.997	100.783	19.932	23.890	0.490
576.000	354.499	80.003	19.995	100.767	19.894	26.450	0.465
584.000	358.455	80.002	19.996	100.796	19.855	29.033	0.503
592.000	362.385	80.002	19.996	100.779	19.816	31.639	0.481
600.000	366.346	80.001	19.996	100.792	19.772	34.628	0.487
608.000	370.242	80.003	19.996	100.799	19.743	36.584	0.480
616.000	374.172	80.000	19.996	100.804	19.714	38.494	0.468
624.000	378.183	79.999	19.995	100.793	19.692	39.940	0.511
632.000	382.266	80.002	19.996	100.787	19.679	40.869	0.532
640.000	386.235	80.003	19.997	100.801	19.687	40.287	0.487
648.000	390.317	80.004	19.996	100.781	19.708	38.899	0.527
656.000	394.446	80.004	19.996	100.766	19.739	36.780	0.511
664.000	398.567	80.002	19.996	100.765	19.784	33.810	0.517
672.000	402.645	80.003	19.996	100.765	19.844	29.784	0.514
680.000	406.715	80.002	19.994	100.753	19.914	25.057	0.500
688.000	410.809	80.005	19.996	100.737	19.988	20.105	0.513
696.000	414.829	80.000	19.996	100.734	20.047	16.121	0.490
704.000	418.978	80.002	19.997	100.730	20.111	11.845	0.541
712.000	422.963	80.003	19.997	100.730	20.157	8.796	0.487
720.000	426.919	80.002	19.998	100.715	20.195	6.238	0.478
728.000	430.923	80.001	19.998	100.721	20.223	4.377	0.522
736.001	435.051	80.005	19.996	100.726	20.242	3.061	0.498
744.000	439.260	80.003	19.996	100.727	20.258	1.989	0.529
752.000	443.464	80.001	19.997	100.725	20.264	1.607	0.535
760.000	447.702	80.003	19.996	100.729	20.274	0.971	0.557
768.000	451.906	80.002	19.996	100.731	20.269	1.288	0.553
776.000	456.186	80.004	19.996	100.728	20.280	0.534	0.537
784.000	460.334	80.001	19.997	100.712	20.281	0.481	0.541
792.000	464.400	80.004	19.997	100.702	20.277	0.708	0.500
800.000	468.481	80.003	19.997	100.722	20.275	0.877	0.500
808.000	472.454	80.003	19.998	100.725	20.284	0.271	0.492
816.000	476.435	80.004	19.998	100.720	20.280	0.538	0.506
824.000	480.371	80.003	19.997	100.708	20.284	0.240	0.496
832.000	484.244	80.000	19.996	100.719	20.287	0.077	0.471
840.000	488.192	80.001	19.996	100.711	20.282	0.415	0.495
848.000	492.172	80.002	19.997	100.724	20.283	0.350	0.492
856.000	496.428	80.001	19.996	100.726	20.287	0.070	0.522
864.000	500.743	80.001	19.993	100.693	20.287	0.092	0.540
872.000	505.192	80.004	19.996	100.721	20.287	0.087	0.547
880.000	509.764	80.004	19.995	100.727	20.289	-0.081	0.580
888.000	514.275	80.003	19.996	100.724	20.291	-0.229	0.603
896.000	518.802	80.003	19.996	100.722	20.286	0.105	0.556
904.000	523.340	80.002	19.995	100.706	20.288	-0.020	0.570
912.000	527.821	80.001	19.997	100.709	20.285	0.179	0.590
920.000	532.258	80.001	19.996	100.724	20.289	-0.068	0.605
928.000	536.665	80.003	19.995	100.709	20.288	-0.024	0.545
936.000	541.021	80.001	19.996	100.703	20.292	-0.291	0.532
944.000	545.347	80.002	19.996	100.707	20.295	-0.446	0.543
952.000	549.524	80.004	19.995	100.711	20.295	-0.488	0.492
960.000	553.713	80.003	19.996	100.693	20.295	-0.466	0.489
968.000	557.914	80.003	19.996	100.703	20.295	-0.496	0.497
976.000	562.065	80.006	19.998	100.688	20.297	-0.625	0.536
984.000	566.112	80.003	19.996	100.697	20.299	-0.748	0.510
992.000	570.194	80.002	19.998	100.690	20.299	-0.742	0.521
1000.000	574.274	80.002	19.997	100.689	20.304	-1.074	0.519
1008.000	578.357	80.001	19.996	100.692	20.302	-0.932	0.496
1016.000	582.370	80.000	19.995	100.693	20.304	-1.087	0.504
1024.001	586.385	80.000	19.995	100.692	20.305	-1.168	0.524
1032.000	590.376	80.004	19.996	100.691	20.303	-0.986	0.501
1040.000	594.502	80.004	19.994	100.691	20.306	-1.222	0.527
1048.000	598.569	80.003	19.996	100.692	20.306	-1.170	0.491
1056.000	602.630	80.005	19.997	100.689	20.311	-1.524	0.473
1064.000	606.730	80.004	19.997	100.693	20.315	-1.806	0.499
1072.000	610.807	80.002	19.996	100.698	20.311	-1.535	0.513
1080.001	614.932	80.002	19.997	100.691	20.314	-1.723	0.498
1088.000	619.005	80.002	19.996	100.691	20.314	-1.771	0.518
1096.000	623.021	80.002	19.996	100.695	20.314	-1.754	0.518
1104.000	627.033	80.002	19.996	100.692	20.315	-1.837	0.488
1112.000	631.057	80.003	19.996	100.695	20.315	-1.802	0.520
1120.000	635.070	80.004	19.996	100.689	20.316	-1.894	0.497
1128.000	639.113	80.003	19.995	100.687	20.313	-1.638	0.507
1136.000	643.091	80.003	19.995	100.693	20.321	-2.198	0.489
1144.000	647.138	80.004	19.996	100.689	20.319	-2.098	0.492
1152.001	651.245	80.002	19.996	100.694	20.318	-2.030	0.505
1160.001	655.329	80.001	19.995	100.692	20.318	-1.995	0.489
1168.000	659.368	80.003	19.997	100.689	20.321	-2.224	0.517
1176.000	663.400	80.002	19.995	100.687	20.320	-2.156	0.509
1184.000	667.434	80.001	19.997	100.695	20.317	-1.912	0.486
1192.000	671.485	80.003	19.996	100.690	20.318	-2.008	0.504
1200.000	675.540	80.004	19.996	100.694	20.317	-1.949	0.487
1208.000	679.651	80.004	19.996	100.691	20.318	-2.021	0.527
1216.000	683.618	80.005	19.995	100.695	20.317	-1.960	0.514
1224.000	687.581	80.005	19.995	100.697	20.319	-2.076	0.486
1232.000	691.545	80.004	19.995	100.688	20.312	-1.586	0.482
1240.000	695.611	80.003	19.996	100.690	20.313	-1.676	0.511
1248.000	699.632	80.002	19.996	100.689	20.314	-1.752	0.486
1256.000	703.669	80.002	19.995	100.689	20.311	-1.561	0.500
1264.000	707.711	80.002	19.997	100.698	20.313	-1.664	0.467
1272.000	711.737	80.002	19.997	100.688	20.312	-1.572	0.489
1280.000	715.776	80.003	19.996	100.696	20.311	-1.555	0.484
1288.000	719.686	80.003	19.995	100.693	20.319	-2.063	0.497
1296.000	723.576	80.005	19.995	100.693	20.309	-1.432	0.488
1304.001	727.408	80.005	19.995	100.686	20.313	-1.686	0.436
1312.000	731.278	80.002	19.996	100.704	20.312	-1.607	0.497
1320.001	735.122	80.003	19.996	100.687	20.313	-1.640	0.501
1328.000	739.015	80.003	19.996	100.694	20.309	-1.430	0.511
1336.001	742.948	80.002	19.996	100.695	20.315	-1.811	0.484
1337.000	743.458	80.002	19.998	100.694	20.313	-1.651	0.491

File: Corian_Countertop_30K_min_210930_R2.txt
Sample ID:	C:\MCC\MCC Cal\Test\Corian_Countertop_30K_min_210930_R2.txt
Sample Weight (mg):	4.78
Heating Rate (C/s):	0.5
Combustor Temp (C):	900
N2 Flow Rate (cc/min):	80
O2 Flow Rate (cc/min):	20
Calibration File:	C:\MCC\MCC Cal\Coeff1 JN10440_30_210304.txt.txt
T Correction Coefficients:	0	1.024463	0
Time Shift (s):	14
*
Time (s)	Temperature (C)	N2 flow rate (cc/min)	O2 flow rate (cc/min)	Flow Rate (cc/min)	Oxygen (%)	HRR (W/g)	Heating rate (C/s)
-0.001	106.174	80.001	19.995	100.569	20.339	0.070	-0.013
7.999	106.153	80.002	19.996	100.569	20.339	0.052	-0.003
15.999	106.194	80.001	19.995	100.589	20.335	0.316	-0.000
23.999	106.271	80.001	19.996	100.666	20.326	0.920	0.021
32.000	106.648	80.001	19.996	100.688	20.318	1.441	0.070
39.999	107.304	80.000	19.997	100.695	20.319	1.385	0.099
48.000	108.226	80.001	19.996	100.722	20.313	1.737	0.112
55.999	109.447	80.002	19.996	100.764	20.305	2.301	0.144
63.999	111.015	80.003	19.996	100.768	20.305	2.253	0.209
71.999	112.855	80.001	19.995	100.786	20.295	2.937	0.251
79.999	115.009	80.002	19.995	100.807	20.299	2.685	0.256
87.999	117.458	80.003	19.994	100.844	20.296	2.886	0.338
95.999	120.245	80.003	19.995	100.845	20.288	3.393	0.369
104.000	123.283	80.001	19.996	100.823	20.286	3.523	0.394
111.999	126.490	80.001	19.997	100.848	20.287	3.469	0.423
120.000	129.902	80.003	19.997	100.841	20.285	3.615	0.451
127.999	133.448	80.001	19.996	100.844	20.284	3.632	0.442
136.000	137.090	80.001	19.997	100.843	20.284	3.690	0.482
144.000	140.868	80.000	19.996	100.836	20.279	4.005	0.456
152.000	144.694	80.002	19.995	100.840	20.276	4.180	0.465
160.000	148.585	80.002	19.996	100.847	20.272	4.482	0.472
168.000	152.483	80.003	19.996	100.829	20.268	4.732	0.500
176.000	156.457	80.004	19.994	100.841	20.265	4.901	0.492
184.000	160.365	80.003	19.995	100.826	20.255	5.590	0.483
192.000	164.353	80.001	19.995	100.821	20.250	5.920	0.485
200.000	168.313	80.001	19.995	100.819	20.241	6.483	0.494
208.000	172.292	80.001	19.996	100.825	20.237	6.747	0.482
216.000	176.247	80.002	19.996	100.819	20.230	7.236	0.500
224.000	180.242	80.000	19.996	100.821	20.230	7.215	0.508
232.000	184.231	80.001	19.997	100.804	20.230	7.181	0.534
240.000	188.190	80.002	19.997	100.804	20.237	6.761	0.477
248.000	192.116	80.003	19.996	100.805	20.248	6.008	0.504
256.000	196.051	80.003	19.995	100.800	20.256	5.523	0.524
264.000	199.960	80.003	19.995	100.802	20.259	5.282	0.492
272.000	203.919	80.000	19.994	100.811	20.270	4.586	0.492
280.000	207.875	80.001	19.995	100.805	20.273	4.410	0.506
288.000	211.797	80.004	19.995	100.804	20.273	4.387	0.478
296.000	215.826	80.001	19.995	100.789	20.271	4.544	0.495
304.000	219.735	80.002	19.996	100.802	20.270	4.589	0.464
312.000	223.717	80.002	19.995	100.799	20.269	4.674	0.506
320.000	227.703	80.002	19.996	100.802	20.267	4.770	0.495
328.000	231.635	80.002	19.996	100.802	20.268	4.745	0.457
336.000	235.527	80.003	19.996	100.807	20.263	5.062	0.492
344.000	239.390	80.003	19.996	100.829	20.262	5.084	0.487
352.000	243.315	80.002	19.995	100.820	20.256	5.504	0.531
360.000	247.152	80.001	19.996	100.810	20.256	5.530	0.481
368.000	251.137	80.003	19.995	100.831	20.247	6.108	0.494
376.000	255.039	80.003	19.995	100.844	20.239	6.630	0.475
384.000	258.956	80.000	19.996	100.832	20.230	7.209	0.485
392.000	262.938	80.002	19.996	100.840	20.214	8.279	0.470
400.000	266.939	80.002	19.997	100.829	20.196	9.429	0.462
408.000	271.011	80.000	19.998	100.836	20.160	11.816	0.560
416.000	274.963	80.003	19.998	100.820	20.118	14.571	0.482
424.000	278.735	80.002	19.997	100.767	20.059	18.419	0.274
432.000	283.008	80.003	19.995	100.719	19.996	22.591	0.517
440.000	287.109	80.001	19.995	100.647	19.914	27.991	0.526
448.000	291.375	80.001	19.997	100.629	19.837	33.022	0.568
456.000	295.669	80.001	19.997	100.719	19.807	35.040	0.561
464.000	299.927	80.000	19.996	100.750	19.846	32.457	0.549
472.000	304.077	80.001	19.996	100.740	19.926	27.209	0.534
480.000	308.255	80.003	19.995	100.739	20.007	21.899	0.540
488.000	312.338	79.999	19.997	100.742	20.065	18.063	0.519
496.000	316.369	80.002	19.997	100.754	20.101	15.692	0.492
504.000	320.344	80.003	19.996	100.763	20.105	15.450	0.525
512.000	324.334	80.003	19.997	100.762	20.099	15.800	0.504
520.000	328.339	80.001	19.998	100.762	20.083	16.878	0.523
528.000	332.247	80.002	19.997	100.766	20.063	18.174	0.479
536.000	336.246	80.002	19.997	100.769	20.039	19.793	0.501
544.000	340.217	80.003	19.996	100.769	20.012	21.534	0.505
552.000	344.108	79.999	19.997	100.770	19.981	23.592	0.486
560.000	347.997	80.001	19.994	100.768	19.952	25.500	0.488
568.000	351.958	80.004	19.995	100.781	19.919	27.647	0.496
576.000	355.942	80.001	19.996	100.767	19.879	30.297	0.465
584.000	359.943	80.003	19.998	100.770	19.843	32.658	0.505
592.000	363.870	80.004	19.995	100.789	19.807	35.010	0.509
600.000	367.870	80.002	19.998	100.788	19.763	37.950	0.496
608.000	371.888	80.000	19.996	100.799	19.731	40.071	0.505
616.000	375.863	80.003	19.996	100.788	19.704	41.807	0.491
624.000	379.912	80.004	19.996	100.794	19.685	43.072	0.488
632.000	383.874	80.002	19.996	100.775	19.681	43.326	0.477
640.000	387.843	80.003	19.997	100.774	19.696	42.333	0.489
648.000	391.825	80.003	19.997	100.763	19.718	40.887	0.508
656.000	395.771	80.005	19.996	100.760	19.762	37.993	0.487
664.000	399.749	80.003	19.996	100.769	19.809	34.894	0.478
672.000	403.726	80.004	19.996	100.756	19.875	30.534	0.511
680.000	407.706	80.004	19.995	100.753	19.940	26.256	0.523
688.000	411.953	80.002	19.996	100.764	20.005	22.021	0.552
696.000	416.356	80.002	19.997	100.739	20.066	17.982	0.569
704.000	420.832	80.002	19.997	100.741	20.114	14.822	0.598
712.000	425.369	80.001	19.996	100.727	20.163	11.642	0.579
720.000	429.914	80.001	19.995	100.726	20.195	9.528	0.558
728.000	434.446	80.002	19.997	100.733	20.222	7.760	0.565
736.000	438.904	80.003	19.997	100.728	20.242	6.441	0.565
744.000	443.278	80.002	19.997	100.732	20.251	5.843	0.518
752.000	447.670	80.004	19.996	100.728	20.260	5.220	0.541
760.000	451.962	80.006	19.996	100.721	20.266	4.810	0.542
768.000	456.243	80.003	19.997	100.721	20.268	4.714	0.534
776.000	460.454	80.000	19.996	100.720	20.267	4.764	0.544
784.000	464.550	80.001	19.995	100.707	20.267	4.761	0.487
792.000	468.673	80.002	19.997	100.707	20.267	4.799	0.531
800.000	472.720	80.000	19.996	100.718	20.269	4.672	0.508
808.000	476.875	80.001	19.996	100.723	20.259	5.298	0.553
816.000	480.943	80.003	19.995	100.715	20.267	4.757	0.536
824.000	484.981	80.003	19.995	100.714	20.266	4.835	0.499
832.000	489.053	80.003	19.995	100.708	20.267	4.768	0.526
840.000	493.076	80.006	19.995	100.704	20.267	4.746	0.496
848.000	497.193	80.003	19.995	100.723	20.269	4.630	0.509
856.000	501.255	80.001	19.997	100.717	20.275	4.269	0.519
864.000	505.291	80.000	19.996	100.707	20.272	4.460	0.477
872.000	509.360	80.001	19.996	100.721	20.265	4.889	0.517
880.000	513.250	80.001	19.997	100.708	20.261	5.188	0.464
888.000	517.242	80.001	19.996	100.706	20.263	5.014	0.515
896.000	521.125	80.004	19.997	100.699	20.262	5.077	0.483
904.000	524.986	80.004	19.996	100.715	20.263	5.037	0.485
912.000	528.874	80.004	19.996	100.705	20.271	4.484	0.484
920.000	532.808	80.004	19.995	100.711	20.267	4.764	0.450
928.000	536.940	80.005	19.995	100.696	20.266	4.862	0.532
936.000	541.037	80.003	19.995	100.696	20.268	4.719	0.503
944.000	545.179	80.003	19.996	100.704	20.263	5.069	0.492
952.000	549.386	80.003	19.995	100.719	20.265	4.877	0.512
960.000	553.622	80.003	19.996	100.702	20.269	4.662	0.567
968.000	557.794	80.001	19.996	100.705	20.271	4.536	0.525
976.000	561.929	80.004	19.996	100.701	20.270	4.549	0.533
984.000	566.061	80.004	19.997	100.696	20.268	4.712	0.514
992.000	570.193	80.001	19.995	100.709	20.272	4.468	0.526
1000.000	574.298	80.003	19.995	100.706	20.269	4.675	0.539
1008.000	578.350	80.004	19.994	100.701	20.276	4.180	0.471
1016.000	582.451	80.002	19.996	100.711	20.272	4.417	0.516
1024.000	586.490	80.002	19.995	100.709	20.270	4.569	0.504
1032.000	590.518	80.001	19.995	100.708	20.273	4.375	0.484
1039.999	594.625	80.003	19.997	100.698	20.268	4.718	0.523
1047.999	598.737	80.002	19.996	100.697	20.273	4.356	0.530
1055.999	602.796	80.002	19.995	100.700	20.272	4.461	0.508
1064.001	606.923	80.004	19.996	100.697	20.275	4.254	0.500
1071.999	610.972	80.003	19.996	100.708	20.275	4.259	0.506
1079.999	615.064	80.003	19.998	100.705	20.276	4.214	0.513
1087.999	619.071	80.004	19.996	100.695	20.272	4.452	0.487
1096.000	622.989	80.005	19.995	100.694	20.269	4.631	0.497
1103.999	626.905	80.003	19.995	100.689	20.270	4.570	0.467
1111.999	630.939	80.001	19.996	100.708	20.272	4.415	0.508
1119.999	635.071	80.003	19.996	100.693	20.274	4.335	0.491
1128.000	639.207	80.004	19.996	100.690	20.272	4.431	0.513
1135.999	643.267	80.002	19.995	100.691	20.269	4.620	0.473
1143.999	647.437	80.003	19.996	100.699	20.270	4.557	0.494
1151.999	651.552	80.004	19.997	100.701	20.271	4.517	0.516
1160.000	655.670	80.003	19.996	100.687	20.270	4.560	0.503
1167.999	659.708	80.004	19.998	100.687	20.271	4.521	0.506
1175.999	663.696	80.006	19.997	100.682	20.270	4.601	0.514
1183.999	667.628	80.003	19.997	100.688	20.271	4.510	0.489
1191.999	671.613	80.002	19.995	100.691	20.271	4.508	0.539
1199.999	675.628	80.003	19.997	100.689	20.270	4.602	0.493
1207.999	679.612	80.003	19.996	100.685	20.267	4.747	0.508
1215.999	683.644	80.004	19.995	100.688	20.269	4.624	0.507
1223.999	687.736	80.004	19.995	100.688	20.272	4.450	0.530
1231.999	691.837	80.003	19.996	100.690	20.261	5.135	0.498
1239.999	695.963	80.005	19.996	100.684	20.266	4.806	0.524
1247.999	700.096	80.006	19.995	100.685	20.270	4.582	0.525
1255.999	704.162	80.004	19.997	100.689	20.265	4.891	0.512
1264.000	708.166	80.000	19.997	100.694	20.265	4.921	0.502
1271.999	712.202	79.997	19.997	100.689	20.267	4.799	0.496
1280.000	716.233	80.001	19.995	100.690	20.269	4.674	0.534
1287.999	720.178	80.003	19.997	100.685	20.265	4.924	0.470
1295.999	724.177	80.003	19.997	100.685	20.267	4.765	0.510
1303.999	728.093	80.003	19.997	100.687	20.263	5.023	0.509
1312.000	732.106	80.004	19.997	100.683	20.267	4.750	0.504
1319.999	736.007	80.003	19.995	100.689	20.263	5.061	0.503
1327.999	739.989	80.003	19.996	100.688	20.265	4.893	0.479
1335.499	743.747	80.004	19.996	100.685	20.263	5.059	0.521