Folder: fsri_materials_database/01_Data/Homasote/STA/N2/10K_min (part 2)

File: Homasote_STA_N2_10KData_222104_R3.csv
##Temp./Â°C,Time/min,Mass loss(subtr.2)/mg,DSC(subtr.2)/(mW/mg),Sensit./(uV/mW)
49.698,10.01,-0.02797,0.01727281,1.06052
52.998,11.33686,-0.02838835,0.11578,1.05983
56.298,11.7962,-0.03030876,0.16508,1.05913
59.598,12.1917,-0.03139317,0.20226,1.0584
62.898,12.56236,-0.03075153,0.2162,1.05765
66.198,12.92215,-0.0343201,0.21658,1.05689
69.498,13.2764,-0.03555574,0.22538,1.0561
72.798,13.62517,-0.03758061,0.23565,1.05529
76.098,13.9715,-0.04047856,0.25007,1.05446
79.398,14.31313,-0.04168192,0.26075,1.05362
82.698,14.6522,-0.04300028,0.26834,1.05275
85.998,14.98755,-0.04581482,0.27284,1.05187
89.298,15.32,-0.04815005,0.2778,1.05096
92.598,15.65025,-0.05078976,0.28023,1.05004
95.898,15.9781,-0.05076642,0.27959,1.04909
99.198,16.30384,-0.05342667,0.27312,1.04813
102.498,16.62803,-0.05506142,0.26906,1.04714
105.798,16.9518,-0.05893841,0.26793,1.04614
109.098,17.27551,-0.06033,0.26768,1.04512
112.398,17.59786,-0.06164006,0.26964,1.04408
115.698,17.9198,-0.06297,0.26654,1.04302
118.998,18.2412,-0.06560408,0.26206,1.04195
122.298,18.56255,-0.06559,0.25377,1.04085
125.598,18.883,-0.06427974,0.24264,1.03974
128.898,19.2021,-0.06822595,0.23889,1.0386
132.198,19.5215,-0.06955063,0.23584,1.03745
135.498,19.84103,-0.06989469,0.23397,1.03628
138.798,20.1592,-0.06823022,0.23286,1.03509
142.098,20.47756,-0.07219224,0.23261,1.03389
145.398,20.79498,-0.07046387,0.23676,1.03266
148.698,21.11186,-0.07117468,0.23714,1.03142
151.998,21.42849,-0.07086048,0.23835,1.03016
155.298,21.74501,-0.07119005,0.24074,1.02889
158.598,22.06085,-0.07378807,0.24292,1.02759
161.898,22.37752,-0.0731688,0.24084,1.02628
165.198,22.69365,-0.07250117,0.24289,1.02495
168.498,23.00956,-0.07382014,0.24466,1.0236
171.798,23.32602,-0.07517159,0.24947,1.02224
175.098,23.6417,-0.07645435,0.25215,1.02086
178.398,23.95722,-0.07783252,0.25072,1.01946
181.698,24.27281,-0.07665855,0.25424,1.01804
184.998,24.5877,-0.07929398,0.25399,1.01661
188.298,24.90245,-0.08259033,0.25746,1.01516
191.598,25.2174,-0.08117095,0.25859,1.0137
194.898,25.53208,-0.08522917,0.26253,1.01222
198.198,25.84678,-0.08918,0.26678,1.01072
201.498,26.16143,-0.08752813,0.27046,1.0092
204.798,26.4766,-0.09264064,0.27271,1.00767
208.098,26.79187,-0.09345003,0.27557,1.00613
211.398,27.10698,-0.09858765,0.2787,1.00457
214.698,27.42193,-0.10054,0.28068,1.00299
217.998,27.73641,-0.10541,0.28435,1.00139
221.298,28.0506,-0.11066,0.28882,0.99978
224.598,28.3658,-0.11689,0.28873,0.99816
227.898,28.68038,-0.11959,0.29107,0.99652
231.198,28.995,-0.13261,0.28991,0.99486
234.498,29.3088,-0.13592,0.29296,0.99319
237.798,29.6235,-0.14258,0.29767,0.99151
241.098,29.93795,-0.15345,0.29859,0.9898
244.398,30.25217,-0.16549,0.30031,0.98809
247.698,30.5679,-0.17685,0.30267,0.98636
250.998,30.8825,-0.18809,0.30477,0.98461
254.298,31.19805,-0.20085,0.30423,0.98285
257.598,31.51365,-0.21405,0.30608,0.98108
260.898,31.82892,-0.22942,0.30551,0.97929
264.198,32.14369,-0.24624,0.31265,0.97749
267.498,32.45963,-0.26522,0.31623,0.97567
270.798,32.7748,-0.28457,0.3188,0.97384
274.098,33.08996,-0.30547,0.3233,0.97199
277.398,33.40553,-0.33096,0.32358,0.97013
280.698,33.72132,-0.35579,0.32884,0.96826
283.998,34.03716,-0.3806,0.33382,0.96637
287.298,34.3529,-0.41238,0.34242,0.96447
290.598,34.66837,-0.447,0.34763,0.96256
293.898,34.9846,-0.4821,0.35315,0.96064
297.198,35.30025,-0.52029,0.36382,0.9587
300.498,35.6171,-0.56369,0.36981,0.95674
303.798,35.9335,-0.60761,0.38344,0.95478
307.098,36.24978,-0.65733,0.395,0.9528
310.398,36.56653,-0.71057,0.40578,0.95081
313.698,36.8831,-0.76727,0.42078,0.9488
316.998,37.1997,-0.82579,0.4356,0.94679
320.298,37.51736,-0.89383,0.44746,0.94476
323.598,37.83495,-0.96332,0.46424,0.94272
326.898,38.1533,-1.03789,0.48082,0.94067
330.198,38.4712,-1.11979,0.49789,0.9386
333.498,38.78934,-1.20635,0.52294,0.93652
336.798,39.1078,-1.29873,0.54314,0.93443
340.098,39.42593,-1.39668,0.5659,0.93233
343.398,39.74449,-1.50003,0.58982,0.93022
346.698,40.06248,-1.61357,0.61201,0.9281
349.998,40.38105,-1.73137,0.63127,0.92596
353.298,40.6997,-1.85235,0.64287,0.92381
356.598,41.0182,-1.97795,0.63687,0.92166
359.898,41.33729,-2.09747,0.60909,0.91949
363.198,41.65582,-2.20963,0.54691,0.91731
366.498,41.97515,-2.30849,0.44031,0.91512
369.798,42.2939,-2.38216,0.31429,0.91291
373.098,42.61143,-2.43378,0.19315,0.9107
376.398,42.9306,-2.46549,0.10815,0.90848
379.698,43.2487,-2.48544,0.05798195,0.90625
382.998,43.5692,-2.49844,0.03343104,0.904
386.298,43.88897,-2.50975,0.02200794,0.90175
389.598,44.20897,-2.51555,0.01593547,0.89948
392.898,44.52944,-2.52821,0.00903323,0.89721
396.198,44.8506,-2.53606,0.00355489,0.89493
399.498,45.17236,-2.54495,0.0006923251,0.89263
402.798,45.49465,-2.55415,-0.0009661794,0.89033
406.098,45.8168,-2.56267,-0.00538276,0.88802
409.398,46.13926,-2.57023,-0.008245202,0.88569
412.698,46.4608,-2.5782,-0.00839343,0.88336
415.998,46.78306,-2.58795,-0.00864226,0.88102
419.298,47.10528,-2.59503,-0.006789405,0.87867
422.598,47.4278,-2.60421,-0.006243281,0.87631
425.898,47.75035,-2.61011,0.001481616,0.87394
429.198,48.0719,-2.61966,0.00462875,0.87156
432.498,48.39548,-2.62758,0.008340914,0.86918
435.798,48.71833,-2.63376,0.009458807,0.86678
439.098,49.04188,-2.64366,0.01754887,0.86438
442.398,49.36589,-2.65035,0.01908753,0.86197
445.698,49.68972,-2.65693,0.02282776,0.85955
448.998,50.01408,-2.666,0.02478812,0.85712
452.298,50.33851,-2.67272,0.02778133,0.85468
455.598,50.6629,-2.67973,0.02902834,0.85224
458.898,50.98693,-2.68415,0.0283768,0.84978
462.198,51.31131,-2.68897,0.0241242,0.84732
465.498,51.6357,-2.69894,0.02829547,0.84486
468.798,51.96038,-2.70288,0.02235981,0.84238
472.098,52.28564,-2.70893,0.02178972,0.8399
475.398,52.61048,-2.71439,0.01759,0.83741
478.698,52.93563,-2.71864,0.0135863,0.83491
481.998,53.26158,-2.72474,0.01048191,0.8324
485.298,53.5873,-2.72587,0.0104798,0.82989
488.598,53.9124,-2.72987,0.00345149,0.82737
491.898,54.23919,-2.73708,0.005830354,0.82484
495.198,54.5659,-2.74029,-0.001949055,0.82231
498.498,54.8925,-2.74258,-0.004484725,0.81977
501.798,55.21963,-2.7449,-0.003692777,0.81723
505.098,55.54634,-2.74916,0.002403517,0.81467
508.398,55.8728,-2.75517,0.007746653,0.81211
511.698,56.1989,-2.75773,0.01732312,0.80955
514.998,56.52629,-2.76057,0.02052525,0.80698
518.298,56.85326,-2.76299,0.01653027,0.8044
521.598,57.17985,-2.76431,0.01152723,0.80182
524.898,57.50701,-2.76859,0.004158767,0.79923
528.198,57.83421,-2.77089,-0.00235784,0.79663
531.498,58.1624,-2.77286,-0.007821855,0.79403
534.798,58.49034,-2.77813,-0.02229335,0.79142
538.098,58.81951,-2.77779,-0.0351143,0.78881
541.398,59.14804,-2.78258,-0.04022196,0.78619
544.698,59.476,-2.78471,-0.04868573,0.78357
547.998,59.80494,-2.78735,-0.05709781,0.78094
551.298,60.13404,-2.78866,-0.0561921,0.77831
554.598,60.46291,-2.79112,-0.06177144,0.77567
557.898,60.79195,-2.79458,-0.06817848,0.77303
561.198,61.12066,-2.79622,-0.06887363,0.77038
564.498,61.4503,-2.79756,-0.0784328,0.76773
567.798,61.77925,-2.80019,-0.08296846,0.76507
571.098,62.1096,-2.80413,-0.08797591,0.76241
574.398,62.4397,-2.80411,-0.09439407,0.75974
577.698,62.769,-2.80813,-0.09686342,0.75707
580.998,63.0994,-2.80939,-0.09725502,0.7544
584.298,63.429,-2.81103,-0.09826099,0.75172
587.598,63.7587,-2.81464,-0.0978536,0.74904
590.898,64.08945,-2.81463,-0.09977271,0.74635
594.198,64.41929,-2.81726,-0.0965113,0.74366
597.498,64.74893,-2.81641,-0.09642564,0.74096
600.798,65.0788,-2.81905,-0.08785886,0.73827
604.098,65.40938,-2.82299,-0.08574742,0.73556
607.398,65.74028,-2.82431,-0.0774959,0.73286
610.698,66.0702,-2.82529,-0.07368774,0.73015
613.998,66.40025,-2.83089,-0.06015025,0.72744
617.298,66.73133,-2.82826,-0.05378662,0.72472
620.598,67.06221,-2.83221,-0.04100724,0.72201
623.898,67.39286,-2.83584,-0.03042814,0.71928
627.198,67.72407,-2.83747,-0.02124093,0.71656
630.498,68.05532,-2.83977,-0.006036561,0.71383
633.798,68.3871,-2.84414,0.00630637,0.7111
637.098,68.718,-2.84639,0.01840172,0.70837
640.398,69.04986,-2.84898,0.03130731,0.70564
643.698,69.38159,-2.85425,0.05660888,0.7029
646.998,69.7136,-2.85951,0.07155542,0.70016
650.298,70.04595,-2.86413,0.09091926,0.69742
653.598,70.37816,-2.86941,0.12048,0.69468
656.898,70.71069,-2.87515,0.1484,0.69193
660.198,71.04316,-2.88194,0.17677,0.68918
663.498,71.37536,-2.88786,0.20796,0.68643
666.798,71.70805,-2.8932,0.23653,0.68368
670.098,72.04103,-2.90546,0.26624,0.68093
673.398,72.3736,-2.9131,0.29369,0.67817
676.698,72.70647,-2.92091,0.31944,0.67542
679.998,73.04037,-2.93027,0.34328,0.67266
683.298,73.37405,-2.9389,0.35648,0.6699
686.598,73.70755,-2.94871,0.36322,0.66714
689.898,74.03986,-2.95999,0.35016,0.66438
693.198,74.37268,-2.97124,0.34204,0.66161
696.498,74.70564,-2.98016,0.338,0.65885
699.798,75.03841,-2.98921,0.30616,0.65609
703.098,75.3707,-2.99793,0.2394,0.65332
706.398,75.70487,-3.00321,0.03973208,0.65055
709.698,76.0386,-3.00457,-0.07662025,0.64779
712.998,76.3724,-3.00584,-0.09131475,0.64502
716.298,76.70538,-3.0089,-0.09336724,0.64225
719.598,77.0379,-3.00875,-0.0933123,0.63948
722.898,77.3707,-3.01111,-0.0961451,0.63671
726.198,77.70376,-3.00848,-0.0980554,0.63395
729.498,78.03737,-3.0123,-0.09981772,0.63118
732.798,78.37111,-3.01202,-0.09987905,0.62841
736.098,78.70488,-3.01538,-0.10783,0.62564
739.398,79.03819,-3.01276,-0.10829,0.62287
742.698,79.37137,-3.01539,-0.1083,0.6201
745.998,79.7054,-3.01589,-0.10843,0.61733
749.298,80.03936,-3.01667,-0.10982,0.61456
752.598,80.37323,-3.01933,-0.10881,0.6118
755.898,80.70698,-3.02059,-0.10855,0.60903
759.198,81.0406,-3.01867,-0.10414,0.60626
762.498,81.37499,-3.02201,-0.11128,0.6035
765.798,81.7089,-3.02,-0.114,0.60073
769.098,82.0436,-3.02305,-0.12411,0.59797
772.398,82.3776,-3.02328,-0.11869,0.59521
775.698,82.71212,-3.0256,-0.12453,0.59245
778.998,83.04652,-3.02296,-0.12356,0.58968
782.298,83.37984,-3.02569,-0.12707,0.58693
785.598,83.7136,-3.028,-0.13064,0.58417
788.898,84.04719,-3.02738,-0.12515,0.58141
792.198,84.38045,-3.02734,-0.13037,0.57865
795.498,84.7157,-3.02899,-0.13136,0.5759
798.198,84.9902,-3.02868,-0.12976,0.57365