Folder: fsri_materials_database/01_Data/Homasote/STA/N2/10K_min

Note: 01_Data/README.md
# Materials and Products Database
## 01_Data

Raw data generated from each apparatus are included here in plain-text format. The data is organized first by material, next by the short name of test apparatus used, and where applicable additional filtering by test settings.

### material.json

Each material directory contains a json file of the same name as the material. This file links the data stored in the repository as well as data and graphs produced by the accompanying scripts (__02_Scripts__) to the respective landing page for the material on the front-end website.

File: Homasote_STA_N2_10KData_222004_R1.csv
##Temp./Â°C,Time/min,Mass loss(subtr.2)/mg,DSC(subtr.2)/(mW/mg),Sensit./(uV/mW)
49.734,10.01,-0.01448,0.01431476,1.06051
52.934,11.32441,-0.01506613,0.12417,1.05985
56.134,11.7753,-0.01535612,0.17653,1.05916
59.334,12.1617,-0.01560956,0.213,1.05846
62.534,12.52342,-0.01815252,0.22916,1.05774
65.734,12.87472,-0.01548465,0.22774,1.05699
68.934,13.2194,-0.01831988,0.24033,1.05623
72.134,13.5597,-0.02094638,0.24851,1.05546
75.334,13.89676,-0.02026035,0.26247,1.05466
78.534,14.22918,-0.02095,0.27405,1.05384
81.734,14.55906,-0.02355551,0.28193,1.05301
84.934,14.88585,-0.0272138,0.29042,1.05215
88.134,15.2097,-0.02852002,0.29637,1.05128
91.334,15.53081,-0.02845522,0.29625,1.05039
94.534,15.8502,-0.03048995,0.29747,1.04948
97.734,16.1671,-0.03311998,0.29305,1.04856
100.934,16.4829,-0.0344466,0.29117,1.04761
104.134,16.79733,-0.03578186,0.29158,1.04665
107.334,17.11078,-0.03707,0.29339,1.04567
110.534,17.42383,-0.03839,0.29635,1.04467
113.734,17.73627,-0.03838485,0.29484,1.04366
116.934,18.0485,-0.0403331,0.29302,1.04262
120.134,18.3593,-0.04300006,0.29081,1.04157
123.334,18.67076,-0.04167999,0.27941,1.0405
126.534,18.98126,-0.04299916,0.27264,1.03942
129.734,19.2909,-0.04405656,0.27064,1.03831
132.934,19.6003,-0.04399,0.26741,1.03719
136.134,19.90866,-0.04333502,0.26512,1.03605
139.334,20.2175,-0.0444479,0.26905,1.0349
142.534,20.5265,-0.04432135,0.27052,1.03373
145.734,20.83474,-0.04433458,0.27174,1.03254
148.934,21.14285,-0.04497047,0.27341,1.03133
152.134,21.45089,-0.04530024,0.27438,1.03011
155.334,21.7586,-0.04594035,0.27737,1.02887
158.534,22.06615,-0.04628996,0.27898,1.02762
161.734,22.37275,-0.0450921,0.28193,1.02634
164.934,22.67998,-0.0476007,0.28519,1.02506
168.134,22.98655,-0.04496741,0.28732,1.02375
171.334,23.29306,-0.04858889,0.29023,1.02243
174.534,23.59959,-0.04826043,0.29239,1.02109
177.734,23.90576,-0.04858997,0.29489,1.01974
180.934,24.21205,-0.05127168,0.29552,1.01837
184.134,24.51899,-0.05122,0.30013,1.01699
187.334,24.8244,-0.05359966,0.30278,1.01559
190.534,25.1285,-0.05483996,0.30529,1.01417
193.734,25.43383,-0.05484,0.30746,1.01274
196.934,25.73944,-0.05582607,0.31066,1.01129
200.134,26.0441,-0.0564899,0.31743,1.00983
203.334,26.3492,-0.06010727,0.32065,1.00835
206.534,26.6534,-0.06172421,0.32458,1.00686
209.734,26.95812,-0.06503997,0.33213,1.00535
212.934,27.26138,-0.0683299,0.33466,1.00383
216.134,27.56656,-0.07217143,0.34024,1.0023
219.334,27.87102,-0.07623017,0.34275,1.00074
222.534,28.17538,-0.08147671,0.34922,0.99918
225.734,28.4792,-0.08545041,0.35156,0.9976
228.934,28.78371,-0.09205602,0.3509,0.996
232.134,29.0881,-0.09880394,0.35183,0.99439
235.334,29.39232,-0.1052,0.3529,0.99277
238.534,29.6978,-0.11309,0.35417,0.99113
241.734,30.00334,-0.12113,0.36028,0.98947
244.934,30.30888,-0.13145,0.36338,0.98781
248.134,30.61366,-0.14094,0.36656,0.98613
251.334,30.9188,-0.15178,0.37268,0.98443
254.534,31.2239,-0.16424,0.37639,0.98273
257.734,31.52905,-0.17732,0.37654,0.981
260.934,31.8342,-0.19129,0.38062,0.97927
264.134,32.1402,-0.20567,0.38412,0.97752
267.334,32.44571,-0.2227,0.39047,0.97576
270.534,32.75085,-0.2416,0.39183,0.97398
273.734,33.0565,-0.26102,0.39448,0.9722
276.934,33.362,-0.28383,0.39963,0.9704
280.134,33.66652,-0.30694,0.40617,0.96858
283.334,33.97293,-0.33282,0.41166,0.96675
286.534,34.27819,-0.36072,0.41821,0.96492
289.734,34.5835,-0.39006,0.42245,0.96306
292.934,34.8883,-0.4223,0.4301,0.9612
296.134,35.1935,-0.45812,0.44004,0.95932
299.334,35.49844,-0.49627,0.44986,0.95743
302.534,35.80208,-0.53604,0.4615,0.95553
305.734,36.1074,-0.58298,0.47064,0.95362
308.934,36.41217,-0.62908,0.4844,0.95169
312.134,36.7179,-0.68084,0.49541,0.94976
315.334,37.0236,-0.73604,0.50626,0.94781
318.534,37.33031,-0.79804,0.51995,0.94585
321.734,37.6374,-0.85889,0.53664,0.94387
324.934,37.94458,-0.92775,0.55285,0.94189
328.134,38.25295,-1.00127,0.56595,0.93989
331.334,38.5608,-1.07854,0.58699,0.93789
334.534,38.86817,-1.16192,0.60857,0.93587
337.734,39.1758,-1.25029,0.628,0.93384
340.934,39.48388,-1.34675,0.65255,0.9318
344.134,39.7932,-1.44547,0.67624,0.92975
347.334,40.10248,-1.55341,0.69903,0.92769
350.534,40.41185,-1.66602,0.71651,0.92561
353.734,40.72139,-1.78028,0.72864,0.92353
356.934,41.03117,-1.89719,0.71983,0.92144
360.134,41.34132,-2.01228,0.68486,0.91933
363.334,41.65079,-2.11544,0.62161,0.91722
366.534,41.96052,-2.20462,0.52491,0.91509
369.734,42.26985,-2.27563,0.40464,0.91296
372.934,42.57849,-2.32399,0.29215,0.91081
376.134,42.89002,-2.35342,0.21162,0.90866
379.334,43.20053,-2.37226,0.16814,0.90649
382.534,43.5112,-2.38555,0.14674,0.90432
385.734,43.82213,-2.39727,0.13479,0.90213
388.934,44.13377,-2.40826,0.12962,0.89994
392.134,44.4452,-2.41743,0.12591,0.89774
395.334,44.75732,-2.42621,0.11945,0.89552
398.534,45.07069,-2.43485,0.11037,0.8933
401.734,45.3853,-2.44462,0.10583,0.89107
404.934,45.7001,-2.45335,0.10358,0.88883
408.134,46.0141,-2.46251,0.10302,0.88658
411.334,46.32841,-2.47102,0.10207,0.88433
414.534,46.64223,-2.47855,0.10558,0.88206
417.734,46.95588,-2.48637,0.10415,0.87978
420.934,47.2694,-2.49588,0.10796,0.8775
424.134,47.5833,-2.50268,0.11017,0.87521
427.334,47.89683,-2.51013,0.11529,0.87291
430.534,48.20928,-2.51834,0.12086,0.8706
433.734,48.5229,-2.52706,0.12655,0.86828
436.934,48.83613,-2.53426,0.12974,0.86595
440.134,49.15032,-2.53956,0.13507,0.86362
443.334,49.46423,-2.54751,0.13554,0.86128
446.534,49.77901,-2.55405,0.13963,0.85893
449.734,50.09316,-2.56062,0.14442,0.85657
452.934,50.40762,-2.5671,0.14731,0.85421
456.134,50.722,-2.57247,0.14767,0.85184
459.334,51.03723,-2.57832,0.14961,0.84946
462.534,51.3526,-2.58453,0.14811,0.84707
465.734,51.66845,-2.59076,0.15033,0.84468
468.934,51.9835,-2.5955,0.14803,0.84228
472.134,52.29889,-2.6011,0.14505,0.83987
475.334,52.6143,-2.60536,0.1446,0.83745
478.534,52.9299,-2.61064,0.14213,0.83503
481.734,53.245,-2.61496,0.13977,0.8326
484.934,53.56018,-2.61865,0.13805,0.83017
488.134,53.8759,-2.62259,0.13433,0.82773
491.334,54.19189,-2.62523,0.13052,0.82528
494.534,54.50721,-2.63018,0.13258,0.82282
497.734,54.82221,-2.63346,0.12587,0.82036
500.934,55.1372,-2.63705,0.12728,0.81789
504.134,55.45316,-2.64071,0.13519,0.81542
507.334,55.7679,-2.64426,0.14293,0.81294
510.534,56.0839,-2.64837,0.15227,0.81045
513.734,56.4007,-2.65145,0.14923,0.80796
516.934,56.7164,-2.65407,0.15325,0.80547
520.134,57.034,-2.6567,0.14081,0.80296
523.334,57.3519,-2.66034,0.13608,0.80045
526.534,57.66978,-2.66197,0.12178,0.79794
529.734,57.98715,-2.66493,0.105,0.79542
532.934,58.3051,-2.66606,0.09644474,0.7929
536.134,58.62282,-2.66987,0.09468666,0.79037
539.334,58.94,-2.67119,0.09264289,0.78783
542.534,59.25813,-2.67374,0.09504789,0.78529
545.734,59.57705,-2.67612,0.08695037,0.78275
548.934,59.89533,-2.67878,0.08398839,0.7802
552.134,60.21388,-2.6814,0.0798363,0.77764
555.334,60.53213,-2.68393,0.07800058,0.77508
558.534,60.8507,-2.68532,0.07676231,0.77252
561.734,61.1696,-2.68731,0.07372705,0.76995
564.934,61.48885,-2.68994,0.06771589,0.76738
568.134,61.808,-2.69126,0.06766728,0.7648
571.334,62.1283,-2.6925,0.06600811,0.76222
574.534,62.44784,-2.69489,0.0650711,0.75963
577.734,62.76803,-2.69751,0.06261954,0.75704
580.934,63.08815,-2.70014,0.06410631,0.75445
584.134,63.4075,-2.70146,0.06437769,0.75185
587.334,63.72811,-2.70278,0.06990161,0.74925
590.534,64.0475,-2.70406,0.0703959,0.74665
593.734,64.3678,-2.70541,0.07234547,0.74404
596.934,64.68732,-2.70804,0.07523539,0.74142
600.134,65.00724,-2.71034,0.08012924,0.73881
603.334,65.32726,-2.71295,0.08386235,0.73619
606.534,65.64735,-2.71409,0.0877788,0.73357
609.734,65.96786,-2.71561,0.09246475,0.73094
612.934,66.288,-2.7158,0.10511,0.72831
616.134,66.6086,-2.71792,0.11084,0.72568
619.334,66.92917,-2.71988,0.12243,0.72305
622.534,67.24914,-2.72252,0.13411,0.72041
625.734,67.56992,-2.72581,0.15048,0.71777
628.934,67.89057,-2.7278,0.16134,0.71513
632.134,68.21171,-2.72909,0.17531,0.71248
635.334,68.53325,-2.73175,0.19163,0.70983
638.534,68.85409,-2.7372,0.21232,0.70718
641.734,69.17622,-2.74096,0.22535,0.70453
644.934,69.4984,-2.74521,0.24367,0.70188
648.134,69.82003,-2.74851,0.26471,0.69922
651.334,70.14251,-2.75248,0.28465,0.69656
654.534,70.46483,-2.75769,0.30605,0.6939
657.734,70.78756,-2.76234,0.33375,0.69123
660.934,71.1095,-2.76893,0.35922,0.68857
664.134,71.43186,-2.77565,0.38755,0.6859
667.334,71.75429,-2.78341,0.41968,0.68323
670.534,72.0779,-2.78978,0.44984,0.68056
673.734,72.40083,-2.79897,0.4775,0.67789
676.934,72.72221,-2.80698,0.50431,0.67522
680.134,73.0446,-2.81585,0.52687,0.67254
683.334,73.3673,-2.82587,0.54283,0.66987
686.534,73.68934,-2.83546,0.55559,0.66719
689.734,74.01228,-2.84513,0.55178,0.66451
692.934,74.33499,-2.8539,0.5445,0.66184
696.134,74.6577,-2.86369,0.53768,0.65916
699.334,74.9802,-2.87203,0.52531,0.65647
702.534,75.30414,-2.88061,0.48581,0.65379
705.734,75.62735,-2.88824,0.3863,0.65111
708.934,75.95015,-2.89287,0.14852,0.64843
712.134,76.2728,-2.89253,0.10345,0.64574
715.334,76.59639,-2.89479,0.09816514,0.64306
718.534,76.9207,-2.89648,0.08709529,0.64038
721.734,77.24473,-2.89747,0.07826904,0.63769
724.934,77.56873,-2.89878,0.0789337,0.63501
728.134,77.89291,-2.89872,0.07439547,0.63232
731.334,78.2157,-2.90075,0.06898098,0.62964
734.534,78.53833,-2.90076,0.06287777,0.62695
737.734,78.85982,-2.90109,0.05670026,0.62427
740.934,79.18174,-2.9034,0.05429439,0.62158
744.134,79.50362,-2.9047,0.05384144,0.6189
747.334,79.82715,-2.90471,0.04854433,0.61621
750.534,80.1506,-2.90603,0.04021816,0.61353
753.734,80.4747,-2.90744,0.03773769,0.61084
756.934,80.79842,-2.90792,0.03343082,0.60816
760.134,81.12226,-2.9073,0.02875419,0.60548
763.334,81.4466,-2.90893,0.02612496,0.6028
766.534,81.77109,-2.91062,0.0239915,0.60012
769.734,82.09464,-2.91129,0.02388926,0.59744
772.934,82.41843,-2.9126,0.02473539,0.59476
776.134,82.74277,-2.91359,0.02701101,0.59208
779.334,83.06589,-2.91324,0.02830469,0.5894
782.534,83.3897,-2.91393,0.02927603,0.58673
785.734,83.71387,-2.91524,0.02897543,0.58405
788.934,84.038,-2.91491,0.02461541,0.58138
792.134,84.36288,-2.9159,0.02604917,0.57871
795.334,84.6879,-2.91589,0.02360353,0.57604
798.334,84.99292,-2.91722,0.02766572,0.57354

File: Homasote_STA_N2_10KData_222104_R2.csv
##Temp./Â°C,Time/min,Mass loss(subtr.2)/mg,DSC(subtr.2)/(mW/mg),Sensit./(uV/mW)
49.688,10.01,0.01579,0.01238463,1.06052
52.988,11.33636,0.02047392,0.13541,1.05983
56.288,11.79583,0.01943034,0.19237,1.05913
59.588,12.18989,0.01687704,0.23138,1.0584
62.888,12.5604,0.0187508,0.24474,1.05765
66.188,12.92,0.02007048,0.24782,1.05689
69.488,13.27483,0.01826711,0.25688,1.0561
72.788,13.6246,0.01710564,0.26966,1.05529
76.088,13.97154,0.01477805,0.28239,1.05447
79.388,14.3137,0.01479379,0.29251,1.05362
82.688,14.6525,0.01373756,0.30056,1.05275
85.988,14.9882,0.01218148,0.30626,1.05187
89.288,15.31872,0.01086121,0.31014,1.05096
92.588,15.64947,0.01150777,0.31177,1.05004
95.888,15.9769,0.01006608,0.31333,1.04909
99.188,16.30371,0.00653262,0.31298,1.04813
102.488,16.62871,0.00623589,0.31356,1.04715
105.788,16.95309,0.00622428,0.31485,1.04615
109.088,17.27627,0.004152436,0.32088,1.04512
112.388,17.59941,0.004929742,0.31863,1.04409
115.688,17.92217,0.003610445,0.31962,1.04303
118.988,18.24384,0.002630515,0.31241,1.04195
122.288,18.5647,0.002618306,0.3056,1.04085
125.588,18.88474,0.001303031,0.29989,1.03974
128.888,19.20455,0.00131,0.29661,1.03861
132.188,19.52423,0.001308528,0.29425,1.03745
135.488,19.84381,0.00358127,0.2905,1.03628
138.788,20.16251,-0.0001424555,0.2949,1.0351
142.088,20.48266,0.0023,0.29415,1.03389
145.388,20.80043,0.00164041,0.29389,1.03267
148.688,21.11799,0.0009427458,0.30043,1.03143
151.988,21.4352,0.003290405,0.30336,1.03017
155.288,21.7525,0.002619085,0.30634,1.02889
158.588,22.06895,0.001309981,0.30763,1.02759
161.888,22.38505,0.00360999,0.31072,1.02628
165.188,22.70178,0.0009807331,0.31141,1.02495
168.488,23.01855,0.000968676,0.31349,1.02361
171.788,23.33474,0.00268021,0.31652,1.02224
175.088,23.65089,0.001280114,0.32185,1.02086
178.388,23.9653,-0.00033,0.32378,1.01946
181.688,24.28033,-9.999467e-06,0.32896,1.01805
184.988,24.595,8.206348e-05,0.33045,1.01662
188.288,24.91155,-0.00133,0.33119,1.01517
191.588,25.22476,-0.0030687,0.33431,1.0137
194.888,25.53941,-0.000871537,0.33957,1.01222
198.188,25.85399,-0.006457613,0.34261,1.01072
201.488,26.1676,-0.00813006,0.34721,1.00921
204.788,26.48195,-0.01206249,0.35194,1.00768
208.088,26.79695,-0.01469999,0.35658,1.00613
211.388,27.11208,-0.01721,0.36285,1.00457
214.688,27.4268,-0.01921405,0.36721,1.00299
217.988,27.74232,-0.02524638,0.36691,1.0014
221.288,28.05756,-0.02949003,0.37075,0.99979
224.588,28.37193,-0.03581412,0.36795,0.99816
227.888,28.68644,-0.04072594,0.37137,0.99652
231.188,29.0006,-0.047079,0.37163,0.99487
234.488,29.31458,-0.05625656,0.37544,0.9932
237.788,29.6295,-0.06283471,0.38044,0.99151
241.088,29.94459,-0.07349722,0.38257,0.98981
244.388,30.2591,-0.08429846,0.38528,0.98809
247.688,30.57338,-0.09394314,0.38659,0.98636
250.988,30.88812,-0.10679,0.39077,0.98462
254.288,31.20277,-0.11814,0.39392,0.98286
257.588,31.5174,-0.13362,0.39736,0.98108
260.888,31.83128,-0.1469,0.40167,0.97929
264.188,32.1474,-0.16436,0.40601,0.97749
267.488,32.46278,-0.18376,0.40816,0.97567
270.788,32.77773,-0.20322,0.41013,0.97384
274.088,33.0929,-0.22192,0.41636,0.972
277.388,33.40842,-0.24653,0.42083,0.97014
280.688,33.72391,-0.2724,0.42738,0.96827
283.988,34.0392,-0.29932,0.4333,0.96638
287.288,34.35454,-0.32761,0.44038,0.96448
290.588,34.67078,-0.36142,0.44582,0.96257
293.888,34.98709,-0.3952,0.45559,0.96064
297.188,35.30315,-0.43208,0.46222,0.9587
300.488,35.61939,-0.47291,0.47699,0.95675
303.788,35.93679,-0.51773,0.48599,0.95478
307.088,36.25343,-0.56653,0.49744,0.9528
310.388,36.57025,-0.61857,0.5122,0.95081
313.688,36.8874,-0.67162,0.52753,0.94881
316.988,37.20456,-0.73085,0.5427,0.94679
320.288,37.5218,-0.79572,0.56031,0.94477
323.588,37.83856,-0.86467,0.57818,0.94272
326.888,38.15591,-0.93904,0.59908,0.94067
330.188,38.4733,-1.01977,0.61981,0.93861
333.488,38.79096,-1.10115,0.64162,0.93653
336.788,39.10863,-1.19661,0.66534,0.93444
340.088,39.42745,-1.29347,0.69481,0.93234
343.388,39.7465,-1.40063,0.72024,0.93023
346.688,40.06512,-1.50918,0.74525,0.9281
349.988,40.38475,-1.62422,0.76646,0.92597
353.288,40.70411,-1.74484,0.78077,0.92382
356.588,41.02326,-1.86755,0.77875,0.92166
359.888,41.34255,-1.98744,0.75104,0.91949
363.188,41.66199,-2.09756,0.68022,0.91731
366.488,41.9803,-2.1926,0.57628,0.91512
369.788,42.2996,-2.26801,0.43756,0.91292
373.088,42.6185,-2.31637,0.3088,0.91071
376.388,42.93807,-2.34836,0.21218,0.90849
379.688,43.25651,-2.36793,0.15756,0.90625
382.988,43.57694,-2.37873,0.13296,0.90401
386.288,43.89759,-2.39012,0.12186,0.90176
389.588,44.21679,-2.39812,0.11277,0.89949
392.888,44.53699,-2.4074,0.10585,0.89722
396.188,44.85696,-2.41592,0.10069,0.89493
399.488,45.17752,-2.42505,0.09818027,0.89264
402.788,45.49884,-2.43304,0.09526425,0.89034
406.088,45.8206,-2.44206,0.08971241,0.88802
409.388,46.14177,-2.44929,0.09219459,0.8857
412.688,46.46414,-2.45566,0.08882293,0.88337
415.988,46.78698,-2.46542,0.08893394,0.88103
419.288,47.10964,-2.47341,0.08921057,0.87868
422.588,47.43249,-2.48047,0.09511718,0.87632
425.888,47.7556,-2.48983,0.09661029,0.87395
429.188,48.07858,-2.49615,0.10188,0.87157
432.488,48.40077,-2.50414,0.10719,0.86918
435.788,48.72508,-2.5149,0.10891,0.86679
439.088,49.04775,-2.52129,0.11992,0.86439
442.388,49.37036,-2.52609,0.12107,0.86197
445.688,49.69345,-2.53466,0.1268,0.85955
448.988,50.01737,-2.54069,0.13002,0.85712
452.288,50.3419,-2.54589,0.12818,0.85469
455.588,50.66632,-2.55262,0.13332,0.85224
458.888,50.991,-2.55788,0.13513,0.84979
462.188,51.31572,-2.56583,0.13334,0.84733
465.488,51.64067,-2.56886,0.13137,0.84486
468.788,51.96565,-2.57408,0.12771,0.84239
472.088,52.28928,-2.57807,0.12584,0.8399
475.388,52.6158,-2.58355,0.11931,0.83741
478.688,52.9414,-2.58816,0.12084,0.83492
481.988,53.2671,-2.59442,0.11957,0.83241
485.288,53.5933,-2.596,0.11702,0.8299
488.588,53.91956,-2.60111,0.11649,0.82738
491.888,54.24567,-2.60506,0.11063,0.82485
495.188,54.57212,-2.60868,0.10841,0.82232
498.488,54.8982,-2.61264,0.10381,0.81978
501.788,55.2238,-2.6179,0.10791,0.81723
505.088,55.5496,-2.62019,0.11525,0.81468
508.388,55.8745,-2.62282,0.12624,0.81212
511.688,56.20222,-2.62527,0.13098,0.80956
514.988,56.529,-2.62807,0.13302,0.80698
518.288,56.8561,-2.6317,0.1306,0.80441
521.588,57.18245,-2.63171,0.12081,0.80182
524.888,57.51028,-2.63635,0.11404,0.79923
528.188,57.83811,-2.6396,0.11159,0.79664
531.488,58.1659,-2.64093,0.09798794,0.79404
534.788,58.49436,-2.64355,0.08866607,0.79143
538.088,58.8249,-2.64734,0.07621359,0.78882
541.388,59.15371,-2.65145,0.07072996,0.7862
544.688,59.4823,-2.65145,0.06316087,0.78358
547.988,59.8113,-2.65276,0.05985821,0.78095
551.288,60.1397,-2.65539,0.05261038,0.77832
554.588,60.46714,-2.65673,0.0441308,0.77568
557.888,60.79636,-2.6595,0.03656801,0.77304
561.188,61.12471,-2.66143,0.02944912,0.77039
564.488,61.45301,-2.66492,0.02122377,0.76774
567.788,61.78082,-2.66589,0.01394836,0.76508
571.088,62.1091,-2.66812,0.01222843,0.76242
574.388,62.43741,-2.66571,0.003148728,0.75975
577.688,62.76614,-2.67262,0.002592971,0.75708
580.988,63.0947,-2.66908,-0.00420451,0.75441
584.288,63.42383,-2.675,-0.006728765,0.75173
587.588,63.75356,-2.67635,-0.01094712,0.74904
590.888,64.08482,-2.6787,-0.0121627,0.74636
594.188,64.41583,-2.68129,-0.01013303,0.74367
597.488,64.74551,-2.68127,-0.00696911,0.74097
600.788,65.07566,-2.67997,-0.0004964279,0.73827
604.088,65.40479,-2.6849,0.004263446,0.73557
607.388,65.73389,-2.68491,0.01209532,0.73287
610.688,66.06424,-2.68837,0.01825063,0.73016
613.988,66.39502,-2.68986,0.02557407,0.72745
617.288,66.72569,-2.69148,0.04287636,0.72473
620.588,67.05688,-2.69475,0.05315479,0.72201
623.888,67.3879,-2.69774,0.06841435,0.71929
627.188,67.71948,-2.69898,0.08637183,0.71657
630.488,68.05179,-2.70487,0.10395,0.71384
633.788,68.384,-2.70752,0.12666,0.71111
637.088,68.71599,-2.71114,0.14166,0.70838
640.388,69.04765,-2.71777,0.16537,0.70565
643.688,69.37807,-2.71773,0.18318,0.70291
646.988,69.71051,-2.72283,0.20865,0.70017
650.288,70.0433,-2.7296,0.23243,0.69743
653.588,70.37598,-2.73788,0.26216,0.69468
656.888,70.70735,-2.74282,0.29232,0.69194
660.188,71.03846,-2.74992,0.32245,0.68919
663.488,71.36931,-2.75673,0.35147,0.68644
666.788,71.69941,-2.76476,0.3808,0.68369
670.088,72.02946,-2.77387,0.41076,0.68094
673.388,72.36123,-2.78618,0.4373,0.67818
676.688,72.69409,-2.79462,0.4489,0.67542
679.988,73.02702,-2.80393,0.45011,0.67267
683.288,73.36215,-2.81335,0.44339,0.66991
686.588,73.69548,-2.82427,0.42711,0.66715
689.888,74.02756,-2.83545,0.40418,0.66439
693.188,74.36057,-2.84169,0.38502,0.66162
696.488,74.6926,-2.84941,0.34069,0.65886
699.788,75.02675,-2.85864,0.22035,0.65609
703.088,75.3604,-2.86358,0.01883362,0.65333
706.388,75.69402,-2.864,-0.008742018,0.65056
709.688,76.03186,-2.86424,-0.01328378,0.6478
712.988,76.37079,-2.86489,-0.01892453,0.64503
716.288,76.70858,-2.8649,-0.01906078,0.64226
719.588,77.04477,-2.86786,-0.02294465,0.63949
722.888,77.37915,-2.86918,-0.02097564,0.63672
726.188,77.7124,-2.8695,-0.02679508,0.63395
729.488,78.04584,-2.8695,-0.02352224,0.63119
732.788,78.37836,-2.86972,-0.02908751,0.62842
736.088,78.71131,-2.87339,-0.02734605,0.62565
739.388,79.04481,-2.87479,-0.02666393,0.62288
742.688,79.37902,-2.87609,-0.03429886,0.62011
745.988,79.71304,-2.87478,-0.04266994,0.61734
749.288,80.04601,-2.87741,-0.04565613,0.61457
752.588,80.3779,-2.87627,-0.0498273,0.61181
755.888,80.71171,-2.87945,-0.04872556,0.60904
759.188,81.04528,-2.87938,-0.06266979,0.60627
762.488,81.37925,-2.88037,-0.06987484,0.60351
765.788,81.71281,-2.88036,-0.07112124,0.60074
769.088,82.04688,-2.88034,-0.08291589,0.59798
772.388,82.3798,-2.88037,-0.09278913,0.59522
775.688,82.714,-2.88464,-0.09734761,0.59245
778.988,83.04847,-2.88337,-0.10673,0.58969
782.288,83.38405,-2.88398,-0.11584,0.58693
785.588,83.71908,-2.88464,-0.11854,0.58418
788.888,84.0552,-2.88644,-0.12603,0.58142
792.188,84.3917,-2.88629,-0.13572,0.57866
795.488,84.72807,-2.88629,-0.14274,0.57591
798.088,84.99298,-2.88629,-0.15337,0.57374