Folder: fsri_materials_database/01_Data/Homasote/STA/N2/30K_min (part 2)

File: Homasote_STA_N2_30KData_222204_R3.csv
##Temp./Â°C,Time/min,Mass loss(subtr.2)/mg,DSC(subtr.2)/(mW/mg),Sensit./(uV/mW)
48.469,10.00667,0.03422,0.004080579,1.07507
51.669,10.88085,0.0381501,0.16748,1.07366
54.869,11.11607,0.03558208,0.27913,1.07223
58.069,11.29543,0.03539818,0.37807,1.0708
61.269,11.45009,0.0377236,0.44701,1.06935
64.469,11.5908,0.03822225,0.48081,1.06789
67.669,11.72277,0.03853404,0.52052,1.06642
70.869,11.84811,0.03901593,0.55904,1.06494
74.069,11.96924,0.03725801,0.597,1.06345
77.269,12.08795,0.03678639,0.6338,1.06194
80.469,12.20375,0.03855061,0.6667,1.06043
83.669,12.31782,0.0365084,0.69972,1.05891
86.869,12.42976,0.03800907,0.73317,1.05737
90.069,12.54074,0.03634545,0.75932,1.05583
93.269,12.6504,0.03655972,0.78835,1.05427
96.469,12.75925,0.03552502,0.8166,1.05271
99.669,12.86726,0.03422247,0.8431,1.05113
102.869,12.97519,0.03289891,0.86601,1.04954
106.069,13.08265,0.03290002,0.88317,1.04795
109.269,13.18985,0.0315854,0.89641,1.04634
112.469,13.29662,0.0289325,0.91074,1.04473
115.669,13.4032,0.02895,0.9236,1.0431
118.869,13.50963,0.02870441,0.93577,1.04147
122.069,13.6153,0.02725977,0.95314,1.03982
125.269,13.72055,0.02731,0.96385,1.03817
128.469,13.8253,0.02731,0.96757,1.03651
131.669,13.92966,0.02603526,0.96839,1.03484
134.869,14.0335,0.02466955,0.96235,1.03315
138.069,14.13669,0.02468025,0.95456,1.03147
141.269,14.2394,0.02468005,0.94481,1.02977
144.469,14.34176,0.02337354,0.93951,1.02806
147.669,14.4435,0.02139,0.94287,1.02634
150.869,14.54504,0.02270077,0.94353,1.02462
154.069,14.6463,0.02270992,0.95043,1.02289
157.269,14.7476,0.02402,0.95649,1.02115
160.469,14.84808,0.02270103,0.9658,1.0194
163.669,14.94864,0.02270004,0.97293,1.01764
166.869,15.0489,0.02401999,0.98468,1.01587
170.069,15.14901,0.02402,0.99487,1.0141
173.269,15.24886,0.02288716,1.00392,1.01232
176.469,15.34855,0.02204006,1.01564,1.01053
179.669,15.44771,0.02170998,1.02585,1.00873
182.869,15.54664,0.02171,1.03748,1.00692
186.069,15.6452,0.0216939,1.04687,1.00511
189.269,15.74349,0.02105002,1.05691,1.00329
192.469,15.8417,0.02138996,1.06703,1.00146
195.669,15.93963,0.02007,1.08078,0.99963
198.869,16.03739,0.01876079,1.08895,0.99779
202.069,16.13537,0.01760949,1.10032,0.99594
205.269,16.23251,0.01743,1.11266,0.99408
208.469,16.33021,0.01611666,1.12364,0.99222
211.669,16.42745,0.01612,1.13741,0.99035
214.869,16.5246,0.01311922,1.14911,0.98847
218.069,16.62208,0.01019109,1.16274,0.98659
221.269,16.71925,0.009869681,1.17591,0.9847
224.469,16.81604,0.00847144,1.18739,0.9828
227.669,16.91321,0.00460494,1.19663,0.9809
230.869,17.01018,0.0002289944,1.20495,0.97898
234.069,17.10726,-0.002917704,1.21576,0.97707
237.269,17.20414,-0.00709824,1.22639,0.97515
240.469,17.30079,-0.01192989,1.23816,0.97322
243.669,17.3977,-0.01599349,1.24844,0.97128
246.869,17.49447,-0.02294224,1.25733,0.96934
250.069,17.59103,-0.02839447,1.27454,0.96739
253.269,17.68766,-0.03536884,1.28369,0.96544
256.469,17.78435,-0.04269957,1.29943,0.96348
259.669,17.88094,-0.05217011,1.31239,0.96151
262.869,17.9774,-0.05988752,1.32406,0.95954
266.069,18.07389,-0.07044498,1.3364,0.95756
269.269,18.17009,-0.08109919,1.34421,0.95558
272.469,18.26663,-0.09366653,1.35792,0.95359
275.669,18.36303,-0.10679,1.36442,0.9516
278.869,18.45958,-0.11896,1.37848,0.9496
282.069,18.55611,-0.1338,1.38411,0.94759
285.269,18.65266,-0.1487,1.39534,0.94558
288.469,18.7489,-0.16596,1.403,0.94357
291.669,18.84579,-0.18615,1.41028,0.94154
294.869,18.94225,-0.20666,1.42196,0.93952
298.069,19.03902,-0.23021,1.43022,0.93749
301.269,19.13562,-0.25547,1.44383,0.93545
304.469,19.23228,-0.28238,1.45491,0.93341
307.669,19.3289,-0.30979,1.46906,0.93136
310.869,19.4258,-0.34259,1.48489,0.92931
314.069,19.52259,-0.37637,1.50525,0.92725
317.269,19.6195,-0.41355,1.52855,0.92519
320.469,19.7164,-0.45131,1.55514,0.92313
323.669,19.8135,-0.49475,1.58651,0.92106
326.869,19.91065,-0.53966,1.61602,0.91898
330.069,20.0079,-0.59032,1.65103,0.9169
333.269,20.10523,-0.64072,1.69205,0.91482
336.469,20.20265,-0.69749,1.73025,0.91273
339.669,20.30013,-0.75659,1.77273,0.91063
342.869,20.39762,-0.82073,1.81194,0.90853
346.069,20.49529,-0.8887,1.85934,0.90643
349.269,20.5932,-0.96152,1.90469,0.90433
352.469,20.69119,-1.03661,1.95274,0.90221
355.669,20.7891,-1.11919,2.00674,0.9001
358.869,20.88726,-1.20598,2.06657,0.89798
362.069,20.98544,-1.29775,2.12549,0.89585
365.269,21.08376,-1.39408,2.18169,0.89373
368.469,21.18206,-1.49536,2.23867,0.89159
371.669,21.2807,-1.60109,2.28724,0.88946
374.869,21.3794,-1.70931,2.31672,0.88732
378.069,21.47801,-1.82153,2.313,0.88517
381.269,21.57686,-1.93201,2.25528,0.88302
384.469,21.67543,-2.03748,2.13299,0.88087
387.669,21.77453,-2.13079,1.93053,0.87872
390.869,21.87327,-2.20749,1.65742,0.87656
394.069,21.97213,-2.26946,1.34536,0.87439
397.269,22.07081,-2.30801,1.05527,0.87222
400.469,22.16951,-2.33418,0.84187,0.87005
403.669,22.26835,-2.35035,0.7052,0.86788
406.869,22.36747,-2.36271,0.62587,0.8657
410.069,22.4664,-2.3715,0.57842,0.86352
413.269,22.56597,-2.37863,0.54886,0.86133
416.469,22.66546,-2.38759,0.52609,0.85914
419.669,22.76509,-2.3951,0.51411,0.85695
422.869,22.86486,-2.40161,0.50294,0.85475
426.069,22.96464,-2.4088,0.49307,0.85255
429.269,23.0646,-2.41868,0.4881,0.85035
432.469,23.16491,-2.42463,0.48512,0.84814
435.669,23.265,-2.43138,0.48518,0.84593
438.869,23.36565,-2.43949,0.48908,0.84372
442.069,23.46615,-2.44584,0.49313,0.8415
445.269,23.56682,-2.45371,0.50175,0.83928
448.469,23.66763,-2.4625,0.50916,0.83706
451.669,23.76847,-2.4676,0.5218,0.83483
454.869,23.86942,-2.47626,0.53388,0.8326
458.069,23.97061,-2.48177,0.54789,0.83037
461.269,24.07198,-2.48877,0.55658,0.82813
464.469,24.17331,-2.49602,0.56696,0.82589
467.669,24.27479,-2.50189,0.57685,0.82365
470.869,24.3763,-2.50764,0.58681,0.8214
474.069,24.47805,-2.51324,0.59343,0.81915
477.269,24.58,-2.52015,0.60053,0.8169
480.469,24.68178,-2.52525,0.60985,0.81465
483.669,24.7835,-2.5311,0.61327,0.81239
486.869,24.88555,-2.5369,0.61139,0.81013
490.069,24.98808,-2.54252,0.61272,0.80786
493.269,25.09028,-2.5473,0.60952,0.8056
496.469,25.19258,-2.55139,0.60744,0.80333
499.669,25.29485,-2.55726,0.6037,0.80105
502.869,25.3973,-2.56195,0.59568,0.79878
506.069,25.49991,-2.56643,0.58838,0.7965
509.269,25.6025,-2.57045,0.58187,0.79422
512.469,25.70513,-2.57301,0.5764,0.79194
515.669,25.80774,-2.57657,0.57141,0.78965
518.869,25.9105,-2.57988,0.56362,0.78736
522.069,26.01362,-2.58401,0.55834,0.78507
525.269,26.11664,-2.58695,0.55195,0.78277
528.469,26.2197,-2.58969,0.54423,0.78048
531.669,26.32299,-2.59315,0.54179,0.77818
534.869,26.42632,-2.59528,0.53491,0.77588
538.069,26.5297,-2.59747,0.53199,0.77357
541.269,26.633,-2.60022,0.53061,0.77126
544.469,26.73648,-2.60286,0.52457,0.76895
547.669,26.8402,-2.60659,0.52176,0.76664
550.869,26.9437,-2.60823,0.52089,0.76433
554.069,27.0475,-2.61087,0.51975,0.76201
557.269,27.15125,-2.6145,0.52012,0.75969
560.469,27.25497,-2.61639,0.52363,0.75737
563.669,27.3589,-2.61722,0.52969,0.75504
566.869,27.46303,-2.61854,0.53831,0.75271
570.069,27.56687,-2.62216,0.54193,0.75038
573.269,27.671,-2.62347,0.54605,0.74805
576.469,27.7752,-2.62354,0.55079,0.74572
579.669,27.8795,-2.62765,0.55299,0.74338
582.869,27.98375,-2.63039,0.55407,0.74104
586.069,28.08823,-2.63171,0.55761,0.7387
589.269,28.19247,-2.63301,0.55405,0.73636
592.469,28.29717,-2.63429,0.55118,0.73402
595.669,28.4017,-2.63697,0.54724,0.73167
598.869,28.5064,-2.63959,0.54302,0.72932
602.069,28.61113,-2.64095,0.53806,0.72697
605.269,28.7161,-2.64224,0.53562,0.72461
608.469,28.82106,-2.64491,0.53116,0.72226
611.669,28.92591,-2.64617,0.52654,0.7199
614.869,29.03091,-2.64818,0.52293,0.71754
618.069,29.1361,-2.64909,0.52036,0.71518
621.269,29.24108,-2.65154,0.51889,0.71281
624.469,29.34623,-2.65439,0.516,0.71045
627.669,29.45135,-2.65351,0.51526,0.70808
630.869,29.55661,-2.6557,0.51769,0.70571
634.069,29.6619,-2.65833,0.52171,0.70334
637.269,29.76703,-2.65835,0.53021,0.70097
640.469,29.8723,-2.66099,0.53537,0.69859
643.669,29.9777,-2.66231,0.54874,0.69622
646.869,30.083,-2.66525,0.56071,0.69384
650.069,30.1886,-2.66766,0.5756,0.69146
653.269,30.2939,-2.66795,0.59535,0.68907
656.469,30.39971,-2.67163,0.61212,0.68669
659.669,30.5052,-2.67342,0.63565,0.68431
662.869,30.6109,-2.67426,0.65975,0.68192
666.069,30.7163,-2.67904,0.691,0.67953
669.269,30.8222,-2.6821,0.73168,0.67714
672.469,30.9278,-2.68478,0.77439,0.67475
675.669,31.0335,-2.68928,0.82595,0.67236
678.869,31.1395,-2.69202,0.88511,0.66996
682.069,31.24526,-2.69626,0.95261,0.66757
685.269,31.3512,-2.70118,1.01947,0.66517
688.469,31.45699,-2.70699,1.09158,0.66277
691.669,31.56335,-2.7122,1.17136,0.66037
694.869,31.66943,-2.71841,1.25118,0.65797
698.069,31.77562,-2.72521,1.32984,0.65557
701.269,31.88185,-2.73237,1.41874,0.65316
704.469,31.9882,-2.73992,1.49571,0.65076
707.669,32.09476,-2.74737,1.57331,0.64835
710.869,32.20127,-2.75678,1.63734,0.64594
714.069,32.30788,-2.76665,1.69286,0.64354
717.269,32.41455,-2.7766,1.7247,0.64113
720.469,32.5214,-2.78562,1.72353,0.63872
723.669,32.6282,-2.79708,1.69854,0.6363
726.869,32.7352,-2.80565,1.65726,0.63389
730.069,32.84189,-2.81481,1.60966,0.63148
733.269,32.94879,-2.82152,1.50661,0.62906
736.469,33.05557,-2.82959,1.24902,0.62665
739.669,33.16231,-2.83445,0.69379,0.62423
742.869,33.26882,-2.83446,0.42731,0.62182
746.069,33.3754,-2.83704,0.34208,0.6194
749.269,33.48256,-2.83835,0.31004,0.61698
752.469,33.58933,-2.83932,0.2937,0.61456
755.669,33.69677,-2.84033,0.28193,0.61214
758.869,33.80376,-2.84065,0.27547,0.60972
762.069,33.9108,-2.84197,0.26676,0.6073
765.269,34.01795,-2.84131,0.25738,0.60488
768.469,34.12505,-2.84263,0.25315,0.60246
771.669,34.2322,-2.84395,0.24487,0.60004
774.869,34.33934,-2.84554,0.23712,0.59761
778.069,34.44645,-2.84658,0.2327,0.59519
781.269,34.55369,-2.84694,0.22318,0.59277
784.469,34.66095,-2.84921,0.21412,0.59035
787.669,34.76826,-2.84789,0.2095,0.58792
790.869,34.87549,-2.84921,0.20208,0.5855
794.069,34.98295,-2.85197,0.19968,0.58307
794.569,34.99954,-2.85195,0.19376,0.5827