Folder: fsri_materials_database/01_Data/Homasote/STA/N2/30K_min

Note: 01_Data/README.md
# Materials and Products Database
## 01_Data

Raw data generated from each apparatus are included here in plain-text format. The data is organized first by material, next by the short name of test apparatus used, and where applicable additional filtering by test settings.

### material.json

Each material directory contains a json file of the same name as the material. This file links the data stored in the repository as well as data and graphs produced by the accompanying scripts (__02_Scripts__) to the respective landing page for the material on the front-end website.

File: Homasote_STA_N2_30KData_222104_R1.csv
##Temp./Â°C,Time/min,Mass loss(subtr.2)/mg,DSC(subtr.2)/(mW/mg),Sensit./(uV/mW)
48.5,10.00583,-0.04618,0.01453977,1.07506
51.5,10.86329,-0.0480363,0.15582,1.07373
54.5,11.08993,-0.04969097,0.25946,1.0724
57.5,11.26291,-0.05104128,0.35458,1.07105
60.5,11.41261,-0.0500286,0.42993,1.0697
63.5,11.5467,-0.05102975,0.47327,1.06833
66.5,11.6732,-0.05129968,0.5075,1.06696
69.5,11.79326,-0.05227338,0.5452,1.06557
72.5,11.90863,-0.05317066,0.5789,1.06418
75.5,12.0216,-0.05406608,0.61466,1.06278
78.5,12.13141,-0.05716906,0.64895,1.06136
81.5,12.2399,-0.05747235,0.68247,1.05994
84.5,12.34656,-0.05895445,0.71643,1.05851
87.5,12.451,-0.05926351,0.74726,1.05707
90.5,12.555,-0.06078955,0.77637,1.05562
93.5,12.65771,-0.0621252,0.8048,1.05416
96.5,12.76024,-0.06589458,0.82896,1.05269
99.5,12.8619,-0.06648371,0.84863,1.05121
102.5,12.96299,-0.06850088,0.86311,1.04973
105.5,13.0641,-0.07047231,0.87593,1.04823
108.5,13.1648,-0.0706261,0.87959,1.04673
111.5,13.2653,-0.0727329,0.8872,1.04522
114.5,13.36549,-0.07404297,0.88332,1.0437
117.5,13.4654,-0.07536,0.88345,1.04217
120.5,13.5649,-0.07759653,0.88509,1.04063
123.5,13.66394,-0.07898077,0.89022,1.03908
126.5,13.76261,-0.0806204,0.89427,1.03753
129.5,13.86081,-0.08324665,0.8938,1.03597
132.5,13.9585,-0.08456986,0.88855,1.0344
135.5,14.0555,-0.08589,0.88183,1.03282
138.5,14.15195,-0.08589,0.86833,1.03124
141.5,14.2486,-0.08717658,0.85547,1.02964
144.5,14.34424,-0.08851835,0.84532,1.02804
147.5,14.4397,-0.08950602,0.83737,1.02643
150.5,14.53496,-0.08983669,0.83012,1.02482
153.5,14.63001,-0.08885,0.82995,1.0232
156.5,14.7243,-0.0898402,0.83231,1.02156
159.5,14.8188,-0.0908288,0.83489,1.01993
162.5,14.91315,-0.09214,0.8373,1.01828
165.5,15.0067,-0.09345999,0.84416,1.01663
168.5,15.1012,-0.0929366,0.85002,1.01497
171.5,15.19486,-0.09205242,0.85805,1.0133
174.5,15.2882,-0.09412,0.86515,1.01163
177.5,15.38151,-0.09412,0.87429,1.00995
180.5,15.4745,-0.09412,0.88257,1.00826
183.5,15.567,-0.09619465,0.89026,1.00657
186.5,15.65947,-0.09642,0.89686,1.00487
189.5,15.75165,-0.09700937,0.9069,1.00316
192.5,15.84332,-0.09807398,0.91576,1.00145
195.5,15.9352,-0.09938,0.92246,0.99973
198.5,16.02693,-0.1007,0.93036,0.998
201.5,16.11852,-0.10201,0.93669,0.99627
204.5,16.20966,-0.10332,0.94527,0.99453
207.5,16.30113,-0.1033,0.95323,0.99278
210.5,16.39247,-0.10465,0.96135,0.99103
213.5,16.48337,-0.10729,0.97139,0.98928
216.5,16.5746,-0.10728,0.97838,0.98751
219.5,16.6657,-0.1099,0.98462,0.98574
222.5,16.75664,-0.11288,0.99662,0.98397
225.5,16.8476,-0.11529,1.00562,0.98219
228.5,16.93861,-0.11803,1.01349,0.9804
231.5,17.02944,-0.12078,1.02008,0.97861
234.5,17.12014,-0.12393,1.02661,0.97681
237.5,17.21096,-0.12761,1.0337,0.97501
240.5,17.3017,-0.13307,1.04056,0.9732
243.5,17.39216,-0.13892,1.05083,0.97138
246.5,17.48284,-0.14637,1.06089,0.96956
249.5,17.5733,-0.15184,1.06774,0.96774
252.5,17.66405,-0.15788,1.07803,0.96591
255.5,17.7545,-0.16492,1.08917,0.96407
258.5,17.84494,-0.17158,1.09945,0.96223
261.5,17.93548,-0.17987,1.11265,0.96038
264.5,18.02577,-0.18976,1.12325,0.95853
267.5,18.1161,-0.19956,1.13178,0.95668
270.5,18.20648,-0.20955,1.13936,0.95481
273.5,18.2968,-0.22093,1.14957,0.95295
276.5,18.38714,-0.2331,1.15531,0.95108
279.5,18.47768,-0.24649,1.16069,0.9492
282.5,18.5682,-0.25939,1.17102,0.94732
285.5,18.65875,-0.27664,1.17656,0.94544
288.5,18.74934,-0.29378,1.18148,0.94355
291.5,18.83994,-0.31136,1.19047,0.94165
294.5,18.93042,-0.33137,1.19722,0.93975
297.5,19.02104,-0.35398,1.20594,0.93785
300.5,19.11161,-0.37934,1.21337,0.93594
303.5,19.2023,-0.40459,1.22032,0.93403
306.5,19.2929,-0.43109,1.23174,0.93211
309.5,19.38356,-0.46183,1.24452,0.93019
312.5,19.47437,-0.49346,1.25809,0.92826
315.5,19.56524,-0.52867,1.27652,0.92633
318.5,19.65602,-0.56478,1.29615,0.9244
321.5,19.74705,-0.60487,1.31703,0.92246
324.5,19.83783,-0.64583,1.34361,0.92052
327.5,19.92882,-0.69324,1.37264,0.91857
330.5,20.02009,-0.74124,1.40409,0.91662
333.5,20.11122,-0.79093,1.43733,0.91467
336.5,20.20264,-0.84532,1.47187,0.91271
339.5,20.29403,-0.90131,1.50215,0.91074
342.5,20.38564,-0.96358,1.53786,0.90878
345.5,20.47726,-1.02956,1.57118,0.90681
348.5,20.56896,-1.09941,1.60756,0.90483
351.5,20.66084,-1.17328,1.64713,0.90285
354.5,20.75275,-1.25107,1.68684,0.90087
357.5,20.84477,-1.33169,1.72113,0.89889
360.5,20.937,-1.41715,1.7586,0.8969
363.5,21.02903,-1.50693,1.79661,0.8949
366.5,21.12143,-1.60272,1.83707,0.89291
369.5,21.21386,-1.70151,1.86602,0.89091
372.5,21.30624,-1.80592,1.88927,0.8889
375.5,21.39919,-1.91022,1.89231,0.88689
378.5,21.49185,-2.01688,1.87041,0.88488
381.5,21.5846,-2.12046,1.80159,0.88287
384.5,21.6773,-2.21957,1.68142,0.88085
387.5,21.7704,-2.30886,1.50077,0.87883
390.5,21.863,-2.38508,1.26513,0.87681
393.5,21.95572,-2.44417,1.003,0.87478
396.5,22.04841,-2.48454,0.75812,0.87275
399.5,22.14099,-2.51271,0.57063,0.87071
402.5,22.23388,-2.52972,0.44547,0.86867
405.5,22.32638,-2.54261,0.3771,0.86663
408.5,22.41982,-2.55064,0.33727,0.86459
411.5,22.51312,-2.55748,0.32014,0.86254
414.5,22.60632,-2.56713,0.31964,0.86049
417.5,22.69976,-2.57312,0.3198,0.85844
420.5,22.79329,-2.58181,0.31637,0.85638
423.5,22.88697,-2.5893,0.31129,0.85432
426.5,22.98084,-2.59799,0.30038,0.85226
429.5,23.0747,-2.60588,0.29287,0.85019
432.5,23.16874,-2.61248,0.28304,0.84812
435.5,23.26272,-2.61843,0.27641,0.84605
438.5,23.3572,-2.62497,0.27546,0.84397
441.5,23.45143,-2.63393,0.27762,0.84189
444.5,23.54601,-2.64247,0.28276,0.83981
447.5,23.64041,-2.64788,0.29027,0.83773
450.5,23.7351,-2.6557,0.29329,0.83564
453.5,23.82999,-2.66209,0.30711,0.83355
456.5,23.92485,-2.67055,0.31623,0.83146
459.5,24.01973,-2.67539,0.32419,0.82937
462.5,24.11492,-2.68287,0.33521,0.82727
465.5,24.21003,-2.68858,0.34659,0.82517
468.5,24.30526,-2.6967,0.35182,0.82306
471.5,24.40045,-2.70165,0.36159,0.82096
474.5,24.49573,-2.7079,0.36967,0.81885
477.5,24.5913,-2.71446,0.37182,0.81674
480.5,24.68667,-2.7198,0.37613,0.81462
483.5,24.7822,-2.72471,0.37687,0.81251
486.5,24.87797,-2.72952,0.37286,0.81039
489.5,24.9737,-2.73526,0.36937,0.80827
492.5,25.06943,-2.7402,0.36747,0.80614
495.5,25.1653,-2.74501,0.36688,0.80401
498.5,25.2611,-2.75094,0.35618,0.80188
501.5,25.3571,-2.7558,0.3524,0.79975
504.5,25.4531,-2.75853,0.34352,0.79762
507.5,25.54911,-2.76277,0.3344,0.79548
510.5,25.64537,-2.76605,0.32653,0.79334
513.5,25.74149,-2.77045,0.3167,0.7912
516.5,25.83769,-2.77413,0.30586,0.78906
519.5,25.93405,-2.77661,0.29628,0.78691
522.5,26.0303,-2.78067,0.28832,0.78476
525.5,26.12676,-2.7834,0.27726,0.78261
528.5,26.2233,-2.78493,0.26694,0.78046
531.5,26.32,-2.7889,0.25992,0.7783
534.5,26.41662,-2.79403,0.25168,0.77614
537.5,26.51329,-2.79645,0.24135,0.77398
540.5,26.6102,-2.7983,0.23365,0.77182
543.5,26.70706,-2.80094,0.22806,0.76965
546.5,26.80415,-2.80378,0.2178,0.76749
549.5,26.9012,-2.80623,0.21271,0.76532
552.5,26.9983,-2.81015,0.21089,0.76314
555.5,27.0953,-2.81046,0.21112,0.76097
558.5,27.1924,-2.81313,0.21165,0.7588
561.5,27.28945,-2.81599,0.21233,0.75662
564.5,27.38669,-2.81852,0.2155,0.75444
567.5,27.48385,-2.82108,0.21855,0.75226
570.5,27.5812,-2.82294,0.21557,0.75007
573.5,27.67851,-2.8264,0.21419,0.74788
576.5,27.77613,-2.82703,0.20994,0.7457
579.5,27.87375,-2.82882,0.20509,0.74351
582.5,27.97152,-2.83102,0.19992,0.74131
585.5,28.06927,-2.83232,0.1962,0.73912
588.5,28.167,-2.83496,0.18241,0.73692
591.5,28.26497,-2.83594,0.17211,0.73473
594.5,28.363,-2.83856,0.1658,0.73253
597.5,28.4612,-2.83877,0.15646,0.73032
600.5,28.55919,-2.84219,0.15308,0.72812
603.5,28.65751,-2.8425,0.14259,0.72591
606.5,28.7557,-2.84492,0.14008,0.72371
609.5,28.8542,-2.84625,0.1306,0.7215
612.5,28.9526,-2.84756,0.12622,0.71929
615.5,29.05116,-2.85017,0.12178,0.71707
618.5,29.1497,-2.85149,0.11572,0.71486
621.5,29.24842,-2.85159,0.10449,0.71264
624.5,29.3471,-2.85496,0.10457,0.71043
627.5,29.4459,-2.85547,0.10274,0.70821
630.5,29.54458,-2.85679,0.10203,0.70598
633.5,29.6434,-2.85908,0.1004,0.70376
636.5,29.7423,-2.85909,0.10314,0.70154
639.5,29.84082,-2.86188,0.10079,0.69931
642.5,29.9401,-2.86338,0.10479,0.69708
645.5,30.03892,-2.86596,0.11399,0.69485
648.5,30.1379,-2.86666,0.12496,0.69262
651.5,30.2371,-2.86929,0.13783,0.69039
654.5,30.3364,-2.86924,0.14891,0.68816
657.5,30.43542,-2.87187,0.16333,0.68592
660.5,30.5345,-2.87455,0.18151,0.68369
663.5,30.6334,-2.87591,0.1989,0.68145
666.5,30.7329,-2.87852,0.2193,0.67921
669.5,30.83196,-2.88153,0.24807,0.67697
672.5,30.93095,-2.88526,0.28064,0.67473
675.5,31.02968,-2.88793,0.32067,0.67248
678.5,31.12955,-2.89196,0.36811,0.67024
681.5,31.22846,-2.89562,0.41589,0.66799
684.5,31.32795,-2.90151,0.47462,0.66575
687.5,31.4273,-2.90483,0.52895,0.6635
690.5,31.52634,-2.90942,0.59184,0.66125
693.5,31.626,-2.91392,0.65864,0.659
696.5,31.7255,-2.91913,0.72741,0.65674
699.5,31.82491,-2.92776,0.79319,0.65449
702.5,31.92444,-2.93414,0.86022,0.65224
705.5,32.02397,-2.94179,0.92759,0.64998
708.5,32.1235,-2.94945,0.99267,0.64773
711.5,32.22319,-2.9561,1.05705,0.64547
714.5,32.32285,-2.96409,1.11189,0.64321
717.5,32.42279,-2.97407,1.15362,0.64095
720.5,32.52262,-2.9812,1.18868,0.63869
723.5,32.62235,-2.98994,1.2018,0.63643
726.5,32.72227,-2.99945,1.19573,0.63417
729.5,32.822,-3.01029,1.18167,0.63191
732.5,32.9219,-3.01801,1.15648,0.62965
735.5,33.02187,-3.02697,1.11311,0.62738
738.5,33.12178,-3.03609,0.99773,0.62512
741.5,33.22167,-3.04176,0.73786,0.62285
744.5,33.32162,-3.04404,0.21754,0.62058
747.5,33.42143,-3.04681,-0.03357973,0.61832
750.5,33.52148,-3.04895,-0.12211,0.61605
753.5,33.62148,-3.04912,-0.16078,0.61378
756.5,33.7216,-3.05176,-0.17629,0.61151
759.5,33.82172,-3.0506,-0.19565,0.60925
762.5,33.9219,-3.0519,-0.20393,0.60698
765.5,34.0221,-3.05212,-0.21411,0.60471
768.5,34.12227,-3.05355,-0.22193,0.60244
771.5,34.22255,-3.05487,-0.22749,0.60017
774.5,34.32264,-3.05487,-0.23639,0.59789
777.5,34.423,-3.05654,-0.2438,0.59562
780.5,34.52335,-3.05724,-0.24958,0.59335
783.5,34.62358,-3.05718,-0.25463,0.59108
786.5,34.7241,-3.0585,-0.26826,0.58881
789.5,34.82434,-3.05851,-0.27515,0.58654
792.5,34.92473,-3.05981,-0.2789,0.58426
794.7,34.99864,-3.06113,-0.2885,0.5826

File: Homasote_STA_N2_30KData_222104_R2.csv
##Temp./Â°C,Time/min,Mass loss(subtr.2)/mg,DSC(subtr.2)/(mW/mg),Sensit./(uV/mW)
48.56,10.00667,-0.03378,0.01883212,1.07503
51.66,10.8737,-0.03057229,0.16756,1.07366
54.76,11.10383,-0.03716593,0.27338,1.07228
57.86,11.28047,-0.03971575,0.3671,1.07089
60.96,11.43241,-0.04407803,0.441,1.06949
64.06,11.57033,-0.04105009,0.48055,1.06808
67.16,11.69925,-0.03937629,0.51233,1.06666
70.26,11.8221,-0.0376869,0.54566,1.06522
73.36,11.94027,-0.03674344,0.57998,1.06378
76.46,12.05605,-0.03683021,0.61564,1.06233
79.56,12.1692,-0.03965319,0.64743,1.06086
82.66,12.28043,-0.03994623,0.68112,1.05939
85.76,12.38985,-0.04222117,0.71165,1.05791
88.86,12.4977,-0.04338645,0.7444,1.05641
91.96,12.60482,-0.0435712,0.77405,1.05491
95.06,12.71083,-0.04485641,0.79799,1.0534
98.16,12.81616,-0.04507163,0.82273,1.05187
101.26,12.9207,-0.04749655,0.84103,1.05034
104.36,13.02525,-0.05013792,0.85624,1.0488
107.46,13.1295,-0.05144003,0.86598,1.04725
110.56,13.23325,-0.05276001,0.87285,1.04569
113.66,13.3368,-0.05473531,0.87438,1.04412
116.76,13.4401,-0.05538874,0.87491,1.04255
119.86,13.543,-0.05789698,0.87929,1.04096
122.96,13.6455,-0.0599301,0.88125,1.03936
126.06,13.74714,-0.06066001,0.88982,1.03776
129.16,13.8487,-0.06196997,0.89121,1.03615
132.26,13.94939,-0.06463273,0.88526,1.03453
135.36,14.05011,-0.0646232,0.87869,1.0329
138.46,14.15,-0.06592,0.86646,1.03126
141.56,14.24965,-0.06725874,0.85077,1.02961
144.66,14.34878,-0.06724,0.84051,1.02796
147.76,14.44755,-0.06724,0.83254,1.02629
150.86,14.54558,-0.06855838,0.82928,1.02462
153.96,14.64371,-0.06856,0.82691,1.02295
157.06,14.74148,-0.06855999,0.82837,1.02126
160.16,14.839,-0.06789996,0.83596,1.01957
163.26,14.9364,-0.06921,0.83874,1.01786
166.36,15.0335,-0.0692093,0.84529,1.01615
169.46,15.1301,-0.07052,0.85221,1.01444
172.56,15.227,-0.06919701,0.86026,1.01271
175.66,15.3234,-0.07052965,0.86851,1.01098
178.76,15.4197,-0.07051818,0.87934,1.00924
181.86,15.51552,-0.07315128,0.88627,1.00749
184.96,15.6111,-0.07315,0.89334,1.00574
188.06,15.7065,-0.07315,0.90141,1.00398
191.16,15.80166,-0.07315018,0.90839,1.00221
194.26,15.8959,-0.07447,0.91751,1.00044
197.36,15.9914,-0.0757014,0.92643,0.99866
200.46,16.08587,-0.07579057,0.93389,0.99687
203.56,16.18047,-0.0774809,0.94081,0.99507
206.66,16.27504,-0.07842004,0.95217,0.99327
209.76,16.36936,-0.07974111,0.9613,0.99147
212.86,16.4635,-0.08041754,0.97121,0.98965
215.96,16.55774,-0.08372547,0.98258,0.98783
219.06,16.65162,-0.08499845,0.9925,0.986
222.16,16.74573,-0.08854336,1.00115,0.98417
225.26,16.83959,-0.09159212,1.01015,0.98233
228.36,16.93347,-0.09422084,1.02306,0.98048
231.46,17.0273,-0.09860392,1.0309,0.97863
234.56,17.1211,-0.10148,1.03735,0.97677
237.66,17.21487,-0.10692,1.04378,0.97491
240.76,17.30866,-0.1118,1.05384,0.97304
243.86,17.40232,-0.11772,1.0599,0.97116
246.96,17.4958,-0.12252,1.06705,0.96928
250.06,17.58938,-0.12786,1.07801,0.9674
253.16,17.6828,-0.13487,1.08592,0.9655
256.26,17.7763,-0.14259,1.0971,0.9636
259.36,17.86985,-0.15016,1.10609,0.9617
262.46,17.96329,-0.15828,1.11879,0.95979
265.56,18.0567,-0.16765,1.12567,0.95788
268.66,18.14979,-0.17814,1.13602,0.95596
271.76,18.24338,-0.19025,1.14378,0.95403
274.86,18.33697,-0.20154,1.15365,0.9521
277.96,18.43068,-0.2158,1.15938,0.95017
281.06,18.5242,-0.23036,1.16858,0.94822
284.16,18.61769,-0.24552,1.17385,0.94628
287.26,18.71132,-0.2622,1.18348,0.94433
290.36,18.80491,-0.28181,1.1936,0.94237
293.46,18.89851,-0.30199,1.20381,0.94041
296.56,18.9922,-0.32546,1.20936,0.93845
299.66,19.08579,-0.34906,1.21845,0.93647
302.76,19.17941,-0.37384,1.22714,0.9345
305.86,19.273,-0.40234,1.23861,0.93252
308.96,19.36681,-0.43222,1.25078,0.93054
312.06,19.46066,-0.4654,1.26762,0.92855
315.16,19.55434,-0.50069,1.28301,0.92655
318.26,19.6482,-0.53851,1.30798,0.92455
321.36,19.74194,-0.57915,1.32977,0.92255
324.46,19.8362,-0.62158,1.3595,0.92054
327.56,19.9303,-0.66796,1.38849,0.91853
330.66,20.02448,-0.71835,1.41911,0.91652
333.76,20.1187,-0.77075,1.45191,0.9145
336.86,20.21303,-0.82696,1.48649,0.91247
339.96,20.3072,-0.8876,1.52257,0.91044
343.06,20.40202,-0.95276,1.56329,0.90841
346.16,20.49663,-1.01964,1.59758,0.90637
349.26,20.5914,-1.0919,1.6406,0.90433
352.36,20.68619,-1.16676,1.68392,0.90229
355.46,20.7812,-1.24916,1.73018,0.90024
358.56,20.8762,-1.33361,1.77923,0.89818
361.66,20.97123,-1.42268,1.8338,0.89613
364.76,21.06681,-1.51689,1.8864,0.89407
367.86,21.1621,-1.61875,1.93786,0.892
370.96,21.25769,-1.72314,1.97995,0.88993
374.06,21.3532,-1.83233,2.00655,0.88786
377.16,21.44894,-1.94036,2.00501,0.88578
380.26,21.5446,-2.04869,1.9626,0.8837
383.36,21.64029,-2.15214,1.86816,0.88162
386.46,21.7361,-2.24873,1.69857,0.87953
389.56,21.83204,-2.33577,1.46566,0.87744
392.66,21.92766,-2.40004,1.1883,0.87535
395.76,22.02339,-2.44798,0.90667,0.87325
398.86,22.11908,-2.48015,0.67918,0.87115
401.96,22.21506,-2.49972,0.52105,0.86904
405.06,22.31083,-2.5134,0.42687,0.86693
408.16,22.40684,-2.52316,0.37012,0.86482
411.26,22.50297,-2.53084,0.33085,0.8627
414.36,22.59949,-2.53848,0.30457,0.86059
417.46,22.69599,-2.54782,0.28693,0.85846
420.56,22.79267,-2.55579,0.27177,0.85634
423.66,22.8895,-2.56423,0.26124,0.85421
426.76,22.9865,-2.57246,0.24861,0.85208
429.86,23.08349,-2.58088,0.2437,0.84994
432.96,23.18062,-2.58837,0.23932,0.8478
436.06,23.27777,-2.5939,0.2389,0.84566
439.16,23.37507,-2.60163,0.24003,0.84352
442.26,23.47256,-2.61106,0.24254,0.84137
445.36,23.5701,-2.61957,0.24891,0.83922
448.46,23.66783,-2.62748,0.25628,0.83706
451.56,23.7656,-2.6343,0.26559,0.83491
454.66,23.86335,-2.6412,0.27555,0.83274
457.76,23.96109,-2.64842,0.29108,0.83058
460.86,24.0597,-2.65538,0.30221,0.82842
463.96,24.1581,-2.66204,0.31273,0.82625
467.06,24.2564,-2.66875,0.32168,0.82407
470.16,24.3548,-2.6736,0.3303,0.8219
473.26,24.45348,-2.68195,0.33703,0.81972
476.36,24.55205,-2.6889,0.34377,0.81754
479.46,24.65082,-2.6939,0.35029,0.81536
482.56,24.7496,-2.70013,0.35247,0.81317
485.66,24.84854,-2.70485,0.35281,0.81098
488.76,24.94749,-2.70901,0.35496,0.80879
491.86,25.04674,-2.71736,0.34674,0.80659
494.96,25.14573,-2.72197,0.3432,0.8044
498.06,25.245,-2.72384,0.33581,0.8022
501.16,25.34419,-2.72885,0.33219,0.79999
504.26,25.44363,-2.73426,0.32292,0.79779
507.36,25.5431,-2.73908,0.31308,0.79558
510.46,25.6424,-2.74178,0.3039,0.79337
513.56,25.74161,-2.74621,0.29671,0.79116
516.66,25.84142,-2.74999,0.2897,0.78894
519.76,25.94097,-2.75367,0.28482,0.78672
522.86,26.04064,-2.7563,0.27384,0.7845
525.96,26.1405,-2.76017,0.26725,0.78228
529.06,26.24022,-2.76378,0.25906,0.78005
532.16,26.34028,-2.76683,0.25498,0.77782
535.26,26.4402,-2.76947,0.2444,0.77559
538.36,26.54045,-2.77078,0.23695,0.77336
541.46,26.6404,-2.77499,0.22816,0.77113
544.56,26.7406,-2.77725,0.22264,0.76889
547.66,26.8406,-2.77992,0.21527,0.76665
550.76,26.9412,-2.78259,0.21852,0.7644
553.86,27.04165,-2.7857,0.21699,0.76216
556.96,27.1421,-2.78964,0.22357,0.75991
560.06,27.2425,-2.7904,0.23367,0.75766
563.16,27.34285,-2.79233,0.2336,0.75541
566.26,27.4436,-2.79372,0.23549,0.75316
569.36,27.5443,-2.79624,0.2381,0.7509
572.46,27.6449,-2.79961,0.23572,0.74864
575.56,27.7456,-2.80226,0.2335,0.74638
578.66,27.8466,-2.8049,0.22952,0.74412
581.76,27.9476,-2.80492,0.22248,0.74185
584.86,28.0486,-2.80754,0.21796,0.73959
587.96,28.14967,-2.81015,0.20999,0.73732
591.06,28.2509,-2.81146,0.202,0.73505
594.16,28.35218,-2.81369,0.1962,0.73277
597.26,28.4534,-2.81608,0.19066,0.7305
600.36,28.5548,-2.81981,0.18858,0.72822
603.46,28.6562,-2.82173,0.18153,0.72594
606.56,28.7577,-2.82135,0.18016,0.72366
609.66,28.85925,-2.82397,0.18148,0.72138
612.76,28.9608,-2.82531,0.17645,0.7191
615.86,29.06258,-2.82806,0.17344,0.71681
618.96,29.16437,-2.82935,0.17036,0.71452
622.06,29.2661,-2.83195,0.16627,0.71223
625.16,29.368,-2.83332,0.16607,0.70994
628.26,29.46987,-2.83461,0.16483,0.70764
631.36,29.57184,-2.83593,0.1645,0.70535
634.46,29.6739,-2.83828,0.16767,0.70305
637.56,29.77601,-2.83988,0.168,0.70075
640.66,29.87797,-2.84112,0.17316,0.69845
643.76,29.97999,-2.84252,0.1823,0.69615
646.86,30.08225,-2.84446,0.19604,0.69384
649.96,30.1844,-2.84587,0.20858,0.69154
653.06,30.2867,-2.84855,0.2271,0.68923
656.16,30.38901,-2.8514,0.2453,0.68692
659.26,30.4914,-2.85313,0.26853,0.68461
662.36,30.5938,-2.85536,0.28837,0.6823
665.46,30.696,-2.85931,0.314,0.67999
668.56,30.79867,-2.86192,0.3456,0.67767
671.66,30.9012,-2.86456,0.37791,0.67535
674.76,31.0037,-2.86882,0.41978,0.67304
677.86,31.10636,-2.87211,0.46982,0.67072
680.96,31.2087,-2.87488,0.52261,0.6684
684.06,31.31135,-2.87917,0.57995,0.66607
687.16,31.41422,-2.88399,0.64337,0.66375
690.26,31.517,-2.88877,0.71001,0.66143
693.36,31.6197,-2.89483,0.78076,0.6591
696.46,31.7226,-2.90006,0.8565,0.65677
699.56,31.8255,-2.90775,0.93552,0.65445
702.66,31.9285,-2.91339,1.00979,0.65212
705.76,32.03102,-2.9213,1.08701,0.64979
708.86,32.13446,-2.92809,1.15402,0.64746
711.96,32.23747,-2.93662,1.22377,0.64512
715.06,32.34045,-2.94497,1.28147,0.64279
718.16,32.44377,-2.95421,1.32656,0.64046
721.26,32.54695,-2.96198,1.35627,0.63812
724.36,32.64993,-2.9729,1.3655,0.63578
727.46,32.75318,-2.98213,1.35688,0.63345
730.56,32.85638,-2.98917,1.34316,0.63111
733.66,32.9596,-2.99944,1.31632,0.62877
736.76,33.06268,-3.00843,1.25006,0.62643
739.86,33.16565,-3.01668,1.08394,0.62409
742.96,33.26875,-3.02369,0.64997,0.62175
746.06,33.37184,-3.02712,0.201,0.61941
749.16,33.47468,-3.02888,0.05379275,0.61706
752.26,33.57777,-3.02993,0.000109778,0.61472
755.36,33.6807,-3.02975,-0.01681258,0.61238
758.46,33.78393,-3.03153,-0.0300319,0.61003
761.56,33.88709,-3.03185,-0.04133135,0.60769
764.66,33.99062,-3.03249,-0.04895882,0.60534
767.76,34.094,-3.03511,-0.0563657,0.603
770.86,34.19733,-3.03603,-0.06282518,0.60065
773.96,34.30049,-3.03677,-0.07098649,0.5983
777.06,34.40417,-3.03809,-0.08162208,0.59596
780.16,34.5077,-3.03908,-0.08293138,0.59361
783.26,34.61118,-3.03907,-0.08759538,0.59126
786.36,34.71468,-3.04039,-0.09872744,0.58891
789.46,34.81815,-3.04175,-0.10161,0.58657
792.56,34.9218,-3.04177,-0.10278,0.58422
794.86,34.99882,-3.04313,-0.10751,0.58247