Folder: fsri_materials_database/01_Data/Homasote/STA/N2/3K_min

Note: 01_Data/README.md
# Materials and Products Database
## 01_Data

Raw data generated from each apparatus are included here in plain-text format. The data is organized first by material, next by the short name of test apparatus used, and where applicable additional filtering by test settings.

### material.json

Each material directory contains a json file of the same name as the material. This file links the data stored in the repository as well as data and graphs produced by the accompanying scripts (__02_Scripts__) to the respective landing page for the material on the front-end website.

File: Homasote_STA_N2_3KData_222204_R1.csv
##Temp./Â°C,Time/min,Mass loss(subtr.2)/mg,DSC(subtr.2)/(mW/mg),Sensit./(uV/mW)
50.355,10.0158,-0.01777,0.00327704,1.05029
53.755,12.395,-0.02546968,0.05444672,1.04968
57.155,13.6701,-0.02598825,0.06546087,1.04905
60.555,14.87892,-0.02792879,0.07256425,1.04841
63.955,16.05142,-0.02994467,0.07225085,1.04775
67.355,17.20499,-0.03130046,0.07146819,1.04706
70.755,18.34955,-0.03268008,0.07623904,1.04636
74.155,19.48984,-0.03555815,0.07935192,1.04564
77.555,20.62952,-0.03798534,0.07854025,1.04491
80.955,21.7679,-0.04157061,0.07798179,1.04415
84.355,22.8994,-0.04289025,0.0741949,1.04338
87.755,24.03201,-0.04561984,0.07374519,1.04258
91.155,25.1658,-0.04892,0.07452588,1.04177
94.555,26.29182,-0.05023019,0.0721511,1.04094
97.955,27.4214,-0.05046418,0.07459399,1.0401
101.355,28.54637,-0.05388845,0.07485978,1.03923
104.755,29.6669,-0.05880826,0.07304194,1.03835
108.155,30.79035,-0.05816062,0.06632493,1.03744
111.555,31.91245,-0.06143,0.06920154,1.03652
114.955,33.03197,-0.06274,0.06696832,1.03558
118.355,34.1543,-0.06372981,0.0667612,1.03463
121.755,35.27262,-0.06582972,0.06617515,1.03365
125.155,36.39334,-0.06636049,0.0672727,1.03266
128.555,37.51475,-0.06702,0.06579503,1.03165
131.955,38.63389,-0.06667999,0.07108746,1.03062
135.355,39.75122,-0.06669,0.06832642,1.02957
138.755,40.8693,-0.06668916,0.07202874,1.0285
142.155,41.98213,-0.06571306,0.06815751,1.02742
145.555,43.092,-0.0657,0.06785779,1.02631
148.955,44.2001,-0.0647016,0.06796198,1.02519
152.355,45.30927,-0.06568989,0.07479593,1.02405
155.755,46.4199,-0.06743484,0.07429131,1.02289
159.155,47.52913,-0.06601253,0.07530235,1.02172
162.555,48.64215,-0.0700277,0.07212145,1.02052
165.955,49.75193,-0.06931901,0.07622982,1.01931
169.355,50.8602,-0.0719713,0.07639071,1.01808
172.755,51.9672,-0.07327,0.07664369,1.01683
176.155,53.07414,-0.07589804,0.07849262,1.01557
179.555,54.1837,-0.07715125,0.07580303,1.01428
182.955,55.28725,-0.07744957,0.07959013,1.01298
186.355,56.39346,-0.082908,0.08002929,1.01166
189.755,57.5035,-0.08544431,0.0774156,1.01033
193.155,58.60686,-0.08741025,0.08127455,1.00897
196.555,59.71325,-0.09037176,0.08213158,1.0076
199.955,60.8129,-0.09398962,0.08202603,1.0062
203.355,61.9196,-0.0995903,0.08403809,1.0048
206.755,63.02565,-0.10598,0.08436717,1.00337
210.155,64.12696,-0.11176,0.08859914,1.00192
213.555,65.22882,-0.11755,0.09159532,1.00046
216.955,66.33236,-0.12888,0.09091722,0.99898
220.355,67.4346,-0.1371,0.08621173,0.99748
223.755,68.53472,-0.14895,0.08323623,0.99597
227.155,69.63334,-0.15752,0.08340632,0.99444
230.555,70.74218,-0.17204,0.0853369,0.99289
233.955,71.84326,-0.18254,0.08553399,0.99132
237.355,72.94417,-0.19832,0.08730442,0.98973
240.755,74.04986,-0.21542,0.08205108,0.98813
244.155,75.1516,-0.23038,0.08605129,0.98651
247.555,76.25404,-0.25008,0.08824632,0.98487
250.955,77.3573,-0.27037,0.08796851,0.98322
254.355,78.4569,-0.29068,0.08988936,0.98155
257.755,79.55742,-0.31184,0.09073053,0.97986
261.155,80.66122,-0.33789,0.09055199,0.97815
264.555,81.76389,-0.36636,0.09186779,0.97643
267.955,82.86766,-0.39658,0.09415102,0.97469
271.355,83.97224,-0.4297,0.09756119,0.97293
274.755,85.074,-0.46669,0.09850393,0.97116
278.155,86.18061,-0.50537,0.09906381,0.96936
281.555,87.28771,-0.55025,0.10325,0.96756
284.955,88.39195,-0.59644,0.10605,0.96573
288.355,89.49844,-0.65029,0.11285,0.96389
291.755,90.60242,-0.70618,0.11595,0.96203
295.155,91.7049,-0.76746,0.12454,0.96016
298.555,92.81286,-0.83232,0.12836,0.95827
301.955,93.91966,-0.9014,0.1328,0.95636
305.355,95.02399,-0.9789,0.14105,0.95443
308.755,96.13455,-1.06506,0.14907,0.95249
312.155,97.24485,-1.15508,0.15852,0.95054
315.555,98.3514,-1.2535,0.17046,0.94856
318.955,99.45885,-1.35933,0.18544,0.94657
322.355,100.565,-1.47492,0.19518,0.94457
325.755,101.675,-1.59625,0.20485,0.94255
329.155,102.786,-1.72592,0.21263,0.94051
332.555,103.895,-1.86011,0.2117,0.93846
335.955,105.004,-1.99572,0.21071,0.93639
339.355,106.112,-2.12378,0.19297,0.9343
342.755,107.222,-2.24108,0.16521,0.9322
346.155,108.33,-2.334,0.1209,0.93009
349.555,109.435,-2.4014,0.07309348,0.92795
352.955,110.552,-2.4438,0.03165508,0.92581
356.355,111.661,-2.46772,0.01404327,0.92364
359.755,112.772,-2.4819,0.004680591,0.92147
363.155,113.887,-2.49368,0.001470959,0.91927
366.555,114.997,-2.50293,-0.001227235,0.91706
369.955,116.111,-2.51378,-0.003137879,0.91484
373.355,117.229,-2.52299,-0.00425284,0.9126
376.755,118.341,-2.53277,-0.007517171,0.91035
380.155,119.458,-2.54201,-0.00724357,0.90808
383.555,120.578,-2.54965,-0.00828021,0.9058
386.955,121.695,-2.55809,-0.01067329,0.9035
390.355,122.813,-2.56695,-0.0115072,0.90119
393.755,123.931,-2.57394,-0.01420501,0.89886
397.155,125.043,-2.58256,-0.01317886,0.89652
400.555,126.164,-2.59147,-0.0140486,0.89417
403.955,127.2812,-2.60166,-0.01524695,0.8918
407.355,128.401,-2.60819,-0.01739585,0.88941
410.755,129.517,-2.61448,-0.01811607,0.88701
414.155,130.636,-2.62237,-0.018707,0.8846
417.555,131.759,-2.62974,-0.01674219,0.88218
420.955,132.879,-2.6374,-0.01343773,0.87974
424.355,134.001,-2.64508,-0.01350798,0.87729
427.755,135.124,-2.65265,-0.01694656,0.87482
431.155,136.245,-2.66154,-0.01584366,0.87234
434.555,137.368,-2.66808,-0.0163525,0.86985
437.955,138.486,-2.67467,-0.01787531,0.86734
441.355,139.607,-2.68193,-0.01268284,0.86482
444.755,140.737,-2.68811,-0.01822315,0.86229
448.155,141.859,-2.69331,-0.01544653,0.85974
451.555,142.981,-2.70069,-0.02158495,0.85719
454.955,144.109,-2.70462,-0.02178772,0.85462
458.355,145.236,-2.7099,-0.02312138,0.85203
461.755,146.361,-2.71426,-0.01834055,0.84944
465.155,147.485,-2.7182,-0.008575373,0.84683
468.555,148.61,-2.72336,-0.01558965,0.84421
471.955,149.741,-2.72848,-0.02046571,0.84158
475.355,150.873,-2.73131,-0.02672087,0.83893
478.755,151.999,-2.73524,-0.03311955,0.83628
482.155,153.127,-2.73919,-0.04101557,0.83361
485.555,154.254,-2.74409,-0.04337733,0.83093
488.955,155.385,-2.74611,-0.04829211,0.82824
492.355,156.52,-2.75038,-0.05509212,0.82553
495.755,157.65,-2.75268,-0.05503441,0.82282
499.155,158.777,-2.75687,-0.06413673,0.8201
502.555,159.912,-2.76025,-0.07115492,0.81736
505.955,161.044,-2.76291,-0.073865,0.81461
509.355,162.177,-2.76617,-0.07491662,0.81185
512.755,163.311,-2.76782,-0.08030677,0.80909
516.155,164.444,-2.77045,-0.07764272,0.80631
519.555,165.577,-2.77341,-0.07958518,0.80352
522.955,166.709,-2.77538,-0.08133438,0.80072
526.355,167.842,-2.77792,-0.07906296,0.79791
529.755,168.977,-2.77968,-0.08601187,0.79509
533.155,170.1096,-2.78298,-0.08437779,0.79226
536.555,171.243,-2.78591,-0.08238956,0.78942
539.955,172.384,-2.78986,-0.08473851,0.78657
543.355,173.52,-2.79118,-0.08250477,0.78371
546.755,174.6553,-2.79315,-0.08739189,0.78084
550.155,175.789,-2.79578,-0.0843717,0.77796
553.555,176.922,-2.79917,-0.08636589,0.77507
556.955,178.061,-2.80171,-0.09138352,0.77218
560.355,179.204,-2.80467,-0.08529554,0.76927
563.755,180.351,-2.806,-0.08824967,0.76636
567.155,181.484,-2.80761,-0.08379358,0.76344
570.555,182.616,-2.80994,-0.08624553,0.76051
573.955,183.764,-2.81125,-0.08411347,0.75757
577.355,184.905,-2.81616,-0.08291234,0.75462
580.755,186.0438,-2.81685,-0.08099725,0.75167
584.155,187.1792,-2.81981,-0.07680593,0.7487
587.555,188.32,-2.82244,-0.07727777,0.74573
590.955,189.461,-2.82705,-0.07467454,0.74276
594.355,190.603,-2.83191,-0.06747741,0.73977
597.755,191.746,-2.83456,-0.05976851,0.73678
601.155,192.89,-2.84336,-0.05458459,0.73378
604.555,194.026,-2.84358,-0.04818463,0.73077
607.955,195.169,-2.84929,-0.043833,0.72776
611.355,196.316,-2.85557,-0.03611287,0.72474
614.755,197.4576,-2.86314,-0.02881059,0.72171
618.155,198.592,-2.86974,-0.01953827,0.71867
621.555,199.736,-2.87926,-0.008755409,0.71563
624.955,200.874,-2.88749,0.002196343,0.71259
628.355,202.02,-2.89752,0.01640776,0.70954
631.755,203.164,-2.90822,0.02196511,0.70648
635.155,204.308,-2.91756,0.02635807,0.70341
638.555,205.454,-2.92762,0.03546947,0.70034
641.955,206.5958,-2.93805,0.04233945,0.69727
645.355,207.7369,-2.95,0.04011528,0.69419
648.755,208.883,-2.9602,0.03621836,0.6911
652.155,210.024,-2.97048,0.02912662,0.68801
655.555,211.168,-2.98028,0.02406828,0.68492
658.955,212.315,-2.98817,0.01405204,0.68182
662.355,213.462,-2.99518,-0.01641225,0.67872
665.755,214.6092,-2.99806,-0.08236779,0.67561
669.155,215.755,-3.00101,-0.08797852,0.6725
672.555,216.901,-3.00364,-0.08694186,0.66938
675.955,218.0529,-3.00605,-0.08485574,0.66626
679.355,219.196,-3.00792,-0.08258908,0.66313
682.755,220.334,-3.0089,-0.08119537,0.66001
686.155,221.487,-3.01103,-0.07752176,0.65687
689.555,222.634,-3.01285,-0.07313644,0.65374
692.955,223.777,-3.01451,-0.06669798,0.6506
696.355,224.924,-3.01565,-0.06319346,0.64746
699.755,226.075,-3.01813,-0.05764952,0.64432
703.155,227.219,-3.01814,-0.05811807,0.64117
706.555,228.366,-3.02109,-0.05006416,0.63802
709.955,229.519,-3.02042,-0.0498716,0.63487
713.355,230.664,-3.02199,-0.05209313,0.63172
716.755,231.817,-3.02373,-0.05366809,0.62856
720.155,232.966,-3.02536,-0.05564228,0.6254
723.555,234.119,-3.02634,-0.04859179,0.62224
726.955,235.266,-3.02669,-0.04292986,0.61908
730.355,236.419,-3.02865,-0.04490046,0.61592
733.755,237.568,-3.03095,-0.04255716,0.61276
737.155,238.722,-3.03223,-0.04661403,0.60959
740.555,239.865,-3.03257,-0.04866982,0.60643
743.955,241.015,-3.03392,-0.0510296,0.60326
747.355,242.168,-3.03498,-0.0511732,0.60009
750.755,243.315,-3.03556,-0.05189313,0.59693
754.155,244.468,-3.04007,-0.05111452,0.59376
757.555,245.612,-3.05105,-0.04930291,0.59059
760.955,246.768,-3.03709,-0.06009081,0.58742
764.355,247.919,-3.0371,-0.05854553,0.58425
767.755,249.062,-3.03842,-0.0629346,0.58108
771.155,250.216,-3.0394,-0.07281027,0.57792
774.555,251.362,-3.04103,-0.07014628,0.57475
777.955,252.521,-3.04039,-0.069475,0.57158
781.355,253.672,-3.04112,-0.07631071,0.56842
784.755,254.818,-3.04137,-0.07718287,0.56525
788.155,255.974,-3.04203,-0.08073779,0.56209
791.555,257.131,-3.04401,-0.08508187,0.55893
794.955,258.277,-3.0447,-0.09058407,0.55576
798.355,259.424,-3.04631,-0.08359735,0.5526
799.955,259.97,-3.0463,-0.08565619,0.55112