Folder: fsri_materials_database/01_Data/Vinyl_Plank_Flooring/Cone (part 3)

File: Vinyl_Plank_Flooring_Cone_HF75Scan_220311_R2.csv
Names,Time,Stack TC,Smoke TC,Exh Press,Smoke Comp,Smoke Meas,CO Meter,CO2 Meter,O2 Meter,Sample Mass,Ext Coeff,Start Test,Flame Verif
Chan Gain,,500,500,1,1,1,1,1,1,1,1,1.0,1.0
Offset,,0,0,0.136191,0,0,0,0,0,0,0,0.0,0.0
Gain,,1,1,25.011,13.291,13.2919,1,1,1,1.00093,1.00758,1.0,1.0
Units,sec,C,C,Pa,%,%,%,%,%,g,/m,,
Baseline,,41.2882,42.9776,160.365,99.0911,93.67,0.000473103,0.0405177,21.0891,-3.79523,0.497351,,
7,1.5,37.2595,39.201,162.856,100.716,95.321,0.00223541,0.0406704,21.0919,497.361,0.486625,0.0,0.0
14,3.25,37.9476,38.6652,161.621,100.733,94.5389,0.0148053,0.0479093,21.073,497.151,0.560934,0.0,1.0
21,5,37.7283,39.3571,131.983,100.711,54.793,0.0417306,0.125408,20.8449,496.54,5.37984,0.0,1.0
28,6.75,41.0667,42.404,116.349,100.681,28.4757,0.0744568,0.334602,20.3904,495.479,11.1621,0.0,1.0
35,8.5,44.2208,46.8656,129.862,100.649,8.96457,0.0927047,0.527269,20.0684,494.649,21.3744,0.0,0.0
42,10.25,48.0057,49.5795,125.158,100.62,17.7243,0.0966188,0.658207,19.8996,494.068,15.3471,0.0,0.0
49,12,50.82,52.9265,124.974,100.581,27.5253,0.094465,0.742398,19.8055,493.498,11.4533,0.0,0.0
56,13.75,53.8301,56.419,119.908,100.534,27.7099,0.0916858,0.80713,19.733,492.877,11.3901,0.0,0.0
63,15.5,56.6941,59.9457,118.106,100.469,31.0588,0.0904699,0.872772,19.6526,492.286,10.376,0.0,0.0
70,17.25,59.4082,63.0147,118.767,100.433,27.9362,0.0893999,0.937075,19.5934,491.596,11.3093,0.0,0.0
77,19,62.684,66.4909,126.067,100.378,26.9197,0.0865299,0.988918,19.5673,490.935,11.6321,0.0,0.0
84,20.75,64.6332,69.1704,124.244,100.333,28.1342,0.0804652,1.01094,19.5732,490.415,11.2382,0.0,0.0
91,22.5,66.9725,71.2336,124.8125,100.273,30.8325,0.0735163,1.00085,19.6131,489.894,10.4234,0.0,0.0
98,24.25,68.8624,74.0862,128.756,100.22,31.9978,0.0639926,0.968516,19.7067,489.474,10.0908,0.0,0.0
105,26,70.0256,76.0967,133.513,100.179,41.6196,0.0552486,0.916286,19.8281,488.993,7.76358,0.0,0.0
112,27.75,71.2184,76.8993,134.757,100.126,42.3436,0.046425,0.858102,19.9397,488.663,7.60641,0.0,0.0
119,29.5,71.5142,77.1218,142.698,100.076,48.6926,0.0377118,0.795176,20.0622,488.383,6.36723,0.0,0.0
126,31.25,72.3115,78.0687,138.8,100.027,56.8983,0.0297253,0.731182,20.1794,488.133,4.98643,0.0,0.0
133,33,71.9138,77.6432,142.639,99.9887,61.873,0.0234814,0.659503,20.2768,487.872,4.2422,0.0,0.0
140,34.75,71.7502,77.8256,141.475,99.9562,70.249,0.0181186,0.596369,20.3664,487.732,3.11719,0.0,0.0
147,36.5,71.6028,77.8248,145.023,99.9627,74.225,0.0140811,0.528828,20.4655,487.552,2.63115,0.0,0.0
154,38.25,70.538,77.7866,147.827,100.06,77.2823,0.0112612,0.460234,20.5698,487.462,2.28301,0.0,0.0
161,40,70.5241,76.7623,152.609,100.172,78.7544,0.00941094,0.393893,20.6516,487.402,2.12616,0.0,0.0
168,41.75,70.273,76.2648,148.511,100.276,84.9618,0.007973,0.342628,20.7228,487.402,1.46472,0.0,0.0
175,43.5,69.3592,75.2633,154.239,100.348,91.7465,0.00697336,0.29058,20.7924,487.312,0.792054,0.0,0.0
182,45.25,68.482,74.8453,157.44,100.389,93.6425,0.00629627,0.247144,20.8476,487.272,0.614877,0.0,0.0
189,47,67.6379,73.811,156.988,100.442,94.5243,0.00576227,0.210357,20.8861,487.222,0.536709,0.0,0.0
196,48.75,67.0089,72.98,155.919,100.487,94.2935,0.00529833,0.18345,20.9194,487.232,0.562242,0.0,0.0
203,50.5,66.3176,71.9783,154.476,100.505,94.3053,0.0050015,0.16113,20.9486,487.222,0.56271,0.0,0.0
210,52.25,65.3389,71.1295,158.799,100.503,94.2676,0.00481786,0.144102,20.9717,487.232,0.566068,0.0,0.0
217,54,63.4501,69.694,156.643,100.509,94.7608,0.00459749,0.131806,20.9884,487.222,0.520512,0.0,0.0
224,55.75,63.3184,68.9184,156.118,100.481,94.1917,0.00431136,0.122716,21.0004,487.182,0.571256,0.0,0.0
231,57.5,62.4835,67.9026,159.862,100.442,94.8387,0.00410783,0.115584,21.0096,487.142,0.507328,0.0,0.0
238,59.25,61.4719,67.5937,156.34,100.399,94.5779,0.00394217,0.1103,21.0177,487.122,0.527921,0.0,0.0
245,61,61.0219,66.4812,158.939,100.328,94.6777,0.00374661,0.106128,21.0223,487.112,0.512314,0.0,0.0
252,62.75,60.1787,65.9827,158.949,100.262,93.548,0.00348301,0.102836,21.0245,487.072,0.612617,0.0,0.0
259,64.5,59.1498,64.3807,147.936,100.189,93.9938,0.00329771,0.10045,21.028,487.072,0.564125,0.0,0.0
266,66.25,58.9953,64.2802,157.301,100.086,94.3637,0.00314533,0.0982302,21.0309,487.092,0.520313,0.0,0.0
273,68,58.1269,63.5029,152.695,99.9607,93.5893,0.00303357,0.0965986,21.0323,487.062,0.582102,0.0,0.0
280,69.75,58.0569,63.1614,151.097,99.8252,94.0416,0.00295827,0.0958778,21.0325,487.032,0.527506,0.0,0.0
287,71.5,57.8454,62.6184,157.829,99.6828,94.2704,0.00288404,0.0956539,21.0326,486.992,0.493417,0.0,0.0
294,73.25,57.1493,62.0249,157.444,99.6837,94.3957,0.00279471,0.0952588,21.0327,486.982,0.481744,0.0,0.0
301,75,56.044,61.6168,158.468,99.6922,94.489,0.00264234,0.0948501,21.0336,486.952,0.473769,0.0,0.0
308,76.75,55.9923,60.7908,159.335,99.71,93.3719,0.00256784,0.0945368,21.0337,486.932,0.580468,0.0,0.0
315,78.5,55.8082,60.5321,153.661,99.725,94.0712,0.00260405,0.0945022,21.0327,486.892,0.515849,0.0,0.0
322,80.25,55.1261,59.5001,154.479,99.7591,93.9118,0.00268699,0.0943466,21.0323,486.911,0.533858,0.0,0.0
329,82,54.2788,59.1236,158.681,99.7855,94.4805,0.00269925,0.0941877,21.0332,486.861,0.482833,0.0,0.0
336,83.75,54.2659,58.6784,155.895,99.8066,94.3179,0.00260245,0.0939459,21.0349,486.841,0.49993,0.0,0.0
343,85.5,53.8905,58.4817,159.285,99.8297,93.5001,0.00244014,0.0934316,21.0358,486.841,0.578942,0.0,0.0
350,87.25,54.1448,58.2309,157.326,99.8706,94.0084,0.00234082,0.093009,21.0362,486.811,0.534654,0.0,0.0
357,89,52.9949,57.5735,158.168,99.8812,93.8757,0.00237625,0.0928054,21.0363,486.781,0.548066,0.0,0.0
364,90.75,52.743,57.6135,157.407,99.8958,93.7715,0.00241715,0.0934555,21.0358,486.751,0.559179,0.0,0.0
371,92.5,51.8567,56.1261,158.576,99.9177,94.1154,0.00232481,0.0939879,21.036,486.751,0.528755,0.0,0.0
378,94.25,52.0161,55.9138,152.108,99.951,93.7191,0.00221895,0.0940233,21.0364,486.731,0.568991,0.0,0.0
385,96,51.2877,56.0102,160.703,99.9725,93.9601,0.00221724,0.0938341,21.0365,486.711,0.548199,0.0,0.0
392,97.75,51.2429,55.7284,156.056,99.9773,94.3925,0.00230975,0.0934558,21.0366,486.701,0.508047,0.0,0.0
399,99.5,51.5903,55.3224,159.034,99.9806,94.5341,0.00234672,0.0930334,21.0376,486.681,0.495089,0.0,0.0
406,101.25,50.8664,55.2277,160.067,99.998,94.9097,0.00229546,0.0924441,21.0392,486.671,0.461582,0.0,0.0
413,103,50.3656,54.8447,161.394,100.03,94.4606,0.00221752,0.0916451,21.0403,486.641,0.506293,0.0,0.0
420,104.75,50.2443,55.114,160.652,100.035,94.3069,0.00213575,0.0908425,21.0417,486.601,0.521156,0.0,0.0
427,106.5,49.9122,54.0931,158.568,100.032,94.3799,0.00206265,0.0902163,21.0428,486.591,0.514064,0.0,0.0
434,108.25,49.9037,53.9946,155.828,100.045,94.3199,0.00199976,0.0898681,21.0433,486.571,0.520871,0.0,0.0
441,110,49.7583,53.7169,159.645,100.041,94.6083,0.00197055,0.0897431,21.0435,486.581,0.493527,0.0,0.0
448,111.75,49.6967,53.0332,162.499,100.045,94.0408,0.00195566,0.0893679,21.0441,486.521,0.54699,0.0,0.0
455,113.5,49.2354,53.2971,157.21,100.026,93.9341,0.00189049,0.0883019,21.0456,486.501,0.555409,0.0,0.0
462,115.25,49.1469,53.0141,160.054,100.016,94.4391,0.00183317,0.0869381,21.0461,486.521,0.507087,0.0,0.0
469,117,48.7727,52.5361,155.721,99.9903,94.2509,0.00177473,0.0862119,21.0461,486.481,0.52246,0.0,0.0
476,118.75,48.6569,52.5061,156.877,99.9911,94.1682,0.00177185,0.0861614,21.0461,486.481,0.530296,0.0,0.0
483,120.5,49.42,52.2244,159.144,99.9647,94.1333,0.00178026,0.0861654,21.0467,486.441,0.531239,0.0,0.0
490,122.25,48.3813,51.9921,155.541,99.9307,94.1605,0.00174802,0.0856723,21.0476,486.451,0.525675,0.0,0.0
497,124,48.1395,51.6903,162.087,99.8946,94.0899,0.00169854,0.0850489,21.048,486.441,0.529109,0.0,0.0
504,125.75,48.2992,51.6357,165.296,99.8743,94.4022,0.00164074,0.0844591,21.0482,486.461,0.498023,0.0,0.0
511,127.5,47.455,50.9811,157.524,99.8577,94.5799,0.00157837,0.0838323,21.0483,486.421,0.479933,0.0,0.0
518,129.25,47.7723,50.9224,161.302,99.8151,94.0015,0.00153087,0.0830552,21.0486,486.391,0.530384,0.0,0.0
525,131,47.4156,50.6554,154.569,99.7757,93.7751,0.00145625,0.0823721,21.0497,486.361,0.548206,0.0,0.0
532,132.75,47.9517,50.8031,157.861,99.7392,94.3426,0.0013822,0.0818482,21.0502,486.331,0.491647,0.0,0.0
539,134.5,47.4736,50.7394,155.77,99.7027,94.801,0.00137553,0.0811166,21.0505,486.321,0.445573,0.0,0.0
546,136.25,47.237,50.3882,159.89,99.6557,94.7032,0.00139321,0.0804316,21.0506,486.251,0.45052,0.0,0.0
553,138,46.667,50.0469,157.34,99.6042,93.5354,0.00130862,0.07981,21.0519,486.261,0.555618,0.0,0.0
560,139.75,46.6959,49.884,156.391,99.5494,94.0891,0.00111513,0.0791986,21.053,486.231,0.498593,0.0,0.0
567,141.5,47.3654,49.7007,158.634,99.5145,93.2137,0.00101386,0.078401,21.0548,486.231,0.578108,0.0,0.0
574,143.25,46.9475,50.1185,154.185,99.4529,94.8853,0.00101843,0.0773229,21.0567,486.241,0.415534,0.0,0.0
581,145,47.0404,49.7783,158.485,99.3892,93.2449,0.00109906,0.0763764,21.0578,486.221,0.564009,0.0,0.0
588,146.75,46.9798,49.5181,160.667,99.3267,93.7272,0.00121761,0.0756957,21.0583,486.231,0.512854,0.0,0.0
595,148.5,46.5441,50.0159,158.671,99.2756,93.0498,0.00130165,0.0750742,21.0598,486.201,0.572417,0.0,0.0
602,150.25,46.852,49.4513,160.49,99.2509,94.0493,0.00137838,0.0746047,21.0595,486.191,0.475783,0.0,0.0
609,152,46.6615,49.0822,156.872,99.19,93.0401,0.00146299,0.0741133,21.0603,486.191,0.565719,0.0,0.0
616,153.75,46.2895,49.1663,156.672,99.1418,93.9731,0.00145305,0.0734843,21.0612,486.161,0.473231,0.0,0.0
623,155.5,45.6056,49.1064,158.656,99.0947,93.6595,0.00137269,0.0725278,21.0623,486.141,0.498576,0.0,0.0
630,157.25,46.529,49.3388,155.077,99.0671,93.1987,0.00128309,0.0715738,21.0629,486.151,0.539707,0.0,0.0
637,159,46.0598,48.4845,160.753,99.0254,93.2076,0.00114449,0.0707704,21.0632,486.151,0.535133,0.0,0.0
644,160.75,45.5457,48.6592,158.912,98.9621,93.5962,0.0010282,0.069996,21.0633,486.131,0.49271,0.0,0.0
651,162.5,45.8727,48.629,155.892,98.924,93.7033,,0.0690662,,486.131,0.479199,0.0,0.0
658,164.25,46.0825,48.593,160.531,98.8789,93.6181,,0.0680504,,486.121,0.483214,0.0,0.0
665,166,45.8536,48.187,156.838,98.8639,93.4182,,,,486.101,0.500772,0.0,0.0
672,167.75,45.5407,48.1602,157.33,98.8246,93.6749,,,,486.081,0.472995,0.0,0.0
679,169.5,45.8001,48.4057,159.613,98.7856,93.2153,,,,486.081,0.512981,0.0,0.0
686,171.25,45.5874,48.1416,154.975,98.7735,93.0888,,,,486.071,0.5239,0.0,0.0
692,172.75,45.5085,48.1946,156.433,98.7491,92.3818,,,,486.061,0.589108,0.0,0.0

File: Vinyl_Plank_Flooring_Cone_HF75Scan_220311_R3.csv
Names,Time,Stack TC,Smoke TC,Exh Press,Smoke Comp,Smoke Meas,CO Meter,CO2 Meter,O2 Meter,Sample Mass,Ext Coeff,Start Test,Flame Verif
Chan Gain,,500,500,1,1,1,1,1,1,1,1,1.0,1.0
Offset,,0,0,0.136191,0,0,0,0,0,0,0,0.0,0.0
Gain,,1,1,25.011,13.291,13.2919,1,1,1,1.00093,1.00758,1.0,1.0
Units,sec,C,C,Pa,%,%,%,%,%,g,/m,,
Baseline,,41.8724,43.574,158.923,99.5439,94.3284,0.000299777,0.0400086,21.0907,-4.00305,0.47578,,
8,1.75,38.8968,40.2577,156.53,100.412,94.59,0.000464126,0.0404067,21.0875,490.405,0.52789,0.0,0.0
16,3.75,38.6802,40.4298,162.221,100.178,94.5511,0.00782537,0.0421231,21.0757,490.355,0.51094,0.0,0.0
24,5.75,38.5897,40.341,154.302,99.9043,82.582,0.0304534,0.0789285,20.955,490.275,1.68302,0.0,1.0
32,7.75,41.0235,41.934,120.775,99.6204,32.4266,0.0624339,0.259831,20.5707,488.903,9.92011,0.0,1.0
40,9.75,44.2022,45.8722,129.352,99.3381,11.3242,0.0812225,0.464755,20.2256,488.003,19.1934,0.0,0.0
48,11.75,47.6502,49.2923,127.708,99.0854,20.0389,0.0819631,0.577018,20.0715,487.322,14.1265,0.0,0.0
56,13.75,50.3359,52.3737,129.676,98.8874,32.9722,0.0770817,0.635269,20.0052,486.771,9.70738,0.0,0.0
64,15.75,52.4305,55.7301,127.376,98.7556,36.2595,0.0736938,0.685021,19.9459,486.241,8.85562,0.0,0.0
72,17.75,55.2894,58.9446,120.322,98.7049,37.3048,0.0729926,0.749008,19.8695,485.61,8.59988,0.0,0.0
80,19.75,59.1001,62.1517,126.103,98.7641,39.1573,0.0723648,0.80542,19.825,484.93,8.17682,0.0,0.0
88,21.75,61.1156,65.3469,133.535,98.8891,33.7027,0.0687294,0.828731,19.8319,484.369,9.51383,0.0,0.0
96,23.75,63.3848,67.2703,127.662,99.0732,29.8756,0.0632009,0.816993,19.8659,483.879,10.5956,0.0,0.0
104,25.75,64.8681,68.9515,118.366,99.3141,39.6729,0.057989,0.818635,19.875,483.418,8.11029,0.0,0.0
112,27.75,67.1186,72.0485,125.832,99.5526,44.0907,0.0530122,0.842477,19.8727,482.898,7.19833,0.0,0.0
120,29.75,68.8108,74.4848,128.463,99.7794,43.4587,0.0482101,0.85911,19.8781,482.437,7.34604,0.0,0.0
128,31.75,70.7719,76.1844,129.229,99.9368,49.2183,0.0433169,0.848986,19.9408,481.997,6.25999,0.0,0.0
136,33.75,71.5582,77.7803,131.97,100.051,53.381,0.0381793,0.806142,20.0319,481.557,5.55249,0.0,0.0
144,35.75,71.9269,78.2341,140.825,100.035,53.5972,0.0326074,0.747278,20.1396,481.246,5.51536,0.0,0.0
152,37.75,72.4631,78.8481,142.047,99.9745,58.3719,0.0271524,0.671835,20.2609,481.026,4.75576,0.0,0.0
160,39.75,72.276,78.7988,146.041,99.8719,54.7411,0.0223638,0.592999,20.3609,480.766,5.3143,0.0,0.0
168,41.75,71.5136,78.2094,143.803,99.7636,59.5081,0.0178236,0.510168,20.4396,480.656,4.56672,0.0,0.0
176,43.75,71.9497,78.2319,147.884,99.6626,72.0813,0.0134024,0.442079,20.5347,480.486,2.86361,0.0,0.0
184,45.75,70.4364,77.4328,143.923,99.609,82.8866,0.00981365,0.365727,20.6598,480.426,1.62432,0.0,0.0
192,47.75,70.4786,76.4323,149.103,99.7887,89.2847,0.00754654,0.303578,20.7473,480.335,0.983049,0.0,0.0
200,49.75,69.3616,75.776,146.128,100.108,91.448,0.00585007,0.252729,20.8218,480.275,0.799651,0.0,0.0
208,51.75,68.5533,74.7142,151.718,100.332,92.3448,0.00491519,0.218413,20.8817,480.235,0.733209,0.0,0.0
216,53.75,67.6976,73.9689,155.554,100.443,93.4161,0.00437817,0.186897,20.9209,480.205,0.641051,0.0,0.0
224,55.75,66.7264,72.708,154.512,100.45,92.8726,0.00414659,0.164745,20.9429,480.175,0.693234,0.0,0.0
232,57.75,65.8635,72.0583,159.262,100.354,92.9306,0.00415483,0.149174,20.9626,480.095,0.679218,0.0,0.0
240,59.75,65.1854,70.9556,153.104,100.131,92.5399,0.00420238,0.139578,20.9766,480.085,0.69685,0.0,0.0
248,61.75,64.1471,70.0166,155.871,99.9205,91.5782,0.00416307,0.131496,20.9855,480.085,0.77055,0.0,0.0
256,63.75,63.1702,69.2095,153.435,100.019,93.0133,0.00408708,0.124848,20.9925,480.035,0.641795,0.0,0.0
264,65.75,62.7496,68.1807,155.292,100.153,93.1955,0.0040023,0.119001,21.0008,480.055,0.636396,0.0,0.0
272,67.75,61.4815,67.1844,156.021,100.286,93.737,0.00386078,0.113435,21.0093,480.035,0.596921,0.0,0.0
280,69.75,60.3298,66.3536,154.132,100.435,93.7187,0.00368505,0.1085,21.0156,479.985,0.611752,0.0,0.0
288,71.75,59.945,65.4574,152.048,100.554,94.0887,0.00350516,0.104718,21.0201,479.975,0.58735,0.0,0.0
296,73.75,59.1678,64.4994,151.715,100.637,94.1795,0.00327851,0.101804,21.0234,479.955,0.586123,0.0,0.0
304,75.75,58.6929,63.908,158.486,100.696,93.7483,0.00311111,0.0994776,21.0265,479.935,0.631846,0.0,0.0
312,77.75,58.1643,63.3965,163.379,100.715,93.6165,0.00298151,0.0976592,21.0282,479.925,0.645957,0.0,0.0
320,79.75,57.5414,62.6645,154.334,100.695,94.0226,0.00289233,0.0963278,21.0297,479.945,0.60596,0.0,0.0
328,81.75,57.0309,62.3989,162.539,100.639,93.5642,0.00275424,0.0954452,21.0309,479.795,0.64424,0.0,0.0
336,83.75,56.4828,61.2951,146.398,100.544,94.0769,0.00265101,0.0948825,21.0314,479.775,0.587635,0.0,0.0
344,85.75,55.8863,60.6983,161.279,100.421,93.5366,0.00258895,0.0943226,21.0316,479.755,0.62766,0.0,0.0
352,87.75,55.5206,59.4895,152.712,100.285,93.8287,0.00253134,0.0939101,21.0321,479.705,0.588174,0.0,0.0
360,89.75,54.033,59.1344,158.799,100.148,92.7436,0.00248887,0.0935111,21.0324,479.725,0.678855,0.0,0.0
368,91.75,54.7965,59.3593,155.189,99.996,93.5536,0.0025053,0.0930196,21.0325,479.665,0.588594,0.0,0.0
376,93.75,53.8607,58.1744,155.422,99.8394,93.1752,0.00253675,0.0924433,21.033,479.685,0.610571,0.0,0.0
384,95.75,53.8449,58.1465,157.099,99.6764,93.3557,0.00246326,0.0918799,21.0341,479.675,0.579019,0.0,0.0
392,97.75,52.8676,56.9626,156.569,99.5364,93.1736,0.00224116,0.0912514,21.0352,479.625,0.583862,0.0,0.0
400,99.75,52.2627,56.5651,158.436,99.3746,93.0604,0.00205502,0.0904168,21.0364,479.615,0.580222,0.0,0.0
408,101.75,52.9293,56.9237,158.472,99.218,91.9173,0.00195121,0.0897015,21.0369,479.575,0.675522,0.0,0.0
416,103.75,52.5467,56.6847,152.926,99.0817,91.9635,0.00199722,0.088873,21.0368,479.565,0.658929,0.0,0.0
424,105.75,52.1016,56.273,156.136,98.9665,92.4828,0.00207219,0.0884673,21.0366,479.545,0.598886,0.0,0.0
432,107.75,51.8883,55.9953,153.847,98.8895,92.5286,0.00208406,0.0880203,21.0373,479.535,0.587622,0.0,0.0
440,109.75,52.1214,55.6846,156.783,98.8201,92.4596,0.00208098,0.0874701,21.0382,479.515,0.58801,0.0,0.0
448,111.75,51.5482,55.1272,156.438,98.7548,92.2483,0.00204539,0.0871335,21.039,479.515,0.602392,0.0,0.0
456,113.75,51.0524,54.6899,156.625,98.7215,92.2073,0.00194105,0.0866875,21.0405,479.505,0.603342,0.0,0.0
464,115.75,50.7054,55.0112,152.586,98.7195,91.7226,0.00180081,0.0862156,21.0418,479.485,0.649747,0.0,0.0
472,117.75,49.9564,54.5411,157.485,98.7065,93.1565,0.00170353,0.0855883,21.0424,479.455,0.51148,0.0,0.0
480,119.75,50.3219,54.1776,156.121,98.7191,92.4041,0.00166209,0.0849271,21.0431,479.435,0.584286,0.0,0.0
488,121.75,50.1989,53.8117,155.744,98.7426,92.2743,0.00160785,0.0840858,21.0443,479.415,0.598817,0.0,0.0
496,123.75,49.5779,52.7702,162.51,98.795,92.1582,0.00151192,0.0837322,21.0445,479.425,0.614619,0.0,0.0
504,125.75,49.4109,52.6069,155.113,98.829,92.7639,0.00140572,0.0833153,21.0444,479.395,0.559774,0.0,0.0
512,127.75,49.5508,53.0735,157.735,98.8765,92.6612,0.00132173,0.0824706,21.0454,479.365,0.573801,0.0,0.0
520,129.75,49.0113,52.8907,159.981,98.9381,92.6117,0.00133923,0.0816696,21.0461,479.335,0.584032,0.0,0.0
528,131.75,48.9282,52.6676,151.868,98.9901,92.9148,0.00141745,0.0810079,21.0464,479.344,0.559798,0.0,0.0
536,133.75,48.8259,52.1096,154.805,99.0412,92.6945,0.00138086,0.0804486,21.0463,479.314,0.585336,0.0,0.0
544,135.75,48.9719,51.8111,160.166,99.1032,92.8997,0.00127585,0.079906,21.0461,479.304,0.571324,0.0,0.0
552,137.75,48.7192,52.0474,156.524,99.1474,93.2474,0.00126908,0.0793075,21.0465,479.304,0.542254,0.0,0.0
560,139.75,48.4693,51.6091,165.095,99.203,92.2426,0.00131586,0.078527,21.0475,479.304,0.64296,0.0,0.0
568,141.75,47.9949,51.211,155.923,99.2764,92.8823,0.00141032,0.0778617,21.049,479.274,0.588416,0.0,0.0
576,143.75,48.5019,51.2593,152.854,99.3324,92.9375,0.00153067,0.0773978,21.0499,479.284,0.58815,0.0,0.0
584,145.75,47.9133,51.0454,159.626,99.3612,93.0794,0.00150209,0.0767987,21.0503,479.284,0.577221,0.0,0.0
592,147.75,48.2258,51.1343,156.87,99.4233,92.8211,0.00138436,0.0760389,21.0505,479.254,0.607309,0.0,0.0
600,149.75,47.4186,50.6507,159.353,99.4683,93.0113,0.00128063,0.0753984,21.0508,479.224,0.593214,0.0,0.0
608,151.75,47.4091,51.0104,154.425,99.5437,93.9763,0.00120615,0.0746914,21.052,479.234,0.508688,0.0,0.0
616,153.75,47.5716,50.8211,153.493,99.5782,93.4474,0.00107367,0.0740229,21.0538,479.214,0.561636,0.0,0.0
624,155.75,47.5399,50.531,158.098,99.6167,93.5524,0.000904947,0.0734245,21.0546,479.214,0.555124,0.0,0.0
632,157.75,47.2088,50.5994,153.721,99.6549,93.3111,0.000738128,0.0728656,21.0556,479.164,0.581338,0.0,0.0
640,159.75,47.6258,50.6802,156.43,99.6841,93.965,0.000725217,0.0722373,21.057,479.154,0.522208,0.0,0.0
648,161.75,47.0348,49.9382,159.646,99.6995,93.247,0.000810991,0.0714245,21.0579,479.174,0.591367,0.0,0.0
656,163.75,46.6477,49.6409,159.064,99.7173,93.0754,0.000833081,0.0706412,21.0593,479.164,0.609228,0.0,0.0
664,165.75,47.4143,49.6565,151.668,99.7287,93.928,0.000799031,0.0699873,21.0605,479.164,0.529636,0.0,0.0
672,167.75,46.9927,49.7573,146.954,99.751,92.8823,0.00082662,0.0692884,21.0613,479.144,0.630566,0.0,0.0
680,169.75,46.6231,49.5701,158.265,99.7672,93.9357,0.000862403,0.068622,21.0616,479.124,0.532325,0.0,0.0
688,171.75,47.1157,49.6259,154.047,99.7713,93.4474,0.000890585,0.0678953,21.0627,479.144,0.578757,0.0,0.0
696,173.75,47.2897,49.5306,155.506,99.794,93.1314,0.000962769,0.0669521,21.0636,479.094,0.610706,0.0,0.0
704,175.75,46.1329,49.0046,153.741,99.7944,93.812,0.00105007,0.0661105,21.0637,479.094,0.546381,0.0,0.0
712,177.75,46.8622,48.7873,153.739,99.8118,93.8376,0.00108561,0.0654578,21.0635,479.084,0.545518,0.0,0.0
720,179.75,46.2516,49.4137,155.83,99.8183,93.4279,,0.064906,,479.034,0.584766,0.0,0.0
728,181.75,46.4686,49.3362,154.894,99.8248,93.6072,,,,479.024,0.568395,0.0,0.0
736,183.75,46.1656,48.7957,151.584,99.8345,93.2535,,,,478.994,0.602717,0.0,0.0
744,185.75,46.6585,48.3325,155.282,99.8451,93.1448,,,,479.004,0.613961,0.0,0.0
752,187.75,46.3707,49.0551,156.747,99.8248,93.6108,,,,479.014,0.56805,0.0,0.0
759,189.5,46.1714,49.4757,158.473,99.8293,93.7033,,,,479.014,0.559717,0.0,0.0