Folder: fsri_materials_database/01_Data/Vinyl_Plank_Flooring/Cone

Note: 01_Data/README.md
# Materials and Products Database
## 01_Data

Raw data generated from each apparatus are included here in plain-text format. The data is organized first by material, next by the short name of test apparatus used, and where applicable additional filtering by test settings.

### material.json

Each material directory contains a json file of the same name as the material. This file links the data stored in the repository as well as data and graphs produced by the accompanying scripts (__02_Scripts__) to the respective landing page for the material on the front-end website.

File: Vinyl_Plank_Flooring_Cone_HF25Scan_220311_R2.csv
Names,Time,Stack TC,Smoke TC,Exh Press,Smoke Comp,Smoke Meas,CO Meter,CO2 Meter,O2 Meter,Sample Mass,Ext Coeff,Start Test,Flame Verif
Chan Gain,,500,500,1,1,1,1,1,1,1,1,1.0,1.0
Offset,,0,0,0.136191,0,0,0,0,0,0,0,0.0,0.0
Gain,,1,1,25.011,13.291,13.2919,1,1,1,1.00093,1.00758,1.0,1.0
Units,sec,C,C,Pa,%,%,%,%,%,g,/m,,
Baseline,,18.7468,19.1011,175.706,99.6598,95.0209,0.000399565,0.0413229,21.084,-1.08709,0.421387,,
9,2,17.1472,17.6307,175.363,99.8374,95.9071,0.000714549,0.0435365,21.0824,500.454,0.354971,0.0,0.0
18,4.25,17.1537,17.8454,175.472,99.8354,96.0102,0.0007502,0.0432182,21.0826,500.384,0.345302,0.0,0.0
27,6.5,17.4326,17.9646,171.942,99.837,95.8593,0.00062445,0.0430366,21.084,500.384,0.359346,0.0,0.0
36,8.75,17.646,17.6977,171.903,99.8459,95.7972,0.000526968,0.0428977,21.0845,500.344,0.365861,0.0,0.0
45,11,17.5022,17.9384,174.668,99.8455,95.6354,0.000492412,0.0425177,21.0847,500.294,0.38077,0.0,0.0
54,13.25,16.9702,17.5783,179.452,99.8471,95.4074,0.000419211,0.0421769,21.0847,500.304,0.402006,0.0,0.0
63,15.5,17.6637,17.8385,173.854,99.8516,95.2849,0.000342532,0.0417786,21.0859,500.294,0.413757,0.0,0.0
72,17.75,17.2496,17.3408,177.625,99.8629,94.3864,0.000419539,0.0415121,21.0866,500.304,0.4985,0.0,0.0
81,20,17.5575,17.7521,175.686,99.841,93.9909,0.000613865,0.0414957,21.0854,500.254,0.533673,0.0,0.0
90,22.25,17.2263,17.7766,177.455,99.839,92.3351,0.00107826,0.0420982,21.0814,500.304,0.690584,0.0,0.0
99,24.5,17.7997,17.8453,176.28,99.8414,92.675,0.00677745,0.059031,21.0588,500.264,0.658322,0.0,1.0
108,26.75,18.704,18.4305,152.493,99.8256,77.965,0.0203928,0.152411,20.9101,499.763,2.18454,0.0,1.0
117,29,20.8885,20.9112,140.94,99.8066,49.2374,0.04035,0.325238,20.6261,498.903,6.24504,0.0,1.0
126,31.25,22.7467,22.6559,155.069,99.8017,50.8758,0.0489055,0.429038,20.4864,498.332,5.9553,0.0,0.0
135,33.5,24.8006,25.169,161.553,99.7729,44.6606,0.0459868,0.419917,20.486,497.912,7.10435,0.0,0.0
144,35.75,26.4011,26.9935,156.575,99.7502,44.3901,0.040506,0.385888,20.5218,497.551,7.15604,0.0,0.0
153,38,27.3896,28.0838,157.449,99.7279,48.4862,0.0375789,0.375126,20.5321,497.101,6.37396,0.0,0.0
162,40.25,28.8,29.4948,157.933,99.6824,47.9856,0.0373114,0.38993,20.5071,496.721,6.46165,0.0,0.0
171,42.5,30.0216,30.9648,154.966,99.6443,48.0136,0.0383344,0.416011,20.4641,496.24,6.45312,0.0,0.0
180,44.75,31.1656,32.1433,147.076,99.5891,49.4305,0.0402356,0.444881,20.4257,495.71,6.19118,0.0,0.0
189,47,32.6832,34.2648,150.528,99.5636,50.7249,0.0418541,0.468446,20.3948,495.369,5.96044,0.0,0.0
198,49.25,34.502,35.7806,155.03,99.5068,49.9619,0.0423276,0.478493,20.3832,494.919,6.08936,0.0,0.0
207,51.5,35.946,37.1468,157.823,99.4379,50.2199,0.041581,0.476732,20.3885,494.428,6.03771,0.0,0.0
216,53.75,36.637,38.4098,156.979,99.3867,51.12,0.0401274,0.465028,20.4135,494.058,5.87616,0.0,0.0
225,56,37.0957,38.7136,158.322,99.3202,48.9936,0.038362,0.445246,20.4467,493.598,6.24574,0.0,0.0
234,58.25,38.4166,40.3966,149.9,99.2618,49.168,0.0363326,0.429374,20.4709,493.207,6.20913,0.0,0.0
243,60.5,39.2837,41.3648,151.062,99.1945,46.8291,0.0342677,0.419497,20.4867,492.787,6.6339,0.0,0.0
252,62.75,39.7401,41.8471,156.957,99.1247,46.2698,0.0324398,0.41517,20.4952,492.517,6.73389,0.0,0.0
261,65,40.4318,42.7769,157.135,99.0639,43.3232,0.0304282,0.412054,20.501,492.116,7.31003,0.0,0.0
270,67.25,40.8137,43.2873,160.28,99.001,46.5716,0.0280563,0.405401,20.5143,491.856,6.66539,0.0,0.0
279,69.5,40.8921,43.459,156.327,98.9191,51.0242,0.0253606,0.3929,20.5409,491.656,5.85103,0.0,0.0
288,71.75,41.4001,44.1723,161.102,98.8526,56.536,0.0222701,0.372224,20.568,491.426,4.93847,0.0,0.0
297,74,41.0375,43.7763,162.519,98.799,62.4259,0.0184492,0.344842,20.6167,491.225,4.05778,0.0,0.0
306,76.25,41.3289,44.0849,161.852,98.7268,68.669,0.0148092,0.310567,20.678,491.085,3.20886,0.0,0.0
315,78.5,40.7382,43.4478,172.597,98.6562,76.6244,0.0115071,0.277929,20.7263,490.955,2.2337,0.0,0.0
324,80.75,40.4284,43.274,172.284,98.6068,79.5109,0.0088544,0.250602,20.773,490.875,1.90243,0.0,0.0
333,83,39.3547,42.2404,164.036,98.5751,78.4619,0.00713309,0.228764,20.8111,490.815,2.01697,0.0,0.0
342,85.25,39.1941,42.3295,166.357,98.5463,78.8684,0.00608636,0.212605,20.8331,490.775,1.96872,0.0,0.0
351,87.5,39.2858,42.4581,163.885,98.5143,81.5999,0.00529607,0.199746,20.8514,490.695,1.66492,0.0,0.0
360,89.75,38.3545,41.2066,167.552,98.5021,85.8547,0.00452144,0.184781,20.8801,490.715,1.21459,0.0,0.0
369,92,38.4041,40.7547,165.695,98.4814,89.5358,0.00389852,0.166004,20.9079,490.615,0.841675,0.0,0.0
378,94.25,37.6491,40.5342,171.942,98.4964,91.9753,0.00346521,0.144767,20.9353,490.585,0.605433,0.0,0.0
387,96.5,36.1124,39.6629,173.588,98.5086,92.2025,0.00328751,0.128759,20.9581,490.545,0.584723,0.0,0.0
396,98.75,35.7841,39.3133,171.609,98.5333,92.8401,0.00327757,0.116619,20.9756,490.615,0.526028,0.0,0.0
405,101,35.0118,37.847,172.534,98.5613,93.6745,0.00332041,0.103459,20.9967,490.575,0.449458,0.0,0.0
414,103.25,34.1157,37.0505,170.453,98.6027,93.0957,0.00325708,0.0899369,21.0192,490.575,0.507951,0.0,0.0
423,105.5,32.8815,35.3281,175.861,98.666,94.1564,0.00314618,0.0790447,21.0344,490.545,0.413486,0.0,0.0
432,107.75,32.7213,35.3192,176.661,98.7187,95.2135,0.00315788,0.0719351,21.0432,490.525,0.319533,0.0,0.0
441,110,31.321,34.2649,175.528,98.8059,94.5231,0.0031817,0.0675624,21.0496,490.555,0.391658,0.0,0.0
450,112.25,31.106,34.4409,172.127,98.8862,94.7851,0.00317347,0.0646213,21.0536,490.585,0.374371,0.0,0.0
459,114.5,30.1985,32.9299,172.526,98.9824,95.1535,0.00312362,0.0623703,21.0567,490.575,0.34868,0.0,0.0
468,116.75,30.3081,33.2459,174.76,99.0562,94.6614,0.00299142,0.0605277,21.0587,490.575,0.401091,0.0,0.0
477,119,29.4986,32.2497,173.484,99.1405,95.1401,0.00279575,0.0590123,21.0597,490.525,0.364037,0.0,0.0
486,121.25,29.3723,31.3124,174.837,99.2383,96.0305,0.00252897,0.058197,21.0601,490.565,0.290417,0.0,0.0
495,123.5,29.1071,31.5818,170.233,99.3458,95.5595,0.00225615,0.0572256,21.0617,490.555,0.343437,0.0,0.0
504,125.75,27.5571,30.591,174.551,99.4464,95.6268,0.00197656,0.0562778,21.0634,490.445,0.346156,0.0,0.0
513,128,27.5947,30.5384,173.206,99.5307,95.4618,0.00169619,0.055334,21.0644,490.455,0.368922,0.0,0.0
522,130.25,27.5607,30.006,175.679,99.6102,95.4942,0.00155197,0.0545003,21.0662,490.455,0.372976,0.0,0.0
531,132.5,26.926,29.52,174.852,99.7072,95.7692,0.0015319,0.0535125,21.068,490.425,0.356155,0.0,0.0
540,134.75,26.7565,29.5704,177.093,99.8171,95.549,0.00165439,0.0526358,21.0695,490.445,0.386244,0.0,0.0
549,137,25.551,28.7065,172.309,99.9347,95.9704,0.0018761,0.0519631,21.071,490.405,0.357754,0.0,0.0
558,139.25,25.8594,28.3161,175.723,100.019,96.8807,0.00193227,0.0515215,21.0729,490.475,0.281742,0.0,0.0
567,141.5,25.9855,27.5419,168.95,100.1,96.5951,0.00169435,0.0511738,21.0738,490.345,0.315035,0.0,0.0
576,143.75,25.6346,27.8195,177.061,100.204,96.4284,0.00141924,0.0506536,21.0752,490.345,0.339466,0.0,0.0
585,146,24.8484,26.3695,169.227,100.28,96.5022,0.00127551,0.0500733,21.0757,490.505,0.339425,0.0,0.0
594,148.25,24.9923,26.9178,176.357,100.34,96.6665,0.00121711,0.0496241,21.0759,490.475,0.329646,0.0,0.0
603,150.5,23.7071,26.2834,173.024,100.408,96.3335,0.00124735,0.0492385,21.076,490.375,0.366112,0.0,0.0
612,152.75,24.2727,26.4363,168.056,100.463,96.6742,0.00123052,0.0490098,21.076,490.385,0.339759,0.0,0.0
621,155,24.2123,26.0669,169.742,100.517,96.4803,0.00108715,0.0486945,21.076,490.485,0.362285,0.0,0.0
630,157.25,23.6762,24.8717,174.738,100.538,96.8202,0.000954485,0.0484267,21.0771,490.485,0.333054,0.0,0.0
639,159.5,23.5642,25.4999,173.061,100.547,96.5874,0.000888273,0.0480867,21.0779,490.445,0.355119,0.0,0.0
648,161.75,23.4048,25.4614,174.357,100.547,96.6227,0.000939801,0.0477888,21.0782,490.435,0.35189,0.0,0.0
657,164,23.4299,25.1244,174.063,100.532,97.137,0.000933856,0.0477915,21.0772,490.435,0.303611,0.0,0.0
666,166.25,23.309,25.1124,164.859,100.494,96.7038,0.000839632,0.0478656,21.0765,490.375,0.339765,0.0,0.0
675,168.5,23.3357,24.6349,169.884,100.456,96.7257,0.000861083,0.0478619,21.0762,490.375,0.334409,0.0,0.0
684,170.75,22.9178,24.4788,172.234,100.399,96.9366,0.000934403,0.0477954,21.0761,490.395,0.310194,0.0,0.0
693,173,22.4784,24.4341,174.868,100.317,96.9095,0.000925023,0.0477534,21.0761,490.405,0.305456,0.0,0.0
702,175.25,22.5215,24.2039,176.347,100.264,96.5245,0.000946397,0.0476239,21.076,490.425,0.335952,0.0,0.0
711,177.5,22.5923,23.977,179.174,100.183,97.1642,0.000984381,0.0474765,21.076,490.465,0.270417,0.0,0.0
720,179.75,22.7337,23.7919,164.397,100.11,96.7894,0.00101978,0.047167,21.0765,490.465,0.298098,0.0,0.0
729,182,21.4982,23.299,171.636,100.035,97.2088,0.00104722,0.0468251,21.0778,490.365,0.253324,0.0,0.0
738,184.25,22.3226,23.9358,172.337,99.9574,96.4178,0.0011053,0.046473,21.0787,490.365,0.318654,0.0,0.0
747,186.5,22.1422,23.5471,173.951,99.8788,96.9484,0.00105198,0.0461894,21.0789,490.415,0.26319,0.0,0.0
756,188.75,21.9978,23.1141,176.181,99.8053,96.4166,0.000912216,0.0460517,21.079,490.445,0.305306,0.0,0.0
765,191,21.9112,23.2711,174.325,99.7644,95.9238,0.000887176,0.0460556,21.0784,490.375,0.346971,0.0,0.0
774,193.25,20.9181,22.3223,174.648,99.798,97.034,0.000754351,0.0460016,21.0779,490.425,0.248245,0.0,0.0
783,195.5,21.7817,22.9361,176.589,99.9461,96.4057,0.000655794,0.0458877,21.0781,490.285,0.318765,0.0,0.0
792,197.75,21.1095,22.6806,170.372,100.065,96.89,0.000670159,0.0457443,21.0781,490.435,0.285013,0.0,0.0
801,200,21.5386,22.4876,172.471,100.179,95.8069,0.000673476,0.0456303,21.0794,490.455,0.394427,0.0,0.0
810,202.25,21.601,22.3608,175.006,100.267,96.8239,0.000789973,0.0455707,21.0801,490.425,0.308797,0.0,0.0
819,204.5,21.5038,22.6131,169.248,100.287,96.9224,0.000920298,0.0456423,21.0803,490.395,0.301592,0.0,0.0
828,206.75,21.3528,22.314,168.946,100.306,96.5874,0.000989621,0.0454747,21.0792,490.475,0.333915,0.0,0.0
837,209,20.7026,22.1169,175.719,100.297,96.585,0.00107743,0.0454766,21.0786,490.485,0.333279,0.0,0.0
846,211.25,21.2729,22.4036,175.902,100.263,97.2733,,0.0456532,,490.365,0.267544,0.0,0.0
855,213.5,20.8059,22.5725,177.507,100.172,97.4003,,0.0454312,,490.345,0.247967,0.0,0.0
864,215.75,20.4709,21.7266,171.475,100.074,96.6649,,,,490.355,0.306361,0.0,0.0
873,218,20.8408,21.9689,171.701,99.9505,96.4994,,,,490.425,0.310573,0.0,0.0
882,220.25,21.056,22.1537,174.359,99.7863,96.6507,,,,490.365,0.282188,0.0,0.0
889,222,20.7805,21.8481,173.039,99.6342,96.4259,,,,490.355,0.289279,0.0,0.0

File: Vinyl_Plank_Flooring_Cone_HF25Scan_220311_R3.csv
Names,Time,Stack TC,Smoke TC,Exh Press,Smoke Comp,Smoke Meas,CO Meter,CO2 Meter,O2 Meter,Sample Mass,Ext Coeff,Start Test,Flame Verif
Chan Gain,,500,500,1,1,1,1,1,1,1,1,1.0,1.0
Offset,,0,0,0.136191,0,0,0,0,0,0,0,0.0,0.0
Gain,,1,1,25.011,13.291,13.2919,1,1,1,1.00093,1.00758,1.0,1.0
Units,sec,C,C,Pa,%,%,%,%,%,g,/m,,
Baseline,,18.9354,19.3823,175.769,99.5298,96.458,0.000602642,0.0411581,21.0848,-0.988293,0.277088,,
10,2.25,17.307,18.2539,167.101,100.568,96.9022,0.000591665,0.0422706,21.081,493.187,0.328215,0.0,0.0
20,4.75,17.5806,18.3192,178.932,100.47,97.0616,0.000555729,0.0424325,21.081,493.257,0.30502,0.0,0.0
30,7.25,17.3831,18.0732,179.555,100.317,97.1374,0.000598674,0.0424169,21.081,493.237,0.284655,0.0,0.0
40,9.75,18.1229,18.3053,179.883,100.059,96.2491,0.000687005,0.042362,21.0817,493.237,0.343098,0.0,0.0
50,12.25,17.1715,17.8387,176.05,99.7859,96.7444,0.000773599,0.0424768,21.0836,493.237,0.273587,0.0,0.0
60,14.75,17.2976,18.1594,176.074,99.5048,95.9428,0.000799088,0.0435818,21.0843,493.217,0.322188,0.0,0.0
70,17.25,17.5358,17.776,177.214,99.2067,94.9275,0.000778893,0.0446491,21.0845,493.217,0.389697,0.0,0.0
80,19.75,17.7053,18.2281,175.124,98.9475,94.2692,0.000745093,0.0446898,21.0846,493.207,0.428086,0.0,0.0
90,22.25,17.9125,18.0311,172.187,98.756,93.0089,0.000695121,0.0442444,21.0833,493.187,0.52993,0.0,0.0
100,24.75,17.959,18.19,173.302,98.6088,91.8775,0.00141888,0.0497795,21.0715,493.117,0.624909,0.0,1.0
110,27.25,18.7398,18.878,166.903,98.554,83.7474,0.00704944,0.0857217,21.0101,492.817,1.43889,0.0,1.0
120,29.75,19.0211,19.446,144.232,98.567,54.3083,0.0211454,0.204487,20.7671,492.006,5.26822,0.0,0.0
130,32.25,22.0715,21.8293,148.458,98.6623,48.2724,0.0354292,0.364525,20.5561,491.316,6.31807,0.0,0.0
140,34.75,23.1647,23.9055,165.784,98.7929,48.6123,0.0383485,0.397094,20.5163,490.885,6.26775,0.0,0.0
150,37.25,24.9254,25.5095,161.168,98.986,52.0882,0.0359344,0.367355,20.5483,490.535,5.6746,0.0,0.0
160,39.75,26.5502,27.3956,154.609,99.1945,51.1816,0.0339132,0.361697,20.5577,490.125,5.84839,0.0,0.0
170,42.25,27.9377,28.773,151.367,99.4009,51.3463,0.0335237,0.376778,20.5349,489.704,5.83837,0.0,0.0
180,44.75,29.4919,30.3019,154.368,99.609,55.6728,0.0337939,0.393732,20.516,489.274,5.14183,0.0,0.0
190,47.25,31.287,32.2471,156.109,99.7429,50.9468,0.0344612,0.406086,20.4985,488.823,5.93777,0.0,0.0
200,49.75,31.9526,33.0614,150.42,99.8678,49.2536,0.0351274,0.421088,20.4764,488.343,6.24755,0.0,0.0
210,52.25,33.7189,35.1091,150.408,99.8966,50.7699,0.035456,0.430158,20.4637,487.862,5.98211,0.0,0.0
220,54.75,34.7093,36.1161,159.02,99.9015,51.4923,0.0349709,0.433994,20.4584,487.382,5.85766,0.0,0.0
230,57.25,35.7137,37.4297,153.718,99.8179,49.2658,0.0336376,0.422524,20.4798,486.942,6.24095,0.0,0.0
240,59.75,35.9498,37.9622,154.604,99.753,48.3896,0.031843,0.403807,20.5106,486.551,6.3938,0.0,0.0
250,62.25,36.9673,38.8587,157.273,99.6573,47.004,0.0301803,0.390905,20.5323,486.191,6.64211,0.0,0.0
260,64.75,38.4926,40.2817,153.976,99.5616,45.6934,0.0292434,0.391828,20.5303,485.8,6.88355,0.0,0.0
270,67.25,38.5532,40.6594,153.543,99.506,48.016,0.0282724,0.399626,20.5245,485.4,6.44039,0.0,0.0
280,69.75,40.0296,42.3338,164.513,99.7031,48.9056,0.0263769,0.396501,20.5334,485.08,6.29564,0.0,0.0
290,72.25,39.2043,41.4402,162.087,100.043,55.3633,0.0239822,0.379389,20.5649,484.77,5.22957,0.0,0.0
300,74.75,39.1678,41.4712,159.519,100.269,57.9298,0.0206871,0.355973,20.5993,484.509,4.84893,0.0,0.0
310,77.25,39.9514,42.489,164.191,100.354,63.7243,0.0172824,0.329398,20.6453,484.319,4.01386,0.0,0.0
320,79.75,39.8203,42.0564,164.392,100.294,72.6796,0.0141567,0.301948,20.684,484.149,2.84634,0.0,0.0
330,82.25,39.7668,42.2275,170.409,100.077,79.2586,0.0106792,0.26942,20.7323,484.049,2.06134,0.0,0.0
340,84.75,39.0785,41.5218,166.041,99.7984,80.731,0.00818493,0.242054,20.7879,483.959,1.874,0.0,0.0
350,87.25,38.7224,41.3994,161.999,99.9587,81.5306,0.00663385,0.221492,20.8206,483.889,1.80108,0.0,0.0
360,89.75,38.3887,41.1334,163.891,100.121,83.2574,0.00560117,0.206229,20.8453,483.809,1.63021,0.0,0.0
370,92.25,38.0011,40.6173,166.516,100.331,86.541,0.00501341,0.190371,20.8704,483.709,1.30678,0.0,0.0
380,94.75,37.6585,40.2129,165.65,100.467,89.969,0.004298,0.176164,20.8926,483.699,0.975467,0.0,0.0
390,97.25,36.7691,39.3136,170.494,100.586,91.7056,0.0035934,0.158627,20.9205,483.709,0.816911,0.0,0.0
400,99.75,36.2469,39.0117,169.769,100.586,92.8624,0.00318712,0.141866,20.945,483.658,0.706148,0.0,0.0
410,102.25,35.3073,38.216,173.79,100.498,92.1084,0.00297694,0.126069,20.9639,483.618,0.770474,0.0,0.0
420,104.75,34.521,37.69,172.12,100.313,93.7427,0.00300675,0.111685,20.9849,483.608,0.59871,0.0,0.0
430,107.25,34.223,36.9271,169.763,100.07,94.6014,0.00318377,0.098574,21.0021,483.588,0.49668,0.0,0.0
440,109.75,33.5587,36.3541,168.067,99.7603,93.4242,0.00341604,0.0881543,21.0172,483.568,0.579972,0.0,0.0
450,112.25,31.8569,34.4881,169.502,99.4387,93.2624,0.00342935,0.0791646,21.0301,483.568,0.566755,0.0,0.0
460,114.75,31.1613,34.2326,170.986,99.1134,92.8916,0.0033213,0.0720181,21.0415,483.528,0.573,0.0,0.0
470,117.25,31.242,33.228,169.596,98.8518,93.552,0.00314241,0.067257,21.0482,483.538,0.48703,0.0,0.0
480,119.75,30.1025,32.7934,171.629,98.6656,93.1963,0.0029479,0.0638277,21.0537,483.528,0.50404,0.0,0.0
490,122.25,29.9002,31.5918,170.282,98.5844,93.0855,0.00268639,0.0613375,21.0572,483.518,0.507278,0.0,0.0
500,124.75,29.7095,31.9367,167.989,98.6331,93.2251,0.00241063,0.0597166,21.0601,483.508,0.498403,0.0,0.0
510,127.25,28.392,30.9102,172.447,98.7418,93.5431,0.0023101,0.0581185,21.0602,483.498,0.478038,0.0,0.0
520,129.75,28.1512,30.5588,162.446,98.9381,93.6895,0.00229647,0.0571437,21.0609,483.488,0.481768,0.0,0.0
530,132.25,27.61,29.9498,176.004,99.1474,93.8319,0.00236256,0.0560033,21.0628,483.488,0.487024,0.0,0.0
540,134.75,27.5899,29.452,170.266,99.3989,93.8469,0.00245176,0.0549056,21.0649,483.488,0.507999,0.0,0.0
550,137.25,27.6003,29.4338,170.803,99.6131,93.7658,0.00221273,0.0541274,21.066,483.488,0.534666,0.0,0.0
560,139.75,26.8243,28.9012,175.416,99.8021,94.399,0.0019531,0.0530203,21.0673,483.478,0.491936,0.0,0.0
570,142.25,25.8378,28.4509,173.072,99.8816,94.5771,0.00186701,0.0521727,21.0683,483.458,0.482316,0.0,0.0
580,144.75,26.0325,28.0268,172.673,99.9092,94.358,0.00185716,0.051639,21.0691,483.488,0.50525,0.0,0.0
590,147.25,26.1204,27.7202,173.08,99.8532,93.6859,0.00180513,0.0508774,21.0711,483.468,0.563481,0.0,0.0
600,149.75,25.0405,27.1737,180.68,99.753,94.201,0.00177544,0.0500896,21.0727,483.468,0.506141,0.0,0.0
610,152.25,25.3344,26.7772,173.732,99.6386,94.369,0.0017378,0.0495512,21.0746,483.478,0.480258,0.0,0.0
620,154.75,24.7848,26.3339,173.103,99.5385,93.9524,0.00171609,0.0490997,21.0763,483.468,0.510471,0.0,0.0
630,157.25,24.9254,26.5436,175.179,99.4675,93.9406,0.00177341,0.0486355,21.0769,483.458,0.505272,0.0,0.0
640,159.75,23.625,25.6589,169.012,99.6009,93.9739,0.00177858,0.0483103,21.0771,483.448,0.513993,0.0,0.0
650,162.25,23.8916,25.8883,174.964,99.9546,94.1893,0.00175953,0.0478633,21.0772,483.468,0.525089,0.0,0.0
660,164.75,23.8547,25.5589,169.83,100.179,94.4505,0.00169711,0.0473589,21.0761,483.468,0.520421,0.0,0.0
670,167.25,23.8475,25.3436,172.384,100.303,95.1198,0.00156794,0.0471471,21.0753,483.448,0.46899,0.0,0.0
680,169.75,23.7866,25.0262,174.694,100.312,94.7584,0.00138384,0.0469683,21.0766,483.448,0.503352,0.0,0.0
690,172.25,23.2742,24.9915,172.825,100.21,95.0626,0.00108323,0.0465753,21.0771,483.458,0.466081,0.0,0.0
700,174.75,22.8914,24.5419,167.126,100,93.9775,0.000961863,0.0462322,21.0776,483.428,0.549033,0.0,0.0
710,177.25,22.7555,24.9356,171.181,99.7879,94.4481,0.000881961,0.0460029,21.0787,483.418,0.486084,0.0,0.0
720,179.75,22.7973,24.3161,174.585,99.9072,94.5077,0.00083093,0.0458442,21.0797,483.418,0.491062,0.0,0.0
730,182.25,22.8706,24.3832,173.624,100.081,94.6363,0.000780519,0.0458551,21.0796,483.408,0.494388,0.0,0.0
740,184.75,22.4744,23.9513,171.225,100.232,94.3925,0.000815674,0.0458728,21.0789,483.408,0.530501,0.0,0.0
750,187.25,21.9116,23.8999,174,100.391,94.5807,0.000909886,0.0456506,21.0798,483.418,0.526906,0.0,0.0
760,189.75,22.5548,23.4741,166.171,100.482,94.1962,0.00113705,0.0455572,21.0801,483.408,0.570943,0.0,0.0
770,192.25,22.2394,23.4128,172.502,100.513,94.6095,0.00129198,0.0454346,21.0801,483.418,0.534992,0.0,0.0
780,194.75,22.0077,23.4942,175.104,100.573,94.7474,0.00139765,0.0452671,21.0796,483.418,0.527359,0.0,0.0
790,197.25,22.0485,22.9803,171.463,100.609,94.5219,0.00152051,0.0452503,21.0808,483.428,0.55163,0.0,0.0
800,199.75,22.1857,22.7998,173.445,100.595,95.1263,0.00158922,0.0451574,21.0815,483.418,0.494012,0.0,0.0
810,202.25,22.2029,23.4172,169.089,100.609,94.6241,0.00142021,0.0450435,21.0821,483.418,0.542041,0.0,0.0
820,204.75,21.7642,22.9336,170.96,100.569,93.956,0.00125391,0.0450051,21.0825,483.428,0.601137,0.0,0.0
830,207.25,21.9908,22.6353,177.408,100.45,94.2793,0.00116895,0.0448656,21.0827,483.428,0.560363,0.0,0.0
840,209.75,21.8631,22.9372,172.317,100.307,94.0213,0.00094697,0.0447272,21.0827,483.428,0.571974,0.0,0.0
850,212.25,22.0278,22.707,173.77,100.1,93.8988,0.000744457,0.0446567,21.0827,483.418,0.56525,0.0,0.0
860,214.75,21.6623,21.8228,176.908,99.9023,93.4762,0.000749707,0.0447039,21.0823,483.418,0.587631,0.0,0.0
870,217.25,20.5,21.782,174.098,99.6561,92.8,0.000869293,0.0446453,21.082,483.398,0.629991,0.0,0.0
880,219.75,21.6127,22.333,173.483,99.42,93.1671,0.000936932,0.044639,21.0818,483.408,0.574136,0.0,0.0
890,222.25,21.6472,21.8561,173.951,99.2127,93.137,,0.0445914,,483.388,0.558538,0.0,0.0
900,224.75,20.6452,21.6462,172.131,99.0209,92.9367,,,,483.398,0.560467,0.0,0.0
910,227.25,21.0869,22.0603,174.835,98.8615,92.3992,,,,483.378,0.59749,0.0,0.0
920,229.75,21.0189,21.3551,174.583,98.7455,92.5042,,,,483.408,0.577069,0.0,0.0
925,231,21.6359,21.9159,176.572,98.711,92.6357,,,,483.428,0.561434,0.0,0.0

File: Vinyl_Plank_Flooring_Cone_HF50Scalar_220311_R1.csv
LABORATORY,FSRI
TEST IDENT,VinylPF_HF50_1
OPERATOR,Dow
MATERIAL,Vinyl Plan Flooring
ORIENTATION,Horizontal
HEAT FLUX,50
SURF AREA,0.01
C FACTOR,0.0377281
SPEC HOLDER DIFF,-566
SPECIMEN MASS,16.2
SCAN TIME,0.25
O2 DELAY TIME,11
CO DELAY TIME,11
CO2 DELAY TIME,8
FLOW FACTOR,1
SCAN COUNT,790
TIME TO IGN,8.5
END OF TEST SCAN,310
END OF TEST TIME,77.5
TEST STATUS,1
PRE TEST CMT,Dimensions: 99.76 x 101.32 x 2.32 mm

File: Vinyl_Plank_Flooring_Cone_HF50Scalar_220311_R2.csv
LABORATORY,FSRI
TEST IDENT,VinylPF_HF50_2
OPERATOR,Dow
MATERIAL,Vinyl Plan Flooring
ORIENTATION,Horizontal
HEAT FLUX,50
SURF AREA,0.01
C FACTOR,0.0377281
SPEC HOLDER DIFF,-566
SPECIMEN MASS,16.2
SCAN TIME,0.25
O2 DELAY TIME,11
CO DELAY TIME,11
CO2 DELAY TIME,8
FLOW FACTOR,1
SCAN COUNT,778
TIME TO IGN,8
END OF TEST SCAN,298
END OF TEST TIME,74.5
TEST STATUS,1
PRE TEST CMT,Dimensions: 100.27 x 100.52 x 2.32 mm