Folder: fsri_materials_database/01_Data/Vinyl_Plank_Flooring/MCC

Note: 01_Data/README.md
# Materials and Products Database
## 01_Data

Raw data generated from each apparatus are included here in plain-text format. The data is organized first by material, next by the short name of test apparatus used, and where applicable additional filtering by test settings.

### material.json

Each material directory contains a json file of the same name as the material. This file links the data stored in the repository as well as data and graphs produced by the accompanying scripts (__02_Scripts__) to the respective landing page for the material on the front-end website.

File: Vinyl_Plank_Flooring_MCC_30K_min_211111_R2.txt
Sample ID:	C:\MCC\MCC Cal\Test\Vinyl_Plan_Flooring_MCC_30K_min_211111_R2.txt
Sample Weight (mg):	4.78
Heating Rate (C/s):	0.5
Combustor Temp (C):	900
N2 Flow Rate (cc/min):	80
O2 Flow Rate (cc/min):	20
Calibration File:	C:\MCC\MCC Cal\Coeff1 JN10440_30_210304.txt.txt
T Correction Coefficients:	0	1.024463	0
Time Shift (s):	14
*
Time (s)	Temperature (C)	N2 flow rate (cc/min)	O2 flow rate (cc/min)	Flow Rate (cc/min)	Oxygen (%)	HRR (W/g)	Heating rate (C/s)
0.000	107.564	80.001	19.994	103.031	20.004	0.132	-0.004
8.000	107.546	80.002	19.995	103.064	20.003	0.200	0.004
16.000	107.607	80.001	19.996	103.149	19.990	1.047	0.019
24.000	108.046	80.004	19.995	103.166	19.978	1.921	0.065
32.000	108.896	80.004	19.996	103.248	19.968	2.566	0.132
40.000	110.172	80.004	19.994	103.232	19.959	3.150	0.147
48.001	111.899	80.004	19.995	103.225	19.964	2.844	0.213
56.001	113.900	80.001	19.994	103.246	19.958	3.213	0.312
64.000	116.035	80.003	19.995	103.263	19.959	3.186	0.262
72.000	118.505	80.002	19.995	103.267	19.962	2.940	0.340
80.000	121.071	80.000	19.994	103.272	19.960	3.096	0.378
88.001	123.895	80.003	19.995	103.268	19.957	3.309	0.331
96.001	126.878	80.003	19.996	103.268	19.954	3.527	0.362
104.000	129.973	80.002	19.994	103.263	19.951	3.735	0.387
112.000	133.142	80.006	19.995	103.265	19.951	3.714	0.411
120.000	136.454	80.003	19.996	103.265	19.948	3.889	0.415
128.000	139.833	80.005	19.995	103.279	19.946	4.056	0.426
136.000	143.451	80.002	19.995	103.299	19.943	4.255	0.462
144.000	147.104	80.003	19.995	103.288	19.941	4.369	0.465
152.000	150.805	80.002	19.994	103.268	19.937	4.675	0.446
160.000	154.586	80.004	19.996	103.271	19.935	4.800	0.468
168.000	158.414	80.004	19.994	103.267	19.928	5.242	0.471
176.000	162.282	80.003	19.995	103.263	19.925	5.463	0.478
184.000	166.252	80.002	19.995	103.269	19.920	5.821	0.475
192.000	170.196	80.007	19.995	103.265	19.909	6.548	0.493
200.000	174.166	80.002	19.994	103.264	19.908	6.619	0.512
208.000	178.100	80.003	19.996	103.246	19.894	7.570	0.521
216.000	182.055	80.000	19.995	103.271	19.885	8.184	0.504
224.000	186.040	80.003	19.995	103.252	19.870	9.195	0.502
232.000	190.048	80.003	19.995	103.234	19.854	10.250	0.517
240.000	194.000	80.003	19.995	103.251	19.842	11.021	0.483
248.000	197.966	80.001	19.995	103.241	19.827	12.085	0.483
256.000	201.959	80.002	19.995	103.242	19.806	13.477	0.507
264.000	205.979	80.003	19.994	103.230	19.780	15.245	0.517
272.000	210.002	80.003	19.995	103.234	19.756	16.876	0.533
280.000	213.961	80.003	19.995	103.253	19.731	18.531	0.516
288.000	217.944	80.003	19.995	103.234	19.707	20.139	0.495
296.000	221.841	80.004	19.995	103.223	19.684	21.678	0.477
304.000	225.700	80.001	19.996	103.226	19.652	23.848	0.453
312.000	229.626	80.001	19.996	103.221	19.622	25.846	0.467
320.000	233.404	80.002	19.995	103.222	19.596	27.621	0.470
328.000	237.207	80.001	19.994	103.225	19.561	30.009	0.461
336.000	240.982	80.001	19.995	103.227	19.533	31.846	0.458
344.000	244.819	80.002	19.995	103.237	19.502	33.953	0.473
352.000	248.709	80.003	19.995	103.242	19.469	36.214	0.480
360.000	252.683	80.004	19.996	103.248	19.432	38.700	0.493
368.000	256.642	80.004	19.995	103.256	19.388	41.660	0.480
376.000	260.601	80.004	19.996	103.258	19.343	44.659	0.469
384.000	264.654	80.001	19.995	103.267	19.294	48.045	0.509
392.000	268.675	80.001	19.996	103.287	19.248	51.129	0.510
400.000	272.745	80.001	19.996	103.322	19.213	53.446	0.485
408.000	276.852	80.002	19.995	103.317	19.191	54.922	0.524
416.000	281.016	80.003	19.995	103.328	19.206	53.974	0.656
424.000	284.897	80.003	19.996	103.319	19.261	50.194	0.430
432.000	288.955	80.004	19.995	103.289	19.375	42.526	0.486
440.000	293.025	80.003	19.996	103.243	19.524	32.488	0.506
448.000	297.100	80.004	19.995	103.234	19.684	21.686	0.491
456.000	301.189	80.005	19.995	103.211	19.803	13.704	0.513
464.000	305.266	80.002	19.995	103.170	19.866	9.451	0.510
472.000	309.266	80.002	19.995	103.155	19.898	7.266	0.476
480.000	313.398	80.002	19.994	103.150	19.917	5.985	0.550
488.000	317.435	80.001	19.995	103.147	19.928	5.223	0.527
496.000	321.417	80.001	19.995	103.147	19.934	4.851	0.500
504.000	325.386	80.002	19.996	103.154	19.942	4.298	0.463
512.000	329.344	80.003	19.994	103.155	19.946	4.025	0.523
520.000	333.336	80.004	19.994	103.156	19.952	3.605	0.513
528.000	337.299	80.004	19.994	103.158	19.955	3.436	0.494
536.000	341.268	80.004	19.994	103.178	19.956	3.355	0.509
544.000	345.166	80.004	19.994	103.185	19.956	3.355	0.481
552.000	349.144	80.001	19.995	103.163	19.959	3.146	0.485
560.000	353.272	80.003	19.995	103.166	19.958	3.205	0.531
568.000	357.304	80.003	19.996	103.170	19.961	3.056	0.507
576.001	361.318	80.003	19.997	103.181	19.960	3.073	0.503
584.000	365.311	80.001	19.996	103.183	19.967	2.648	0.477
592.000	369.437	80.002	19.994	103.186	19.966	2.674	0.509
600.000	373.495	80.003	19.995	103.170	19.965	2.771	0.534
608.000	377.535	80.004	19.994	103.179	19.962	2.952	0.524
616.000	381.610	80.005	19.995	103.183	19.959	3.176	0.492
624.000	385.625	80.003	19.995	103.176	19.957	3.286	0.473
632.000	389.683	80.003	19.995	103.178	19.953	3.582	0.502
640.000	393.790	80.004	19.994	103.174	19.944	4.146	0.514
648.000	397.858	80.003	19.994	103.178	19.944	4.187	0.519
656.000	401.877	80.002	19.995	103.172	19.935	4.780	0.484
664.000	405.909	80.003	19.995	103.154	19.931	5.082	0.492
672.000	409.959	80.002	19.993	103.161	19.924	5.493	0.532
680.000	413.935	80.003	19.995	103.169	19.914	6.177	0.487
688.000	417.931	80.002	19.998	103.149	19.902	7.003	0.517
696.000	421.907	80.004	19.998	103.160	19.892	7.692	0.488
704.000	425.936	80.005	19.995	103.171	19.870	9.170	0.526
712.000	429.941	80.003	19.995	103.159	19.840	11.193	0.521
720.000	433.904	80.002	19.994	103.154	19.810	13.217	0.482
728.000	437.940	80.003	19.994	103.175	19.768	16.033	0.507
736.000	441.993	80.001	19.997	103.172	19.718	19.388	0.506
744.000	446.099	80.002	19.994	103.183	19.660	23.304	0.553
752.000	450.212	80.001	19.995	103.166	19.606	26.949	0.498
760.000	454.335	80.004	19.995	103.164	19.547	30.891	0.515
768.000	458.475	80.003	19.996	103.168	19.508	33.518	0.521
776.000	462.641	80.002	19.995	103.164	19.484	35.134	0.518
784.000	466.737	80.005	19.997	103.179	19.486	35.005	0.515
792.000	470.968	80.004	19.994	103.166	19.510	33.388	0.510
800.000	475.209	80.002	19.994	103.182	19.537	31.614	0.530
808.000	479.369	80.002	19.996	103.174	19.572	29.256	0.560
816.000	483.472	80.002	19.996	103.179	19.609	26.765	0.504
824.000	487.573	80.004	19.996	103.162	19.657	23.522	0.520
832.000	491.652	80.003	19.994	103.148	19.700	20.633	0.532
840.000	495.793	80.005	19.995	103.172	19.740	17.912	0.505
848.000	499.863	80.004	19.995	103.157	19.777	15.441	0.527
856.000	503.932	80.003	19.997	103.150	19.813	12.989	0.507
864.000	508.072	80.005	19.995	103.161	19.844	10.888	0.534
872.000	512.169	80.004	19.995	103.158	19.868	9.263	0.526
880.000	516.321	80.003	19.998	103.150	19.890	7.822	0.501
888.000	520.589	80.004	19.995	103.149	19.909	6.536	0.543
896.000	524.782	80.002	19.995	103.152	19.915	6.161	0.545
904.000	528.989	80.003	19.995	103.147	19.925	5.452	0.501
912.000	533.141	80.003	19.996	103.150	19.928	5.223	0.521
920.000	537.375	80.004	19.994	103.148	19.937	4.644	0.526
928.000	541.522	80.003	19.996	103.156	19.939	4.483	0.509
936.000	545.636	80.004	19.995	103.141	19.940	4.463	0.492
944.000	549.703	80.004	19.995	103.146	19.943	4.210	0.470
952.000	553.773	80.004	19.995	103.144	19.948	3.917	0.506
960.000	557.820	80.004	19.994	103.151	19.949	3.835	0.483
968.000	561.847	80.002	19.997	103.155	19.954	3.509	0.503
976.000	565.932	80.003	19.996	103.150	19.958	3.201	0.527
984.000	570.043	80.002	19.994	103.175	19.966	2.694	0.527
992.000	574.158	80.002	19.996	103.161	19.963	2.889	0.532
1000.000	578.333	80.002	19.995	103.171	19.961	3.041	0.525
1008.000	582.357	80.004	19.995	103.150	19.963	2.888	0.510
1016.000	586.486	80.003	19.994	103.153	19.962	2.953	0.539
1024.001	590.589	80.004	19.995	103.152	19.968	2.548	0.529
1032.001	594.737	80.005	19.998	103.149	19.970	2.440	0.495
1040.001	598.853	80.003	19.996	103.149	19.971	2.341	0.512
1048.000	602.979	80.002	19.995	103.151	19.969	2.460	0.499
1056.000	607.052	80.004	19.995	103.143	19.975	2.110	0.511
1064.001	611.094	80.003	19.996	103.148	19.969	2.462	0.479
1072.001	615.195	80.003	19.996	103.146	19.967	2.609	0.509
1080.000	619.245	80.003	19.995	103.147	19.974	2.182	0.525
1088.000	623.248	80.005	19.995	103.151	19.971	2.330	0.472
1096.000	627.255	80.005	19.994	103.166	19.973	2.230	0.522
1104.001	631.215	80.003	19.994	103.166	19.971	2.380	0.485
1112.000	635.326	80.008	19.995	103.178	19.965	2.742	0.529
1120.000	639.359	80.002	19.995	103.184	19.963	2.892	0.527
1128.001	643.367	80.001	19.996	103.186	19.960	3.117	0.496
1136.001	647.377	80.002	19.994	103.189	19.962	2.993	0.532
1144.001	651.423	80.004	19.996	103.193	19.958	3.265	0.517
1152.000	655.579	80.003	19.995	103.221	19.966	2.710	0.520
1160.000	659.691	80.003	19.997	103.225	19.962	2.987	0.521
1168.000	663.770	80.006	19.994	103.254	19.948	3.881	0.486
1176.001	667.829	80.005	19.995	103.265	19.952	3.643	0.500
1184.000	671.847	80.005	19.995	103.267	19.948	3.900	0.499
1192.000	675.990	80.007	19.995	103.297	19.949	3.838	0.537
1200.000	679.962	80.005	19.995	103.301	19.943	4.232	0.492
1208.001	684.044	80.004	19.995	103.303	19.947	3.948	0.489
1216.000	688.043	80.002	19.995	103.302	19.942	4.292	0.501
1224.000	692.098	80.003	19.995	103.291	19.943	4.271	0.519
1232.000	696.138	80.002	19.997	103.266	19.948	3.887	0.498
1240.000	700.170	80.003	19.996	103.257	19.952	3.628	0.498
1248.000	704.240	80.003	19.996	103.226	19.957	3.322	0.489
1256.000	708.315	80.003	19.995	103.190	19.965	2.795	0.494
1264.000	712.361	80.004	19.995	103.152	19.969	2.475	0.502
1272.001	716.442	80.005	19.995	103.144	19.972	2.321	0.508
1280.000	720.478	80.004	19.996	103.130	19.978	1.912	0.488
1288.000	724.527	80.003	19.995	103.128	19.971	2.341	0.486
1296.000	728.560	80.005	19.995	103.126	19.970	2.422	0.485
1304.000	732.594	80.007	19.995	103.122	19.967	2.654	0.499
1312.001	736.561	80.003	19.995	103.129	19.969	2.522	0.502
1320.000	740.617	80.002	19.996	103.141	19.975	2.075	0.556
1326.000	743.615	80.001	19.994	103.121	19.971	2.335	0.500