Folder: fsri_materials_database/01_Data/Black_PMMA/STA/10K_min

Note: 01_Data/README.md
# Materials and Products Database
## 01_Data

Raw data generated from each apparatus are included here in plain-text format. The data is organized first by material, next by the short name of test apparatus used, and where applicable additional filtering by test settings.

### material.json

Each material directory contains a json file of the same name as the material. This file links the data stored in the repository as well as data and graphs produced by the accompanying scripts (__02_Scripts__) to the respective landing page for the material on the front-end website.

File: Black_PMMA_STA_N2_10KData_220211_R1.csv
##Temp./Â°C,Time/min,Mass(subtr.2)/%,DSC(subtr.2)/(mW/mg),Sensit./(uV/mW)
49.681,10.00917,100.213,-0.00357484,1.07517
51.781,11.11176,100.265,0.08612412,1.07407
53.881,11.46447,100.247,0.14272,1.07298
55.981,11.75061,100.247,0.17328,1.07188
58.081,12.00964,100.179,0.19588,1.07079
60.181,12.25497,100.257,0.20939,1.0697
62.281,12.49168,100.226,0.22035,1.06861
64.381,12.72498,100.192,0.22974,1.06752
66.481,12.95475,100.243,0.23622,1.06643
68.581,13.1818,100.2263,0.24176,1.06534
70.681,13.40637,100.192,0.24697,1.06425
72.781,13.62919,100.226,0.25433,1.06316
74.881,13.85099,100.2267,0.2599,1.06208
76.981,14.07032,100.227,0.26474,1.06099
79.081,14.2874,100.239,0.26952,1.05991
81.181,14.5049,100.226,0.27083,1.05882
83.281,14.71975,100.226,0.2709,1.05774
85.381,14.9336,100.239,0.26707,1.05665
87.481,15.14635,100.2,0.26899,1.05557
89.581,15.35793,100.226,0.26828,1.05449
91.681,15.5678,100.168,0.27601,1.05341
93.781,15.777,100.226,0.27582,1.05233
95.881,15.9863,100.193,0.28111,1.05125
97.981,16.1944,100.226,0.28348,1.05017
100.081,16.40198,100.218,0.28637,1.04909
102.181,16.60896,100.226,0.2912,1.04801
104.281,16.8151,100.226,0.29495,1.04694
106.381,17.0208,100.183,0.30076,1.04586
108.481,17.22629,100.166,0.30621,1.04478
110.581,17.43154,100.152,0.31262,1.04371
112.681,17.6368,100.132,0.31831,1.04264
114.781,17.84235,100.183,0.32299,1.04156
116.881,18.04721,100.199,0.33133,1.04049
118.981,18.25243,100.1325,0.33864,1.03942
121.081,18.45739,100.132,0.35063,1.03834
123.181,18.6619,100.132,0.35948,1.03727
125.281,18.86619,100.149,0.36922,1.0362
127.381,19.07011,100.133,0.37627,1.03513
129.481,19.2739,100.098,0.38477,1.03406
131.581,19.4776,100.075,0.38582,1.033
133.681,19.68049,100.088,0.38746,1.03193
135.781,19.88542,100.043,0.39149,1.03086
137.881,20.08804,100.033,0.39521,1.02979
139.981,20.29166,100.033,0.39442,1.02873
142.081,20.49527,100.058,0.39627,1.02766
144.181,20.69815,99.99181,0.39999,1.02659
146.281,20.901,99.99369,0.40239,1.02553
148.381,21.10337,99.99651,0.40588,1.02446
150.481,21.30569,99.9612,0.4098,1.0234
152.581,21.50779,99.94773,0.41292,1.02234
154.681,21.70969,99.929,0.41779,1.02127
156.781,21.9112,99.89491,0.42139,1.02021
158.881,22.11299,99.82316,0.42613,1.01915
160.981,22.3156,99.8063,0.43193,1.01809
163.081,22.51727,99.74028,0.43526,1.01703
165.181,22.71914,99.70705,0.44339,1.01596
167.281,22.92117,99.67396,0.44816,1.0149
169.381,23.12288,99.61932,0.4573,1.01384
171.481,23.3244,99.54966,0.46488,1.01278
173.581,23.52589,99.48315,0.47264,1.01172
175.681,23.7277,99.44134,0.48414,1.01066
177.781,23.92894,99.3425,0.48883,1.0096
179.881,24.1307,99.26419,0.49672,1.00854
181.981,24.3328,99.2042,0.5008,1.00748
184.081,24.5339,99.0744,0.50702,1.00643
186.181,24.7344,99.00294,0.51224,1.00537
188.281,24.93542,98.83496,0.51272,1.00431
190.381,25.13591,98.7373,0.50934,1.00325
192.481,25.33716,98.67335,0.5067,1.00219
194.581,25.53825,98.5022,0.50126,1.00113
196.681,25.73933,98.4363,0.49886,1.00008
198.781,25.94046,98.33739,0.49659,0.99902
200.881,26.14069,98.23721,0.49768,0.99796
202.981,26.34197,98.13619,0.50148,0.9969
205.081,26.5426,98.02258,0.50452,0.99584
207.181,26.74359,97.95907,0.50692,0.99479
209.281,26.94473,97.81426,0.51129,0.99373
211.381,27.14576,97.70478,0.51533,0.99267
213.481,27.34668,97.56272,0.5165,0.99161
215.581,27.54695,97.5065,0.51219,0.99055
217.681,27.74752,97.41662,0.50566,0.9895
219.781,27.94785,97.35869,0.49784,0.98844
221.881,28.1483,97.3253,0.48898,0.98738
223.981,28.34817,97.2587,0.47903,0.98632
226.081,28.5479,97.19295,0.47301,0.98526
228.181,28.74775,97.18465,0.47309,0.9842
230.281,28.94768,97.1546,0.46912,0.98314
232.381,29.1482,97.1189,0.46649,0.98208
234.481,29.3488,97.09346,0.46794,0.98102
236.581,29.5497,97.12646,0.46968,0.97996
238.681,29.7498,97.09345,0.47141,0.9789
240.781,29.95065,97.05189,0.47607,0.97783
242.881,30.151,97.02373,0.47614,0.97677
244.981,30.3514,96.95985,0.4845,0.97571
247.081,30.55214,96.96096,0.48778,0.97465
249.181,30.75232,96.96085,0.49208,0.97358
251.281,30.9527,96.94244,0.49583,0.97252
253.381,31.1532,96.88811,0.50136,0.97145
255.481,31.35302,96.80319,0.50599,0.97039
257.581,31.5537,96.80315,0.51143,0.96932
259.681,31.75416,96.77003,0.51475,0.96825
261.781,31.955,96.74595,0.51952,0.96719
263.881,32.1558,96.70607,0.5316,0.96612
265.981,32.35692,96.56851,0.5361,0.96505
268.081,32.55767,96.5022,0.54722,0.96398
270.181,32.75866,96.4688,0.55498,0.96291
272.281,32.95986,96.40094,0.56287,0.96184
274.381,33.16113,96.23507,0.57455,0.96076
276.481,33.36205,96.1622,0.58581,0.95969
278.581,33.56303,96.02813,0.59596,0.95862
280.681,33.76342,95.95148,0.60888,0.95754
282.781,33.96433,95.7964,0.61856,0.95647
284.881,34.16601,95.65879,0.62387,0.95539
286.981,34.36775,95.47195,0.63024,0.95431
289.081,34.56863,95.2883,0.64024,0.95323
291.181,34.77017,95.10061,0.65088,0.95215
293.281,34.97203,94.92529,0.6614,0.95107
295.381,35.17366,94.70668,0.66863,0.94998
297.481,35.375,94.4901,0.67671,0.9489
299.581,35.57587,94.30966,0.68273,0.94782
301.681,35.7783,94.00922,0.68974,0.94673
303.781,35.97968,93.7534,0.69575,0.94564
305.881,36.18079,93.4451,0.6847,0.94455
307.981,36.3817,93.15162,0.6679,0.94346
310.081,36.5824,92.8438,0.67462,0.94237
312.181,36.7832,92.449,0.70471,0.94128
314.281,36.9843,92.15902,0.74789,0.94018
316.381,37.18502,91.78708,0.79943,0.93909
318.481,37.38759,91.2731,0.85547,0.93799
320.581,37.5901,90.71409,0.91216,0.93689
322.681,37.7926,90.12656,0.96793,0.93579
324.781,37.99563,89.47705,1.02673,0.93468
326.881,38.19923,88.67729,1.0937,0.93358
328.981,38.40266,87.8437,1.16471,0.93247
331.081,38.607,86.84599,1.24783,0.93137
333.181,38.81136,85.68505,1.34047,0.93026
335.281,39.01542,84.44941,1.44701,0.92915
337.381,39.21949,83.0225,1.56554,0.92803
339.481,39.424,81.39046,1.69107,0.92692
341.581,39.62904,79.63298,1.82928,0.9258
343.681,39.83339,77.58397,1.96924,0.92469
345.781,40.0383,75.35087,2.11952,0.92357
347.881,40.24393,72.8787,2.26987,0.92244
349.981,40.45109,70.2124,2.41613,0.92132
352.081,40.6575,67.24518,2.55784,0.92019
354.181,40.86264,64.17134,2.68817,0.91907
356.281,41.06796,60.88469,2.80256,0.91794
358.381,41.27361,57.4196,2.89014,0.9168
360.481,41.47945,53.86029,2.94508,0.91567
362.581,41.68513,50.10281,2.96617,0.91453
364.681,41.89074,46.3824,2.94033,0.91339
366.781,42.0959,42.61481,2.8929,0.91225
368.881,42.30035,38.9527,2.85472,0.91111
370.981,42.50345,35.37793,2.79531,0.90996
373.081,42.7074,31.884,2.69619,0.90882
375.181,42.9118,28.48645,2.56819,0.90767
377.281,43.1146,25.31961,2.40633,0.90651
379.381,43.31735,22.3039,2.23995,0.90536
381.481,43.52029,19.5022,2.06865,0.9042
383.581,43.7229,16.97713,1.88815,0.90304
385.681,43.9257,14.6121,1.70473,0.90188
387.781,44.12762,12.57189,1.50584,0.90072
389.881,44.32905,10.68529,1.31313,0.89955
391.981,44.53183,9.08999,1.14978,0.89838
394.081,44.73576,7.67812,0.98761,0.89721
396.181,44.93909,6.4385,0.84872,0.89603
398.281,45.14209,5.48392,0.72217,0.89486
400.381,45.34537,4.65884,0.60481,0.89368
402.481,45.54922,3.8711,0.50619,0.89249
404.581,45.75326,3.29481,0.42008,0.89131
406.681,45.95748,2.87043,0.3457,0.89012
408.781,46.162,2.49633,0.28712,0.88893
410.881,46.36585,2.159,0.24374,0.88774
412.981,46.5691,1.93177,0.22544,0.88654
415.081,46.7731,1.71259,0.20814,0.88534
417.181,46.9778,1.54243,0.20154,0.88414
419.281,47.18205,1.444,0.19799,0.88293
421.381,47.38623,1.37631,0.19678,0.88172
423.481,47.5922,1.24422,0.17413,0.88051
425.581,47.79908,1.21058,0.1375,0.8793
427.681,48.00551,1.17865,0.10857,0.87808
429.781,48.21247,1.14435,0.07504274,0.87686
431.881,48.41985,1.11108,0.02552856,0.87564
433.981,48.6271,1.07815,-0.02827651,0.87441
436.081,48.83487,1.11307,-0.03513368,0.87318
438.181,49.04244,1.14405,0.002753334,0.87195
440.281,49.24991,1.06146,0.02266731,0.87071
442.381,49.45698,1.06135,0.033362,0.86948
444.481,49.66428,1.07788,0.03365748,0.86823
446.581,49.872,0.99529,0.03827038,0.86699
448.681,50.07901,1.01189,0.04086919,0.86574
450.781,50.28625,1.04484,0.04062655,0.86449
452.881,50.49307,1.04501,0.04140076,0.86323
454.981,50.6995,1.08554,0.04167515,0.86197
457.081,50.90639,1.04484,0.04415937,0.86071
459.181,51.11323,1.04499,0.04842007,0.85945
461.281,51.32038,1.07052,0.04641592,0.85818
463.381,51.52779,1.03642,0.0479586,0.85691
465.481,51.73467,1.0033,0.05035752,0.85563
467.581,51.94135,1.00343,0.05001058,0.85435
469.681,52.14844,1.06146,0.0517391,0.85307
471.781,52.3555,1.03261,0.05544081,0.85178
473.881,52.56196,0.99422,0.05430985,0.8505
475.981,52.7693,0.97027,0.05568156,0.8492
478.081,52.97589,1.06949,0.06233359,0.84791
480.181,53.18326,1.03638,0.0621728,0.84661
482.281,53.3902,1.01981,0.06469218,0.8453
484.381,53.59685,1.00327,0.06536764,0.844
486.481,53.8033,1.03897,0.06640643,0.84268
488.581,54.01024,1.03657,0.06749011,0.84137
490.681,54.21799,1.03646,0.07084537,0.84005
492.781,54.42606,0.97834,0.07200482,0.83873
494.881,54.6349,0.97011,0.07458045,0.8374
496.981,54.84245,1.06994,0.07261203,0.83608
499.081,55.0499,1.01233,0.07634536,0.83474
501.181,55.2587,0.97859,0.07867213,0.83341
503.281,55.46722,0.9204,0.08213958,0.83207
505.381,55.67579,0.95365,0.07882873,0.83072
507.481,55.8844,0.98691,0.08149437,0.82937
509.581,56.0924,1.01662,0.08301214,0.82802
511.681,56.30129,1.02069,0.08389375,0.82667
513.781,56.5102,0.95362,0.08924642,0.82531
515.881,56.71917,0.99521,0.09142999,0.82394
517.981,56.927,0.99496,0.09428037,0.82258
520.081,57.1348,0.99494,0.09631182,0.82121
522.181,57.3423,0.99554,0.09700366,0.81983
524.281,57.55106,0.99331,0.1006,0.81845
526.381,57.7596,1.02821,0.1017,0.81707
528.481,57.96722,0.96197,0.10557,0.81568
530.581,58.1754,0.97206,0.10961,0.81429
532.681,58.3837,0.9869,0.10931,0.8129
534.781,58.59199,0.99496,0.10895,0.8115
536.881,58.8002,0.97843,0.10929,0.8101
538.981,59.0092,1.01158,0.11074,0.80869
541.081,59.21833,0.97831,0.11076,0.80728
543.181,59.4279,1.00311,0.11389,0.80587
545.281,59.6381,0.97028,0.11262,0.80445
547.381,59.8485,0.97026,0.11414,0.80302
548.881,59.99886,0.93705,0.11372,0.80201

File: Black_PMMA_STA_N2_10KData_220214_R3.csv
##Temp./Â°C,Time/min,Mass(subtr.2)/%,DSC(subtr.2)/(mW/mg),Sensit./(uV/mW)
49.857,10.01,98.98934,-0.002161428,1.07507
51.957,11.1204,98.94221,0.08915322,1.07398
54.057,11.4697,98.91768,0.13843,1.07289
56.157,11.75533,98.86795,0.17236,1.07179
58.257,12.01293,98.90501,0.19225,1.0707
60.357,12.25804,98.89456,0.20535,1.06961
62.457,12.4969,98.90134,0.21543,1.06852
64.557,12.7297,98.85518,0.22407,1.06743
66.657,12.9582,98.9021,0.23323,1.06634
68.757,13.18326,98.90169,0.23595,1.06525
70.857,13.4099,98.83909,0.24236,1.06416
72.957,13.6328,98.8428,0.24958,1.06307
75.057,13.8546,98.83096,0.25633,1.06199
77.157,14.07368,98.80354,0.26468,1.0609
79.257,14.2927,98.80504,0.26611,1.05982
81.357,14.51077,98.77928,0.26791,1.05873
83.457,14.7264,98.8083,0.2645,1.05765
85.557,14.94079,98.77226,0.26534,1.05656
87.657,15.15501,98.77232,0.26471,1.05548
89.757,15.36706,98.73909,0.26537,1.0544
91.857,15.57824,98.70572,0.26719,1.05332
93.957,15.788,98.70549,0.26843,1.05224
96.057,15.99744,98.70557,0.27361,1.05116
98.157,16.20588,98.6707,0.27635,1.05008
100.257,16.41349,98.67307,0.28102,1.049
102.357,16.62193,98.63856,0.28421,1.04792
104.457,16.82872,98.63899,0.28633,1.04685
106.557,17.03496,98.61886,0.29354,1.04577
108.657,17.2406,98.6395,0.29667,1.04469
110.757,17.4462,98.63848,0.30212,1.04362
112.857,17.65136,98.57443,0.30658,1.04255
114.957,17.857,98.57183,0.313,1.04147
117.057,18.06221,98.63931,0.3185,1.0404
119.157,18.2671,98.5712,0.32951,1.03933
121.257,18.47168,98.5373,0.33798,1.03826
123.357,18.67584,98.50508,0.34985,1.03718
125.457,18.8808,98.50508,0.35767,1.03611
127.557,19.08598,98.49633,0.36553,1.03504
129.657,19.29006,98.46321,0.37099,1.03397
131.757,19.4943,98.44166,0.37696,1.03291
133.857,19.69855,98.4383,0.37952,1.03184
135.957,19.9026,98.4036,0.38289,1.03077
138.057,20.10574,98.40491,0.38634,1.0297
140.157,20.30861,98.3632,0.39087,1.02864
142.257,20.51153,98.3632,0.39218,1.02757
144.357,20.71438,98.32969,0.39368,1.0265
146.457,20.9159,98.3048,0.39686,1.02544
148.557,21.11828,98.2872,0.39854,1.02438
150.657,21.3218,98.25458,0.40039,1.02331
152.757,21.524,98.22958,0.40527,1.02225
154.857,21.72629,98.1876,0.41017,1.02118
156.957,21.92659,98.14681,0.41783,1.02012
159.057,22.1289,98.09594,0.42267,1.01906
161.157,22.33096,98.0624,0.42882,1.018
163.257,22.53256,98.02409,0.43496,1.01694
165.357,22.73477,97.96243,0.44213,1.01587
167.457,22.93553,97.92031,0.45095,1.01481
169.557,23.13759,97.8871,0.45647,1.01375
171.657,23.33964,97.7871,0.46612,1.01269
173.757,23.5413,97.72036,0.47418,1.01163
175.857,23.7423,97.58445,0.48359,1.01057
177.957,23.94306,97.48669,0.49313,1.00951
180.057,24.1448,97.4383,0.49945,1.00846
182.157,24.34676,97.30234,0.5026,1.0074
184.257,24.5474,97.20158,0.50463,1.00634
186.357,24.749,97.06836,0.50441,1.00528
188.457,24.95059,96.95119,0.50472,1.00422
190.557,25.15117,96.83367,0.50276,1.00316
192.657,25.35182,96.70104,0.49761,1.0021
194.757,25.55211,96.56182,0.49364,1.00105
196.857,25.75244,96.4947,0.48936,0.99999
198.957,25.95222,96.366,0.48458,0.99893
201.057,26.15276,96.23351,0.48302,0.99787
203.157,26.3539,96.1249,0.48439,0.99681
205.257,26.55453,96.02469,0.48579,0.99576
207.357,26.75576,95.95761,0.48622,0.9947
209.457,26.95679,95.8241,0.48966,0.99364
211.557,27.15718,95.72304,0.49259,0.99258
213.657,27.35786,95.58933,0.49009,0.99152
215.757,27.55817,95.51342,0.48911,0.99047
217.857,27.7591,95.42347,0.48504,0.98941
219.957,27.9589,95.38983,0.47692,0.98835
222.057,28.15949,95.32305,0.46734,0.98729
224.157,28.36008,95.28952,0.45728,0.98623
226.257,28.56052,95.23122,0.45653,0.98517
228.357,28.7607,95.23122,0.45259,0.98411
230.457,28.9617,95.16497,0.45314,0.98305
232.557,29.16175,95.1505,0.45109,0.98199
234.657,29.3618,95.14865,0.45289,0.98093
236.757,29.5622,95.15051,0.45463,0.97987
238.857,29.76223,95.11726,0.45384,0.97881
240.957,29.9624,95.10025,0.45673,0.97775
243.057,30.16293,95.0586,0.45887,0.97668
245.157,30.3626,95.0567,0.46096,0.97562
247.257,30.56336,94.99744,0.46399,0.97456
249.357,30.76411,94.96675,0.46316,0.97349
251.457,30.9648,94.9323,0.46513,0.97243
253.557,31.16566,94.9335,0.4691,0.97136
255.657,31.367,94.89693,0.47116,0.9703
257.757,31.5679,94.8665,0.47467,0.96923
259.857,31.76894,94.79947,0.47933,0.96816
261.957,31.97017,94.783,0.48315,0.9671
264.057,32.17138,94.74932,0.48915,0.96603
266.157,32.37358,94.64926,0.49576,0.96496
268.257,32.57509,94.61831,0.50264,0.96389
270.357,32.77637,94.57463,0.50821,0.96282
272.457,32.97786,94.47402,0.51542,0.96175
274.557,33.1802,94.34061,0.52635,0.96067
276.657,33.3815,94.3069,0.53616,0.9596
278.757,33.5832,94.15695,0.54668,0.95853
280.857,33.7847,94.04935,0.55845,0.95745
282.957,33.98601,93.98405,0.56991,0.95637
285.057,34.18727,93.81649,0.57753,0.9553
287.157,34.38842,93.7058,0.58772,0.95422
289.257,34.58925,93.49951,0.59445,0.95314
291.357,34.79047,93.31851,0.60205,0.95206
293.457,34.99208,93.11359,0.60689,0.95098
295.557,35.19327,92.89604,0.61172,0.94989
297.657,35.39533,92.63291,0.61342,0.94881
299.757,35.59703,92.4589,0.61433,0.94772
301.857,35.7985,92.20921,0.61622,0.94664
303.957,35.99982,91.91059,0.62725,0.94555
306.057,36.20146,91.66382,0.63961,0.94446
308.157,36.40317,91.40315,0.65539,0.94337
310.257,36.60552,91.07305,0.67279,0.94228
312.357,36.80784,90.76103,0.69419,0.94118
314.457,37.00997,90.37059,0.7162,0.94009
316.557,37.2125,89.97922,0.7482,0.93899
318.657,37.41434,89.5566,0.78703,0.9379
320.757,37.61593,89.01556,0.82983,0.9368
322.857,37.8187,88.4246,0.87837,0.93569
324.957,38.0212,87.8004,0.93301,0.93459
327.057,38.2237,87.03081,1.00096,0.93349
329.157,38.4264,86.22357,1.07472,0.93238
331.257,38.6289,85.2384,1.15709,0.93127
333.357,38.83171,84.1829,1.25332,0.93017
335.457,39.03492,82.91035,1.35845,0.92905
337.557,39.2386,81.44784,1.47953,0.92794
339.657,39.44311,79.83941,1.60713,0.92683
341.757,39.64768,77.9795,1.74347,0.92571
343.857,39.85269,75.95832,1.89062,0.92459
345.957,40.05807,73.76039,2.04191,0.92347
348.057,40.26368,71.27395,2.19802,0.92235
350.157,40.46967,68.56367,2.34725,0.92123
352.257,40.67584,65.60163,2.4931,0.9201
354.357,40.8826,62.43124,2.6304,0.91897
356.457,41.08876,59.0515,2.74689,0.91784
358.557,41.2949,55.52202,2.84958,0.91671
360.657,41.5009,51.853,2.91217,0.91557
362.757,41.70613,48.10419,2.94978,0.91444
364.857,41.91087,44.27469,2.93258,0.9133
366.957,42.11541,40.47095,2.87247,0.91216
369.057,42.3196,36.6975,2.86755,0.91101
371.157,42.52285,32.97415,2.81347,0.90987
373.257,42.72622,29.37087,2.69565,0.90872
375.357,42.92935,25.90085,2.55844,0.90757
377.457,43.13172,22.63938,2.38779,0.90642
379.557,43.33385,19.6429,2.20376,0.90526
381.657,43.53608,16.84522,2.0099,0.90411
383.757,43.73729,14.2688,1.82107,0.90295
385.857,43.9388,11.94383,1.63476,0.90178
387.957,44.14012,9.90618,1.45012,0.90062
390.057,44.34193,8.07305,1.26098,0.89945
392.157,44.5441,6.45366,1.09674,0.89828
394.257,44.7468,5.11176,0.94047,0.89711
396.357,44.94989,3.86648,0.79906,0.89594
398.457,45.1534,2.83288,0.67072,0.89476
400.557,45.35717,1.97788,0.55699,0.89358
402.657,45.56143,1.28274,0.45731,0.89239
404.757,45.76533,0.65649,0.37478,0.89121
406.857,45.96997,0.22494,0.30287,0.89002
408.957,46.17445,-0.19118,0.24194,0.88883
411.057,46.37941,-0.52565,0.19641,0.88764
413.157,46.5839,-0.77136,0.15516,0.88644
415.257,46.7885,-0.99758,0.11987,0.88524
417.357,46.9931,-1.09895,0.09537085,0.88404
419.457,47.1978,-1.27639,0.08000071,0.88283
421.557,47.40262,-1.41483,0.06143889,0.88162
423.657,47.6077,-1.48156,0.05267375,0.88041
425.757,47.81264,-1.50641,0.04874795,0.8792
427.857,48.01775,-1.58158,0.04531781,0.87798
429.957,48.22306,-1.62144,0.04938001,0.87676
432.057,48.42771,-1.67141,0.04730705,0.87554
434.157,48.63342,-1.64845,0.04088245,0.87431
436.257,48.84018,-1.64068,0.02500726,0.87308
438.357,49.04668,-1.70747,0.001601411,0.87185
440.457,49.25391,-1.74079,-0.03022671,0.87061
442.557,49.4606,-1.75736,-0.03230901,0.86937
444.657,49.66814,-1.70649,-0.01322493,0.86813
446.757,49.87575,-1.72124,0.002001428,0.86688
448.857,50.0829,-1.70736,0.01611656,0.86563
450.957,50.28877,-1.70736,0.02487135,0.86438
453.057,50.49596,-1.78527,0.03080448,0.86313
455.157,50.7025,-1.75162,0.02667677,0.86187
457.257,50.9085,-1.71839,0.02463341,0.86061
459.357,51.11428,-1.71889,0.02785164,0.85934
461.457,51.32131,-1.76025,0.02987601,0.85807
463.557,51.52798,-1.65705,0.03091257,0.8568
465.657,51.73502,-1.72613,0.03373003,0.85552
467.757,51.94168,-1.69047,0.03250193,0.85425
469.857,52.14845,-1.75763,0.03541884,0.85296
471.957,52.35585,-1.75736,0.03625421,0.85168
474.057,52.5633,-1.73187,0.03754407,0.85039
476.157,52.77055,-1.73212,0.03407056,0.84909
478.257,52.9779,-1.73252,0.03646851,0.8478
480.357,53.1862,-1.76526,0.03617391,0.8465
482.457,53.39369,-1.73248,0.03533138,0.84519
484.557,53.6013,-1.73287,0.04033785,0.84389
486.657,53.80895,-1.76579,0.04110871,0.84257
488.757,54.01679,-1.70736,0.04311095,0.84126
490.857,54.22429,-1.699,0.04328504,0.83994
492.957,54.4317,-1.73246,0.04544067,0.83862
495.057,54.6383,-1.69898,0.04509924,0.83729
497.157,54.84632,-1.69898,0.04741477,0.83596
499.257,55.0557,-1.70028,0.04768286,0.83463
501.357,55.26481,-1.66548,0.04735851,0.83329
503.457,55.4739,-1.7156,0.04782461,0.83195
505.557,55.6812,-1.71462,0.04939726,0.83061
507.657,55.8899,-1.72405,0.05484961,0.82926
509.757,56.0989,-1.6822,0.05211631,0.82791
511.857,56.30761,-1.68223,0.05533105,0.82655
513.957,56.51534,-1.70742,0.0575035,0.82519
516.057,56.72311,-1.70736,0.05989353,0.82383
518.157,56.9314,-1.70735,0.06003745,0.82246
520.257,57.13925,-1.68249,0.06358946,0.82109
522.357,57.348,-1.68249,0.06489904,0.81972
524.457,57.5564,-1.70188,0.06509237,0.81834
526.557,57.76505,-1.68751,0.06883441,0.81695
528.657,57.9738,-1.73224,0.06790252,0.81557
530.757,58.18309,-1.71514,0.07027651,0.81418
532.857,58.39176,-1.73634,0.07152813,0.81278
534.957,58.60125,-1.66547,0.07285973,0.81138
537.057,58.8101,-1.68223,0.07147843,0.80998
539.157,59.01888,-1.69899,0.07336553,0.80857
541.257,59.22674,-1.72411,0.07360932,0.80716
543.357,59.43654,-1.69896,0.07452063,0.80575
545.457,59.6464,-1.72331,0.07413481,0.80433
547.557,59.8562,-1.69898,0.07705659,0.80291
548.957,59.99675,-1.69898,0.07306539,0.80195