Folder: fsri_materials_database/01_Data/Black_PMMA/STA/30K_min

Note: 01_Data/README.md
# Materials and Products Database
## 01_Data

Raw data generated from each apparatus are included here in plain-text format. The data is organized first by material, next by the short name of test apparatus used, and where applicable additional filtering by test settings.

### material.json

Each material directory contains a json file of the same name as the material. This file links the data stored in the repository as well as data and graphs produced by the accompanying scripts (__02_Scripts__) to the respective landing page for the material on the front-end website.

File: Black_PMMA_STA_N2_30KData_220214_R1.csv
##Temp./Â°C,Time/min,DSC(subtr.2)/(mW/mg),Mass(subtr.2)/%,Sensit./(uV/mW)
48.949,10.00917,0.001380782,99.23818,1.08876
51.049,10.759,0.12079,99.23259,1.08699
53.149,10.9541,0.21176,99.2475,1.08523
55.249,11.0986,0.28411,99.27605,1.08348
57.349,11.2211,0.34374,99.2386,1.08173
59.449,11.32958,0.40006,99.23014,1.07999
61.549,11.4305,0.44703,99.19564,1.07826
63.649,11.52453,0.48881,99.23659,1.07653
65.749,11.61394,0.52773,99.20917,1.07482
67.849,11.70012,0.56442,99.2218,1.07311
69.949,11.7836,0.59614,99.20959,1.07141
72.049,11.8653,0.62704,99.20631,1.06971
74.149,11.9449,0.65637,99.23524,1.06803
76.249,12.02341,0.68255,99.29276,1.06635
78.349,12.1008,0.70903,99.26313,1.06468
80.449,12.17698,0.7362,99.2337,1.06301
82.549,12.25178,0.75919,99.20099,1.06136
84.649,12.32723,0.77554,99.27035,1.05971
86.749,12.40063,0.7881,99.23346,1.05807
88.849,12.47367,0.7925,99.23925,1.05644
90.949,12.54693,0.79348,99.2821,1.05481
93.049,12.6191,0.79578,99.26504,1.05319
95.149,12.69103,0.80166,99.28315,1.05158
97.249,12.7627,0.8068,99.28191,1.04998
99.349,12.83393,0.81625,99.2428,1.04838
101.449,12.9051,0.82625,99.2158,1.04679
103.549,12.97616,0.83246,99.23262,1.04521
105.649,13.04701,0.84542,99.24858,1.04364
107.749,13.1177,0.85714,99.24919,1.04207
109.849,13.1886,0.86983,99.24908,1.04051
111.949,13.2587,0.88244,99.24067,1.03896
114.049,13.3292,0.89682,99.2409,1.03742
116.149,13.3995,0.9117,99.21667,1.03588
118.249,13.46962,0.92849,99.2165,1.03435
120.349,13.53956,0.94932,99.23357,1.03283
122.449,13.6095,0.97273,99.21651,1.03131
124.549,13.679,0.99517,99.1845,1.0298
126.649,13.7483,1.02372,99.18451,1.0283
128.749,13.81753,1.04955,99.20385,1.02681
130.849,13.88619,1.07379,99.18485,1.02532
132.949,13.955,1.08972,99.2161,1.02384
135.049,14.0236,1.10943,99.18424,1.02237
137.149,14.0919,1.12662,99.18424,1.0209
139.249,14.16,1.1366,99.15165,1.01944
141.349,14.22795,1.15047,99.15172,1.01799
143.449,14.29558,1.16399,99.15177,1.01654
145.549,14.36316,1.17452,99.13678,1.0151
147.649,14.43043,1.1851,99.11946,1.01367
149.749,14.4976,1.19254,99.09872,1.01225
151.849,14.56445,1.2048,99.08699,1.01083
153.949,14.63134,1.21435,99.06028,1.00942
156.049,14.6981,1.2239,99.02189,1.00801
158.149,14.76455,1.23632,98.98829,1.00661
160.249,14.83121,1.24748,98.9894,1.00522
162.349,14.89751,1.25985,98.9894,1.00384
164.449,14.96369,1.27075,98.98912,1.00246
166.549,15.03004,1.2859,98.9572,1.00108
168.649,15.09622,1.29917,98.92491,0.99972
170.749,15.16208,1.31542,98.869,0.99836
172.849,15.22785,1.33263,98.82749,0.99701
174.949,15.29355,1.34878,98.80269,0.99566
177.049,15.35909,1.37091,98.76267,0.99432
179.149,15.4246,1.39341,98.73017,0.99298
181.249,15.4898,1.4143,98.6977,0.99165
183.349,15.55505,1.43859,98.6897,0.99033
185.449,15.6203,1.46339,98.6644,0.98901
187.549,15.68511,1.48593,98.57749,0.9877
189.649,15.7498,1.51058,98.50698,0.9864
191.749,15.8146,1.53027,98.37747,0.9851
193.849,15.8793,1.54721,98.2925,0.98381
195.949,15.94375,1.56501,98.20909,0.98252
198.049,16.00814,1.57521,98.13895,0.98124
200.149,16.07253,1.58241,98.06595,0.97996
202.249,16.13692,1.58992,97.91225,0.97869
204.349,16.20114,1.5916,97.81891,0.97743
206.449,16.26539,1.58761,97.6865,0.97617
208.549,16.3296,1.58534,97.5698,0.97491
210.649,16.3937,1.5847,97.4596,0.97367
212.749,16.458,1.58186,97.38171,0.97242
214.849,16.52209,1.58317,97.3018,0.97119
216.949,16.5861,1.58605,97.2367,0.96995
219.049,16.65001,1.59155,97.08375,0.96873
221.149,16.71395,1.60111,97.01864,0.9675
223.249,16.7777,1.61151,96.89346,0.96629
225.349,16.84171,1.62168,96.81777,0.96507
227.449,16.90555,1.63257,96.70948,0.96387
229.549,16.96947,1.64204,96.6365,0.96266
231.649,17.03339,1.64613,96.52851,0.96147
233.749,17.09713,1.64686,96.42562,0.96027
235.849,17.1608,1.64169,96.3219,0.95909
237.949,17.22438,1.63236,96.2337,0.9579
240.049,17.28792,1.61235,96.15741,0.95672
242.149,17.3513,1.59403,96.08751,0.95555
244.249,17.41522,1.57501,96.02569,0.95438
246.349,17.47896,1.56002,95.97983,0.95321
248.449,17.54244,1.54756,95.94753,0.95205
250.549,17.60604,1.53906,95.91543,0.95089
252.649,17.6697,1.5338,95.91456,0.94974
254.749,17.7331,1.52835,95.8827,0.94859
256.849,17.7968,1.52777,95.8496,0.94745
258.949,17.86027,1.52629,95.84925,0.94631
261.049,17.9239,1.52705,95.8199,0.94517
263.149,17.9875,1.53441,95.7803,0.94404
265.249,18.05094,1.53871,95.75296,0.94291
267.349,18.11441,1.54456,95.7553,0.94178
269.449,18.178,1.55041,95.72044,0.94066
271.549,18.24169,1.55838,95.72025,0.93954
273.649,18.30529,1.5657,95.6557,0.93843
275.749,18.36891,1.57574,95.65594,0.93732
277.849,18.43253,1.58612,95.59498,0.93621
279.949,18.49621,1.60043,95.54955,0.93511
282.049,18.55987,1.61192,95.50315,0.934
284.149,18.62343,1.62855,95.43575,0.93291
286.249,18.68719,1.64618,95.3518,0.93181
288.349,18.75088,1.66207,95.28349,0.93072
290.449,18.81457,1.68046,95.19145,0.92963
292.549,18.87835,1.70322,95.12316,0.92854
294.649,18.9421,1.72563,95.02598,0.92746
296.749,19.0058,1.75764,94.91826,0.92638
298.849,19.06922,1.79755,94.82372,0.9253
300.949,19.13289,1.83474,94.6651,0.92423
303.049,19.19664,1.86861,94.50009,0.92316
305.149,19.26037,1.89666,94.32339,0.92209
307.249,19.3242,1.92596,94.14909,0.92102
309.349,19.38815,1.9492,93.9568,0.91995
311.449,19.45191,1.97115,93.7887,0.91889
313.549,19.51579,1.99391,93.60462,0.91783
315.649,19.5798,2.0201,93.43562,0.91677
317.749,19.6437,2.0426,93.17099,0.91571
319.849,19.70753,2.06687,92.94949,0.91466
321.949,19.7714,2.09174,92.71913,0.91361
324.049,19.8354,2.12306,92.42255,0.91256
326.149,19.89945,2.15869,92.1558,0.91151
328.249,19.9634,2.21026,91.87931,0.91046
330.349,20.0275,2.27117,91.53665,0.90941
332.449,20.09144,2.35695,91.14956,0.90837
334.549,20.1556,2.45636,90.7212,0.90733
336.649,20.2198,2.57193,90.25117,0.90628
338.749,20.2842,2.70799,89.69445,0.90524
340.849,20.3486,2.86077,89.07552,0.90421
342.949,20.41307,3.036,88.4314,0.90317
345.049,20.4775,3.23376,87.6293,0.90213
347.149,20.5422,3.45572,86.76655,0.9011
349.249,20.60691,3.70376,85.72578,0.90006
351.349,20.67184,3.98029,84.5861,0.89903
353.449,20.73674,4.27869,83.34346,0.89799
355.549,20.8018,4.60277,81.9123,0.89696
357.649,20.8671,4.95906,80.2231,0.89593
359.749,20.93236,5.33188,78.482,0.8949
361.849,20.99784,5.72892,76.49978,0.89387
363.949,21.06343,6.13536,74.29047,0.89284
366.049,21.12905,6.54573,71.96132,0.89181
368.149,21.19484,6.95931,69.31151,0.89078
370.249,21.2608,7.35333,66.59956,0.88975
372.349,21.3267,7.72322,63.6654,0.88873
374.449,21.39259,8.03921,60.4111,0.8877
376.549,21.4587,8.29203,57.1639,0.88667
378.649,21.5248,8.51428,53.7066,0.88564
380.749,21.5908,8.65982,50.02425,0.88461
382.849,21.65699,8.7708,46.5651,0.88358
384.949,21.72286,8.8318,42.92814,0.88255
387.049,21.78857,8.81441,39.1419,0.88152
389.149,21.85424,8.68899,35.63646,0.8805
391.249,21.91984,8.48799,31.9941,0.87946
393.349,21.9852,8.18454,28.44762,0.87843
395.449,22.05048,7.78388,25.18046,0.8774
397.549,22.1156,7.2959,21.94285,0.87637
399.649,22.1804,6.76314,19.02427,0.87534
401.749,22.2451,6.20731,16.31638,0.87431
403.849,22.30965,5.62251,13.8006,0.87327
405.949,22.374,5.04789,11.6432,0.87224
408.049,22.43855,4.46332,9.68252,0.8712
410.149,22.50275,3.90679,7.95406,0.87016
412.249,22.56702,3.41337,6.47318,0.86912
414.349,22.6312,2.95186,5.15166,0.86808
416.449,22.6954,2.52379,4.04599,0.86704
418.549,22.75966,2.12994,3.09804,0.866
420.649,22.82398,1.77545,2.34922,0.86496
422.749,22.88849,1.46477,1.69937,0.86391
424.849,22.95297,1.20174,1.17727,0.86287
426.949,23.01742,0.97807,0.79225,0.86182
429.049,23.0822,0.79376,0.45303,0.86077
431.149,23.14705,0.64515,0.19337,0.85972
433.249,23.2121,0.52323,-0.05245314,0.85866
435.349,23.27713,0.42619,-0.18044,0.85761
437.449,23.34241,0.3496,-0.32676,0.85655
439.549,23.40776,0.29116,-0.42504,0.85549
441.649,23.47318,0.24896,-0.48725,0.85443
443.749,23.53817,0.2306,-0.51962,0.85337
445.849,23.60342,0.23011,-0.59179,0.8523
447.949,23.66885,0.23791,-0.62754,0.85123
450.049,23.7346,0.24156,-0.66011,0.85016
452.149,23.8006,0.21758,-0.69459,0.84909
454.249,23.867,0.17217,-0.72488,0.84802
456.349,23.9335,0.10044,-0.75949,0.84694
458.449,24.00009,0.02572083,-0.75715,0.84586
460.549,24.0668,0.01631142,-0.73774,0.84478
462.649,24.1334,0.04954984,-0.73279,0.84369
464.749,24.2,0.0924334,-0.76526,0.8426
466.849,24.26666,0.12546,-0.76543,0.84151
468.949,24.3333,0.14616,-0.73272,0.84042
471.049,24.4,0.16034,-0.70065,0.83932
473.149,24.4668,0.16137,-0.76596,0.83823
475.249,24.5337,0.16379,-0.76513,0.83712
477.349,24.60039,0.16149,-0.79783,0.83602
479.449,24.66718,0.16657,-0.76529,0.83491
481.549,24.73418,0.16553,-0.76528,0.8338
483.649,24.80106,0.16913,-0.76528,0.83268
485.749,24.86816,0.16818,-0.78741,0.83156
487.849,24.93509,0.1738,-0.79781,0.83044
489.949,25.00197,0.17277,-0.80802,0.82932
492.049,25.069,0.17652,-0.79778,0.82819
494.149,25.13597,0.17801,-0.79778,0.82706
496.249,25.20305,0.18006,-0.79915,0.82592
498.349,25.27032,0.18091,-0.78153,0.82478
500.449,25.33756,0.18172,-0.76508,0.82364
502.549,25.40479,0.18574,-0.76528,0.82249
504.649,25.47214,0.18924,-0.76521,0.82134
506.749,25.53941,0.19279,-0.74088,0.82019
508.849,25.60689,0.19579,-0.77671,0.81903
510.949,25.67411,0.19818,-0.81132,0.81787
513.049,25.74126,0.19722,-0.84373,0.81671
515.149,25.80855,0.20191,-0.80852,0.81554
517.249,25.87598,0.20114,-0.84607,0.81436
519.349,25.9436,0.20499,-0.87907,0.81319
521.449,26.01098,0.20737,-0.84648,0.812
523.549,26.07874,0.20876,-0.81438,0.81082
525.649,26.14634,0.21283,-0.81404,0.80963
527.749,26.21404,0.21276,-0.81373,0.80843
529.849,26.28175,0.21714,-0.78155,0.80723
531.949,26.3495,0.21706,-0.78153,0.80603
534.049,26.41746,0.22027,-0.79887,0.80482
536.149,26.4853,0.22197,-0.79782,0.80361
538.249,26.553,0.22194,-0.79778,0.8024
540.349,26.6212,0.22394,-0.79872,0.80117
541.649,26.66347,0.2263,-0.76531,0.80042

File: Black_PMMA_STA_N2_30KData_220214_R2.csv
##Temp./Â°C,Time/min,DSC(subtr.2)/(mW/mg),Mass(subtr.2)/%,Sensit./(uV/mW)
48.906,10.01,-0.004797188,99.43423,1.0888
51.006,10.76592,0.10615,99.36475,1.08703
53.106,10.95764,0.1934,99.32698,1.08527
55.206,11.1019,0.26411,99.3617,1.08351
57.306,11.2232,0.32657,99.32427,1.08176
59.406,11.33163,0.37902,99.34128,1.08003
61.506,11.43126,0.42466,99.30722,1.07829
63.606,11.52468,0.46659,99.31505,1.07657
65.706,11.6144,0.50069,99.31153,1.07485
67.806,11.70016,0.53421,99.31092,1.07314
69.906,11.78351,0.5652,99.3253,1.07144
72.006,11.86458,0.59108,99.32091,1.06975
74.106,11.94438,0.61818,99.35149,1.06806
76.206,12.0229,0.64131,99.36555,1.06638
78.306,12.0999,0.66431,99.3216,1.06471
80.406,12.1761,0.68708,99.33105,1.06305
82.506,12.2514,0.70774,99.36299,1.06139
84.606,12.32602,0.72194,99.3591,1.05974
86.706,12.40012,0.73199,99.36999,1.0581
88.806,12.4733,0.73333,99.3334,1.05647
90.906,12.54595,0.73113,99.33827,1.05484
93.006,12.61838,0.7361,99.3222,1.05323
95.106,12.69031,0.7381,99.29443,1.05161
97.206,12.76184,0.74087,99.26473,1.05001
99.306,12.83335,0.74853,99.32042,1.04841
101.406,12.90446,0.7542,99.29734,1.04683
103.506,12.97537,0.76501,99.3199,1.04524
105.606,13.04646,0.77335,99.301,1.04367
107.706,13.11721,0.78261,99.30946,1.0421
109.806,13.188,0.79399,99.29807,1.04054
111.906,13.2586,0.80612,99.29646,1.03899
114.006,13.3291,0.81972,99.2867,1.03745
116.106,13.3996,0.83446,99.26259,1.03591
118.206,13.4698,0.84972,99.23903,1.03438
120.306,13.5399,0.86705,99.2303,1.03286
122.406,13.6099,0.88804,99.23018,1.03134
124.506,13.67942,0.91109,99.26258,1.02983
126.606,13.7489,0.93409,99.23063,1.02833
128.706,13.81809,0.95666,99.23043,1.02684
130.806,13.8873,0.97875,99.2626,1.02535
132.906,13.95615,0.99665,99.26259,1.02387
135.006,14.02471,1.01127,99.26259,1.0224
137.106,14.0929,1.02725,99.26205,1.02093
139.206,14.1613,1.04159,99.2303,1.01947
141.306,14.22925,1.04967,99.2217,1.01802
143.406,14.29689,1.05992,99.22225,1.01657
145.506,14.36459,1.07236,99.21659,1.01513
147.606,14.4324,1.08145,99.15818,1.0137
149.706,14.4996,1.09043,99.15809,1.01228
151.806,14.56686,1.09933,99.0936,1.01086
153.906,14.6341,1.10805,99.0847,1.00945
156.006,14.70099,1.11729,99.0855,1.00804
158.106,14.76767,1.12715,99.06314,1.00664
160.206,14.83469,1.13836,99.03456,1.00525
162.306,14.9011,1.14697,99.02925,1.00386
164.406,14.9677,1.16045,99.00265,1.00249
166.506,15.03406,1.17135,98.9468,1.00111
168.606,15.10012,1.18783,98.90049,0.99975
170.706,15.16641,1.20207,98.90045,0.99839
172.806,15.2326,1.21902,98.86848,0.99703
174.906,15.29835,1.2393,98.83614,0.99569
177.006,15.36409,1.25977,98.80291,0.99434
179.106,15.4299,1.28055,98.8044,0.99301
181.206,15.4953,1.3026,98.74162,0.99168
183.306,15.5606,1.32459,98.66735,0.99036
185.406,15.6257,1.35176,98.59536,0.98904
187.506,15.69081,1.37468,98.48725,0.98773
189.606,15.75569,1.39563,98.3629,0.98643
191.706,15.82049,1.41495,98.30128,0.98513
193.806,15.88515,1.4309,98.225,0.98383
195.906,15.9497,1.44441,98.09951,0.98255
198.006,16.01419,1.45635,97.9586,0.98126
200.106,16.07881,1.45991,97.84164,0.97999
202.206,16.14326,1.46179,97.75185,0.97872
204.306,16.2076,1.45998,97.6637,0.97745
206.406,16.27175,1.45761,97.5017,0.97619
208.506,16.3359,1.45022,97.41072,0.97494
210.606,16.39998,1.44411,97.31838,0.97369
212.706,16.46433,1.43964,97.22619,0.97245
214.806,16.5283,1.43933,97.1217,0.97121
216.906,16.59234,1.44032,96.9632,0.96998
219.006,16.6563,1.44573,96.89256,0.96875
221.106,16.72014,1.45466,96.80604,0.96753
223.206,16.78406,1.46506,96.708,0.96631
225.306,16.84797,1.47494,96.63894,0.9651
227.406,16.9117,1.48324,96.55127,0.96389
229.506,16.97534,1.48973,96.4376,0.96269
231.606,17.03923,1.49626,96.34139,0.96149
233.706,17.1031,1.49322,96.20249,0.9603
235.806,17.16675,1.4845,96.10911,0.95911
237.906,17.23036,1.47338,96.039,0.95793
240.006,17.294,1.45213,95.96389,0.95675
242.106,17.35764,1.43004,95.92392,0.95557
244.206,17.42128,1.41096,95.85601,0.9544
246.306,17.48488,1.39261,95.8242,0.95324
248.406,17.54833,1.38029,95.76039,0.95208
250.506,17.6118,1.36923,95.72775,0.95092
252.606,17.6753,1.36625,95.72787,0.94977
254.706,17.7389,1.36009,95.72769,0.94862
256.806,17.8023,1.3604,95.69587,0.94747
258.906,17.866,1.35852,95.69584,0.94633
261.006,17.9295,1.36351,95.70357,0.94519
263.106,17.99292,1.36403,95.69659,0.94406
265.206,18.05627,1.3713,95.63603,0.94293
267.306,18.11981,1.37574,95.5939,0.94181
269.406,18.1832,1.38223,95.5591,0.94068
271.506,18.24675,1.38806,95.52808,0.93957
273.606,18.31028,1.39873,95.49465,0.93845
275.706,18.37366,1.41081,95.42268,0.93734
277.806,18.4367,1.41625,95.36108,0.93623
279.906,18.5004,1.4293,95.3284,0.93513
282.006,18.56425,1.44372,95.29279,0.93403
284.106,18.62795,1.45532,95.22097,0.93293
286.206,18.6913,1.4698,95.17623,0.93183
288.306,18.75459,1.48448,95.08354,0.93074
290.406,18.81804,1.50628,95.01038,0.92965
292.506,18.8816,1.53056,94.89623,0.92857
294.606,18.9453,1.55681,94.79924,0.92748
296.706,19.0088,1.58908,94.64138,0.9264
298.806,19.0726,1.61997,94.5526,0.92533
300.906,19.1362,1.64629,94.41666,0.92425
303.006,19.2,1.67388,94.27967,0.92318
305.106,19.26379,1.69948,94.12365,0.92211
307.206,19.3275,1.72541,93.9575,0.92104
309.306,19.3913,1.74703,93.78299,0.91997
311.406,19.45526,1.77034,93.58196,0.91891
313.506,19.5191,1.79425,93.36718,0.91785
315.606,19.5828,1.81234,93.15778,0.91679
317.706,19.64687,1.83515,92.9379,0.91574
319.806,19.711,1.85586,92.67519,0.91468
321.906,19.77487,1.88137,92.43387,0.91363
324.006,19.83879,1.91122,92.18129,0.91258
326.106,19.90286,1.95148,91.88129,0.91153
328.206,19.96687,1.99971,91.5685,0.91048
330.306,20.0309,2.05661,91.21861,0.90943
332.406,20.095,2.1312,90.81004,0.90839
334.506,20.15921,2.21966,90.3695,0.90735
336.606,20.22356,2.32206,89.94201,0.90631
338.706,20.28787,2.44274,89.3918,0.90527
340.806,20.35226,2.5806,88.797,0.90423
342.906,20.4166,2.73785,88.10015,0.90319
345.006,20.48114,2.91893,87.27088,0.90215
347.106,20.54584,3.12654,86.36315,0.90112
349.206,20.61007,3.35494,85.32688,0.90008
351.306,20.67491,3.6131,84.19,0.89905
353.406,20.74026,3.89781,82.94123,0.89802
355.506,20.80548,4.20602,81.53949,0.89698
357.606,20.8707,4.53716,79.94162,0.89595
359.706,20.9361,4.88412,78.15395,0.89492
361.806,21.00143,5.24934,76.14149,0.89389
363.906,21.06713,5.62943,74.04866,0.89286
366.006,21.13285,6.0166,71.74039,0.89183
368.106,21.1986,6.40004,69.10875,0.8908
370.206,21.26468,6.77798,66.43722,0.88977
372.306,21.3306,7.11713,63.4657,0.88875
374.406,21.39649,7.4031,60.2943,0.88772
376.506,21.46291,7.64146,57.1262,0.88669
378.606,21.529,7.82887,53.6981,0.88566
380.706,21.59506,7.99892,50.192,0.88463
382.806,21.6612,8.08156,46.76607,0.8836
384.906,21.7272,8.05328,43.1281,0.88257
387.006,21.793,7.98078,39.5725,0.88155
389.106,21.8588,7.97841,36.11175,0.88052
391.206,21.92445,7.71358,32.52941,0.87949
393.306,21.99002,7.56604,29.20707,0.87846
395.406,22.05546,7.30489,25.92858,0.87742
397.506,22.1207,6.97624,22.62118,0.87639
399.606,22.18587,6.55607,19.68,0.87536
401.706,22.25066,6.05475,16.83244,0.87433
403.806,22.31547,5.48893,14.15616,0.87329
405.906,22.38,4.89834,11.85337,0.87226
408.006,22.44444,4.31201,9.71141,0.87122
410.106,22.5087,3.75812,7.96718,0.87018
412.206,22.5729,3.24342,6.4203,0.86915
414.306,22.6371,2.76562,5.05786,0.86811
416.406,22.70123,2.3222,3.9584,0.86707
418.506,22.76547,1.92255,2.97576,0.86602
420.606,22.82986,1.5668,2.17495,0.86498
422.706,22.89415,1.26005,1.53346,0.86393
424.806,22.95863,0.99644,1.00915,0.86289
426.906,23.02318,0.77822,0.61695,0.86184
429.006,23.0878,0.59777,0.23046,0.86079
431.106,23.15258,0.45313,-0.02436501,0.85974
433.206,23.2175,0.33513,-0.21743,0.85869
435.306,23.2825,0.2391,-0.41557,0.85763
437.406,23.3477,0.16559,-0.54865,0.85657
439.506,23.41319,0.10433,-0.6369,0.85551
441.606,23.4786,0.05451518,-0.70929,0.85445
443.706,23.54403,0.01968926,-0.78151,0.85339
445.806,23.6096,-0.0101134,-0.88673,0.85232
447.906,23.67545,-0.03066126,-0.91759,0.85126
450.006,23.74119,-0.04660047,-0.93553,0.85019
452.106,23.80695,-0.05844457,-0.96719,0.84911
454.206,23.87293,-0.06121869,-0.96767,0.84804
456.306,23.93897,-0.05540901,-0.96748,0.84696
458.406,24.00491,-0.05098382,-0.99094,0.84588
460.506,24.07118,-0.05972049,-0.96783,0.8448
462.606,24.13746,-0.07437721,-0.99834,0.84371
464.706,24.2039,-0.09517202,-1.06384,0.84263
466.806,24.27061,-0.11521,-1.06382,0.84154
468.906,24.33719,-0.12433,-1.06382,0.84044
471.006,24.40389,-0.12865,-1.03053,0.83935
473.106,24.4707,-0.12711,-1.03176,0.83825
475.206,24.53753,-0.12643,-1.06379,0.83715
477.306,24.6042,-0.12267,-1.06382,0.83604
479.406,24.6711,-0.11637,-1.06382,0.83493
481.506,24.73805,-0.11237,-1.07805,0.83382
483.606,24.8051,-0.1063,-1.11254,0.83271
485.706,24.87205,-0.09771837,-1.11247,0.83159
487.806,24.93907,-0.09433486,-1.11247,0.83047
489.906,25.00611,-0.09075761,-1.11246,0.82934
492.006,25.07301,-0.08519697,-1.14466,0.82821
494.106,25.14016,-0.0825448,-1.14437,0.82708
496.206,25.20735,-0.07990933,-1.10167,0.82595
498.306,25.27449,-0.07800881,-1.08018,0.82481
500.406,25.3417,-0.07475801,-1.07208,0.82366
502.506,25.40917,-0.06797808,-1.07266,0.82252
504.606,25.47645,-0.06507702,-1.04223,0.82137
506.706,25.5438,-0.05660071,-1.00848,0.82021
508.806,25.61121,-0.04988044,-0.99975,0.81906
510.906,25.67868,-0.04751077,-1.0306,0.8179
513.006,25.74605,-0.04063679,-1.03178,0.81673
515.106,25.81362,-0.03934169,-1.03181,0.81556
517.206,25.88123,-0.03342016,-1.06404,0.81439
519.306,25.94875,-0.03158343,-1.08574,0.81321
521.406,26.01635,-0.02894603,-1.08802,0.81203
523.506,26.08399,-0.02654115,-1.08803,0.81084
525.606,26.15156,-0.02484723,-1.09613,0.80965
527.706,26.2192,-0.02473325,-1.12712,0.80846
529.806,26.28694,-0.0196606,-1.09463,0.80726
531.906,26.3547,-0.01639815,-1.09551,0.80606
534.006,26.42241,-0.01421624,-1.06413,0.80485
536.106,26.4902,-0.01372144,-1.1283,0.80364
538.206,26.558,-0.008330535,-1.12836,0.80242
540.306,26.6261,-0.009294438,-1.09433,0.8012
541.506,26.66488,-0.006647563,-1.09608,0.8005