Folder: fsri_materials_database/01_Data/Black_PMMA/STA/30K_min (part 2)

File: Black_PMMA_STA_N2_30KData_220215_R3.csv
##Temp./Â°C,Time/min,DSC(subtr.2)/(mW/mg),Mass(subtr.2)/%,Sensit./(uV/mW)
49.003,10.01,-0.00372567,99.51139,1.08872
51.103,10.7638,0.11704,99.50612,1.08695
53.203,10.95701,0.20563,99.4914,1.08519
55.303,11.10103,0.27981,99.53191,1.08343
57.403,11.22379,0.34069,99.50761,1.08168
59.503,11.33233,0.39452,99.4901,1.07994
61.603,11.43245,0.44206,99.47515,1.07821
63.703,11.52608,0.48336,99.50286,1.07649
65.803,11.61571,0.52268,99.47905,1.07477
67.903,11.70175,0.55745,99.47672,1.07306
70.003,11.78486,0.58921,99.49081,1.07136
72.103,11.86618,0.61895,99.48601,1.06967
74.203,11.9461,0.64862,99.52205,1.06798
76.303,12.02432,0.67445,99.5328,1.06631
78.403,12.10114,0.7004,99.5035,1.06464
80.503,12.17751,0.72463,99.50572,1.06297
82.603,12.25283,0.74638,99.47923,1.06132
84.703,12.32734,0.76479,99.51054,1.05967
86.803,12.40108,0.77618,99.50904,1.05803
88.903,12.47407,0.77935,99.4922,1.05639
91.003,12.5467,0.78271,99.48029,1.05477
93.103,12.6189,0.78352,99.47284,1.05315
95.203,12.6907,0.78522,99.47326,1.05154
97.303,12.7622,0.79412,99.46509,1.04994
99.403,12.83324,0.79931,99.4648,1.04834
101.503,12.90457,0.80714,99.46698,1.04675
103.603,12.97555,0.81766,99.46518,1.04517
105.703,13.0464,0.82658,99.4682,1.0436
107.803,13.11721,0.8381,99.4668,1.04203
109.903,13.18781,0.84908,99.4678,1.04047
112.003,13.2584,0.86074,99.46399,1.03892
114.103,13.32899,0.87641,99.4332,1.03738
116.203,13.39921,0.88752,99.44055,1.03584
118.303,13.4693,0.9074,99.4337,1.03431
120.403,13.5393,0.92279,99.40675,1.03279
122.503,13.60909,0.94767,99.43339,1.03127
124.603,13.67866,0.97047,99.4003,1.02976
126.703,13.7481,0.99779,99.4154,1.02826
128.803,13.81714,1.02308,99.40024,1.02677
130.903,13.88614,1.04504,99.43254,1.02528
133.003,13.9549,1.06528,99.43359,1.0238
135.103,14.0234,1.08486,99.384,1.02233
137.203,14.0916,1.10271,99.38354,1.02086
139.303,14.15976,1.11897,99.38354,1.0194
141.403,14.22747,1.13143,99.40794,1.01795
143.503,14.29509,1.14433,99.38354,1.01651
145.603,14.36244,1.15643,99.3835,1.01507
147.703,14.42971,1.16652,99.35848,1.01364
149.803,14.49664,1.18,99.32551,1.01221
151.903,14.56354,1.18986,99.31696,1.01079
154.003,14.6303,1.19989,99.31696,1.00938
156.103,14.69708,1.21092,99.2844,1.00798
158.203,14.76361,1.21844,99.25546,1.00658
160.303,14.8301,1.23114,99.21696,1.00519
162.403,14.8966,1.24411,99.21696,1.0038
164.503,14.96277,1.25626,99.2183,1.00242
166.603,15.02888,1.27276,99.18355,1.00105
168.703,15.09494,1.28574,99.14912,0.99968
170.803,15.16094,1.30621,99.12348,0.99832
172.903,15.22688,1.32401,99.11705,0.99697
175.003,15.29246,1.34525,99.0837,0.99562
177.103,15.358,1.37008,99.0172,0.99428
179.203,15.42354,1.39228,98.98395,0.99295
181.303,15.48881,1.41675,98.95174,0.99162
183.403,15.55401,1.44158,98.88492,0.9903
185.503,15.61902,1.46733,98.84826,0.98898
187.603,15.68405,1.48974,98.74345,0.98767
189.703,15.74881,1.51066,98.64357,0.98637
191.803,15.81359,1.52945,98.52625,0.98507
193.903,15.8782,1.54547,98.45044,0.98377
196.003,15.9426,1.55912,98.3451,0.98249
198.103,16.007,1.56996,98.27844,0.98121
200.203,16.07141,1.57741,98.19144,0.97993
202.303,16.13577,1.57604,98.0266,0.97866
204.403,16.2,1.57401,97.92017,0.97739
206.503,16.26438,1.57087,97.80881,0.97614
208.603,16.32872,1.56613,97.73173,0.97488
210.703,16.39281,1.56216,97.62291,0.97363
212.803,16.45715,1.55599,97.52678,0.97239
214.903,16.52127,1.55473,97.44874,0.97115
217.003,16.58545,1.5558,97.35777,0.96992
219.103,16.6495,1.55626,97.23181,0.96869
221.203,16.7135,1.56335,97.13249,0.96747
223.303,16.77768,1.57044,97.0471,0.96625
225.403,16.8418,1.57917,96.89883,0.96504
227.503,16.9057,1.58671,96.85245,0.96384
229.603,16.96985,1.58935,96.72914,0.96263
231.703,17.0338,1.59149,96.70137,0.96144
233.803,17.09761,1.58646,96.56505,0.96024
235.903,17.1616,1.57904,96.49067,0.95906
238.003,17.22539,1.56576,96.45509,0.95787
240.103,17.2892,1.54558,96.3888,0.95669
242.203,17.35299,1.53203,96.3352,0.95552
244.303,17.41668,1.51841,96.29154,0.95435
246.403,17.48049,1.50621,96.25115,0.95318
248.503,17.54417,1.49748,96.23191,0.95202
250.603,17.60783,1.49184,96.19843,0.95087
252.703,17.67151,1.48596,96.18471,0.94971
254.803,17.7351,1.48543,96.1513,0.94856
256.903,17.7987,1.48571,96.14551,0.94742
259.003,17.86233,1.48794,96.11796,0.94628
261.103,17.92589,1.49072,96.0847,0.94514
263.203,17.9895,1.49421,96.08481,0.94401
265.303,18.053,1.49929,96.05014,0.94288
267.403,18.11646,1.50569,96.0165,0.94175
269.503,18.17997,1.51233,96.00994,0.94063
271.603,18.24352,1.52053,95.97615,0.93952
273.703,18.30704,1.53035,95.94293,0.9384
275.803,18.37056,1.53951,95.90985,0.93729
277.903,18.434,1.55277,95.87634,0.93618
280.003,18.49744,1.56341,95.83641,0.93508
282.103,18.561,1.57744,95.78245,0.93398
284.203,18.62453,1.59117,95.72538,0.93288
286.303,18.6879,1.60759,95.67334,0.93178
288.403,18.75144,1.62482,95.6118,0.93069
290.503,18.81501,1.64764,95.5568,0.9296
292.603,18.87836,1.66744,95.43345,0.92852
294.703,18.94197,1.691,95.33045,0.92743
296.803,19.00545,1.72098,95.2474,0.92635
298.903,19.06891,1.75233,95.1125,0.92528
301.003,19.1323,1.78557,94.9974,0.9242
303.103,19.19589,1.81537,94.884,0.92313
305.203,19.2595,1.84377,94.71677,0.92206
307.303,19.32321,1.8683,94.55224,0.92099
309.403,19.3869,1.89501,94.38841,0.91993
311.503,19.45054,1.91804,94.19706,0.91886
313.603,19.5143,1.9438,94.0103,0.9178
315.703,19.57793,1.96879,93.78617,0.91674
317.803,19.64172,1.99438,93.54958,0.91569
319.903,19.70555,2.01858,93.34185,0.91463
322.003,19.76933,2.04422,93.10529,0.91358
324.103,19.8332,2.07667,92.81818,0.91253
326.203,19.89709,2.11504,92.51939,0.91148
328.303,19.96089,2.16438,92.26346,0.91043
330.403,20.0247,2.22478,91.91394,0.90939
332.503,20.0887,2.29977,91.55651,0.90834
334.603,20.1528,2.38919,91.1405,0.9073
336.703,20.21676,2.4967,90.6925,0.90626
338.803,20.28059,2.62181,90.12575,0.90522
340.903,20.34508,2.76496,89.57766,0.90418
343.003,20.40926,2.93036,88.90139,0.90314
345.103,20.47371,3.11685,88.1644,0.9021
347.203,20.53819,3.32741,87.3421,0.90107
349.303,20.6026,3.55951,86.29151,0.90003
351.403,20.66672,3.81332,85.24515,0.899
353.503,20.7316,4.09611,84.04819,0.89797
355.603,20.79678,4.40531,82.62255,0.89694
357.703,20.86219,4.73439,81.14339,0.8959
359.803,20.92737,5.08985,79.48687,0.89487
361.903,20.99265,5.46288,77.59268,0.89384
364.003,21.05825,5.85396,75.5349,0.89281
366.103,21.12363,6.25414,73.2316,0.89178
368.203,21.18923,6.65495,70.81919,0.89076
370.303,21.25498,7.05616,68.19572,0.88973
372.403,21.32038,7.45034,65.3391,0.8887
374.503,21.38617,7.80194,62.4431,0.88767
376.603,21.45215,8.07318,59.20997,0.88664
378.703,21.51794,8.24554,55.7684,0.88561
380.803,21.58409,8.41944,52.4384,0.88458
382.903,21.65018,8.57061,48.92273,0.88356
385.003,21.71612,8.61258,45.34162,0.88253
387.103,21.78219,8.53929,41.84717,0.8815
389.203,21.84797,8.4031,38.27632,0.88047
391.303,21.91366,8.16273,34.82575,0.87944
393.403,21.97886,7.95733,31.48442,0.87841
395.503,22.04433,7.55316,28.12585,0.87738
397.603,22.1098,7.19675,25.10341,0.87634
399.703,22.17478,6.95769,22.16297,0.87531
401.803,22.2398,6.58392,19.25364,0.87428
403.903,22.30473,6.08715,16.67878,0.87324
406.003,22.3696,5.509,14.1843,0.87221
408.103,22.43424,4.89428,12.0092,0.87117
410.203,22.49868,4.29052,10.1503,0.87014
412.303,22.56324,3.71721,8.41999,0.8691
414.403,22.6276,3.2091,7.02591,0.86806
416.503,22.69196,2.73052,5.81404,0.86702
418.603,22.7562,2.29011,4.72824,0.86598
420.703,22.82064,1.89601,3.89168,0.86493
422.803,22.88516,1.54899,3.13789,0.86389
424.903,22.94978,1.25757,2.63421,0.86284
427.003,23.01438,1.01245,2.22608,0.86179
429.103,23.07937,0.80765,1.88187,0.86074
431.203,23.1443,0.64713,1.52769,0.85969
433.303,23.20942,0.51785,1.31468,0.85864
435.403,23.27463,0.41139,1.14296,0.85758
437.503,23.33993,0.33065,1.01885,0.85652
439.603,23.40534,0.26476,0.93134,0.85546
441.703,23.47108,0.21157,0.83546,0.8544
443.803,23.53657,0.17003,0.75115,0.85334
445.903,23.6025,0.14112,0.71049,0.85227
448.003,23.66846,0.11529,0.66296,0.85121
450.103,23.7345,0.10002,0.61969,0.85014
452.203,23.80067,0.08357238,0.57683,0.84906
454.303,23.86672,0.07061029,0.57721,0.84799
456.403,23.93308,0.06605338,0.57721,0.84691
458.503,23.9993,0.06675976,0.5538,0.84583
460.603,24.06549,0.07280021,0.5438,0.84475
462.703,24.13198,0.06940452,0.55661,0.84366
464.803,24.19855,0.06372291,0.58557,0.84258
466.903,24.26521,0.05107527,0.58557,0.84149
469.003,24.332,0.03958614,0.58559,0.84039
471.103,24.39882,0.04041328,0.5772,0.8393
473.203,24.46575,0.04275822,0.56906,0.8382
475.303,24.53266,0.05282183,0.56886,0.83709
477.403,24.5995,0.06551002,0.56886,0.83599
479.503,24.6665,0.08167695,0.54192,0.83488
481.603,24.73355,0.09513105,0.54805,0.83377
483.703,24.80069,0.10693,0.57721,0.83265
485.803,24.86766,0.11511,0.57485,0.83154
487.903,24.93485,0.12431,0.60228,0.83041
490.003,25.0021,0.13655,0.60228,0.82929
492.103,25.0694,0.14317,0.60228,0.82816
494.203,25.13665,0.15012,0.60245,0.82703
496.303,25.20397,0.15596,0.56885,0.82589
498.403,25.2714,0.15886,0.56886,0.82475
500.503,25.33859,0.16609,0.56886,0.82361
502.603,25.4061,0.16867,0.54413,0.82247
504.703,25.47353,0.17476,0.51499,0.82131
506.803,25.5411,0.17424,0.57981,0.82016
508.903,25.60866,0.17905,0.58,0.819
511.003,25.67624,0.18241,0.6054,0.81784
513.103,25.74363,0.18523,0.58,0.81668
515.203,25.81097,0.18421,0.5465,0.81551
517.303,25.87905,0.18527,0.54658,0.81433
519.403,25.94665,0.18643,0.54658,0.81315
521.503,26.01442,0.18735,0.5267,0.81197
523.603,26.0821,0.18759,0.54714,0.81079
525.703,26.14949,0.19138,0.58037,0.8096
527.803,26.21694,0.19459,0.5733,0.8084
529.903,26.2848,0.19417,0.57173,0.8072
532.003,26.3529,0.19646,0.53814,0.806
534.103,26.4208,0.19768,0.57265,0.80479
536.203,26.4886,0.2013,0.57165,0.80358
538.303,26.55643,0.20615,0.57165,0.80236
540.403,26.6244,0.2082,0.53593,0.80114
541.703,26.66628,0.20726,0.53823,0.80038