Folder: fsri_materials_database/01_Data/Rayon_Bamboo_Pillowcase/STA/N2/10K_min (part 2)

File: Rayon_Bamboo_Pillowcase_STA_N2_10KData_220520_R3.csv
##Temp./Â°C,Time/min,Mass loss(subtr.2)/mg,DSC(subtr.2)/(mW/mg),Sensit./(uV/mW)
49.558,10.00917,-0.00702,0.00556662,1.07022
52.258,11.2444,-0.008480384,0.10257,1.06947
54.958,11.6523,-0.01027338,0.1512,1.06872
57.658,11.9945,-0.009307235,0.18261,1.06796
60.358,12.31007,-0.01075271,0.20233,1.0672
63.058,12.61261,-0.01208109,0.22116,1.06642
65.758,12.9084,-0.01267524,0.23299,1.06564
68.458,13.2005,-0.01317754,0.24948,1.06485
71.158,13.48661,-0.01582807,0.2659,1.06405
73.858,13.77135,-0.01604116,0.27981,1.06325
76.558,14.0539,-0.01735187,0.29578,1.06244
79.258,14.33469,-0.01967355,0.31394,1.06162
81.958,14.61268,-0.02403993,0.32676,1.06079
84.658,14.88892,-0.02535947,0.34033,1.05995
87.358,15.1627,-0.02798818,0.35299,1.05911
90.058,15.4339,-0.03065224,0.36046,1.05826
92.758,15.7039,-0.03358326,0.3676,1.0574
95.458,15.9724,-0.03623004,0.37389,1.05654
98.158,16.23938,-0.03887146,0.37448,1.05566
100.858,16.50422,-0.0411691,0.37403,1.05478
103.558,16.76837,-0.04245115,0.36977,1.05389
106.258,17.0323,-0.04644,0.36423,1.05299
108.958,17.29628,-0.04907968,0.35514,1.05209
111.658,17.55956,-0.05075809,0.34628,1.05117
114.358,17.8226,-0.05135538,0.3356,1.05025
117.058,18.08493,-0.05367997,0.32715,1.04933
119.758,18.3481,-0.05368,0.31954,1.04839
122.458,18.6101,-0.05506489,0.31288,1.04744
125.158,18.8715,-0.05631003,0.30689,1.04649
127.858,19.13261,-0.05763069,0.30287,1.04553
130.558,19.39323,-0.05829301,0.30093,1.04456
133.258,19.65381,-0.05910453,0.29976,1.04359
135.958,19.9129,-0.05862043,0.29756,1.0426
138.658,20.174,-0.06027,0.29534,1.04161
141.358,20.43405,-0.06025625,0.2986,1.04061
144.058,20.69292,-0.06092973,0.30023,1.0396
146.758,20.95228,-0.06164624,0.30289,1.03859
149.458,21.21236,-0.05925347,0.29982,1.03756
152.158,21.47135,-0.06087491,0.30154,1.03653
154.858,21.73012,-0.06225998,0.30044,1.03549
157.558,21.9886,-0.06324,0.29964,1.03444
160.258,22.2474,-0.06225194,0.30148,1.03338
162.958,22.50528,-0.06323042,0.30111,1.03232
165.658,22.76341,-0.06322628,0.30179,1.03124
168.358,23.021,-0.06256168,0.30112,1.03016
171.058,23.27816,-0.06192083,0.29972,1.02907
173.758,23.5362,-0.06419895,0.29955,1.02797
176.458,23.7939,-0.06280629,0.2993,1.02687
179.158,24.05124,-0.06355782,0.29901,1.02575
181.858,24.30951,-0.06389,0.30025,1.02463
184.558,24.56701,-0.06309092,0.30122,1.0235
187.258,24.82372,-0.06356988,0.30183,1.02236
189.958,25.081,-0.06420208,0.30225,1.02121
192.658,25.33894,-0.06356002,0.30295,1.02005
195.358,25.59529,-0.06554,0.30461,1.01889
198.058,25.8528,-0.06554,0.30496,1.01771
200.758,26.10914,-0.06421904,0.30607,1.01653
203.458,26.36621,-0.06554,0.30609,1.01534
206.158,26.62306,-0.06685,0.30889,1.01414
208.858,26.87872,-0.06685,0.3085,1.01293
211.558,27.13635,-0.06553645,0.3072,1.01172
214.258,27.3932,-0.06718799,0.30817,1.01049
216.958,27.64988,-0.0685101,0.30907,1.00926
219.658,27.90545,-0.07077369,0.30897,1.00802
222.358,28.1615,-0.07014632,0.30979,1.00677
225.058,28.41941,-0.07113,0.30886,1.00551
227.758,28.67629,-0.07146011,0.30963,1.00425
230.458,28.93275,-0.07347602,0.30783,1.00297
233.158,29.18887,-0.07641,0.30792,1.00168
235.858,29.4456,-0.07787868,0.3079,1.00039
238.558,29.7016,-0.08222155,0.30607,0.99909
241.258,29.95865,-0.08607004,0.30528,0.99778
243.958,30.2149,-0.08936896,0.3017,0.99646
246.658,30.47148,-0.09635928,0.30323,0.99513
249.358,30.7286,-0.10287,0.31315,0.9938
252.058,30.9849,-0.11109,0.33468,0.99245
254.758,31.24199,-0.12398,0.36515,0.9911
257.458,31.49875,-0.14006,0.42391,0.98974
260.158,31.7564,-0.1625,0.50038,0.98836
262.858,32.0128,-0.1923,0.57128,0.98698
265.558,32.27021,-0.22684,0.61534,0.9856
268.258,32.52868,-0.27054,0.63206,0.9842
270.958,32.78607,-0.31603,0.63513,0.98279
273.658,33.04354,-0.36722,0.63092,0.98138
276.358,33.301,-0.42059,0.62299,0.97995
279.058,33.55753,-0.47518,0.61679,0.97852
281.758,33.81412,-0.53205,0.61236,0.97708
284.458,34.0722,-0.59093,0.60867,0.97563
287.158,34.32966,-0.65399,0.60682,0.97417
289.858,34.58757,-0.71685,0.60991,0.9727
292.558,34.84564,-0.78454,0.61092,0.97122
295.258,35.1031,-0.85495,0.61625,0.96974
297.958,35.3611,-0.92977,0.62019,0.96824
300.658,35.61838,-1.00839,0.62843,0.96674
303.358,35.87729,-1.09225,0.63307,0.96523
306.058,36.13557,-1.1771,0.64141,0.96371
308.758,36.39399,-1.26888,0.64537,0.96217
311.458,36.65256,-1.36623,0.64905,0.96064
314.158,36.91122,-1.46618,0.65323,0.95909
316.858,37.16988,-1.57327,0.65285,0.95753
319.558,37.42884,-1.6781,0.64449,0.95596
322.258,37.6885,-1.78994,0.63457,0.95439
324.958,37.94828,-1.90096,0.62047,0.95281
327.658,38.20749,-2.01439,0.60029,0.95121
330.358,38.46656,-2.12508,0.57416,0.94961
333.058,38.72602,-2.23514,0.53603,0.948
335.758,38.9852,-2.34085,0.48791,0.94638
338.458,39.24429,-2.43304,0.42059,0.94475
341.158,39.50298,-2.51716,0.34046,0.94312
343.858,39.76025,-2.58552,0.25424,0.94147
346.558,40.02021,-2.639,0.17775,0.93982
349.258,40.27882,-2.67789,0.11332,0.93815
351.958,40.53837,-2.70775,0.07421244,0.93648
354.658,40.7975,-2.72906,0.04626981,0.9348
357.358,41.05746,-2.74919,0.02756357,0.93311
360.058,41.31739,-2.76266,0.01754702,0.93141
362.758,41.5781,-2.77535,0.00933464,0.9297
365.458,41.83824,-2.78442,0.0043803,0.92798
368.158,42.10003,-2.79494,-0.00110261,0.92625
370.858,42.36142,-2.80427,-0.006723316,0.92452
373.558,42.62231,-2.81182,-0.008262085,0.92278
376.258,42.88447,-2.82159,-0.01247051,0.92102
378.958,43.1462,-2.82949,-0.01441868,0.91926
381.658,43.40783,-2.83765,-0.01324368,0.91749
384.358,43.66938,-2.84545,-0.01654885,0.91571
387.058,43.9321,-2.85324,-0.01814462,0.91392
389.758,44.19405,-2.86024,-0.01881751,0.91213
392.458,44.4557,-2.86549,-0.01913111,0.91032
395.158,44.71836,-2.8704,-0.02074145,0.90851
397.858,44.98032,-2.87716,-0.02229077,0.90669
400.558,45.24238,-2.88181,-0.0231774,0.90485
403.258,45.50477,-2.88859,-0.02191536,0.90301
405.958,45.76697,-2.8936,-0.0244829,0.90116
408.658,46.02978,-2.89904,-0.024577,0.89931
411.358,46.29159,-2.90562,-0.02704163,0.89744
414.058,46.55339,-2.91016,-0.0287795,0.89557
416.758,46.8159,-2.91678,-0.02551957,0.89368
419.458,47.08164,-2.91936,-0.0268591,0.89179
422.158,47.3453,-2.92365,-0.03013033,0.88989
424.858,47.60876,-2.92953,-0.02830412,0.88798
427.558,47.87243,-2.93415,-0.02725192,0.88606
430.258,48.13625,-2.93807,-0.0274164,0.88413
432.958,48.3997,-2.94341,-0.02855452,0.8822
435.658,48.66339,-2.94627,-0.02617552,0.88026
438.358,48.9274,-2.95262,-0.02900965,0.8783
441.058,49.1911,-2.95709,-0.02950797,0.87634
443.758,49.45579,-2.95959,-0.02793653,0.87438
446.458,49.7203,-2.9658,-0.02754752,0.8724
449.158,49.985,-2.97115,-0.02932175,0.87041
451.858,50.25012,-2.97568,-0.02906265,0.86842
454.558,50.5156,-2.97927,-0.02951066,0.86642
457.258,50.78093,-2.98233,-0.02707889,0.86441
459.958,51.04634,-2.98884,-0.02666374,0.86239
462.658,51.31142,-2.9944,-0.02482264,0.86036
465.358,51.57476,-2.99544,-0.02621164,0.85833
468.058,51.84055,-2.99919,-0.02632826,0.85628
470.758,52.10525,-3.00268,-0.02612123,0.85423
473.458,52.36865,-3.00663,-0.02707583,0.85217
476.158,52.63527,-3.00862,-0.02638992,0.8501
478.858,52.90087,-3.01468,-0.02428863,0.84803
481.558,53.16641,-3.01673,-0.02075603,0.84594
484.258,53.43234,-3.0204,-0.02020597,0.84385
486.958,53.6978,-3.02409,-0.01915169,0.84175
489.658,53.9639,-3.02738,-0.01656252,0.83965
492.358,54.2296,-3.02871,-0.01924959,0.83753
495.058,54.49505,-3.03134,-0.01718305,0.83541
497.758,54.76101,-3.03626,-0.008768969,0.83328
500.458,55.0262,-3.03795,-0.00301871,0.83114
503.158,55.2925,-3.03936,0.0004360143,0.82899
505.858,55.559,-3.04186,-0.0004649611,0.82684
508.558,55.82609,-3.04385,-0.005583471,0.82468
511.258,56.09324,-3.04669,-0.005776573,0.82251
513.958,56.3603,-3.05011,-0.008459499,0.82033
516.658,56.62834,-3.05176,-0.01444417,0.81815
519.358,56.89665,-3.05539,-0.01954947,0.81596
522.058,57.1638,-3.05532,-0.02461791,0.81376
524.758,57.4317,-3.05801,-0.0253247,0.81155
527.458,57.6994,-3.05867,-0.02705459,0.80934
530.158,57.9672,-3.06131,-0.02841346,0.80712
532.858,58.2355,-3.06229,-0.02838839,0.80489
535.558,58.50334,-3.06503,-0.03208361,0.80266
538.258,58.77168,-3.06756,-0.03405412,0.80041
540.958,59.0394,-3.0702,-0.03661464,0.79816
543.658,59.3081,-3.07152,-0.03868927,0.79591
546.358,59.5761,-3.07415,-0.03995574,0.79364
549.058,59.8445,-3.07481,-0.03929133,0.79137
551.758,60.1124,-3.07477,-0.03958064,0.7891
554.458,60.38069,-3.07745,-0.03805704,0.78681
557.158,60.6486,-3.08009,-0.03823633,0.78452
559.858,60.9167,-3.08172,-0.03417648,0.78223
562.558,61.18465,-3.08304,-0.03125531,0.77992
565.258,61.45281,-3.08339,-0.03195758,0.77761
567.958,61.7215,-3.08536,-0.03012721,0.7753
570.658,61.9907,-3.08666,-0.03061723,0.77297
573.358,62.2598,-3.087,-0.02717823,0.77064
576.058,62.5293,-3.08864,-0.02928972,0.76831
578.758,62.79857,-3.08996,-0.02817283,0.76596
581.458,63.0665,-3.09198,-0.02565254,0.76361
584.158,63.33566,-3.09193,-0.02128246,0.76126
586.858,63.6055,-3.09491,-0.01629146,0.7589
589.558,63.87523,-3.09424,-0.01442431,0.75653
592.258,64.1452,-3.09424,-0.00941489,0.75416
594.958,64.4139,-3.09688,-0.0037271,0.75178
597.658,64.68324,-3.09949,0.0009322258,0.74939
600.358,64.95272,-3.09787,0.006596074,0.747
603.058,65.22213,-3.10017,0.008588117,0.74461
605.758,65.49207,-3.10087,0.01090552,0.74221
608.458,65.7629,-3.10215,0.01500093,0.7398
611.158,66.03283,-3.10149,0.01641381,0.73738
613.858,66.30238,-3.10367,0.02074878,0.73497
616.558,66.57151,-3.10247,0.02464066,0.73254
619.258,66.84181,-3.10478,0.02375126,0.73011
621.958,67.11106,-3.10511,0.02101519,0.72768
624.658,67.38166,-3.10643,0.02316839,0.72524
627.358,67.65231,-3.10774,0.02233389,0.72279
630.058,67.92262,-3.10907,0.02258855,0.72034
632.758,68.19239,-3.10912,0.02683368,0.71788
635.458,68.46246,-3.10937,0.02781292,0.71542
638.158,68.73265,-3.11105,0.02930099,0.71296
640.858,69.00293,-3.10919,0.03061601,0.71049
643.558,69.27136,-3.11016,0.03260974,0.70801
646.258,69.54329,-3.11052,0.03430494,0.70553
648.958,69.81368,-3.11181,0.03494748,0.70305
650.758,69.99376,-3.11247,0.03375607,0.70139