Folder: fsri_materials_database/01_Data/Rayon_Bamboo_Pillowcase/STA/N2/30K_min (part 2)

File: Rayon_Bamboo_Pillowcase_STA_N2_30KData_220523_R3.csv
##Temp./Â°C,Time/min,Mass loss(subtr.2)/mg,DSC(subtr.2)/(mW/mg),Sensit./(uV/mW)
48.595,10.01,-0.01439,0.02650482,1.054
51.395,10.84989,-0.01625741,0.17023,1.05342
54.195,11.0703,-0.01733618,0.2748,1.05284
56.995,11.2384,-0.01783343,0.35921,1.05224
59.795,11.38207,-0.01768027,0.43054,1.05162
62.595,11.5113,-0.01834808,0.49665,1.05099
65.395,11.63141,-0.01905801,0.55501,1.05034
68.195,11.7463,-0.0204933,0.60905,1.04969
70.995,11.85624,-0.02138582,0.66126,1.04901
73.795,11.96275,-0.02101864,0.70844,1.04833
76.595,12.067,-0.02276154,0.75389,1.04763
79.395,12.169,-0.02356711,0.802,1.04691
82.195,12.26905,-0.02515784,0.8464,1.04618
84.995,12.36867,-0.02488684,0.89154,1.04544
87.795,12.4663,-0.02691463,0.93979,1.04469
90.595,12.5633,-0.03025047,0.98456,1.04392
93.395,12.65932,-0.03338803,1.03026,1.04313
96.195,12.75474,-0.03472372,1.07037,1.04234
98.995,12.84942,-0.03602796,1.10495,1.04153
101.795,12.94422,-0.03965064,1.13471,1.0407
104.595,13.03842,-0.04180811,1.16081,1.03987
107.395,13.13233,-0.04523251,1.18011,1.03902
110.195,13.22604,-0.04649385,1.19443,1.03815
112.995,13.31935,-0.05049592,1.20248,1.03728
115.795,13.413,-0.05323344,1.20314,1.03639
118.595,13.50579,-0.0544112,1.19541,1.03548
121.395,13.5985,-0.0584364,1.18363,1.03456
124.195,13.69098,-0.06108715,1.16864,1.03364
126.995,13.78271,-0.06115906,1.1484,1.03269
129.795,13.8741,-0.06262187,1.12555,1.03174
132.595,13.965,-0.06499835,1.10592,1.03077
135.395,14.05546,-0.06762818,1.08499,1.02979
138.195,14.1456,-0.06683745,1.06408,1.02879
140.995,14.2356,-0.06762996,1.04485,1.02779
143.795,14.3247,-0.06895835,1.03324,1.02677
146.595,14.4135,-0.07026992,1.02318,1.02573
149.395,14.5024,-0.07157764,1.01544,1.02469
152.195,14.591,-0.07189,1.01105,1.02363
154.995,14.67922,-0.07159009,1.0111,1.02256
157.795,14.76738,-0.07357004,1.01207,1.02148
160.595,14.8551,-0.07422013,1.01321,1.02039
163.395,14.94302,-0.07421968,1.01431,1.01928
166.195,15.0305,-0.07519943,1.01419,1.01816
168.995,15.1179,-0.0752,1.01546,1.01703
171.795,15.20495,-0.07519765,1.01513,1.01589
174.595,15.29171,-0.07549782,1.01626,1.01473
177.395,15.3787,-0.07684999,1.0156,1.01357
180.195,15.46514,-0.07685,1.01827,1.01239
182.995,15.5511,-0.07685135,1.01814,1.0112
185.795,15.63729,-0.07751007,1.01843,1.01
188.595,15.72306,-0.07751,1.02252,1.00878
191.395,15.80877,-0.07751,1.0236,1.00756
194.195,15.89425,-0.07751001,1.02967,1.00632
196.995,15.9795,-0.07883767,1.03204,1.00507
199.795,16.06488,-0.07749316,1.03852,1.00381
202.595,16.1499,-0.07718,1.04311,1.00254
205.395,16.23499,-0.07847629,1.0504,1.00126
208.195,16.31962,-0.07717863,1.05526,0.99996
210.995,16.40459,-0.07891609,1.06296,0.99866
213.795,16.48986,-0.07982,1.06747,0.99734
216.595,16.57477,-0.07982172,1.07552,0.99601
219.395,16.65931,-0.08013725,1.07998,0.99467
222.195,16.74418,-0.08015,1.08521,0.99332
224.995,16.82873,-0.08015,1.09075,0.99196
227.795,16.91347,-0.08013322,1.09202,0.99059
230.595,16.99792,-0.08211175,1.09586,0.98921
233.395,17.08235,-0.08348634,1.09954,0.98782
236.195,17.16689,-0.08344013,1.10071,0.98642
238.995,17.2514,-0.08475885,1.10102,0.985
241.795,17.33579,-0.08612292,1.10256,0.98358
244.595,17.4202,-0.08707516,1.10521,0.98214
247.395,17.50437,-0.08883014,1.12941,0.9807
250.195,17.58876,-0.09147291,1.12398,0.97924
252.995,17.67305,-0.0934447,1.11604,0.97778
255.795,17.75724,-0.09789072,1.1029,0.9763
258.595,17.84163,-0.10239,1.09251,0.97482
261.395,17.92587,-0.10605,1.08696,0.97332
264.195,18.00995,-0.1145,1.08917,0.97182
266.995,18.09376,-0.12128,1.11625,0.9703
269.795,18.17822,-0.13241,1.18351,0.96877
272.595,18.26265,-0.14703,1.31367,0.96724
275.395,18.34692,-0.16598,1.51203,0.96569
278.195,18.43131,-0.1908,1.74855,0.96414
280.995,18.5158,-0.22266,1.97843,0.96258
283.795,18.60063,-0.26353,2.14993,0.961
286.595,18.68532,-0.31049,2.23653,0.95942
289.395,18.77,-0.36087,2.24599,0.95783
292.195,18.85474,-0.41764,2.21334,0.95622
294.995,18.93944,-0.47469,2.16418,0.95461
297.795,19.0239,-0.53472,2.11552,0.95299
300.595,19.1084,-0.60035,2.07401,0.95136
303.395,19.19296,-0.66665,2.04825,0.94973
306.195,19.27744,-0.7376,2.03127,0.94808
308.995,19.3617,-0.81405,2.024,0.94642
311.795,19.4464,-0.89148,2.02836,0.94476
314.595,19.53096,-0.97551,2.03924,0.94308
317.395,19.61574,-1.06399,2.05449,0.9414
320.195,19.7003,-1.1559,2.07158,0.93971
322.995,19.78499,-1.25234,2.09564,0.93801
325.795,19.86981,-1.35604,2.11506,0.9363
328.595,19.95458,-1.45993,2.13145,0.93459
331.395,20.03944,-1.56798,2.14074,0.93286
334.195,20.12442,-1.68186,2.13841,0.93113
336.995,20.20901,-1.79724,2.12041,0.92938
339.795,20.29433,-1.91569,2.08292,0.92763
342.595,20.3794,-2.03268,2.02005,0.92588
345.395,20.46452,-2.15061,1.92095,0.92411
348.195,20.54952,-2.26268,1.78623,0.92234
350.995,20.63477,-2.36632,1.60554,0.92055
353.795,20.7197,-2.45903,1.3806,0.91876
356.595,20.8049,-2.53877,1.13214,0.91697
359.395,20.88985,-2.60374,0.90057,0.91516
362.195,20.97498,-2.65417,0.70223,0.91335
364.995,21.06016,-2.69043,0.55375,0.91153
367.795,21.14528,-2.71853,0.44331,0.9097
370.595,21.2306,-2.74112,0.36555,0.90786
373.395,21.3161,-2.75787,0.31195,0.90602
376.195,21.40169,-2.77245,0.27847,0.90417
378.995,21.4874,-2.78557,0.25453,0.90231
381.795,21.5731,-2.79697,0.24259,0.90045
384.595,21.65904,-2.80683,0.22762,0.89858
387.395,21.7451,-2.81629,0.2161,0.8967
390.195,21.831,-2.82446,0.20535,0.89481
392.995,21.91726,-2.83485,0.19839,0.89292
395.795,22.0035,-2.8419,0.18783,0.89102
398.595,22.08983,-2.84996,0.18225,0.88911
401.395,22.1764,-2.85806,0.17516,0.8872
404.195,22.26301,-2.86603,0.16847,0.88528
406.995,22.34975,-2.87104,0.16443,0.88335
409.795,22.43652,-2.8777,0.15988,0.88142
412.595,22.52337,-2.88628,0.15691,0.87948
415.395,22.6104,-2.89105,0.15168,0.87753
418.195,22.69731,-2.89705,0.14589,0.87558
420.995,22.78426,-2.90217,0.13421,0.87362
423.795,22.8715,-2.90878,0.12413,0.87165
426.595,22.95864,-2.91535,0.11723,0.86968
429.395,23.04608,-2.9217,0.11382,0.86771
432.195,23.1335,-2.92623,0.10854,0.86572
434.995,23.221,-2.9302,0.10454,0.86373
437.795,23.30861,-2.93515,0.10386,0.86174
440.595,23.39623,-2.94118,0.10016,0.85974
443.395,23.48399,-2.94471,0.09989663,0.85773
446.195,23.57177,-2.94975,0.10317,0.85572
448.995,23.6597,-2.95524,0.10222,0.8537
451.795,23.74748,-2.96105,0.10471,0.85167
454.595,23.8357,-2.96528,0.10337,0.84964
457.395,23.92389,-2.97025,0.10631,0.84761
460.195,24.01206,-2.97534,0.10413,0.84557
462.995,24.10052,-2.97958,0.10577,0.84352
465.795,24.18899,-2.98443,0.10548,0.84147
468.595,24.27747,-2.98864,0.10998,0.83942
471.395,24.36611,-2.99373,0.11165,0.83735
474.195,24.45457,-2.99711,0.11594,0.83529
476.995,24.5431,-3.00139,0.11963,0.83322
479.795,24.63224,-3.00585,0.13059,0.83114
482.595,24.72115,-3.01047,0.14077,0.82906
485.395,24.81,-3.0151,0.14468,0.82697
488.195,24.899,-3.01801,0.14063,0.82488
490.995,24.988,-3.02254,0.1398,0.82278
493.795,25.0773,-3.02712,0.13908,0.82068
496.595,25.1664,-3.02976,0.1381,0.81858
499.395,25.2558,-3.0332,0.13648,0.81647
502.195,25.3451,-3.03542,0.13491,0.81435
504.995,25.4345,-3.03847,0.13417,0.81224
507.795,25.52404,-3.04144,0.13529,0.81011
510.595,25.6136,-3.04535,0.13924,0.80798
513.395,25.70315,-3.04838,0.14012,0.80585
516.195,25.7929,-3.05086,0.14513,0.80372
518.995,25.88254,-3.05363,0.1475,0.80158
521.795,25.9724,-3.05686,0.15257,0.79943
524.595,26.0621,-3.059,0.15327,0.79729
527.395,26.152,-3.06186,0.15325,0.79513
530.195,26.24216,-3.0641,0.15506,0.79298
532.995,26.33206,-3.06538,0.15243,0.79082
535.795,26.4222,-3.06932,0.15377,0.78865
538.595,26.51235,-3.07081,0.15009,0.78649
541.395,26.60254,-3.07209,0.15069,0.78432
544.195,26.69264,-3.07471,0.1542,0.78214
546.995,26.7829,-3.07865,0.15084,0.77996
549.795,26.87335,-3.08,0.15146,0.77778
552.595,26.9639,-3.08274,0.15061,0.7756
555.395,27.0544,-3.08423,0.15009,0.77341
558.195,27.145,-3.08512,0.14554,0.77122
560.995,27.2356,-3.08726,0.13881,0.76902
563.795,27.3264,-3.09018,0.13332,0.76683
566.595,27.41719,-3.09123,0.1296,0.76462
569.395,27.508,-3.09266,0.12414,0.76242
572.195,27.59879,-3.09414,0.1199,0.76021
574.995,27.6897,-3.09641,0.11336,0.758
577.795,27.78057,-3.09748,0.11139,0.75579
580.595,27.8717,-3.0994,0.10596,0.75357
583.395,27.9627,-3.10085,0.1009,0.75135
586.195,28.054,-3.10344,0.0999125,0.74913
588.995,28.1452,-3.10369,0.09803772,0.74691
591.795,28.23657,-3.10504,0.09967611,0.74468
594.595,28.32787,-3.10634,0.09614775,0.74245
597.395,28.41944,-3.10764,0.09752068,0.74022
600.195,28.5107,-3.10901,0.09968781,0.73799
602.995,28.60237,-3.11038,0.09759211,0.73575
605.795,28.694,-3.11291,0.09743597,0.73351
608.595,28.78562,-3.11369,0.09918863,0.73127
611.395,28.87752,-3.1139,0.10125,0.72903
614.195,28.9692,-3.11432,0.10459,0.72678
616.995,29.06093,-3.11565,0.11147,0.72453
619.795,29.1529,-3.11806,0.11024,0.72228
622.595,29.2448,-3.11894,0.11743,0.72003
625.395,29.3369,-3.11896,0.11878,0.71778
628.195,29.42871,-3.11918,0.12301,0.71552
630.995,29.5207,-3.12158,0.12764,0.71327
633.795,29.61257,-3.12159,0.13027,0.71101
636.595,29.7046,-3.12267,0.13233,0.70874
639.395,29.7966,-3.1229,0.13454,0.70648
642.195,29.8885,-3.12486,0.13672,0.70422
644.995,29.9806,-3.12422,0.13672,0.70195
647.795,30.0726,-3.12481,0.13714,0.69968
650.595,30.16488,-3.12554,0.13302,0.69742
653.395,30.25698,-3.12686,0.13374,0.69515
656.195,30.3492,-3.12687,0.13189,0.69287
658.995,30.4415,-3.12828,0.12856,0.6906
661.795,30.5339,-3.12862,0.12841,0.68833
664.595,30.62605,-3.12895,0.12466,0.68605
667.395,30.7183,-3.13193,0.12588,0.68377
670.195,30.81053,-3.13191,0.12385,0.6815
672.995,30.90298,-3.13192,0.1281,0.67922
675.795,30.9952,-3.13322,0.12367,0.67694
678.595,31.0877,-3.13322,0.12166,0.67466
681.395,31.1802,-3.13455,0.12433,0.67238
684.195,31.27265,-3.13454,0.12283,0.67009
686.995,31.365,-3.13591,0.12113,0.66781
689.795,31.4575,-3.13551,0.12103,0.66553
692.595,31.5499,-3.13585,0.12346,0.66324
695.395,31.64299,-3.13717,0.12116,0.66096
696.095,31.6659,-3.13717,0.12233,0.66039