Folder: fsri_materials_database/01_Data/Rayon_Bamboo_Pillowcase/STA/N2/30K_min

Note: 01_Data/README.md
# Materials and Products Database
## 01_Data

Raw data generated from each apparatus are included here in plain-text format. The data is organized first by material, next by the short name of test apparatus used, and where applicable additional filtering by test settings.

### material.json

Each material directory contains a json file of the same name as the material. This file links the data stored in the repository as well as data and graphs produced by the accompanying scripts (__02_Scripts__) to the respective landing page for the material on the front-end website.

File: Rayon_Bamboo_Pillowcase_STA_N2_30KData_220523_R1.csv
##Temp./Â°C,Time/min,Mass loss(subtr.2)/mg,DSC(subtr.2)/(mW/mg),Sensit./(uV/mW)
48.695,10.00917,-0.00352,0.01357258,1.05398
51.495,10.84848,-0.00191969,0.1236,1.0534
54.295,11.06959,-0.002432298,0.21438,1.05282
57.095,11.238,-0.00229064,0.28984,1.05221
59.895,11.382,-0.001142783,0.35132,1.0516
62.695,11.51122,-0.002553251,0.40691,1.05097
65.495,11.63166,-0.0034735,0.45748,1.05032
68.295,11.74639,-0.00345664,0.50407,1.04966
71.095,11.85636,-0.00433228,0.54868,1.04899
73.895,11.96306,-0.005126818,0.58898,1.0483
76.695,12.0673,-0.004370138,0.6273,1.0476
79.495,12.16956,-0.00287,0.66763,1.04689
82.295,12.26984,-0.007209057,0.70558,1.04616
85.095,12.36894,-0.01032566,0.74579,1.04542
87.895,12.4666,-0.01005254,0.78297,1.04466
90.695,12.56322,-0.0101939,0.82369,1.04389
93.495,12.65955,-0.01284448,0.85718,1.04311
96.295,12.75495,-0.01385919,0.89452,1.04231
99.095,12.84958,-0.01646416,0.9297,1.0415
101.895,12.94391,-0.01696143,0.9623,1.04067
104.695,13.03807,-0.02043433,0.98725,1.03984
107.495,13.1318,-0.02184399,1.0081,1.03899
110.295,13.2258,-0.02437018,1.02241,1.03812
113.095,13.31926,-0.02569503,1.03215,1.03724
115.895,13.41239,-0.02831961,1.03942,1.03635
118.695,13.50494,-0.02954121,1.0386,1.03545
121.495,13.5978,-0.03226879,1.03181,1.03453
124.295,13.69012,-0.03491022,1.02066,1.0336
127.095,13.78169,-0.03753814,1.00659,1.03266
129.895,13.87311,-0.03886001,0.99181,1.0317
132.695,13.9639,-0.04160036,0.97378,1.03073
135.495,14.0547,-0.04241132,0.9559,1.02975
138.295,14.14476,-0.04281,0.93642,1.02876
141.095,14.23456,-0.04280429,0.92075,1.02775
143.895,14.32375,-0.04535392,0.91144,1.02673
146.695,14.41283,-0.04805914,0.90086,1.0257
149.495,14.5015,-0.04749148,0.89474,1.02465
152.295,14.59014,-0.04741919,0.89015,1.02359
155.095,14.6784,-0.04842,0.88655,1.02252
157.895,14.7664,-0.04841818,0.88706,1.02144
160.695,14.85433,-0.04656613,0.88602,1.02035
163.495,14.9419,-0.04775829,0.88552,1.01924
166.295,15.02931,-0.04776451,0.8893,1.01812
169.095,15.1169,-0.05029528,0.88932,1.01699
171.895,15.20406,-0.04990851,0.89057,1.01585
174.695,15.291,-0.04887835,0.8901,1.01469
177.495,15.3778,-0.05147946,0.89489,1.01352
180.295,15.46427,-0.05280046,0.89483,1.01235
183.095,15.55055,-0.05280247,0.89598,1.01115
185.895,15.63645,-0.05312997,0.90033,1.00995
188.695,15.7219,-0.05313,0.90381,1.00874
191.495,15.80775,-0.05313464,0.91212,1.00751
194.295,15.8933,-0.05181985,0.91392,1.00627
197.095,15.9787,-0.0504994,0.91855,1.00502
199.895,16.06356,-0.0505,0.92538,1.00376
202.695,16.14892,-0.05050227,0.93266,1.00249
205.495,16.23395,-0.05016868,0.93747,1.00121
208.295,16.31912,-0.05017066,0.94536,0.99991
211.095,16.40411,-0.05148999,0.95433,0.99861
213.895,16.48921,-0.05148995,0.95971,0.99729
216.695,16.57412,-0.05280814,0.96883,0.99596
219.495,16.6588,-0.05347032,0.97336,0.99463
222.295,16.7435,-0.05401018,0.98232,0.99328
225.095,16.8281,-0.05347,0.98615,0.99192
227.895,16.91285,-0.05488725,0.9887,0.99054
230.695,16.99729,-0.05479012,0.994,0.98916
233.495,17.0817,-0.05609811,0.99547,0.98777
236.295,17.16626,-0.05742073,1.00012,0.98637
239.095,17.2507,-0.05873991,1.00125,0.98495
241.895,17.3351,-0.05970241,1.00605,0.98353
244.695,17.41935,-0.06136933,1.00994,0.98209
247.495,17.50369,-0.06273514,1.02881,0.98065
250.295,17.58791,-0.06534062,1.02506,0.97919
253.095,17.67215,-0.06805322,1.01825,0.97773
255.895,17.75645,-0.0701824,1.01096,0.97625
258.695,17.8407,-0.07531419,1.00082,0.97476
261.495,17.9248,-0.08220738,0.99668,0.97327
264.295,18.00882,-0.0927111,1.00225,0.97176
267.095,18.09306,-0.09789198,1.03083,0.97025
269.895,18.1773,-0.11043,1.10091,0.96872
272.695,18.26162,-0.12412,1.2347,0.96718
275.495,18.34597,-0.14224,1.43125,0.96564
278.295,18.4304,-0.16894,1.67055,0.96408
281.095,18.51454,-0.20308,1.88941,0.96252
283.895,18.59979,-0.24499,2.04203,0.96095
286.695,18.68457,-0.29414,2.10344,0.95936
289.495,18.76911,-0.34512,2.10298,0.95777
292.295,18.85377,-0.40362,2.06232,0.95617
295.095,18.93862,-0.46287,2.00956,0.95456
297.895,19.02335,-0.52508,1.95863,0.95294
300.695,19.10758,-0.59042,1.90897,0.95131
303.495,19.19225,-0.65947,1.88803,0.94967
306.295,19.27673,-0.73279,1.87125,0.94802
309.095,19.36133,-0.80901,1.86437,0.94636
311.895,19.4459,-0.88863,1.86649,0.9447
314.695,19.5303,-0.9735,1.87245,0.94302
317.495,19.61514,-1.06354,1.88481,0.94134
320.295,19.69978,-1.15915,1.90537,0.93965
323.095,19.78452,-1.26015,1.92464,0.93795
325.895,19.86952,-1.36506,1.94239,0.93624
328.695,19.9543,-1.47096,1.9553,0.93452
331.495,20.03929,-1.57948,1.96238,0.9328
334.295,20.12399,-1.69551,1.9579,0.93106
337.095,20.20864,-1.81215,1.93412,0.92932
339.895,20.29406,-1.92948,1.89304,0.92757
342.695,20.3795,-2.04884,1.8242,0.92581
345.495,20.4645,-2.16532,1.72398,0.92405
348.295,20.5494,-2.27566,1.58536,0.92227
351.095,20.63464,-2.37731,1.4028,0.92049
353.895,20.71967,-2.4659,1.18279,0.9187
356.695,20.80477,-2.54075,0.95452,0.9169
359.495,20.88978,-2.60071,0.75061,0.9151
362.295,20.97516,-2.64659,0.58093,0.91328
365.095,21.06036,-2.68252,0.45708,0.91146
367.895,21.14548,-2.70888,0.36236,0.90963
370.695,21.23094,-2.72873,0.29611,0.9078
373.495,21.316,-2.74604,0.25158,0.90596
376.295,21.40209,-2.76065,0.21852,0.9041
379.095,21.4876,-2.77178,0.19357,0.90225
381.895,21.5736,-2.78386,0.17438,0.90038
384.695,21.6596,-2.79402,0.15999,0.89851
387.495,21.7457,-2.80267,0.14908,0.89663
390.295,21.83186,-2.81146,0.13908,0.89474
393.095,21.91829,-2.8197,0.13059,0.89285
395.895,22.00459,-2.82844,0.12363,0.89095
398.695,22.09096,-2.83665,0.11738,0.88904
401.495,22.1773,-2.84421,0.10853,0.88713
404.295,22.26391,-2.85269,0.10599,0.88521
407.095,22.3506,-2.85901,0.10284,0.88328
409.895,22.43743,-2.86586,0.09748808,0.88135
412.695,22.5244,-2.87232,0.09573169,0.87941
415.495,22.61136,-2.87822,0.09436807,0.87746
418.295,22.69849,-2.88434,0.0902143,0.87551
421.095,22.78555,-2.8918,0.09111828,0.87355
423.895,22.87288,-2.89988,0.09043469,0.87158
426.695,22.96024,-2.90419,0.09064293,0.86961
429.495,23.04745,-2.91007,0.09072705,0.86764
432.295,23.1353,-2.91492,0.08947803,0.86565
435.095,23.22285,-2.92071,0.09044111,0.86366
437.895,23.31053,-2.92672,0.09289465,0.86167
440.695,23.39835,-2.93333,0.09456678,0.85966
443.495,23.48614,-2.93786,0.09464981,0.85766
446.295,23.5742,-2.94204,0.09835288,0.85564
449.095,23.662,-2.94746,0.09930232,0.85363
451.895,23.75016,-2.95207,0.1039,0.8516
454.695,23.83844,-2.95794,0.10688,0.84957
457.495,23.92676,-2.96209,0.10731,0.84754
460.295,24.01489,-2.96722,0.11179,0.8455
463.095,24.1033,-2.96866,0.11292,0.84345
465.895,24.1917,-2.9747,0.11355,0.8414
468.695,24.28013,-2.97988,0.11545,0.83934
471.495,24.36882,-2.98478,0.1162,0.83728
474.295,24.45737,-2.9894,0.11777,0.83521
477.095,24.54585,-2.99412,0.11908,0.83314
479.895,24.6346,-2.99755,0.12295,0.83106
482.695,24.7236,-3.00071,0.12455,0.82898
485.495,24.81241,-3.00662,0.12416,0.8269
488.295,24.90138,-3.01137,0.12736,0.82481
491.095,24.99045,-3.01698,0.12902,0.82271
493.895,25.07956,-3.01863,0.1308,0.82061
496.695,25.1688,-3.02146,0.13099,0.8185
499.495,25.258,-3.02417,0.13152,0.81639
502.295,25.34712,-3.02876,0.13352,0.81428
505.095,25.43648,-3.03292,0.13467,0.81216
507.895,25.52603,-3.03589,0.13592,0.81004
510.695,25.6153,-3.03847,0.13912,0.80791
513.495,25.7049,-3.04175,0.13954,0.80578
516.295,25.79459,-3.04407,0.14579,0.80364
519.095,25.88445,-3.04709,0.14846,0.8015
521.895,25.97407,-3.04962,0.15163,0.79936
524.695,26.06382,-3.0524,0.15592,0.79721
527.495,26.154,-3.0552,0.16013,0.79506
530.295,26.24362,-3.0579,0.16534,0.7929
533.095,26.33405,-3.05874,0.16644,0.79074
535.895,26.42403,-3.06238,0.16928,0.78858
538.695,26.51424,-3.06486,0.17246,0.78641
541.495,26.6045,-3.06904,0.17399,0.78424
544.295,26.69472,-3.07039,0.17644,0.78206
547.095,26.78503,-3.07171,0.17896,0.77989
549.895,26.8754,-3.07426,0.17865,0.7777
552.695,26.9656,-3.07552,0.1763,0.77552
555.495,27.0562,-3.07951,0.17212,0.77333
558.295,27.1465,-3.08055,0.1664,0.77114
561.095,27.2372,-3.08197,0.16603,0.76894
563.895,27.32775,-3.08327,0.16555,0.76675
566.695,27.4185,-3.0859,0.16558,0.76455
569.495,27.50907,-3.08721,0.16614,0.76234
572.295,27.59985,-3.08988,0.16608,0.76013
575.095,27.69087,-3.09115,0.16657,0.75792
577.895,27.78189,-3.09184,0.16705,0.75571
580.695,27.87298,-3.09321,0.16965,0.75349
583.495,27.964,-3.09542,0.16816,0.75128
586.295,28.0552,-3.09677,0.17193,0.74905
589.095,28.14612,-3.09876,0.17085,0.74683
591.895,28.2374,-3.10085,0.17362,0.7446
594.695,28.32868,-3.10215,0.17597,0.74237
597.495,28.41985,-3.10349,0.17518,0.74014
600.295,28.51148,-3.10563,0.17616,0.73791
603.095,28.6028,-3.10577,0.18049,0.73567
605.895,28.69427,-3.10644,0.18218,0.73343
608.695,28.7857,-3.10775,0.18587,0.73119
611.495,28.8774,-3.10905,0.19168,0.72895
614.295,28.9687,-3.10906,0.19217,0.7267
617.095,29.0603,-3.1117,0.19649,0.72445
619.895,29.15225,-3.11167,0.19937,0.7222
622.695,29.24418,-3.11302,0.20903,0.71995
625.495,29.33595,-3.11423,0.21337,0.7177
628.295,29.42776,-3.117,0.21609,0.71544
631.095,29.51966,-3.11829,0.22031,0.71318
633.895,29.6115,-3.11953,0.21969,0.71093
636.695,29.7035,-3.11927,0.22124,0.70866
639.495,29.7955,-3.12059,0.22175,0.7064
642.295,29.88751,-3.12059,0.22219,0.70414
645.095,29.9796,-3.12191,0.22142,0.70187
647.895,30.07183,-3.12256,0.21893,0.6996
650.695,30.16395,-3.12341,0.21782,0.69733
653.495,30.256,-3.12533,0.21556,0.69506
656.295,30.3482,-3.1252,0.21303,0.69279
659.095,30.44037,-3.1266,0.21,0.69052
661.895,30.5327,-3.12784,0.20761,0.68825
664.695,30.62482,-3.12651,0.20578,0.68597
667.495,30.7169,-3.12783,0.20275,0.68369
670.295,30.8092,-3.12783,0.19706,0.68142
673.095,30.9016,-3.13069,0.19578,0.67914
675.895,30.994,-3.13078,0.19543,0.67686
678.695,31.08615,-3.12938,0.18894,0.67458
681.495,31.17819,-3.13136,0.18732,0.67229
684.295,31.27065,-3.132,0.18593,0.67001
687.095,31.36314,-3.13328,0.18381,0.66773
689.895,31.45549,-3.13237,0.18148,0.66544
692.695,31.548,-3.13424,0.17866,0.66316
695.495,31.64082,-3.13333,0.18163,0.66088
696.195,31.6638,-3.13333,0.18027,0.6603

File: Rayon_Bamboo_Pillowcase_STA_N2_30KData_220523_R2.csv
##Temp./Â°C,Time/min,Mass loss(subtr.2)/mg,DSC(subtr.2)/(mW/mg),Sensit./(uV/mW)
48.586,10.01,-0.03305,0.0337559,1.054
51.386,10.8505,-0.03260689,0.19832,1.05343
54.186,11.07127,-0.03391465,0.30919,1.05284
56.986,11.2395,-0.03357647,0.39954,1.05224
59.786,11.3834,-0.03530084,0.47724,1.05162
62.586,11.51265,-0.03560086,0.54561,1.05099
65.386,11.63327,-0.03532608,0.60503,1.05035
68.186,11.74772,-0.0353283,0.66402,1.04969
70.986,11.85786,-0.03742352,0.72108,1.04902
73.786,11.96458,-0.03822437,0.76976,1.04833
76.586,12.0689,-0.04033093,0.81955,1.04763
79.386,12.17078,-0.04135607,0.86881,1.04692
82.186,12.27165,-0.04295823,0.92067,1.04619
84.986,12.37092,-0.04376478,0.96712,1.04545
87.786,12.46868,-0.04678046,1.01773,1.04469
90.586,12.56507,-0.04973377,1.0659,1.04392
93.386,12.66157,-0.05241634,1.11217,1.04314
96.186,12.757,-0.05249142,1.15505,1.04234
98.986,12.85178,-0.05516262,1.19198,1.04153
101.786,12.94632,-0.05873614,1.22949,1.04071
104.586,13.04055,-0.0616951,1.2589,1.03987
107.386,13.13434,-0.06428021,1.28021,1.03902
110.186,13.22834,-0.06822512,1.2976,1.03816
112.986,13.3217,-0.07073798,1.30947,1.03728
115.786,13.41489,-0.07451443,1.31267,1.03639
118.586,13.5081,-0.07759824,1.31237,1.03548
121.386,13.6004,-0.08159234,1.30546,1.03457
124.186,13.69261,-0.08421467,1.28954,1.03364
126.986,13.78425,-0.08554148,1.27396,1.0327
129.786,13.8752,-0.08683946,1.25342,1.03174
132.586,13.9666,-0.0894608,1.23358,1.03077
135.386,14.0571,-0.09055886,1.21252,1.02979
138.186,14.14725,-0.09078237,1.19409,1.0288
140.986,14.2371,-0.0931002,1.17583,1.02779
143.786,14.32649,-0.09379057,1.16451,1.02677
146.586,14.4156,-0.09474183,1.15315,1.02574
149.386,14.5042,-0.09605987,1.14877,1.02469
152.186,14.5927,-0.09605998,1.14474,1.02364
154.986,14.68104,-0.09738898,1.14279,1.02257
157.786,14.7691,-0.09870001,1.14607,1.02148
160.586,14.85711,-0.09939298,1.14923,1.02039
163.386,14.94483,-0.10133,1.15254,1.01928
166.186,15.0323,-0.10133,1.15448,1.01817
168.986,15.11985,-0.10133,1.15499,1.01703
171.786,15.20706,-0.10232,1.15686,1.01589
174.586,15.2941,-0.10103,1.15859,1.01474
177.386,15.38084,-0.10105,1.16071,1.01357
180.186,15.46742,-0.10231,1.15901,1.01239
182.986,15.55365,-0.09962791,1.1642,1.0112
185.786,15.6399,-0.09968034,1.16908,1.01
188.586,15.72585,-0.10199,1.17236,1.00878
191.386,15.8114,-0.10199,1.17543,1.00756
194.186,15.8968,-0.10199,1.18289,1.00632
196.986,15.9824,-0.10231,1.18999,1.00507
199.786,16.06765,-0.10298,1.19811,1.00381
202.586,16.1528,-0.10428,1.20451,1.00254
205.386,16.23801,-0.10495,1.21042,1.00126
208.186,16.32316,-0.10594,1.21686,0.99997
210.986,16.408,-0.10594,1.22529,0.99866
213.786,16.49305,-0.10463,1.23183,0.99734
216.586,16.57791,-0.10594,1.23908,0.99602
219.386,16.66272,-0.10595,1.24646,0.99468
222.186,16.74738,-0.10729,1.25345,0.99333
224.986,16.83219,-0.10726,1.25767,0.99197
227.786,16.91658,-0.10858,1.26532,0.9906
230.586,17.0011,-0.1099,1.26721,0.98922
233.386,17.0853,-0.11123,1.26995,0.98782
236.186,17.16992,-0.11122,1.27319,0.98642
238.986,17.25442,-0.11122,1.27417,0.98501
241.786,17.33887,-0.11253,1.27713,0.98358
244.586,17.42312,-0.11385,1.2823,0.98215
247.386,17.50725,-0.11637,1.30046,0.9807
250.186,17.59159,-0.11786,1.29,0.97925
252.986,17.67579,-0.12039,1.28226,0.97778
255.786,17.76016,-0.12408,1.27369,0.97631
258.586,17.84436,-0.12937,1.26186,0.97482
261.386,17.92841,-0.13501,1.25581,0.97333
264.186,18.01241,-0.14351,1.26059,0.97182
266.986,18.09657,-0.15132,1.28853,0.9703
269.786,18.18079,-0.16273,1.35921,0.96878
272.586,18.2647,-0.17746,1.49931,0.96724
275.386,18.34931,-0.19536,1.70792,0.9657
278.186,18.43374,-0.22191,1.9581,0.96414
280.986,18.51839,-0.25946,2.19359,0.96258
283.786,18.60305,-0.30075,2.3581,0.96101
286.586,18.68779,-0.35054,2.43074,0.95942
289.386,18.7721,-0.40453,2.4281,0.95783
292.186,18.8571,-0.46162,2.38297,0.95623
294.986,18.9416,-0.52016,2.32857,0.95462
297.786,19.0261,-0.58241,2.27385,0.953
300.586,19.11058,-0.64945,2.22734,0.95137
303.386,19.19504,-0.71909,2.19677,0.94973
306.186,19.2794,-0.79275,2.17776,0.94808
308.986,19.36393,-0.87178,2.1701,0.94643
311.786,19.4482,-0.95413,2.17001,0.94476
314.586,19.5328,-1.03994,2.18087,0.94309
317.386,19.61729,-1.13001,2.19709,0.94141
320.186,19.70177,-1.2245,2.21732,0.93972
322.986,19.7864,-1.32403,2.23429,0.93802
325.786,19.87111,-1.42824,2.25634,0.93631
328.586,19.95579,-1.53594,2.27008,0.93459
331.386,20.04066,-1.64979,2.27334,0.93287
334.186,20.12556,-1.76854,2.26474,0.93113
336.986,20.21043,-1.88888,2.24019,0.92939
339.786,20.2951,-2.00812,2.19136,0.92764
342.586,20.38025,-2.12491,2.1177,0.92588
345.386,20.46527,-2.24184,2.00746,0.92412
348.186,20.55038,-2.35314,1.85794,0.92234
350.986,20.63532,-2.45615,1.66407,0.92056
353.786,20.72065,-2.54915,1.43471,0.91877
356.586,20.80564,-2.62552,1.19325,0.91697
359.386,20.8906,-2.686,0.97767,0.91517
362.186,20.97557,-2.73188,0.80474,0.91335
364.986,21.06096,-2.76855,0.67038,0.91153
367.786,21.1462,-2.79496,0.57257,0.90971
370.586,21.23144,-2.81571,0.50103,0.90787
373.386,21.31672,-2.83234,0.45141,0.90603
376.186,21.40258,-2.84788,0.41844,0.90418
378.986,21.4883,-2.86082,0.39217,0.90232
381.786,21.57411,-2.87138,0.3731,0.90045
384.586,21.66004,-2.88204,0.35845,0.89858
387.386,21.74609,-2.89176,0.34387,0.8967
390.186,21.83226,-2.90137,0.33113,0.89482
392.986,21.9185,-2.90982,0.32114,0.89292
395.786,22.005,-2.91726,0.30928,0.89102
398.586,22.09141,-2.92542,0.30586,0.88912
401.386,22.1781,-2.93367,0.29798,0.8872
404.186,22.26475,-2.94226,0.2929,0.88528
406.986,22.35156,-2.94817,0.28567,0.88336
409.786,22.4384,-2.95581,0.28291,0.88142
412.586,22.52523,-2.96175,0.27826,0.87948
415.386,22.61225,-2.96944,0.27511,0.87754
418.186,22.69955,-2.97628,0.27276,0.87559
420.986,22.7869,-2.9843,0.27144,0.87363
423.786,22.8744,-2.98937,0.2679,0.87166
426.586,22.9619,-2.9944,0.26669,0.86969
429.386,23.04916,-3.00118,0.26634,0.86771
432.186,23.13676,-3.00804,0.26387,0.86573
434.986,23.2246,-3.01242,0.26376,0.86374
437.786,23.3124,-3.0177,0.2627,0.86174
440.586,23.40029,-3.0241,0.26355,0.85974
443.386,23.4882,-3.03039,0.2666,0.85774
446.186,23.5763,-3.03375,0.26719,0.85572
448.986,23.66443,-3.03832,0.26841,0.8537
451.786,23.75272,-3.04351,0.27057,0.85168
454.586,23.84092,-3.04922,0.26941,0.84965
457.386,23.92932,-3.05371,0.27019,0.84762
460.186,24.01761,-3.05799,0.27377,0.84558
462.986,24.10623,-3.06415,0.27412,0.84353
465.786,24.19495,-3.06989,0.2755,0.84148
468.586,24.2836,-3.07489,0.27885,0.83942
471.386,24.37238,-3.07969,0.27949,0.83736
474.186,24.46111,-3.0841,0.27955,0.83529
476.986,24.54982,-3.08886,0.28359,0.83322
479.786,24.63881,-3.09281,0.28759,0.83115
482.586,24.72782,-3.09618,0.28863,0.82906
485.386,24.8167,-3.09814,0.28961,0.82698
488.186,24.9056,-3.10402,0.29219,0.82489
490.986,24.99456,-3.10981,0.29225,0.82279
493.786,25.08367,-3.1139,0.29619,0.82069
496.586,25.17295,-3.11797,0.29653,0.81858
499.386,25.26211,-3.12098,0.29786,0.81648
502.186,25.35108,-3.12374,0.30344,0.81436
504.986,25.44055,-3.12782,0.30642,0.81224
507.786,25.53002,-3.13168,0.30648,0.81012
510.586,25.6192,-3.13632,0.31072,0.80799
513.386,25.70889,-3.13939,0.31575,0.80586
516.186,25.7985,-3.14115,0.31909,0.80372
518.986,25.88826,-3.14324,0.32257,0.80158
521.786,25.97754,-3.14722,0.3278,0.79944
524.586,26.06767,-3.14894,0.33319,0.79729
527.386,26.15746,-3.15025,0.33491,0.79514
530.186,26.24755,-3.15311,0.33578,0.79298
532.986,26.3377,-3.15705,0.34086,0.79082
535.786,26.42778,-3.1599,0.33897,0.78866
538.586,26.518,-3.16254,0.34302,0.78649
541.386,26.6083,-3.16255,0.34518,0.78432
544.186,26.69834,-3.16458,0.34626,0.78215
546.986,26.7887,-3.1678,0.34865,0.77997
549.786,26.879,-3.17044,0.35232,0.77779
552.586,26.96932,-3.17176,0.35459,0.7756
555.386,27.05978,-3.17318,0.35426,0.77342
558.186,27.15039,-3.17465,0.35133,0.77122
560.986,27.2408,-3.178,0.34656,0.76903
563.786,27.3316,-3.18205,0.3458,0.76683
566.586,27.4222,-3.18329,0.34202,0.76463
569.386,27.513,-3.18352,0.3393,0.76243
572.186,27.6036,-3.1872,0.33787,0.76022
574.986,27.6943,-3.19084,0.33567,0.75801
577.786,27.78513,-3.19255,0.33417,0.7558
580.586,27.87598,-3.19292,0.33654,0.75358
583.386,27.96697,-3.19522,0.33677,0.75136
586.186,28.05798,-3.19787,0.34161,0.74914
588.986,28.1489,-3.19916,0.33885,0.74692
591.786,28.2401,-3.1992,0.33673,0.74469
594.586,28.3312,-3.19988,0.34077,0.74246
597.386,28.4223,-3.20188,0.34342,0.74023
600.186,28.5136,-3.20205,0.34224,0.73799
602.986,28.6048,-3.20478,0.33702,0.73576
605.786,28.6963,-3.20433,0.33808,0.73352
608.586,28.7877,-3.20469,0.34058,0.73128
611.386,28.8793,-3.20602,0.34384,0.72903
614.186,28.9707,-3.20869,0.34544,0.72679
616.986,29.06242,-3.20732,0.34862,0.72454
619.786,29.15397,-3.20986,0.35655,0.72229
622.586,29.2457,-3.21128,0.36119,0.72004
625.386,29.3375,-3.21127,0.36577,0.71779
628.186,29.4291,-3.21323,0.37226,0.71553
630.986,29.52093,-3.21457,0.37682,0.71327
633.786,29.61288,-3.21593,0.37865,0.71101
636.586,29.7049,-3.21652,0.38391,0.70875
639.386,29.79673,-3.21722,0.3851,0.70649
642.186,29.8888,-3.2172,0.38808,0.70423
644.986,29.98068,-3.21851,0.39027,0.70196
647.786,30.07268,-3.21985,0.3885,0.69969
650.586,30.1648,-3.21983,0.38967,0.69742
653.386,30.25665,-3.22115,0.38856,0.69515
656.186,30.3488,-3.22243,0.3848,0.69288
658.986,30.4409,-3.22375,0.39033,0.69061
661.786,30.53295,-3.22244,0.38835,0.68833
664.586,30.62505,-3.22487,0.39093,0.68606
667.386,30.71707,-3.22379,0.38575,0.68378
670.186,30.8093,-3.22511,0.38641,0.6815
672.986,30.9013,-3.2261,0.38023,0.67923
675.786,30.9937,-3.22643,0.38391,0.67695
678.586,31.0859,-3.22775,0.38672,0.67466
681.386,31.1782,-3.22906,0.37713,0.67238
684.186,31.2705,-3.22967,0.38096,0.6701
686.986,31.36287,-3.23038,0.37987,0.66782
689.786,31.45515,-3.2317,0.38008,0.66553
692.586,31.5476,-3.2317,0.37504,0.66325
695.386,31.6405,-3.2317,0.37621,0.66096
696.186,31.66661,-3.2317,0.37458,0.66031