Folder: fsri_materials_database/01_Data/Rayon_Bamboo_Pillowcase/STA/N2/3K_min

Note: 01_Data/README.md
# Materials and Products Database
## 01_Data

Raw data generated from each apparatus are included here in plain-text format. The data is organized first by material, next by the short name of test apparatus used, and where applicable additional filtering by test settings.

### material.json

Each material directory contains a json file of the same name as the material. This file links the data stored in the repository as well as data and graphs produced by the accompanying scripts (__02_Scripts__) to the respective landing page for the material on the front-end website.

File: Rayon_Bamboo_Pillowcase_STA_N2_3KData_220523_R1.csv
##Temp./Â°C,Time/min,Mass loss(subtr.2)/mg,DSC(subtr.2)/(mW/mg),Sensit./(uV/mW)
50.171,10.01667,-0.03821,0.03888903,1.05675
52.971,12.1691,-0.04130941,0.09663992,1.05644
55.771,13.23964,-0.04524,0.10927,1.05611
58.571,14.259,-0.04754864,0.11841,1.05577
61.371,15.2422,-0.05182004,0.12871,1.05542
64.171,16.20189,-0.05446295,0.13786,1.05506
66.971,17.1534,-0.05877118,0.14304,1.05468
69.771,18.09628,-0.06236022,0.14574,1.05429
72.571,19.037,-0.06600632,0.14837,1.05389
75.371,19.9787,-0.0703059,0.15064,1.05348
78.171,20.91199,-0.07352313,0.14981,1.05305
80.971,21.8481,-0.07850001,0.14439,1.05261
83.771,22.78526,-0.08139165,0.14001,1.05216
86.571,23.7169,-0.0864,0.13657,1.0517
89.371,24.64976,-0.08969978,0.12832,1.05122
92.171,25.5798,-0.09298989,0.12431,1.05073
94.971,26.5095,-0.09703617,0.11747,1.05022
97.771,27.43785,-0.09826068,0.11653,1.0497
100.571,28.36122,-0.09980185,0.11202,1.04917
103.371,29.28477,-0.1009,0.10851,1.04863
106.171,30.2126,-0.10148,0.10721,1.04807
108.971,31.1316,-0.1022,0.10601,1.04751
111.771,32.05276,-0.10305,0.10531,1.04692
114.571,32.9766,-0.10488,0.10615,1.04633
117.371,33.8984,-0.10607,0.10596,1.04572
120.171,34.82176,-0.10684,0.10657,1.04509
122.971,35.74201,-0.10682,0.10775,1.04446
125.771,36.66065,-0.10946,0.10716,1.04381
128.571,37.57775,-0.11077,0.10399,1.04314
131.371,38.5023,-0.11046,0.10622,1.04247
134.171,39.42168,-0.11111,0.10685,1.04178
136.971,40.33868,-0.11207,0.10927,1.04107
139.771,41.25448,-0.11143,0.10856,1.04035
142.571,42.17137,-0.11281,0.10709,1.03962
145.371,43.091,-0.11242,0.10724,1.03888
148.171,44.00777,-0.11243,0.10779,1.03812
150.971,44.92046,-0.1134,0.10735,1.03734
153.771,45.83337,-0.11275,0.10774,1.03656
156.571,46.74732,-0.11404,0.10893,1.03576
159.371,47.66287,-0.11406,0.11029,1.03494
162.171,48.57458,-0.11308,0.11079,1.03411
164.971,49.4863,-0.11275,0.11002,1.03327
167.771,50.40365,-0.11275,0.11387,1.03241
170.571,51.31817,-0.11409,0.11371,1.03154
173.371,52.2267,-0.1144,0.11298,1.03066
176.171,53.13476,-0.1144,0.11411,1.02976
178.971,54.0429,-0.11341,0.11411,1.02885
181.771,54.95796,-0.1144,0.11495,1.02792
184.571,55.86916,-0.11274,0.11779,1.02698
187.371,56.77927,-0.11341,0.11682,1.02602
190.171,57.68878,-0.11197,0.11884,1.02505
192.971,58.5947,-0.11342,0.12194,1.02407
195.771,59.50297,-0.11309,0.12281,1.02307
198.571,60.41114,-0.11538,0.12122,1.02206
201.371,61.31977,-0.11505,0.12212,1.02103
204.171,62.2262,-0.11637,0.12162,1.01999
206.971,63.1342,-0.11669,0.12129,1.01893
209.771,64.04268,-0.11809,0.12245,1.01786
212.571,64.94964,-0.11967,0.12162,1.01677
215.371,65.85258,-0.12,0.12211,1.01567
218.171,66.7595,-0.12223,0.12417,1.01456
220.971,67.6677,-0.12626,0.12242,1.01343
223.771,68.57505,-0.13125,0.12087,1.01229
226.571,69.48098,-0.13541,0.1227,1.01113
229.371,70.38831,-0.13976,0.12338,1.00996
232.171,71.29725,-0.14703,0.12394,1.00877
234.971,72.2046,-0.15493,0.12847,1.00757
237.771,73.1131,-0.16398,0.1354,1.00635
240.571,74.02001,-0.17936,0.14856,1.00512
243.371,74.92737,-0.19686,0.17037,1.00388
246.171,75.8365,-0.2242,0.19219,1.00262
248.971,76.74053,-0.25648,0.20332,1.00134
251.771,77.64754,-0.29526,0.20177,1.00005
254.571,78.55279,-0.33775,0.20024,0.99875
257.371,79.4582,-0.38379,0.20183,0.99743
260.171,80.3665,-0.43352,0.20513,0.9961
262.971,81.27079,-0.48715,0.21319,0.99475
265.771,82.17745,-0.54235,0.21843,0.99338
268.571,83.08366,-0.6034,0.21866,0.99201
271.371,83.99146,-0.66507,0.22132,0.99061
274.171,84.8965,-0.72761,0.22281,0.98921
276.971,85.80581,-0.79343,0.22124,0.98778
279.771,86.71615,-0.86604,0.22665,0.98635
282.571,87.62376,-0.93828,0.22474,0.9849
285.371,88.53769,-1.01748,0.2269,0.98343
288.171,89.443,-1.09988,0.23335,0.98195
290.971,90.35092,-1.18711,0.23264,0.98045
293.771,91.26348,-1.28054,0.23426,0.97894
296.571,92.1708,-1.37757,0.23819,0.97742
299.371,93.0808,-1.47998,0.2385,0.97588
302.171,93.99257,-1.58928,0.23811,0.97432
304.971,94.90469,-1.7,0.23801,0.97275
307.771,95.8113,-1.81794,0.23977,0.97117
310.571,96.7178,-1.93634,0.23572,0.96957
313.371,97.62618,-2.05682,0.23124,0.96796
316.171,98.53876,-2.1803,0.22637,0.96633
318.971,99.4497,-2.30399,0.21853,0.96469
321.771,100.365,-2.42246,0.20514,0.96303
324.571,101.274,-2.5315,0.18851,0.96136
327.371,102.185,-2.6273,0.15738,0.95967
330.171,103.0943,-2.70549,0.12553,0.95797
332.971,104.009,-2.76334,0.09663923,0.95626
335.771,104.928,-2.80458,0.07460688,0.95453
338.571,105.84,-2.83458,0.06761509,0.95278
341.371,106.746,-2.85754,0.05786281,0.95103
344.171,107.662,-2.87344,0.05492174,0.94925
346.971,108.577,-2.88759,0.05407801,0.94747
349.771,109.492,-2.90109,0.05053916,0.94566
352.571,110.406,-2.91299,0.04736069,0.94385
355.371,111.321,-2.92268,0.04851298,0.94202
358.171,112.239,-2.93276,0.0463542,0.94017
360.971,113.156,-2.94295,0.04673281,0.93831
363.771,114.071,-2.95186,0.04734777,0.93644
366.571,114.989,-2.95973,0.04773693,0.93455
369.371,115.9088,-2.96848,0.04628915,0.93265
372.171,116.826,-2.97444,0.04408345,0.93074
374.971,117.7423,-2.98248,0.04966423,0.92881
377.771,118.658,-2.98998,0.04997918,0.92686
380.571,119.578,-2.99566,0.05847408,0.92491
383.371,120.496,-3.0016,0.0530413,0.92293
386.171,121.415,-3.00885,0.05577129,0.92095
388.971,122.338,-3.01448,0.05787716,0.91895
391.771,123.255,-3.01971,0.05845244,0.91694
394.571,124.171,-3.02491,0.0582966,0.91491
397.371,125.087,-3.0315,0.05816555,0.91287
400.171,126.008,-3.03814,0.055844,0.91081
402.971,126.93,-3.04408,0.05759503,0.90875
405.771,127.851,-3.0487,0.05562082,0.90667
408.571,128.772,-3.05321,0.05180917,0.90457
411.371,129.698,-3.05973,0.05186633,0.90246
414.171,130.623,-3.06384,0.05109499,0.90034
416.971,131.545,-3.06756,0.05267693,0.8982
419.771,132.469,-3.07446,0.05152638,0.89606
422.571,133.387,-3.07965,0.05323553,0.89389
425.371,134.307,-3.08492,0.05062036,0.89172
428.171,135.231,-3.08881,0.04974706,0.88953
430.971,136.157,-3.09393,0.0513456,0.88733
433.771,137.077,-3.09941,0.05273882,0.88512
436.571,137.997,-3.10434,0.05156662,0.88289
439.371,138.923,-3.10898,0.05393764,0.88065
442.171,139.851,-3.11324,0.05156727,0.8784
444.971,140.7729,-3.11851,0.05201394,0.87613
447.771,141.695,-3.12312,0.04973623,0.87385
450.571,142.618,-3.12613,0.04978536,0.87156
453.371,143.546,-3.13036,0.04772788,0.86926
456.171,144.474,-3.13434,0.04806804,0.86695
458.971,145.399,-3.13827,0.05017769,0.86462
461.771,146.323,-3.14088,0.04946226,0.86228
464.571,147.245,-3.14504,0.04908553,0.85993
467.371,148.173,-3.14849,0.0506778,0.85756
470.171,149.105,-3.15112,0.04868848,0.85519
472.971,150.029,-3.15441,0.04742377,0.8528
475.771,150.958,-3.15738,0.0474096,0.8504
478.571,151.884,-3.15868,0.04803986,0.84798
481.371,152.8081,-3.16166,0.04721819,0.84556
484.171,153.742,-3.16527,0.04505392,0.84312
486.971,154.67,-3.16791,0.0480319,0.84068
489.771,155.598,-3.16856,0.04600539,0.83822
492.571,156.525,-3.17352,0.04624538,0.83575
495.371,157.452,-3.17482,0.04646668,0.83327
498.171,158.386,-3.17812,0.04479319,0.83078
500.971,159.314,-3.1801,0.04768281,0.82827
503.771,160.24,-3.18045,0.04664588,0.82576
506.571,161.171,-3.18549,0.04673216,0.82323
509.371,162.107,-3.18607,0.04695286,0.8207
512.171,163.034,-3.18669,0.0483871,0.81815
514.971,163.962,-3.19038,0.04975662,0.81559
517.771,164.894,-3.19259,0.05266858,0.81302
520.571,165.825,-3.19163,0.04913569,0.81044
523.371,166.759,-3.19591,0.04880737,0.80785
526.171,167.693,-3.1972,0.04814424,0.80525
528.971,168.623,-3.1993,0.05124146,0.80264
531.771,169.56,-3.1988,0.05086135,0.80002
534.571,170.493,-3.2012,0.05117287,0.7974
537.371,171.425,-3.20358,0.0494682,0.79476
540.171,172.35,-3.20448,0.05236207,0.79211
542.971,173.281,-3.20544,0.05054919,0.78945
545.771,174.217,-3.20556,0.04959403,0.78678
548.571,175.158,-3.2092,0.0527228,0.7841
551.371,176.0898,-3.21083,0.05193886,0.78141
554.171,177.022,-3.21062,0.05486073,0.77872
556.971,177.953,-3.21133,0.052582,0.77601
559.771,178.889,-3.21468,0.05194451,0.7733
562.571,179.826,-3.21611,0.04963811,0.77057
565.371,180.763,-3.21501,0.05260242,0.76784
568.171,181.696,-3.21699,0.05427362,0.7651
570.971,182.63,-3.21644,0.05255458,0.76235
573.771,183.569,-3.21887,0.05559413,0.75959
576.571,184.51,-3.22061,0.05771194,0.75682
579.371,185.443,-3.221,0.05163458,0.75405
582.171,186.379,-3.22299,0.05331601,0.75127
584.971,187.313,-3.22215,0.05285981,0.74848
587.771,188.253,-3.22259,0.0532473,0.74568
590.571,189.193,-3.22455,0.05841958,0.74287
593.371,190.1313,-3.22555,0.05332156,0.74006
596.171,191.068,-3.22687,0.05731178,0.73723
598.971,192.006,-3.22528,0.05775917,0.73441
601.771,192.945,-3.22785,0.05821555,0.73157
604.571,193.883,-3.22785,0.05952607,0.72873
607.371,194.821,-3.23038,0.05906046,0.72588
610.171,195.761,-3.23016,0.05969159,0.72302
612.971,196.701,-3.22852,0.05783772,0.72015
615.771,197.638,-3.22977,0.05798729,0.71728
618.571,198.578,-3.23104,0.05207203,0.7144
621.371,199.518,-3.23182,0.05145516,0.71152
624.171,200.4536,-3.23312,0.04880453,0.70863
626.971,201.392,-3.23583,0.05074612,0.70573
629.771,202.337,-3.22879,0.0411166,0.70283
632.571,203.2767,-3.23497,0.0457252,0.69992
635.371,204.22,-3.23452,0.04985241,0.69701
638.171,205.157,-3.23455,0.04508714,0.69409
640.971,206.094,-3.23685,0.04570375,0.69116
643.771,207.035,-3.23584,0.04507953,0.68823
646.571,207.979,-3.23652,0.0404099,0.6853
649.371,208.922,-3.23817,0.03952183,0.68235
652.171,209.862,-3.23785,0.03528018,0.67941
654.971,210.803,-3.23986,0.03696597,0.67646
657.771,211.7457,-3.24049,0.03767333,0.6735
660.571,212.686,-3.24114,0.02756622,0.67054
663.371,213.6248,-3.24082,0.02517087,0.66757
666.171,214.566,-3.24278,0.01489065,0.66461
668.971,215.511,-3.2431,0.00843528,0.66163
671.771,216.455,-3.2441,0.00692397,0.65865
674.571,217.401,-3.24509,0.00345043,0.65567
677.371,218.341,-3.2464,0.00266178,0.65269
680.171,219.284,-3.24641,-0.002592376,0.6497
682.971,220.225,-3.24773,-0.0007328016,0.6467
685.771,221.169,-3.2488,-0.00673552,0.64371
688.571,222.115,-3.25036,-0.008681132,0.64071
691.371,223.054,-3.25082,-0.00566177,0.6377
694.171,223.995,-3.25305,-0.0009910424,0.6347
696.971,224.938,-3.25332,0.003154728,0.63169
699.771,225.88,-3.25431,0.00668855,0.62868
702.071,226.655,-3.25529,0.001390098,0.6262