Folder: fsri_materials_database/01_Data/Luan_Panel/Cone (part 3)

File: Luan_Panel_Cone_HF50Scan_220916_R2.csv
Names,Time,Stack TC,Smoke TC,Exh Press,Smoke Comp,Smoke Meas,CO Meter,CO2 Meter,O2 Meter,Sample Mass,Ext Coeff,Start Test,Flame Verif
Chan Gain,,500,500,1,1,1,1,1,1,1,1,1.0,1.0
Offset,,0,0,0.146632,0,0,0,0,0,0,0,0.0,0.0
Gain,,1,1,25.011,13.0826,14.7555,1,1,1,1.00088,1.03743,1.0,1.0
Units,sec,C,C,Pa,%,%,%,%,%,g,/m,,
Baseline,,47.1365,48.3524,143.147,100.054,105.124,0.000364682,0.0447236,20.9863,-449.541,-0.449758,,
12,2.75,46.1838,47.2135,142.264,100.563,106.067,0.000148766,0.0503925,20.978,90.0393,-0.484942,0.0,0.0
24,5.75,45.6995,47.554,138.831,100.562,105.68,0.000367334,0.0505277,20.9816,89.9592,-0.451803,0.0,0.0
36,8.75,46.4452,47.8316,144.315,100.573,104.192,0.000463043,0.0502006,20.9842,89.8691,-0.321689,0.0,0.0
48,11.75,46.6023,47.746,142.75,100.554,103.466,0.000623986,0.0504279,20.9823,89.759,-0.259876,0.0,0.0
60,14.75,46.7486,47.963,129.004,100.528,105.112,0.00105544,0.0598398,20.953,89.5889,-0.40581,0.0,1.0
72,17.75,48.6748,49.2239,127.201,100.505,103.881,0.0019018,0.101653,20.7719,89.1585,-0.300613,0.0,1.0
84,20.75,50.5285,49.8967,123.427,100.472,102.416,0.00253868,0.177008,20.5998,88.6781,-0.174378,0.0,0.0
96,23.75,54.6021,52.7758,118.782,100.431,101.33,0.00318254,0.248506,20.4987,88.1777,-0.0811181,0.0,0.0
108,26.75,57.7525,55.9179,125.126,100.41,100.879,0.00381282,0.308383,20.4501,87.6472,-0.0424641,0.0,0.0
120,29.75,61.0832,58.07,119.821,100.346,99.7303,0.00436044,0.349612,20.4431,87.1568,0.0560413,0.0,0.0
132,32.75,63.06,60.8278,120.531,100.32,100.394,0.00484385,0.375496,20.4626,86.6763,-0.0066373,0.0,0.0
144,35.75,64.6482,62.2168,122.726,100.268,101.223,0.00480425,0.386167,20.499,86.2259,-0.0862563,0.0,0.0
156,38.75,65.786,63.5837,127.595,100.22,101.893,0.00474466,0.386444,20.5382,85.8256,-0.150648,0.0,0.0
168,41.75,66.5345,64.9826,131.24,100.17,102.573,0.00479349,0.37914,20.5735,85.4352,-0.215707,0.0,0.0
180,44.75,67.0536,66.0916,130.994,100.112,102.143,0.004696,0.367521,20.6121,85.0149,-0.18285,0.0,0.0
192,47.75,67.2906,66.4576,135.134,100.049,102.862,0.00471648,0.357301,20.6321,84.6445,-0.252393,0.0,0.0
204,50.75,67.2953,67.1118,128.995,99.9687,103.287,0.00432102,0.350987,20.6387,84.2542,-0.297189,0.0,0.0
216,53.75,68.1631,67.9679,120.819,99.9092,102.263,0.00399061,0.349654,20.6223,83.8639,-0.211895,0.0,0.0
228,56.75,68.9937,68.8326,125.795,99.8361,101.783,0.00419933,0.356078,20.5913,83.3734,-0.175735,0.0,0.0
240,59.75,69.3527,69.9435,127.51,99.7619,102.118,0.00439481,0.366584,20.5598,82.913,-0.212412,0.0,0.0
252,62.75,70.6878,71.0361,126.771,99.676,101.25,0.00429451,0.376239,20.5466,82.4726,-0.142587,0.0,0.0
264,65.75,71.0768,71.7363,127.749,99.6081,102.497,0.00403106,0.381534,20.5478,82.0222,-0.26013,0.0,0.0
276,68.75,71.8545,73.0327,126.743,99.5379,103.191,0.00361824,0.383244,20.5565,81.6219,-0.328034,0.0,0.0
288,71.75,72.442,73.9072,126.24,99.4552,102.637,0.00338183,0.382907,20.562,81.1915,-0.286617,0.0,0.0
300,74.75,72.7527,73.7167,124.898,99.383,102.746,0.00325388,0.383479,20.5614,80.7811,-0.302809,0.0,0.0
312,77.75,73.0039,75.2049,128.265,99.3247,103.482,0.00300465,0.38622,20.5567,80.3808,-0.373126,0.0,0.0
324,80.75,74.0863,75.8314,127.822,99.2484,102.555,0.00296669,0.392015,20.5419,79.9504,-0.29829,0.0,0.0
336,83.75,74.5943,76.6553,127.136,99.1977,102.704,0.00321428,0.400738,20.5251,79.51,-0.316078,0.0,0.0
348,86.75,75.8781,77.5717,124.547,99.1223,102.03,0.00356303,0.411896,20.5034,79.1197,-0.263155,0.0,0.0
360,89.75,76.4034,78.5186,122.08,99.06,99.6988,0.00377037,0.425144,20.482,78.7093,-0.0584967,0.0,0.0
372,92.75,76.8407,78.5484,124.003,98.9925,99.5668,0.00390847,0.434739,20.4749,78.2389,-0.0526463,0.0,0.0
384,95.75,77.2216,79.8595,122.265,98.9446,98.9968,0.00390196,0.440846,20.4734,77.8185,-0.0047968,0.0,0.0
396,98.75,77.556,80.048,121.196,98.9023,98.9571,0.00393724,0.443494,20.4765,77.3681,-0.00504645,0.0,0.0
408,101.75,78.0883,80.9986,124.967,98.8631,100.081,0.00399222,0.444506,20.4796,76.9578,-0.111385,0.0,0.0
420,104.75,78.5546,81.4849,122.52,98.8512,99.1346,0.00400885,0.445123,20.4819,76.5975,-0.0260512,0.0,0.0
432,107.75,78.955,82.0229,126.253,98.8412,99.8541,0.00407814,0.445172,20.4852,76.1871,-0.0927875,0.0,0.0
444,110.75,79.5362,82.1307,125.807,98.8671,100.046,0.00425109,0.443791,20.4961,75.7667,-0.107824,0.0,0.0
456,113.75,79.2512,82.5274,124.344,98.9091,100.807,0.00405783,0.441427,20.506,75.3864,-0.172967,0.0,0.0
468,116.75,79.3336,82.6522,125.379,98.955,100.304,0.00346181,0.437726,20.5172,75.0361,-0.123182,0.0,0.0
480,119.75,79.2679,83.1284,126.227,99.0288,101.758,0.00316059,0.431873,20.5336,74.6958,-0.247365,0.0,0.0
492,122.75,78.9357,83.3618,124.313,99.0907,101.286,0.00318389,0.422517,20.5578,74.3755,-0.199419,0.0,0.0
504,125.75,78.556,83.2132,129.506,99.1989,101.077,0.00325032,0.409039,20.5836,74.0852,-0.170654,0.0,0.0
516,128.75,78.2957,83.1677,134.549,99.2959,102.329,0.00323002,0.390107,20.6216,73.815,-0.273814,0.0,0.0
528,131.75,77.5332,82.5151,131.725,99.3949,103.052,0.00319071,0.365424,20.6661,73.6348,-0.328793,0.0,0.0
540,134.75,76.1058,81.5795,141.511,99.4832,104.561,0.00328688,0.335646,20.7266,73.4947,-0.453005,0.0,0.0
552,137.75,74.6346,80.6611,138.064,99.5642,105.269,0.00416547,0.299802,20.7927,73.4247,-0.507074,0.0,0.0
564,140.75,72.8905,79.1421,138.25,99.6509,105.8,0.00588031,0.263914,20.8385,73.3746,-0.544938,0.0,0.0
576,143.75,70.9245,77.685,135.938,99.7467,105.227,0.0074127,0.232034,20.8678,73.2845,-0.486751,0.0,0.0
588,146.75,69.4783,76.4793,142.89,99.8197,104.769,0.00846833,0.20902,20.8822,73.2445,-0.440397,0.0,0.0
600,149.75,68.1927,75.0294,137.952,99.8705,105.322,0.0093826,0.189837,20.8925,73.2645,-0.48368,0.0,0.0
612,152.75,66.9991,74.0926,138.06,99.9136,105.124,0.00998504,0.174608,20.8995,73.1845,-0.462616,0.0,0.0
624,155.75,65.2813,72.6745,139.389,99.9559,104.912,0.0105122,0.163517,20.9013,73.1845,-0.440384,0.0,0.0
636,158.75,64.4125,71.916,141.11,99.985,105.075,0.0107328,0.153898,20.9023,73.1644,-0.451899,0.0,0.0
648,161.75,63.5085,70.953,140.136,100.011,105.491,0.0107354,0.146297,20.9039,73.1244,-0.485502,0.0,0.0
660,164.75,62.8552,69.7835,137.541,100.033,105.283,0.0107767,0.14003,20.9044,73.1244,-0.465539,0.0,0.0
672,167.75,62.1647,69.0343,139.138,100.027,104.848,0.0110415,0.134807,20.9059,73.1144,-0.428407,0.0,0.0
684,170.75,59.7925,66.4138,136.554,100.017,105.591,0.0116015,0.130143,20.9088,73.0543,-0.493539,0.0,0.0
696,173.75,58.232,66.0522,139.715,100.005,105.256,0.0116115,0.1263,20.9107,73.0643,-0.465744,0.0,0.0
708,176.75,58.0609,64.7381,136.455,100,105.502,0.0113558,0.123061,20.9119,73.0143,-0.487415,0.0,0.0
720,179.75,57.4787,63.9679,141.317,99.9942,105.257,0.0110803,0.120707,20.911,72.9943,-0.466767,0.0,0.0
732,182.75,57.3598,63.3652,140.83,99.9687,105.615,0.0105403,0.118345,20.9109,72.9542,-0.500029,0.0,0.0
744,185.75,56.3949,62.6748,142.998,99.9531,104.732,0.00993697,0.116738,20.9098,72.8842,-0.42504,0.0,0.0
756,188.75,56.113,61.58,141.313,99.9571,105.677,0.00961032,0.11538,20.9094,72.8942,-0.506359,0.0,0.0
768,191.75,55.5484,61.3179,139.638,99.9335,104.751,0.00924406,0.114028,20.9093,72.8742,-0.428425,0.0,0.0
780,194.75,55.5524,60.3699,141.094,99.922,104.338,0.0088441,0.113116,20.9099,72.7741,-0.393535,0.0,0.0
792,197.75,54.8476,60.2952,138.921,99.9399,105.217,0.00865807,0.112107,20.9105,72.8141,-0.468243,0.0,0.0
804,200.75,54.3891,59.2101,139.261,99.9251,105.392,0.0085198,0.111398,20.9112,72.7241,-0.484765,0.0,0.0
816,203.75,54.1998,59.548,140.501,99.9268,105.753,0.00822636,0.110744,20.9125,72.644,-0.515711,0.0,0.0
828,206.75,54.2762,58.662,140.05,99.9451,104.891,0.00799229,0.110273,20.9113,72.5739,-0.43953,0.0,0.0
840,209.75,53.428,57.9272,138.602,99.9435,104.847,0.00776051,0.109797,20.9109,72.4738,-0.435885,0.0,0.0
852,212.75,53.8285,57.7949,140.603,99.9539,104.812,0.00756352,0.109348,20.9116,72.5139,-0.431851,0.0,0.0
864,215.75,53.6385,57.7871,141.917,99.9423,105.712,0.00735738,0.108747,20.912,72.4138,-0.510728,0.0,0.0
876,218.75,53.2183,57.3238,137.948,99.9511,105.375,0.00727509,0.108381,20.9121,72.4638,-0.480925,0.0,0.0
888,221.75,52.9136,56.8369,141.114,99.9603,104.479,0.00722768,0.108183,20.9122,72.4138,-0.402331,0.0,0.0
900,224.75,53.1356,56.7485,142.065,99.9603,105.384,0.00727712,0.107917,20.9129,72.3737,-0.480867,0.0,0.0
912,227.75,51.5763,56.4304,139.274,99.9755,105.195,0.00720726,0.107259,20.9155,72.3437,-0.463139,0.0,0.0
924,230.75,51.9695,55.7618,139.35,99.9814,104.808,0.00717485,0.106877,20.9163,72.4238,-0.42903,0.0,0.0
936,233.75,52.3892,55.9627,141.091,99.981,105.045,0.00723452,0.106841,20.9166,72.3237,-0.449648,0.0,0.0
948,236.75,52.0595,55.7489,137.853,99.9894,105.616,0.00704802,0.106653,20.9166,72.2436,-0.498217,0.0,0.0
960,239.75,51.9004,55.6469,142.114,99.9994,105.34,0.00698312,0.106103,20.9162,72.3237,-0.473455,0.0,0.0
972,242.75,52.1119,55.4954,140.809,100.007,104.839,0.00703937,0.106244,20.9135,72.3137,-0.429477,0.0,0.0
984,245.75,51.8267,55.147,140.711,100.008,105.172,0.00710555,0.10657,20.9124,72.2737,-0.458173,0.0,0.0
996,248.75,51.6724,54.6873,141.35,99.999,105.581,0.00700376,0.106508,20.9131,72.2136,-0.494319,0.0,0.0
1008,251.75,51.3787,54.7107,140.85,99.9902,105.063,0.00682977,0.105815,20.913,72.2336,-0.450334,0.0,0.0
1020,254.75,51.7105,53.9055,140.202,99.9842,105.232,0.00662299,0.105849,20.913,72.1836,-0.465495,0.0,0.0
1032,257.75,51.6444,54.0202,137.877,99.9619,104.536,0.00653944,0.105882,20.9137,72.1535,-0.407164,0.0,0.0
1044,260.75,52.0421,53.9213,142.681,99.9287,105.107,0.0065797,0.105432,20.9149,72.1135,-0.459792,0.0,0.0
1056,263.75,50.927,53.8198,140.659,99.8888,105.369,0.00669755,0.105026,20.9152,72.0835,-0.486014,0.0,0.0
1068,266.75,51.4919,53.6887,140.534,99.8329,104.799,0.00661714,0.104982,20.9153,72.1035,-0.441777,0.0,0.0
1080,269.75,51.0055,53.8594,143.362,99.7726,104.829,0.00658969,0.104997,20.9153,72.0635,-0.449894,0.0,0.0
1092,272.75,50.777,53.8975,136.41,99.6844,104.843,0.00671892,0.10463,20.9158,72.0334,-0.459117,0.0,0.0
1104,275.75,51.1511,53.1573,138.12,99.5914,104.936,0.00665498,0.104431,20.9163,71.9534,-0.47574,0.0,0.0
1116,278.75,50.9996,53.6742,142.259,99.5083,104.695,,0.104255,,71.8833,-0.462376,0.0,0.0
1128,281.75,51.0378,53.0906,138.309,99.4321,104.514,,,,71.8233,-0.453604,0.0,0.0
1140,284.75,50.5367,53.175,142.209,99.3534,104.81,,,,71.7932,-0.486569,0.0,0.0
1152,287.75,50.4396,52.4397,138.896,99.2935,104.336,,,,71.7332,-0.450832,0.0,0.0
1156,288.75,50.8232,52.9513,142.735,99.2684,104.263,,,,71.7432,-0.446693,0.0,0.0

File: Luan_Panel_Cone_HF50Scan_220916_R3.csv
Names,Time,Stack TC,Smoke TC,Exh Press,Smoke Comp,Smoke Meas,CO Meter,CO2 Meter,O2 Meter,Sample Mass,Ext Coeff,Start Test,Flame Verif
Chan Gain,,500,500,1,1,1,1,1,1,1,1,1.0,1.0
Offset,,0,0,0.146632,0,0,0,0,0,0,0,0.0,0.0
Gain,,1,1,25.011,13.0826,14.7555,1,1,1,1.00088,1.03743,1.0,1.0
Units,sec,C,C,Pa,%,%,%,%,%,g,/m,,
Baseline,,51.0701,52.2393,141.557,99.9786,105.379,0.000420905,0.0454518,20.9871,-449.72,-0.478654,,
11,2.5,49.2989,50.9722,144.229,99.3402,104.621,0.000136922,0.0487483,20.9808,95.1538,-0.471301,0.0,0.0
22,5.25,49.7133,50.4154,145.79,99.4624,104.404,0.000179936,0.0482381,20.983,95.0837,-0.441216,0.0,0.0
33,8,49.5015,51.1234,143.835,99.5986,104.25,0.000327203,0.0479037,20.9838,94.9937,-0.415413,0.0,0.0
44,10.75,49.882,50.919,138.522,99.712,102.973,0.000476014,0.048738,20.9849,94.9136,-0.292893,0.0,0.0
55,13.5,50.1626,51.2594,135.127,99.8285,105.057,0.000789216,0.0611286,20.9423,94.8235,-0.464556,0.0,1.0
66,16.25,51.917,51.7925,122.949,99.9104,103.015,0.00138931,0.116019,20.7713,94.3331,-0.278502,0.0,1.0
77,19,54.018,52.7113,120.933,99.9691,101.36,0.00217097,0.203004,20.5799,93.7826,-0.125781,0.0,1.0
88,21.75,57.4225,55.17,123.399,100.02,99.4164,0.00328022,0.286783,20.4465,93.3022,0.0550968,0.0,0.0
99,24.5,61.0193,58.3521,119.24,100.051,98.7865,0.004233,0.363226,20.3775,92.8718,0.115779,0.0,0.0
110,27.25,64.2635,61.535,119.189,100.056,97.9908,0.00485126,0.409,20.3685,92.3013,0.189811,0.0,0.0
121,30,66.3341,63.8369,122.136,100.047,98.7554,0.00504446,0.431397,20.3958,91.7908,0.118243,0.0,0.0
132,32.75,68.0924,65.8383,127.694,100.025,99.4547,0.00508489,0.435351,20.4401,91.4706,0.0520652,0.0,0.0
143,35.5,69.3266,67.2904,124.87,99.9926,101.086,0.00503543,0.42736,20.4904,91.1503,-0.0989829,0.0,0.0
154,38.25,69.1895,68.1251,130.502,99.9751,102.373,0.00475198,0.411038,20.5484,90.8,-0.215709,0.0,0.0
165,41,70.2202,69.2525,127.332,99.9347,102.16,0.00435783,0.392746,20.5926,90.4497,-0.200387,0.0,0.0
176,43.75,70.6435,69.7381,127.734,99.8912,102.542,0.00400685,0.377305,20.6162,90.0293,-0.238303,0.0,0.0
187,46.5,70.892,70.3368,130.116,99.8437,103.255,0.00371743,0.367012,20.6248,89.699,-0.305754,0.0,0.0
198,49.25,71.1505,71.0295,133.308,99.8241,103.5,0.00331488,0.36026,20.6245,89.3687,-0.329062,0.0,0.0
209,52,71.8064,71.0745,125.416,99.779,103.221,0.00304334,0.358594,20.6126,89.0284,-0.308674,0.0,0.0
220,54.75,72.2693,72.2368,123.893,99.7387,102.508,0.00309799,0.361425,20.6006,88.6481,-0.249249,0.0,0.0
231,57.5,72.4197,73.0184,126.364,99.694,103.558,0.00326676,0.364359,20.5925,88.1576,-0.346081,0.0,0.0
242,60.25,73.2263,73.9235,127.349,99.6636,103.434,0.00350833,0.365387,20.5893,87.8173,-0.337923,0.0,0.0
253,63,74.1176,74.4683,130.451,99.6393,103.621,0.00386856,0.366401,20.5851,87.4871,-0.356574,0.0,0.0
264,65.75,74.6544,75.7752,123.235,99.6221,103.788,0.00407634,0.370303,20.5764,87.0967,-0.372802,0.0,0.0
275,68.5,75.3571,76.3229,125.156,99.5678,103.765,0.00388461,0.376071,20.5672,86.6163,-0.375789,0.0,0.0
286,71.25,76.1084,77.199,124.799,99.5375,103.692,0.0035583,0.385027,20.5472,86.1959,-0.372124,0.0,0.0
297,74,76.6201,77.6119,126.468,99.5235,103.396,0.0033633,0.397856,20.5248,85.8556,-0.34736,0.0,0.0
308,76.75,77.2195,78.6052,127.914,99.5179,102.333,0.00332213,0.410184,20.511,85.4453,-0.253853,0.0,0.0
319,79.5,77.9488,79.1783,126.22,99.5143,101.4,0.00352493,0.420608,20.5009,85.0349,-0.170788,0.0,0.0
330,82.25,78.3146,80.3979,128.265,99.5007,101.026,0.00387095,0.428103,20.4963,84.5645,-0.138425,0.0,0.0
341,85,78.2457,81.2327,126.882,99.5123,100.969,0.00399979,0.431381,20.5006,84.1641,-0.132253,0.0,0.0
352,87.75,79.7943,81.6723,124.236,99.5151,101.337,0.00393778,0.431753,20.5061,83.8338,-0.165136,0.0,0.0
363,90.5,79.2589,81.7806,124.973,99.5263,100.763,0.00397164,0.431079,20.5084,83.4935,-0.112409,0.0,0.0
374,93.25,80.2643,81.7527,130.845,99.5535,100.407,0.00414601,0.431504,20.5091,83.1332,-0.07766,0.0,0.0
385,96,79.7492,82.9226,128.782,99.569,100.762,0.00432677,0.431887,20.5078,82.6628,-0.108382,0.0,0.0
396,98.75,79.8698,83.629,121.91,99.5866,100.095,0.00444209,0.43326,20.5022,82.2925,-0.0463865,0.0,0.0
407,101.5,80.3769,83.5042,120.194,99.6185,99.4849,0.0043989,0.436191,20.4962,82.0322,0.0122158,0.0,0.0
418,104.25,80.8588,84.0371,125.621,99.6409,100.89,0.00438215,0.440718,20.4878,81.6519,-0.113358,0.0,0.0
429,107,81.5387,84.2525,124.319,99.6764,100.052,0.00449252,0.44522,20.4826,81.2415,-0.0342504,0.0,0.0
440,109.75,82.1261,84.7044,126.843,99.7076,100.369,0.00439501,0.449719,20.4791,80.8012,-0.0601548,0.0,0.0
451,112.5,82.2091,85.0839,126.096,99.7471,100.513,0.00416095,0.453108,20.4789,80.3908,-0.069644,0.0,0.0
462,115.25,82.1482,85.8302,124.685,99.8022,100.241,0.00402281,0.452949,20.4872,80.1806,-0.0399206,0.0,0.0
473,118,82.2979,86.1822,126.407,99.8441,100.968,0.00391574,0.449254,20.4996,79.8403,-0.101882,0.0,0.0
484,120.75,81.8863,86.066,125.685,99.8748,99.6776,0.00360209,0.439795,20.5228,79.51,0.0179884,0.0,0.0
495,123.5,82.2827,85.5933,124.648,99.896,100.304,0.00337975,0.425147,20.5495,79.2198,-0.0370499,0.0,0.0
506,126.25,81.5121,86.0033,129.655,99.9287,102.002,0.0032686,0.403692,20.5915,79.0997,-0.186842,0.0,0.0
517,129,81.043,85.7622,133.599,99.9735,103.324,0.00334074,0.370129,20.6624,78.9095,-0.299966,0.0,0.0
528,131.75,79.1998,85.0254,135.748,99.9906,104.834,0.0040611,0.331184,20.7299,78.8394,-0.430424,0.0,0.0
539,134.5,77.7645,83.7236,138.531,100.002,105.555,0.00528236,0.286332,20.7986,78.6993,-0.491776,0.0,0.0
550,137.25,76.204,82.6408,137.258,100.02,105.457,0.00659483,0.249225,20.8406,78.6793,-0.48171,0.0,0.0
561,140,74.629,81.1668,141.434,100.029,105.543,0.00774203,0.219249,20.8657,78.6893,-0.488294,0.0,0.0
572,142.75,72.8279,80.0076,140.486,100.023,105.777,0.0086575,0.196107,20.8817,78.6593,-0.508967,0.0,0.0
583,145.5,71.4758,78.3542,132.512,100.026,105.095,0.0099152,0.178967,20.8886,78.6493,-0.449833,0.0,0.0
594,148.25,70.1154,78.002,141.973,100.006,104.98,0.0114219,0.165641,20.8919,78.4991,-0.441777,0.0,0.0
605,151,67.4272,74.5936,136.023,99.9974,105.259,0.012782,0.154974,20.8972,78.409,-0.46667,0.0,0.0
616,153.75,66.1334,73.8472,141.118,99.983,105.394,0.0136501,0.146412,20.9006,78.5292,-0.47965,0.0,0.0
627,156.5,65.493,72.6363,138.796,99.9479,105.993,0.0136578,0.138934,20.9038,78.4591,-0.534415,0.0,0.0
638,159.25,64.1647,71.612,140.578,99.9192,105.346,0.0131275,0.133387,20.9058,78.349,-0.481267,0.0,0.0
649,162,62.7375,70.5443,139.277,99.8732,104.971,0.0124853,0.128955,20.9064,78.2889,-0.453066,0.0,0.0
660,164.75,62.4382,69.4703,136.782,99.8533,104.292,0.0117362,0.125584,20.9074,78.299,-0.395824,0.0,0.0
671,167.5,61.6534,68.4973,136.585,99.8277,104.983,0.011167,0.122442,20.9085,78.309,-0.458189,0.0,0.0
682,170.25,61.2116,67.9898,139.657,99.8046,105.331,0.0107828,0.119963,20.909,78.2789,-0.490464,0.0,0.0
693,173,60.7063,66.8956,138.584,99.7718,104.839,0.0104831,0.118244,20.909,78.1388,-0.450865,0.0,0.0
704,175.75,59.5252,66.2006,138.336,99.7315,104.75,0.0100281,0.11682,20.9079,78.1288,-0.446763,0.0,0.0
715,178.5,59.4331,65.9774,138.53,99.7112,105.209,0.00953865,0.115514,20.9075,78.1788,-0.488436,0.0,0.0
726,181.25,59.2086,65.3441,136.838,99.7115,105.194,0.00927525,0.114702,20.9074,78.1588,-0.487076,0.0,0.0
737,184,58.6849,64.509,134.455,99.6936,105.36,0.00913346,0.113752,20.9074,78.1288,-0.50304,0.0,0.0
748,186.75,58.44,64.3941,139.708,99.6708,104.714,0.00892156,0.112641,20.9082,78.0087,-0.44921,0.0,0.0
759,189.5,57.8493,63.2369,142.417,99.662,104.929,0.00866277,0.111788,20.9092,77.9286,-0.4687,0.0,0.0
770,192.25,57.244,63.4854,139.771,99.6688,104.617,0.00849924,0.111167,20.9095,77.9987,-0.440936,0.0,0.0
781,195,56.8993,62.2078,138.473,99.6481,105.552,0.00828138,0.110905,20.911,77.9386,-0.523827,0.0,0.0
792,197.75,56.2647,61.8699,140.937,99.6545,104.751,0.0080778,0.110407,20.9117,77.8385,-0.453914,0.0,0.0
803,200.5,56.5059,60.8006,137.538,99.6545,105.135,0.0079122,0.109827,20.9119,77.8486,-0.487222,0.0,0.0
814,203.25,56.3012,61.2591,141.524,99.66,105.235,0.00763573,0.109727,20.9115,77.8786,-0.49536,0.0,0.0
825,206,55.8078,60.3011,138.163,99.6848,105.13,0.00757016,0.109527,20.9102,77.8886,-0.484023,0.0,0.0
836,208.75,55.1476,59.819,140.237,99.6924,104.853,0.0076786,0.109332,20.9101,77.8586,-0.459327,0.0,0.0
847,211.5,55.4978,59.9924,138.067,99.6928,105.137,0.00750081,0.108932,20.9114,77.7285,-0.483879,0.0,0.0
858,214.25,55.0815,59.7189,137.152,99.7072,105.091,0.00720051,0.108514,20.9118,77.7084,-0.478552,0.0,0.0
869,217,54.9057,59.4101,138.715,99.7112,104.872,0.00705189,0.108389,20.9122,77.7485,-0.459255,0.0,0.0
880,219.75,55.1205,59.2597,139.757,99.7267,105.353,0.006944,0.108239,20.9127,77.7385,-0.49947,0.0,0.0
891,222.5,54.8707,58.7847,141.127,99.7367,104.803,0.00694624,0.107932,20.9128,77.6984,-0.450865,0.0,0.0
902,225.25,54.7861,58.3626,137.783,99.7403,104.977,0.0069866,0.107917,20.9133,77.5983,-0.465696,0.0,0.0
913,228,54.5822,58.192,138.076,99.7547,104.424,0.00710403,0.107692,20.9141,77.5583,-0.416282,0.0,0.0
924,230.75,54.5703,57.638,137.767,99.779,105.034,0.00714322,0.107371,20.9145,77.6284,-0.46712,0.0,0.0
935,233.5,54.43,57.7663,137.883,99.7742,105.37,0.00707651,0.107241,20.914,77.5783,-0.496575,0.0,0.0
946,236.25,53.931,57.51,140.992,99.7503,104.866,0.00716988,0.10684,20.9134,77.5083,-0.455099,0.0,0.0
957,239,53.9306,57.5961,138.158,99.7455,104.76,0.00727073,0.106435,20.9146,77.4582,-0.446347,0.0,0.0
968,241.75,53.9542,57.4424,140.272,99.7439,104.85,0.00727827,0.106087,20.9146,77.4682,-0.454314,0.0,0.0
979,244.5,54.5386,57.1387,138.936,99.7283,105.342,0.00713166,0.10572,20.9146,77.4782,-0.498314,0.0,0.0
990,247.25,53.682,57.2902,136.359,99.7299,104.483,0.00686737,0.105308,20.9151,77.4482,-0.423719,0.0,0.0
1001,250,53.7641,56.3673,138.312,99.7072,105.355,0.006698,0.105309,20.9141,77.3281,-0.501373,0.0,0.0
1012,252.75,53.7387,56.6001,144.498,99.6716,104.825,0.00667327,0.105305,20.915,77.2981,-0.45876,0.0,0.0
1023,255.5,53.0921,56.5546,141.891,99.6728,104.837,0.0066635,0.10504,20.9152,77.3581,-0.459706,0.0,0.0
1034,258.25,53.524,56.1101,145.36,99.6648,105.046,0.00679449,0.10462,20.916,77.3381,-0.478553,0.0,0.0
1045,261,53.5888,56.4611,139.102,99.6341,105.067,,0.104389,,77.3181,-0.483155,0.0,0.0
1056,263.75,53.3489,56.0488,137.313,99.6049,104.218,,,,77.218,-0.412039,0.0,0.0
1067,266.5,53.6249,55.4769,139.158,99.5894,105.171,,,,77.198,-0.496246,0.0,0.0
1078,269.25,53.5366,56.1316,138.726,99.587,104.662,,,,77.2981,-0.452289,0.0,0.0
1079,269.5,53.1624,55.3629,140.787,99.5766,104.471,,,,77.208,-0.436621,0.0,0.0