Folder: fsri_materials_database/01_Data/Luan_Panel/Cone (part 2)

File: Luan_Panel_Cone_HF25Scan_220915_R3.csv
Names,Time,Stack TC,Smoke TC,Exh Press,Smoke Comp,Smoke Meas,CO Meter,CO2 Meter,O2 Meter,Sample Mass,Ext Coeff,Start Test,Flame Verif
Chan Gain,,500,500,1,1,1,1,1,1,1,1,1.0,1.0
Offset,,0,0,0.146632,0,0,0,0,0,0,0,0.0,0.0
Gain,,1,1,25.011,13.0826,14.7555,1,1,1,1.00088,1.03743,1.0,1.0
Units,sec,C,C,Pa,%,%,%,%,%,g,/m,,
Baseline,,39.541,40.0237,147.197,100.036,104.347,0.000497903,0.0452104,20.9867,-449.335,-0.383883,,
15,3.5,37.4988,38.5773,149.183,99.6269,103.584,0.000398185,0.0511617,20.9778,86.5963,-0.354422,0.0,0.0
30,7.25,37.6834,38.4687,147.092,99.4876,103.661,0.000323668,0.0487477,20.9801,86.5863,-0.37396,0.0,0.0
45,11,38.2075,38.4155,146.379,99.3339,103.614,0.000459827,0.0469966,20.9837,86.5262,-0.383879,0.0,0.0
60,14.75,38.0294,38.4865,147.635,99.2073,103.502,0.000314463,0.0451325,20.9859,86.4862,-0.385708,0.0,0.0
75,18.5,37.7008,38.4982,147.658,99.0979,103.497,0.000284666,0.0445211,20.9872,86.4261,-0.395233,0.0,0.0
90,22.25,37.8702,38.6113,148.741,99.0037,103.38,0.000277402,0.0439793,20.9876,86.3961,-0.393629,0.0,0.0
105,26,37.9699,38.4407,146.617,98.945,103.411,0.000110511,0.0439052,20.9879,86.3961,-0.40176,0.0,0.0
120,29.75,37.9825,38.9407,147.657,98.9007,103.29,0.00017166,0.044335,20.9884,86.336,-0.395171,0.0,0.0
135,33.5,37.5312,38.7159,148.591,98.8604,103.249,0.000223509,0.0447254,20.9892,86.306,-0.395271,0.0,0.0
150,37.25,37.9591,38.8626,143.108,98.8416,102.387,4.42486e-05,0.0448885,20.9894,86.1859,-0.320714,0.0,0.0
165,41,38.182,38.9608,148.133,98.856,102.672,2.75685e-05,0.0452902,20.9907,86.1158,-0.344651,0.0,0.0
180,44.75,38.1671,38.7137,145.517,98.8755,102.546,6.24727e-05,0.0457341,20.9908,86.0958,-0.331668,0.0,0.0
195,48.5,38.2553,38.7351,147.08,98.9059,102.632,0.000445901,0.0460032,20.9902,86.0158,-0.336585,0.0,0.0
210,52.25,38.2365,38.8499,145.724,98.9482,102.276,0.000783909,0.0465673,20.9884,85.9357,-0.301014,0.0,0.0
225,56,38.5595,38.0492,146.381,98.9969,101.361,0.000903276,0.0471564,20.9879,85.8156,-0.214793,0.0,0.0
240,59.75,38.6771,38.3886,147.237,99.0544,101.221,0.00075086,0.0479106,20.9878,85.7055,-0.196928,0.0,0.0
255,63.5,38.3581,38.4325,144.787,99.131,101.426,0.000755519,0.0485545,20.9871,85.6554,-0.208289,0.0,0.0
270,67.25,38.308,39.2477,146.825,99.1897,100.632,0.000986402,0.0494052,20.987,85.5453,-0.131393,0.0,0.0
285,71,38.6868,38.9266,146.493,99.2752,100.237,0.00119326,0.0502662,20.986,85.4453,-0.0877344,0.0,0.0
300,74.75,38.5301,38.7745,145.301,99.3355,100.291,0.00130326,0.0511126,20.9856,85.2751,-0.0871555,0.0,0.0
315,78.5,38.3637,39.54,147.276,99.4365,100.168,0.00157587,0.0531731,20.9851,85.135,-0.0666629,0.0,0.0
330,82.25,39.1046,39.232,138.881,99.5495,102.833,0.00222099,0.129764,20.8898,84.8848,-0.295311,0.0,1.0
345,86,40.4097,39.7389,131.573,99.6309,101.794,0.0026264,0.268927,20.7184,84.4043,-0.195507,0.0,0.0
360,89.75,43.3142,41.5567,127.888,99.7227,103.073,0.00310414,0.346429,20.6327,83.9139,-0.300739,0.0,0.0
375,93.5,46.3599,44.1263,129.732,99.783,102.187,0.00351634,0.355208,20.6243,83.4935,-0.216659,0.0,0.0
390,97.25,48.0482,45.8875,137.833,99.8561,102.434,0.00345976,0.344963,20.6344,82.913,-0.231988,0.0,0.0
405,101,49.6512,47.5254,136.194,99.9363,103.652,0.00341174,0.332817,20.6487,82.6027,-0.332252,0.0,0.0
420,104.75,50.3883,48.7719,133.967,99.9711,103.371,0.00326401,0.32734,20.6551,82.2124,-0.304347,0.0,0.0
435,108.5,51.9752,50.2232,135.318,100.002,104.591,0.00333031,0.318559,20.6655,81.732,-0.408276,0.0,0.0
450,112.25,52.4752,51.442,133.875,100.012,104.363,0.00325213,0.304776,20.6794,81.3516,-0.387596,0.0,0.0
465,116,52.9969,51.6527,135.459,100.008,103.964,0.00327145,0.293839,20.6907,80.8512,-0.352988,0.0,0.0
480,119.75,53.6014,52.909,135.929,100.03,104.28,0.00318067,0.28703,20.6972,80.571,-0.378619,0.0,0.0
495,123.5,54.4609,53.3892,136.647,100.027,104.234,0.00303887,0.288002,20.6953,80.1206,-0.3749,0.0,0.0
510,127.25,54.844,54.3555,134.361,100.042,104.439,0.00270493,0.291595,20.6907,79.7602,-0.391427,0.0,0.0
525,131,54.8393,55.2589,131.424,100.023,104.784,0.00259978,0.294047,20.6898,79.4099,-0.423141,0.0,0.0
540,134.75,55.4109,55.7482,135.404,100.025,104.594,0.00247397,0.292212,20.6933,78.9796,-0.406404,0.0,0.0
555,138.5,55.679,56.3682,132.612,100.017,105.233,0.00218697,0.288455,20.6965,78.6893,-0.462707,0.0,0.0
570,142.25,56.1684,56.9392,139.347,100.014,104.626,0.00211834,0.291086,20.6942,78.339,-0.410281,0.0,0.0
585,146,56.6276,57.4458,137.796,100.02,105.282,0.00208767,0.296308,20.6914,77.9086,-0.466546,0.0,0.0
600,149.75,57.22,57.8249,137.85,100.01,104.907,0.00201262,0.301428,20.6845,77.4983,-0.434973,0.0,0.0
615,153.5,57.494,58.4575,135.099,99.9986,104.712,0.00231524,0.308431,20.6759,77.0479,-0.419175,0.0,0.0
630,157.25,57.6854,58.8245,134.717,99.9954,104.108,0.00242186,0.312807,20.6715,76.7276,-0.366796,0.0,0.0
645,161,57.6289,59.4807,132.793,99.9962,103.588,0.00225923,0.313309,20.6688,76.3773,-0.321185,0.0,0.0
660,164.75,58.1725,59.7914,134.767,99.983,104.108,0.00237166,0.306306,20.6734,76.037,-0.367882,0.0,0.0
675,168.5,58.3215,59.9462,133.676,99.9639,104.327,0.0023916,0.298931,20.6791,75.6967,-0.388776,0.0,0.0
690,172.25,58.5585,60.3954,136.106,99.9419,104.623,0.00253688,0.290618,20.6886,75.2963,-0.416584,0.0,0.0
705,176,58.4317,60.5423,137.255,99.9351,103.768,0.00272195,0.283785,20.6971,75.0461,-0.342516,0.0,0.0
720,179.75,58.0649,60.9088,139.889,99.9012,104.61,0.00260233,0.283372,20.7002,74.7558,-0.419157,0.0,0.0
735,183.5,58.4385,60.8478,133.672,99.8637,104.342,0.00249333,0.287943,20.6968,74.3455,-0.3992,0.0,0.0
750,187.25,58.5507,61.2033,134.166,99.8154,103.645,0.00251088,0.293,20.6938,74.0052,-0.342603,0.0,0.0
765,191,58.2801,61.1575,135.953,99.7339,103.742,0.00263039,0.301645,20.6866,73.5348,-0.358529,0.0,0.0
780,194.75,58.5616,61.2158,139.299,99.678,103.409,0.00287769,0.311036,20.6767,73.2145,-0.334392,0.0,0.0
795,198.5,59.047,61.3066,133.221,99.587,102.626,0.00274417,0.322323,20.661,72.9142,-0.273571,0.0,0.0
810,202.25,59.557,61.6702,133.05,99.5167,102.517,0.00271384,0.336463,20.6431,72.5039,-0.270327,0.0,0.0
825,206,59.6132,62.3318,132.775,99.4065,103.548,0.00341092,0.344626,20.6314,72.1535,-0.371488,0.0,0.0
840,209.75,59.8906,62.4024,138.225,99.2983,103.071,0.00385907,0.336955,20.64,71.7932,-0.339353,0.0,0.0
855,213.5,59.2923,62.215,140.736,99.1857,103.175,0.00454923,0.299167,20.6734,71.563,-0.358857,0.0,0.0
870,217.25,58.2655,61.9479,144.619,99.0891,102.773,0.00562643,0.246354,20.738,71.3929,-0.332148,0.0,0.0
885,221,57.1698,60.9344,140.528,99.0077,103.797,0.00675473,0.182485,20.8126,71.3128,-0.429933,0.0,0.0
900,224.75,55.7935,59.9878,142.759,98.9154,103.162,0.00852398,0.131332,20.8776,71.2327,-0.382537,0.0,0.0
915,228.5,53.8075,58.6137,140.263,98.8452,103.472,0.0104257,0.0960769,20.9169,71.1927,-0.416293,0.0,0.0
930,232.25,50.3767,55.783,146.199,98.8148,103.151,0.0115494,0.0802173,20.9346,71.1927,-0.390806,0.0,0.0
945,236,49.3806,54.2037,146.587,98.8033,103.354,0.012026,0.0744811,20.941,71.1126,-0.409811,0.0,0.0
960,239.75,48.1517,53.5673,150.615,98.8005,102.954,0.012302,0.0721304,20.9447,71.1226,-0.374712,0.0,0.0
975,243.5,47.3072,52.4014,147.502,98.7957,102.915,0.0123268,0.071316,20.945,71.0826,-0.371769,0.0,0.0
990,247.25,46.2522,51.4425,145.506,98.8029,102.977,0.0123757,0.0717672,20.9444,71.0025,-0.376601,0.0,0.0
1005,251,45.6022,50.4499,142.219,98.8033,102.902,0.0128584,0.0719608,20.9446,71.0626,-0.369916,0.0,0.0
1020,254.75,44.345,49.4099,144.864,98.8084,103.335,0.0132222,0.0715827,20.9462,71.0326,-0.407628,0.0,0.0
1035,258.5,43.8052,48.7825,141.959,98.8068,103.372,0.0130198,0.0714304,20.9465,70.9925,-0.411065,0.0,0.0
1050,262.25,43.1023,47.9137,142.978,98.8073,103.593,0.0133713,0.07086,20.9468,70.8224,-0.430432,0.0,0.0
1065,266,42.8101,46.9454,145.975,98.7993,103.443,0.0142652,0.0720581,20.9455,70.8224,-0.418025,0.0,0.0
1080,269.75,42.2176,46.8948,144.386,98.8232,102.877,0.0149074,0.072871,20.9443,70.8224,-0.365887,0.0,0.0
1095,273.5,42.3018,45.8752,150.817,98.8216,103.205,0.015165,0.0737113,20.9427,70.8324,-0.394986,0.0,0.0
1110,277.25,41.436,45.766,146.048,98.8284,103.108,0.0151079,0.0742086,20.9424,70.7623,-0.385781,0.0,0.0
1125,281,40.9638,44.7736,146.599,98.8404,102.971,0.0150373,0.0744423,20.9423,70.7823,-0.372588,0.0,0.0
1140,284.75,40.2472,44.15,141.915,98.858,103.307,0.0150966,0.0748972,20.9425,70.6923,-0.40061,0.0,0.0
1155,288.5,40.512,43.8821,145.267,98.8935,102.879,0.0150679,0.0758919,20.9408,70.7023,-0.359578,0.0,0.0
1170,292.25,39.6247,43.2069,146.56,98.9186,103.247,0.0147814,0.0764544,20.9404,70.6722,-0.389708,0.0,0.0
1185,296,39.8423,42.922,143.294,98.9494,103.206,0.0145717,0.0767446,20.9404,70.6422,-0.383308,0.0,0.0
1200,299.75,39.9529,42.539,145.143,98.9661,103.315,0.0148104,0.0771512,20.9403,70.5922,-0.391331,0.0,0.0
1215,303.5,39.9992,42.6697,146.754,98.9765,103.584,0.014636,0.0765801,20.9403,70.5321,-0.414103,0.0,0.0
1230,307.25,39.9935,42.0965,146.067,99.0185,103.141,0.014341,0.0763898,20.941,70.5021,-0.371198,0.0,0.0
1245,311,39.4022,41.6679,147.498,99.0472,103.187,0.0141915,0.0761889,20.9415,70.5121,-0.372609,0.0,0.0
1260,314.75,39.1971,41.788,144.005,99.0879,103.793,0.0144023,0.0768961,20.9414,70.5221,-0.422165,0.0,0.0
1275,318.5,38.7823,41.569,151.461,99.1239,103.462,0.0142914,0.0773619,20.9413,70.4821,-0.389801,0.0,0.0
1290,322.25,38.9474,41.1054,146.668,99.1602,103.241,0.0143769,0.077783,20.9416,70.382,-0.367037,0.0,0.0
1305,326,38.7524,40.8412,146.238,99.1901,103.239,0.013941,0.0775886,20.9416,70.402,-0.364051,0.0,0.0
1320,329.75,39.0382,41.0056,149.864,99.2305,103.961,0.0137046,0.0781411,20.9404,70.352,-0.423799,0.0,0.0
1335,333.5,38.7227,40.464,144.22,99.2588,103.601,0.0135355,0.0794076,20.9385,70.3419,-0.389612,0.0,0.0
1350,337.25,38.7655,40.7863,145.502,99.3019,103.617,0.0133237,0.0797419,20.9377,70.2919,-0.387083,0.0,0.0
1365,341,38.7208,40.4106,149.724,99.3143,103.605,,0.0798161,,70.2218,-0.38488,0.0,0.0
1380,344.75,38.6893,40.0692,150.204,99.341,103.982,,,,70.2218,-0.415475,0.0,0.0
1395,348.5,38.9597,40.5812,146.512,99.3822,103.556,,,,70.2118,-0.37439,0.0,0.0
1400,349.75,38.538,40.4217,147.306,99.3658,103.581,,,,70.1418,-0.378067,0.0,0.0

File: Luan_Panel_Cone_HF50Scalar_220915_R1.csv
LABORATORY,FSRI
TEST IDENT,Luan_Panel_HF50_1
OPERATOR,Dow
MATERIAL,Luan Panel
ORIENTATION,Horizontal
HEAT FLUX,50
SURF AREA,0.01
C FACTOR,0.0421844
SPEC HOLDER DIFF,-566
SPECIMEN MASS,18.66
SCAN TIME,0.25
O2 DELAY TIME,11
CO DELAY TIME,11
CO2 DELAY TIME,8
FLOW FACTOR,1
SCAN COUNT,987
TIME TO IGN,12.5
END OF TEST SCAN,507
END OF TEST TIME,126.75
TEST STATUS,1
PRE TEST CMT,Dimensions: 101.83 x 101.62 x 5.01 mm
POST TEST CMT,"Sample warping beginning in second half of test - corners lifted 1-2 cm. Dramatic warping during final decay stage, sample formed arch more than 5 cm tall."

File: Luan_Panel_Cone_HF50Scalar_220916_R2.csv
LABORATORY,FSRI
TEST IDENT,Luan_Panel_HF50_2
OPERATOR,Dow
MATERIAL,Luan panel
ORIENTATION,Horizontal
HEAT FLUX,50
SURF AREA,0.01
C FACTOR,0.0415715
SPEC HOLDER DIFF,-566
SPECIMEN MASS,20.62
SCAN TIME,0.25
O2 DELAY TIME,11
CO DELAY TIME,11
CO2 DELAY TIME,8
FLOW FACTOR,1
SCAN COUNT,1156
TIME TO IGN,14
END OF TEST SCAN,676
END OF TEST TIME,169
TEST STATUS,1
PRE TEST CMT,Dimensions: 101.79 x 101.76 x 5.04 mm; with tie wires

File: Luan_Panel_Cone_HF50Scalar_220916_R3.csv
LABORATORY,FSRI
TEST IDENT,Luan_Panel_HF50_3
OPERATOR,Dow
MATERIAL,Luan panel
ORIENTATION,Horizontal
HEAT FLUX,50
SURF AREA,0.01
C FACTOR,0.0415715
SPEC HOLDER DIFF,-566
SPECIMEN MASS,20.28
SCAN TIME,0.25
O2 DELAY TIME,11
CO DELAY TIME,11
CO2 DELAY TIME,8
FLOW FACTOR,1
SCAN COUNT,1079
TIME TO IGN,13
END OF TEST SCAN,599
END OF TEST TIME,149.75
TEST STATUS,1
PRE TEST CMT,Dimensions: 101.78 x 101.78 x 5.02 mm; with tie wires

File: Luan_Panel_Cone_HF50Scalar_220916_R4.csv
LABORATORY,FSRI
TEST IDENT,Luan_Panel_HF50_4
OPERATOR,Dow
MATERIAL,Luan panel
ORIENTATION,Horizontal
HEAT FLUX,50
SURF AREA,0.01
C FACTOR,0.0415715
SPEC HOLDER DIFF,-566
SPECIMEN MASS,20.16
SCAN TIME,0.25
O2 DELAY TIME,11
CO DELAY TIME,11
CO2 DELAY TIME,8
FLOW FACTOR,1
SCAN COUNT,1115
TIME TO IGN,16
END OF TEST SCAN,635
END OF TEST TIME,158.75
TEST STATUS,1
PRE TEST CMT,Dimensions: 101.83 x 101.69 x 5.04 mm; with tie wires
POST TEST CMT,Test pictures available.

File: Luan_Panel_Cone_HF50Scan_220915_R1.csv
Names,Time,Stack TC,Smoke TC,Exh Press,Smoke Comp,Smoke Meas,CO Meter,CO2 Meter,O2 Meter,Sample Mass,Ext Coeff,Start Test,Flame Verif
Chan Gain,,500,500,1,1,1,1,1,1,1,1,1.0,1.0
Offset,,0,0,0.139139,0,0,0,0,0,0,0,0.0,0.0
Gain,,1,1,25.011,13.0826,14.7555,1,1,1,1.00088,1.03743,1.0,1.0
Units,sec,C,C,Pa,%,%,%,%,%,g,/m,,
Baseline,,52.4588,53.5895,140.467,99.0032,103.765,-0.000548548,0.0496792,20.9926,-447.109,-0.427441,,
10,2.25,50.2598,51.19,140.879,98.6268,103.127,-0.000517579,0.0541969,20.9835,65.0973,-0.406074,0.0,0.0
20,4.75,50.4623,51.8819,140.39,98.638,102.928,-0.000366862,0.0543993,20.9839,65.1173,-0.387462,0.0,0.0
30,7.25,50.6589,51.6009,136.27,98.614,102.283,-0.000345044,0.0544839,20.9856,65.0273,-0.332401,0.0,0.0
40,9.75,50.9012,51.6763,141.145,98.6284,100.771,-0.000308659,0.0548778,20.9852,64.9772,-0.195534,0.0,0.0
50,12.25,50.8641,52.1705,138.587,98.6204,96.9416,0.00011531,0.0579629,20.9572,64.8171,0.156248,0.0,1.0
60,14.75,52.5149,52.6514,121.864,98.6236,101.622,0.00069717,0.0946448,20.7996,64.4067,-0.272551,0.0,1.0
70,17.25,55.2486,53.1048,117.462,98.6136,99.7447,0.00142761,0.180528,20.5716,63.8863,-0.103787,0.0,1.0
80,19.75,59.8774,57.2548,113.984,98.6244,96.7925,0.00240699,0.284271,20.4018,63.3458,0.17062,0.0,0.0
90,22.25,64.3784,60.2725,116.197,98.6136,95.7902,0.00350938,0.378802,20.3005,62.7653,0.264358,0.0,0.0
100,24.75,67.7616,63.9171,117.046,98.6448,96.0468,0.00425264,0.448121,20.2773,62.3049,0.242879,0.0,0.0
110,27.25,69.6474,65.7118,122.882,98.6168,97.6008,0.00466662,0.477885,20.3452,61.8545,0.0942407,0.0,0.0
120,29.75,71.3484,67.7368,123.948,98.6244,98.3934,0.00471726,0.473784,20.4339,61.5342,0.021343,0.0,0.0
130,32.25,71.8257,69.1083,124.753,98.6208,100.933,0.00440791,0.452867,20.5191,61.1839,-0.210862,0.0,0.0
140,34.75,71.6864,69.8836,128.477,98.6252,100.92,0.00401617,0.425742,20.59,60.8736,-0.209279,0.0,0.0
150,37.25,71.7974,70.2103,131.817,98.6228,102.082,0.00356861,0.397055,20.637,60.5733,-0.313704,0.0,0.0
160,39.75,71.0201,69.8179,132.127,98.6112,101.785,0.00312302,0.371394,20.6691,60.2931,-0.288279,0.0,0.0
170,42.25,71.5244,70.714,124.957,98.636,101.848,0.00274737,0.352695,20.6815,60.0329,-0.29159,0.0,0.0
180,44.75,71.5433,71.0178,126.417,98.6144,101.858,0.00264597,0.341328,20.6792,59.7126,-0.294504,0.0,0.0
190,47.25,71.5631,71.4376,126.844,98.6364,101.614,0.00283182,0.337914,20.663,59.3623,-0.270647,0.0,0.0
200,49.75,72.3972,72.257,128.756,98.6256,101.762,0.0031696,0.340169,20.6428,59.062,-0.2849,0.0,0.0
210,52.25,72.627,72.8099,124.346,98.6316,101.458,0.00367876,0.346612,20.6195,58.7317,-0.257085,0.0,0.0
220,54.75,73.9187,73.6784,124.086,98.6444,101.607,0.00432842,0.356926,20.5964,58.3214,-0.269305,0.0,0.0
230,57.25,74.6473,74.3143,127.568,98.6571,101.58,0.00497056,0.36902,20.571,57.931,-0.265666,0.0,0.0
240,59.75,75.2536,75.3596,122.129,98.6412,101.488,0.00537093,0.383874,20.5394,57.5207,-0.258946,0.0,0.0
250,62.25,76.3538,76.2876,120.308,98.6539,101.209,0.0052361,0.403997,20.503,57.1403,-0.232659,0.0,0.0
260,64.75,77.7208,77.6252,117.239,98.6539,100.804,0.00460872,0.428837,20.4636,56.6499,-0.196186,0.0,0.0
270,67.25,79.2058,79.1191,122.102,98.6755,99.8168,0.00402934,0.455001,20.4294,56.2395,-0.104648,0.0,0.0
280,69.75,80.1821,79.8998,122.715,98.6663,98.8,0.0038118,0.480119,20.4014,55.7891,-0.0123202,0.0,0.0
290,72.25,81.065,81.5293,128.234,98.6823,96.4161,0.00423389,0.499937,20.3877,55.3487,0.211422,0.0,0.0
300,74.75,81.4368,81.9965,128.452,98.6839,96.6426,0.00450677,0.511098,20.3991,54.9284,0.190217,0.0,0.0
310,77.25,82.4605,82.5824,120.38,98.6971,97.6418,0.00426543,0.510482,20.4238,54.5681,0.0978239,0.0,0.0
320,79.75,81.97,83.0774,121.438,98.7218,97.7337,0.0038628,0.503565,20.447,54.1677,0.0915476,0.0,0.0
330,82.25,82.1227,83.8775,117.166,98.7274,97.4855,0.00346487,0.494222,20.4648,53.8674,0.115196,0.0,0.0
340,84.75,82.4252,83.9831,122.08,98.7597,98.465,0.00323048,0.486804,20.4711,53.4571,0.027204,0.0,0.0
350,87.25,82.6751,84.6146,123.082,98.7717,97.6418,0.00317185,0.483267,20.4702,53.1068,0.104704,0.0,0.0
360,89.75,82.6434,84.9441,118.839,98.8236,97.9989,0.00323248,0.482278,20.4687,52.7164,0.0762649,0.0,0.0
370,92.25,82.8665,85.1846,124.634,98.858,98.6149,0.00337021,0.482042,20.4674,52.3561,0.0224015,0.0,0.0
380,94.75,83.073,85.5891,126.445,98.9142,98.5834,0.00333364,0.480673,20.4677,51.9958,0.0304914,0.0,0.0
390,97.25,83.1821,85.8992,130.638,98.9634,97.7125,0.00310133,0.479844,20.4665,51.6855,0.115757,0.0,0.0
400,99.75,83.1679,86.268,125.121,99.0181,98.5658,0.00304364,0.479611,20.4683,51.3352,0.0416578,0.0,0.0
410,102.25,83.4102,86.246,125.246,99.0644,98.6388,0.00303819,0.476172,20.4835,51.0349,0.0391802,0.0,0.0
420,104.75,83.3227,86.5459,123.792,99.1151,99.584,0.00289336,0.468727,20.5026,50.7547,-0.0429491,0.0,0.0
430,107.25,83.1769,86.6556,125.952,99.1622,98.3668,0.00262014,0.457749,20.5254,50.4744,0.0732899,0.0,0.0
440,109.75,83.2468,86.3483,125.724,99.2177,99.7411,0.00249601,0.442757,20.5589,50.2342,-0.0478831,0.0,0.0
450,112.25,82.0874,86.1936,125.09,99.2875,99.8424,0.00272192,0.421733,20.5917,49.974,-0.0507168,0.0,0.0
460,114.75,81.6277,85.5465,129.653,99.3402,102.031,0.0035076,0.399513,20.6185,49.7938,-0.243204,0.0,0.0
470,117.25,80.0736,85.3622,134.613,99.4165,104.215,0.00487736,0.374012,20.669,49.7538,-0.428958,0.0,0.0
480,119.75,79.1697,84.1559,133.659,99.4696,104.723,0.00670887,0.336539,20.7285,49.6838,-0.468384,0.0,0.0
490,122.25,76.9888,83.1228,133.446,99.5183,104.53,0.00868125,0.301033,20.7698,49.6237,-0.447087,0.0,0.0
500,124.75,75.7147,82.1646,137.061,99.5435,104.454,0.0102505,0.270622,20.7968,49.5937,-0.438159,0.0,0.0
510,127.25,73.1676,79.3031,134.367,99.599,104.745,0.0112951,0.248389,20.8132,49.5136,-0.458475,0.0,0.0
520,129.75,71.2965,78.5766,134.345,99.6441,104.556,0.0123154,0.232014,20.8205,49.4836,-0.437906,0.0,0.0
530,132.25,70.3666,77.6836,136.019,99.6824,104.456,0.0134015,0.220555,20.8231,49.4135,-0.425702,0.0,0.0
540,134.75,69.6328,76.3951,134.115,99.7032,104.858,0.0143963,0.21229,20.8259,49.3735,-0.458733,0.0,0.0
550,137.25,68.5751,75.3854,139.642,99.7451,105.083,0.0149024,0.205238,20.8325,49.3234,-0.474466,0.0,0.0
560,139.75,67.6187,74.677,135.733,99.7543,104.837,0.0152239,0.198774,20.8365,49.2934,-0.452272,0.0,0.0
570,142.25,66.6509,73.9282,137.181,99.791,104.491,0.0157197,0.193534,20.8392,49.2334,-0.418814,0.0,0.0
580,144.75,65.6273,72.7699,137.006,99.815,104.592,0.0161472,0.189779,20.8398,49.2133,-0.42541,0.0,0.0
590,147.25,65.1877,72.2262,135.135,99.8182,104.107,0.0163805,0.187219,20.8383,49.1733,-0.382823,0.0,0.0
600,149.75,64.6227,71.385,137.877,99.8345,105.397,0.0164397,0.18497,20.8401,49.1333,-0.493412,0.0,0.0
610,152.25,63.5534,70.3306,139.846,99.8277,105.085,0.0164795,0.182081,20.8429,49.0732,-0.467046,0.0,0.0
620,154.75,63.3148,70.2984,136.869,99.8417,105.01,0.0165561,0.179725,20.8451,49.0332,-0.459297,0.0,0.0
630,157.25,62.8491,69.692,132.63,99.8289,104.952,0.0165712,0.17755,20.8461,48.9831,-0.455465,0.0,0.0
640,159.75,62.686,69.0351,133.723,99.8425,104.746,0.0165495,0.1754,20.8467,48.9431,-0.436327,0.0,0.0
650,162.25,61.6492,68.164,138.569,99.8094,104.993,0.0161948,0.173096,20.8497,48.9031,-0.460723,0.0,0.0
660,164.75,61.1257,67.6047,135.875,99.8114,104.648,0.0159391,0.171073,20.8512,48.873,-0.430633,0.0,0.0
670,167.25,61.3232,67.4716,135.359,99.7834,104.833,0.0158937,0.170058,20.8518,48.833,-0.449262,0.0,0.0
680,169.75,60.5783,67.1101,135.335,99.7906,104.666,0.0159668,0.169047,20.852,48.773,-0.434054,0.0,0.0
690,172.25,60.4307,66.3567,138.497,99.7646,104.868,0.0158835,0.167773,20.8547,48.7529,-0.453984,0.0,0.0
700,174.75,59.9913,65.949,133.581,99.7183,104.279,0.0156295,0.166021,20.8574,48.7129,-0.406992,0.0,0.0
710,177.25,59.5315,65.4452,136.72,99.6836,105.102,0.015522,0.16449,20.8574,48.6528,-0.481638,0.0,0.0
720,179.75,59.793,64.7905,137.331,99.6604,104.825,0.0153949,0.163386,20.8578,48.5828,-0.459741,0.0,0.0
730,182.25,59.6112,64.3993,137.1,99.6018,104.889,0.0152564,0.162293,20.8586,48.5628,-0.470651,0.0,0.0
740,184.75,59.2166,64.5083,138.582,99.5343,104.639,0.0152417,0.161457,20.8601,48.5127,-0.455109,0.0,0.0
750,187.25,59.0102,64.1842,136.077,99.4792,104.458,0.0153006,0.160547,20.8622,48.4927,-0.44443,0.0,0.0
760,189.75,58.5842,63.8044,143.398,99.4033,104.199,0.01541,0.159396,20.8637,48.4427,-0.428787,0.0,0.0
770,192.25,58.7228,63.1864,137.703,99.341,104.276,0.01539,0.15873,20.8642,48.4026,-0.441214,0.0,0.0
780,194.75,58.6916,63.1391,135.162,99.2564,104.718,0.0151745,0.158203,20.8648,48.3726,-0.487479,0.0,0.0
790,197.25,58.109,62.8922,134.426,99.2037,104.319,0.0151152,0.157339,20.8661,48.3326,-0.457575,0.0,0.0
800,199.75,57.8757,62.7697,136.534,99.1498,104.499,0.015125,0.156337,20.8666,48.2925,-0.478182,0.0,0.0
810,202.25,57.9635,62.231,135.18,99.1346,104.191,0.0151978,0.155815,20.8681,48.2525,-0.452751,0.0,0.0
820,204.75,58.2513,62.374,137.889,99.1574,104.339,0.015148,0.154981,20.8699,48.2125,-0.463553,0.0,0.0
830,207.25,57.9143,61.4206,137.313,99.2812,103.629,0.014897,0.153494,20.8708,48.1924,-0.390053,0.0,0.0
840,209.75,57.3966,61.595,140.12,99.3614,104.761,0.0144957,0.15242,20.8713,48.1424,-0.481535,0.0,0.0
850,212.25,57.3908,61.3604,139.9,99.4712,104.42,0.01432,0.151683,20.8718,48.1024,-0.441866,0.0,0.0
860,214.75,57.2818,61.4093,137.478,99.5886,104.643,0.0142277,0.150847,20.8719,48.0623,-0.450538,0.0,0.0
870,217.25,57.2667,60.8666,132.669,99.69,104.962,0.0139793,0.150024,20.872,48.0423,-0.468959,0.0,0.0
880,219.75,57.1554,60.1792,138.238,99.7774,104.848,0.0135688,0.1489,20.8741,47.9923,-0.451059,0.0,0.0
890,222.25,57.0182,60.154,137.531,99.8253,105.194,0.0130587,0.147342,20.8787,47.9622,-0.476697,0.0,0.0
900,224.75,56.1638,59.9302,135.233,99.8657,105.342,0.012798,0.146185,20.8793,47.9322,-0.485868,0.0,0.0
910,227.25,56.6398,60.0171,136.41,99.878,105.184,0.0126715,0.145656,20.8797,47.9022,-0.471037,0.0,0.0
920,229.75,56.5549,59.4508,138.316,99.8784,104.806,0.0125677,0.144522,20.8807,47.8321,-0.438215,0.0,0.0
930,232.25,56.6341,59.9446,137.481,99.8405,105.483,0.0126067,0.143419,20.8841,47.8121,-0.500289,0.0,0.0
940,234.75,56.1439,59.6984,132.713,99.8098,105.075,0.012767,0.142395,20.8842,47.7721,-0.467826,0.0,0.0
950,237.25,56.086,59.2748,137.95,99.7155,104.591,,0.142152,,47.732,-0.4344,0.0,0.0
960,239.75,56.8568,59.4057,136.238,99.6445,105.087,,,,47.732,-0.483962,0.0,0.0
970,242.25,56.254,59.5391,137.651,99.5215,104.297,,,,47.692,-0.426504,0.0,0.0
980,244.75,56.2229,59.2106,136.483,99.4688,104.766,,,,47.652,-0.472214,0.0,0.0
987,246.5,56.4457,58.7396,135.802,99.492,104.71,,,,47.662,-0.465165,0.0,0.0