Folder: fsri_materials_database/01_Data/Luan_Panel/Cone

Note: 01_Data/README.md
# Materials and Products Database
## 01_Data

Raw data generated from each apparatus are included here in plain-text format. The data is organized first by material, next by the short name of test apparatus used, and where applicable additional filtering by test settings.

### material.json

Each material directory contains a json file of the same name as the material. This file links the data stored in the repository as well as data and graphs produced by the accompanying scripts (__02_Scripts__) to the respective landing page for the material on the front-end website.

File: Luan_Panel_Cone_HF25Scalar_220915_R1.csv
LABORATORY,FSRI
TEST IDENT,Luan_Panel_HF25_1
OPERATOR,Dow
MATERIAL,Luan panel
ORIENTATION,Horizontal
HEAT FLUX,25
SURF AREA,0.01
C FACTOR,0.0415715
SPEC HOLDER DIFF,-566
SPECIMEN MASS,19.47
SCAN TIME,0.25
O2 DELAY TIME,11
CO DELAY TIME,11
CO2 DELAY TIME,8
FLOW FACTOR,1
SCAN COUNT,1473
TIME TO IGN,80.75
END OF TEST SCAN,993
END OF TEST TIME,248.25
TEST STATUS,1
PRE TEST CMT,Dimensions: 101.82 x 101.80 x 5.01 mm; with tie wires

File: Luan_Panel_Cone_HF25Scalar_220915_R2.csv
LABORATORY,FSRI
TEST IDENT,Luan_Panel_HF25_2
OPERATOR,Dow
MATERIAL,Luan panel
ORIENTATION,Horizontal
HEAT FLUX,25
SURF AREA,0.01
C FACTOR,0.0415715
SPEC HOLDER DIFF,-566
SPECIMEN MASS,18.98
SCAN TIME,0.25
O2 DELAY TIME,11
CO DELAY TIME,11
CO2 DELAY TIME,8
FLOW FACTOR,1
SCAN COUNT,1438
TIME TO IGN,73.5
END OF TEST SCAN,958
END OF TEST TIME,239.5
TEST STATUS,1
PRE TEST CMT,Dimensions: 101.84 x 101.81 x 5.00 mm; with tie wires

File: Luan_Panel_Cone_HF25Scalar_220915_R3.csv
LABORATORY,FSRI
TEST IDENT,Luan_Panel_HF25_3
OPERATOR,Dow
MATERIAL,Luan panel
ORIENTATION,Horizontal
HEAT FLUX,25
SURF AREA,0.01
C FACTOR,0.0415715
SPEC HOLDER DIFF,-566
SPECIMEN MASS,19.72
SCAN TIME,0.25
O2 DELAY TIME,11
CO DELAY TIME,11
CO2 DELAY TIME,8
FLOW FACTOR,1
SCAN COUNT,1400
TIME TO IGN,80.5
END OF TEST SCAN,920
END OF TEST TIME,230
TEST STATUS,1
PRE TEST CMT,Dimensions: 101.84 x 101.81 x 5.08 mm; with tie wires

File: Luan_Panel_Cone_HF25Scan_220915_R1.csv
Names,Time,Stack TC,Smoke TC,Exh Press,Smoke Comp,Smoke Meas,CO Meter,CO2 Meter,O2 Meter,Sample Mass,Ext Coeff,Start Test,Flame Verif
Chan Gain,,500,500,1,1,1,1,1,1,1,1,1.0,1.0
Offset,,0,0,0.146632,0,0,0,0,0,0,0,0.0,0.0
Gain,,1,1,25.011,13.0826,14.7555,1,1,1,1.00088,1.03743,1.0,1.0
Units,sec,C,C,Pa,%,%,%,%,%,g,/m,,
Baseline,,38.6655,39.4627,147.358,100.586,104.901,0.000557076,0.0436442,20.9805,-449.294,-0.382249,,
16,3.75,36.732,37.4936,149.975,99.7942,104.055,0.000650558,0.0476104,20.9796,89.5789,-0.38052,0.0,0.0
32,7.75,37.1373,38.0749,145.41,99.68,104.121,0.000394024,0.0459875,20.9815,89.4688,-0.396686,0.0,0.0
48,11.75,36.93,37.8783,149.739,99.5942,103.991,0.000294127,0.0445327,20.9833,89.4388,-0.393106,0.0,0.0
64,15.75,37.2406,37.8089,146.997,99.5223,103.451,0.000466699,0.0438325,20.9852,89.4888,-0.352303,0.0,0.0
80,19.75,37.5627,37.9335,148.879,99.4688,103.389,0.000536098,0.0436254,20.9859,89.3987,-0.351808,0.0,0.0
96,23.75,37.2861,38.2904,149.216,99.4373,103.567,0.00044981,0.0439076,20.986,89.3887,-0.370297,0.0,0.0
112,27.75,37.2663,37.8224,145.149,99.4097,103.341,0.000393769,0.0444383,20.9843,89.3387,-0.352934,0.0,0.0
128,31.75,37.4608,37.6417,149.75,99.3937,103.695,0.000198334,0.0453906,20.9838,89.3287,-0.38555,0.0,0.0
144,35.75,37.0429,38.2099,149.18,99.4025,103.07,0.000161712,0.0459637,20.9837,89.2486,-0.329728,0.0,0.0
160,39.75,37.5123,37.9545,147.834,99.4301,103.072,0.000432102,0.0464669,20.9821,89.1986,-0.327327,0.0,0.0
176,43.75,37.6238,38.5732,148.861,99.47,102.65,0.000367062,0.0468553,20.981,89.1485,-0.286343,0.0,0.0
192,47.75,37.997,38.0684,149.026,99.4832,102.996,0.000430643,0.0471797,20.9791,89.0584,-0.315786,0.0,0.0
208,51.75,37.7239,37.9746,147.402,99.5379,102.126,0.000828896,0.0476649,20.98,88.9283,-0.233588,0.0,0.0
224,55.75,38.1478,38.0931,154.423,99.5858,102.296,0.000984295,0.0481574,20.979,88.8583,-0.244325,0.0,0.0
240,59.75,37.9315,38.9444,149.426,99.6513,101.689,0.000943875,0.0486281,20.9784,88.7882,-0.184222,0.0,0.0
256,63.75,38.135,38.8412,145.778,99.7403,102.035,0.00113876,0.0493912,20.9806,88.6881,-0.206952,0.0,0.0
272,67.75,38.1434,38.6688,147.772,99.8433,101.147,0.00110028,0.0499486,20.9805,88.4879,-0.118053,0.0,0.0
288,71.75,38.5191,38.5905,145.085,99.9471,100.934,0.00135538,0.0506771,20.9791,88.3478,-0.0894542,0.0,0.0
304,75.75,38.2659,39.2589,145.939,100.051,101.303,0.00160394,0.0513731,20.9788,88.2177,-0.113234,0.0,0.0
320,79.75,37.8536,39.2082,146.814,100.142,100.776,0.00197657,0.057685,20.968,87.9975,-0.0574693,0.0,0.0
336,83.75,39.1096,39.4647,134.434,100.225,104.132,0.00237188,0.157114,20.8632,87.6071,-0.348049,0.0,1.0
352,87.75,40.9518,39.8388,130.122,100.293,104.139,0.00273905,0.282157,20.6997,87.1768,-0.342481,0.0,0.0
368,91.75,44.3125,42.2269,133.001,100.367,103.924,0.00305957,0.340534,20.6328,86.6863,-0.316877,0.0,0.0
384,95.75,46.9014,44.3698,136.194,100.441,103.58,0.00297369,0.343164,20.6334,86.256,-0.280083,0.0,0.0
400,99.75,48.6555,46.4819,137.341,100.496,104.703,0.00256871,0.31729,20.6681,85.8556,-0.373197,0.0,0.0
416,103.75,48.6593,47.6596,138.592,100.565,104.885,0.00247461,0.301528,20.6854,85.4252,-0.382776,0.0,0.0
432,107.75,50.5785,48.6014,138.422,100.605,104.617,0.0025073,0.289995,20.6969,85.0349,-0.355848,0.0,0.0
448,111.75,50.4637,49.2193,137.564,100.614,105.095,0.00256764,0.285612,20.7016,84.6145,-0.396525,0.0,0.0
464,115.75,51.5501,50.7871,135.981,100.615,105.018,0.00250231,0.274928,20.7121,84.2342,-0.389818,0.0,0.0
480,119.75,51.8828,51.5202,138.217,100.569,105.499,0.00245351,0.269065,20.7123,83.8739,-0.435551,0.0,0.0
496,123.75,52.6359,52.1328,135.833,100.51,105.251,0.00222145,0.271018,20.71,83.5135,-0.41936,0.0,0.0
512,127.75,52.9574,52.8437,131.47,100.433,105.389,0.00214332,0.269172,20.7129,83.1232,-0.438396,0.0,0.0
528,131.75,53.389,53.2259,134.098,100.346,105.026,0.00236372,0.26342,20.7202,82.7229,-0.414816,0.0,0.0
544,135.75,53.4523,53.9563,141.475,100.281,104.714,0.00224651,0.259663,20.7266,82.4026,-0.39368,0.0,0.0
560,139.75,53.9212,54.4654,138.539,100.217,105.503,0.00246742,0.258708,20.7272,82.0523,-0.467749,0.0,0.0
576,143.75,54.0331,55.0537,138.374,100.151,104.568,0.00241933,0.266275,20.7184,81.6919,-0.392736,0.0,0.0
592,147.75,54.4592,55.2943,138.103,100.089,104.934,0.00215639,0.280253,20.7022,81.2816,-0.430241,0.0,0.0
608,151.75,55.3064,56.2319,131.856,100.051,105.554,0.00205436,0.293161,20.6894,80.8612,-0.487229,0.0,0.0
624,155.75,55.7396,56.8364,135.713,100.019,104.455,0.0021913,0.308369,20.6694,80.4308,-0.394949,0.0,0.0
640,159.75,55.9804,57.2424,134.111,99.9998,104.333,0.00241793,0.319422,20.6542,79.9404,-0.386055,0.0,0.0
656,163.75,56.9536,58.4304,133.733,99.9818,104.87,0.00230653,0.327194,20.6428,79.53,-0.43435,0.0,0.0
672,167.75,57.144,58.5566,132.759,99.985,103.992,0.0022667,0.325307,20.6437,79.1397,-0.357618,0.0,0.0
688,171.75,57.9278,59.5284,138.774,99.9998,105.326,0.00232812,0.319471,20.6489,78.7494,-0.472251,0.0,0.0
704,175.75,58.259,60.1239,135.61,99.9974,104.843,0.00226544,0.309929,20.6621,78.349,-0.430627,0.0,0.0
720,179.75,58.2127,59.9229,134.831,100.022,104.414,0.00206905,0.304283,20.6706,77.9286,-0.391048,0.0,0.0
736,183.75,58.1564,60.1805,136.97,100.038,104.276,0.00208766,0.303408,20.6738,77.5783,-0.377539,0.0,0.0
752,187.75,58.2427,60.5433,132.144,100.062,103.987,0.00186991,0.306794,20.6722,77.2781,-0.350059,0.0,0.0
768,191.75,58.5897,60.7842,132.966,100.096,103.961,0.00199985,0.31852,20.6575,76.8677,-0.344799,0.0,0.0
784,195.75,59.1081,61.15,129.78,100.13,103.414,0.00215233,0.335409,20.6349,76.4673,-0.293623,0.0,0.0
800,199.75,59.1216,62.0814,130.65,100.165,102.383,0.00218958,0.352386,20.6165,76.047,-0.199231,0.0,0.0
816,203.75,60.3527,61.8803,132.792,100.19,102.616,0.00255668,0.363452,20.6045,75.5966,-0.217728,0.0,0.0
832,207.75,60.2997,62.825,133.595,100.233,103.009,0.00368889,0.355518,20.6123,75.2162,-0.248533,0.0,0.0
848,211.75,60.4693,63.0655,135.855,100.257,103.621,0.00463782,0.324822,20.6447,74.906,-0.300338,0.0,0.0
864,215.75,59.5055,62.5446,141.804,100.302,104.163,0.00571461,0.271468,20.7129,74.6958,-0.34373,0.0,0.0
880,219.75,58.3006,62.4922,136.79,100.343,103.707,0.00678312,0.21334,20.7865,74.5657,-0.3001,0.0,0.0
896,223.75,56.7261,60.5158,145.271,100.396,104.75,0.00815738,0.158936,20.8452,74.3955,-0.386307,0.0,0.0
912,227.75,55.404,60.0684,149.42,100.435,104.451,0.00933893,0.117339,20.891,74.2954,-0.356819,0.0,0.0
928,231.75,53.5262,57.89,144.873,100.473,104.905,0.0101944,0.0927277,20.9188,74.2954,-0.392848,0.0,0.0
944,235.75,51.6515,56.1688,143.875,100.517,104.911,0.0109826,0.078996,20.9333,74.2554,-0.389339,0.0,0.0
960,239.75,51.3309,55.8274,144.273,100.538,104.989,0.0112968,0.0722262,20.9412,74.2254,-0.394182,0.0,0.0
976,243.75,48.724,54.4528,142.217,100.578,104.567,0.0116635,0.0695207,20.9447,74.2254,-0.353883,0.0,0.0
992,247.75,48.3117,53.8291,143.962,100.598,104.984,0.0119867,0.0685788,20.943,74.1853,-0.388408,0.0,0.0
1008,251.75,45.1504,50.7155,146.483,100.623,104.636,0.0123451,0.068194,20.9426,74.2454,-0.355874,0.0,0.0
1024,255.75,44.3242,50.2143,147.611,100.627,104.656,0.0128066,0.0685298,20.9425,74.1753,-0.357196,0.0,0.0
1040,259.75,44.6906,49.0888,141.541,100.641,105.231,0.0132956,0.0689662,20.9408,74.1653,-0.405834,0.0,0.0
1056,263.75,43.767,48.1885,148.589,100.642,104.716,0.0134135,0.0691869,20.941,74.1453,-0.361106,0.0,0.0
1072,267.75,42.998,47.4602,143.339,100.645,104.88,0.0136605,0.0691369,20.9424,74.1053,-0.375126,0.0,0.0
1088,271.75,42.4753,47.0359,145.335,100.642,105.028,0.0140244,0.0693619,20.9426,74.0752,-0.388146,0.0,0.0
1104,275.75,42.022,46.0838,144.006,100.655,104.864,0.0141917,0.0699178,20.9411,74.0452,-0.372814,0.0,0.0
1120,279.75,41.6626,45.6911,143.992,100.624,104.938,0.0143707,0.0703193,20.9407,74.0152,-0.381964,0.0,0.0
1136,283.75,41.5109,45.0147,149.638,100.624,104.951,0.0145784,0.070437,20.9407,73.9852,-0.383136,0.0,0.0
1152,287.75,41.0871,44.5546,145.949,100.617,104.941,0.0146956,0.07142,20.9391,73.9551,-0.382962,0.0,0.0
1168,291.75,41.0886,44.4115,144.794,100.597,105.135,0.0148215,0.0717122,20.9397,73.9251,-0.401545,0.0,0.0
1184,295.75,40.6688,43.5497,148.766,100.581,104.846,0.0149078,0.0720477,20.9406,73.8951,-0.377895,0.0,0.0
1200,299.75,40.4091,43.5892,145.393,100.564,104.925,0.0150501,0.0727146,20.9392,73.835,-0.386325,0.0,0.0
1216,303.75,40.3136,42.7458,145.087,100.544,104.932,0.0148821,0.0728314,20.9405,73.795,-0.38872,0.0,0.0
1232,307.75,40.0176,43.0616,146.982,100.528,105.24,0.014579,0.0729195,20.9415,73.7449,-0.416872,0.0,0.0
1248,311.75,39.9099,42.0305,144.462,100.499,104.599,0.0147822,0.073163,20.9403,73.6749,-0.363898,0.0,0.0
1264,315.75,40.002,41.9713,146.676,100.501,104.811,0.0149911,0.0738132,20.9384,73.6749,-0.382109,0.0,0.0
1280,319.75,39.313,41.3833,145.456,100.471,104.841,0.0144982,0.0741178,20.9376,73.6449,-0.387479,0.0,0.0
1296,323.75,39.4975,41.6809,142.879,100.439,104.938,0.0146137,0.0745298,20.9374,73.6449,-0.398772,0.0,0.0
1312,327.75,38.9647,40.9043,148.258,100.401,104.798,0.0143385,0.0748202,20.9374,73.6348,-0.390132,0.0,0.0
1328,331.75,39.36,40.9543,145.199,100.375,104.844,0.0143817,0.0752046,20.9374,73.5848,-0.396434,0.0,0.0
1344,335.75,39.2893,41.2525,145.634,100.33,104.602,0.0140298,0.0750516,20.9374,73.5548,-0.379437,0.0,0.0
1360,339.75,39.1043,41.2099,146.27,100.299,104.309,0.0139006,0.0756511,20.937,73.5247,-0.356685,0.0,0.0
1376,343.75,38.6978,40.9386,144.007,100.244,104.061,0.013719,0.075878,20.9369,73.4847,-0.340092,0.0,0.0
1392,347.75,38.8849,40.737,147.148,100.208,104.184,0.013365,0.0758729,20.9364,73.4547,-0.354096,0.0,0.0
1408,351.75,39.1707,40.605,144.296,100.161,104.553,0.0131849,0.0760311,20.9361,73.4447,-0.390532,0.0,0.0
1424,355.75,38.443,40.0553,144.484,100.1,104.368,0.0132155,0.0763704,20.9361,73.3846,-0.379924,0.0,0.0
1440,359.75,38.7528,40.1439,141.746,100.035,104.544,,0.0766658,,73.3546,-0.401261,0.0,0.0
1456,363.75,38.5871,40.2446,147.104,99.9451,103.858,,,,73.3346,-0.349462,0.0,0.0
1472,367.75,38.1581,39.9644,147.992,99.8505,104.082,,,,73.2945,-0.377711,0.0,0.0
1473,368,38.4992,39.3411,147.011,99.8349,104.131,,,,73.2345,-0.383381,0.0,0.0

File: Luan_Panel_Cone_HF25Scan_220915_R2.csv
Names,Time,Stack TC,Smoke TC,Exh Press,Smoke Comp,Smoke Meas,CO Meter,CO2 Meter,O2 Meter,Sample Mass,Ext Coeff,Start Test,Flame Verif
Chan Gain,,500,500,1,1,1,1,1,1,1,1,1.0,1.0
Offset,,0,0,0.146632,0,0,0,0,0,0,0,0.0,0.0
Gain,,1,1,25.011,13.0826,14.7555,1,1,1,1.00088,1.03743,1.0,1.0
Units,sec,C,C,Pa,%,%,%,%,%,g,/m,,
Baseline,,39.4043,39.9612,147.357,100.358,104.806,0.000375395,0.0456617,20.9847,-449.3,-0.394632,,
15,3.5,37.0017,38.1125,147.398,99.6241,104.245,0.000515261,0.0558825,20.9764,94.1329,-0.412607,0.0,0.0
30,7.25,36.8025,37.5565,149.151,99.6696,103.659,0.000342559,0.049934,20.9825,94.0929,-0.357164,0.0,0.0
45,11,37.1422,37.9856,148.331,99.7303,103.94,0.000400048,0.0468211,20.9864,94.0628,-0.37622,0.0,0.0
60,14.75,36.9963,37.39,150.291,99.7874,104.061,0.000364137,0.0451854,20.9877,94.0428,-0.381611,0.0,0.0
75,18.5,37.4026,37.8312,145.836,99.8589,103.688,0.000451555,0.0445452,20.9898,94.0028,-0.342392,0.0,0.0
90,22.25,37.3732,37.703,145.365,99.9096,104.129,0.000159636,0.0443246,20.9895,93.9828,-0.376461,0.0,0.0
105,26,37.3237,38.0241,150.953,99.9595,103.969,0.000140496,0.044799,20.9885,93.9427,-0.357895,0.0,0.0
120,29.75,37.5238,38.2196,145.148,99.9934,104.446,0.000504947,0.0458753,20.9876,93.9127,-0.396489,0.0,0.0
135,33.5,37.4631,38.364,146.449,100.032,103.955,0.000438417,0.0466943,20.9874,93.8126,-0.350096,0.0,0.0
150,37.25,37.2888,38.1853,147.33,100.063,103.452,0.000324222,0.0472684,20.9861,93.7626,-0.303165,0.0,0.0
165,41,37.5937,38.0495,145.009,100.11,103.519,0.00030387,0.0474673,20.9859,93.7426,-0.304742,0.0,0.0
180,44.75,37.6683,38.0238,144.022,100.117,103.456,0.000242846,0.0477078,20.9859,93.6925,-0.298581,0.0,0.0
195,48.5,38.0346,38.1106,150.777,100.136,103.219,0.000378358,0.0476578,20.9859,93.6024,-0.275904,0.0,0.0
210,52.25,37.9859,38.7103,148.956,100.141,102.594,0.000608074,0.0480133,20.9871,93.4723,-0.220196,0.0,0.0
225,56,37.9774,38.5212,144.511,100.157,102.981,0.000833938,0.0482895,20.988,93.3622,-0.253067,0.0,0.0
240,59.75,37.5652,39.3267,149.539,100.17,102.229,0.000876119,0.0488414,20.9879,93.3422,-0.185096,0.0,0.0
255,63.5,38.22,38.5707,141.092,100.188,102.262,0.000926276,0.0492879,20.9867,93.2321,-0.186471,0.0,0.0
270,67.25,37.9503,38.9797,144.333,100.191,101.862,0.00112369,0.0501743,20.9876,93.112,-0.150527,0.0,0.0
285,71,38.3891,39.0146,147.211,100.174,101.392,0.00150249,0.0513993,20.986,92.9819,-0.109985,0.0,0.0
300,74.75,38.4054,38.8214,142.153,100.172,104.634,0.00199882,0.0954382,20.9198,92.6416,-0.396533,0.0,1.0
315,78.5,39.2947,38.8475,134.633,100.186,103.887,0.00240271,0.226501,20.7681,92.3613,-0.330093,0.0,1.0
330,82.25,42.3371,40.3465,127.291,100.169,103.2,0.00269428,0.311022,20.6639,91.8709,-0.271262,0.0,0.0
345,86,44.4947,43.452,138.316,100.171,103.438,0.00272768,0.338165,20.6366,91.4105,-0.292023,0.0,0.0
360,89.75,47.1515,44.689,132.827,100.132,104.329,0.00276137,0.326466,20.6551,91.0302,-0.373607,0.0,0.0
375,93.5,48.0691,46.2142,137.721,100.06,103.539,0.00290833,0.309067,20.6791,90.5497,-0.311017,0.0,0.0
390,97.25,48.8837,47.9837,134.385,100.021,103.147,0.00345697,0.300143,20.6901,90.1894,-0.280081,0.0,0.0
405,101,50.2481,48.3579,134.062,99.9427,103.59,0.00386165,0.290957,20.7007,89.7991,-0.326213,0.0,0.0
420,104.75,50.6599,49.6608,141.042,99.8421,103.959,0.00381774,0.274156,20.7186,89.4288,-0.367681,0.0,0.0
435,108.5,51.0575,50.1713,141.685,99.7515,104.186,0.00344028,0.261494,20.7292,89.0584,-0.39579,0.0,0.0
450,112.25,51.365,50.8854,139.471,99.7523,104.881,0.00335084,0.252789,20.7339,88.6881,-0.456284,0.0,0.0
465,116,51.6665,51.4613,137.751,99.8086,104.669,0.00339195,0.249447,20.7369,88.3979,-0.43269,0.0,0.0
480,119.75,52.0832,51.8316,136.318,99.8545,104.912,0.00300425,0.24987,20.7365,88.0475,-0.449621,0.0,0.0
495,123.5,52.9325,52.6137,134.086,99.9048,104.996,0.00279717,0.252377,20.7354,87.7072,-0.4523,0.0,0.0
510,127.25,52.8548,53.3261,135.797,99.9603,105.382,0.00312754,0.250828,20.7382,87.3669,-0.480633,0.0,0.0
525,131,52.9683,53.7326,138.375,100.038,105.21,0.00306868,0.249302,20.7425,86.9766,-0.458681,0.0,0.0
540,134.75,53.6761,54.268,138.171,100.136,105.07,0.00260711,0.251881,20.7416,86.7064,-0.437744,0.0,0.0
555,138.5,53.5387,54.7673,135.513,100.233,105.753,0.00228724,0.257963,20.7336,86.3861,-0.48783,0.0,0.0
570,142.25,54.1987,55.0607,135.37,100.318,105.571,0.00211015,0.267048,20.7231,86.0558,-0.464517,0.0,0.0
585,146,54.6935,55.6537,134.243,100.408,105.294,0.00204869,0.278819,20.7099,85.6955,-0.432432,0.0,0.0
600,149.75,55.056,56.2859,135.678,100.475,105.895,0.00218637,0.287856,20.6994,85.2651,-0.478163,0.0,0.0
615,153.5,55.6342,56.689,133.979,100.546,104.857,0.00249659,0.295863,20.6912,84.9648,-0.381976,0.0,0.0
630,157.25,56.0652,57.0435,133.947,100.601,105.467,0.00270055,0.29521,20.6886,84.6045,-0.429867,0.0,0.0
645,161,55.9746,57.5343,137.618,100.613,105.706,0.00238042,0.293406,20.688,84.2442,-0.449429,0.0,0.0
660,164.75,56.3725,57.8259,136.884,100.613,104.916,0.00216796,0.290175,20.6913,83.9039,-0.381103,0.0,0.0
675,168.5,56.6388,58.5431,137.868,100.591,105.372,0.00205945,0.282865,20.696,83.5236,-0.422604,0.0,0.0
690,172.25,56.7299,58.445,140.19,100.548,105.482,0.00202755,0.277139,20.7037,83.2633,-0.436029,0.0,0.0
705,176,56.7112,59.0723,135.504,100.5,105.508,0.00199471,0.272969,20.7098,82.953,-0.442544,0.0,0.0
720,179.75,56.6395,58.6674,136.381,100.409,105.792,0.00196395,0.273078,20.7136,82.6228,-0.475229,0.0,0.0
735,183.5,56.998,59.3154,136.251,100.328,104.567,0.00190074,0.272424,20.7169,82.3025,-0.376603,0.0,0.0
750,187.25,57.0156,59.3404,141.888,100.247,104.137,0.00194152,0.274348,20.7154,81.8421,-0.346491,0.0,0.0
765,191,57.2865,59.2879,138.201,100.174,104.321,0.00189685,0.283988,20.7026,81.6819,-0.369167,0.0,0.0
780,194.75,57.3275,59.5877,135.452,100.077,104.422,0.00209961,0.303283,20.6808,81.3116,-0.38678,0.0,0.0
795,198.5,58.0042,60.1724,132.321,100.029,103.476,0.00240833,0.321019,20.6567,80.9613,-0.308314,0.0,0.0
810,202.25,58.6062,60.9473,132.834,99.9535,103.011,0.00249712,0.332952,20.6412,80.571,-0.274177,0.0,0.0
825,206,58.9269,61.4709,134.586,99.9152,104.245,0.00314612,0.332272,20.641,80.2106,-0.386099,0.0,0.0
840,209.75,58.8895,61.7737,137.213,99.884,103.328,0.00482613,0.301406,20.6742,79.9704,-0.308507,0.0,0.0
855,213.5,58.4738,61.3113,140.379,99.8948,103.753,0.00608733,0.252087,20.7374,79.7502,-0.344846,0.0,0.0
870,217.25,57.5768,60.6039,141.92,99.888,104.069,0.00702328,0.204976,20.7919,79.6201,-0.373188,0.0,0.0
885,221,56.006,59.6412,142.201,99.892,104.132,0.00833094,0.166194,20.8399,79.53,-0.378257,0.0,0.0
900,224.75,54.9011,58.7958,143.07,99.9228,104.245,0.00957069,0.132953,20.8758,79.3899,-0.385369,0.0,0.0
915,228.5,53.6302,57.5546,142.069,99.9543,104.932,0.0101754,0.109043,20.9013,79.3299,-0.442287,0.0,0.0
930,232.25,52.3748,56.323,144.391,99.9651,104.556,0.0108962,0.0926515,20.9194,79.3699,-0.408598,0.0,0.0
945,236,50.8676,55.6008,143.307,99.9914,104.874,0.0111774,0.0823183,20.9325,79.3299,-0.433829,0.0,0.0
960,239.75,49.4414,54.7622,143.261,100.034,104.702,0.0115844,0.0763106,20.9388,79.3098,-0.415078,0.0,0.0
975,243.5,47.4061,52.2079,142.89,100.069,105.051,0.011799,0.0730194,20.9434,79.1997,-0.442128,0.0,0.0
990,247.25,46.3056,51.1616,143.513,100.173,104.912,0.0123334,0.0715621,20.9453,79.2498,-0.420595,0.0,0.0
1005,251,45.7787,50.158,144.559,100.231,104.503,0.0127005,0.0709068,20.9458,79.2098,-0.379802,0.0,0.0
1020,254.75,44.652,49.0944,141.582,100.314,104.81,0.012857,0.0710255,20.9447,79.1697,-0.399005,0.0,0.0
1035,258.5,43.7882,48.6754,149.611,100.382,104.74,0.0133198,0.0712714,20.9444,79.1897,-0.386788,0.0,0.0
1050,262.25,43.1596,47.5363,147.167,100.43,104.406,0.0135405,0.0715932,20.9437,79.0896,-0.353369,0.0,0.0
1065,266,43.0478,46.98,147.189,100.513,105.227,0.0136725,0.0717348,20.9435,79.1397,-0.417083,0.0,0.0
1080,269.75,42.3154,46.6563,143.426,100.551,104.941,0.0139084,0.0719427,20.9427,79.0896,-0.388884,0.0,0.0
1095,273.5,42.4163,46.5014,145.791,100.562,105.219,0.0140888,0.0726673,20.9414,78.9395,-0.411937,0.0,0.0
1110,277.25,42.0944,45.7039,145.791,100.541,105.059,0.0144337,0.0731482,20.9409,78.9796,-0.400015,0.0,0.0
1125,281,41.2668,44.673,144.987,100.471,104.469,0.0146778,0.0742147,20.9408,78.9595,-0.355133,0.0,0.0
1140,284.75,41.4079,44.654,144.268,100.405,105.275,0.0146107,0.0741007,20.9408,78.9695,-0.431014,0.0,0.0
1155,288.5,40.6932,44.0935,148.372,100.253,104.621,0.0146566,0.0745434,20.939,78.8494,-0.388037,0.0,0.0
1170,292.25,40.7206,44.0199,145.992,100.098,104.451,0.014862,0.0749483,20.9382,78.8795,-0.38733,0.0,0.0
1185,296,40.9933,43.0933,149.181,99.9347,103.952,0.0150727,0.0760058,20.9393,78.8795,-0.35869,0.0,0.0
1200,299.75,40.3363,43.3186,144.169,99.8098,104.394,0.014819,0.0755769,20.9407,78.7694,-0.408667,0.0,0.0
1215,303.5,40.024,42.8308,147.679,99.7163,104.215,0.0145071,0.075747,20.9401,78.7794,-0.401592,0.0,0.0
1230,307.25,40.1855,43.0175,144.172,99.7794,104.003,0.0142957,0.0759807,20.9397,78.7494,-0.377297,0.0,0.0
1245,311,39.9508,42.3488,148.201,99.9295,104.351,0.014219,0.0765589,20.9396,78.7193,-0.394022,0.0,0.0
1260,314.75,39.5572,41.8384,146.256,100.056,104.875,0.0140372,0.0771781,20.939,78.6693,-0.428061,0.0,0.0
1275,318.5,39.4524,41.7141,144.292,100.096,104.686,0.0138155,0.0776936,20.9388,78.6092,-0.408081,0.0,0.0
1290,322.25,39.2862,41.8563,144.269,100.141,104.407,0.0135351,0.0777289,20.9388,78.6393,-0.379602,0.0,0.0
1305,326,39.5755,41.4035,148.351,100.137,104.859,0.0135568,0.0779557,20.9394,78.6092,-0.419325,0.0,0.0
1320,329.75,39.6786,41.2162,147.666,100.135,104.398,0.0134796,0.0781046,20.9396,78.5692,-0.379401,0.0,0.0
1335,333.5,38.9674,40.6693,145.182,100.141,105.226,0.0134449,0.0782468,20.9396,78.4991,-0.450718,0.0,0.0
1350,337.25,39.4146,40.5733,144.518,100.116,104.231,0.0128718,0.0783288,20.9411,78.409,-0.366565,0.0,0.0
1365,341,39.455,40.6469,144.802,100.113,104.841,0.0126936,0.0783457,20.9414,78.4291,-0.419936,0.0,0.0
1380,344.75,38.6809,40.2578,152.473,100.128,104.767,0.0121421,0.0782888,20.9393,78.379,-0.412145,0.0,0.0
1395,348.5,38.0069,40.1854,146.472,100.128,104.839,,0.0787714,,78.4591,-0.418364,0.0,0.0
1410,352.25,38.7003,39.9444,146.919,100.133,105.057,,,,78.339,-0.436903,0.0,0.0
1425,356,38.6299,39.7032,146.563,100.122,104.818,,,,78.2289,-0.417071,0.0,0.0
1438,359.25,38.6017,39.4888,145.789,100.13,104.616,,,,78.2889,-0.398811,0.0,0.0