Folder: fsri_materials_database/01_Data/Luan_Panel/Cone (part 5)

File: Luan_Panel_Cone_HF75Scan_220916_R2.csv
Names,Time,Stack TC,Smoke TC,Exh Press,Smoke Comp,Smoke Meas,CO Meter,CO2 Meter,O2 Meter,Sample Mass,Ext Coeff,Start Test,Flame Verif
Chan Gain,,500,500,1,1,1,1,1,1,1,1,1.0,1.0
Offset,,0,0,0.146632,0,0,0,0,0,0,0,0.0,0.0
Gain,,1,1,25.011,13.0826,14.7555,1,1,1,1.00088,1.03743,1.0,1.0
Units,sec,C,C,Pa,%,%,%,%,%,g,/m,,
Baseline,,62.9641,64.8126,136.773,99.6629,105.548,6.80648e-05,0.0433877,20.9877,-450.864,-0.522129,,
12,2.75,61.0453,62.9886,137.861,100.417,106.045,0.000402409,0.0465518,20.9816,93.9427,-0.496209,0.0,0.0
24,5.75,60.5504,63.2683,137.275,100.425,103.11,0.000651184,0.0513605,20.9686,93.8226,-0.240173,0.0,0.0
36,8.75,61.6164,63.1423,119.17,100.424,103.201,0.00150613,0.128714,20.7755,93.3022,-0.248269,0.0,1.0
48,11.75,66.7211,65.9598,111.537,100.423,100.851,0.00292056,0.30583,20.4339,92.6015,-0.0387112,0.0,1.0
60,14.75,71.1623,69.4712,105.041,100.43,95.6375,0.00464116,0.500326,20.2201,91.8609,0.444985,0.0,0.0
72,17.75,76.6996,73.9745,111.262,100.439,93.9574,0.00612985,0.617531,20.1097,91.1303,0.607105,0.0,0.0
84,20.75,81.2603,78.1024,114.739,100.44,96.3206,0.00670785,0.66453,20.1192,90.5097,0.381085,0.0,0.0
96,23.75,83.8567,81.2429,111.84,100.439,97.1992,0.00658713,0.654908,20.194,89.9292,0.298385,0.0,0.0
108,26.75,86.2566,83.8209,118.625,100.417,98.8414,0.00604349,0.611419,20.3007,89.3887,0.143887,0.0,0.0
120,29.75,86.9951,85.7138,117.644,100.421,101.845,0.0053944,0.561439,20.3937,88.8583,-0.12813,0.0,0.0
132,32.75,87.8461,86.9407,122.21,100.401,101.581,0.00471581,0.518557,20.4563,88.3878,-0.106294,0.0,0.0
144,35.75,87.9281,87.9061,118.276,100.4,101.928,0.0043828,0.489636,20.481,87.8874,-0.137452,0.0,0.0
156,38.75,88.4612,88.8646,117.109,100.397,100.8,0.00434869,0.48267,20.4698,87.3669,-0.0364291,0.0,0.0
168,41.75,89.5356,89.9786,121.019,100.39,101.717,0.00463188,0.488102,20.4458,86.8064,-0.119522,0.0,0.0
180,44.75,90.5191,91.2803,115.897,100.388,102.058,0.00466848,0.491596,20.4314,86.256,-0.150186,0.0,0.0
192,47.75,91.5679,92.7528,118.501,100.409,101.464,0.00431038,0.498655,20.4157,85.6554,-0.0951874,0.0,0.0
204,50.75,92.8531,93.8869,120.17,100.372,102.367,0.00410314,0.51224,20.3943,85.125,-0.179132,0.0,0.0
216,53.75,93.7841,95.1933,116.152,100.348,100.861,0.00419872,0.53588,20.3538,84.6245,-0.0464448,0.0,0.0
228,56.75,95.2269,96.6054,115.817,100.32,99.316,0.0048768,0.565841,20.3115,84.064,0.0915691,0.0,0.0
240,59.75,96.5763,97.993,115.984,100.304,97.7931,0.00545894,0.587151,20.2913,83.4535,0.230746,0.0,0.0
252,62.75,97.4659,99.2888,114.317,100.278,97.8485,0.00599214,0.593957,20.2885,82.873,0.223203,0.0,0.0
264,65.75,98.1682,100.612,119.304,100.258,97.527,0.00632916,0.583485,20.3225,82.3926,0.251342,0.0,0.0
276,68.75,98.6015,101.235,118.555,100.224,96.9848,0.00644429,0.5648,20.3562,81.9121,0.298956,0.0,0.0
288,71.75,98.7315,101.767,122.279,100.166,96.6858,0.00649221,0.54643,20.3822,81.4617,0.321834,0.0,0.0
300,74.75,98.8044,102.566,115.349,100.114,97.4626,0.00655501,0.535794,20.392,81.0113,0.244262,0.0,0.0
312,77.75,99.1639,102.873,120.66,100.046,96.4332,0.00659149,0.52945,20.3942,80.571,0.334716,0.0,0.0
324,80.75,98.8017,103.489,122.457,100.009,97.9016,0.00622938,0.526266,20.3934,80.0505,0.193772,0.0,0.0
336,83.75,99.5022,103.973,117.26,99.9579,97.7557,0.005793,0.522277,20.3948,79.6401,0.202729,0.0,0.0
348,86.75,98.9882,104.432,118.109,99.8641,97.3059,0.00553917,0.515573,20.4081,79.2498,0.236159,0.0,0.0
360,89.75,99.2257,104.114,119.908,99.7954,98.5172,0.00565072,0.51029,20.4184,78.7594,0.117312,0.0,0.0
372,92.75,99.6178,104.78,120.069,99.7052,98.0403,0.00600582,0.506083,20.4253,78.299,0.153237,0.0,0.0
384,95.75,98.6689,104.451,120.509,99.6381,97.2334,0.00546471,0.497769,20.441,77.9386,0.222325,0.0,0.0
396,98.75,98.4339,104.341,121.723,99.5642,97.0343,0.00437249,0.474822,20.4822,77.6083,0.234223,0.0,0.0
408,101.75,97.614,104.003,128.22,99.6489,100.348,0.00361803,0.432479,20.5617,77.3982,-0.0636341,0.0,0.0
420,104.75,96.3499,102.92,128.181,99.7555,102.636,0.00332386,0.375854,20.6338,77.178,-0.259066,0.0,0.0
432,107.75,93.9533,101.613,134.559,99.8365,105.357,0.00352458,0.307608,20.728,77.1179,-0.489808,0.0,0.0
444,110.75,92.0218,99.9892,131.939,99.894,105.478,0.00410685,0.247066,20.8043,77.0378,-0.494948,0.0,0.0
456,113.75,90.7624,98.7062,129.821,99.9204,104.958,0.00504565,0.20557,20.8463,77.0679,-0.447642,0.0,0.0
468,116.75,87.8415,97.194,130.846,99.9507,105.519,0.00603528,0.178872,20.8683,76.9978,-0.493358,0.0,0.0
480,119.75,86.4908,95.5188,135.414,99.9611,105.428,0.00667322,0.162015,20.8791,76.9378,-0.484603,0.0,0.0
492,122.75,84.5354,93.7564,131.07,99.9655,105.366,0.00737126,0.14966,20.8867,76.8777,-0.478799,0.0,0.0
504,125.75,82.8994,91.9294,132.282,99.9531,105.534,0.0084363,0.140866,20.8894,76.8176,-0.494421,0.0,0.0
516,128.75,81.8294,90.9319,135.577,99.9379,105.812,0.009312,0.136059,20.8903,76.7976,-0.519768,0.0,0.0
528,131.75,80.429,89.4408,130.771,99.9056,106.068,0.00960894,0.131735,20.8905,76.7776,-0.544723,0.0,0.0
540,134.75,79.3759,88.3288,133.118,99.8613,105.736,0.0102353,0.127347,20.8935,76.6975,-0.520165,0.0,0.0
552,137.75,78.2976,87.2638,132.458,99.8058,105.534,0.0109827,0.122974,20.8968,76.6375,-0.507883,0.0,0.0
564,140.75,77.2419,85.8207,134.681,99.7475,105.014,0.0117603,0.119679,20.8985,76.6375,-0.46824,0.0,0.0
576,143.75,76.595,84.991,137.006,99.7004,105.052,0.0123694,0.118351,20.8975,76.6275,-0.475817,0.0,0.0
588,146.75,76.2831,84.0237,132.403,99.6572,105.386,0.0131984,0.117815,20.8958,76.5975,-0.508613,0.0,0.0
600,149.75,75.3383,83.3698,134.837,99.6293,104.931,0.0138954,0.117591,20.8949,76.5474,-0.471846,0.0,0.0
612,152.75,74.4331,82.5838,136.814,99.593,104.905,0.0141909,0.116317,20.8959,76.5374,-0.4729,0.0,0.0
624,155.75,72.7755,80.1157,135.523,99.575,105.459,0.0142479,0.114587,20.8991,76.4373,-0.522424,0.0,0.0
636,158.75,71.87,78.9648,132.772,99.5419,105.352,0.0141165,0.113196,20.9013,76.4173,-0.516238,0.0,0.0
648,161.75,71.3624,78.2517,133.364,99.5311,105.387,0.0138428,0.111908,20.9026,76.3572,-0.520296,0.0,0.0
660,164.75,70.4404,77.5182,133.085,99.5087,104.929,0.0133946,0.110723,20.9039,76.3572,-0.482709,0.0,0.0
672,167.75,70.0942,77.2618,131.479,99.4836,105.469,0.0133881,0.11023,20.9043,76.2972,-0.531715,0.0,0.0
684,170.75,69.6371,75.851,133.131,99.4812,105.034,0.0133664,0.109958,20.9049,76.3172,-0.494246,0.0,0.0
696,173.75,69.809,75.7941,133.92,99.4684,105.116,0.0132007,0.109364,20.9062,76.2672,-0.502591,0.0,0.0
708,176.75,68.7862,75.3285,131.505,99.4636,104.884,0.0130024,0.108542,20.9069,76.2572,-0.48293,0.0,0.0
720,179.75,69.0819,74.6642,133.318,99.4664,105.17,0.0126865,0.107912,20.9073,76.1571,-0.507451,0.0,0.0
732,182.75,68.6967,74.5043,136.316,99.4277,104.79,0.0124626,0.10682,20.9089,76.117,-0.478049,0.0,0.0
744,185.75,68.4066,74.1003,133.434,99.4265,104.671,0.0123959,0.106687,20.9095,76.107,-0.467751,0.0,0.0
756,188.75,68.0896,73.5897,132.816,99.4145,105.022,0.0122456,0.106576,20.9097,76.057,-0.499332,0.0,0.0
768,191.75,68.0831,72.7989,136.114,99.3989,105.012,0.0121054,0.10615,20.9097,76.027,-0.4999,0.0,0.0
780,194.75,67.8678,72.9206,133.647,99.3913,104.971,0.0120784,0.105693,20.9107,75.9969,-0.497043,0.0,0.0
792,197.75,67.3553,72.0305,132.712,99.391,105.293,0.0120812,0.105116,20.9115,75.9669,-0.524949,0.0,0.0
804,200.75,67.142,72.4361,133.704,99.3957,104.988,0.012151,0.105398,20.9096,75.9269,-0.498163,0.0,0.0
816,203.75,67.5603,71.9531,135.584,99.3985,105.496,0.0121984,0.105642,20.9081,75.8968,-0.54179,0.0,0.0
828,206.75,66.6319,71.302,133.329,99.3902,104.952,0.0124523,0.105754,20.9076,75.8568,-0.495552,0.0,0.0
840,209.75,66.8148,71.5257,131.531,99.3997,105.331,0.0126942,0.105758,20.9081,75.8368,-0.527413,0.0,0.0
852,212.75,67.0976,70.6398,130.716,99.4225,104.921,0.0126448,0.105447,20.9093,75.7767,-0.489857,0.0,0.0
864,215.75,66.851,70.8694,131.913,99.4421,104.488,0.0127593,0.104844,20.9096,75.7667,-0.450456,0.0,0.0
876,218.75,66.6918,70.3414,134.722,99.4808,105.293,0.0128732,0.1051,20.9086,75.7267,-0.516728,0.0,0.0
888,221.75,66.4495,70.2356,136.831,99.5075,104.975,0.0128868,0.105534,20.9095,75.6867,-0.486762,0.0,0.0
900,224.75,66.6009,69.9124,134.817,99.5598,105.206,0.0128919,0.105539,20.9099,75.6766,-0.502023,0.0,0.0
912,227.75,66.4426,70.2508,134.233,99.6038,105.759,0.0127985,0.105524,20.9086,75.6466,-0.545716,0.0,0.0
924,230.75,66.1466,69.8109,130.648,99.6425,105.559,0.0125925,0.104977,20.9081,75.6366,-0.52492,0.0,0.0
936,233.75,66.1844,69.9935,132.888,99.6804,105.518,0.0126498,0.104731,20.9075,75.6066,-0.517884,0.0,0.0
948,236.75,66.1049,70.0678,138.362,99.7243,104.56,0.0126741,0.104784,20.9073,75.5966,-0.430934,0.0,0.0
960,239.75,66.4469,69.3333,131.393,99.775,105.598,0.0124477,0.104637,20.9075,75.5866,-0.516199,0.0,0.0
972,242.75,65.9585,69.5125,132.992,99.8393,105.45,0.0123215,0.1045,20.909,75.5465,-0.497601,0.0,0.0
984,245.75,65.5501,69.7775,131.759,99.8884,105.475,0.0124128,0.104328,20.9094,75.5065,-0.495224,0.0,0.0
996,248.75,65.837,69.1621,134.912,99.9291,106.079,0.0124193,0.104026,20.9097,75.4765,-0.543466,0.0,0.0
1008,251.75,66.028,69.4297,135.977,99.9635,105.404,0.0122974,0.103824,20.9097,75.4464,-0.482247,0.0,0.0
1020,254.75,65.8288,68.7519,135.975,99.9878,105.843,0.0121361,0.10362,20.9112,75.3764,-0.517896,0.0,0.0
1032,257.75,65.6729,68.262,132.373,100.003,105.713,0.0123096,0.103457,20.9118,75.3464,-0.505245,0.0,0.0
1044,260.75,65.6921,68.5666,130.654,100.013,105.676,0.0125835,0.103839,20.9105,75.3263,-0.501268,0.0,0.0
1056,263.75,65.609,68.1523,131.611,100.006,105.988,,0.103976,,75.2563,-0.528681,0.0,0.0
1068,266.75,65.6534,68.2869,131.401,99.9886,105.417,,,,75.2262,-0.481124,0.0,0.0
1080,269.75,65.7778,68.1876,132.837,99.9583,105.859,,,,75.2262,-0.521941,0.0,0.0
1092,272.75,65.1904,68.1428,128.66,99.898,105.635,,,,75.1962,-0.508171,0.0,0.0
1096,273.75,65.0421,68.113,135.381,99.8693,105.886,,,,75.1862,-0.532412,0.0,0.0

File: Luan_Panel_Cone_HF75Scan_220916_R3.csv
Names,Time,Stack TC,Smoke TC,Exh Press,Smoke Comp,Smoke Meas,CO Meter,CO2 Meter,O2 Meter,Sample Mass,Ext Coeff,Start Test,Flame Verif
Chan Gain,,500,500,1,1,1,1,1,1,1,1,1.0,1.0
Offset,,0,0,0.146632,0,0,0,0,0,0,0,0.0,0.0
Gain,,1,1,25.011,13.0826,14.7555,1,1,1,1.00088,1.03743,1.0,1.0
Units,sec,C,C,Pa,%,%,%,%,%,g,/m,,
Baseline,,64.4984,66.2833,136.191,99.7797,105.727,0.000193286,0.0432768,20.9879,-450.981,-0.526793,,
11,2.5,61.73,63.5671,132.912,99.7455,105.233,0.000108831,0.0454617,20.9809,83.7838,-0.487329,0.0,0.0
22,5.25,61.6646,63.4006,138.049,99.7519,103.284,0.000454338,0.047405,20.9755,83.6337,-0.316627,0.0,0.0
33,8,62.1523,62.9132,118.215,99.7423,102.635,0.00138424,0.103677,20.8313,83.1632,-0.260188,0.0,1.0
44,10.75,66.0504,65.5336,108.755,99.7235,99.0395,0.00293516,0.2771,20.5333,82.4726,0.0626331,0.0,1.0
55,13.5,70.612,68.1754,101.536,99.706,94.3307,0.00466802,0.507759,20.2104,81.782,0.504325,0.0,0.0
66,16.25,77.1229,73.5011,109.759,99.6928,93.8885,0.00606085,0.651888,20.0723,81.2015,0.545882,0.0,0.0
77,19,81.6163,77.7991,111.665,99.67,94.5685,0.00694458,0.696681,20.0897,80.571,0.478137,0.0,0.0
88,21.75,84.1877,81.2094,111.712,99.6469,98.7032,0.00711046,0.670763,20.1867,79.9404,0.0865952,0.0,0.0
99,24.5,86.262,83.5925,116.577,99.6293,98.822,0.00665001,0.622653,20.2819,79.3799,0.0740367,0.0,0.0
110,27.25,87.1532,85.6384,116.887,99.5914,98.9738,0.00597648,0.578962,20.3552,78.9395,0.0566084,0.0,0.0
121,30,88.2005,87.0324,111.399,99.6265,98.8387,0.00547752,0.549934,20.3903,78.5191,0.0722481,0.0,0.0
132,32.75,89.4017,88.5053,116.967,99.6628,98.822,0.00530298,0.531585,20.4121,77.9687,0.0770997,0.0,0.0
143,35.5,90.2059,89.8803,120.619,99.7,100.138,0.00528175,0.508173,20.4386,77.4983,-0.0398781,0.0,0.0
154,38.25,91.0363,90.5186,121.987,99.7471,101.697,0.00511404,0.483599,20.4707,77.0679,-0.176201,0.0,0.0
165,41,91.0736,91.672,117.154,99.8134,102.592,0.00477539,0.460364,20.4904,76.6875,-0.249873,0.0,0.0
176,43.75,91.5296,92.7527,121.143,99.8553,103.253,0.00409443,0.448953,20.4904,76.2872,-0.304461,0.0,0.0
187,46.5,92.5232,93.167,118.529,99.8848,103.555,0.00334811,0.449547,20.4759,75.7467,-0.3284,0.0,0.0
198,49.25,93.1376,93.9896,119.319,99.9084,103.135,0.00317037,0.465394,20.4433,75.3163,-0.289219,0.0,0.0
209,52,94.0357,94.8085,114.968,99.9399,101.484,0.00362103,0.496976,20.3926,74.8559,-0.139545,0.0,0.0
220,54.75,95.1243,96.752,117.922,99.9643,99.4745,0.00437704,0.536646,20.3344,74.3455,0.044694,0.0,0.0
231,57.5,96.5887,97.9599,117.287,99.987,97.8341,0.00533415,0.567135,20.3067,73.825,0.198092,0.0,0.0
242,60.25,97.4543,99.2552,116.183,99.9938,95.8527,0.00611167,0.574619,20.3124,73.2545,0.3849,0.0,0.0
253,63,97.5358,100.158,118.004,99.9727,95.719,0.00634183,0.561905,20.3458,72.7841,0.39568,0.0,0.0
264,65.75,97.8798,100.69,121.401,99.9723,97.4878,0.00596175,0.537842,20.3887,72.3837,0.229014,0.0,0.0
275,68.5,97.8186,100.485,116.916,99.9515,96.9578,0.00560082,0.518247,20.4168,72.0535,0.276735,0.0,0.0
286,71.25,97.1724,101.11,121.735,99.9156,97.7269,0.0053199,0.498648,20.443,71.6231,0.201559,0.0,0.0
297,74,97.4886,101.039,122.95,99.8732,98.0592,0.00507656,0.482928,20.4573,71.2227,0.166811,0.0,0.0
308,76.75,96.9858,101.326,118.441,99.8289,98.8265,0.0049023,0.474829,20.4602,70.8624,0.0918387,0.0,0.0
319,79.5,97.2235,101.718,119.414,99.7678,99.3475,0.00465104,0.46821,20.464,70.5621,0.0384187,0.0,0.0
330,82.25,97.4499,101.687,122.094,99.7323,100.81,0.00424543,0.46194,20.4714,70.1718,-0.0978199,0.0,0.0
341,85,96.8156,101.651,119.466,99.68,100.834,0.00407415,0.454418,20.4839,69.8415,-0.104748,0.0,0.0
352,87.75,96.7024,101.698,123.151,99.6117,99.3205,0.00396938,0.447344,20.4936,69.4512,0.0266437,0.0,0.0
363,90.5,96.7097,102.093,121.433,99.5019,96.3886,0.00378084,0.445596,20.4941,69.1509,0.289291,0.0,0.0
374,93.25,96.6725,101.97,124.731,99.387,97.7202,0.00354028,0.440062,20.5018,68.8907,0.153914,0.0,0.0
385,96,96.1847,101.757,124.928,99.3179,99.6258,0.00332762,0.406458,20.5711,68.7005,-0.0281718,0.0,0.0
396,98.75,94.7569,101.164,127.308,99.3834,101.967,0.00340064,0.34797,20.6593,68.5904,-0.23355,0.0,0.0
407,101.5,92.8652,100.303,129.565,99.4576,104.192,0.00380015,0.290859,20.7449,68.4603,-0.423189,0.0,0.0
418,104.25,91.8576,98.7205,130.47,99.561,104.903,0.00449852,0.237986,20.8044,68.3902,-0.475662,0.0,0.0
429,107,89.5577,97.4006,131.023,99.6664,105.154,0.00570921,0.201097,20.8409,68.4002,-0.487726,0.0,0.0
440,109.75,88.1039,95.9548,134.723,99.7902,105.468,0.00678464,0.174458,20.8654,68.3202,-0.503593,0.0,0.0
451,112.5,86.4414,93.93,127.475,99.8517,105.699,0.00773448,0.158088,20.8783,68.2601,-0.51786,0.0,0.0
462,115.25,85.1242,93.3227,131.81,99.9371,105.482,0.00865738,0.146929,20.8837,68.2101,-0.491409,0.0,0.0
473,118,83.7676,91.9371,133.456,100.013,105.604,0.00943435,0.139067,20.8889,68.16,-0.495065,0.0,0.0
484,120.75,82.5429,90.697,133.396,100.07,105.468,0.0101648,0.133313,20.8914,68.2001,-0.478142,0.0,0.0
495,123.5,81.6392,89.4092,132.231,100.102,105.885,0.0108247,0.128412,20.8953,68.15,-0.511074,0.0,0.0
506,126.25,80.2656,88.3189,130.371,100.116,105.632,0.0111576,0.124469,20.8973,68.1,-0.488061,0.0,0.0
517,129,79.3003,87.2927,132.276,100.114,105.768,0.0112577,0.121879,20.8975,68.0099,-0.499951,0.0,0.0
528,131.75,77.9535,86.2196,134.006,100.104,105.541,0.0114526,0.118887,20.9013,68.0699,-0.481311,0.0,0.0
539,134.5,77.5836,85.7758,135.281,100.11,105.757,0.0116681,0.115998,20.9033,68.0199,-0.499348,0.0,0.0
550,137.25,76.7025,84.5216,133.418,100.072,105.713,0.0120847,0.114043,20.9041,67.9298,-0.498962,0.0,0.0
561,140,75.9721,83.9524,131.461,100.053,106.186,0.0124052,0.113575,20.9028,67.8998,-0.541355,0.0,0.0
572,142.75,75.689,83.1238,132.417,100.024,105.392,0.0125813,0.113427,20.9008,67.8397,-0.475752,0.0,0.0
583,145.5,74.9915,82.2875,133.654,100.016,105.384,0.0128349,0.112352,20.9009,67.8598,-0.475816,0.0,0.0
594,148.25,72.6585,80.1059,133.041,99.9954,105.992,0.0131056,0.111664,20.9027,67.7797,-0.530013,0.0,0.0
605,151,71.982,79.5686,132.78,99.9595,105.58,0.0131292,0.110858,20.9037,67.6796,-0.4978,0.0,0.0
616,153.75,71.5352,78.4998,134.544,99.9455,105.649,0.0130518,0.110542,20.904,67.7196,-0.505047,0.0,0.0
627,156.5,71.1261,78.3318,133.294,99.9263,105.551,0.012635,0.109974,20.9065,67.6496,-0.498371,0.0,0.0
638,159.25,71.0198,77.3785,136.009,99.92,105.836,0.0124717,0.109104,20.908,67.6596,-0.523457,0.0,0.0
649,162,70.4252,77.0907,131.877,99.898,105.659,0.012302,0.108346,20.9085,67.6396,-0.510227,0.0,0.0
660,164.75,69.9254,76.6485,132.878,99.8828,105.337,0.011981,0.107815,20.9092,67.5895,-0.483837,0.0,0.0
671,167.5,69.8767,75.9404,132.37,99.8892,105.932,0.0119295,0.107383,20.9094,67.5695,-0.5345,0.0,0.0
682,170.25,69.6598,75.9732,136.864,99.8824,105.747,0.0119739,0.107098,20.9095,67.5695,-0.519206,0.0,0.0
693,173,69.7727,75.358,135.733,99.9072,105.66,0.0119892,0.106535,20.9093,67.5595,-0.509469,0.0,0.0
704,175.75,69.3688,74.8407,140.353,99.9004,105.808,0.0119062,0.106282,20.9084,67.4894,-0.522838,0.0,0.0
715,178.5,68.6846,74.4432,134.024,99.8788,105.615,0.011716,0.106098,20.908,67.4594,-0.50821,0.0,0.0
726,181.25,68.6347,73.8157,132.733,99.8984,105.525,0.0117746,0.105914,20.9093,67.4494,-0.498626,0.0,0.0
737,184,68.876,73.6051,133.077,99.8848,105.79,0.0119565,0.105793,20.9099,67.4594,-0.522745,0.0,0.0
748,186.75,68.383,73.4778,136.756,99.8852,105.737,0.011997,0.105101,20.9101,67.4094,-0.518137,0.0,0.0
759,189.5,68.5876,72.9387,133.789,99.8605,105.44,0.0120285,0.104923,20.9101,67.3193,-0.494739,0.0,0.0
770,192.25,67.7266,73.0772,137.413,99.8637,105.549,0.0121503,0.104669,20.9101,67.2893,-0.503888,0.0,0.0
781,195,68.2437,72.389,135.379,99.8417,105.763,0.0121143,0.10434,20.9101,67.2893,-0.524274,0.0,0.0
792,197.75,67.455,72.0111,131.19,99.8653,104.844,0.0121315,0.104261,20.9107,67.3093,-0.442739,0.0,0.0
803,200.5,67.1379,71.3925,131.98,99.8373,105.421,0.012099,0.104291,20.9109,67.2092,-0.495217,0.0,0.0
814,203.25,67.1405,71.3699,130.497,99.8233,106.11,0.0120178,0.103976,20.911,67.1692,-0.55581,0.0,0.0
825,206,67.3851,71.3836,132.873,99.8018,105.545,0.012072,0.103737,20.9108,67.1391,-0.509179,0.0,0.0
836,208.75,66.9894,71.42,132.481,99.8002,105.694,0.0120628,0.103846,20.9104,67.1291,-0.522167,0.0,0.0
847,211.5,66.6376,70.8419,132.906,99.8078,105.542,0.0120049,0.104102,20.9104,67.1291,-0.508362,0.0,0.0
858,214.25,66.4881,70.6765,132.807,99.7746,106.185,0.0120901,0.103799,20.9118,67.0591,-0.56666,0.0,0.0
869,217,67.0442,70.8074,134.818,99.777,105.337,0.0120892,0.103068,20.9123,67.019,-0.493481,0.0,0.0
880,219.75,66.4813,70.6195,132.286,99.7766,105.296,0.0120691,0.10288,20.913,66.999,-0.490016,0.0,0.0
891,222.5,66.5057,70.1195,130.413,99.7535,105.581,0.0120619,0.102761,20.9137,67.029,-0.516652,0.0,0.0
902,225.25,66.1364,70.1012,135.392,99.7395,105.672,0.0119378,0.102725,20.9139,67.039,-0.525802,0.0,0.0
913,228,66.625,70.1645,134.71,99.7303,105.404,0.0120044,0.102725,20.9143,66.9189,-0.503498,0.0,0.0
924,230.75,66.2911,69.6305,130.314,99.7132,105.763,0.0120794,0.103024,20.9147,66.9089,-0.535998,0.0,0.0
935,233.5,66.6348,69.9807,131.286,99.7199,105.549,0.012019,0.102989,20.9148,66.8689,-0.516995,0.0,0.0
946,236.25,66.5231,69.3935,133.746,99.7331,105.867,0.0120083,0.102749,20.9144,66.9089,-0.5432,0.0,0.0
957,239,66.1408,69.2707,134.904,99.7447,105.659,0.0121576,0.102594,20.9131,66.8489,-0.524243,0.0,0.0
968,241.75,66.3104,69.4637,137.033,99.7551,105.36,0.012231,0.102836,20.9127,66.7888,-0.497507,0.0,0.0
979,244.5,65.94,68.9299,136.141,99.7818,105.999,0.0124653,0.102696,20.9134,66.7588,-0.55009,0.0,0.0
990,247.25,66.3669,69.4017,132.896,99.8186,105.855,0.0126412,0.10232,20.9142,66.7388,-0.534324,0.0,0.0
1001,250,66.6368,69.0666,134.236,99.88,106.258,0.0124486,0.101995,20.9128,66.7688,-0.56334,0.0,0.0
1012,252.75,66.7644,69.457,131.147,99.9172,105.679,0.0122701,0.10197,20.9125,66.6887,-0.510226,0.0,0.0
1023,255.5,66.0503,69.3904,132.916,99.9495,105.483,0.0121716,0.10169,20.9134,66.6587,-0.490399,0.0,0.0
1034,258.25,66.2155,68.779,131.599,100.008,105.743,,0.101297,,66.6287,-0.507442,0.0,0.0
1045,261,66.4617,68.8784,133.315,100.057,106.062,,,,66.6687,-0.530411,0.0,0.0
1056,263.75,66.37,69.5186,135.836,100.102,106.377,,,,66.6187,-0.553311,0.0,0.0
1067,266.5,65.6002,69.2548,132.673,100.145,106.02,,,,66.5486,-0.518791,0.0,0.0