Folder: fsri_materials_database/01_Data/Luan_Panel/MCC (part 2)

File: Luan_Panel_MCC_30K_min_211118_R3.txt
Sample ID:	C:\MCC\MCC Cal\Test\Luan_Panel_MCC_30K_min_211118_R3.txt
Sample Weight (mg):	4.15
Heating Rate (C/s):	0.5
Combustor Temp (C):	900
N2 Flow Rate (cc/min):	80
O2 Flow Rate (cc/min):	20
Calibration File:	C:\MCC\MCC Cal\Coeff1 JN10440_30_210304.txt.txt
T Correction Coefficients:	0	1.024463	0
Time Shift (s):	14
*
Time (s)	Temperature (C)	N2 flow rate (cc/min)	O2 flow rate (cc/min)	Flow Rate (cc/min)	Oxygen (%)	HRR (W/g)	Heating rate (C/s)
-0.001	106.233	80.002	19.996	103.025	19.952	0.298	-0.013
8.000	106.233	80.004	19.996	103.025	19.958	-0.133	0.006
16.000	106.200	80.005	19.994	103.028	19.958	-0.142	0.000
24.000	106.276	80.005	19.993	103.099	19.943	0.992	0.011
32.000	106.586	80.005	19.994	103.145	19.933	1.783	0.063
39.999	107.264	80.003	19.993	103.252	19.917	3.026	0.082
47.999	108.505	80.003	19.995	103.271	19.913	3.359	0.193
55.999	110.282	80.004	19.995	103.304	19.906	3.909	0.236
63.999	112.533	80.004	19.995	103.304	19.907	3.772	0.322
72.000	115.166	80.003	19.995	103.303	19.905	3.945	0.382
79.999	118.109	80.006	19.995	103.310	19.902	4.185	0.383
88.000	121.291	80.004	19.995	103.300	19.907	3.827	0.428
95.999	124.611	80.003	19.996	103.298	19.905	3.935	0.432
103.999	128.153	80.003	19.995	103.301	19.905	3.986	0.423
111.999	131.830	80.005	19.994	103.302	19.904	4.051	0.469
119.999	135.612	80.004	19.994	103.304	19.903	4.066	0.493
127.999	139.445	80.002	19.994	103.300	19.903	4.127	0.464
136.000	143.480	80.005	19.995	103.297	19.904	4.002	0.536
144.000	147.462	80.004	19.994	103.289	19.908	3.680	0.478
152.000	151.504	80.004	19.995	103.282	19.908	3.699	0.454
160.000	155.507	80.002	19.995	103.268	19.908	3.751	0.491
168.000	159.471	80.005	19.996	103.266	19.908	3.736	0.484
176.000	163.403	80.004	19.994	103.264	19.910	3.561	0.491
184.000	167.323	80.004	19.994	103.263	19.906	3.861	0.502
192.000	171.142	80.007	19.996	103.258	19.905	3.954	0.474
200.000	174.966	80.003	19.997	103.256	19.904	4.035	0.496
208.000	178.776	80.004	19.995	103.259	19.898	4.492	0.460
216.000	182.573	80.004	19.995	103.259	19.904	4.062	0.471
224.000	186.436	80.004	19.994	103.259	19.902	4.217	0.474
232.000	190.262	80.003	19.994	103.263	19.899	4.412	0.454
240.000	194.164	80.004	19.993	103.264	19.896	4.637	0.469
248.000	198.030	80.023	19.999	103.269	19.893	4.888	0.490
256.000	201.953	80.025	20.001	103.275	19.897	4.562	0.527
264.000	205.873	80.025	20.000	103.262	19.890	5.128	0.501
272.000	209.853	80.025	19.999	103.264	19.885	5.491	0.518
280.000	213.866	80.023	20.002	103.261	19.875	6.256	0.502
288.000	217.866	80.023	20.001	103.269	19.868	6.830	0.496
296.000	221.887	80.023	20.001	103.265	19.856	7.742	0.536
304.000	225.891	80.022	19.998	103.265	19.847	8.470	0.510
312.000	229.944	80.022	19.999	103.267	19.837	9.260	0.515
320.000	233.941	80.023	20.000	103.264	19.828	9.914	0.497
328.000	237.966	80.024	20.000	103.263	19.823	10.278	0.520
336.000	241.864	80.025	20.002	103.269	19.813	11.074	0.506
344.000	245.839	80.023	20.000	103.266	19.804	11.806	0.488
352.000	249.858	80.025	19.999	103.273	19.789	12.972	0.521
360.000	253.855	80.024	20.000	103.280	19.775	14.050	0.488
368.000	257.851	80.022	20.000	103.283	19.757	15.471	0.496
376.000	261.850	80.002	19.997	103.295	19.736	17.043	0.520
384.000	265.869	80.005	19.997	103.299	19.715	18.685	0.490
392.000	269.954	80.003	19.994	103.298	19.694	20.354	0.540
400.000	274.020	80.003	19.995	103.300	19.667	22.450	0.526
408.000	278.042	80.006	19.996	103.300	19.649	23.806	0.469
416.000	282.000	80.006	19.995	103.304	19.623	25.860	0.483
424.000	285.978	80.006	19.992	103.318	19.595	27.996	0.490
432.000	289.948	80.007	19.994	103.327	19.570	29.959	0.522
440.000	293.919	80.005	19.995	103.335	19.540	32.276	0.507
448.000	297.825	80.004	19.996	103.340	19.514	34.315	0.493
456.000	301.772	80.004	19.995	103.340	19.484	36.696	0.493
464.000	305.685	80.004	19.995	103.349	19.458	38.719	0.462
472.000	309.669	80.003	19.996	103.362	19.424	41.305	0.510
480.000	313.702	80.003	19.996	103.367	19.394	43.669	0.486
488.000	317.697	80.004	19.994	103.385	19.353	46.864	0.510
496.000	321.705	80.005	19.995	103.385	19.317	49.677	0.507
504.000	325.668	80.003	19.995	103.414	19.279	52.657	0.505
512.000	329.664	80.026	20.002	103.451	19.237	55.869	0.516
520.000	333.749	80.007	19.995	103.429	19.192	59.401	0.513
528.000	337.865	80.004	19.993	103.455	19.158	62.026	0.492
536.000	342.015	80.003	19.995	103.456	19.127	64.428	0.497
544.000	345.954	80.003	19.997	103.444	19.120	65.004	0.252
552.000	350.385	80.003	19.994	103.420	19.134	63.879	0.552
560.000	354.580	80.002	19.996	103.383	19.180	60.300	0.544
568.000	358.635	80.004	19.996	103.342	19.268	53.411	0.513
576.000	362.749	80.005	19.994	103.297	19.384	44.376	0.526
584.000	366.781	80.003	19.995	103.254	19.517	34.055	0.475
592.000	370.882	80.004	19.995	103.206	19.639	24.614	0.511
600.000	375.011	80.007	19.996	103.203	19.731	17.479	0.524
608.000	379.032	80.005	19.994	103.182	19.783	13.426	0.496
616.000	383.033	80.004	19.993	103.187	19.808	11.463	0.489
624.000	387.046	80.004	19.995	103.176	19.820	10.511	0.509
632.000	391.034	80.003	19.995	103.179	19.831	9.703	0.505
640.000	395.040	80.003	19.995	103.182	19.837	9.250	0.520
648.000	398.942	80.004	19.995	103.175	19.843	8.778	0.463
656.000	402.951	80.004	19.998	103.175	19.847	8.469	0.484
664.000	406.891	80.003	19.995	103.171	19.848	8.349	0.510
672.000	410.931	80.005	19.994	103.181	19.850	8.197	0.496
680.000	414.977	80.007	19.994	103.181	19.855	7.827	0.504
688.000	419.036	80.004	19.995	103.181	19.858	7.615	0.501
696.000	423.254	80.004	19.995	103.180	19.861	7.353	0.540
704.000	427.436	80.004	19.995	103.183	19.860	7.432	0.506
712.000	431.620	80.005	19.994	103.154	19.866	6.965	0.517
720.000	435.795	80.004	19.996	103.159	19.867	6.895	0.510
728.000	439.935	80.003	19.992	103.157	19.864	7.103	0.529
736.000	444.050	80.005	19.996	103.150	19.870	6.677	0.487
744.000	448.101	80.005	19.995	103.149	19.876	6.207	0.535
752.000	452.175	80.005	19.995	103.160	19.875	6.270	0.509
760.000	456.276	80.006	19.996	103.144	19.877	6.088	0.539
768.000	460.270	80.003	19.993	103.149	19.885	5.506	0.516
776.000	464.250	80.003	19.995	103.148	19.884	5.576	0.476
784.000	468.256	80.005	19.996	103.145	19.885	5.504	0.503
792.000	472.248	80.004	19.994	103.144	19.886	5.422	0.493
800.000	476.361	80.003	19.996	103.144	19.887	5.348	0.504
808.000	480.466	80.004	19.993	103.149	19.892	4.982	0.509
816.000	484.497	80.005	19.996	103.147	19.894	4.777	0.508
824.000	488.578	80.004	19.994	103.147	19.898	4.504	0.504
832.000	492.649	80.005	19.994	103.148	19.894	4.769	0.519
840.000	496.775	80.007	19.994	103.144	19.893	4.861	0.500
848.000	500.873	80.004	19.996	103.144	19.893	4.891	0.510
856.000	504.948	80.004	19.996	103.145	19.897	4.565	0.509
864.000	508.991	80.003	19.995	103.143	19.897	4.574	0.504
872.000	513.025	80.004	19.995	103.142	19.899	4.373	0.536
880.000	517.212	80.003	19.995	103.148	19.899	4.420	0.536
888.000	521.621	80.003	19.995	103.151	19.896	4.669	0.546
896.000	526.226	80.005	19.993	103.153	19.898	4.479	0.585
904.000	530.878	80.005	19.996	103.147	19.900	4.320	0.594
912.000	535.638	80.005	19.995	103.143	19.898	4.523	0.572
920.000	540.337	80.007	19.995	103.134	19.899	4.421	0.546
928.000	544.953	80.005	19.996	103.138	19.899	4.387	0.607
936.000	549.508	80.003	19.996	103.139	19.902	4.176	0.563
944.000	553.939	80.003	19.994	103.143	19.903	4.078	0.530
952.000	558.297	80.005	19.995	103.139	19.898	4.496	0.528
960.000	562.568	80.004	19.993	103.137	19.901	4.265	0.516
968.000	566.754	80.004	19.995	103.140	19.901	4.252	0.518
976.000	570.860	80.006	19.996	103.135	19.901	4.258	0.482
984.000	575.073	80.006	19.995	103.143	19.905	3.964	0.524
992.000	579.076	80.007	19.994	103.133	19.905	3.980	0.488
1000.000	583.179	80.007	19.996	103.129	19.902	4.155	0.490
1008.000	587.175	80.005	19.997	103.133	19.900	4.341	0.475
1016.000	591.201	80.003	19.996	103.143	19.901	4.267	0.492
1024.000	595.309	80.004	19.994	103.141	19.898	4.455	0.535
1031.999	599.353	80.005	19.996	103.144	19.898	4.493	0.507
1040.000	603.431	80.006	19.995	103.142	19.901	4.229	0.511
1047.999	607.443	80.003	19.996	103.136	19.899	4.415	0.483
1055.999	611.560	80.006	19.997	103.138	19.896	4.629	0.518
1063.999	615.679	80.005	19.995	103.142	19.894	4.768	0.527
1072.001	619.755	80.005	19.994	103.133	19.895	4.737	0.491
1080.000	623.882	80.006	19.993	103.146	19.894	4.817	0.529
1087.999	627.948	80.008	19.995	103.145	19.893	4.874	0.511
1095.999	632.032	80.005	19.995	103.146	19.894	4.762	0.505
1103.999	636.150	80.006	19.995	103.145	19.896	4.675	0.498
1111.999	640.238	80.004	19.995	103.145	19.890	5.128	0.506
1120.000	644.315	80.005	19.995	103.143	19.892	4.986	0.514
1127.999	648.403	80.004	19.994	103.133	19.894	4.815	0.524
1135.999	652.502	80.005	19.995	103.137	19.892	4.971	0.517
1144.000	656.577	80.007	19.995	103.146	19.888	5.247	0.485
1152.000	660.616	80.006	19.995	103.146	19.886	5.390	0.511
1160.000	664.671	80.008	19.994	103.149	19.889	5.219	0.481
1167.999	668.703	80.005	19.995	103.147	19.883	5.631	0.476
1175.999	672.752	80.005	19.995	103.145	19.889	5.157	0.511
1184.000	676.798	80.004	19.995	103.147	19.886	5.424	0.508
1192.000	680.827	80.005	19.996	103.145	19.885	5.521	0.474
1199.999	684.785	80.004	19.995	103.149	19.883	5.642	0.477
1208.000	688.656	80.004	19.996	103.145	19.884	5.597	0.435
1215.999	692.425	80.004	19.996	103.145	19.888	5.293	0.443
1224.001	696.262	80.006	19.995	103.141	19.888	5.280	0.476
1231.999	700.030	80.005	19.994	103.140	19.886	5.381	0.459
1239.999	703.903	80.005	19.994	103.137	19.883	5.650	0.472
1247.999	707.855	80.006	19.995	103.144	19.883	5.640	0.505
1255.999	711.781	80.005	19.995	103.132	19.889	5.210	0.507
1264.000	715.766	80.005	19.995	103.138	19.887	5.316	0.523
1272.000	719.760	80.005	19.995	103.138	19.885	5.529	0.522
1280.000	723.684	80.003	19.994	103.144	19.881	5.823	0.505
1288.000	727.657	80.004	19.994	103.144	19.878	6.003	0.504
1296.000	731.680	80.006	19.995	103.141	19.887	5.322	0.491
1303.999	735.686	80.005	19.994	103.141	19.882	5.736	0.491
1311.999	739.718	80.004	19.996	103.139	19.877	6.098	0.522
1319.999	743.752	80.008	19.995	103.135	19.881	5.827	0.516
1322.499	744.990	80.006	19.996	103.131	19.875	6.257	0.510