Folder: fsri_materials_database/01_Data/Fiber_Cement_Board/HFM

Note: 01_Data/README.md
# Materials and Products Database
## 01_Data

Raw data generated from each apparatus are included here in plain-text format. The data is organized first by material, next by the short name of test apparatus used, and where applicable additional filtering by test settings.

### material.json

Each material directory contains a json file of the same name as the material. This file links the data stored in the repository as well as data and graphs produced by the accompanying scripts (__02_Scripts__) to the respective landing page for the material on the front-end website.

File: Fiber_Cement_Board_Density_Dry_R1.csv
,Fiber_Cement_Board_1_DRY
Sample Mass [g],386.9
Sample Volume [cm3],299.2
Sample Density [kg/m3],1293

File: Fiber_Cement_Board_Density_Dry_R2.csv
,Fiber_Cement_Board_2_DRY
Sample Mass [g],390.9
Sample Volume [cm3],303.6
Sample Density [kg/m3],1287

File: Fiber_Cement_Board_Density_Dry_R3.csv
,Fiber_Cement_Board_3_DRY
Sample Mass [g],398.3
Sample Volume [cm3],318.3
Sample Density [kg/m3],1251

File: Fiber_Cement_Board_Density_Wet_R1.csv
,Fiber_Cement_Board_1_WET
Sample Mass [g],401.7
Sample Volume [cm3],295.7
Sample Density [kg/m3],1359

File: Fiber_Cement_Board_Density_Wet_R2.csv
,Fiber_Cement_Board_2_WET
Sample Mass [g],406.3
Sample Volume [cm3],303.6
Sample Density [kg/m3],1338

File: Fiber_Cement_Board_Density_Wet_R3.csv
,Fiber_Cement_Board_3_WET
Sample Mass [g],414.0
Sample Volume [cm3],318.3
Sample Density [kg/m3],1301

File: Fiber_Cement_Board_Ignition_Temp_Properties.csv
Thermal Conductivity (W/m-K),0.153
Heat Capacity (J/kg-K),990.0
Density (kg/m3),1332.67