Folder: fsri_materials_database/01_Data/Fiber_Cement_Board/MCC (part 2)

File: Fiber_Cement_Board_30K_min_210608_R3.txt
Sample ID:	C:\MCC\MCC Cal\Test\Fiber_Cement_Board\Fiber_Cement_Board_30_3.txt
Sample Weight (mg):	4.56
Heating Rate (C/s):	0.5
Combustor Temp (C):	900
N2 Flow Rate (cc/min):	80
O2 Flow Rate (cc/min):	20
Calibration File:	C:\MCC\MCC Cal\Coeff1 JN10440_30_210304.txt.txt
T Correction Coefficients:	0	1.024463	0
Time Shift (s):	14
*
Time (s)	Temperature (C)	N2 flow rate (cc/min)	O2 flow rate (cc/min)	Flow Rate (cc/min)	Oxygen (%)	HRR (W/g)	Heating rate (C/s)
0.000	110.397	79.984	19.992	99.910	19.956	-0.433	0.004
8.000	110.341	79.983	19.993	99.932	19.952	-0.125	0.011
16.000	110.425	79.983	19.992	99.999	19.939	0.736	0.017
24.000	110.714	79.986	19.992	100.050	19.933	1.180	0.033
32.000	111.377	79.986	19.992	100.013	19.929	1.392	0.108
40.001	112.254	79.985	19.991	100.082	19.921	1.957	0.108
48.000	113.407	79.986	19.991	100.124	19.916	2.342	0.174
56.001	115.024	79.987	19.992	100.102	19.915	2.365	0.211
64.000	116.935	79.985	19.993	100.109	19.915	2.367	0.298
72.000	119.047	79.985	19.991	100.138	19.910	2.720	0.279
80.000	121.471	79.987	19.993	100.147	19.899	3.515	0.322
88.000	124.162	79.984	19.992	100.174	19.905	3.099	0.351
96.000	127.115	79.985	19.991	100.182	19.901	3.338	0.373
104.000	130.384	79.985	19.991	100.184	19.903	3.241	0.432
112.001	133.781	79.986	19.991	100.180	19.900	3.443	0.441
120.000	137.325	79.987	19.992	100.174	19.898	3.578	0.435
128.000	140.950	79.987	19.991	100.180	19.899	3.469	0.468
136.000	144.706	79.987	19.992	100.172	19.894	3.806	0.447
144.000	148.611	79.985	19.992	100.178	19.898	3.518	0.525
152.000	152.511	79.985	19.992	100.167	19.898	3.566	0.539
160.000	156.435	79.983	19.992	100.171	19.901	3.376	0.486
168.000	160.426	79.984	19.992	100.160	19.898	3.538	0.501
176.000	164.520	79.983	19.991	100.147	19.909	2.775	0.552
184.000	168.560	79.985	19.993	100.138	19.906	2.985	0.527
192.000	172.602	79.989	19.992	100.139	19.900	3.430	0.498
200.000	176.579	79.985	19.993	100.138	19.906	3.028	0.507
208.000	180.596	79.988	19.993	100.130	19.902	3.308	0.488
216.000	184.588	79.992	19.993	100.120	19.907	2.963	0.526
224.000	188.573	79.987	19.992	100.121	19.905	3.090	0.482
232.000	192.531	79.985	19.992	100.124	19.904	3.141	0.485
240.000	196.485	79.984	19.992	100.112	19.906	3.010	0.479
248.000	200.446	79.987	19.993	100.105	19.910	2.750	0.458
256.000	204.430	79.985	19.992	100.110	19.907	2.918	0.523
264.000	208.436	79.983	19.993	100.101	19.907	2.920	0.478
272.000	212.388	79.986	19.992	100.098	19.909	2.813	0.489
280.000	216.384	79.987	19.991	100.100	19.906	3.004	0.501
288.000	220.327	79.986	19.991	100.100	19.908	2.872	0.524
296.000	224.283	79.989	19.993	100.083	19.913	2.552	0.519
304.000	228.285	79.987	19.992	100.102	19.907	2.920	0.480
312.000	232.229	79.985	19.992	100.098	19.912	2.567	0.499
320.000	236.217	79.987	19.994	100.098	19.905	3.089	0.506
328.000	240.148	79.988	19.993	100.096	19.912	2.591	0.494
336.000	244.142	79.986	19.993	100.097	19.910	2.746	0.470
344.000	248.167	79.987	19.992	100.099	19.916	2.340	0.525
352.000	252.150	79.985	19.992	100.076	19.911	2.668	0.480
360.000	256.107	79.985	19.992	100.082	19.914	2.486	0.494
368.000	260.103	79.985	19.991	100.076	19.908	2.862	0.518
376.000	264.061	79.987	19.991	100.089	19.906	2.973	0.510
384.000	268.007	79.988	19.993	100.076	19.907	2.908	0.509
392.000	272.062	79.985	19.992	100.067	19.910	2.723	0.508
400.000	276.012	79.986	19.992	100.078	19.905	3.054	0.494
408.000	279.995	79.985	19.992	100.093	19.908	2.866	0.471
416.000	284.002	79.984	19.992	100.082	19.903	3.185	0.459
424.000	288.091	79.982	19.992	100.078	19.899	3.463	0.533
432.000	292.106	79.986	19.992	100.067	19.898	3.548	0.505
440.000	296.139	79.986	19.992	100.064	19.899	3.461	0.509
448.000	300.166	79.986	19.993	100.068	19.897	3.594	0.538
456.000	304.171	79.988	19.991	100.060	19.893	3.906	0.512
464.000	308.268	79.986	19.992	100.061	19.889	4.186	0.505
472.000	312.324	79.986	19.992	100.066	19.886	4.371	0.529
480.000	316.296	79.986	19.992	100.065	19.888	4.230	0.496
488.000	320.318	79.987	19.993	100.066	19.880	4.789	0.485
496.000	324.372	79.986	19.992	100.067	19.885	4.420	0.507
504.000	328.523	79.987	19.991	100.062	19.883	4.562	0.529
512.000	332.451	79.987	19.993	100.064	19.881	4.745	0.534
520.000	336.497	79.989	19.993	100.062	19.877	4.998	0.489
528.000	340.557	79.986	19.994	100.064	19.876	5.071	0.510
536.000	344.587	79.985	19.993	100.064	19.865	5.789	0.492
544.000	348.574	79.987	19.992	100.060	19.867	5.680	0.506
552.000	352.660	79.985	19.992	100.064	19.862	6.005	0.484
560.000	356.776	79.985	19.991	100.067	19.855	6.498	0.529
568.000	360.793	79.987	19.992	100.062	19.854	6.534	0.493
576.000	364.843	79.988	19.991	100.061	19.855	6.457	0.514
584.000	368.945	79.985	19.991	100.061	19.849	6.888	0.543
592.000	372.970	79.986	19.992	100.059	19.857	6.331	0.475
600.000	377.058	79.987	19.993	100.060	19.866	5.744	0.515
608.000	381.093	79.985	19.993	100.055	19.872	5.301	0.504
616.000	385.138	79.987	19.992	100.042	19.889	4.163	0.480
624.000	389.150	79.986	19.993	100.035	19.895	3.746	0.482
632.000	393.247	79.984	19.993	100.031	19.903	3.209	0.543
640.000	397.284	79.986	19.991	100.032	19.902	3.248	0.512
648.000	401.324	79.986	19.993	100.048	19.902	3.250	0.474
656.000	405.333	79.985	19.992	100.039	19.904	3.130	0.464
664.000	409.445	79.986	19.991	100.049	19.904	3.124	0.513
672.000	413.458	79.987	19.991	100.042	19.908	2.881	0.479
680.000	417.495	79.988	19.992	100.034	19.909	2.803	0.508
688.000	421.610	79.986	19.992	100.048	19.907	2.958	0.486
696.000	425.658	79.987	19.992	100.035	19.906	3.003	0.492
704.000	429.686	79.988	19.993	100.032	19.905	3.087	0.494
712.000	433.786	79.986	19.994	100.035	19.903	3.224	0.538
720.000	437.880	79.984	19.994	100.042	19.907	2.960	0.506
728.000	442.004	79.985	19.992	100.033	19.905	3.056	0.544
736.000	446.113	79.985	19.992	100.033	19.905	3.082	0.494
744.000	450.212	79.986	19.992	100.026	19.903	3.229	0.492
752.000	454.330	79.987	19.992	100.027	19.904	3.126	0.509
760.000	458.475	79.989	19.993	100.046	19.907	2.938	0.525
768.000	462.599	79.987	19.992	100.022	19.904	3.133	0.509
776.000	466.709	79.988	19.994	100.025	19.906	3.023	0.537
784.000	470.834	79.989	19.992	100.029	19.907	2.960	0.503
792.000	474.980	79.988	19.992	100.025	19.906	2.975	0.499
800.000	479.056	79.986	19.993	100.032	19.907	2.962	0.504
808.000	483.171	79.985	19.994	100.023	19.908	2.837	0.512
816.000	487.234	79.986	19.993	100.024	19.910	2.746	0.488
824.000	491.339	79.986	19.991	100.021	19.907	2.906	0.510
832.000	495.371	79.986	19.992	100.022	19.909	2.779	0.511
840.000	499.488	79.987	19.993	100.022	19.907	2.951	0.514
848.000	503.521	79.988	19.992	100.029	19.909	2.825	0.494
856.000	507.532	79.987	19.992	100.024	19.910	2.741	0.517
864.000	511.625	79.987	19.992	100.032	19.907	2.903	0.512
872.000	515.725	79.987	19.993	100.038	19.909	2.792	0.489
880.000	519.814	79.987	19.993	100.026	19.905	3.041	0.505
888.000	523.954	79.985	19.992	100.022	19.908	2.877	0.485
896.000	528.075	79.986	19.993	100.033	19.912	2.589	0.529
904.000	532.141	79.985	19.992	100.020	19.912	2.556	0.508
912.000	536.333	79.986	19.993	100.022	19.913	2.538	0.514
920.000	540.395	79.988	19.993	100.022	19.913	2.528	0.492
928.000	544.405	79.987	19.992	100.025	19.909	2.779	0.479
936.000	548.545	79.988	19.992	100.027	19.912	2.595	0.547
944.000	552.542	79.989	19.992	100.029	19.911	2.637	0.508
952.000	556.629	79.988	19.993	100.026	19.915	2.355	0.499
960.000	560.660	79.986	19.992	100.021	19.915	2.407	0.506
968.000	564.679	79.986	19.992	100.027	19.913	2.490	0.493
976.000	568.704	79.986	19.993	100.023	19.913	2.515	0.528
984.000	572.777	79.984	19.994	100.023	19.913	2.525	0.537
992.000	576.813	79.986	19.994	100.026	19.913	2.512	0.485
1000.000	580.874	79.987	19.992	100.025	19.912	2.582	0.516
1008.000	584.923	79.988	19.992	100.018	19.911	2.652	0.509
1016.000	589.029	79.985	19.993	100.022	19.913	2.536	0.534
1024.000	593.100	79.987	19.992	100.020	19.913	2.488	0.545
1032.000	597.206	79.990	19.992	100.024	19.911	2.672	0.491
1040.001	601.302	79.986	19.993	100.019	19.911	2.628	0.491
1048.001	605.387	79.985	19.993	100.028	19.916	2.320	0.519
1056.000	609.491	79.985	19.993	100.030	19.912	2.586	0.527
1064.000	613.543	79.985	19.992	100.026	19.907	2.943	0.475
1072.000	617.649	79.981	19.993	100.025	19.909	2.785	0.515
1080.001	621.654	79.987	19.992	100.021	19.912	2.619	0.469
1088.001	625.704	79.985	19.992	100.015	19.912	2.613	0.531
1096.000	629.637	79.988	19.992	100.018	19.910	2.740	0.471
1104.000	633.626	79.990	19.992	100.018	19.909	2.768	0.503
1112.000	637.658	79.989	19.992	100.019	19.907	2.897	0.475
1120.001	641.747	79.986	19.992	100.023	19.906	3.008	0.505
1128.000	645.720	79.984	19.992	100.026	19.905	3.083	0.499
1136.000	649.745	79.984	19.993	100.025	19.905	3.050	0.520
1144.000	653.781	79.985	19.993	100.021	19.906	3.026	0.483
1152.000	657.841	79.984	19.993	100.018	19.902	3.262	0.505
1160.000	661.909	79.988	19.993	100.016	19.902	3.242	0.535
1168.001	665.887	79.987	19.993	100.019	19.898	3.528	0.500
1176.000	669.995	79.988	19.992	100.021	19.901	3.319	0.528
1184.000	674.040	79.988	19.991	100.023	19.903	3.211	0.578
1192.000	678.143	79.985	19.992	100.018	19.902	3.273	0.517
1200.001	682.272	79.985	19.993	100.022	19.900	3.376	0.510
1208.000	686.297	79.987	19.991	100.022	19.901	3.310	0.493
1216.001	690.272	79.987	19.992	100.008	19.905	3.100	0.515
1224.000	694.310	79.986	19.993	100.018	19.905	3.067	0.513
1232.000	698.374	79.983	19.993	100.014	19.904	3.140	0.476
1240.000	702.461	79.985	19.992	100.022	19.905	3.094	0.510
1248.001	706.559	79.986	19.993	100.020	19.905	3.056	0.477
1256.000	710.644	79.986	19.993	100.010	19.902	3.291	0.523
1264.000	714.695	79.986	19.992	100.018	19.899	3.483	0.536
1272.000	718.693	79.986	19.991	100.013	19.898	3.561	0.479
1280.000	722.678	79.987	19.992	100.003	19.902	3.273	0.517
1288.000	726.765	79.986	19.993	100.005	19.902	3.305	0.496
1296.000	730.809	79.987	19.992	99.993	19.901	3.352	0.498
1304.001	734.909	79.987	19.990	100.010	19.899	3.457	0.506
1312.001	738.897	79.986	19.994	100.022	19.899	3.472	0.477
1320.000	742.885	79.985	19.994	99.997	19.898	3.526	0.461
1321.500	743.654	79.985	19.992	100.005	19.895	3.763	0.511