Folder: fsri_materials_database/01_Data/Fiber_Cement_Board/MCC

Note: 01_Data/README.md
# Materials and Products Database
## 01_Data

Raw data generated from each apparatus are included here in plain-text format. The data is organized first by material, next by the short name of test apparatus used, and where applicable additional filtering by test settings.

### material.json

Each material directory contains a json file of the same name as the material. This file links the data stored in the repository as well as data and graphs produced by the accompanying scripts (__02_Scripts__) to the respective landing page for the material on the front-end website.

File: Fiber_Cement_Board_30K_min_210608_R1.txt
Sample ID:	C:\MCC\MCC Cal\Test\Fiber_Cement_Board\Fiber_Cement_Board_30_1.txt
Sample Weight (mg):	4.21
Heating Rate (C/s):	0.5
Combustor Temp (C):	900
N2 Flow Rate (cc/min):	80
O2 Flow Rate (cc/min):	20
Calibration File:	C:\MCC\MCC Cal\Coeff1 JN10440_30_210304.txt.txt
T Correction Coefficients:	0	1.024463	0
Time Shift (s):	14
*
Time (s)	Temperature (C)	N2 flow rate (cc/min)	O2 flow rate (cc/min)	Flow Rate (cc/min)	Oxygen (%)	HRR (W/g)	Heating rate (C/s)
0.000	111.737	79.985	19.992	99.892	19.971	0.196	-0.027
8.000	111.657	79.982	19.990	99.901	19.968	0.379	-0.004
16.000	111.647	79.984	19.992	99.933	19.964	0.705	0.021
24.000	111.727	79.984	19.992	99.962	19.959	1.045	0.028
32.000	111.949	79.983	19.991	99.978	19.952	1.593	0.038
40.000	112.600	79.985	19.993	100.090	19.937	2.664	0.137
48.000	113.710	79.985	19.992	100.113	19.926	3.526	0.192
56.000	115.395	79.986	19.993	100.136	19.924	3.658	0.235
64.000	117.497	79.985	19.992	100.144	19.921	3.850	0.276
72.000	120.023	79.987	19.992	100.165	19.917	4.145	0.349
80.000	122.872	79.984	19.992	100.174	19.916	4.285	0.368
88.000	126.017	79.983	19.992	100.174	19.915	4.361	0.397
96.001	129.393	79.985	19.992	100.176	19.917	4.194	0.443
104.000	132.908	79.985	19.992	100.174	19.919	4.063	0.436
112.000	136.663	79.983	19.992	100.171	19.921	3.915	0.510
120.000	140.580	79.984	19.993	100.155	19.921	3.906	0.484
128.000	144.441	79.985	19.992	100.158	19.919	4.006	0.494
136.000	148.407	79.985	19.992	100.202	19.918	4.072	0.471
144.000	152.449	79.985	19.993	100.146	19.921	3.876	0.480
152.001	156.461	79.986	19.991	100.141	19.925	3.598	0.488
160.000	160.538	79.985	19.993	100.142	19.923	3.738	0.501
168.000	164.516	79.984	19.993	100.130	19.919	3.995	0.524
176.000	168.527	79.985	19.992	100.137	19.924	3.623	0.466
184.000	172.545	79.984	19.992	100.107	19.924	3.631	0.518
192.000	176.512	79.985	19.992	100.118	19.929	3.259	0.524
200.000	180.450	79.985	19.991	100.112	19.930	3.223	0.504
208.000	184.493	79.987	19.992	100.106	19.931	3.145	0.521
216.000	188.484	79.985	19.993	100.110	19.930	3.224	0.483
224.001	192.335	79.986	19.992	100.103	19.933	3.020	0.478
232.000	196.263	79.988	19.992	100.102	19.934	2.908	0.471
240.000	200.156	79.985	19.991	100.102	19.932	3.042	0.495
248.000	204.076	79.984	19.994	100.101	19.934	2.902	0.451
256.000	208.088	79.983	19.993	100.095	19.939	2.566	0.486
264.000	212.055	79.983	19.992	100.095	19.936	2.761	0.492
272.000	216.006	79.985	19.992	100.092	19.938	2.644	0.466
280.000	220.004	79.984	19.992	100.099	19.938	2.608	0.488
288.000	223.936	79.985	19.992	100.156	19.942	2.342	0.480
296.000	227.995	79.985	19.991	100.088	19.939	2.524	0.519
304.000	231.997	79.985	19.991	100.074	19.940	2.490	0.501
312.000	235.915	79.987	19.992	100.064	19.938	2.648	0.481
320.000	239.966	79.985	19.992	100.081	19.941	2.402	0.505
328.000	243.925	79.983	19.992	100.078	19.944	2.138	0.490
336.000	247.928	79.983	19.993	100.077	19.943	2.246	0.496
344.000	252.051	79.985	19.993	100.070	19.940	2.469	0.499
352.000	256.045	79.983	19.993	100.068	19.937	2.666	0.507
360.000	260.018	79.985	19.992	100.105	19.940	2.490	0.490
368.000	263.985	79.987	19.992	100.067	19.941	2.382	0.469
376.000	268.031	79.985	19.992	100.063	19.947	1.958	0.494
384.000	272.097	79.985	19.992	100.067	19.938	2.596	0.493
392.000	276.145	79.986	19.992	100.071	19.935	2.848	0.499
400.000	280.130	79.984	19.993	100.063	19.935	2.804	0.512
408.000	284.083	79.983	19.992	100.068	19.936	2.737	0.395
416.000	288.115	79.984	19.992	100.061	19.936	2.741	0.499
424.000	292.060	79.983	19.993	100.061	19.936	2.762	0.514
432.000	296.099	79.983	19.992	100.062	19.934	2.927	0.493
440.000	300.004	79.985	19.993	100.059	19.932	3.039	0.513
448.000	304.006	79.986	19.992	100.063	19.934	2.917	0.507
456.000	308.041	79.984	19.992	100.058	19.930	3.173	0.514
464.000	312.074	79.984	19.992	100.065	19.929	3.311	0.496
472.000	316.161	79.987	19.992	100.061	19.928	3.373	0.496
480.000	320.101	79.984	19.991	100.058	19.927	3.463	0.466
488.000	324.085	79.984	19.993	100.062	19.930	3.243	0.495
496.000	328.092	79.985	19.993	100.059	19.928	3.343	0.486
504.000	332.086	79.984	19.992	100.044	19.925	3.565	0.510
512.000	336.028	79.985	19.994	100.059	19.923	3.696	0.495
520.000	340.067	79.983	19.992	100.055	19.915	4.308	0.500
528.000	344.062	79.984	19.993	100.056	19.914	4.418	0.499
536.000	348.068	79.984	19.991	100.062	19.913	4.442	0.526
544.000	352.201	79.985	19.992	100.061	19.911	4.650	0.545
552.000	356.281	79.987	19.992	100.055	19.912	4.522	0.539
560.000	360.314	79.985	19.992	100.057	19.905	5.045	0.439
568.000	364.378	79.986	19.992	100.058	19.905	5.059	0.665
576.000	368.443	79.985	19.993	100.056	19.904	5.145	0.514
584.000	372.513	79.985	19.993	100.056	19.906	4.957	0.501
592.000	376.584	79.984	19.992	100.050	19.909	4.790	0.489
600.000	380.647	79.984	19.992	100.043	19.915	4.330	0.512
608.000	384.588	79.986	19.993	100.030	19.922	3.767	0.458
616.000	388.604	79.985	19.992	100.025	19.938	2.581	0.490
624.000	392.548	79.987	19.991	100.025	19.949	1.806	0.481
632.000	396.621	79.987	19.991	100.025	19.951	1.626	0.530
640.000	400.643	79.985	19.992	100.024	19.956	1.304	0.504
648.000	404.652	79.986	19.992	100.031	19.955	1.346	0.515
656.000	408.670	79.986	19.992	100.028	19.957	1.175	0.495
664.000	412.744	79.985	19.992	100.021	19.957	1.228	0.523
672.000	416.734	79.984	19.992	100.025	19.958	1.139	0.529
680.000	420.749	79.987	19.992	100.026	19.959	1.029	0.495
688.000	424.720	79.986	19.993	100.024	19.957	1.214	0.487
696.000	428.805	79.985	19.994	100.021	19.956	1.274	0.502
704.000	432.794	79.984	19.992	100.026	19.963	0.765	0.493
712.000	436.951	79.987	19.991	100.027	19.961	0.883	0.522
720.001	440.991	79.985	19.991	100.023	19.962	0.851	0.505
728.000	445.002	79.984	19.992	100.029	19.957	1.240	0.478
736.000	449.060	79.985	19.992	100.027	19.964	0.707	0.501
744.000	453.069	79.985	19.991	100.023	19.958	1.129	0.490
752.000	457.204	79.984	19.993	100.015	19.960	0.957	0.504
760.000	461.268	79.985	19.993	100.017	19.959	1.027	0.521
768.000	465.324	79.987	19.992	100.025	19.963	0.735	0.535
776.000	469.381	79.986	19.992	100.017	19.963	0.743	0.506
784.000	473.501	79.986	19.993	100.026	19.961	0.923	0.543
792.000	477.605	79.987	19.992	100.025	19.963	0.797	0.516
800.000	481.651	79.986	19.992	100.025	19.958	1.095	0.481
808.000	485.749	79.986	19.991	100.023	19.963	0.769	0.476
816.000	489.791	79.986	19.993	100.016	19.964	0.667	0.505
824.000	493.895	79.987	19.992	100.016	19.964	0.719	0.510
832.000	498.014	79.982	19.992	100.026	19.970	0.276	0.523
840.000	502.120	79.986	19.992	100.019	19.967	0.485	0.522
848.000	506.230	79.986	19.992	100.027	19.971	0.136	0.475
856.000	510.349	79.986	19.992	100.016	19.972	0.126	0.516
864.000	514.475	79.985	19.993	100.002	19.969	0.320	0.515
872.000	518.557	79.986	19.993	100.017	19.965	0.581	0.476
880.000	522.668	79.985	19.992	100.021	19.968	0.364	0.497
888.000	526.765	79.985	19.991	100.021	19.972	0.076	0.514
896.000	530.950	79.985	19.991	100.019	19.972	0.112	0.529
904.000	535.064	79.984	19.992	100.012	19.970	0.220	0.498
912.000	539.156	79.984	19.991	100.011	19.970	0.258	0.495
920.000	543.225	79.985	19.991	100.015	19.973	-0.008	0.532
928.000	547.282	79.987	19.992	100.002	19.972	0.110	0.522
936.000	551.348	79.986	19.993	100.003	19.975	-0.126	0.518
944.000	555.400	79.987	19.992	100.004	19.977	-0.252	0.481
952.000	559.417	79.988	19.992	100.002	19.973	0.032	0.489
960.000	563.441	79.984	19.993	100.010	19.974	-0.066	0.480
968.000	567.620	79.986	19.992	100.008	19.972	0.090	0.558
976.000	571.688	79.983	19.992	100.021	19.972	0.104	0.515
984.000	575.942	79.988	19.991	100.004	19.980	-0.493	0.542
992.000	580.092	79.983	19.992	100.001	19.980	-0.479	0.539
1000.000	584.205	79.985	19.992	100.021	19.978	-0.375	0.514
1008.000	588.335	79.986	19.992	99.991	19.974	-0.042	0.550
1016.000	592.427	79.986	19.993	99.998	19.978	-0.320	0.514
1024.000	596.647	79.988	19.993	99.997	19.977	-0.304	0.499
1032.001	600.742	79.987	19.992	99.995	19.975	-0.094	0.485
1040.000	604.849	79.985	19.992	100.007	19.975	-0.166	0.508
1048.001	608.946	79.983	19.993	99.997	19.975	-0.098	0.510
1056.000	613.135	79.985	19.993	100.006	19.978	-0.361	0.528
1064.001	617.316	79.985	19.992	100.012	19.978	-0.355	0.501
1072.000	621.440	79.985	19.992	99.997	19.977	-0.244	0.511
1080.000	625.468	79.985	19.992	99.995	19.977	-0.260	0.488
1088.000	629.548	79.986	19.991	100.012	19.977	-0.276	0.457
1096.000	633.606	79.989	19.992	100.012	19.977	-0.280	0.510
1104.001	637.719	79.987	19.992	100.006	19.979	-0.459	0.522
1112.000	641.853	79.988	19.993	99.992	19.976	-0.218	0.482
1120.001	645.897	79.985	19.993	99.990	19.979	-0.453	0.515
1128.000	650.001	79.985	19.993	99.998	19.974	-0.058	0.527
1136.000	653.976	79.984	19.993	99.986	19.978	-0.349	0.501
1144.000	658.068	79.985	19.992	99.994	19.978	-0.339	0.505
1152.000	662.098	79.985	19.992	99.994	19.974	-0.050	0.490
1160.000	666.097	79.987	19.992	100.001	19.974	-0.052	0.505
1168.000	670.199	79.984	19.991	99.990	19.972	0.110	0.522
1176.000	674.273	79.987	19.992	99.990	19.980	-0.473	0.516
1184.001	678.363	79.988	19.991	100.011	19.980	-0.485	0.500
1192.000	682.464	79.988	19.992	99.984	19.980	-0.499	0.531
1200.000	686.538	79.983	19.993	99.990	19.981	-0.571	0.486
1208.000	690.600	79.987	19.992	99.987	19.981	-0.585	0.520
1216.000	694.660	79.985	19.993	99.991	19.976	-0.228	0.514
1224.001	698.668	79.983	19.993	99.986	19.974	-0.054	0.463
1232.001	702.758	79.985	19.993	100.008	19.977	-0.290	0.518
1240.000	706.824	79.986	19.991	99.988	19.979	-0.389	0.531
1248.000	710.868	79.987	19.992	99.986	19.980	-0.463	0.513
1256.001	714.956	79.985	19.991	99.984	19.981	-0.565	0.510
1264.000	719.056	79.989	19.992	99.983	19.975	-0.164	0.568
1272.001	723.127	79.985	19.992	99.990	19.976	-0.202	0.499
1280.000	727.057	79.981	19.993	99.990	19.975	-0.148	0.521
1288.001	731.103	79.985	19.993	99.990	19.978	-0.345	0.506
1296.000	735.034	79.982	19.992	99.992	19.980	-0.477	0.469
1304.001	739.004	79.983	19.993	99.986	19.975	-0.114	0.538
1312.000	743.073	79.983	19.993	99.985	19.980	-0.479	0.529
1313.000	743.608	79.985	19.993	99.985	19.977	-0.276	0.509

File: Fiber_Cement_Board_30K_min_210608_R2.txt
Sample ID:	C:\MCC\MCC Cal\Test\Fiber_Cement_Board\Fiber_Cement_Board_30_2.txt
Sample Weight (mg):	3.79
Heating Rate (C/s):	0.5
Combustor Temp (C):	900
N2 Flow Rate (cc/min):	80
O2 Flow Rate (cc/min):	20
Calibration File:	C:\MCC\MCC Cal\Coeff1 JN10440_30_210304.txt.txt
T Correction Coefficients:	0	1.024463	0
Time Shift (s):	14
*
Time (s)	Temperature (C)	N2 flow rate (cc/min)	O2 flow rate (cc/min)	Flow Rate (cc/min)	Oxygen (%)	HRR (W/g)	Heating rate (C/s)
0.000	106.272	79.985	19.992	99.866	20.034	-0.168	-0.009
8.000	106.285	79.985	19.992	99.875	20.036	-0.337	-0.002
16.001	106.392	79.985	19.992	99.937	20.019	1.087	0.012
24.000	106.779	79.986	19.993	100.057	20.012	1.640	0.051
32.000	107.538	79.985	19.992	100.027	20.000	2.648	0.136
40.000	108.683	79.983	19.992	100.060	20.001	2.575	0.173
48.000	110.251	79.982	19.993	100.060	19.995	3.101	0.233
56.000	112.014	79.983	19.994	100.063	19.993	3.276	0.244
64.000	114.141	79.984	19.993	100.031	19.988	3.686	0.293
72.000	116.429	79.984	19.991	100.086	19.988	3.693	0.276
80.000	118.979	79.986	19.991	100.096	19.985	3.913	0.339
88.001	121.715	79.984	19.991	100.106	19.993	3.235	0.365
96.001	124.734	79.986	19.992	100.104	19.981	4.210	0.365
104.000	127.950	79.987	19.992	100.109	19.987	3.731	0.403
112.001	131.210	79.983	19.992	100.103	19.980	4.308	0.419
120.000	134.733	79.984	19.993	100.105	19.985	3.940	0.456
128.000	138.326	79.983	19.993	100.108	19.989	3.566	0.471
136.000	142.031	79.984	19.993	100.115	19.988	3.633	0.475
144.000	145.735	79.982	19.994	100.106	19.987	3.713	0.430
152.000	149.555	79.984	19.990	100.105	19.982	4.183	0.449
160.000	153.311	79.985	19.992	100.115	19.989	3.586	0.492
168.000	157.197	79.986	19.993	100.101	19.982	4.150	0.480
176.000	161.110	79.986	19.991	100.101	19.989	3.564	0.492
184.000	165.044	79.988	19.991	100.102	19.991	3.409	0.467
192.000	169.008	79.985	19.992	100.093	19.992	3.322	0.504
200.000	173.037	79.985	19.993	100.101	19.996	3.008	0.528
208.000	177.037	79.983	19.991	100.086	19.990	3.492	0.472
216.000	180.976	79.986	19.993	100.073	19.996	3.026	0.474
224.000	184.939	79.982	19.994	100.089	19.997	2.930	0.518
232.000	188.925	79.984	19.994	100.073	19.987	3.762	0.484
240.000	192.899	79.985	19.992	100.072	19.994	3.121	0.513
248.000	196.792	79.984	19.991	100.067	20.000	2.664	0.482
256.000	200.744	79.987	19.992	100.068	20.000	2.657	0.497
264.000	204.742	79.986	19.992	100.073	20.000	2.655	0.482
272.000	208.716	79.985	19.993	100.065	20.003	2.455	0.475
280.000	212.623	79.985	19.992	100.068	19.999	2.744	0.522
288.000	216.650	79.985	19.992	100.072	20.002	2.479	0.495
296.000	220.691	79.984	19.993	100.063	20.003	2.422	0.520
304.000	224.739	79.983	19.992	100.056	20.005	2.249	0.493
312.000	228.842	79.984	19.993	100.065	20.007	2.122	0.534
320.000	232.875	79.985	19.993	100.055	20.006	2.175	0.524
328.000	236.856	79.984	19.991	100.059	19.998	2.845	0.497
336.000	240.812	79.988	19.993	100.045	20.006	2.162	0.472
344.000	244.778	79.984	19.991	100.042	20.000	2.659	0.498
352.000	248.828	79.984	19.993	100.053	20.008	1.964	0.525
360.000	252.788	79.985	19.992	100.049	20.009	1.891	0.503
368.000	256.771	79.985	19.992	100.040	20.009	1.902	0.493
376.000	260.744	79.983	19.993	100.039	20.005	2.237	0.507
384.000	264.704	79.983	19.992	100.048	20.011	1.738	0.508
392.000	268.678	79.984	19.991	100.047	20.007	2.088	0.505
400.000	272.689	79.983	19.993	100.042	20.006	2.148	0.495
408.000	276.654	79.985	19.993	100.041	20.005	2.266	0.462
416.000	280.616	79.987	19.992	100.037	20.004	2.359	0.501
424.000	284.639	79.986	19.991	100.034	20.009	1.951	0.504
432.000	288.650	79.984	19.991	100.036	20.010	1.817	0.485
440.000	292.745	79.985	19.992	100.041	20.003	2.445	0.497
448.000	296.801	79.984	19.991	100.052	20.000	2.623	0.508
456.000	300.851	79.984	19.992	100.036	20.001	2.585	0.512
464.000	304.902	79.983	19.992	100.030	19.998	2.802	0.502
472.000	308.955	79.988	19.994	100.025	20.001	2.607	0.542
480.000	313.000	79.985	19.993	100.023	19.998	2.829	0.472
488.000	317.049	79.985	19.994	100.023	19.997	2.940	0.490
496.000	321.046	79.987	19.994	100.023	19.994	3.158	0.491
504.000	325.096	79.984	19.991	100.034	19.992	3.328	0.545
512.000	329.123	79.984	19.992	100.029	19.992	3.311	0.507
520.000	333.190	79.986	19.992	100.029	19.992	3.355	0.544
528.000	337.232	79.985	19.993	100.035	19.987	3.746	0.516
536.000	341.288	79.983	19.992	100.025	19.988	3.681	0.523
544.000	345.268	79.987	19.994	100.024	19.985	3.934	0.496
552.000	349.308	79.987	19.993	100.025	19.974	4.817	0.488
560.000	353.431	79.985	19.992	100.024	19.973	4.848	0.503
568.000	357.490	79.982	19.992	100.029	19.971	5.012	0.516
576.000	361.537	79.986	19.992	100.027	19.968	5.261	0.511
584.000	365.578	79.984	19.993	100.024	19.968	5.336	0.483
592.000	369.636	79.984	19.991	100.024	19.963	5.687	0.488
600.000	373.685	79.985	19.992	100.023	19.966	5.474	0.488
608.000	377.760	79.985	19.991	100.022	19.973	4.923	0.528
616.000	381.729	79.983	19.992	100.021	19.972	4.996	0.477
624.000	385.786	79.984	19.992	100.010	19.991	3.379	0.497
632.000	389.781	79.985	19.992	100.020	19.998	2.853	0.483
640.000	393.906	79.984	19.992	100.018	20.012	1.690	0.533
648.000	397.930	79.986	19.994	100.027	20.006	2.156	0.488
656.000	402.031	79.985	19.992	100.018	20.012	1.677	0.526
664.000	406.057	79.984	19.993	100.004	20.011	1.782	0.476
672.000	410.146	79.985	19.993	100.011	20.011	1.748	0.511
680.000	414.141	79.985	19.992	100.009	20.011	1.777	0.469
688.000	418.172	79.985	19.993	100.022	20.011	1.755	0.490
696.000	422.221	79.984	19.992	100.009	20.016	1.373	0.507
704.000	426.278	79.986	19.991	100.009	20.015	1.409	0.497
712.000	430.369	79.987	19.992	100.005	20.013	1.619	0.556
720.000	434.577	79.987	19.993	100.015	20.008	1.983	0.382
728.000	438.498	79.986	19.992	100.013	20.013	1.571	0.436
736.000	442.467	79.987	19.992	100.006	20.006	2.161	0.520
744.000	446.465	79.983	19.993	99.995	20.009	1.961	0.510
752.000	450.457	79.983	19.994	100.005	20.010	1.872	0.496
760.000	454.478	79.982	19.992	100.022	20.006	2.163	0.478
768.000	458.536	79.983	19.991	100.006	20.008	2.001	0.506
776.000	462.633	79.983	19.991	100.005	20.008	2.043	0.550
784.000	466.623	79.985	19.992	100.001	20.006	2.177	0.504
792.000	470.724	79.986	19.993	100.014	20.009	1.919	0.514
800.000	474.843	79.985	19.993	100.014	20.011	1.786	0.532
808.000	478.985	79.986	19.993	100.005	20.008	1.976	0.507
816.000	483.100	79.987	19.993	100.012	20.010	1.808	0.538
824.000	487.131	79.984	19.992	100.011	20.010	1.863	0.490
832.001	491.234	79.983	19.992	100.020	20.011	1.728	0.487
840.000	495.407	79.983	19.993	99.998	20.007	2.094	0.521
848.000	499.545	79.983	19.992	99.987	20.013	1.622	0.516
856.000	503.646	79.983	19.992	99.996	20.013	1.573	0.528
864.000	507.736	79.986	19.993	100.005	20.008	1.972	0.508
872.001	511.743	79.985	19.992	100.002	20.009	1.941	0.516
880.000	515.928	79.984	19.992	100.019	20.003	2.447	0.518
888.000	520.045	79.986	19.992	100.015	20.004	2.336	0.503
896.000	524.097	79.986	19.991	100.010	20.007	2.125	0.534
904.000	528.206	79.985	19.992	100.008	20.004	2.338	0.489
912.000	532.355	79.983	19.993	99.992	20.010	1.825	0.528
920.000	536.511	79.984	19.992	99.998	20.004	2.309	0.518
928.000	540.655	79.983	19.993	99.997	20.005	2.258	0.510
936.001	544.769	79.984	19.992	99.997	20.008	1.976	0.506
944.000	548.890	79.985	19.991	100.008	20.008	1.979	0.523
952.000	553.027	79.986	19.993	100.014	20.005	2.232	0.531
960.000	557.137	79.986	19.991	99.999	20.006	2.154	0.470
968.000	561.273	79.987	19.992	99.996	20.007	2.105	0.504
976.000	565.359	79.989	19.992	99.996	20.010	1.850	0.521
984.000	569.469	79.986	19.992	99.995	20.004	2.353	0.517
992.000	573.550	79.986	19.994	99.996	20.004	2.302	0.489
1000.000	577.627	79.984	19.992	99.987	20.001	2.602	0.484
1008.000	581.684	79.985	19.993	100.006	20.003	2.414	0.498
1016.000	585.637	79.982	19.993	99.992	20.004	2.355	0.497
1024.000	589.738	79.986	19.993	99.993	20.001	2.613	0.534
1032.001	593.842	79.989	19.992	100.043	20.002	2.500	0.504
1040.000	597.935	79.986	19.991	99.994	19.999	2.755	0.519
1048.000	602.006	79.985	19.992	100.004	20.004	2.360	0.494
1056.000	606.087	79.987	19.992	99.992	20.001	2.602	0.509
1064.000	610.127	79.987	19.992	99.991	20.005	2.291	0.500
1072.000	614.250	79.985	19.992	100.004	20.003	2.456	0.522
1080.000	618.402	79.983	19.993	99.995	20.006	2.198	0.555
1088.000	622.416	79.982	19.991	99.997	20.001	2.571	0.530
1096.001	626.478	79.983	19.993	99.989	19.998	2.797	0.504
1104.000	630.528	79.984	19.993	99.998	19.999	2.755	0.535
1112.000	634.617	79.986	19.992	99.987	19.995	3.039	0.527
1120.000	638.688	79.985	19.993	99.989	19.996	2.966	0.504
1128.001	642.775	79.985	19.991	99.986	19.996	2.974	0.508
1136.000	646.844	79.986	19.991	99.988	19.998	2.827	0.538
1144.000	650.885	79.985	19.991	99.985	19.997	2.883	0.515
1152.001	654.971	79.984	19.991	100.008	19.992	3.320	0.515
1160.000	659.104	79.985	19.992	99.986	19.996	3.001	0.498
1168.000	663.223	79.987	19.992	99.985	19.997	2.886	0.518
1176.001	667.342	79.985	19.993	99.989	19.993	3.205	0.504
1184.000	671.458	79.986	19.992	99.985	19.992	3.349	0.524
1192.001	675.599	79.984	19.994	99.986	19.993	3.207	0.537
1200.000	679.596	79.984	19.992	99.989	19.998	2.863	0.489
1208.001	683.658	79.987	19.991	99.987	19.995	3.037	0.505
1216.000	687.693	79.988	19.991	99.987	19.991	3.418	0.496
1224.000	691.770	79.984	19.992	99.985	19.994	3.172	0.517
1232.001	695.840	79.987	19.993	99.986	19.989	3.551	0.494
1240.001	699.901	79.987	19.992	99.986	19.991	3.431	0.499
1248.000	703.967	79.983	19.992	99.985	19.991	3.394	0.523
1256.000	707.970	79.985	19.993	99.988	19.988	3.673	0.489
1264.000	712.077	79.984	19.992	99.988	19.993	3.274	0.509
1272.000	716.241	79.986	19.992	99.985	19.993	3.263	0.544
1280.000	720.336	79.985	19.993	99.989	19.993	3.207	0.552
1288.000	724.456	79.987	19.992	99.989	19.992	3.334	0.539
1296.000	728.579	79.987	19.992	99.990	19.986	3.844	0.495
1304.000	732.623	79.986	19.992	99.991	19.985	3.884	0.489
1312.000	736.633	79.985	19.992	99.985	19.983	4.097	0.491
1320.001	740.710	79.984	19.991	99.988	19.981	4.188	0.473
1325.501	743.527	79.987	19.991	99.987	19.982	4.130	0.506