Folder: fsri_materials_database/01_Data/Cinder_Block/MCC (part 2)

File: Cinder_Block_MCC_30K_min_220224_R3.txt
Sample ID:	C:\MCC\MCC Cal\Test\Cinder_Block_MCC_30K_min_220224_R3.txt
Sample Weight (mg):	4.86
Heating Rate (C/s):	0.5
Combustor Temp (C):	900
N2 Flow Rate (cc/min):	80
O2 Flow Rate (cc/min):	20
Calibration File:	C:\MCC\MCC Cal\Coeff1 JN10440_30_210304.txt.txt
T Correction Coefficients:	0	1.024463	0
Time Shift (s):	14
*
Time (s)	Temperature (C)	N2 flow rate (cc/min)	O2 flow rate (cc/min)	Flow Rate (cc/min)	Oxygen (%)	HRR (W/g)	Heating rate (C/s)
0.000	112.640	80.003	19.994	103.759	20.043	0.171	-0.004
7.500	112.606	80.003	19.996	103.762	20.041	0.295	-0.030
15.000	112.607	79.999	19.994	103.763	20.044	0.115	0.017
22.500	112.640	80.002	19.997	103.811	20.037	0.613	0.012
30.000	112.920	80.003	19.994	103.913	20.025	1.405	0.043
37.500	113.532	80.003	19.995	103.994	20.006	2.675	0.100
45.000	114.661	80.003	19.993	104.004	20.000	3.046	0.164
52.500	116.210	80.004	19.994	104.011	19.997	3.241	0.209
60.000	118.172	80.003	19.993	104.016	19.991	3.688	0.278
67.501	120.419	80.003	19.995	104.046	19.986	4.008	0.311
75.000	123.016	80.002	19.994	104.062	19.988	3.842	0.355
82.501	125.941	80.003	19.997	104.056	19.986	3.965	0.386
90.000	129.098	80.002	19.994	104.060	19.988	3.879	0.437
97.500	132.375	80.002	19.995	104.072	19.986	4.010	0.444
105.000	135.903	80.002	19.995	104.068	19.985	4.095	0.486
112.500	139.503	80.003	19.994	104.071	19.983	4.214	0.481
120.000	143.226	80.001	19.996	104.049	19.988	3.850	0.488
127.500	147.030	80.003	19.993	104.046	19.989	3.770	0.516
135.000	150.977	80.006	19.993	104.037	19.988	3.872	0.551
142.500	154.780	80.004	19.993	104.035	19.990	3.718	0.491
150.000	158.675	80.003	19.993	104.033	19.990	3.726	0.541
157.500	162.470	80.002	19.994	104.030	19.993	3.541	0.504
165.000	166.301	80.002	19.993	104.017	19.988	3.876	0.515
172.500	170.100	80.001	19.993	104.001	19.996	3.334	0.568
180.000	173.805	80.001	19.995	104.002	19.994	3.440	0.468
187.500	177.586	80.004	19.994	103.998	19.999	3.121	0.502
195.000	181.255	80.005	19.995	103.996	20.000	3.090	0.493
202.500	184.921	80.003	19.994	103.993	20.001	3.013	0.486
210.000	188.622	80.004	19.995	103.995	19.999	3.103	0.487
217.500	192.216	80.005	19.995	103.992	20.001	3.019	0.476
225.000	195.833	80.004	19.994	103.994	20.003	2.876	0.475
232.501	199.410	80.003	19.993	103.990	20.001	2.991	0.486
240.000	203.028	80.002	19.994	103.994	20.002	2.916	0.475
247.500	206.642	80.004	19.993	103.985	19.999	3.152	0.505
255.000	210.233	80.003	19.993	103.991	20.005	2.720	0.469
262.500	213.894	80.002	19.994	103.992	19.998	3.216	0.493
270.000	217.555	80.004	19.995	103.976	19.999	3.121	0.452
277.500	221.219	80.006	19.994	103.991	20.004	2.809	0.491
285.000	224.919	80.005	19.995	103.988	20.001	3.024	0.498
292.500	228.703	80.004	19.994	103.983	20.002	2.911	0.496
300.000	232.477	80.006	19.995	103.980	20.005	2.697	0.495
307.500	236.277	80.004	19.995	103.982	20.002	2.952	0.505
315.000	240.052	80.003	19.993	103.972	20.004	2.823	0.486
322.500	243.830	80.003	19.995	103.957	20.001	2.972	0.539
330.000	247.584	80.002	19.993	103.961	20.001	2.985	0.503
337.500	251.383	80.004	19.993	103.963	20.003	2.850	0.503
345.000	255.184	80.003	19.995	103.966	20.001	2.978	0.516
352.500	258.932	80.005	19.993	103.963	20.007	2.613	0.544
360.000	262.606	80.005	19.993	103.960	20.004	2.797	0.505
367.500	266.333	80.004	19.995	103.963	20.003	2.864	0.473
375.000	270.083	80.005	19.996	103.958	20.004	2.821	0.493
382.500	273.871	80.006	19.994	103.957	20.003	2.850	0.503
390.000	277.636	80.003	19.995	103.956	20.006	2.648	0.526
397.500	281.393	80.003	19.995	103.964	20.002	2.893	0.512
405.000	285.256	80.004	19.994	103.960	20.004	2.822	0.540
412.500	289.120	80.004	19.994	103.958	20.003	2.874	0.539
420.000	292.933	80.002	19.994	103.958	20.002	2.897	0.493
427.500	296.750	80.003	19.993	103.954	20.006	2.689	0.485
435.000	300.611	80.004	19.993	103.957	19.999	3.109	0.524
442.500	304.389	80.005	19.993	103.955	20.004	2.795	0.528
450.000	308.094	80.004	19.993	103.942	20.005	2.713	0.477
457.500	311.925	80.005	19.994	103.930	20.005	2.724	0.485
465.000	315.716	80.007	19.994	103.953	20.002	2.953	0.492
472.500	319.473	80.004	19.994	103.947	20.004	2.775	0.504
480.000	323.258	80.002	19.994	103.938	20.006	2.667	0.490
487.500	327.066	80.002	19.994	103.941	20.003	2.846	0.540
495.000	330.843	80.002	19.994	103.942	20.004	2.802	0.511
502.500	334.642	80.002	19.993	103.949	19.998	3.211	0.512
510.000	338.457	80.003	19.993	103.949	20.007	2.621	0.533
517.500	342.148	80.005	19.994	103.944	20.016	1.965	0.499
525.000	345.927	80.004	19.993	103.935	19.999	3.152	0.535
532.500	349.657	80.005	19.993	103.928	20.009	2.467	0.525
540.000	353.497	80.005	19.993	103.934	20.005	2.738	0.533
547.500	357.159	80.005	19.992	103.934	20.002	2.897	0.487
555.000	360.965	80.003	19.994	103.932	19.999	3.132	0.451
562.500	364.722	80.001	19.994	103.934	20.000	3.075	0.487
570.000	368.526	80.002	19.993	103.937	20.003	2.881	0.507
577.500	372.301	80.002	19.995	103.941	20.001	3.013	0.512
585.000	376.165	80.003	19.994	103.937	19.998	3.208	0.512
592.500	379.982	80.002	19.995	103.929	19.998	3.210	0.479
600.000	383.790	80.004	19.994	103.923	20.000	3.073	0.492
607.500	387.626	80.005	19.993	103.934	20.002	2.928	0.523
615.000	391.440	80.002	19.995	103.942	20.001	2.984	0.500
622.500	395.301	80.004	19.993	103.924	20.001	2.958	0.505
630.000	399.162	80.007	19.993	103.925	19.998	3.181	0.511
637.500	402.974	80.003	19.993	103.932	20.000	3.075	0.540
645.000	406.778	80.003	19.994	103.924	20.000	3.033	0.495
652.500	410.558	80.004	19.994	103.929	20.000	3.051	0.499
660.000	414.342	80.004	19.994	103.919	20.000	3.082	0.500
667.500	418.156	80.002	19.994	103.923	20.000	3.046	0.497
675.000	421.950	80.004	19.995	103.922	19.999	3.110	0.497
682.500	425.736	80.004	19.996	103.939	19.998	3.199	0.530
690.000	429.521	80.004	19.992	103.931	19.998	3.190	0.497
697.500	433.351	80.002	19.992	103.925	19.997	3.264	0.499
705.000	437.199	80.006	19.995	103.923	19.999	3.151	0.526
712.500	441.020	80.006	19.994	103.923	20.000	3.038	0.539
720.000	444.788	80.004	19.995	103.923	20.001	3.017	0.513
727.500	448.597	80.003	19.994	103.931	20.000	3.073	0.513
735.000	452.409	80.004	19.994	103.941	20.001	3.015	0.509
742.500	456.294	80.002	19.995	103.930	20.001	2.995	0.511
750.000	460.169	80.003	19.994	103.922	19.998	3.186	0.518
757.500	464.082	80.003	19.994	103.928	19.999	3.148	0.534
765.000	467.935	80.004	19.994	103.924	19.998	3.206	0.507
772.500	471.843	80.005	19.995	103.918	19.993	3.499	0.494
780.000	475.715	80.005	19.993	103.920	19.996	3.299	0.512
787.500	479.566	80.004	19.995	103.918	19.999	3.135	0.525
795.000	483.415	80.006	19.994	103.917	19.993	3.505	0.512
802.500	487.255	80.002	19.994	103.918	19.995	3.376	0.526
810.000	491.087	80.002	19.996	103.921	19.996	3.343	0.510
817.500	494.911	80.002	19.994	103.921	19.997	3.277	0.528
825.000	498.738	80.003	19.994	103.922	19.993	3.494	0.520
832.500	502.564	80.003	19.993	103.920	19.992	3.591	0.511
840.000	506.383	80.002	19.995	103.918	19.994	3.430	0.483
847.500	510.252	80.005	19.995	103.918	19.997	3.261	0.538
855.000	514.040	80.005	19.994	103.910	19.994	3.447	0.502
862.500	517.832	80.003	19.995	103.913	19.998	3.197	0.469
870.000	521.659	80.003	19.994	103.917	19.994	3.448	0.517
877.500	525.487	80.004	19.994	103.919	19.992	3.607	0.512
885.000	529.315	80.005	19.993	103.916	19.994	3.461	0.508
892.500	533.148	80.003	19.994	103.922	19.996	3.330	0.510
900.000	537.051	80.001	19.994	103.918	19.997	3.239	0.509
907.500	540.903	80.002	19.993	103.918	19.994	3.459	0.532
915.000	544.686	80.004	19.994	103.920	19.995	3.397	0.491
922.500	548.446	80.003	19.993	103.920	19.994	3.454	0.498
930.000	552.242	80.004	19.994	103.918	19.989	3.769	0.498
937.500	556.086	80.004	19.994	103.918	19.987	3.915	0.542
945.000	559.883	80.004	19.992	103.921	19.990	3.735	0.483
952.500	563.700	80.006	19.994	103.920	19.992	3.614	0.521
960.000	567.532	80.006	19.994	103.918	19.991	3.689	0.516
967.500	571.384	80.004	19.995	103.917	19.987	3.900	0.499
975.000	575.343	80.002	19.993	103.917	19.989	3.762	0.496
982.500	579.247	80.004	19.993	103.922	19.990	3.738	0.522
990.000	583.163	80.004	19.994	103.916	19.985	4.034	0.494
997.500	587.060	80.003	19.995	103.920	19.986	4.003	0.524
1005.000	590.836	80.003	19.994	103.920	19.988	3.842	0.472
1012.500	594.747	80.005	19.993	103.918	19.990	3.747	0.502
1020.000	598.557	80.004	19.993	103.922	19.987	3.891	0.529
1027.500	602.315	80.004	19.995	103.917	19.990	3.727	0.478
1035.000	606.105	80.005	19.993	103.914	19.986	3.988	0.499
1042.500	609.935	80.004	19.994	103.917	19.985	4.046	0.521
1050.000	613.644	80.003	19.994	103.910	19.980	4.395	0.519
1057.500	617.419	80.001	19.995	103.917	19.971	5.021	0.507
1065.000	621.271	80.003	19.994	103.923	19.985	4.028	0.539
1072.500	624.589	80.002	19.993	103.921	19.985	4.072	0.525
1080.000	628.971	80.001	19.993	103.920	19.985	4.037	0.533
1087.500	632.754	80.000	19.994	103.924	19.989	3.820	0.501
1095.000	636.655	80.004	19.993	103.933	19.989	3.820	0.536
1102.501	640.525	80.005	19.993	103.926	19.983	4.200	0.512
1110.000	644.422	80.000	19.992	103.930	19.986	3.995	0.514
1117.500	648.230	80.005	19.995	103.921	19.987	3.958	0.511
1125.000	651.992	80.008	19.994	103.924	19.984	4.129	0.546
1132.501	655.881	80.002	19.994	103.938	19.982	4.232	0.502
1140.000	659.655	80.003	19.994	103.934	19.981	4.317	0.497
1147.500	663.388	80.002	19.995	103.948	19.982	4.259	0.491
1155.001	667.177	79.998	19.995	103.953	19.979	4.434	0.522
1162.500	670.896	80.001	19.994	103.951	19.979	4.442	0.517
1170.001	674.708	80.002	19.994	103.958	19.976	4.655	0.529
1177.500	678.490	80.005	19.994	103.957	19.976	4.664	0.499
1185.000	682.292	80.004	19.993	103.956	19.973	4.847	0.513
1192.500	686.063	80.003	19.994	103.959	19.969	5.100	0.498
1200.001	689.847	80.006	19.993	103.963	19.972	4.907	0.516
1207.501	693.654	80.005	19.993	103.998	19.966	5.352	0.474
1215.001	697.465	80.001	19.994	104.002	19.970	5.046	0.481
1222.500	701.230	79.997	19.995	104.020	19.967	5.273	0.488
1230.001	705.068	80.002	19.996	104.029	19.965	5.427	0.522
1237.501	708.815	80.005	19.993	104.036	19.960	5.762	0.520
1245.001	712.602	80.002	19.994	104.039	19.959	5.783	0.510
1252.500	716.451	80.020	19.993	104.055	19.955	6.096	0.527
1260.000	720.230	80.004	19.992	104.078	19.951	6.317	0.499
1267.500	723.982	79.999	19.995	104.107	19.949	6.469	0.504
1275.000	727.743	80.010	19.992	104.119	19.946	6.699	0.533
1282.501	731.597	80.007	19.993	104.148	19.946	6.646	0.539
1290.000	735.355	80.001	19.992	104.153	19.944	6.837	0.495
1297.500	739.219	80.007	19.992	104.181	19.940	7.090	0.507
1305.000	742.993	79.994	19.994	104.209	19.937	7.294	0.492
1309.000	745.070	79.998	19.992	104.221	19.937	7.307	0.518