Folder: fsri_materials_database/01_Data/Cinder_Block/MCC

Note: 01_Data/README.md
# Materials and Products Database
## 01_Data

Raw data generated from each apparatus are included here in plain-text format. The data is organized first by material, next by the short name of test apparatus used, and where applicable additional filtering by test settings.

### material.json

Each material directory contains a json file of the same name as the material. This file links the data stored in the repository as well as data and graphs produced by the accompanying scripts (__02_Scripts__) to the respective landing page for the material on the front-end website.

File: Cinder_Block_MCC_30K_min_220223_R1.txt
Sample ID:	C:\MCC\MCC Cal\Test\Cinder_Block_MCC_30K_min_220223_R1.txt
Sample Weight (mg):	4.94
Heating Rate (C/s):	0.5
Combustor Temp (C):	900
N2 Flow Rate (cc/min):	80
O2 Flow Rate (cc/min):	20
Calibration File:	C:\MCC\MCC Cal\Coeff1 JN10440_30_210304.txt.txt
T Correction Coefficients:	0	1.024463	0
Time Shift (s):	14
*
Time (s)	Temperature (C)	N2 flow rate (cc/min)	O2 flow rate (cc/min)	Flow Rate (cc/min)	Oxygen (%)	HRR (W/g)	Heating rate (C/s)
0.000	111.904	80.004	19.995	103.699	19.942	-0.173	-0.006
7.500	111.909	80.010	19.990	103.683	19.941	-0.105	0.019
15.000	111.894	80.005	19.994	103.718	19.934	0.330	0.003
22.500	112.080	80.005	19.995	103.794	19.924	1.022	0.046
30.000	112.521	80.005	19.993	103.878	19.910	1.924	0.069
37.500	113.436	80.004	19.992	103.891	19.903	2.403	0.116
45.000	114.765	80.001	19.997	103.881	19.902	2.425	0.198
52.501	116.390	80.003	19.996	103.902	19.897	2.776	0.231
60.000	118.328	80.008	19.995	103.917	19.891	3.152	0.273
67.500	120.568	80.002	19.993	103.964	19.895	2.901	0.329
75.000	123.082	80.000	19.990	103.922	19.891	3.153	0.344
82.500	125.881	80.004	19.994	103.970	19.889	3.271	0.357
90.001	128.813	80.004	19.993	103.950	19.886	3.472	0.412
97.500	131.899	80.003	19.993	103.956	19.889	3.323	0.422
105.000	135.257	80.007	19.992	103.956	19.887	3.437	0.460
112.500	138.649	80.005	19.994	103.958	19.888	3.347	0.425
120.000	142.214	80.003	19.997	103.942	19.886	3.503	0.467
127.500	145.981	80.005	19.993	103.936	19.891	3.157	0.515
135.000	149.673	80.006	19.993	103.936	19.889	3.308	0.489
142.500	153.498	80.006	19.991	103.933	19.891	3.165	0.489
150.000	157.282	80.004	19.993	103.936	19.889	3.324	0.491
157.500	161.094	80.004	19.996	103.925	19.894	2.940	0.490
165.000	164.959	80.003	19.997	103.920	19.893	3.036	0.532
172.500	168.810	80.002	19.993	103.889	19.894	2.963	0.516
180.000	172.569	80.001	19.996	103.902	19.896	2.848	0.519
187.500	176.298	80.007	19.994	103.905	19.894	2.991	0.490
195.000	180.063	80.006	19.994	103.902	19.896	2.850	0.500
202.500	183.787	80.001	19.985	103.926	19.897	2.783	0.490
210.000	187.550	80.001	19.990	103.874	19.897	2.796	0.494
217.500	191.216	80.007	19.994	103.887	19.900	2.603	0.495
225.000	194.878	80.006	19.993	103.885	19.903	2.380	0.480
232.500	198.543	80.006	19.989	103.881	19.895	2.880	0.495
240.000	202.212	80.001	19.995	103.875	19.894	2.975	0.522
247.500	205.830	80.003	19.994	103.886	19.894	2.992	0.529
255.000	209.454	80.003	19.993	103.884	19.896	2.810	0.488
262.500	213.136	80.006	19.990	103.883	19.901	2.522	0.481
270.000	216.844	80.006	19.995	103.881	19.900	2.541	0.501
277.500	220.607	80.004	19.993	103.878	19.900	2.552	0.483
285.000	224.318	80.008	19.993	103.892	19.894	2.969	0.530
292.500	228.120	80.002	19.992	103.902	19.900	2.571	0.514
300.000	231.977	80.006	19.994	103.883	19.899	2.647	0.509
307.500	235.868	80.001	19.992	103.860	19.899	2.664	0.557
315.000	239.636	80.004	19.993	103.876	19.903	2.364	0.480
322.500	243.470	80.004	19.993	103.858	19.900	2.564	0.514
330.000	247.288	80.005	19.996	103.877	19.900	2.559	0.495
337.500	251.137	80.001	19.997	103.883	19.901	2.516	0.509
345.000	254.947	80.006	19.988	103.853	19.906	2.160	0.513
352.500	258.717	80.003	19.994	103.849	19.907	2.133	0.486
360.000	262.440	80.004	19.991	103.849	19.907	2.101	0.482
367.500	266.199	80.006	19.992	103.854	19.904	2.337	0.499
375.000	269.931	80.007	19.995	103.848	19.904	2.335	0.524
382.500	273.653	80.004	19.996	103.859	19.904	2.314	0.434
390.000	277.394	80.005	19.992	103.850	19.906	2.190	0.542
397.500	281.072	80.002	19.995	103.845	19.905	2.253	0.471
405.000	284.779	80.004	19.993	103.855	19.908	2.074	0.473
412.500	288.531	80.002	19.994	103.847	19.904	2.308	0.504
420.000	292.267	80.002	19.995	103.846	19.901	2.536	0.507
427.500	296.004	80.009	19.996	103.848	19.905	2.263	0.468
435.000	299.819	80.004	20.000	103.844	19.909	2.014	0.541
442.500	303.577	80.009	19.995	103.845	19.903	2.363	0.522
450.000	307.424	80.005	19.994	103.847	19.904	2.338	0.503
457.500	311.198	80.007	19.995	103.846	19.906	2.153	0.506
465.000	315.028	80.002	19.992	103.847	19.908	2.055	0.499
472.500	318.873	80.001	19.994	103.826	19.905	2.231	0.540
480.000	322.602	80.005	19.994	103.839	19.910	1.933	0.494
487.500	326.379	80.004	19.993	103.844	19.909	1.971	0.515
495.000	330.120	80.004	19.997	103.830	19.910	1.922	0.545
502.500	333.895	80.004	19.990	103.826	19.910	1.947	0.504
510.000	337.654	80.006	19.991	103.820	19.912	1.768	0.515
517.500	341.410	80.003	19.996	103.811	19.912	1.806	0.495
525.000	345.233	80.004	19.994	103.824	19.911	1.869	0.513
532.500	348.942	80.006	19.995	103.811	19.910	1.915	0.454
540.000	352.804	80.011	19.988	103.811	19.915	1.612	0.485
547.500	356.599	80.001	19.992	103.802	19.914	1.628	0.512
555.000	360.429	80.007	19.996	103.809	19.911	1.839	0.505
562.500	364.244	80.004	19.990	103.810	19.913	1.724	0.487
570.000	368.082	80.006	19.995	103.809	19.916	1.514	0.493
577.500	371.933	80.001	19.998	103.807	19.910	1.894	0.506
585.000	375.825	80.004	19.994	103.835	19.914	1.649	0.502
592.500	379.637	80.002	19.995	103.833	19.918	1.373	0.542
600.000	383.440	80.004	19.991	103.794	19.921	1.184	0.512
607.500	387.216	80.005	19.996	103.805	19.914	1.644	0.521
615.000	391.043	80.003	19.996	103.799	19.915	1.558	0.521
622.500	394.892	80.007	19.997	103.805	19.916	1.496	0.500
630.000	398.661	80.001	19.995	103.796	19.917	1.473	0.503
637.500	402.494	79.998	19.990	103.810	19.916	1.496	0.512
645.000	406.342	80.005	19.992	103.785	19.915	1.557	0.533
652.500	410.122	80.005	19.996	103.812	19.916	1.512	0.494
660.000	413.924	80.005	19.995	103.803	19.915	1.571	0.492
667.500	417.698	80.000	19.993	103.783	19.919	1.294	0.498
675.000	421.445	80.009	19.989	103.795	19.915	1.578	0.488
682.500	425.225	80.004	19.993	103.803	19.916	1.540	0.488
690.000	429.023	80.003	19.997	103.794	19.916	1.501	0.518
697.500	432.816	80.009	19.991	103.781	19.918	1.391	0.493
705.000	436.623	80.003	19.995	103.806	19.918	1.369	0.502
712.500	440.520	80.001	19.995	103.819	19.917	1.464	0.524
720.000	444.441	80.000	19.994	103.781	19.913	1.744	0.511
727.500	448.343	80.002	19.997	103.817	19.913	1.722	0.518
735.000	452.331	80.003	19.996	103.800	19.914	1.669	0.535
742.500	456.305	80.002	19.994	103.798	19.916	1.532	0.523
750.000	460.248	80.004	19.994	103.803	19.920	1.243	0.545
757.500	464.154	80.004	19.993	103.805	19.920	1.255	0.513
765.000	468.037	80.006	19.992	103.774	19.917	1.444	0.468
772.500	471.893	80.004	19.992	103.794	19.916	1.506	0.493
780.000	475.781	80.004	19.994	103.799	19.917	1.466	0.503
787.500	479.560	80.005	19.995	103.798	19.917	1.480	0.512
795.000	483.350	80.004	19.992	103.780	19.910	1.934	0.486
802.500	487.180	80.001	19.990	103.805	19.915	1.619	0.508
810.000	490.898	80.002	19.997	103.801	19.915	1.581	0.529
817.500	494.755	80.005	19.996	103.803	19.913	1.690	0.529
825.000	498.477	80.006	19.993	103.777	19.914	1.664	0.489
832.500	502.216	80.006	19.994	103.817	19.919	1.316	0.486
840.000	505.974	80.011	19.987	103.787	19.916	1.547	0.520
847.500	509.698	80.007	19.992	103.806	19.914	1.631	0.503
855.000	513.492	80.006	19.994	103.807	19.911	1.840	0.503
862.500	517.402	80.006	19.993	103.800	19.920	1.271	0.495
870.000	521.233	79.997	19.996	103.802	19.915	1.604	0.532
877.500	525.038	80.005	20.000	103.772	19.914	1.624	0.499
885.000	528.881	80.009	19.992	103.805	19.915	1.597	0.507
892.500	532.672	80.005	19.994	103.789	19.914	1.658	0.525
900.000	536.447	80.002	19.996	103.784	19.913	1.690	0.490
907.500	540.202	80.006	19.992	103.784	19.914	1.681	0.514
915.000	543.968	80.002	19.999	103.803	19.917	1.466	0.486
922.500	547.741	80.005	19.992	103.781	19.917	1.473	0.511
930.000	551.567	80.005	19.995	103.811	19.916	1.492	0.486
937.500	555.443	80.005	19.995	103.781	19.916	1.538	0.540
945.000	559.316	80.005	19.997	103.788	19.914	1.672	0.515
952.500	563.205	80.004	19.996	103.787	19.912	1.770	0.488
960.000	567.053	80.003	19.994	103.829	19.913	1.714	0.552
967.500	570.866	80.008	19.994	103.795	19.915	1.565	0.475
975.000	574.713	80.007	19.986	103.795	19.909	1.948	0.505
982.500	578.525	80.000	19.993	103.800	19.912	1.788	0.505
990.000	582.350	80.004	19.996	103.804	19.909	1.965	0.522
997.500	586.220	80.002	19.995	103.791	19.911	1.819	0.545
1005.000	590.210	80.005	19.995	103.805	19.916	1.537	0.497
1012.500	594.090	80.004	19.994	103.790	19.909	1.965	0.553
1020.000	598.689	80.009	19.993	103.794	19.913	1.699	0.640
1027.500	601.852	80.006	19.993	103.794	19.913	1.697	0.675
1035.000	605.832	80.004	19.992	103.780	19.916	1.542	0.485
1042.500	609.528	80.004	19.993	103.806	19.911	1.859	0.470
1050.000	613.207	80.004	19.992	103.785	19.910	1.943	0.474
1057.500	617.061	80.005	19.993	103.791	19.911	1.822	0.497
1065.000	620.812	80.002	19.997	103.800	19.910	1.939	0.498
1072.500	624.557	80.004	19.997	103.786	19.911	1.865	0.489
1080.000	628.439	80.005	19.995	103.782	19.907	2.122	0.503
1087.500	632.196	80.003	19.995	103.786	19.908	2.016	0.489
1095.000	635.977	80.002	19.987	103.815	19.910	1.911	0.493
1102.500	639.812	80.002	19.993	103.801	19.913	1.687	0.497
1110.000	643.591	80.002	19.993	103.789	19.906	2.200	0.519
1117.501	647.428	79.998	19.995	103.802	19.907	2.145	0.542
1125.000	651.253	80.006	19.990	103.808	19.910	1.945	0.557
1132.500	655.070	80.006	19.984	103.808	19.910	1.913	0.474
1140.000	658.726	80.001	19.993	103.804	19.906	2.200	0.442
1147.500	662.709	80.001	19.994	103.808	19.905	2.215	0.453
1155.000	666.504	80.004	19.992	103.811	19.903	2.388	0.534
1162.500	670.341	80.002	19.995	103.813	19.898	2.679	0.499
1170.000	674.166	80.001	19.992	103.817	19.900	2.586	0.515
1177.501	677.970	80.005	19.996	103.841	19.904	2.302	0.491
1185.000	681.868	80.008	19.992	103.841	19.899	2.621	0.478
1192.500	685.662	80.001	19.990	103.870	19.899	2.638	0.509
1200.001	689.457	80.002	19.996	103.841	19.898	2.734	0.523
1207.500	693.247	80.003	19.991	103.860	19.898	2.698	0.513
1215.000	696.991	80.003	19.991	103.857	19.898	2.721	0.469
1222.500	700.742	80.002	19.994	103.864	19.895	2.930	0.486
1230.000	704.571	80.001	19.994	103.893	19.893	3.011	0.488
1237.500	708.250	80.002	19.995	103.918	19.894	2.956	0.501
1245.000	711.983	80.005	19.986	103.919	19.889	3.324	0.522
1252.500	715.638	80.004	19.993	103.926	19.889	3.300	0.510
1260.000	719.429	80.007	19.994	103.959	19.891	3.150	0.507
1267.500	723.199	80.005	19.996	103.942	19.887	3.423	0.485
1275.000	727.119	80.002	20.000	103.972	19.882	3.739	0.520
1282.500	731.015	80.002	19.994	104.013	19.884	3.649	0.539
1290.000	734.859	80.003	19.994	104.022	19.878	4.034	0.515
1297.500	738.694	80.003	19.998	104.024	19.871	4.487	0.506
1305.000	742.520	79.998	19.999	104.054	19.871	4.516	0.500
1310.000	745.094	80.001	19.999	104.072	19.870	4.567	0.533

File: Cinder_Block_MCC_30K_min_220223_R2.txt
Sample ID:	C:\MCC\MCC Cal\Test\Cinder_Block_MCC_30K_min_220223_R2.txt
Sample Weight (mg):	4.62
Heating Rate (C/s):	0.5
Combustor Temp (C):	900
N2 Flow Rate (cc/min):	80
O2 Flow Rate (cc/min):	20
Calibration File:	C:\MCC\MCC Cal\Coeff1 JN10440_30_210304.txt.txt
T Correction Coefficients:	0	1.024463	0
Time Shift (s):	14
*
Time (s)	Temperature (C)	N2 flow rate (cc/min)	O2 flow rate (cc/min)	Flow Rate (cc/min)	Oxygen (%)	HRR (W/g)	Heating rate (C/s)
0.000	114.286	80.005	19.993	103.759	19.867	0.030	0.013
8.000	114.251	80.005	19.994	103.752	19.867	0.050	0.007
16.000	114.293	80.003	19.994	103.798	19.857	0.769	0.034
24.000	114.546	80.003	19.993	103.885	19.846	1.546	0.063
32.000	115.232	80.006	19.993	103.925	19.835	2.280	0.138
40.000	116.384	80.004	19.995	103.940	19.834	2.365	0.179
48.000	117.913	80.004	19.993	103.957	19.832	2.549	0.208
56.001	119.850	80.006	19.992	103.950	19.828	2.814	0.261
64.000	122.092	80.005	19.994	103.957	19.825	3.019	0.287
72.000	124.567	80.002	19.995	103.969	19.825	3.029	0.307
80.000	127.294	80.005	19.993	103.963	19.827	2.861	0.405
88.000	130.246	80.004	19.994	103.976	19.824	3.057	0.384
96.000	133.406	80.004	19.993	104.011	19.831	2.611	0.398
104.000	136.824	80.004	19.993	104.004	19.830	2.630	0.437
112.000	140.384	80.005	19.992	103.988	19.828	2.766	0.452
120.000	144.070	80.006	19.993	103.998	19.829	2.741	0.471
128.000	147.827	80.006	19.993	103.995	19.825	3.036	0.447
136.000	151.642	80.006	19.994	103.964	19.827	2.896	0.473
144.000	155.526	80.007	19.992	104.027	19.829	2.739	0.455
152.000	159.512	80.004	19.994	103.994	19.832	2.520	0.486
160.000	163.539	80.004	19.996	103.965	19.833	2.444	0.511
168.000	167.608	80.004	19.994	103.970	19.833	2.427	0.529
176.000	171.658	80.004	19.994	103.979	19.836	2.240	0.511
184.000	175.669	80.004	19.993	103.961	19.840	1.982	0.507
192.000	179.701	80.004	19.993	103.955	19.840	1.982	0.470
200.000	183.699	80.006	19.994	103.953	19.840	1.927	0.471
208.000	187.722	80.005	19.993	103.957	19.843	1.754	0.508
216.000	191.681	80.004	19.993	103.945	19.841	1.848	0.484
224.000	195.653	80.006	19.993	103.925	19.843	1.712	0.478
232.000	199.553	80.004	19.994	103.960	19.843	1.762	0.452
240.000	203.469	80.002	19.993	103.926	19.847	1.474	0.473
248.000	207.453	80.003	19.994	103.942	19.848	1.399	0.498
256.000	211.385	80.003	19.994	103.939	19.848	1.355	0.484
264.000	215.346	80.004	19.994	103.920	19.850	1.256	0.491
272.000	219.324	80.004	19.993	103.923	19.849	1.308	0.483
280.000	223.236	80.007	19.993	103.958	19.850	1.252	0.480
288.000	227.263	80.005	19.993	103.923	19.849	1.307	0.522
296.000	231.268	80.006	19.992	103.928	19.851	1.189	0.499
304.000	235.205	80.007	19.993	103.905	19.850	1.225	0.482
312.000	239.191	80.005	19.994	103.917	19.849	1.336	0.483
320.000	243.214	80.003	19.994	103.950	19.853	1.016	0.498
328.000	247.227	80.004	19.994	103.939	19.859	0.614	0.488
336.000	251.336	80.006	19.993	103.925	19.857	0.777	0.531
344.000	255.322	80.002	19.996	103.905	19.855	0.916	0.484
352.000	259.364	80.003	19.995	103.903	19.856	0.805	0.486
360.000	263.331	80.005	19.993	103.928	19.861	0.462	0.481
368.000	267.378	80.005	19.992	103.911	19.860	0.569	0.512
376.000	271.472	80.004	19.993	103.905	19.859	0.622	0.541
384.000	275.386	80.007	19.994	103.943	19.863	0.342	0.487
392.000	279.401	80.006	19.992	103.899	19.863	0.328	0.503
400.000	283.407	80.005	19.994	103.880	19.862	0.391	0.521
408.000	287.410	80.004	19.993	103.901	19.861	0.468	0.516
416.000	291.376	80.005	19.995	103.885	19.862	0.412	0.510
424.000	295.389	80.003	19.994	103.892	19.859	0.649	0.511
432.000	299.382	80.004	19.995	103.922	19.864	0.296	0.474
440.000	303.382	80.005	19.995	103.877	19.865	0.200	0.531
448.000	307.354	80.006	19.995	103.883	19.868	-0.002	0.519
456.000	311.374	80.005	19.994	103.924	19.867	0.025	0.513
464.000	315.453	80.007	19.994	103.890	19.869	-0.076	0.491
472.000	319.553	80.006	19.993	103.899	19.868	0.000	0.530
480.000	323.604	80.005	19.993	103.871	19.866	0.141	0.526
488.000	327.675	80.004	19.993	103.923	19.869	-0.074	0.498
496.000	331.766	80.006	19.992	103.913	19.871	-0.235	0.534
504.000	335.784	80.003	19.993	103.889	19.872	-0.322	0.497
512.000	339.868	80.005	19.993	103.887	19.874	-0.446	0.521
520.000	343.915	80.006	19.994	103.879	19.872	-0.302	0.494
528.000	348.040	80.006	19.993	103.895	19.874	-0.460	0.508
536.000	352.163	80.004	19.994	103.878	19.874	-0.435	0.509
544.000	356.339	80.005	19.994	103.887	19.875	-0.485	0.526
552.000	360.461	80.006	19.992	103.884	19.874	-0.443	0.505
560.000	364.596	80.005	19.994	103.897	19.882	-1.028	0.536
568.000	368.689	80.004	19.995	103.871	19.880	-0.830	0.519
576.000	372.780	80.005	19.993	103.874	19.884	-1.148	0.484
584.000	376.911	80.006	19.994	103.880	19.882	-0.992	0.538
592.000	380.980	80.005	19.993	103.875	19.880	-0.824	0.515
600.000	384.996	80.004	19.993	103.912	19.883	-1.049	0.492
608.000	389.016	80.005	19.993	103.877	19.884	-1.158	0.508
616.000	393.078	80.005	19.992	103.852	19.885	-1.198	0.504
624.000	397.115	80.005	19.996	103.863	19.884	-1.126	0.479
632.000	401.152	80.007	19.994	103.876	19.886	-1.253	0.507
640.000	405.149	80.005	19.993	103.889	19.887	-1.337	0.518
648.000	409.152	80.006	19.993	103.878	19.883	-1.099	0.489
656.000	413.243	80.006	19.993	103.873	19.885	-1.194	0.518
664.000	417.235	80.005	19.993	103.863	19.885	-1.230	0.504
672.000	421.374	80.004	19.993	103.845	19.887	-1.360	0.559
680.000	425.444	80.007	19.993	103.880	19.890	-1.591	0.529
688.000	429.580	80.005	19.993	103.855	19.890	-1.564	0.494
696.000	433.618	80.007	19.993	103.868	19.890	-1.547	0.502
704.000	437.759	80.005	19.994	103.857	19.891	-1.599	0.506
712.000	441.830	80.007	19.994	103.843	19.887	-1.320	0.520
720.000	445.826	80.005	19.995	103.886	19.889	-1.459	0.493
728.000	449.902	80.006	19.994	103.870	19.885	-1.190	0.509
736.000	453.960	80.004	19.994	103.865	19.887	-1.368	0.512
744.000	457.953	80.005	19.994	103.883	19.888	-1.406	0.493
752.000	462.057	80.004	19.994	103.850	19.888	-1.444	0.493
760.000	466.043	80.005	19.995	103.852	19.891	-1.646	0.510
768.000	470.110	80.006	19.994	103.846	19.888	-1.448	0.485
776.000	474.184	80.005	19.993	103.874	19.900	-2.228	0.517
784.000	478.284	80.006	19.993	103.864	19.899	-2.206	0.531
792.000	482.333	80.007	19.994	103.837	19.895	-1.926	0.504
800.000	486.485	80.006	19.993	103.845	19.897	-2.022	0.500
808.000	490.546	80.004	19.994	103.878	19.895	-1.936	0.506
816.000	494.722	80.003	19.995	103.875	19.899	-2.188	0.507
824.000	498.781	80.005	19.995	103.868	19.898	-2.126	0.501
832.000	502.863	80.005	19.993	103.858	19.897	-2.079	0.498
840.000	506.931	80.006	19.994	103.873	19.891	-1.602	0.494
848.000	510.906	80.007	19.994	103.832	19.893	-1.764	0.490
856.000	515.443	80.007	19.993	103.844	19.897	-2.026	0.487
864.000	519.019	80.007	19.993	103.900	19.897	-2.038	0.531
872.000	523.130	80.007	19.993	103.818	19.898	-2.091	0.519
880.000	527.077	80.007	19.993	103.844	19.899	-2.182	0.520
888.000	531.044	80.005	19.994	103.853	19.894	-1.869	0.470
896.000	535.039	80.006	19.994	103.870	19.901	-2.344	0.475
904.000	539.002	80.007	19.993	103.841	19.898	-2.085	0.547
912.000	542.971	80.005	19.994	103.848	19.896	-1.968	0.508
920.000	546.968	80.005	19.994	103.862	19.895	-1.938	0.487
928.000	551.087	80.006	19.993	103.865	19.895	-1.942	0.537
936.000	555.226	80.007	19.994	103.856	19.899	-2.217	0.550
944.000	559.361	80.005	19.994	103.841	19.895	-1.908	0.515
952.000	563.500	80.008	19.994	103.866	19.897	-2.078	0.493
960.000	567.662	80.007	19.993	103.841	19.899	-2.160	0.542
968.000	571.822	80.007	19.994	103.871	19.895	-1.942	0.505
976.000	576.031	80.005	19.995	103.858	19.900	-2.255	0.536
984.000	580.217	80.005	19.994	103.878	19.902	-2.367	0.536
992.000	584.315	80.004	19.994	103.852	19.897	-2.051	0.503
1000.000	588.374	80.003	19.995	103.881	19.901	-2.327	0.519
1008.000	592.513	80.005	19.995	103.883	19.896	-1.972	0.532
1016.000	596.632	80.006	19.993	103.855	19.894	-1.831	0.485
1024.000	600.742	80.007	19.993	103.853	19.893	-1.772	0.502
1032.001	604.860	80.007	19.993	103.878	19.896	-2.007	0.534
1040.000	608.952	80.008	19.993	103.860	19.896	-1.995	0.502
1048.001	613.063	80.007	19.993	103.842	19.897	-2.075	0.511
1056.000	617.137	80.006	19.995	103.868	19.895	-1.898	0.483
1064.000	621.207	80.005	19.993	103.862	19.897	-2.054	0.497
1072.000	625.287	80.003	19.994	103.883	19.893	-1.732	0.524
1080.000	629.313	80.004	19.994	103.880	19.897	-2.045	0.488
1088.000	633.427	80.004	19.993	103.856	19.896	-1.990	0.508
1096.000	637.564	80.006	19.996	103.876	19.895	-1.919	0.553
1104.001	641.607	80.006	19.993	103.867	19.889	-1.471	0.497
1112.000	645.644	80.006	19.994	103.889	19.895	-1.891	0.516
1120.001	649.614	80.008	19.994	103.898	19.897	-2.062	0.483
1128.000	653.670	80.006	19.994	103.867	19.893	-1.750	0.516
1136.000	657.770	80.005	19.993	103.855	19.890	-1.584	0.493
1144.000	661.877	80.007	19.995	103.901	19.891	-1.653	0.510
1152.000	666.015	80.006	19.993	103.917	19.895	-1.874	0.497
1160.000	670.136	80.005	19.995	103.883	19.891	-1.658	0.464
1168.001	674.114	80.005	19.996	103.902	19.886	-1.308	0.462
1176.000	678.184	80.007	19.994	103.935	19.888	-1.407	0.476
1184.000	682.284	80.004	19.994	103.928	19.888	-1.405	0.516
1192.000	686.319	80.005	19.995	103.937	19.889	-1.521	0.471
1200.001	690.470	80.008	19.995	103.912	19.884	-1.144	0.541
1208.000	694.520	80.006	19.994	103.953	19.882	-1.020	0.532
1216.001	698.569	80.004	19.993	103.955	19.879	-0.813	0.479
1224.000	702.649	80.006	19.995	103.968	19.878	-0.731	0.525
1232.000	706.690	80.004	19.994	103.967	19.875	-0.497	0.499
1240.000	710.775	80.006	19.994	104.008	19.875	-0.523	0.505
1248.000	714.825	80.023	20.000	104.019	19.873	-0.377	0.493
1256.000	718.911	80.025	20.000	104.040	19.872	-0.268	0.511
1264.000	722.919	80.023	20.001	104.055	19.869	-0.073	0.500
1272.000	726.911	80.014	19.998	104.062	19.861	0.453	0.511
1280.000	730.931	80.007	19.994	104.076	19.858	0.696	0.518
1288.000	734.853	80.006	19.996	104.108	19.857	0.782	0.520
1296.000	738.835	80.003	19.994	104.149	19.851	1.165	0.470
1304.000	742.918	80.005	19.994	104.146	19.845	1.598	0.524
1305.500	743.663	80.005	19.994	104.151	19.847	1.450	0.487