Folder: fsri_materials_database/01_Data/Vinyl_Tile/STA/N2/10K_min

Note: 01_Data/README.md
# Materials and Products Database
## 01_Data

Raw data generated from each apparatus are included here in plain-text format. The data is organized first by material, next by the short name of test apparatus used, and where applicable additional filtering by test settings.

### material.json

Each material directory contains a json file of the same name as the material. This file links the data stored in the repository as well as data and graphs produced by the accompanying scripts (__02_Scripts__) to the respective landing page for the material on the front-end website.

File: Vinyl_Tile_STA_N2_10KData_22055_R1.csv
##Temp./Â°C,Time/min,Mass loss(subtr.2)/mg,DSC(subtr.2)/(mW/mg),Sensit./(uV/mW)
49.881,10.01,-0.00066,-0.0007212318,1.06048
52.881,11.28867,-0.000821535,0.07462261,1.05986
55.881,11.72092,0.000313175,0.10638,1.05922
58.881,12.08704,0.00157579,0.12475,1.05856
61.881,12.43033,0.0005497545,0.13128,1.05789
64.881,12.76074,0.000404563,0.13827,1.05719
67.881,13.0855,-0.00222887,0.14301,1.05649
70.881,13.4078,0.0004463118,0.14635,1.05576
73.881,13.7252,-0.002298578,0.15137,1.05502
76.881,14.03904,-0.002053571,0.15048,1.05427
79.881,14.3505,-0.00266968,0.15295,1.05349
82.881,14.6592,-0.0009894927,0.15749,1.0527
85.881,14.96473,-0.0009797745,0.16031,1.0519
88.881,15.2672,-0.00098619,0.16201,1.05108
91.881,15.5674,-0.002387535,0.16433,1.05024
94.881,15.86559,-0.0009858085,0.16953,1.04938
97.881,16.16185,-0.001273155,0.1697,1.04851
100.881,16.45705,-0.002298949,0.17493,1.04763
103.881,16.75127,-0.0009881668,0.17582,1.04673
106.881,17.0444,-0.0009799685,0.17857,1.04581
109.881,17.338,-0.0009899712,0.18032,1.04488
112.881,17.63109,-0.0009900687,0.18004,1.04393
115.881,17.92463,-0.002310238,0.18257,1.04296
118.881,18.2163,-0.0008789898,0.18056,1.04198
121.881,18.5081,-0.00197132,0.1843,1.04099
124.881,18.79982,-0.003289722,0.18402,1.03998
127.881,19.09176,-0.00296327,0.18448,1.03895
130.881,19.3843,-0.005562384,0.1882,1.03791
133.881,19.67429,-0.003062891,0.18785,1.03686
136.881,19.964,-0.00329,0.19066,1.03579
139.881,20.25337,-0.0046,0.19083,1.0347
142.881,20.54277,-0.00461,0.19387,1.0336
145.881,20.8323,-0.005603466,0.19515,1.03248
148.881,21.12061,-0.004276209,0.19447,1.03135
151.881,21.4091,-0.00625,0.19786,1.03021
154.881,21.69727,-0.005931058,0.20087,1.02905
157.881,21.98551,-0.00592974,0.20137,1.02787
160.881,22.27338,-0.006246808,0.20296,1.02668
163.881,22.56127,-0.00625044,0.20465,1.02548
166.881,22.84907,-0.00757,0.20992,1.02426
169.881,23.13661,-0.008880013,0.2085,1.02303
172.881,23.4242,-0.00856,0.2101,1.02179
175.881,23.71116,-0.009539302,0.21132,1.02053
178.881,23.99833,-0.009559758,0.21432,1.01925
181.881,24.28477,-0.01217028,0.21709,1.01796
184.881,24.57121,-0.01184022,0.21577,1.01666
187.881,24.85753,-0.01383297,0.21987,1.01535
190.881,25.14391,-0.01374478,0.22123,1.01402
193.881,25.4303,-0.01645119,0.22373,1.01267
196.881,25.71569,-0.0177701,0.22602,1.01132
199.881,26.00225,-0.01908045,0.22766,1.00995
202.881,26.2877,-0.02073,0.22976,1.00856
205.881,26.5736,-0.02471772,0.22956,1.00717
208.881,26.85956,-0.02467998,0.22962,1.00576
211.881,27.1455,-0.02860772,0.23569,1.00434
214.881,27.4306,-0.03258,0.23802,1.0029
217.881,27.7162,-0.03425242,0.23925,1.00145
220.881,28.0022,-0.03894852,0.24274,0.99999
223.881,28.28825,-0.04345289,0.24653,0.99851
226.881,28.574,-0.0500082,0.25155,0.99703
229.881,28.85987,-0.05559948,0.25779,0.99552
232.881,29.14555,-0.06282379,0.2589,0.99401
235.881,29.43145,-0.07028874,0.26324,0.99249
238.881,29.7174,-0.0796747,0.26493,0.99095
241.881,30.0031,-0.09055784,0.26959,0.9894
244.881,30.28872,-0.10092,0.27837,0.98784
247.881,30.57435,-0.11195,0.28556,0.98626
250.881,30.8601,-0.12713,0.28798,0.98467
253.881,31.147,-0.14083,0.29081,0.98308
256.881,31.433,-0.15733,0.29248,0.98146
259.881,31.71782,-0.17525,0.29034,0.97984
262.881,32.00555,-0.19465,0.29389,0.97821
265.881,32.29197,-0.21456,0.29142,0.97656
268.881,32.57865,-0.23597,0.29135,0.9749
271.881,32.86502,-0.2625,0.28865,0.97323
274.881,33.15195,-0.28775,0.28997,0.97155
277.881,33.43902,-0.31964,0.29906,0.96986
280.881,33.72551,-0.35309,0.32258,0.96816
283.881,34.0122,-0.38867,0.35263,0.96644
286.881,34.2996,-0.42827,0.38015,0.96472
289.881,34.5869,-0.46376,0.40059,0.96298
292.881,34.87443,-0.49859,0.40152,0.96123
295.881,35.16172,-0.52792,0.3863,0.95947
298.881,35.4486,-0.55293,0.36266,0.9577
301.881,35.73601,-0.57367,0.33456,0.95592
304.881,36.0243,-0.59333,0.3067,0.95413
307.881,36.3114,-0.60577,0.28435,0.95233
310.881,36.5985,-0.61921,0.26883,0.95052
313.881,36.88603,-0.63084,0.25366,0.94869
316.881,37.17323,-0.64013,0.24105,0.94686
319.881,37.46165,-0.64865,0.22637,0.94502
322.881,37.7504,-0.65636,0.21808,0.94316
325.881,38.03909,-0.66305,0.20793,0.9413
328.881,38.327,-0.67,0.20275,0.93943
331.881,38.6154,-0.67426,0.19623,0.93754
334.881,38.9043,-0.67885,0.19054,0.93565
337.881,39.19301,-0.68259,0.18266,0.93375
340.881,39.4803,-0.68685,0.17575,0.93183
343.881,39.77091,-0.68952,0.17026,0.92991
346.881,40.06075,-0.69343,0.16365,0.92798
349.881,40.35052,-0.69673,0.16348,0.92604
352.881,40.63968,-0.69936,0.16031,0.92409
355.881,40.92994,-0.70002,0.16173,0.92213
358.881,41.22096,-0.70133,0.16303,0.92016
361.881,41.5116,-0.70298,0.16282,0.91818
364.881,41.80231,-0.7066,0.16064,0.91619
367.881,42.09366,-0.70792,0.15852,0.9142
370.881,42.38493,-0.70784,0.15766,0.91219
373.881,42.6757,-0.7112,0.15663,0.91018
376.881,42.9664,-0.71219,0.15603,0.90815
379.881,43.25792,-0.71351,0.15682,0.90612
382.881,43.54978,-0.71482,0.15654,0.90408
385.881,43.84132,-0.71427,0.15424,0.90203
388.881,44.13317,-0.71954,0.15292,0.89998
391.881,44.42498,-0.72075,0.15231,0.89791
394.881,44.71667,-0.72246,0.15348,0.89584
397.881,45.00897,-0.72436,0.15169,0.89376
400.881,45.3011,-0.72742,0.14737,0.89167
403.881,45.59346,-0.73029,0.14571,0.88957
406.881,45.88674,-0.73194,0.1422,0.88746
409.881,46.17951,-0.73589,0.14316,0.88535
412.881,46.47309,-0.7391,0.13781,0.88323
415.881,46.7665,-0.74439,0.13797,0.8811
418.881,47.0597,-0.74815,0.13725,0.87897
421.881,47.3529,-0.7518,0.137,0.87682
424.881,47.64654,-0.75574,0.13922,0.87467
427.881,47.93987,-0.76232,0.13765,0.87251
430.881,48.23423,-0.76783,0.14147,0.87035
433.881,48.52864,-0.77602,0.14289,0.86817
436.881,48.8221,-0.78398,0.14879,0.86599
439.881,49.11587,-0.79212,0.15406,0.86381
442.881,49.41044,-0.80224,0.1593,0.86161
445.881,49.70425,-0.81089,0.16881,0.85941
448.881,49.99883,-0.82387,0.17788,0.8572
451.881,50.29351,-0.8345,0.18977,0.85499
454.881,50.589,-0.847,0.19819,0.85277
457.881,50.88423,-0.85929,0.21217,0.85054
460.881,51.18,-0.872,0.22021,0.84831
463.881,51.47555,-0.88533,0.22961,0.84607
466.881,51.77124,-0.8957,0.23569,0.84382
469.881,52.06694,-0.90675,0.23803,0.84157
472.881,52.36253,-0.91806,0.24451,0.83931
475.881,52.6578,-0.92557,0.24991,0.83704
478.881,52.95244,-0.93466,0.25472,0.83477
481.881,53.24794,-0.94276,0.25621,0.83249
484.881,53.54394,-0.94946,0.26208,0.83021
487.881,53.8398,-0.95471,0.26532,0.82792
490.881,54.1373,-0.96128,0.26636,0.82562
493.881,54.43345,-0.9652,0.26581,0.82332
496.881,54.72976,-0.96786,0.26686,0.82102
499.881,55.02609,-0.97245,0.2639,0.81871
502.881,55.3226,-0.97577,0.26774,0.81639
505.881,55.61971,-0.97839,0.27203,0.81407
508.881,55.9172,-0.98185,0.27407,0.81174
511.881,56.2148,-0.98531,0.27835,0.80941
514.881,56.5128,-0.9888,0.28412,0.80707
517.881,56.8103,-0.99222,0.2956,0.80473
520.881,57.10852,-0.99485,0.3033,0.80238
523.881,57.4065,-0.9988,0.32756,0.80002
526.881,57.7042,-1.00238,0.34799,0.79767
529.881,58.0007,-1.00769,0.38839,0.7953
532.881,58.29982,-1.01328,0.40826,0.79294
535.881,58.598,-1.01719,0.41265,0.79057
538.881,58.8971,-1.02127,0.41193,0.78819
541.881,59.19554,-1.02664,0.41267,0.78581
544.881,59.49449,-1.02989,0.40738,0.78342
547.881,59.79365,-1.03575,0.41083,0.78104
550.881,60.0926,-1.04161,0.41564,0.77864
553.881,60.3915,-1.04718,0.43012,0.77624
556.881,60.6902,-1.05329,0.43932,0.77384
559.881,60.98967,-1.05662,0.45034,0.77144
562.881,61.28937,-1.06388,0.46946,0.76903
565.881,61.589,-1.0699,0.48265,0.76661
568.881,61.88907,-1.07525,0.50243,0.7642
571.881,62.18939,-1.08316,0.52539,0.76178
574.881,62.4899,-1.09016,0.56553,0.75935
577.881,62.7902,-1.10114,0.60835,0.75692
580.881,63.091,-1.10979,0.63779,0.75449
583.881,63.3921,-1.12048,0.62105,0.75206
586.881,63.69205,-1.13251,0.46476,0.74962
589.881,63.99058,-1.13486,0.35758,0.74718
592.881,64.29025,-1.13645,0.32115,0.74473
595.881,64.59178,-1.13909,0.31265,0.74228
598.881,64.89232,-1.14041,0.31193,0.73983
601.881,65.19289,-1.1427,0.33901,0.73738
604.881,65.4943,-1.14304,0.36997,0.73492
607.881,65.79483,-1.14808,0.40122,0.73246
610.881,66.09584,-1.15016,0.4353,0.73
613.881,66.39665,-1.15469,0.46167,0.72754
616.881,66.69764,-1.15806,0.49031,0.72507
619.881,66.99915,-1.16483,0.52098,0.7226
622.881,67.30057,-1.17046,0.55515,0.72012
625.881,67.60155,-1.1775,0.58836,0.71765
628.881,67.9028,-1.18363,0.62841,0.71517
631.881,68.20519,-1.19132,0.66752,0.71269
634.881,68.50653,-1.20129,0.71159,0.71021
637.881,68.80885,-1.21174,0.76491,0.70772
640.881,69.11036,-1.2238,0.81239,0.70524
643.881,69.41206,-1.23556,0.87169,0.70275
646.881,69.7135,-1.24685,0.92911,0.70026
649.881,70.0157,-1.26124,0.98917,0.69777
652.881,70.31734,-1.2765,1.04462,0.69527
655.881,70.6188,-1.29157,1.09742,0.69278
658.881,70.9218,-1.30594,1.14878,0.69028
661.881,71.22404,-1.32224,1.20653,0.68778
664.881,71.52668,-1.34055,1.27542,0.68528
667.881,71.82967,-1.3593,1.37246,0.68278
670.881,72.13202,-1.37807,1.50272,0.68027
673.881,72.43566,-1.40041,1.66372,0.67777
676.881,72.73826,-1.42773,1.8462,0.67526
679.881,73.04177,-1.45481,2.0593,0.67276
682.881,73.346,-1.48705,2.33498,0.67025
685.881,73.65044,-1.52436,2.68098,0.66774
688.881,73.95452,-1.56523,2.83623,0.66523
691.881,74.25752,-1.60934,2.86141,0.66272
694.881,74.5613,-1.65865,2.96713,0.6602
697.881,74.86492,-1.70841,3.09314,0.65769
700.881,75.16872,-1.7627,3.22611,0.65518
703.881,75.47225,-1.81826,3.34165,0.65266
706.881,75.77626,-1.87477,3.39986,0.65015
709.881,76.07956,-1.93217,3.33319,0.64763
712.881,76.38235,-1.98446,2.93167,0.64512
715.881,76.6828,-2.0267,1.5029,0.6426
718.881,76.98183,-2.043,0.37286,0.64008
721.881,77.28271,-2.04411,0.28761,0.63757
724.881,77.58623,-2.04411,0.27544,0.63505
727.881,77.88979,-2.04444,0.26727,0.63253
730.881,78.194,-2.04576,0.25853,0.63002
733.881,78.49886,-2.04576,0.248,0.6275
736.881,78.80346,-2.04641,0.23514,0.62498
739.881,79.1082,-2.04707,0.22819,0.62246
742.881,79.41195,-2.04813,0.22185,0.61995
745.881,79.71511,-2.04939,0.20783,0.61743
748.681,79.99851,-2.04941,0.20262,0.61508

File: Vinyl_Tile_STA_N2_10KData_22055_R2.csv
##Temp./Â°C,Time/min,Mass loss(subtr.2)/mg,DSC(subtr.2)/(mW/mg),Sensit./(uV/mW)
49.843,10.01,-0.01777,0.00446293,1.06049
52.843,11.2881,-0.02112409,0.09079634,1.05987
55.843,11.71992,-0.02139591,0.12922,1.05922
58.843,12.08636,-0.02137194,0.15249,1.05857
61.843,12.42863,-0.02239855,0.16468,1.05789
64.843,12.759,-0.02117186,0.17242,1.0572
67.843,13.08381,-0.02258629,0.17563,1.0565
70.843,13.4055,-0.0225423,0.17955,1.05577
73.843,13.72281,-0.02244038,0.1852,1.05503
76.843,14.03646,-0.02381019,0.18748,1.05428
79.843,14.3474,-0.02380999,0.1933,1.0535
82.843,14.6551,-0.02510534,0.19886,1.05271
85.843,14.9598,-0.02512001,0.20079,1.05191
88.843,15.26285,-0.02645131,0.20523,1.05109
91.843,15.56294,-0.02775474,0.20746,1.05025
94.843,15.8626,-0.02708691,0.21188,1.0494
97.843,16.15931,-0.02709001,0.21291,1.04853
100.843,16.45589,-0.02681689,0.21792,1.04764
103.843,16.75124,-0.02902385,0.21815,1.04674
106.843,17.0456,-0.02811039,0.22369,1.04582
109.843,17.33932,-0.02940257,0.22663,1.04489
112.843,17.63257,-0.03032223,0.22971,1.04394
115.843,17.92592,-0.02873982,0.23126,1.04298
118.843,18.21864,-0.03039055,0.2365,1.042
121.843,18.51144,-0.03039703,0.2346,1.041
124.843,18.8037,-0.03039,0.23713,1.03999
127.843,19.0947,-0.03037938,0.23734,1.03897
130.843,19.3862,-0.0323476,0.23899,1.03793
133.843,19.67654,-0.03050712,0.24042,1.03687
136.843,19.96655,-0.03170004,0.24061,1.0358
139.843,20.2566,-0.03404529,0.24258,1.03471
142.843,20.54642,-0.03302019,0.2471,1.03361
145.843,20.83509,-0.03361715,0.24819,1.0325
148.843,21.12306,-0.03271467,0.25013,1.03137
151.843,21.41208,-0.0353202,0.24944,1.03022
154.843,21.6999,-0.03499172,0.25296,1.02906
157.843,21.9885,-0.03499,0.25266,1.02789
160.843,22.27616,-0.03530015,0.25575,1.0267
163.843,22.56387,-0.03664027,0.25826,1.0255
166.843,22.85191,-0.03795022,0.25846,1.02428
169.843,23.13909,-0.03763,0.26193,1.02305
172.843,23.42628,-0.03796189,0.26214,1.0218
175.843,23.71302,-0.03861018,0.26615,1.02054
178.843,24.0003,-0.03993125,0.2667,1.01927
181.843,24.28646,-0.03862925,0.26776,1.01798
184.843,24.57261,-0.04125002,0.26812,1.01668
187.843,24.85901,-0.04255979,0.26883,1.01536
190.843,25.14534,-0.04388,0.2714,1.01403
193.843,25.43153,-0.04388,0.27345,1.01269
196.843,25.7171,-0.04651244,0.27459,1.01134
199.843,26.00305,-0.04749983,0.27503,1.00997
202.843,26.2888,-0.04880059,0.27747,1.00858
205.843,26.57467,-0.05078983,0.28022,1.00719
208.843,26.86018,-0.05276026,0.28123,1.00578
211.843,27.14586,-0.05666528,0.2858,1.00435
214.843,27.43192,-0.05919365,0.28413,1.00292
217.843,27.71785,-0.06329022,0.28708,1.00147
220.843,28.00357,-0.06733613,0.29093,1.00001
223.843,28.2891,-0.07119119,0.2935,0.99853
226.843,28.5753,-0.07595754,0.29819,0.99704
229.843,28.8613,-0.0823939,0.30234,0.99554
232.843,29.1466,-0.08841978,0.30455,0.99403
235.843,29.4317,-0.09619532,0.3045,0.99251
238.843,29.71827,-0.10369,0.30917,0.99097
241.843,30.0045,-0.1119,0.31206,0.98942
244.843,30.29128,-0.12363,0.31791,0.98786
247.843,30.5777,-0.13503,0.32354,0.98628
250.843,30.86375,-0.14698,0.32716,0.98469
253.843,31.14957,-0.16059,0.32967,0.9831
256.843,31.43566,-0.17477,0.33299,0.98148
259.843,31.7214,-0.19083,0.33555,0.97986
262.843,32.00788,-0.2108,0.33389,0.97823
265.843,32.29425,-0.23035,0.33379,0.97658
268.843,32.58067,-0.25301,0.33281,0.97492
271.843,32.86727,-0.28001,0.33078,0.97325
274.843,33.15439,-0.30965,0.33504,0.97157
277.843,33.4412,-0.34351,0.34609,0.96988
280.843,33.72848,-0.3821,0.37335,0.96818
283.843,34.016,-0.42044,0.40551,0.96646
286.843,34.3033,-0.46344,0.43551,0.96474
289.843,34.59081,-0.50389,0.45542,0.963
292.843,34.87836,-0.53884,0.45743,0.96125
295.843,35.1657,-0.57349,0.43988,0.95949
298.843,35.45339,-0.60096,0.41392,0.95772
301.843,35.74091,-0.62221,0.38307,0.95594
304.843,36.02803,-0.64117,0.35511,0.95415
307.843,36.3149,-0.65732,0.33412,0.95235
310.843,36.60228,-0.67023,0.31152,0.95054
313.843,36.88977,-0.68215,0.30074,0.94872
316.843,37.1774,-0.69512,0.28448,0.94688
319.843,37.46545,-0.70197,0.27278,0.94504
322.843,37.75392,-0.71002,0.26044,0.94319
325.843,38.04205,-0.71819,0.25263,0.94132
328.843,38.33057,-0.72483,0.24448,0.93945
331.843,38.61913,-0.73133,0.23784,0.93757
334.843,38.9078,-0.73581,0.23006,0.93567
337.843,39.19704,-0.7406,0.2248,0.93377
340.843,39.48577,-0.74486,0.21892,0.93186
343.843,39.77512,-0.74685,0.21515,0.92993
346.843,40.0644,-0.74948,0.21398,0.928
349.843,40.35453,-0.75409,0.21164,0.92606
352.843,40.64451,-0.75541,0.21209,0.92411
355.843,40.93508,-0.75809,0.21243,0.92215
358.843,41.2256,-0.75936,0.20668,0.92018
361.843,41.5163,-0.76199,0.20576,0.9182
364.843,41.80683,-0.76331,0.20437,0.91622
367.843,42.0974,-0.76429,0.2035,0.91422
370.843,42.38834,-0.76809,0.20568,0.91222
373.843,42.67972,-0.76857,0.2051,0.9102
376.843,42.97118,-0.76989,0.20443,0.90818
379.843,43.26142,-0.7712,0.20559,0.90615
382.843,43.5527,-0.77383,0.20774,0.90411
385.843,43.84292,-0.77515,0.20983,0.90206
388.843,44.13458,-0.77878,0.20842,0.9
391.843,44.42561,-0.77944,0.20763,0.89794
394.843,44.71783,-0.78246,0.20675,0.89586
397.843,45.0097,-0.78371,0.20972,0.89378
400.843,45.30202,-0.78635,0.20392,0.89169
403.843,45.59476,-0.78929,0.20136,0.8896
406.843,45.88769,-0.79259,0.19995,0.88749
409.843,46.181,-0.79522,0.19923,0.88538
412.843,46.47463,-0.79851,0.19727,0.88326
415.843,46.7682,-0.80248,0.19424,0.88113
418.843,47.0617,-0.80638,0.19522,0.87899
421.843,47.35519,-0.81168,0.19361,0.87685
424.843,47.64867,-0.81649,0.19528,0.8747
427.843,47.94223,-0.82275,0.19347,0.87254
430.843,48.2359,-0.82879,0.19792,0.87037
433.843,48.52959,-0.83549,0.20263,0.8682
436.843,48.82286,-0.84208,0.20642,0.86602
439.843,49.11655,-0.85239,0.20944,0.86383
442.843,49.4108,-0.86374,0.21713,0.86164
445.843,49.70454,-0.87346,0.22222,0.85944
448.843,49.9989,-0.88541,0.23267,0.85723
451.843,50.29356,-0.8973,0.24064,0.85502
454.843,50.58873,-0.91159,0.24813,0.8528
457.843,50.88353,-0.9244,0.25671,0.85057
460.843,51.17953,-0.93711,0.26734,0.84833
463.843,51.47521,-0.95061,0.27572,0.84609
466.843,51.7705,-0.96382,0.28248,0.84385
469.843,52.06575,-0.97694,0.2857,0.84159
472.843,52.3613,-0.98667,0.2925,0.83933
475.843,52.65687,-0.99678,0.29716,0.83707
478.843,52.95338,-1.00502,0.29802,0.8348
481.843,53.2499,-1.01295,0.30086,0.83252
484.843,53.54605,-1.02127,0.30756,0.83024
487.843,53.84248,-1.02809,0.3069,0.82795
490.843,54.1388,-1.03348,0.30788,0.82565
493.843,54.43495,-1.03864,0.31107,0.82335
496.843,54.7317,-1.04301,0.31245,0.82105
499.843,55.0287,-1.04695,0.31038,0.81874
502.843,55.3253,-1.04866,0.31198,0.81642
505.843,55.6217,-1.05345,0.31829,0.8141
508.843,55.9181,-1.05811,0.32001,0.81177
511.843,56.2147,-1.06012,0.32443,0.80944
514.843,56.51189,-1.06276,0.33022,0.8071
517.843,56.80927,-1.06668,0.34442,0.80476
520.843,57.1061,-1.07065,0.3694,0.80241
523.843,57.40362,-1.07529,0.38927,0.80005
526.843,57.7012,-1.07822,0.40182,0.7977
529.843,57.99904,-1.08216,0.41101,0.79533
532.843,58.29756,-1.08801,0.42534,0.79297
535.843,58.5957,-1.09248,0.43388,0.7906
538.843,58.8942,-1.09801,0.44285,0.78822
541.843,59.19256,-1.10191,0.44273,0.78584
544.843,59.49145,-1.10816,0.43893,0.78346
547.843,59.78999,-1.11408,0.42998,0.78107
550.843,60.0883,-1.11902,0.4286,0.77867
553.843,60.38743,-1.12387,0.42818,0.77628
556.843,60.68674,-1.1306,0.42579,0.77387
559.843,60.9868,-1.13518,0.42698,0.77147
562.843,61.28615,-1.14195,0.43165,0.76906
565.843,61.5861,-1.14806,0.44489,0.76665
568.843,61.88439,-1.15456,0.46182,0.76423
571.843,62.18447,-1.16047,0.48966,0.76181
574.843,62.48611,-1.16792,0.51644,0.75938
577.843,62.78685,-1.17596,0.55354,0.75695
580.843,63.0874,-1.18399,0.59809,0.75452
583.843,63.38759,-1.19547,0.62328,0.75209
586.843,63.6879,-1.20395,0.59335,0.74965
589.843,63.9878,-1.2139,0.46661,0.74721
592.843,64.28772,-1.21916,0.36318,0.74476
595.843,64.58795,-1.2218,0.33008,0.74232
598.843,64.88851,-1.22344,0.31878,0.73986
601.843,65.18893,-1.2241,0.32064,0.73741
604.843,65.48988,-1.22706,0.33771,0.73495
607.843,65.79083,-1.2297,0.36933,0.73249
610.843,66.09221,-1.23102,0.39739,0.73003
613.843,66.39367,-1.23599,0.42659,0.72757
616.843,66.69561,-1.23997,0.45326,0.7251
619.843,66.99715,-1.24309,0.47416,0.72263
622.843,67.29809,-1.24763,0.50161,0.72016
625.843,67.59878,-1.25375,0.52908,0.71768
628.843,67.89971,-1.2603,0.56063,0.7152
631.843,68.2009,-1.26983,0.59598,0.71272
634.843,68.50206,-1.27507,0.62424,0.71024
637.843,68.80293,-1.28346,0.66071,0.70776
640.843,69.10359,-1.29243,0.70203,0.70527
643.843,69.4067,-1.30423,0.75187,0.70278
646.843,69.70834,-1.31356,0.80544,0.70029
649.843,70.0093,-1.32661,0.86086,0.6978
652.843,70.311,-1.33863,0.92105,0.6953
655.843,70.6125,-1.35387,0.98483,0.69281
658.843,70.91513,-1.36561,1.0448,0.69031
661.843,71.21761,-1.3811,1.11383,0.68781
664.843,71.51966,-1.39422,1.19001,0.68531
667.843,71.82203,-1.41228,1.27232,0.68281
670.843,72.12513,-1.42974,1.37129,0.68031
673.843,72.42667,-1.44837,1.50332,0.6778
676.843,72.73023,-1.47082,1.66119,0.6753
679.843,73.0334,-1.49518,1.85796,0.67279
682.843,73.33721,-1.52272,2.11519,0.67028
685.843,73.64086,-1.55358,2.43948,0.66777
688.843,73.94538,-1.58941,2.57141,0.66526
691.843,74.24927,-1.63102,2.57042,0.66275
694.843,74.5526,-1.67161,2.65073,0.66024
697.843,74.85642,-1.71547,2.74603,0.65772
700.843,75.15989,-1.76068,2.83532,0.65521
703.843,75.46276,-1.80695,2.90237,0.6527
706.843,75.7665,-1.85591,2.93254,0.65018
709.843,76.07026,-1.90486,2.92444,0.64767
712.843,76.37376,-1.95409,2.89343,0.64515
715.843,76.6776,-1.99985,2.83688,0.64263
718.843,76.98057,-2.04448,2.70156,0.64012
721.843,77.28336,-2.08643,2.29031,0.6376
724.843,77.58434,-2.11507,1.01855,0.63508
727.843,77.88413,-2.12457,0.35854,0.63257
730.843,78.18749,-2.12553,0.35183,0.63005
733.843,78.49175,-2.12682,0.35516,0.62753
736.843,78.7957,-2.12748,0.3568,0.62501
739.843,79.10014,-2.12648,0.35457,0.6225
742.843,79.40385,-2.1278,0.34996,0.61998
745.843,79.70926,-2.1271,0.35014,0.61746
748.643,79.99417,-2.12747,0.34297,0.61511