Folder: fsri_materials_database/01_Data/Vinyl_Tile/STA/N2/10K_min (part 2)

File: Vinyl_Tile_STA_N2_10KData_22056_R3.csv
##Temp./Â°C,Time/min,Mass loss(subtr.2)/mg,DSC(subtr.2)/(mW/mg),Sensit./(uV/mW)
49.839,10.01,0.0385,-0.003552708,1.06049
52.839,11.28733,0.04247803,0.08888376,1.05987
55.839,11.71986,0.04342752,0.13197,1.05923
58.839,12.08625,0.04442429,0.15612,1.05857
61.839,12.4281,0.04502139,0.16973,1.05789
64.839,12.75939,0.04638627,0.17794,1.0572
67.839,13.08411,0.04763854,0.18314,1.0565
70.839,13.40399,0.04892929,0.18651,1.05577
73.839,13.72081,0.04819713,0.19223,1.05503
76.839,14.0342,0.04888131,0.19696,1.05428
79.839,14.345,0.05021788,0.20527,1.0535
82.839,14.65295,0.05019946,0.20776,1.05271
85.839,14.95776,0.05023479,0.20994,1.05191
88.839,15.25999,0.05089079,0.21489,1.05109
91.839,15.5602,0.05286712,0.21851,1.05025
94.839,15.859,0.05155,0.22099,1.0494
97.839,16.15569,0.05187555,0.22682,1.04853
100.839,16.4516,0.05285885,0.2308,1.04764
103.839,16.74589,0.05418017,0.23328,1.04674
106.839,17.04009,0.05384735,0.2376,1.04582
109.839,17.3339,0.05286196,0.24094,1.04489
112.839,17.62677,0.05675547,0.24492,1.04394
115.839,17.91901,0.05451817,0.24908,1.04298
118.839,18.21201,0.05419419,0.24738,1.042
121.839,18.504,0.05547924,0.25035,1.041
124.839,18.79557,0.05550001,0.25397,1.03999
127.839,19.0865,0.05552794,0.25656,1.03897
130.839,19.37695,0.05550793,0.26152,1.03793
133.839,19.66759,0.05681,0.26257,1.03687
136.839,19.95738,0.05648999,0.26311,1.0358
139.839,20.2473,0.05648004,0.26664,1.03471
142.839,20.53639,0.05649,0.26957,1.03361
145.839,20.825,0.05819598,0.27186,1.0325
148.839,21.1137,0.05780503,0.27535,1.03137
151.839,21.4014,0.05649065,0.27336,1.03022
154.839,21.68944,0.05680979,0.27508,1.02906
157.839,21.9771,0.05779999,0.27802,1.02789
160.839,22.26471,0.0571449,0.28236,1.0267
163.839,22.55198,0.05617111,0.28308,1.0255
166.839,22.83925,0.05713463,0.287,1.02428
169.839,23.12612,0.05582,0.29186,1.02305
172.839,23.41292,0.05572478,0.29223,1.0218
175.839,23.6997,0.05352136,0.29588,1.02054
178.839,23.98639,0.05484,0.29472,1.01927
181.839,24.2731,0.05484045,0.2973,1.01798
184.839,24.55963,0.05484,0.30159,1.01668
187.839,24.8455,0.05206072,0.30351,1.01537
190.839,25.13154,0.05188,0.30399,1.01404
193.839,25.4174,0.05122001,0.30423,1.01269
196.839,25.7027,0.04986678,0.30932,1.01134
199.839,25.98854,0.04956991,0.31194,1.00997
202.839,26.27388,0.046951,0.31666,1.00858
205.839,26.5589,0.04726999,0.31706,1.00719
208.839,26.84426,0.04333191,0.31886,1.00578
211.839,27.12985,0.04167823,0.3209,1.00436
214.839,27.41562,0.03805941,0.3279,1.00292
217.839,27.70172,0.03462701,0.3294,1.00147
220.839,27.98759,0.03149488,0.33169,1.00001
223.839,28.2742,0.02747363,0.33377,0.99853
226.839,28.5601,0.02215049,0.34217,0.99705
229.839,28.8462,0.01690068,0.34389,0.99555
232.839,29.13178,0.009201006,0.3483,0.99403
235.839,29.41778,0.0009126017,0.35682,0.99251
238.839,29.7033,-0.006189297,0.36058,0.99097
241.839,29.98896,-0.01704121,0.36663,0.98942
244.839,30.27447,-0.02788233,0.3755,0.98786
247.839,30.56046,-0.03908884,0.38367,0.98628
250.839,30.8466,-0.05350757,0.38842,0.9847
253.839,31.13232,-0.06777833,0.39231,0.9831
256.839,31.41785,-0.08321671,0.39504,0.98149
259.839,31.7034,-0.10033,0.39749,0.97986
262.839,31.98879,-0.11858,0.39541,0.97823
265.839,32.27518,-0.14067,0.39457,0.97658
268.839,32.56134,-0.16247,0.39392,0.97493
271.839,32.8483,-0.18808,0.38993,0.97326
274.839,33.13528,-0.21608,0.39218,0.97158
277.839,33.42257,-0.24834,0.40381,0.96988
280.839,33.71043,-0.28261,0.42946,0.96818
283.839,33.9972,-0.31999,0.4574,0.96647
286.839,34.2847,-0.35871,0.48739,0.96474
289.839,34.57175,-0.39527,0.50669,0.963
292.839,34.85928,-0.4291,0.50764,0.96125
295.839,35.14642,-0.45967,0.49249,0.9595
298.839,35.43372,-0.48502,0.46698,0.95773
301.839,35.72056,-0.5054,0.44021,0.95595
304.839,36.00755,-0.52219,0.41291,0.95415
307.839,36.29488,-0.53836,0.38915,0.95235
310.839,36.58271,-0.55062,0.37279,0.95054
313.839,36.87052,-0.56158,0.36307,0.94872
316.839,37.15847,-0.57184,0.34532,0.94689
319.839,37.4463,-0.57797,0.3384,0.94504
322.839,37.73465,-0.58619,0.33392,0.94319
325.839,38.02296,-0.59384,0.33014,0.94133
328.839,38.31118,-0.59802,0.3316,0.93945
331.839,38.59969,-0.6046,0.32966,0.93757
334.839,38.88805,-0.60742,0.32748,0.93568
337.839,39.17657,-0.61214,0.32702,0.93377
340.839,39.46617,-0.61512,0.32133,0.93186
343.839,39.7556,-0.61774,0.31892,0.92994
346.839,40.04485,-0.62041,0.31606,0.92801
349.839,40.33449,-0.62305,0.3138,0.92606
352.839,40.62383,-0.62532,0.31453,0.92411
355.839,40.9137,-0.62892,0.31679,0.92215
358.839,41.20371,-0.63059,0.3116,0.92018
361.839,41.49412,-0.63069,0.29962,0.91821
364.839,41.78536,-0.63193,0.2746,0.91622
367.839,42.07645,-0.63311,0.25451,0.91422
370.839,42.36759,-0.63452,0.24837,0.91222
373.839,42.65961,-0.63585,0.24262,0.9102
376.839,42.95132,-0.6371,0.24143,0.90818
379.839,43.24323,-0.63915,0.2391,0.90615
382.839,43.53412,-0.63908,0.23883,0.90411
385.839,43.82541,-0.64135,0.24061,0.90206
388.839,44.11649,-0.64408,0.23903,0.90001
391.839,44.40824,-0.64443,0.23895,0.89794
394.839,44.6997,-0.64968,0.23762,0.89587
397.839,44.99176,-0.64825,0.23812,0.89379
400.839,45.2843,-0.65351,0.23862,0.8917
403.839,45.5765,-0.65499,0.23528,0.8896
406.839,45.86908,-0.65978,0.2376,0.88749
409.839,46.16227,-0.66174,0.23591,0.88538
412.839,46.4555,-0.66701,0.23536,0.88326
415.839,46.74861,-0.66965,0.23773,0.88113
418.839,47.042,-0.67358,0.24028,0.879
421.839,47.33556,-0.67897,0.24227,0.87685
424.839,47.62927,-0.68221,0.24715,0.8747
427.839,47.92367,-0.6888,0.24989,0.87254
430.839,48.2179,-0.69488,0.2537,0.87038
433.839,48.51194,-0.70129,0.26156,0.8682
436.839,48.80574,-0.71076,0.26845,0.86602
439.839,49.0996,-0.71864,0.27565,0.86384
442.839,49.3942,-0.72843,0.28784,0.86164
445.839,49.6881,-0.73939,0.29791,0.85944
448.839,49.9828,-0.74974,0.31092,0.85723
451.839,50.27799,-0.76142,0.32192,0.85502
454.839,50.5731,-0.77387,0.33567,0.8528
457.839,50.86835,-0.7874,0.34745,0.85057
460.839,51.16338,-0.79972,0.36301,0.84834
463.839,51.45814,-0.81172,0.37154,0.8461
466.839,51.75277,-0.82424,0.3835,0.84385
469.839,52.04795,-0.83668,0.39733,0.8416
472.839,52.3434,-0.84827,0.40814,0.83934
475.839,52.63907,-0.85609,0.41601,0.83707
478.839,52.93496,-0.86729,0.43003,0.8348
481.839,53.2312,-0.87267,0.43538,0.83252
484.839,53.5278,-0.87872,0.44511,0.83024
487.839,53.82436,-0.88592,0.45595,0.82795
490.839,54.121,-0.89215,0.46379,0.82566
493.839,54.4175,-0.89616,0.47069,0.82336
496.839,54.71377,-0.8993,0.47559,0.82105
499.839,55.0105,-0.90261,0.48377,0.81874
502.839,55.30757,-0.90529,0.49078,0.81642
505.839,55.6051,-0.90853,0.49671,0.8141
508.839,55.9027,-0.91281,0.50829,0.81177
511.839,56.1999,-0.91576,0.51596,0.80944
514.839,56.49697,-0.91937,0.5233,0.8071
517.839,56.79447,-0.92333,0.53908,0.80476
520.839,57.0917,-0.92727,0.55307,0.80241
523.839,57.38924,-0.92857,0.56764,0.80006
526.839,57.6862,-0.93259,0.57961,0.7977
529.839,57.98381,-0.93931,0.59944,0.79534
532.839,58.28086,-0.94385,0.62262,0.79297
535.839,58.57884,-0.94907,0.6382,0.7906
538.839,58.8762,-0.95306,0.65468,0.78822
541.839,59.1746,-0.95832,0.66856,0.78584
544.839,59.47355,-0.96359,0.67461,0.78346
547.839,59.7725,-0.96798,0.6749,0.78107
550.839,60.0715,-0.97412,0.6868,0.77868
553.839,60.3704,-0.97808,0.70016,0.77628
556.839,60.67017,-0.98478,0.71036,0.77388
559.839,60.96989,-0.99146,0.71934,0.77147
562.839,61.2698,-0.99727,0.73883,0.76906
565.839,61.56972,-1.00319,0.75634,0.76665
568.839,61.8695,-1.0111,0.78214,0.76423
571.839,62.1693,-1.01641,0.81686,0.76181
574.839,62.4695,-1.02393,0.86346,0.75939
577.839,62.76985,-1.03368,0.91479,0.75696
580.839,63.07014,-1.04422,0.96671,0.75453
583.839,63.37125,-1.05399,0.97635,0.75209
586.839,63.67196,-1.06571,0.85109,0.74965
589.839,63.97221,-1.07002,0.70923,0.74721
592.839,64.27195,-1.07394,0.67301,0.74477
595.839,64.57166,-1.07561,0.66323,0.74232
598.839,64.87213,-1.07659,0.66271,0.73987
601.839,65.1725,-1.07747,0.68714,0.73741
604.839,65.47326,-1.08298,0.72564,0.73496
607.839,65.7744,-1.08458,0.76156,0.7325
610.839,66.07549,-1.08848,0.79599,0.73003
613.839,66.37642,-1.09212,0.82428,0.72757
616.839,66.6776,-1.09753,0.86041,0.7251
619.839,66.9788,-1.1028,0.8941,0.72263
622.839,67.27975,-1.10684,0.92778,0.72016
625.839,67.58014,-1.11353,0.96809,0.71768
628.839,67.8818,-1.12142,1.00904,0.71521
631.839,68.18366,-1.13025,1.05757,0.71273
634.839,68.4856,-1.13981,1.10814,0.71024
637.839,68.788,-1.14963,1.16405,0.70776
640.839,69.09012,-1.16147,1.2212,0.70527
643.839,69.39185,-1.17299,1.28639,0.70278
646.839,69.69376,-1.18555,1.35562,0.70029
649.839,69.99574,-1.19885,1.42098,0.6978
652.839,70.29743,-1.21477,1.48581,0.69531
655.839,70.59911,-1.23022,1.54571,0.69281
658.839,70.89997,-1.24692,1.60213,0.69031
661.839,71.20104,-1.26292,1.65927,0.68782
664.839,71.50268,-1.27848,1.73441,0.68531
667.839,71.8049,-1.29648,1.83242,0.68281
670.839,72.10805,-1.31679,1.97944,0.68031
673.839,72.41165,-1.33958,2.14923,0.6778
676.839,72.71511,-1.36501,2.33678,0.6753
679.839,73.01868,-1.39411,2.55139,0.67279
682.839,73.32304,-1.42612,2.81523,0.67028
685.839,73.62697,-1.46197,3.16687,0.66777
688.839,73.9308,-1.50293,3.42584,0.66526
691.839,74.23395,-1.54886,3.43164,0.66275
694.839,74.53623,-1.59724,3.52063,0.66024
697.839,74.83883,-1.64662,3.65871,0.65773
700.839,75.1412,-1.70022,3.80268,0.65521
703.839,75.444,-1.75486,3.95651,0.6527
706.839,75.74673,-1.81245,4.06817,0.65018
709.839,76.04984,-1.87297,4.08228,0.64767
712.839,76.35284,-1.92998,3.74373,0.64515
715.839,76.65427,-1.97345,2.33356,0.64264
718.839,76.95277,-1.99221,1.0512,0.64012
721.839,77.25527,-1.99387,0.95623,0.6376
724.839,77.55879,-1.99486,0.97198,0.63509
727.839,77.86264,-1.99618,0.98644,0.63257
730.839,78.1665,-1.99618,0.99563,0.63005
733.839,78.4709,-1.99618,1.00611,0.62753
736.839,78.77542,-1.99932,1.01352,0.62502
739.839,79.07935,-1.99885,1.01962,0.6225
742.839,79.38351,-1.99784,1.02615,0.61998
745.839,79.68728,-2.00078,1.02404,0.61747
748.839,79.99149,-2.00211,1.02121,0.61495