Folder: fsri_materials_database/01_Data/EPDM_Membrane/Cone (part 4)

File: EPDM_Membrane_Cone_HF50Scan_220225_R1.csv
Names,Time,Stack TC,Smoke TC,Exh Press,Smoke Comp,Smoke Meas,CO Meter,CO2 Meter,O2 Meter,Sample Mass,Ext Coeff,Start Test,Flame Verif
Chan Gain,,500,500,1,1,1,1,1,1,1,1,1.0,1.0
Offset,,0,0,0.137915,0,0,0,0,0,0,0,0.0,0.0
Gain,,1,1,25.011,15.3125,15.3273,1,1,1,1.00096,1.02035,1.0,1.0
Units,sec,C,C,Pa,%,%,%,%,%,g,/m,,
Baseline,,28.936,30.1158,175.738,115.718,110.696,-6.7638e-05,0.0429898,21.0619,-867.465,0.397089,,
39,9.5,27.5491,28.5245,174.023,113.939,109.196,-0.000538122,0.0490962,21.0536,163.266,0.380515,0.0,0.0
78,19.25,28.4916,28.8376,176.798,114.209,109.401,-0.000427546,0.0493771,21.0534,163.206,0.384969,0.0,0.0
117,29,28.1394,29.1294,167.284,114.642,107.622,-0.000100476,0.0482601,21.0539,163.196,0.565582,0.0,0.0
156,38.75,28.7743,29.9138,173.63,115.232,95.3153,0.00241651,0.102557,20.945,163.036,1.69843,0.0,1.0
195,48.5,33.5648,34.9456,154.62,115.839,65.4676,0.0142099,0.361664,20.4906,162.286,5.10756,0.0,0.0
234,58.25,42.9263,45.1532,143.994,116.246,57.882,0.0232904,0.568812,20.1325,161.204,6.24119,0.0,0.0
273,68,51.8052,56.0991,145.579,116.348,55.5582,0.0256168,0.623847,20.0673,160.033,6.61574,0.0,0.0
312,77.75,58.2468,63.6749,145.805,116.143,53.8724,0.024551,0.602017,20.1082,158.942,6.87573,0.0,0.0
351,87.5,62.3454,68.7986,146.643,115.703,57.519,0.0234861,0.571911,20.1614,157.691,6.25559,0.0,0.0
390,97.25,65.8973,72.8864,146.968,115.587,55.4609,0.0219682,0.545009,20.2101,156.85,6.57271,0.0,0.0
429,107,67.9783,75.1877,154.046,116.114,59.2502,0.021109,0.526341,20.2421,155.769,6.02186,0.0,0.0
468,116.75,69.4841,77.337,144.837,116.019,60.1408,0.020759,0.515812,20.2577,154.808,5.88105,0.0,0.0
507,126.5,71.1553,78.9761,148.808,115.3,60.3812,0.0207925,0.518609,20.2493,153.807,5.78965,0.0,0.0
546,136.25,72.2795,80.4558,143.637,115.376,58.5425,0.0212908,0.527744,20.2381,152.756,6.07239,0.0,0.0
585,146,73.4569,81.8058,141.301,115.555,55.2537,0.0220092,0.533804,20.223,151.685,6.60375,0.0,0.0
624,155.75,74.5528,83.0922,151.512,115.51,59.2446,0.0221105,0.53146,20.2246,150.614,5.97605,0.0,0.0
663,165.5,75.7399,84.4288,145.052,115.133,52.2643,0.0236501,0.550184,20.1788,149.533,7.06881,0.0,0.0
702,175.25,77.9076,87.4305,136.824,114.467,48.4793,0.0299292,0.66927,19.9575,148.182,7.68981,0.0,0.0
741,185,82.4932,92.0127,147.658,113.975,49.2422,0.0307894,0.716735,19.9057,146.781,7.51149,0.0,0.0
780,194.75,84.074,94.3303,147.077,113.919,55.5751,0.0262737,0.609837,20.1022,145.529,6.42419,0.0,0.0
819,204.5,83.0536,93.3196,146.678,114.265,60.5225,0.021819,0.532473,20.2249,144.498,5.68809,0.0,0.0
858,214.25,82.3651,92.1265,143.663,114.82,56.5503,0.0201026,0.491894,20.2894,143.528,6.33899,0.0,0.0
897,224,81.424,90.1811,146.008,115.481,57.091,0.0200436,0.489011,20.2941,142.527,6.30521,0.0,0.0
936,233.75,80.3531,89.5345,148.725,116.067,55.4829,0.0205048,0.483201,20.2991,141.516,6.60628,0.0,0.0
975,243.5,79.7728,88.5288,143.109,116.309,53.4084,0.0209042,0.493577,20.2788,140.505,6.96596,0.0,0.0
1014,253.25,80.262,88.9221,151.071,116.274,58.9087,0.0200973,0.485937,20.2984,139.584,6.08594,0.0,0.0
1053,263,78.4164,87.1773,150.535,116.008,58.3521,0.0189001,0.458837,20.3414,138.623,6.15042,0.0,0.0
1092,272.75,78.3936,85.9851,146.718,115.636,60.4967,0.0177164,0.438236,20.3789,137.732,5.79865,0.0,0.0
1131,282.5,77.4588,85.2282,148.797,115.508,64.3253,0.015962,0.415735,20.4179,136.901,5.23947,0.0,0.0
1170,292.25,76.4531,83.8627,150.522,116.043,67.8204,0.0150967,0.398757,20.4441,136.12,4.80727,0.0,0.0
1209,302,75.3667,82.3935,152.192,116.159,66.723,0.0152388,0.384504,20.4678,135.35,4.96221,0.0,0.0
1248,311.75,74.624,81.5605,146.311,116.036,65.7903,0.015073,0.386541,20.4652,134.559,5.07877,0.0,0.0
1287,321.5,73.3936,80.3397,146.764,115.839,66.8063,0.0154099,0.382769,20.4714,133.858,4.92639,0.0,0.0
1326,331.25,73.1852,79.9902,148.785,115.84,64.6813,0.0154056,0.385165,20.466,133.017,5.21579,0.0,0.0
1365,341,73.2245,79.0965,153.041,115.881,62.2447,0.0151358,0.382348,20.4669,132.287,5.56264,0.0,0.0
1404,350.75,72.8261,78.6554,153.14,116.04,64.2088,0.0152987,0.385722,20.4598,131.556,5.29684,0.0,0.0
1443,360.5,72.9559,79.0318,154.61,116.137,64.932,0.0147114,0.380654,20.4688,130.765,5.20406,0.0,0.0
1482,370.25,72.4238,78.6299,150.226,116.164,65.9035,0.0142786,0.372081,20.4848,130.015,5.07318,0.0,0.0
1521,380,72.2159,77.8089,149.93,115.926,65.3904,0.0141066,0.360718,20.5014,129.274,5.1248,0.0,0.0
1560,389.75,71.6372,77.3387,150.854,115.522,67.3783,0.0131683,0.348701,20.5255,128.593,4.82552,0.0,0.0
1599,399.5,70.8948,76.3454,150.089,116.015,70.153,0.0124133,0.337146,20.5473,127.993,4.50243,0.0,0.0
1638,409.25,69.908,74.9041,150.021,116.34,69.8728,0.0114051,0.319984,20.5752,127.352,4.56331,0.0,0.0
1677,419,69.8547,73.2406,154.404,115.966,70.6044,0.011077,0.304778,20.6028,126.761,4.44128,0.0,0.0
1716,428.75,68.0683,72.6543,156.229,114.863,73.54,0.00973993,0.289734,20.6307,126.221,3.9911,0.0,0.0
1755,438.5,66.9809,71.4017,155.827,113.932,76.9944,0.00882793,0.279088,20.6543,125.67,3.50739,0.0,0.0
1794,448.25,66.009,70.2764,158.96,114.317,79.7176,0.00792915,0.264987,20.6795,125.23,3.22652,0.0,0.0
1833,458,64.7196,68.7355,157.112,115.314,82.2655,0.00702237,0.254179,20.6968,124.75,3.02263,0.0,0.0
1872,467.75,63.5941,67.379,158.783,115.58,82.5391,0.00613094,0.241909,20.7205,124.319,3.01356,0.0,0.0
1911,477.5,62.8339,66.6298,158.228,115.222,84.5252,0.00576114,0.23171,20.7387,123.909,2.77298,0.0,0.0
1950,487.25,61.8454,64.8263,160.965,116.086,87.0361,0.00511089,0.221744,20.762,123.558,2.57777,0.0,0.0
1989,497,60.5563,63.6601,154.75,115.801,90.6223,0.00444474,0.214744,20.7753,123.208,2.1944,0.0,0.0
2028,506.75,59.687,62.47,154.368,116.326,92.2216,0.00379026,0.205515,20.79,122.888,2.07833,0.0,0.0
2067,516.5,58.3817,61.567,161.844,115.353,94.1758,0.00330171,0.198811,20.8049,122.607,1.81543,0.0,0.0
2106,526.25,57.5784,60.4678,161.244,113.99,93.811,0.0029925,0.192243,20.8169,122.307,1.74378,0.0,0.0
2145,536,56.9183,59.6806,160.912,114.465,95.5721,0.00278818,0.18581,20.8292,122.077,1.61459,0.0,0.0
2184,545.75,56.5087,59.0806,160.549,115.491,97.3224,0.00237566,0.17997,20.8397,121.817,1.53196,0.0,0.0
2223,555.5,55.6798,57.7773,159.276,115.377,99.3361,0.00219957,0.17448,20.852,121.607,1.33985,0.0,0.0
2262,565.25,54.5356,56.8226,161.211,115.956,101.295,0.00181804,0.169159,20.862,121.376,1.20987,0.0,0.0
2301,575,54.0188,56.3315,164.011,115.435,102.961,0.00176288,0.165409,20.8677,121.146,1.02357,0.0,0.0
2340,584.75,53.664,55.329,164.398,116.289,102.903,0.00138463,0.160782,20.876,120.976,1.09453,0.0,0.0
2379,594.5,52.1938,53.8094,158.184,115.624,103.097,0.00151238,0.15543,20.8837,120.756,1.02638,0.0,0.0
2418,604.25,52.2007,53.9496,164.931,114.092,103.014,0.00165184,0.152389,20.8919,120.616,0.914162,0.0,0.0
2457,614,50.656,53.5894,165.188,114.49,104.407,0.00126569,0.14728,20.9017,120.445,0.825119,0.0,0.0
2496,623.75,51.1155,52.5086,164.963,115.529,105.325,0.00159607,0.144023,20.9059,120.315,0.827674,0.0,0.0
2535,633.5,49.5437,51.2798,163.474,115.275,107.786,0.00147235,0.14116,20.9119,120.105,0.601241,0.0,0.0
2574,643.25,49.8122,51.2314,167.473,116.038,106.855,0.0013881,0.137119,20.9179,119.975,0.737888,0.0,0.0
2613,653,49.4903,51.0326,164.646,115.464,106.144,0.00143381,0.13495,20.9222,119.795,0.753305,0.0,0.0
2652,662.75,48.7114,50.133,164.077,116.22,106.536,0.00195271,0.132614,20.926,119.695,0.7787,0.0,0.0
2691,672.5,48.0582,49.4317,166.831,116.148,106.824,0.00194169,0.129859,20.934,119.565,0.748977,0.0,0.0
2730,682.25,47.6651,48.7463,162.9,115.19,106.294,0.00241449,0.12887,20.9356,119.454,0.719364,0.0,0.0
2769,692,47.2918,48.7621,165.723,114.306,104.824,0.00302539,0.126533,20.9392,119.324,0.775095,0.0,0.0
2808,701.75,46.6167,47.3876,165.582,114.014,105.203,0.00305855,0.126545,20.9403,119.204,0.719867,0.0,0.0
2847,711.5,46.3754,47.7372,168.201,114.153,106.453,0.00337615,0.124401,20.9441,119.094,0.625049,0.0,0.0
2886,721.25,46.0729,47.4676,170.986,114.413,105.908,0.00352851,0.122299,20.9455,118.974,0.691373,0.0,0.0
2925,731,45.7475,47.0168,165.199,114.622,107.279,0.00383424,0.119384,20.9499,118.824,0.592611,0.0,0.0
2964,740.75,44.8919,46.0685,163.742,114.715,107.3,0.00416089,0.116661,20.9562,118.754,0.598116,0.0,0.0
3003,750.5,45.1842,45.408,167.427,114.756,106.562,0.00476219,0.113775,20.9588,118.624,0.663068,0.0,0.0
3042,760.25,44.4644,45.8535,171.012,114.687,107.025,0.00551064,0.111533,20.9638,118.494,0.618859,0.0,0.0
3081,770,43.5852,44.5435,167.705,114.54,106.202,0.00602797,0.109679,20.9672,118.423,0.676478,0.0,0.0
3120,779.75,43.515,44.2302,164.854,114.319,107.283,0.006519,0.1062,20.972,118.333,0.568547,0.0,0.0
3159,789.5,43.1017,43.961,168.642,114.125,107.373,0.00673266,0.105226,20.9715,118.193,0.545786,0.0,0.0
3198,799.25,42.5706,43.6055,165.692,113.996,106.749,0.00741898,0.103879,20.9716,118.133,0.587947,0.0,0.0
3237,809,41.9299,42.8182,173.064,114.01,107.614,0.00736857,0.102986,20.9759,118.003,0.516747,0.0,0.0
3276,818.75,41.224,42.5065,169.774,114.13,107.647,0.00816253,0.101456,20.9781,117.913,0.523447,0.0,0.0
3315,828.5,41.2697,41.5061,171.699,114.366,108.857,0.00839057,0.102836,20.9758,117.803,0.441883,0.0,0.0
3354,838.25,39.4113,40.0746,169.297,114.712,107.962,0.00826076,0.101246,20.9765,117.743,0.542819,0.0,0.0
3393,848,40.1615,41.1608,166.653,115.06,108.208,0.0080433,0.0988033,20.9806,117.603,0.549567,0.0,0.0
3432,857.75,38.9409,39.8216,170.138,115.444,108.866,0.00793245,0.0960089,20.9856,117.563,0.525089,0.0,0.0
3471,867.5,39.5456,40.8415,171.901,115.81,109.925,0.00828032,0.0956471,20.9874,117.453,0.466804,0.0,0.0
3510,877.25,39.3986,40.62,172.073,116.089,108.983,0.00906699,0.0939062,20.9902,117.382,0.565335,0.0,0.0
3549,887,39.3007,40.3573,174.123,116.3,109.859,0.00895329,0.093149,20.9925,117.312,0.509983,0.0,0.0
3588,896.75,38.758,38.9366,166.847,116.342,109.457,0.00914009,0.0924513,20.9929,117.212,0.545978,0.0,0.0
3627,906.5,38.9112,39.1331,174.178,116.246,109.813,0.00944848,0.0922733,20.9928,117.112,0.509582,0.0,0.0
3666,916.25,38.3516,39.135,171.841,116.011,110.178,0.008494,0.091705,20.9954,117.052,0.461739,0.0,0.0
3705,926,38.5786,39.7119,173.438,115.674,109.389,0.00887523,0.090446,20.9955,116.952,0.499967,0.0,0.0
3744,935.75,37.5886,38.4436,171.375,115.427,109.998,0.00896737,0.0904297,20.9953,116.872,0.431164,0.0,0.0
3783,945.5,38.2141,38.6641,168.545,116.029,110.567,,,,116.802,0.431624,0.0,0.0
3796,948.75,38.3431,39.2532,168.779,116.084,110.29,,,,116.732,0.458284,0.0,0.0

File: EPDM_Membrane_Cone_HF50Scan_220225_R2.csv
Names,Time,Stack TC,Smoke TC,Exh Press,Smoke Comp,Smoke Meas,CO Meter,CO2 Meter,O2 Meter,Sample Mass,Ext Coeff,Start Test,Flame Verif
Chan Gain,,500,500,1,1,1,1,1,1,1,1,1.0,1.0
Offset,,0,0,0.137915,0,0,0,0,0,0,0,0.0,0.0
Gain,,1,1,25.011,15.3125,15.3273,1,1,1,1.00096,1.02035,1.0,1.0
Units,sec,C,C,Pa,%,%,%,%,%,g,/m,,
Baseline,,31.7523,32.8219,175.076,115.192,110.628,-0.000360785,0.0416978,21.0642,-867.557,0.361881,,
37,9,29.2537,31.0653,173.459,115.507,111.926,-0.00037018,0.045316,21.0594,161.515,0.281832,0.0,0.0
74,18.25,29.3541,31.053,179.28,115.322,110.33,-0.000435976,0.0439429,21.06,161.545,0.396099,0.0,0.0
111,27.5,29.5079,30.4467,177.868,115.31,108.206,-0.000375476,0.0428483,21.0627,161.475,0.569148,0.0,0.0
148,36.75,30.4463,31.8872,165.427,115.424,92.9326,0.00185399,0.079901,20.9922,161.365,1.93993,0.0,1.0
185,46,34.5888,35.6128,160.69,115.749,70.0997,0.0130814,0.332709,20.5545,160.674,4.4887,0.0,0.0
222,55.25,43.0652,45.729,150.435,116.04,57.0419,0.0223849,0.548291,20.1902,159.693,6.35612,0.0,0.0
259,64.5,52.471,55.6059,141.498,116.272,53.9487,0.0259497,0.62816,20.0555,158.512,6.87308,0.0,0.0
296,73.75,58.5308,63.656,143.488,116.283,51.3793,0.0247022,0.595273,20.1124,157.401,7.31063,0.0,0.0
333,83,62.9132,68.5267,151.748,116.022,58.6337,0.0231761,0.565673,20.1653,156.43,6.10841,0.0,0.0
370,92.25,66.2637,72.823,145.376,115.608,56.4816,0.0218657,0.5336,20.2189,155.439,6.41112,0.0,0.0
407,101.5,67.5961,74.5826,154.397,115.707,58.542,0.0213515,0.51439,20.2514,154.508,6.09805,0.0,0.0
444,110.75,69.6257,76.8069,148.718,116.053,59.3751,0.0201595,0.497998,20.2807,153.547,5.99833,0.0,0.0
481,120,70.6293,78.0614,149.242,115.603,59.2825,0.0194131,0.487556,20.2939,152.696,5.97756,0.0,0.0
518,129.25,71.5017,79.038,148.561,115.168,58.4279,0.0191069,0.48271,20.3009,151.846,6.07378,0.0,0.0
555,138.5,72.4932,79.9653,152.143,115.378,61.1647,0.0201022,0.515853,20.2493,150.945,5.68038,0.0,0.0
592,147.75,73.6886,81.2644,147.623,115.54,57.904,0.0209012,0.524077,20.2324,149.954,6.18326,0.0,0.0
629,157,75.1384,82.7006,145.91,115.311,59.92,0.0218389,0.53383,20.2153,148.903,5.85918,0.0,0.0
666,166.25,76.7375,85.5688,142.831,114.727,50.4172,0.0249758,0.586466,20.1128,147.812,7.35928,0.0,0.0
703,175.5,80.601,89.4197,136.886,114.063,44.9398,0.0319861,0.718044,19.8907,146.52,8.3367,0.0,0.0
740,184.75,84.5743,94.4464,134.513,114.017,47.5695,0.0314133,0.714583,19.8963,145.179,7.82411,0.0,0.0
777,194,85.831,96.1353,142.832,114.75,53.8289,0.0266993,0.60523,20.0791,143.988,6.77499,0.0,0.0
814,203.25,84.4702,94.6555,151.243,115.705,61.7311,0.0217349,0.522509,20.2399,143.067,5.62318,0.0,0.0
851,212.5,83.3457,92.7679,148.668,116.274,66.4835,0.0181599,0.455438,20.3536,142.126,5.00325,0.0,0.0
888,221.75,82.4869,90.7273,155.335,116.2,64.6738,0.0177376,0.448703,20.3654,141.295,5.24454,0.0,0.0
925,231,80.416,89.5442,147.894,115.668,61.0389,0.0184493,0.455541,20.3468,140.435,5.72126,0.0,0.0
962,240.25,80.1066,88.708,146.873,115.661,63.0661,0.0189481,0.466744,20.3238,139.494,5.42825,0.0,0.0
999,249.5,79.8737,88.213,145.419,116.079,59.3952,0.0192744,0.466142,20.3294,138.613,5.99735,0.0,0.0
1036,258.75,79.7794,86.8222,146.379,115.488,60.6502,0.018729,0.454243,20.3469,137.702,5.76451,0.0,0.0
1073,268,78.3301,86.3653,149.674,115.306,63.2331,0.0177101,0.433388,20.3775,136.941,5.37705,0.0,0.0
1110,277.25,77.9893,85.6978,152.888,115.471,60.7526,0.0168588,0.423853,20.395,136.05,5.74803,0.0,0.0
1147,286.5,77.1448,84.7449,151.013,115.408,62.5361,0.0166119,0.418238,20.4062,135.29,5.48423,0.0,0.0
1184,295.75,77.2579,83.827,152.078,114.809,60.079,0.0166524,0.41065,20.4181,134.499,5.79642,0.0,0.0
1221,305,75.6798,82.3448,147.441,114.1,63.5353,0.0162732,0.40239,20.4267,133.768,5.24031,0.0,0.0
1258,314.25,75.4922,82.3869,150.723,113.934,60.9654,0.0166724,0.40185,20.4307,132.867,5.59679,0.0,0.0
1295,323.5,75.1658,82.0558,153.629,114.501,62.9263,0.0164507,0.398528,20.4346,132.207,5.35791,0.0,0.0
1332,332.75,75.166,81.1315,150.144,115.448,64.1532,0.0161675,0.39955,20.4359,131.426,5.25878,0.0,0.0
1369,342,75.1036,80.8694,149.754,116.21,65.758,0.0159099,0.389021,20.4521,130.695,5.09653,0.0,0.0
1406,351.25,73.5275,79.8197,152.602,116.262,62.1203,0.0156212,0.385948,20.456,129.894,5.60991,0.0,0.0
1443,360.5,74.4267,78.7589,150.88,115.793,65.8675,0.0150922,0.374868,20.4728,129.214,5.04944,0.0,0.0
1480,369.75,73.7439,78.3663,153.609,115.516,68.9612,0.0148872,0.366528,20.4875,128.503,4.61725,0.0,0.0
1517,379,72.7412,77.5761,154.124,116.093,65.788,0.013764,0.351031,20.5143,127.853,5.08345,0.0,0.0
1554,388.25,72.0361,76.8959,155.311,115.843,66.9746,0.013256,0.341397,20.5335,127.152,4.90411,0.0,0.0
1591,397.5,71.767,75.8083,153.557,115.212,70.3649,0.0127487,0.328999,20.5565,126.551,4.41329,0.0,0.0
1628,406.75,69.8872,75.6444,159.991,115.389,73.5746,0.0119072,0.318319,20.5777,125.931,4.0278,0.0,0.0
1665,416,69.1821,74.4233,154.53,115.536,73.9404,0.0109304,0.305274,20.6007,125.48,3.99482,0.0,0.0
1702,425.25,68.0718,73.2927,152.941,115.489,74.3226,0.00998485,0.290923,20.6248,124.96,3.94499,0.0,0.0
1739,434.5,67.7537,71.8985,157.642,115.339,78.4196,0.0090138,0.279665,20.6476,124.459,3.45308,0.0,0.0
1776,443.75,66.7507,70.3313,153.043,115.097,77.703,0.00861821,0.270018,20.6651,123.999,3.51644,0.0,0.0
1813,453,65.5252,69.7386,159.663,114.712,83.4929,0.00788836,0.261071,20.6827,123.478,2.84324,0.0,0.0
1850,462.25,64.8388,67.8586,158.547,114.473,83.1706,0.00710228,0.251331,20.7013,123.068,2.85917,0.0,0.0
1887,471.5,63.5825,67.4893,155.804,114.374,83.6056,0.00612196,0.242601,20.7183,122.688,2.80476,0.0,0.0
1924,480.75,62.4599,65.8128,159.966,114.401,86.6815,0.00568115,0.233379,20.7357,122.317,2.4835,0.0,0.0
1961,490,61.4967,64.8858,157.028,114.543,86.9697,0.00509107,0.225739,20.7497,121.877,2.46491,0.0,0.0
1998,499.25,61.0717,63.8798,156.725,114.806,91.4713,0.00422345,0.217891,20.7652,121.627,2.03367,0.0,0.0
2035,508.5,59.8279,62.7341,161.394,115.166,90.8338,0.00369603,0.210208,20.7797,121.316,2.12432,0.0,0.0
2072,517.75,58.9249,61.9377,158.279,115.472,95.1736,0.00332333,0.203977,20.7933,121.026,1.73035,0.0,0.0
2109,527,58.4339,61.0755,159.433,115.558,95.8677,0.00273159,0.196231,20.8086,120.736,1.672,0.0,0.0
2146,536.25,57.6467,59.7365,158.845,115.369,97.9609,0.00221543,0.189,20.8214,120.586,1.46397,0.0,0.0
2183,545.5,57.1271,59.2908,161.769,115.571,100.434,0.00201141,0.184124,20.8295,120.265,1.25655,0.0,0.0
2220,554.75,55.993,58.2328,158.165,116.118,101.709,0.00182776,0.176928,20.8431,120.035,1.18587,0.0,0.0
2257,564,55.4091,56.9888,161.886,115.44,102.001,0.00167621,0.17205,20.8542,119.835,1.1078,0.0,0.0
2294,573.25,54.6696,56.637,162.81,116.02,103.24,0.00158151,0.166055,20.8643,119.685,1.04458,0.0,0.0
2331,582.5,53.709,56.7699,166.086,116.304,105.065,0.00144468,0.161124,20.8743,119.434,0.909623,0.0,0.0
2368,591.75,53.5138,55.0272,165.466,115.666,105.314,0.00138626,0.156406,20.8843,119.274,0.839266,0.0,0.0
2405,601,52.6285,54.455,164.121,114.485,105.163,0.00119538,0.152755,20.8901,119.114,0.760189,0.0,0.0
2442,610.25,51.8663,53.8735,167.824,113.9,106.525,0.00108736,0.150349,20.8946,118.934,0.599227,0.0,0.0
2479,619.5,51.1369,53.291,164.944,114.515,104.596,0.00112153,0.145515,20.902,118.784,0.810907,0.0,0.0
2516,628.75,50.826,52.2267,164.96,115.354,107.576,0.00150096,0.143323,20.9077,118.644,0.624827,0.0,0.0
2553,638,50.3066,51.8479,166.366,115.484,107.606,0.00126142,0.140108,20.9121,118.514,0.63241,0.0,0.0
2590,647.25,49.5381,51.3547,164.066,115.17,109.071,0.00154431,0.136822,20.9179,118.373,0.486966,0.0,0.0
2627,656.5,49.0143,50.9866,164.908,116.09,108.868,0.0015993,0.134156,20.9232,118.233,0.574865,0.0,0.0
2664,665.75,48.6477,50.0074,171.623,115.478,108.199,0.00194341,0.132343,20.9278,118.083,0.582743,0.0,0.0
2701,675,48.0608,49.2924,167.218,116.154,109.084,0.00235052,0.13002,20.9325,117.973,0.562125,0.0,0.0
2738,684.25,48.3014,48.4936,163.1,116.148,109.015,0.00248393,0.129344,20.9344,117.873,0.567264,0.0,0.0
2775,693.5,47.06,48.5631,167.043,114.85,109.51,0.00311064,0.126945,20.9378,117.723,0.426198,0.0,0.0
2812,702.75,46.8601,47.8339,164.921,113.934,107.194,0.00332149,0.125585,20.9395,117.633,0.545729,0.0,0.0
2849,712,46.2704,48.3999,166.801,114.965,107.971,0.00331284,0.12215,20.9453,117.493,0.561783,0.0,0.0
2886,721.25,46.0614,47.101,170.476,115.457,108.787,0.00393409,0.120796,20.9477,117.423,0.532566,0.0,0.0
2923,730.5,45.1078,47.0529,170.709,115.351,108.919,0.00398372,0.118551,20.9483,117.332,0.513532,0.0,0.0
2960,739.75,44.7792,46.5409,172.381,115.78,109.529,0.00456041,0.115575,20.9548,117.202,0.496771,0.0,0.0
2997,749,45.0113,45.4189,169.748,116.061,108.954,0.00542163,0.116317,20.9561,117.062,0.56552,0.0,0.0
3034,758.25,44.3628,45.4926,167.354,116.178,109.179,0.00538694,0.112508,20.9599,116.982,0.556137,0.0,0.0
3071,767.5,44.2119,44.7739,164.161,115.008,107.464,0.00609114,0.112425,20.9607,116.852,0.607264,0.0,0.0
3108,776.75,43.9413,44.2735,171.436,114.043,106.781,0.00656421,0.109477,20.9646,116.742,0.588906,0.0,0.0
3145,786,42.6578,43.5141,170.65,114.072,107.007,0.00660643,0.108542,20.9668,116.672,0.572301,0.0,0.0
3182,795.25,42.2146,43.0133,169.169,114.675,107.685,0.00680845,0.106884,20.9679,116.562,0.562888,0.0,0.0
3219,804.5,42.0522,43.0767,173.434,115.185,107.895,0.0072761,0.105234,20.9707,116.482,0.585225,0.0,0.0
3256,813.75,41.4937,42.4578,171.435,115.456,108.837,0.00810483,0.103512,20.9745,116.402,0.528417,0.0,0.0
3293,823,41.7276,42.6737,173.318,115.494,108.587,0.00931289,0.10033,20.9788,116.281,0.551988,0.0,0.0
3330,832.25,41.2626,42.0887,174.003,115.484,109.662,0.0104475,0.0977503,20.9816,116.191,0.462952,0.0,0.0
3367,841.5,40.7918,40.8126,169.571,115.468,108.341,0.0103488,0.0960145,20.9808,116.131,0.570227,0.0,0.0
3404,850.75,40.1173,40.9249,171.806,115.43,108.27,0.0103099,0.0949591,20.9819,115.991,0.573166,0.0,0.0
3441,860,39.9968,40.919,172.503,115.469,108.364,0.0101029,0.0947645,20.9826,115.921,0.568404,0.0,0.0
3478,869.25,39.6439,40.8324,173.07,115.478,108.756,0.0100552,0.0948589,20.9869,115.801,0.536777,0.0,0.0
3515,878.5,39.3392,40.409,169.675,115.499,109.138,0.00989734,0.095029,20.9865,115.751,0.507047,0.0,0.0
3552,887.75,39.3961,40.1461,172.782,115.511,108.696,0.00995469,0.0941484,20.9885,115.641,0.544238,0.0,0.0
3589,897,39.3547,40.3323,171.701,115.459,109.905,,,,115.581,0.441203,0.0,0.0
3596,898.75,38.9869,40.2402,166.169,115.446,109.043,,,,115.561,0.510671,0.0,0.0