Folder: fsri_materials_database/01_Data/EPDM_Membrane/Cone

Note: 01_Data/README.md
# Materials and Products Database
## 01_Data

Raw data generated from each apparatus are included here in plain-text format. The data is organized first by material, next by the short name of test apparatus used, and where applicable additional filtering by test settings.

### material.json

Each material directory contains a json file of the same name as the material. This file links the data stored in the repository as well as data and graphs produced by the accompanying scripts (__02_Scripts__) to the respective landing page for the material on the front-end website.

File: EPDM_Membrane_Cone_HF25-Frame+GridScalar_220311_R4.csv
LABORATORY,FSRI
TEST IDENT,EPDM_Membrane_HF25_4
OPERATOR,Dow
MATERIAL,EPDM Roofing Membrane
ORIENTATION,Horizontal
HEAT FLUX,35
SURF AREA,0.00884
C FACTOR,0.0377281
SPEC HOLDER DIFF,-566
SPECIMEN MASS,81.9
SCAN TIME,0.25
O2 DELAY TIME,11
CO DELAY TIME,11
CO2 DELAY TIME,8
FLOW FACTOR,1
SCAN COUNT,5583
TIME TO IGN,154
END OF TEST SCAN,5103
END OF TEST TIME,1275.75
TEST STATUS,1
PRE TEST CMT,Thickness: 6.05 mm; with frame and grid

File: EPDM_Membrane_Cone_HF25-Frame+GridScalar_220311_R5.csv
LABORATORY,FSRI
TEST IDENT,EPDM_Membrane_HF25_5
OPERATOR,Dow
MATERIAL,EPDM Roofing Membrane
ORIENTATION,Horizontal
HEAT FLUX,25
SURF AREA,0.00884
C FACTOR,0.0377281
SPEC HOLDER DIFF,-566
SPECIMEN MASS,82.7
SCAN TIME,0.25
O2 DELAY TIME,11
CO DELAY TIME,11
CO2 DELAY TIME,8
FLOW FACTOR,1
SCAN COUNT,5364
TIME TO IGN,150.75
END OF TEST SCAN,4884
END OF TEST TIME,1221
TEST STATUS,1
PRE TEST CMT,Thickness: 6.05 mm; with frame and grid

File: EPDM_Membrane_Cone_HF25-Frame+GridScan_220311_R4.csv
Names,Time,Stack TC,Smoke TC,Exh Press,Smoke Comp,Smoke Meas,CO Meter,CO2 Meter,O2 Meter,Sample Mass,Ext Coeff,Start Test,Flame Verif
Chan Gain,,500,500,1,1,1,1,1,1,1,1,1.0,1.0
Offset,,0,0,0.136191,0,0,0,0,0,0,0,0.0,0.0
Gain,,1,1,25.011,13.291,13.2919,1,1,1,1.00093,1.00758,1.0,1.0
Units,sec,C,C,Pa,%,%,%,%,%,g,/m,,
Baseline,,18.9491,19.6415,176.164,100.15,98.1024,0.000820186,0.0675592,21.0282,-0.60114,0.182584,,
58,14.25,18.1142,18.678,177.474,100.326,99.4715,0.000627674,0.0717681,21.025,1030.71,0.0756163,0.0,0.0
116,28.75,18.7449,18.8466,173.424,100.253,98.8379,0.0010007,0.0668178,21.0325,1030.71,0.125625,0.0,0.0
174,43.25,18.092,19.271,173.639,100.159,98.7701,0.000724208,0.0684101,21.0278,1030.7,0.12342,0.0,0.0
232,57.75,18.5331,19.1422,177.859,100.026,98.6537,0.000839736,0.0688283,21.0285,1030.7,0.122095,0.0,0.0
290,72.25,18.9323,19.0356,174.993,99.8548,97.9183,0.000478243,0.0717888,21.0251,1030.66,0.173092,0.0,0.0
348,86.75,18.7855,19.2881,176.646,99.7417,97.8165,0.000736531,0.067447,21.031,1030.63,0.172264,0.0,0.0
406,101.25,19.1241,19.3656,175.228,99.6439,98.0189,0.000533345,0.0708977,21.0288,1030.63,0.145328,0.0,0.0
464,115.75,19.1167,19.8136,174.376,99.6877,97.3224,0.000586763,0.0670498,21.0346,1030.57,0.212238,0.0,0.0
522,130.25,18.7568,19.885,179.612,99.9335,97.1366,0.000764761,0.0668518,21.0348,1030.55,0.250892,0.0,0.0
580,144.75,19.0496,19.2987,176.873,100.09,96.6628,0.000930361,0.0670574,21.0333,1030.49,0.307943,0.0,0.0
638,159.25,20.0339,20.7906,162.538,100.198,71.9888,0.00571118,0.153482,20.8326,1030.21,2.92235,0.0,0.0
696,173.75,30.0732,30.3872,152.19,100.225,63.8306,0.0152437,0.409374,20.4516,1029.1,3.98777,0.0,0.0
754,188.25,39.2609,40.7145,148.359,100.159,62.2807,0.017575,0.477524,20.3426,1027.86,4.19916,0.0,0.0
812,202.75,46.6042,49.134,156.477,100.047,58.2178,0.0187803,0.493239,20.3203,1026.55,4.78559,0.0,0.0
870,217.25,51.9065,54.9569,156.106,99.9607,61.0045,0.0184877,0.481364,20.3386,1025.23,4.36466,0.0,0.0
928,231.75,55.2784,58.8942,151.296,100.099,57.9866,0.018133,0.463525,20.3694,1024.01,4.82534,0.0,0.0
986,246.25,55.5969,60.0372,152.061,100.218,60.2415,0.0180213,0.454257,20.3847,1022.73,4.49865,0.0,0.0
1044,260.75,56.9359,61.8057,147.012,100.042,59.8075,0.0179947,0.450569,20.3858,1021.55,4.54698,0.0,0.0
1102,275.25,58.766,63.8938,156.082,99.7303,59.8838,0.0187725,0.474585,20.3472,1020.24,4.50815,0.0,0.0
1160,289.75,60.3419,65.6358,154.857,100.286,62.2032,0.018312,0.480234,20.3405,1018.94,4.2214,0.0,0.0
1218,304.25,60.4224,65.9995,149.654,100.076,63.1114,0.0161776,0.433326,20.4251,1017.72,4.07475,0.0,0.0
1276,318.75,59.0985,64.8174,155.115,98.6323,68.0346,0.0140278,0.386062,20.5025,1016.67,3.28243,0.0,0.0
1334,333.25,56.632,62.1547,152.248,98.6348,65.6645,0.0126759,0.35453,20.5541,1015.74,3.59604,0.0,0.0
1392,347.75,55.6439,60.6426,164.154,99.6946,69.8969,0.0108066,0.335043,20.5915,1014.89,3.13843,0.0,0.0
1450,362.25,53.495,58.3724,162.374,99.5312,71.5539,0.0101096,0.311208,20.6297,1014.11,2.91684,0.0,0.0
1508,376.75,51.9083,56.4687,160.109,99.6808,72.4784,0.00963984,0.298226,20.649,1013.37,2.81667,0.0,0.0
1566,391.25,50.5686,54.9512,161.057,100.21,71.6752,0.00922279,0.28755,20.6682,1012.63,2.96196,0.0,0.0
1624,405.75,49.4012,53.4609,161.331,98.2961,71.8934,0.00912767,0.281554,20.6765,1011.94,2.76464,0.0,0.0
1682,420.25,48.1693,51.9828,158.552,99.6715,73.6137,0.00886502,0.281114,20.6815,1011.23,2.67846,0.0,0.0
1740,434.75,48.0078,51.6311,161.107,99.9566,74.7098,0.00891786,0.281496,20.6764,1010.57,2.57308,0.0,0.0
1798,449.25,47.7587,50.907,163.309,100.164,72.1786,0.00905635,0.281905,20.6789,1009.86,2.89606,0.0,0.0
1856,463.75,47.5479,50.9109,161.686,99.1174,73.4134,0.00860088,0.278833,20.6833,1009.19,2.65328,0.0,0.0
1914,478.25,46.9957,49.9321,161.122,99.072,72.9996,0.00884971,0.280845,20.6809,1008.51,2.69918,0.0,0.0
1972,492.75,46.8603,49.8126,157.859,99.4849,74.2267,0.00870493,0.279122,20.6818,1007.8,2.58861,0.0,0.0
2030,507.25,46.8751,49.7948,157.19,100.032,73.3886,0.00854648,0.278426,20.6858,1007.13,2.73748,0.0,0.0
2088,521.75,46.8158,49.944,154.457,100.346,74.0518,0.00882843,0.275211,20.6908,1006.44,2.68559,0.0,0.0
2146,536.25,46.3442,49.5437,159.558,99.4675,72.5875,0.00861973,0.270813,20.6977,1005.81,2.78443,0.0,0.0
2204,550.75,46.5146,49.231,160.226,98.3431,71.3852,0.00844178,0.263602,20.7082,1005.14,2.83158,0.0,0.0
2262,565.25,46.1546,48.5359,162.41,99.2586,73.5574,0.00783496,0.260355,20.7126,1004.51,2.64854,0.0,0.0
2320,579.75,45.784,48.2532,163.811,99.6346,73.6251,0.00726467,0.252132,20.7281,1003.9,2.67382,0.0,0.0
2378,594.25,44.9188,47.3111,161.009,99.2805,75.1097,0.00703625,0.246832,20.7363,1003.31,2.4659,0.0,0.0
2436,608.75,43.9631,46.4904,160.179,100.128,75.3044,0.00668683,0.240528,20.7452,1002.79,2.51813,0.0,0.0
2494,623.25,43.7437,45.8994,165.716,99.7518,75.1053,0.00657322,0.234495,20.7568,1002.24,2.50829,0.0,0.0
2552,637.75,42.866,45.1389,164.861,99.7202,78.6011,0.00608633,0.228045,20.7681,1001.73,2.10339,0.0,0.0
2610,652.25,42.2362,44.3871,161.354,100.096,79.0249,0.00572875,0.22277,20.7765,1001.22,2.08911,0.0,0.0
2668,666.75,41.527,43.6732,160.969,100.365,81.0341,0.00512326,0.217198,20.7899,1000.77,1.89093,0.0,0.0
2726,681.25,40.9254,42.7854,162.762,100.454,83.2687,0.00485375,0.211465,20.7981,1000.33,1.65828,0.0,0.0
2784,695.75,40.3228,42.1337,163.398,100.285,84.4199,0.00435531,0.206338,20.8079,999.917,1.52207,0.0,0.0
2842,710.25,39.9021,41.4384,160.757,100.063,84.6625,0.00391315,0.201484,20.818,999.537,1.47713,0.0,0.0
2900,724.75,39.3604,40.8602,167.378,99.7222,85.2661,0.00326133,0.197401,20.8238,999.187,1.3842,0.0,0.0
2958,739.25,38.6321,40.2207,171.16,99.3713,85.6052,0.00317464,0.19285,20.8347,998.806,1.31796,0.0,0.0
3016,753.75,38.012,39.5747,163.373,98.9373,86.4607,0.00252614,0.188628,20.8435,998.496,1.19139,0.0,0.0
3074,768.25,37.6623,39.2255,167.747,98.6169,87.981,0.00239,0.185512,20.8484,998.166,1.00866,0.0,0.0
3132,782.75,37.4672,38.9128,167.067,98.5135,89.2198,0.00229081,0.181927,20.8559,997.845,0.875799,0.0,0.0
3190,797.25,36.9653,38.3847,170.188,98.5475,89.1379,0.0020977,0.178401,20.86,997.565,0.886976,0.0,0.0
3248,811.75,36.657,38.0037,154.837,98.7033,90.4059,0.00240362,0.175034,20.8674,997.305,0.776091,0.0,0.0
3306,826.25,36.2509,37.413,168.372,98.9523,91.0841,0.00239173,0.171835,20.8739,997.045,0.732304,0.0,0.0
3364,840.75,35.6755,37.1936,164.51,99.2614,92.0925,0.00227289,0.168199,20.8815,996.764,0.662554,0.0,0.0
3422,855.25,35.2294,36.6526,163.973,99.4431,92.0163,0.00296427,0.164289,20.885,996.544,0.686041,0.0,0.0
3480,869.75,34.7419,36.1089,166.329,99.523,92.7939,0.00305816,0.160761,20.891,996.304,0.618763,0.0,0.0
3538,884.25,34.3512,35.4255,162.417,99.5543,93.9309,0.00345521,0.157173,20.8985,996.084,0.513898,0.0,0.0
3596,898.75,33.9173,34.9143,167.726,99.5312,93.5934,0.00379613,0.153635,20.8989,995.873,0.543658,0.0,0.0
3654,913.25,33.6405,34.8937,172.015,99.5097,93.2174,0.00417008,0.151291,20.9053,995.673,0.577331,0.0,0.0
3712,927.75,33.1258,34.2643,173.022,99.4472,93.7106,0.0041593,0.147314,20.9112,995.433,0.525136,0.0,0.0
3770,942.25,32.7496,33.8541,167.404,99.3502,94.0059,0.00472113,0.143722,20.9148,995.243,0.488708,0.0,0.0
3828,956.75,32.27,33.4828,172.684,99.2363,93.8737,0.00465642,0.140822,20.9189,995.073,0.491004,0.0,0.0
3886,971.25,32.0376,32.9389,167.404,99.1714,93.8161,0.00562121,0.138224,20.9226,994.883,0.490646,0.0,0.0
3944,985.75,31.2882,32.2486,171.984,99.1251,94.3645,0.00589243,0.134534,20.929,994.762,0.435009,0.0,0.0
4002,1000.25,31.117,31.7985,170.558,99.0874,94.4282,0.0064412,0.131445,20.935,994.552,0.425682,0.0,0.0
4060,1014.75,30.1438,30.9567,175.197,98.9925,94.6983,0.00669684,0.129132,20.9352,994.402,0.391962,0.0,0.0
4118,1029.25,29.7738,30.7025,173.522,98.8639,94.513,0.00709601,0.127574,20.9389,994.132,0.397793,0.0,0.0
4176,1043.75,29.2725,30.0288,172.166,98.6903,94.5909,0.00791437,0.124607,20.9449,993.912,0.374979,0.0,0.0
4234,1058.25,29.0594,30.0776,168.969,98.554,94.1844,0.00770048,0.121074,20.9473,993.842,0.400824,0.0,0.0
4292,1072.75,28.736,29.3168,172.774,98.5216,94.3564,0.00853741,0.117607,20.9532,993.681,0.381789,0.0,0.0
4350,1087.25,28.3666,29.1823,172.866,98.6084,94.4493,0.00871668,0.115261,20.958,993.481,0.380876,0.0,0.0
4408,1101.75,27.9053,28.7815,170.592,98.9288,95.2159,0.00871994,0.113458,20.9594,993.411,0.338098,0.0,0.0
4466,1116.25,27.9567,28.6042,168.882,99.5165,95.6029,0.00895307,0.111074,20.9606,993.251,0.354602,0.0,0.0
4524,1130.75,27.3996,27.9028,172.508,100.144,95.6552,0.00922409,0.108996,20.9675,993.121,0.405284,0.0,0.0
4582,1145.25,26.8307,27.5663,172.49,100.481,96.8397,0.00899199,0.107893,20.9697,992.931,0.326212,0.0,0.0
4640,1159.75,26.7739,27.4402,172.277,100.471,96.1509,0.00892821,0.108588,20.9703,992.881,0.388444,0.0,0.0
4698,1174.25,25.917,26.7616,171.212,100.228,96.7326,0.00930276,0.10781,20.9715,992.761,0.313735,0.0,0.0
4756,1188.75,26.0519,26.7262,173.232,99.9538,96.3026,0.00942897,0.107028,20.9721,992.62,0.328898,0.0,0.0
4814,1203.25,25.7519,26.5546,173.492,99.7214,96.3513,0.00924089,0.10429,20.9772,992.49,0.303857,0.0,0.0
4872,1217.75,25.8164,26.429,168.15,100.152,96.8855,0.00925184,0.104855,20.974,992.39,0.293047,0.0,0.0
4930,1232.25,26.0981,26.7904,169.488,100.247,96.2661,0.00943096,0.101982,20.9777,992.24,0.358178,0.0,0.0
4988,1246.75,25.7423,26.2855,172.771,99.8779,96.776,0.00979643,0.102448,20.9792,992.14,0.278849,0.0,0.0
5046,1261.25,25.3048,25.9312,170.194,99.4634,95.2962,0.00967547,0.102801,20.9769,992,0.378278,0.0,0.0
5104,1275.75,24.6028,24.9879,174.865,99.6788,95.8666,0.00968903,0.0997674,20.9803,991.88,0.344658,0.0,0.0
5162,1290.25,23.9044,24.6659,174.553,99.8281,96.7533,0.00965721,0.0977188,20.9833,991.69,0.276509,0.0,0.0
5220,1304.75,24.2037,24.9119,175.846,99.7364,96.4255,0.00946333,0.0977848,20.9854,991.549,0.298379,0.0,0.0
5278,1319.25,23.9814,24.9363,174.238,99.4265,95.9976,0.0093556,0.0976054,20.9872,991.459,0.310189,0.0,0.0
5336,1333.75,23.7578,24.3986,175.622,99.0408,95.9246,0.00934867,0.0948213,20.9927,991.359,0.282557,0.0,0.0
5394,1348.25,23.6714,24.3818,170.866,98.7001,95.1746,0.00968325,0.09302,20.9977,991.269,0.321477,0.0,0.0
5452,1362.75,23.9421,24.0645,171.345,98.5009,96.1882,0.00914867,0.0906425,21.0001,991.109,0.209987,0.0,0.0
5510,1377.25,23.3074,24.435,169.97,98.6648,96.3233,0.0089756,0.0889977,21.0065,990.979,0.212275,0.0,0.0
5568,1391.75,23.8679,24.1612,172.102,99.2999,96.529,,,,990.929,0.250142,0.0,0.0
5583,1395.5,23.3448,23.8347,167.431,99.5068,97.5341,,,,990.809,0.176977,0.0,0.0

File: EPDM_Membrane_Cone_HF25-FrameScan_220225_R2.csv
Names,Time,Stack TC,Smoke TC,Exh Press,Smoke Comp,Smoke Meas,CO Meter,CO2 Meter,O2 Meter,Sample Mass,Ext Coeff,Start Test,Flame Verif
Chan Gain,,500,500,1,1,1,1,1,1,1,1,1.0,1.0
Offset,,0,0,0.135243,0,0,0,0,0,0,0,0.0,0.0
Gain,,1,1,25.011,15.3125,15.3273,1,1,1,1.00096,1.02035,1.0,1.0
Units,sec,C,C,Pa,%,%,%,%,%,g,/m,,
Baseline,,18.6219,19.1276,180.142,115.415,111.146,0.000434695,0.0427814,21.0623,-867.438,0.337391,,
42,10.25,16.6299,17.0921,177.717,115.787,113.365,0.000367027,0.0486998,21.0562,517.616,0.189244,0.0,0.0
84,20.75,16.9358,17.4238,182.975,116.676,114.125,0.000308206,0.0482681,21.057,517.586,0.197838,0.0,0.0
126,31.25,17.1237,16.8698,180.532,116.038,113.479,0.00030702,0.0435076,21.0643,517.576,0.199614,0.0,0.0
168,41.75,16.6386,17.5979,181.528,116.455,113.753,0.000433527,0.0428865,21.0645,517.586,0.210115,0.0,0.0
210,52.25,16.6417,17.315,182.727,115.539,112.212,0.000255321,0.0425743,21.0631,517.576,0.261504,0.0,0.0
252,62.75,16.8207,17.4076,180.905,115.873,113.04,0.00050155,0.0422682,21.0648,517.406,0.221517,0.0,0.0
294,73.25,17.4084,17.5437,178.882,115.301,112.223,0.000273598,0.0465434,21.0599,517.516,0.2422,0.0,0.0
336,83.75,17.3382,17.2576,178.507,114.298,111.141,0.000552391,0.0464827,21.0598,517.516,0.250686,0.0,0.0
378,94.25,17.8957,17.5128,184.605,114.979,111.839,0.000123402,0.0437961,21.0638,517.466,0.247853,0.0,0.0
420,104.75,16.8545,18.7554,180.139,116.463,112.523,0.000263967,0.0437073,21.0617,517.456,0.308011,0.0,0.0
462,115.25,17.6052,18.4071,168.383,116.441,102.01,0.00263863,0.0841557,20.9895,517.276,1.18426,0.0,1.0
504,125.75,24.5932,25.645,160.596,116.036,62.9487,0.0156708,0.407384,20.4204,516.355,5.47392,0.0,0.0
546,136.25,33.1483,36.2814,149.082,116.211,60.6422,0.020302,0.526124,20.225,515.324,5.82153,0.0,0.0
588,146.75,40.2774,44.8493,150.211,115.714,59.9528,0.0221222,0.553419,20.1963,514.203,5.88554,0.0,0.0
630,157.25,46.3614,51.4358,149.214,115.9,62.3818,0.0211983,0.537674,20.2248,513.112,5.54436,0.0,0.0
672,167.75,50.4514,56.3348,151.183,115.724,65.8404,0.0195304,0.521409,20.2588,512.101,5.04782,0.0,0.0
714,178.25,53.5634,60.0416,149.593,115.294,67.3867,0.0191971,0.509473,20.2812,511.04,4.80672,0.0,0.0
756,188.75,55.7649,62.7174,151.918,114.875,67.7034,0.0186372,0.503041,20.2913,510.099,4.73219,0.0,0.0
798,199.25,57.6203,64.7487,147.21,114.655,66.7221,0.0189623,0.512993,20.2735,509.048,4.84571,0.0,0.0
840,209.75,60.166,67.5457,152.344,114.664,70.3022,0.0196749,0.525433,20.2512,508.037,4.37855,0.0,0.0
882,220.25,62.0512,69.6696,150.439,114.836,64.3314,0.0211949,0.565733,20.1796,506.926,5.18644,0.0,0.0
924,230.75,65.5415,73.4606,136.169,115.138,62.2555,0.0253014,0.647924,20.0297,505.635,5.50348,0.0,0.0
966,241.25,71.2561,80.2637,139.869,115.549,59.1833,0.0313333,0.784781,19.8033,504.093,5.98831,0.0,0.0
1008,251.75,76.4777,86.1695,136.053,115.872,57.7627,0.0328836,0.809579,19.7647,502.642,6.23078,0.0,0.0
1050,262.25,79.3982,90.3213,142.74,115.917,54.8098,0.0307409,0.759138,19.8552,501.18,6.70392,0.0,0.0
1092,272.75,80.3144,91.0193,139.527,115.69,54.7588,0.0276548,0.696548,19.9569,499.859,6.6947,0.0,0.0
1134,283.25,80.2796,91.0065,148.149,115.974,55.0437,0.0266334,0.64684,20.0367,498.608,6.67025,0.0,0.0
1176,293.75,79.0537,89.2123,149.698,116.492,50.717,0.0251015,0.61386,20.0836,497.357,7.44282,0.0,0.0
1218,304.25,78.9525,88.9712,145.99,115.876,54.6452,0.0253218,0.601834,20.1059,496.065,6.72771,0.0,0.0
1260,314.75,78.8082,88.3327,151.538,116.537,56.7823,0.0255962,0.615606,20.0809,494.844,6.43522,0.0,0.0
1302,325.25,78.173,87.6624,147.488,116.573,60.711,0.0235661,0.589906,20.1327,493.673,5.83921,0.0,0.0
1344,335.75,76.332,85.2567,151.168,115.478,66.4774,0.0189806,0.485733,20.3139,492.682,4.94263,0.0,0.0
1386,346.25,73.9462,82.2793,148.807,114.338,67.1005,0.0166817,0.436473,20.3958,491.831,4.77029,0.0,0.0
1428,356.75,71.4919,79.1485,154.199,114.649,67.2754,0.0150015,0.411713,20.4407,490.961,4.77135,0.0,0.0
1470,367.25,69.6095,76.4402,153.77,115.643,70.893,0.0145791,0.396673,20.4677,490.16,4.37978,0.0,0.0
1512,377.75,67.4786,73.2072,159.501,115.848,71.1358,0.0140932,0.385603,20.4847,489.399,4.36504,0.0,0.0
1554,388.25,65.7558,71.6511,156.537,115.533,70.8495,0.0134773,0.373399,20.5049,488.658,4.37673,0.0,0.0
1596,398.75,63.5185,69.2502,159.219,116.453,73.1696,0.0129332,0.352694,20.5382,487.968,4.15933,0.0,0.0
1638,409.25,62.0082,66.8586,159.6,115.783,73.185,0.0122721,0.339936,20.5587,487.237,4.10579,0.0,0.0
1680,419.75,60.1942,64.6682,158.971,116.454,72.5666,0.0114382,0.331106,20.5741,486.546,4.2335,0.0,0.0
1722,430.25,59.34,63.5069,158.74,116.589,73.8595,0.01053,0.321879,20.5891,485.956,4.08581,0.0,0.0
1764,440.75,57.735,61.4017,158.849,115.432,76.1506,0.0101704,0.315582,20.6023,485.295,3.72309,0.0,0.0
1806,451.25,56.3834,60.133,155.897,114.328,75.4625,0.010096,0.309614,20.6133,484.695,3.71834,0.0,0.0
1848,461.75,55.7991,58.9894,164.912,114.733,75.6692,0.00983911,0.304373,20.6202,484.084,3.72548,0.0,0.0
1890,472.25,54.6362,57.414,157.901,115.688,76.8274,0.0095588,0.301733,20.6275,483.553,3.66373,0.0,0.0
1932,482.75,54.1723,57.3135,159.809,115.818,80.177,0.0093422,0.295503,20.638,482.983,3.29185,0.0,0.0
1974,493.25,53.8202,56.3452,158.882,115.512,77.3522,0.00920278,0.290519,20.6474,482.392,3.58915,0.0,0.0
2016,503.75,52.6284,55.1468,164.228,116.238,77.8653,0.00891835,0.285403,20.6526,481.862,3.5861,0.0,0.0
2058,514.25,51.8195,54.4289,163.593,116.209,78.4608,0.00875122,0.282263,20.6598,481.321,3.51565,0.0,0.0
2100,524.75,51.9357,54.4353,164.564,116.076,80.1634,0.00881727,0.279579,20.6647,480.781,3.31327,0.0,0.0
2142,535.25,51.5351,54.0808,158.171,116.653,80.0231,0.00845156,0.276233,20.6699,480.28,3.37334,0.0,0.0
2184,545.75,51.0082,53.0238,163.979,116.385,82.0854,0.00845217,0.273164,20.6728,479.75,3.125,0.0,0.0
2226,556.25,51.2101,52.9498,166.071,115.264,79.1835,0.00832635,0.271701,20.6763,479.259,3.36052,0.0,0.0
2268,566.75,50.4547,52.4017,159.699,114.352,79.1269,0.00822537,0.269428,20.6813,478.779,3.29584,0.0,0.0
2310,577.25,50.0683,52.4333,165.557,114.788,81.4268,0.00739747,0.266601,20.6859,478.268,3.07341,0.0,0.0
2352,587.75,49.6197,51.5264,161.629,115.763,82.2178,0.00695266,0.260875,20.6954,477.808,3.06258,0.0,0.0
2394,598.25,49.2802,50.9349,164.965,115.714,82.4732,0.00679334,0.254403,20.7057,477.347,3.0311,0.0,0.0
2436,608.75,48.7362,50.6041,165.342,115.817,83.7763,0.00659374,0.249236,20.7189,476.897,2.89869,0.0,0.0
2478,619.25,48.4665,50.2653,161.07,116.27,86.3967,0.00622434,0.243916,20.7268,476.457,2.65799,0.0,0.0
2520,629.75,47.9736,49.2867,166.863,116.187,88.2733,0.00527315,0.234381,20.7441,476.066,2.45929,0.0,0.0
2562,640.25,46.6173,48.3023,164.888,116.662,89.1325,0.00518621,0.229874,20.7546,475.676,2.40908,0.0,0.0
2604,650.75,46.9053,48.166,168.551,115.596,90.322,0.00488801,0.221611,20.7686,475.316,2.20827,0.0,0.0
2646,661.25,45.9086,47.8437,166.042,114.384,92.6112,0.00426022,0.214354,20.7842,474.995,1.8899,0.0,0.0
2688,671.75,45.3863,47.2228,164.774,115.06,92.9681,0.00396184,0.209235,20.7913,474.675,1.90819,0.0,0.0
2730,682.25,44.952,46.1701,165.164,115.91,96.4622,0.00397108,0.198925,20.81,474.365,1.64385,0.0,0.0
2772,692.75,43.7867,45.2194,166.78,115.45,97.3065,0.00398213,0.192408,20.8207,474.104,1.53023,0.0,0.0
2814,703.25,43.5209,44.7596,164.685,116.397,98.6293,0.00383221,0.185904,20.8347,473.854,1.48255,0.0,0.0
2856,713.75,42.7691,44.2014,170.625,115.978,100.753,0.00422284,0.178811,20.8454,473.634,1.25955,0.0,0.0
2898,724.25,42.0831,43.3084,168.059,116.695,101.899,0.00487742,0.171718,20.8582,473.384,1.21347,0.0,0.0
2940,734.75,40.9682,42.1292,168.114,116.134,99.7309,0.00630234,0.168634,20.8606,473.244,1.36285,0.0,0.0
2982,745.25,40.6793,41.353,172.23,114.702,100.764,0.00758701,0.185438,20.8358,473.083,1.1596,0.0,0.0
3024,755.75,39.9325,40.5873,173.152,114.776,101.412,0.00796267,0.178972,20.8438,472.823,1.10804,0.0,0.0
3066,766.25,39.3346,40.1713,167.398,115.853,101.404,0.00964171,0.168861,20.8603,472.703,1.19227,0.0,0.0
3108,776.75,38.6814,39.0092,168.498,115.75,102.242,0.0101128,0.168725,20.858,472.583,1.11064,0.0,0.0
3150,787.25,37.5624,38.2095,171.215,115.893,103.422,0.0104093,0.163315,20.8679,472.363,1.01898,0.0,0.0
3192,797.75,36.9311,37.9261,174.235,116.283,104.404,0.0115035,0.154153,20.8819,472.132,0.964491,0.0,0.0
3234,808.25,36.3615,36.9168,173.068,116.419,104.672,0.0123033,0.14615,20.8939,472.072,0.951964,0.0,0.0
3276,818.75,35.5478,35.4536,175.105,116.746,105.06,0.0131516,0.136885,20.9119,471.882,0.944017,0.0,0.0
3318,829.25,34.8235,35.1494,175.413,115.606,104.259,0.0124524,0.127235,20.9272,471.722,0.92466,0.0,0.0
3360,839.75,34.0845,34.2206,173.011,114.586,103.333,0.0118525,0.125038,20.9322,471.602,0.925226,0.0,0.0
3402,850.25,33.182,33.6491,172.878,115.478,103.872,0.0121473,0.135366,20.9174,471.472,0.948048,0.0,0.0
3444,860.75,32.2532,32.8312,176.544,116.127,104.769,0.0118726,0.130406,20.9244,471.322,0.921206,0.0,0.0
3486,871.25,33.1025,32.9587,177.381,115.628,104.187,0.0123128,0.129432,20.9274,471.202,0.932542,0.0,0.0
3528,881.75,32.7816,32.3066,175.77,116.283,105.027,0.0123091,0.122179,20.9373,471.081,0.911233,0.0,0.0
3570,892.25,31.7952,32.2899,175.707,116.415,104.912,0.0120775,0.11266,20.9543,470.921,0.931222,0.0,0.0
3612,902.75,31.3767,31.0751,174.207,116.057,104.788,0.0118235,0.10898,20.9612,470.881,0.91424,0.0,0.0
3654,913.25,30.4544,30.3044,172.934,116.521,105.403,0.0120755,0.105441,20.9671,470.711,0.89753,0.0,0.0
3696,923.75,29.8837,29.5428,182.186,116.808,105.884,0.0122769,0.102476,20.9714,470.721,0.878804,0.0,0.0
3738,934.25,29.5167,29.6414,175.386,116.892,105.956,0.0131605,0.121997,20.9402,470.591,0.879125,0.0,0.0
3780,944.75,29.6915,28.6758,174.159,116.907,106.181,0.0126313,0.121661,20.9391,470.381,0.861319,0.0,0.0
3822,955.25,28.8751,28.3083,174.7,116.881,106.81,0.0126296,0.121637,20.9394,470.311,0.806441,0.0,0.0
3864,965.75,29.2419,29.4132,180.79,116.831,106.575,0.0121805,0.11318,20.9552,470.161,0.822424,0.0,0.0
3906,976.25,28.5096,28.8734,173.737,116.65,106.1,0.012086,0.103402,20.9692,470.03,0.848444,0.0,0.0
3948,986.75,27.7884,27.829,177.766,116.337,106.554,0.0112874,0.100479,20.9756,469.95,0.786192,0.0,0.0
3990,997.25,27.4159,27.0789,178.601,115.996,105.925,0.0119733,0.100646,20.9768,469.84,0.812876,0.0,0.0
4032,1007.75,27.6118,27.4056,176.647,116.434,106.628,0.0111083,0.0992386,20.9793,469.77,0.787425,0.0,0.0
4074,1018.25,27.4476,27.4506,173.011,116.425,106.653,,,,469.66,0.784626,0.0,0.0
4097,1024,27.3238,27.1838,178.85,116.012,106.474,,,,469.63,0.767859,0.0,0.0

File: EPDM_Membrane_Cone_HF25Scalar_220225_R1.csv
LABORATORY,FSRI
TEST IDENT,EPDM_HF25_1
OPERATOR,Dow
MATERIAL,EPDM Roofing Membrane
ORIENTATION,Horizontal
HEAT FLUX,25
SURF AREA,0.01
C FACTOR,0.0370678
SPEC HOLDER DIFF,305.95
SPECIMEN MASS,82.3
SCAN TIME,0.25
O2 DELAY TIME,11
CO DELAY TIME,11
CO2 DELAY TIME,8
FLOW FACTOR,1
SCAN COUNT,2684
TIME TO IGN,108
END OF TEST SCAN,2204
END OF TEST TIME,551
TEST STATUS,1
PRE TEST CMT,Dimensions: 100.11 x 99.19 x 5.93 mm; primary interest on time to ignition
POST TEST CMT,"After ignition the sample warped and expanded significantly. Expanded vertically several centimeters and contacted the cone heater, causing spikes in mass data. Expanded horizontally until charred pieces fell out of the foil pan, mostly caught by lower drip tray where it continued to burn. See test pictures. "

File: EPDM_Membrane_Cone_HF25Scalar_220225_R2.csv
LABORATORY,FSRI
TEST IDENT,EPDM_HF25_2
OPERATOR,Dow
MATERIAL,EPDM Roofing Membrane
ORIENTATION,Horizontal
HEAT FLUX,25
SURF AREA,0.00884
C FACTOR,0.0370678
SPEC HOLDER DIFF,735.14
SPECIMEN MASS,82.7
SCAN TIME,0.25
O2 DELAY TIME,11
CO DELAY TIME,11
CO2 DELAY TIME,8
FLOW FACTOR,1
SCAN COUNT,4097
TIME TO IGN,110
END OF TEST SCAN,3617
END OF TEST TIME,904.25
TEST STATUS,1
PRE TEST CMT,Dimensions: 99.61 x 99.77 x 5.94 mm; with frame; primary interest on time to ignition
POST TEST CMT,After ignition the sample expanded vertically several centimeters above starting surface height. See test picture.

File: EPDM_Membrane_Cone_HF25Scalar_220225_R3.csv
LABORATORY,FSRI
TEST IDENT,EPDM_HF25_3
OPERATOR,Dow
MATERIAL,EPDM Roofing Membrane
ORIENTATION,Horizontal
HEAT FLUX,25
SURF AREA,0.00884
C FACTOR,0.0370678
SPEC HOLDER DIFF,379.46
SPECIMEN MASS,81
SCAN TIME,0.25
O2 DELAY TIME,11
CO DELAY TIME,11
CO2 DELAY TIME,8
FLOW FACTOR,1
SCAN COUNT,5178
TIME TO IGN,156.75
END OF TEST SCAN,4698
END OF TEST TIME,1174.5
TEST STATUS,1
PRE TEST CMT,Dimensions: 100.10 x 99.83 x 5.94 mm; with frame and grid