Folder: fsri_materials_database/01_Data/EPDM_Membrane/Cone (part 3)

File: EPDM_Membrane_Cone_HF25Scan_220311_R5.csv
Names,Time,Stack TC,Smoke TC,Exh Press,Smoke Comp,Smoke Meas,CO Meter,CO2 Meter,O2 Meter,Sample Mass,Ext Coeff,Start Test,Flame Verif
Chan Gain,,500,500,1,1,1,1,1,1,1,1,1.0,1.0
Offset,,0,0,0.136191,0,0,0,0,0,0,0,0.0,0.0
Gain,,1,1,25.011,13.291,13.2919,1,1,1,1.00093,1.00758,1.0,1.0
Units,sec,C,C,Pa,%,%,%,%,%,g,/m,,
Baseline,,18.7713,19.3395,177.007,100.444,98.6897,0.000306579,0.0426668,21.0846,-0.839028,0.155754,,
56,13.75,17.773,18.6591,176.979,99.7871,98.4221,0.000573478,0.0429174,21.0843,1055.19,0.121736,0.0,0.0
112,27.75,17.6917,18.4578,177.02,100.129,98.818,0.000538677,0.0426762,21.0833,1055.21,0.116525,0.0,0.0
168,41.75,18.1209,18.0555,180.042,100.196,99.0825,0.000182632,0.042533,21.0835,1055.27,0.0988073,0.0,0.0
224,55.75,17.8466,18.5503,171.957,99.4683,97.6729,0.000208457,0.0421096,21.0842,1055.21,0.160991,0.0,0.0
280,69.75,17.7303,18.4842,176.059,99.7007,97.8781,4.08797e-05,0.041838,21.0844,1055.13,0.163064,0.0,0.0
336,83.75,18.0942,18.5167,179.3,99.755,98.2197,0.000504671,0.0422059,21.0831,1055.09,0.137093,0.0,0.0
392,97.75,17.5585,18.6894,176.25,99.0582,96.9184,0.000456776,0.0420241,21.0843,1055.1,0.193016,0.0,0.0
448,111.75,18.343,19.092,178.349,98.4689,96.1919,0.000481855,0.0421213,21.0843,1055.11,0.206776,0.0,0.0
504,125.75,18.0661,18.3639,178.484,98.7552,96.2418,0.000367517,0.0424272,21.0835,1055.04,0.227859,0.0,0.0
560,139.75,17.8489,19.1345,175.531,99.7157,96.8543,0.000447808,0.0438913,21.0814,1054.97,0.257333,0.0,0.0
616,153.75,18.8251,19.7103,169.318,100.451,77.1716,0.00376176,0.0920718,20.9758,1054.7,2.33015,0.0,1.0
672,167.75,27.4875,27.8671,151.334,100.334,56.2683,0.0149081,0.374433,20.5211,1053.74,5.11192,0.0,0.0
728,181.75,35.7844,37.574,153.238,99.7834,60.0123,0.0183088,0.449076,20.3959,1052.61,4.4939,0.0,0.0
784,195.75,43.2783,45.6883,155.647,100.299,54.0653,0.0185647,0.453496,20.3933,1051.25,5.46177,0.0,0.0
840,209.75,47.1065,50.0035,148.095,99.6634,54.8636,0.0182562,0.436729,20.4134,1050.01,5.27607,0.0,0.0
896,223.75,50.1321,53.9785,151.848,99.6784,58.4871,0.0174502,0.433695,20.4319,1048.77,4.71212,0.0,0.0
952,237.75,51.9799,56.6227,154.052,99.7944,59.6586,0.0163031,0.42265,20.4523,1047.69,4.54712,0.0,0.0
1008,251.75,52.7772,57.6026,157.362,99.446,60.6553,0.016078,0.406194,20.4748,1046.49,4.36978,0.0,0.0
1064,265.75,53.6828,58.7466,160.573,98.7621,60.3291,0.0160954,0.414521,20.4587,1045.38,4.35644,0.0,0.0
1120,279.75,55.0946,60.1447,150.198,98.4291,58.0726,0.01658,0.407539,20.4682,1044.2,4.66352,0.0,0.0
1176,293.75,55.9454,61.217,148.2,98.5419,61.4856,0.0163608,0.411571,20.4685,1043.1,4.16888,0.0,0.0
1232,307.75,56.929,62.1985,151.992,98.9519,64.4443,0.015025,0.402346,20.4843,1042.02,3.79019,0.0,0.0
1288,321.75,56.4773,62.0357,156.576,99.4667,64.9149,0.0132455,0.364307,20.5514,1040.93,3.77175,0.0,0.0
1344,335.75,54.4993,59.814,156.442,99.9282,70.4542,0.0118409,0.328206,20.6121,1040.08,3.08892,0.0,0.0
1400,349.75,53.1662,58.0605,160.309,100.28,70.3305,0.0107333,0.302125,20.6545,1039.3,3.13554,0.0,0.0
1456,363.75,51.5986,56.4734,157.465,100.425,71.4095,0.00980536,0.285329,20.6876,1038.52,3.01369,0.0,0.0
1512,377.75,49.7688,54.4084,161.895,100.467,74.2161,0.00962127,0.28009,20.6928,1037.83,2.67672,0.0,0.0
1568,391.75,48.4589,52.6837,160.737,100.451,74.9621,0.00865908,0.268595,20.7122,1037.1,2.58686,0.0,0.0
1624,405.75,47.7691,51.7148,159.687,100.393,74.7378,0.00855072,0.259765,20.7277,1036.42,2.60828,0.0,0.0
1680,419.75,47.0207,50.4867,163.906,100.291,76.0147,0.00852192,0.257809,20.7305,1035.81,2.44958,0.0,0.0
1736,433.75,45.852,49.6579,162.57,100.048,74.0928,0.00805558,0.250286,20.7415,1035.13,2.65444,0.0,0.0
1792,447.75,45.8303,48.9398,161.083,99.6354,72.0366,0.00824563,0.246143,20.7493,1034.45,2.86667,0.0,0.0
1848,461.75,44.5525,48.3028,162.793,99.2497,72.7428,0.0083454,0.245505,20.7504,1033.84,2.74616,0.0,0.0
1904,475.75,45.3001,48.0423,163.03,98.9248,73.9464,0.0079058,0.24594,20.7501,1033.25,2.57215,0.0,0.0
1960,489.75,44.1533,46.7061,156.988,98.621,73.5168,0.0081785,0.242462,20.7566,1032.56,2.59646,0.0,0.0
2016,503.75,43.7904,46.8483,163.929,98.4636,72.5189,0.00830511,0.238225,20.7625,1031.94,2.70313,0.0,0.0
2072,517.75,44.0362,47.1142,157.907,98.5844,73.8166,0.00796624,0.240931,20.759,1031.36,2.55722,0.0,0.0
2128,531.75,43.3278,46.5659,163.063,99.0756,74.9304,0.00785091,0.236853,20.765,1030.81,2.46877,0.0,0.0
2184,545.75,44.0846,46.4189,160.646,99.7315,76.8503,0.00751019,0.231977,20.7738,1030.22,2.30348,0.0,0.0
2240,559.75,43.3789,46.0702,164.443,99.8264,75.8476,0.00728577,0.224542,20.7828,1029.5,2.42797,0.0,0.0
2296,573.75,43.0218,45.0614,163.767,99.5985,75.9527,0.00682217,0.221638,20.7905,1029.11,2.39553,0.0,0.0
2352,587.75,42.5731,44.9056,166.954,100.247,79.3827,0.00682729,0.220206,20.7938,1028.52,2.0625,0.0,0.0
2408,601.75,41.596,43.822,164.37,100.115,78.4356,0.00655661,0.213292,20.8054,1027.77,2.15693,0.0,0.0
2464,615.75,41.5388,43.8851,160.975,99.9793,77.763,0.00647386,0.20999,20.8108,1027.59,2.22107,0.0,0.0
2520,629.75,41.7308,43.5675,163.553,100.448,81.7857,0.00593663,0.203096,20.8254,1026.95,1.81661,0.0,0.0
2576,643.75,40.264,42.0792,166.99,100.406,81.4774,0.00552906,0.197162,20.8346,1026.54,1.84635,0.0,0.0
2632,657.75,40.6501,42.0231,166.881,99.478,81.417,0.00490465,0.193171,20.8387,1026.15,1.7708,0.0,0.0
2688,671.75,39.7204,41.3653,164.715,98.5767,82.0571,0.00466831,0.187122,20.8512,1025.72,1.62114,0.0,0.0
2744,685.75,39.4165,41.047,169.671,98.6392,83.8796,0.00412055,0.18133,20.8617,1025.34,1.43259,0.0,0.0
2800,699.75,38.3273,40.0948,166.005,99.3794,83.8824,0.00393704,0.176342,20.8696,1024.93,1.49837,0.0,0.0
2856,713.75,37.6223,39.2309,166.907,99.8483,85.5995,0.00356554,0.171941,20.8768,1024.63,1.36088,0.0,0.0
2912,727.75,37.5141,38.9937,171.958,99.5316,86.6708,0.00326478,0.168703,20.8852,1024.18,1.22286,0.0,0.0
2968,741.75,36.7067,37.9498,165.884,100.266,87.3243,0.00281026,0.163842,20.8944,1023.97,1.22146,0.0,0.0
3024,755.75,36.1902,37.4507,168.654,100.328,90.268,0.00273574,0.159345,20.9018,1023.52,0.933899,0.0,0.0
3080,769.75,35.4762,36.8884,163.594,100.318,90.7657,0.00281452,0.156326,20.9069,1023.13,0.884407,0.0,0.0
3136,783.75,35.2378,36.2753,161.289,99.1377,90.2988,0.0029065,0.151159,20.9149,1022.76,0.82538,0.0,0.0
3192,797.75,34.3714,35.6639,172.997,98.4989,89.8944,0.00221227,0.147791,20.9227,1022.68,0.807915,0.0,0.0
3248,811.75,34.1831,35.3144,166.808,98.6777,91.3814,0.00274863,0.143469,20.9272,1022.4,0.678939,0.0,0.0
3304,825.75,33.3926,34.4813,166.457,99.0537,92.3392,0.00252709,0.141293,20.9283,1022.24,0.620406,0.0,0.0
3360,839.75,33.3287,34.5417,168.922,99.3174,92.9529,0.00327552,0.136413,20.9387,1022.09,0.585349,0.0,0.0
3416,853.75,32.0222,33.7978,165.896,99.4529,92.7537,0.00367558,0.134595,20.9424,1021.89,0.616355,0.0,0.0
3472,867.75,32.5551,33.6985,167.309,99.4886,94.0765,0.00386256,0.13312,20.9473,1021.66,0.49437,0.0,0.0
3528,881.75,31.8715,33.1295,171.281,99.4711,94.1171,0.00395334,0.128152,20.9513,1021.36,0.489011,0.0,0.0
3584,895.75,32.0916,32.7064,176.224,99.4334,95.1965,0.00424437,0.124223,20.9584,1021.17,0.384871,0.0,0.0
3640,909.75,31.509,32.4871,172.694,99.2752,94.6476,0.00509562,0.120757,20.9649,1020.84,0.421901,0.0,0.0
3696,923.75,30.2013,31.0559,178.052,99.0039,95.6094,0.00489148,0.117906,20.9668,1020.87,0.30835,0.0,0.0
3752,937.75,30.1944,31.0536,168.55,98.6591,95.4662,0.00565516,0.115859,20.9692,1020.69,0.290766,0.0,0.0
3808,951.75,29.2253,30.0218,171.87,98.4461,94.0363,0.00555253,0.112918,20.9741,1020.42,0.405048,0.0,0.0
3864,965.75,29.4325,30.2607,166.342,98.6015,95.3689,0.00586977,0.108944,20.9803,1020.21,0.294622,0.0,0.0
3920,979.75,27.9932,29.0058,174.56,99.1888,95.51,0.00665302,0.107273,20.9843,1020.03,0.334038,0.0,0.0
3976,993.75,27.9047,28.8184,174.871,99.9437,96.071,0.00664708,0.103309,20.9907,1019.87,0.349285,0.0,0.0
4032,1007.75,27.8826,28.6504,168.624,100.45,96.9419,0.00731329,0.10077,20.9949,1019.73,0.314211,0.0,0.0
4088,1021.75,27.249,28.0368,163.308,100.366,97.2969,0.00785168,0.0976718,20.9965,1019.61,0.274483,0.0,0.0
4144,1035.75,27.2181,28,170.25,99.9035,96.5501,0.00831722,0.0955606,21.0012,1019.4,0.301769,0.0,0.0
4200,1049.75,26.2664,27.0158,173.119,100.045,96.6945,0.00859902,0.0925681,21.0071,1019.27,0.301074,0.0,0.0
4256,1063.75,25.9679,26.7461,168.84,100.144,97.4275,0.00848107,0.0903074,21.0082,1019.19,0.243103,0.0,0.0
4312,1077.75,25.1802,25.8504,172.383,99.4606,96.5286,0.00934986,0.0878233,21.011,1019.03,0.264465,0.0,0.0
4368,1091.75,25.2667,25.8659,177.165,99.7015,96.6413,0.00935263,0.0853774,21.0166,1018.82,0.27553,0.0,0.0
4424,1105.75,25.0861,25.8921,171.825,99.7437,97.0186,0.00963418,0.0851331,21.0174,1018.71,0.244834,0.0,0.0
4480,1119.75,24.4664,25.3649,173.724,99.1827,96.5217,0.00955936,0.0857131,21.0172,1018.65,0.240371,0.0,0.0
4536,1133.75,23.7989,24.4019,173.85,98.5325,96.6312,0.010117,0.0821847,21.0196,1018.42,0.172216,0.0,0.0
4592,1147.75,24.6372,25.2488,174.333,98.6396,95.9688,0.00945964,0.0807035,21.0224,1018.38,0.242613,0.0,0.0
4648,1161.75,24.0911,24.7015,176.163,99.637,97.782,0.00966729,0.0791625,21.0229,1018.18,0.166102,0.0,0.0
4704,1175.75,22.7854,23.7201,171.613,100.387,97.814,0.00994888,0.0798702,21.022,1018.15,0.229449,0.0,0.0
4760,1189.75,23.7183,24.1702,172.842,100.469,98.5515,0.00971347,0.0790769,21.0231,1018.03,0.170346,0.0,0.0
4816,1203.75,23.5219,24.0797,174.886,100.193,97.6952,0.0096553,0.0818717,21.0203,1017.89,0.223108,0.0,0.0
4872,1217.75,23.0475,23.368,181.255,99.9534,98.0842,0.00932907,0.0794042,21.0261,1017.66,0.16685,0.0,0.0
4928,1231.75,22.9221,23.3622,175.216,99.7944,98.0724,0.00981767,0.0778035,21.0261,1017.64,0.153839,0.0,0.0
4984,1245.75,22.6557,23.0474,174.974,99.8998,97.9215,0.00967163,0.077606,21.0261,1017.51,0.176783,0.0,0.0
5040,1259.75,23.0748,23.3863,177.506,100.035,97.5013,0.00930409,0.0779397,21.0276,1017.38,0.226702,0.0,0.0
5096,1273.75,22.0959,23.1593,175.957,99.9761,98.964,0.00922609,0.0774175,21.0296,1017.26,0.0899299,0.0,0.0
5152,1287.75,22.4144,23.3324,174.828,99.8183,97.3496,0.00932679,0.0778073,21.0301,1017.17,0.221343,0.0,0.0
5208,1301.75,21.9289,22.9744,171.886,99.781,97.4538,0.00960034,0.077163,21.0295,1017.1,0.208578,0.0,0.0
5264,1315.75,22.1981,22.4205,178.034,99.837,97.5021,0.00906883,0.0773551,21.0287,1016.9,0.209158,0.0,0.0
5320,1329.75,22.3444,22.7665,170.491,99.966,98.0027,0.00904396,0.0773067,21.0322,1016.85,0.175311,0.0,0.0
5364,1340.75,22.371,22.607,173.641,100.071,97.5094,,,,1016.57,0.229191,0.0,0.0

File: EPDM_Membrane_Cone_HF50-Frame+GridScalar_220225_R1.csv
LABORATORY,FSRI
TEST IDENT,EPDM_HF50_1
OPERATOR,Dow
MATERIAL,EPDM Roofing Membrane
ORIENTATION,Horizontal
HEAT FLUX,50
SURF AREA,0.00884
C FACTOR,0.0370678
SPEC HOLDER DIFF,380.9
SPECIMEN MASS,82.7
SCAN TIME,0.25
O2 DELAY TIME,11
CO DELAY TIME,11
CO2 DELAY TIME,8
FLOW FACTOR,1
SCAN COUNT,3796
TIME TO IGN,35.5
END OF TEST SCAN,3316
END OF TEST TIME,829
TEST STATUS,1
PRE TEST CMT,Dimensions: 100.44 x 99.57 x 6.06 mm; with frame and grid

File: EPDM_Membrane_Cone_HF50-Frame+GridScan_220225_R3.csv
Names,Time,Stack TC,Smoke TC,Exh Press,Smoke Comp,Smoke Meas,CO Meter,CO2 Meter,O2 Meter,Sample Mass,Ext Coeff,Start Test,Flame Verif
Chan Gain,,500,500,1,1,1,1,1,1,1,1,1.0,1.0
Offset,,0,0,0.137915,0,0,0,0,0,0,0,0.0,0.0
Gain,,1,1,25.011,15.3125,15.3273,1,1,1,1.00096,1.02035,1.0,1.0
Units,sec,C,C,Pa,%,%,%,%,%,g,/m,,
Baseline,,32.1177,32.9673,175.844,115.493,111.267,-0.000186624,0.0431645,21.0584,-867.584,0.333716,,
47,11.5,29.3597,30.7914,179.404,116.041,112.957,-0.00033762,0.0449219,21.0558,156.68,0.241135,0.0,0.0
94,23.25,30.0749,31.1906,174.078,116.03,110.207,-0.000468508,0.0422592,21.0606,156.65,0.460864,0.0,0.0
141,35,30.6972,31.5106,173.984,115.973,107.767,0.000708024,0.051081,21.0478,156.46,0.65684,0.0,0.0
188,46.75,34.918,35.7787,159.238,115.833,74.9793,0.0115559,0.318756,20.5858,155.839,3.89286,0.0,0.0
235,58.5,44.8031,47.4933,144.346,115.398,59.4368,0.0206601,0.541679,20.2174,154.608,5.93836,0.0,0.0
282,70.25,55.1006,59.7666,146.841,115.748,55.866,0.0243678,0.610317,20.0845,153.227,6.52001,0.0,0.0
329,82,62.7338,68.4295,145.25,116.225,57.0288,0.0236888,0.593213,20.11,151.936,6.37248,0.0,0.0
376,93.75,67.3488,73.3237,147.17,116.149,59.6038,0.0226422,0.558672,20.1734,150.644,5.97134,0.0,0.0
423,105.5,69.9562,77.6155,149.297,115.056,60.921,0.0204207,0.53361,20.2183,149.373,5.69107,0.0,0.0
470,117.25,72.1895,80.03125,153.943,114.012,62.299,0.0203117,0.513685,20.2485,148.242,5.40929,0.0,0.0
517,129,73.797,82.0111,148.185,114.586,61.1408,0.0203231,0.521339,20.2422,146.971,5.62222,0.0,0.0
564,140.75,75.7203,83.6415,143.36,115.546,60.1464,0.0205812,0.521092,20.2358,145.85,5.84365,0.0,0.0
611,152.5,76.9761,85.2191,149.445,115.07,58.3806,0.021498,0.534898,20.2086,144.549,6.07339,0.0,0.0
658,164.25,78.6578,87.8352,141.037,115.8,57.7524,0.0233384,0.575848,20.137,143.307,6.22678,0.0,0.0
705,176,82.112,91.6762,139.729,116.216,50.1805,0.0276392,0.675716,19.9733,141.726,7.51684,0.0,0.0
752,187.75,85.9706,95.6695,141.317,115.781,52.1511,0.0278967,0.657474,19.9955,140.134,7.1385,0.0,0.0
799,199.5,86.5884,96.5071,153.588,114.149,57.6322,0.0231266,0.556011,20.1639,138.853,6.11694,0.0,0.0
846,211.25,84.193,94.4146,151.979,114.692,60.0627,0.0182924,0.471529,20.3154,137.732,5.78967,0.0,0.0
893,223,82.5005,91.8416,151.963,115.616,64.1733,0.0168634,0.435658,20.3786,136.631,5.26904,0.0,0.0
940,234.75,80.1715,88.7289,153.52,115.086,63.4815,0.0165504,0.426153,20.3891,135.64,5.32494,0.0,0.0
987,246.5,79.5566,87.7347,146.498,115.956,66.3497,0.0165633,0.414513,20.4103,134.579,4.99675,0.0,0.0
1034,258.25,78.2044,85.9131,154.37,116.223,67.0369,0.0158711,0.402191,20.4316,133.738,4.92514,0.0,0.0
1081,270,76.8881,84.7285,152.862,116.059,65.6102,0.0147789,0.390333,20.4524,132.707,5.10507,0.0,0.0
1128,281.75,76.1343,83.1311,146.446,114.419,63.611,0.0144237,0.376082,20.4746,131.876,5.25464,0.0,0.0
1175,293.5,74.9234,81.7619,158.278,114.613,66.6627,0.013778,0.368893,20.491,131.016,4.8504,0.0,0.0
1222,305.25,73.9857,80.8527,158.878,115.618,68.1941,0.0133914,0.357472,20.5071,130.125,4.72523,0.0,0.0
1269,317,73.0939,79.3547,153.574,115.607,69.4823,0.0125304,0.348955,20.5255,129.304,4.55693,0.0,0.0
1316,328.75,72.5651,77.969,155.032,115.186,66.0106,0.0120948,0.338577,20.5407,128.533,4.98304,0.0,0.0
1363,340.5,71.7017,76.6948,156.287,116.115,72.2168,0.0117225,0.330208,20.5548,127.712,4.25065,0.0,0.0
1410,352.25,70.4606,76.0197,158.012,116.021,67.5163,0.0115523,0.320255,20.5695,126.942,4.84579,0.0,0.0
1457,364,69.8223,74.556,155.206,115.783,71.6943,0.0111404,0.308444,20.5898,126.241,4.29003,0.0,0.0
1504,375.75,68.4784,73.557,159.337,116.236,76.1753,0.0101567,0.293569,20.6179,125.51,3.78232,0.0,0.0
1551,387.5,67.4435,71.9403,158.509,116.532,76.3035,0.00905544,0.278762,20.6432,124.94,3.79002,0.0,0.0
1598,399.25,66.4863,70.4116,166.737,116.539,80.2364,0.00835713,0.266192,20.6646,124.279,3.34073,0.0,0.0
1645,411,65.6197,69.2274,160.056,116.266,80.9146,0.00715669,0.256757,20.6858,123.638,3.24444,0.0,0.0
1692,422.75,64.0061,68.0579,160.607,115.787,82.3338,0.00656672,0.246447,20.7049,123.168,3.05184,0.0,0.0
1739,434.5,62.9589,66.969,161.293,115.335,83.2417,0.00637909,0.240319,20.7148,122.668,2.91868,0.0,0.0
1786,446.25,61.9112,65.162,162.36,114.938,83.5981,0.00548046,0.232304,20.7304,122.107,2.8496,0.0,0.0
1833,458,61.1234,64.5262,160.674,114.624,83.2323,0.00540713,0.228488,20.7383,121.657,2.86436,0.0,0.0
1880,469.75,60.4484,63.4349,162.155,114.438,85.949,0.00497467,0.224043,20.749,121.256,2.56235,0.0,0.0
1927,481.5,59.8305,62.3901,165.532,114.365,86.907,0.00452993,0.219867,20.7571,120.756,2.45744,0.0,0.0
1974,493.25,59.0556,61.9509,159.969,114.426,88.2883,0.00460945,0.216556,20.7622,120.405,2.32102,0.0,0.0
2021,505,58.6643,60.9063,162.73,114.564,87.6152,0.00401659,0.212257,20.7691,119.975,2.40029,0.0,0.0
2068,516.75,57.6874,60.274,161.612,114.687,88.8664,0.00349081,0.210425,20.7747,119.555,2.28301,0.0,0.0
2115,528.5,57.2038,59.7232,158.941,114.825,90.6284,0.00391269,0.206361,20.7821,119.174,2.11803,0.0,0.0
2162,540.25,57.3745,58.7354,163.417,114.889,90.9516,0.00361938,0.204682,20.7859,118.764,2.09115,0.0,0.0
2209,552,57.0062,59.1276,163.367,114.944,92.8774,0.00361841,0.199922,20.7947,118.464,1.90791,0.0,0.0
2256,563.75,56.5803,58.0078,165.244,114.923,93.1898,0.00279042,0.195164,20.8029,118.043,1.87622,0.0,0.0
2303,575.5,55.4121,57.8836,164.744,114.884,93.5093,0.00291093,0.192066,20.8114,117.723,1.84256,0.0,0.0
2350,587.25,55.4902,56.961,167.043,114.754,94.8499,0.00234472,0.188215,20.8167,117.463,1.70499,0.0,0.0
2397,599,54.8836,56.8716,164.181,114.622,95.1577,0.00217907,0.183659,20.8219,117.182,1.66575,0.0,0.0
2444,610.75,54.5675,56.497,163.429,114.53,96.8084,0.00211459,0.178127,20.8325,116.812,1.50463,0.0,0.0
2491,622.5,53.6295,55.6009,165.21,114.463,97.6026,0.00149798,0.17385,20.8424,116.572,1.42623,0.0,0.0
2538,634.25,53.4586,55.2477,167.316,114.378,98.2023,0.00148216,0.170281,20.8495,116.331,1.36472,0.0,0.0
2585,646,52.4182,53.9809,167.574,114.388,99.2079,0.00127659,0.165996,20.8587,116.001,1.27433,0.0,0.0
2632,657.75,52.5806,53.9373,164.647,114.54,98.8216,0.0016503,0.162045,20.866,115.841,1.32113,0.0,0.0
2679,669.5,51.8316,53.1017,170.283,114.776,101.007,0.00115358,0.156956,20.8744,115.641,1.14374,0.0,0.0
2726,681.25,51.2348,52.4553,162.929,115.062,102.509,0.00134825,0.154941,20.8796,115.331,1.03395,0.0,0.0
2773,693,50.6047,51.8802,168.672,115.306,102.536,0.00123287,0.151475,20.8846,115.2,1.05053,0.0,0.0
2820,704.75,49.898,52.0359,163.631,115.511,104.121,0.00165484,0.148315,20.8904,114.97,0.929202,0.0,0.0
2867,716.5,50.1483,51.5439,168.742,115.71,104.337,0.00109388,0.14511,20.8971,114.76,0.926016,0.0,0.0
2914,728.25,49.5086,51.2369,167.751,115.91,104.659,0.00131687,0.143429,20.9012,114.56,0.913874,0.0,0.0
2961,740,48.7745,50.3957,177.832,116.046,105.842,0.00140127,0.140662,20.9036,114.45,0.823771,0.0,0.0
3008,751.75,48.8018,49.8779,168.352,116.215,106.589,0.0016204,0.138044,20.9086,114.219,0.7739,0.0,0.0
3055,763.5,47.8863,49.69,169.185,116.334,106.964,0.00161223,0.135845,20.9136,114.009,0.751587,0.0,0.0
3102,775.25,47.5504,48.926,169.763,116.458,107.318,0.00148594,0.133787,20.9154,113.909,0.73153,0.0,0.0
3149,787,47.5136,49.0638,165.119,116.553,107.625,0.00181097,0.1302,20.923,113.689,0.713299,0.0,0.0
3196,798.75,46.7572,48.4441,171.002,116.607,107.056,0.00191524,0.127422,20.9281,113.539,0.764856,0.0,0.0
3243,810.5,46.8496,47.7939,167.319,116.615,108.197,0.00167198,0.124982,20.9332,113.449,0.670586,0.0,0.0
3290,822.25,45.7105,47.0062,171.64,116.616,107.588,0.00269415,0.124551,20.9342,113.229,0.721219,0.0,0.0
3337,834,45.6864,47.0475,167.255,116.581,108.594,0.00262223,0.122037,20.9399,113.088,0.635212,0.0,0.0
3384,845.75,45.5746,46.2828,171.603,116.44,108.338,0.00276383,0.118928,20.9442,112.978,0.645525,0.0,0.0
3431,857.5,45.2022,46.038,165.558,116.174,107.721,0.00313917,0.118742,20.9449,112.838,0.676181,0.0,0.0
3478,869.25,44.7648,45.3504,167.574,115.865,107.609,0.00398503,0.116768,20.9488,112.668,0.661606,0.0,0.0
3525,881,43.9452,44.9641,174.62,115.688,107.295,0.00433303,0.114371,20.9502,112.598,0.674097,0.0,0.0
3572,892.75,43.72,45.1055,172.511,116.091,108.628,0.00495486,0.112588,20.9528,112.498,0.594762,0.0,0.0
3619,904.5,42.9394,44.4887,169.023,116.264,108.081,0.0052418,0.111632,20.9567,112.308,0.653175,0.0,0.0
3666,916.25,42.8669,44.1212,172.395,116.128,108.42,0.00547247,0.1085,20.9622,112.268,0.614772,0.0,0.0
3713,928,42.4829,43.6736,171.238,115.806,107.904,0.00567395,0.106352,20.9677,112.057,0.63258,0.0,0.0
3760,939.75,42.2512,43.9052,167.309,115.407,108.989,0.00570267,0.10382,20.9691,111.997,0.512081,0.0,0.0
3807,951.5,42.4465,43.3271,164.574,115.27,107.771,0.00616234,0.103223,20.9712,111.857,0.602083,0.0,0.0
3854,963.25,41.5523,42.7394,170.585,115.372,107.708,0.00603305,0.101565,20.97,111.747,0.615235,0.0,0.0
3901,975,41.5864,42.53,168.123,115.501,107.821,0.00674711,0.100315,20.9704,111.677,0.615873,0.0,0.0
3948,986.75,41.0277,42.5647,174.573,115.649,108.212,0.00641623,0.0986155,20.9757,111.507,0.594906,0.0,0.0
3995,998.5,40.3506,41.4212,169.763,115.802,109.064,0.00647786,0.0967692,20.9758,111.447,0.536507,0.0,0.0
4042,1010.25,40.4797,41.21,169.228,115.855,108.309,0.00768208,0.0956473,20.9791,111.337,0.602872,0.0,0.0
4089,1022,39.7382,41.352,175.89,115.802,108.345,0.00974123,0.0894297,20.9867,111.187,0.59578,0.0,0.0
4136,1033.75,39.0326,40.1713,176.005,115.665,108.562,0.00952865,0.0885352,20.9879,111.116,0.567277,0.0,0.0
4183,1045.5,39.2511,39.6218,175.425,115.378,109.268,0.00920193,0.0889728,20.9884,110.996,0.487004,0.0,0.0
4230,1057.25,39.0469,40.1143,171.447,114.907,108.147,0.00913282,0.0886091,20.9881,110.886,0.542741,0.0,0.0
4277,1069,39.0172,39.5338,173.578,114.474,107.65,0.00915121,0.0884248,20.9884,110.826,0.550143,0.0,0.0
4324,1080.75,38.4038,39.3734,171.502,114.341,108.11,0.00899305,0.0887267,20.989,110.706,0.501576,0.0,0.0
4371,1092.5,38.3903,39.4301,171.944,114.558,107.468,0.00872348,0.0882822,20.9906,110.576,0.571861,0.0,0.0
4418,1104.25,38.8618,39.764,174.558,114.978,107.975,0.00848591,0.0883114,20.9893,110.546,0.562458,0.0,0.0
4465,1116,38.4008,39.2111,170.974,115.489,108.189,0.00870425,0.0885943,20.99,110.416,0.584422,0.0,0.0
4512,1127.75,38.3835,39.4784,172.714,115.978,109.158,,0.0878035,,110.386,0.542476,0.0,0.0
4546,1136.25,37.7968,38.7966,167.91,116.272,109.127,,,,110.296,0.567701,0.0,0.0

File: EPDM_Membrane_Cone_HF50Scalar_220225_R2.csv
LABORATORY,FSRI
TEST IDENT,EPDM_HF50_2
OPERATOR,Dow
MATERIAL,EPDM Roofing Membrane
ORIENTATION,Horizontal
HEAT FLUX,50
SURF AREA,0.00884
C FACTOR,0.0370678
SPEC HOLDER DIFF,379.57
SPECIMEN MASS,82.4
SCAN TIME,0.25
O2 DELAY TIME,11
CO DELAY TIME,11
CO2 DELAY TIME,8
FLOW FACTOR,1
SCAN COUNT,3596
TIME TO IGN,34.75
END OF TEST SCAN,3116
END OF TEST TIME,779
TEST STATUS,1
PRE TEST CMT,Dimensions: 99.50 x 100.27 x 6.05 mm; with frame and grid

File: EPDM_Membrane_Cone_HF50Scalar_220225_R3.csv
LABORATORY,FSRI
TEST IDENT,EPDM_HF50_3
OPERATOR,Dow
MATERIAL,EPDM Roofing Membrane
ORIENTATION,Horizontal
HEAT FLUX,50
SURF AREA,0.00884
C FACTOR,0.0370678
SPEC HOLDER DIFF,373.44
SPECIMEN MASS,83.6
SCAN TIME,0.25
O2 DELAY TIME,11
CO DELAY TIME,11
CO2 DELAY TIME,8
FLOW FACTOR,1
SCAN COUNT,4546
TIME TO IGN,35.5
END OF TEST SCAN,4066
END OF TEST TIME,1016.5
TEST STATUS,1
PRE TEST CMT,Dimensions: 100.26 x 99.94 x 6.02 mm; with frame and grid

File: EPDM_Membrane_Cone_HF50Scalar_220311_R4.csv
LABORATORY,FSRI
TEST IDENT,EPDM_HF50_4
OPERATOR,Dow
MATERIAL,EPDM Membrane
ORIENTATION,Horizontal
HEAT FLUX,50
SURF AREA,0.00884
C FACTOR,0.0391476
SPEC HOLDER DIFF,-566
SPECIMEN MASS,80.9
SCAN TIME,0.25
O2 DELAY TIME,11
CO DELAY TIME,11
CO2 DELAY TIME,8
FLOW FACTOR,1
SCAN COUNT,3001
TIME TO IGN,20.25
END OF TEST SCAN,2521
END OF TEST TIME,630.25
TEST STATUS,1
PRE TEST CMT,Thickness: 6.04 mm; with frame; primary interest on time to ignition
POST TEST CMT,After ignition the sample expanded vertically more than two centimeters.