Folder: fsri_materials_database/01_Data/EPDM_Membrane/Cone (part 7)

File: EPDM_Membrane_Cone_HF75Scan_220311_R4.csv
Names,Time,Stack TC,Smoke TC,Exh Press,Smoke Comp,Smoke Meas,CO Meter,CO2 Meter,O2 Meter,Sample Mass,Ext Coeff,Start Test,Flame Verif
Chan Gain,,500,500,1,1,1,1,1,1,1,1,1.0,1.0
Offset,,0,0,0.135167,0,0,0,0,0,0,0,0.0,0.0
Gain,,1,1,25.011,13.0486,13.2841,1,1,1,1.00089,1.0079,1.0,1.0
Units,sec,C,C,Pa,%,%,%,%,%,g,/m,,
Baseline,,42.0158,43.6975,149.578,98.781,93.8487,0.000528316,0.0590208,21.0005,-493.011,0.452927,,
31,7.5,39.8589,41.9137,143.164,99.0043,91.1761,0.0019413,0.073102,20.9845,511.115,0.728264,0.0,0.0
62,15.25,46.1121,47.0618,112.018,98.9689,37.1829,0.0260759,0.511726,20.1231,510.205,8.65522,0.0,0.0
93,23,61.2494,63.6573,114.863,98.9478,34.0508,0.0456353,0.950998,19.4158,508.643,9.43133,0.0,0.0
124,30.75,74.0376,78.0395,113.151,98.9044,35.0002,0.0460239,0.990713,19.3747,507.302,9.1843,0.0,0.0
155,38.5,82.7289,88.4931,116.42,98.8566,42.1803,0.0399292,0.896175,19.5676,505.961,7.53027,0.0,0.0
186,46.25,87.6083,94.1615,125.043,98.7993,42.0797,0.0330231,0.786963,19.7693,504.94,7.54624,0.0,0.0
217,54,89.871,98.1667,119.076,98.7344,44.9755,0.0295608,0.724798,19.8683,503.829,6.95202,0.0,0.0
248,61.75,91.828,100.37,125.082,98.6766,49.0627,0.0274196,0.665129,19.9702,502.848,6.17782,0.0,0.0
279,69.5,92.9741,102.166,123.728,98.6133,49.5362,0.0255046,0.624984,20.0354,501.967,6.08723,0.0,0.0
310,77.25,93.8447,102.334,126.748,98.5687,48.0533,0.0245797,0.595668,20.0835,501.036,6.35195,0.0,0.0
341,85,93.2764,102.847,129.461,98.5165,49.4462,0.0237062,0.573468,20.1229,500.136,6.09462,0.0,0.0
372,92.75,93.6894,102.558,125.314,98.509,50.2878,0.0227568,0.558384,20.1434,499.325,5.94473,0.0,0.0
403,100.5,93.5911,102.283,127.595,98.6336,51.9399,0.0231446,0.553609,20.1482,498.494,5.67013,0.0,0.0
434,108.25,93.8191,103.109,124.806,98.7403,50.6483,0.0236905,0.579854,20.105,497.623,5.90233,0.0,0.0
465,116,94.7598,104.032,124.837,98.8104,47.8871,0.0251836,0.605281,20.0539,496.673,6.40424,0.0,0.0
496,123.75,96.35,105.798,126.01,98.8682,46.5817,0.0286016,0.66219,19.9567,495.682,6.65376,0.0,0.0
527,131.5,100.781,110.167,106.391,98.9366,36.8067,0.0399628,0.848582,19.5996,494.381,8.74225,0.0,0.0
558,139.25,108.951,119.942,103.78,98.9685,29.7556,0.05572,1.1554,19.0764,492.679,10.6253,0.0,0.0
589,147,115.891,128.542,113.056,99.0035,31.9654,0.0529963,1.14235,19.1059,491.128,9.99507,0.0,0.0
620,154.75,117.902,130.809,121.659,99.0095,39.0323,0.0416692,0.90196,19.5308,489.756,8.22968,0.0,0.0
651,162.5,116.272,128.474,121.267,99.002,44.1841,0.0325403,0.728167,19.8218,488.605,7.1329,0.0,0.0
682,170.25,114.072,126.097,119.131,98.9928,41.9662,0.0308027,0.68608,19.887,487.454,7.58742,0.0,0.0
713,178,113.015,124.659,117.347,98.9844,40.5355,0.0299969,0.676414,19.9023,486.443,7.89333,0.0,0.0
744,185.75,111.631,123.507,121.897,98.9637,44.4355,0.0282832,0.658932,19.9324,485.413,7.07933,0.0,0.0
775,193.5,110.171,121.618,122.862,98.939,46.1337,0.0271797,0.618532,19.9973,484.362,6.74553,0.0,0.0
806,201.25,108.793,118.539,124.356,98.9259,46.4576,0.0243379,0.570824,20.0835,483.441,6.6825,0.0,0.0
837,209,105.87,116.807,131.178,98.9128,52.0923,0.0209716,0.517795,20.1718,482.61,5.66921,0.0,0.0
868,216.75,103.725,113.996,126.787,98.902,51.6711,0.0195027,0.481979,20.2353,481.829,5.74003,0.0,0.0
899,224.5,101.286,111.261,127.739,98.8964,53.69,0.0186626,0.465749,20.2654,481.089,5.40066,0.0,0.0
930,232.25,99.364,109.065,124.74,98.8693,51.2701,0.0193501,0.464424,20.2619,480.288,5.80598,0.0,0.0
961,240,98.6064,107.39,126.759,98.8399,53.2197,0.0207901,0.488814,20.222,479.447,5.47338,0.0,0.0
992,247.75,98.0422,106.798,126.117,98.808,51.4108,0.020536,0.48968,20.2205,478.707,5.77627,0.0,0.0
1023,255.5,96.8887,105.405,129.607,98.7407,53.4816,0.0192739,0.475074,20.2405,477.896,5.42111,0.0,0.0
1054,263.25,96.4169,104.673,130.521,98.716,55.5852,0.0182319,0.462021,20.263,477.215,5.07781,0.0,0.0
1085,271,95.2396,103.074,130.807,98.7057,56.3121,0.0173255,0.446629,20.2946,476.425,4.96201,0.0,0.0
1116,278.75,94.2757,102.113,129.314,98.7025,57.4253,0.0161267,0.428103,20.3326,475.834,4.78865,0.0,0.0
1147,286.5,93.0094,100.189,131.54,98.6866,61.5032,0.0143264,0.408244,20.3691,475.163,4.18067,0.0,0.0
1178,294.25,91.5107,98.7464,134.419,98.6985,66.3421,0.0132861,0.378115,20.4239,474.663,3.51215,0.0,0.0
1209,302,89.7527,96.8651,134.685,98.6989,69.0777,0.0114443,0.351161,20.4774,474.163,3.15493,0.0,0.0
1240,309.75,88.3165,94.4572,135.795,98.6798,72.7069,0.0101191,0.329991,20.5186,473.762,2.70051,0.0,0.0
1271,317.5,86.4405,92.3373,135.458,98.6635,72.3213,0.0084371,0.311347,20.5587,473.332,2.74606,0.0,0.0
1302,325.25,84.653,90.2981,133.823,98.5986,77.3228,0.00727041,0.294973,20.5916,472.921,2.14903,0.0,0.0
1333,333,82.7695,88.303,133.193,98.5579,78.5126,0.00637734,0.280049,20.6206,472.571,2.01037,0.0,0.0
1364,340.75,81.1476,86.4101,137.202,98.5384,80.4768,0.00574616,0.269352,20.645,472.261,1.79016,0.0,0.0
1395,348.5,80.1434,84.2889,136.531,98.4293,81.5746,0.00511264,0.260626,20.6612,471.931,1.66057,0.0,0.0
1426,356.25,78.4027,82.9697,134.54,98.323,82.8184,0.00462421,0.253265,20.6752,471.62,1.51723,0.0,0.0
1457,364,77.1356,81.4392,137.565,98.2358,83.253,0.0041132,0.247483,20.6875,471.38,1.46311,0.0,0.0
1488,371.75,76.0709,79.7522,137.795,98.1215,84.4744,0.00389968,0.24143,20.6979,471.11,1.32405,0.0,0.0
1519,379.5,74.7403,78.3713,137.08,98.1084,85.5058,0.00376421,0.238849,20.7026,470.85,1.21558,0.0,0.0
1550,387.25,74.1051,77.7374,135.577,98.1414,84.8969,0.00325714,0.233706,20.7153,470.599,1.28174,0.0,0.0
1581,395,73.3374,76.757,137.051,98.1577,85.5094,0.0029297,0.228267,20.7254,470.349,1.21965,0.0,0.0
1612,402.75,72.291,75.8337,139.513,98.1689,86.7735,0.00286205,0.22775,20.7262,470.159,1.09091,0.0,0.0
1643,410.5,71.1528,74.3291,140.434,98.1788,87.5157,0.00275524,0.224108,20.7334,469.879,1.0165,0.0,0.0
1674,418.25,71.1555,73.8259,138.11,98.2,87.7574,0.00271626,0.219224,20.741,469.699,0.994025,0.0,0.0
1705,426,70.2279,73.4308,140.537,98.2274,87.1176,0.00301107,0.215153,20.7485,469.488,1.06118,0.0,0.0
1736,433.75,69.8913,72.4931,142.603,98.2661,87.8169,0.00271191,0.209596,20.7576,469.268,0.993972,0.0,0.0
1767,441.5,68.7886,71.6443,141.345,98.2991,88.5102,0.00288803,0.206254,20.7656,469.078,0.927425,0.0,0.0
1798,449.25,68.3273,70.8005,139.607,98.3393,89.0822,0.00279707,0.204092,20.7706,468.868,0.874087,0.0,0.0
1829,457,67.7327,70.4729,140.644,98.3397,88.4757,0.0031714,0.201703,20.7748,468.698,0.934521,0.0,0.0
1860,464.75,66.6553,69.8184,143.372,98.3565,89.2415,0.00308904,0.198967,20.7803,468.487,0.859829,0.0,0.0
1891,472.5,66.6229,68.7783,140.471,98.3652,90.3868,0.00259987,0.195949,20.7849,468.307,0.747876,0.0,0.0
1922,480.25,65.7207,68.6995,142.274,98.3903,89.7126,0.00254731,0.192437,20.7915,468.137,0.816323,0.0,0.0
1953,488,65.6347,67.9945,141.84,98.4094,90.2903,0.0030239,0.19071,20.7953,467.967,0.761291,0.0,0.0
1984,495.75,65.0109,66.9616,143.055,98.4652,91.4651,0.00264901,0.186195,20.8049,467.797,0.651997,0.0,0.0
2015,503.5,64.7461,66.6103,140.617,98.5321,91.4972,0.00328674,0.184556,20.8079,467.627,0.654908,0.0,0.0
2046,511.25,63.9649,65.5888,140.791,98.5751,91.8539,0.00324513,0.183584,20.811,467.447,0.62436,0.0,0.0
2077,519,63.1135,65.0519,141.839,98.6157,91.1064,0.00311406,0.181416,20.8151,467.296,0.700252,0.0,0.0
2108,526.75,62.3102,65.3136,142.193,98.6388,91.8839,0.00323986,0.179784,20.8184,467.136,0.627186,0.0,0.0
2139,534.5,62.6959,63.7623,141.445,98.6515,92.3291,0.00334417,0.177173,20.824,466.986,0.5856,0.0,0.0
2170,542.25,61.9381,64.0006,142.869,98.6742,93.0426,0.00353117,0.174251,20.8272,466.856,0.519573,0.0,0.0
2201,550,61.9724,62.851,143.43,98.6543,93.0985,0.00379212,0.171377,20.8339,466.686,0.512473,0.0,0.0
2232,557.75,61.0669,62.8362,144.712,98.626,92.9919,0.00342731,0.169757,20.8381,466.546,0.520071,0.0,0.0
2263,565.5,60.5261,62.206,143.847,98.5675,93.1204,0.00385313,0.166617,20.8443,466.416,0.502612,0.0,0.0
2294,573.25,60.2093,61.3737,143.013,98.536,93.2684,0.00441526,0.165202,20.8481,466.286,0.485752,0.0,0.0
2325,581,59.7857,61.1809,144.426,98.4966,92.8338,0.00454161,0.163249,20.8521,466.165,0.523507,0.0,0.0
2356,588.75,59.4439,60.8967,143.53,98.4684,93.0227,0.00444274,0.16129,20.8564,466.075,0.502995,0.0,0.0
2387,596.5,58.5865,60.528,145.203,98.4277,93.4617,0.00476036,0.162899,20.8571,465.925,0.457716,0.0,0.0
2418,604.25,58.3027,59.8826,141.347,98.376,93.1095,0.00524835,0.162149,20.8582,465.815,0.486454,0.0,0.0
2449,612,57.919,59.7596,148.638,98.2947,93.4208,0.00563298,0.159745,20.8581,465.735,0.449636,0.0,0.0
2480,619.75,57.8531,59.4098,144.521,98.2016,93.0324,0.00613494,0.157034,20.8626,465.585,0.478082,0.0,0.0
2511,627.5,56.6488,59.0054,139.897,98.0992,92.8861,0.00607342,0.156568,20.8636,465.465,0.482783,0.0,0.0
2542,635.25,57.4459,57.3561,145.431,98.0036,92.6412,0.00644671,0.155617,20.8656,465.365,0.497503,0.0,0.0
2573,643,56.1839,58.0155,143.282,97.9156,91.9845,0.00682032,0.157151,20.8633,465.245,0.55246,0.0,0.0
2604,650.75,55.7411,57.3078,143.604,97.8894,93.0304,0.00706709,0.155126,20.8673,465.155,0.450122,0.0,0.0
2635,658.5,55.5091,57.0599,144.843,97.8396,92.7174,0.00685059,0.152688,20.8717,465.014,0.475419,0.0,0.0
2666,666.25,55.2579,56.4349,145.673,97.7954,92.4665,0.00706707,0.149806,20.8777,464.914,0.495386,0.0,0.0
2697,674,54.977,56.3883,142.013,97.7504,92.402,0.00771119,0.148073,20.8798,464.824,0.497482,0.0,0.0
2728,681.75,54.7085,56.2599,140.07,97.754,92.2832,0.00770222,0.146815,20.8814,464.704,0.509179,0.0,0.0
2759,689.5,54.311,55.7743,140.576,97.7233,92.3566,0.00752249,0.145024,20.8857,464.614,0.499378,0.0,0.0
2790,697.25,54.2892,55.595,144.859,97.6998,92.9388,0.00764412,0.144799,20.8849,464.524,0.441697,0.0,0.0
2821,705,53.9616,55.0539,145.942,97.6918,92.4868,0.00780095,0.14388,20.8866,464.394,0.484083,0.0,0.0
2852,712.75,53.9951,54.8973,144.427,97.6683,92.6834,0.00783683,0.144466,20.8879,464.304,0.46318,0.0,0.0
2883,720.5,53.9134,55.184,148.239,97.6158,92.7811,0.00752935,0.142544,20.8897,464.264,0.449105,0.0,0.0
2914,728.25,53.4815,55.1106,146.971,97.5947,92.5399,0.00761622,0.141522,20.8885,464.164,0.470208,0.0,0.0
2945,736,53.5842,54.8197,143.179,97.5652,92.8022,0.00774412,0.14153,20.8893,464.023,0.442515,0.0,0.0
2976,743.75,52.9473,54.4865,146.524,97.5425,92.5739,0.0078941,0.141229,20.8895,463.943,0.46223,0.0,0.0
3007,751.5,53.1414,54.3241,142.572,97.513,92.5686,0.00771058,0.1407,20.8895,463.863,0.460062,0.0,0.0
3038,759.25,53.2854,54.6715,143.77,97.5011,92.4827,,,,463.743,0.467191,0.0,0.0
3054,763.25,53.0654,54.2158,146.914,97.4796,92.6639,,,,463.713,0.447933,0.0,0.0