Folder: fsri_materials_database/01_Data/EPDM_Membrane/Cone (part 2)

File: EPDM_Membrane_Cone_HF25Scan_220225_R1.csv
Names,Time,Stack TC,Smoke TC,Exh Press,Smoke Comp,Smoke Meas,CO Meter,CO2 Meter,O2 Meter,Sample Mass,Ext Coeff,Start Test,Flame Verif
Chan Gain,,500,500,1,1,1,1,1,1,1,1,1.0,1.0
Offset,,0,0,0.135243,0,0,0,0,0,0,0,0.0,0.0
Gain,,1,1,25.011,15.3125,15.3273,1,1,1,1.00096,1.02035,1.0,1.0
Units,sec,C,C,Pa,%,%,%,%,%,g,/m,,
Baseline,,17.1273,17.6096,179.409,115.871,110.047,0.000717516,0.0447832,21.0606,-867.078,0.461566,,
28,6.75,15.7028,15.6891,179.616,115.46,109.905,0.000297421,0.0492926,21.0592,88.2546,0.441312,0.0,0.0
56,13.75,15.5893,16.4533,179.007,115.289,109.328,0.00033263,0.0476144,21.0598,88.2045,0.475173,0.0,0.0
84,20.75,15.876,16.0996,181.148,115.235,109.936,8.0953e-05,0.0485039,21.0578,88.2346,0.421395,0.0,0.0
112,27.75,15.7317,16.4435,180.218,115.235,110.005,-2.87147e-05,0.0460142,21.0628,88.2245,0.41576,0.0,0.0
140,34.75,15.6042,15.8217,184.734,115.371,110.044,0.000323137,0.0442451,21.0661,88.2145,0.423086,0.0,0.0
168,41.75,16.17,16.1609,182.425,115.6,110.102,0.000411072,0.0433957,21.0663,88.2145,0.436113,0.0,0.0
196,48.75,16.08,16.1986,181.006,115.963,110.417,0.000279881,0.0431097,21.0667,88.1645,0.43863,0.0,0.0
224,55.75,16.1268,16.6302,182.593,116.284,110.719,0.000127738,0.0429052,21.067,88.1845,0.438915,0.0,0.0
252,62.75,16.4729,16.3588,184.64,116.593,111.085,0.000332859,0.0429847,21.0682,88.1945,0.4331,0.0,0.0
280,69.75,16.4591,16.5808,175.754,116.737,110.905,0.000152805,0.042989,21.067,88.1745,0.458697,0.0,0.0
308,76.75,16.6917,16.7632,173.928,116.688,110.357,0.000581231,0.0432557,21.0688,88.1545,0.499324,0.0,0.0
336,83.75,16.1534,17.1691,178.159,116.467,110.763,-5.05312e-05,0.0430347,21.0689,88.1044,0.44945,0.0,0.0
364,90.75,16.5902,16.9566,179.758,116.15,109.368,9.82891e-05,0.0431755,21.0685,88.1245,0.53846,0.0,0.0
392,97.75,16.3051,17.0227,179.331,115.852,108.347,0.000358348,0.0444854,21.0656,88.0744,0.599448,0.0,0.0
420,104.75,16.6633,16.5888,177.076,116.328,107.514,0.000431026,0.0460692,21.0603,87.9743,0.705209,0.0,0.0
448,111.75,16.8304,18.0733,169.206,116.476,85.9224,0.00421846,0.0978273,20.928,87.8642,2.72307,0.0,1.0
476,118.75,21.0418,22.1103,152.277,116.036,62.2064,0.0179746,0.387737,20.4342,87.1435,5.58009,0.0,0.0
504,125.75,28.7065,31.4587,141.951,115.598,55.2977,0.0270719,0.587909,20.1026,86.2827,6.59993,0.0,0.0
532,132.75,36.5589,40.616,142.521,115.809,49.0069,0.033217,0.707114,19.8909,85.2117,7.69721,0.0,0.0
560,139.75,43.3697,48.845,139.467,115.907,47.1611,0.0371983,0.770433,19.802,84.0906,8.04837,0.0,0.0
588,146.75,49.4491,56.0003,142.086,115.898,45.5998,0.0361581,0.756375,19.8439,83.0996,8.34906,0.0,0.0
616,153.75,54.0296,61.5019,144.263,115.528,51.196,0.0358763,0.747022,19.864,82.0386,7.28431,0.0,0.0
644,160.75,57.3864,65.5418,140.76,114.935,47.9666,0.0364594,0.732822,19.8792,80.9676,7.82142,0.0,0.0
672,167.75,60.7812,69.6641,150.655,114.414,46.3641,0.0376174,0.737613,19.881,79.9666,8.08489,0.0,0.0
700,174.75,63.3435,72.6459,142.262,114.382,47.0825,0.0382355,0.728623,19.879,78.9056,7.94481,0.0,0.0
728,181.75,65.6768,75.1207,137.355,114.977,43.2133,0.0387702,0.76338,19.8114,77.7745,8.75877,0.0,0.0
756,188.75,68.4029,78.0071,136.597,115.893,39.9783,0.0396428,0.789099,19.771,76.5634,9.52623,0.0,0.0
784,195.75,71.3684,81.2553,137.042,116.586,41.2754,0.0432228,0.857164,19.6439,75.3022,9.29378,0.0,0.0
812,202.75,75.2884,86.4727,130.421,116.691,42.8948,0.0496869,1.00576,19.3787,73.9809,8.9574,0.0,0.0
840,209.75,80.892,92.8201,127.677,116.26,37.3276,0.0585161,1.14855,19.1635,75.132,10.1686,0.0,0.0
868,216.75,86.9134,101.071,119.505,115.863,35.348,0.070755,1.33145,18.8356,73.2702,10.6257,0.0,0.0
896,223.75,95.0733,110.145,112.206,116.52,37.4922,0.0779139,1.46943,18.6302,69.3665,10.1492,0.0,0.0
924,230.75,101.358,117.96,111.79,116.107,40.3731,0.0774663,1.53991,18.5438,66.1834,9.45476,0.0,0.0
952,237.75,105.487,123.393,115.637,115.703,40.4985,0.0713581,1.42619,18.7371,64.5519,9.39587,0.0,0.0
980,244.75,108.037,126.224,126.797,115.94,37.0006,0.0665978,1.28152,19.0034,63.1605,10.2227,0.0,0.0
1008,251.75,107.947,126.598,130.558,115.885,35.5033,0.061039,1.13049,19.2168,61.6291,10.5881,0.0,0.0
1036,258.75,107.357,125.482,128.509,115.469,38.7098,0.0590425,1.07937,19.2873,60.3879,9.78201,0.0,0.0
1064,265.75,106.549,123.605,130.254,114.79,38.5615,0.0527425,0.984478,19.4557,59.0366,9.76357,0.0,0.0
1092,272.75,103.736,120.165,134.395,114.324,38.2402,0.0466812,0.893624,19.6045,57.9255,9.80207,0.0,0.0
1120,279.75,102.596,118.445,136.411,114.401,41.3035,0.0435097,0.863354,19.6462,56.6743,9.11842,0.0,0.0
1148,286.75,100.791,115.614,136.73,114.997,43.4738,0.0414118,0.804386,19.7551,55.6233,8.7065,0.0,0.0
1176,293.75,98.4737,112.72,141.946,115.809,45.742,0.0373283,0.731827,19.8807,54.6424,8.3143,0.0,0.0
1204,300.75,96.0299,109.674,146.567,116.441,48.1949,0.0333694,0.666701,19.9789,53.7315,7.89549,0.0,0.0
1232,307.75,93.027,105.628,144.389,116.717,52.4224,0.0297507,0.614196,20.0781,52.8707,7.16413,0.0,0.0
1260,314.75,90.8216,102.024,148.845,116.683,55.9301,0.0271773,0.575295,20.151,52.0999,6.58177,0.0,0.0
1288,321.75,87.8436,98.4799,145.441,116.445,56.4919,0.0255889,0.549039,20.1977,51.3993,6.47409,0.0,0.0
1316,328.75,85.2548,94.9457,150.599,116.153,57.9774,0.0233348,0.519347,20.2513,50.6385,6.21924,0.0,0.0
1344,335.75,82.7548,91.6544,155.512,115.967,61.1581,0.0212534,0.503255,20.2793,49.9479,5.72686,0.0,0.0
1372,342.75,80.7711,89.1581,152.169,115.841,62.9192,0.0205942,0.48605,20.31,49.3373,5.46306,0.0,0.0
1400,349.75,78.9764,86.7219,151.858,116.09,61.2484,0.0202787,0.473623,20.3304,48.6666,5.72314,0.0,0.0
1428,356.75,77.4889,84.8457,149.305,116.125,63.8248,0.0191718,0.460545,20.3582,48.036,5.35705,0.0,0.0
1456,363.75,74.8443,82.5195,151.445,116.204,65.7543,0.0184553,0.451886,20.3705,47.4255,5.0966,0.0,0.0
1484,370.75,74.0305,80.669,152.31,116.279,64.8323,0.0173269,0.439151,20.3931,46.8749,5.22878,0.0,0.0
1512,377.75,72.7025,79.1319,157.554,116.276,68.6787,0.017158,0.421847,20.4271,46.3144,4.71268,0.0,0.0
1540,384.75,70.242,76.5843,156.572,116.168,68.5309,0.015804,0.40669,20.4543,45.7639,4.72365,0.0,0.0
1568,391.75,69.889,75.1505,161.498,116.035,72.1414,0.0155577,0.394291,20.4764,45.2534,4.25382,0.0,0.0
1596,398.75,68.3729,73.3737,158.303,115.826,72.0437,0.0140107,0.381597,20.5021,44.8029,4.24983,0.0,0.0
1624,405.75,67.3042,72.0414,157.039,115.876,74.737,0.013473,0.36675,20.5267,44.3125,3.92515,0.0,0.0
1652,412.75,66.0721,70.6032,158.136,115.997,77.0851,0.0124691,0.353417,20.5522,43.872,3.65762,0.0,0.0
1680,419.75,63.9185,68.4556,157.662,116.162,82.0152,0.0131313,0.335495,20.5843,43.5217,3.11549,0.0,0.0
1708,426.75,63.3401,67.2747,160.169,116.411,84.5939,0.0130349,0.315919,20.6186,43.1013,2.85754,0.0,0.0
1736,433.75,61.6071,65.5449,163.202,116.648,86.2082,0.0119148,0.300848,20.6463,42.741,2.70659,0.0,0.0
1764,440.75,60.3138,64.0049,162.029,116.72,90.3674,0.0115423,0.284085,20.6754,42.4707,2.29034,0.0,0.0
1792,447.75,58.117,61.3207,161.489,116.495,88.4936,0.0113577,0.271096,20.7,42.1604,2.46063,0.0,0.0
1820,454.75,57.4274,60.1566,164.497,115.967,91.9624,0.0117192,0.256464,20.7253,41.9002,2.07586,0.0,0.0
1848,461.75,55.9877,58.295,163.455,115.326,92.8474,0.0107565,0.243964,20.7478,41.6499,1.94048,0.0,0.0
1876,468.75,54.2052,56.2127,165.755,114.679,95.1684,0.0106744,0.231375,20.7705,41.3997,1.66919,0.0,0.0
1904,475.75,53.5848,55.26,165.543,114.308,96.603,0.0107031,0.220643,20.7906,41.2095,1.50627,0.0,0.0
1932,482.75,50.6032,52.6948,167.336,114.323,96.9421,0.010589,0.207969,20.8125,40.9993,1.47604,0.0,0.0
1960,489.75,50.6708,52.2706,172.097,114.714,101.096,0.0105577,0.198623,20.8272,40.8091,1.13114,0.0,0.0
1988,496.75,49.7099,50.5371,166.258,115.251,100.888,0.0109226,0.184349,20.8519,40.709,1.19134,0.0,0.0
2016,503.75,48.3043,49.144,170.907,115.734,102.643,0.0116398,0.177091,20.862,40.5088,1.07439,0.0,0.0
2044,510.75,46.3435,46.9457,172.214,115.913,101.041,0.012167,0.171198,20.8711,40.3787,1.22906,0.0,0.0
2072,517.75,44.7399,45.7738,166.484,115.914,104.38,0.0127059,0.163469,20.8846,40.2586,0.938148,0.0,0.0
2100,524.75,44.8016,45.0728,168.825,115.7,104.462,0.0127641,0.159022,20.8926,40.0984,0.91455,0.0,0.0
2128,531.75,43.9399,43.7397,166.203,115.974,106.364,0.0129498,0.150964,20.9054,39.9583,0.774184,0.0,0.0
2156,538.75,42.3808,42.3615,169.218,116.525,106.857,0.0131066,0.146827,20.9136,39.8582,0.775212,0.0,0.0
2184,545.75,41.3355,41.5436,169.648,116.094,106.931,0.014081,0.141819,20.9218,39.7581,0.735904,0.0,0.0
2212,552.75,39.8664,39.6373,172.297,116.128,106.505,0.0152026,0.132425,20.9374,39.638,0.774237,0.0,0.0
2240,559.75,38.7666,38.5239,175.396,116.629,107.21,0.0161518,0.122998,20.9464,39.5679,0.753717,0.0,0.0
2268,566.75,37.9935,37.9592,173.782,116.576,108.113,0.0161644,0.121197,20.9492,39.4478,0.674615,0.0,0.0
2296,573.75,36.747,36.6695,171.501,115.755,106.162,0.016048,0.120998,20.9513,39.3877,0.774309,0.0,0.0
2324,580.75,35.745,35.2973,169.316,114.705,106.381,0.015568,0.12019,20.9545,39.2977,0.674236,0.0,0.0
2352,587.75,36.0937,35.5353,171.919,114.313,105.959,0.0151053,0.120012,20.9545,39.1976,0.679235,0.0,0.0
2380,594.75,34.9244,34.9095,170.087,114.881,106.29,0.0149901,0.120729,20.955,39.1275,0.695686,0.0,0.0
2408,601.75,34.8052,33.8858,172.861,115.699,107.023,0.0147358,0.119206,20.9552,39.0174,0.697703,0.0,0.0
2436,608.75,34.2614,33.4687,171.244,115.872,107.018,0.0147737,0.11947,20.9562,38.9373,0.711456,0.0,0.0
2464,615.75,32.1478,32.0984,172.513,115.626,107.185,0.0145514,0.120062,20.9574,38.8673,0.678537,0.0,0.0
2492,622.75,33.1073,31.7979,173.648,116.296,107.181,0.0142628,0.11864,20.9588,38.7772,0.730571,0.0,0.0
2520,629.75,32.6407,32.0431,170.845,116.242,107.733,0.0138359,0.118562,20.9605,38.6771,0.680389,0.0,0.0
2548,636.75,32.5104,31.7284,179.559,116.145,107.276,0.0142864,0.119078,20.9606,38.627,0.710947,0.0,0.0
2576,643.75,32.7635,31.1558,176.351,116.708,107.387,0.0139244,0.117474,20.9628,38.4869,0.744991,0.0,0.0
2604,650.75,31.4398,30.3383,171.308,116.32,107.228,0.0140464,0.117379,20.9622,38.4468,0.728464,0.0,0.0
2632,657.75,31.7784,30.7814,175.863,115.124,106.048,0.0141238,0.117836,20.9618,38.3468,0.735025,0.0,0.0
2660,664.75,31.2271,30.6542,172.988,114.345,105.125,,,,38.3367,0.752451,0.0,0.0
2684,670.75,31.2291,29.9119,173.01,114.707,105.559,,,,38.2667,0.743908,0.0,0.0

File: EPDM_Membrane_Cone_HF25Scan_220225_R3.csv
Names,Time,Stack TC,Smoke TC,Exh Press,Smoke Comp,Smoke Meas,CO Meter,CO2 Meter,O2 Meter,Sample Mass,Ext Coeff,Start Test,Flame Verif
Chan Gain,,500,500,1,1,1,1,1,1,1,1,1.0,1.0
Offset,,0,0,0.135243,0,0,0,0,0,0,0,0.0,0.0
Gain,,1,1,25.011,15.3125,15.3273,1,1,1,1.00096,1.02035,1.0,1.0
Units,sec,C,C,Pa,%,%,%,%,%,g,/m,,
Baseline,,18.0203,18.5593,182.427,115.472,111.65,0.000225246,0.0401596,21.063,-867.782,0.30128,,
54,13.25,16.37,16.6862,182.168,114.196,111.043,-4.95019e-05,0.0448722,21.058,161.144,0.250582,0.0,0.0
108,26.75,17.2735,17.5167,181.486,114.812,111.623,0.000343876,0.0452103,21.0584,161.124,0.252095,0.0,0.0
162,40.25,17.0283,17.6211,180.279,116.311,113.781,0.000137602,0.0400623,21.0668,161.094,0.196839,0.0,0.0
216,53.75,17.0957,17.4878,180.773,116.343,113.933,0.000138431,0.0445188,21.0593,161.094,0.187332,0.0,0.0
270,67.25,17.1668,17.8963,176.755,115.66,112.342,-0.000134036,0.0416794,21.0634,161.124,0.260472,0.0,0.0
324,80.75,17.5191,17.9961,187.818,116.299,113.262,0.00030027,0.0423659,21.0643,161.084,0.236802,0.0,0.0
378,94.25,17.7658,18.3825,179.297,115.395,111.578,0.00042444,0.0416314,21.0659,161.074,0.301046,0.0,0.0
432,107.75,17.5934,18.4548,180.545,115.58,111.384,-0.000276437,0.0419581,21.0618,161.024,0.331046,0.0,0.0
486,121.25,18.0853,18.0701,180.704,115.694,110.916,0.000275134,0.0459411,21.0562,160.984,0.377464,0.0,0.0
540,134.75,18.0992,18.9282,180.343,115.724,110.905,0.000278918,0.0463182,21.0554,160.984,0.380683,0.0,0.0
594,148.25,17.7496,18.7243,183.089,115.655,109.201,0.000415882,0.046078,21.053,160.874,0.513883,0.0,0.0
648,161.75,18.1309,18.6319,165.946,115.535,87.1198,0.00343691,0.10021,20.9454,160.704,2.52662,0.0,1.0
702,175.25,25.1085,26.2473,160,115.572,71.3996,0.0130568,0.330782,20.5599,159.843,4.31058,0.0,0.0
756,188.75,33.3378,35.4526,155.707,116.314,66.9765,0.0170899,0.42702,20.3977,158.692,4.94018,0.0,0.0
810,202.25,40.4736,43.784,158.887,115.732,65.2996,0.0184042,0.461163,20.3445,157.471,5.12224,0.0,0.0
864,215.75,45.4263,49.9969,154.845,116.433,69.4102,0.0178815,0.467448,20.3397,156.28,4.62988,0.0,0.0
918,229.25,49.5027,53.9079,152.203,116.028,68.4439,0.0173545,0.447886,20.3693,155.069,4.72417,0.0,0.0
972,242.75,51.824,57.6941,156.45,114.253,65.0559,0.0177188,0.44757,20.3684,153.907,5.04059,0.0,0.0
1026,256.25,52.9891,59.1515,153.332,115.046,69.762,0.0183279,0.458292,20.3453,152.676,4.47738,0.0,0.0
1080,269.75,55.8529,62.169,151.074,115.701,64.4862,0.0191331,0.464856,20.3321,151.405,5.23205,0.0,0.0
1134,283.25,58.0491,64.6888,151.11,116.226,61.6142,0.0206728,0.487888,20.2906,150.064,5.68036,0.0,0.0
1188,296.75,59.1963,65.8659,159.204,116.115,65.244,0.0186617,0.451909,20.359,148.853,5.15946,0.0,0.0
1242,310.25,59.165,65.3418,158.159,115.891,68.0168,0.0167206,0.407928,20.4345,147.702,4.76963,0.0,0.0
1296,323.75,57.5895,63.5989,160.673,114.231,69.9449,0.0147153,0.36217,20.5119,146.661,4.39032,0.0,0.0
1350,337.25,55.885,61.7557,155.319,115.743,71.0282,0.0126164,0.326103,20.5788,145.77,4.3705,0.0,0.0
1404,350.75,54.309,59.2622,160.184,116.022,76.9191,0.0111605,0.304114,20.6162,144.979,3.67886,0.0,0.0
1458,364.25,52.1803,57.1147,163.636,116.206,81.2678,0.0102094,0.289611,20.6394,144.178,3.20082,0.0,0.0
1512,377.75,50.2575,55.9641,165.052,115.428,75.4835,0.00970977,0.283511,20.6511,143.467,3.80158,0.0,0.0
1566,391.25,50.0666,54.335,164.823,114.57,78.6203,0.00959694,0.278013,20.6609,142.767,3.37035,0.0,0.0
1620,404.75,49.0524,53.1802,161.908,115.704,80.2766,0.00946458,0.272309,20.671,142.096,3.27192,0.0,0.0
1674,418.25,48.3567,52.1056,164.501,115.961,79.0394,0.00896641,0.267465,20.6783,141.396,3.43079,0.0,0.0
1728,431.75,47.3841,50.8403,162.24,115.65,80.517,0.008555,0.262851,20.688,140.725,3.24092,0.0,0.0
1782,445.25,46.8555,50.3095,163.824,116.466,80.0755,0.00801093,0.255025,20.6996,140.034,3.35314,0.0,0.0
1836,458.75,45.9321,48.3612,160.423,116.192,81.4273,0.00790009,0.253356,20.7001,139.364,3.18216,0.0,0.0
1890,472.25,44.174,49.0188,165.148,115.28,81.322,0.00836436,0.256856,20.6967,138.733,3.12322,0.0,0.0
1944,485.75,44.364,49.0769,167.516,114.606,78.2451,0.00843609,0.257608,20.6908,138.072,3.41597,0.0,0.0
1998,499.25,45.0674,47.8767,168.808,114.335,77.2077,0.00785273,0.252603,20.7033,137.402,3.51429,0.0,0.0
2052,512.75,44.0772,47.0762,167.081,114.256,77.9888,0.00780963,0.247582,20.711,136.741,3.418,0.0,0.0
2106,526.25,44.3213,46.9293,164.056,114.244,82.9797,0.00714343,0.239859,20.726,136.13,2.86185,0.0,0.0
2160,539.75,44.5498,47.3737,165.383,114.283,80.1119,0.00713508,0.234986,20.7328,135.53,3.17968,0.0,0.0
2214,553.25,44.1987,46.5361,164.201,114.413,81.5999,0.00667073,0.2291,20.7404,134.979,3.0251,0.0,0.0
2268,566.75,42.7405,45.781,169.441,114.661,84.2408,0.00640306,0.224523,20.7548,134.449,2.75944,0.0,0.0
2322,580.25,42.9872,45.1188,167.736,115.207,84.2361,0.00601043,0.218789,20.7645,133.908,2.80248,0.0,0.0
2376,593.75,42.3732,44.8888,167.806,115.778,88.0272,0.00590872,0.214346,20.771,133.388,2.45264,0.0,0.0
2430,607.25,40.9063,43.8404,165.616,116.287,88.4758,0.00542263,0.209746,20.7764,132.897,2.44647,0.0,0.0
2484,620.75,41.3454,43.5691,170.067,116.551,89.104,0.00550974,0.207329,20.7848,132.427,2.40341,0.0,0.0
2538,634.25,41.4312,42.7804,169.953,116.377,89.743,0.00538529,0.1997,20.7951,131.966,2.32606,0.0,0.0
2592,647.75,40.0149,41.9987,172.665,115.903,91.3932,0.00457587,0.195447,20.8054,131.496,2.12646,0.0,0.0
2646,661.25,40.1519,41.8413,175.665,115.77,94.3569,0.00438322,0.191747,20.8104,131.076,1.83056,0.0,0.0
2700,674.75,38.8007,40.3366,173.854,116.238,94.3873,0.00421299,0.186152,20.8195,130.705,1.86377,0.0,0.0
2754,688.25,38.8178,40.024,170.633,115.621,93.7441,0.00404381,0.181142,20.8301,130.315,1.87731,0.0,0.0
2808,701.75,37.9117,39.5088,173.739,115.441,94.8429,0.00381732,0.17758,20.8358,129.864,1.75908,0.0,0.0
2862,715.25,37.8128,39.1599,171.168,115.736,96.9482,0.00366558,0.174522,20.8409,129.554,1.58547,0.0,0.0
2916,728.75,37.5972,38.6109,172.432,115.143,98.2051,0.0032811,0.169921,20.8484,129.214,1.42417,0.0,0.0
2970,742.25,36.5879,38.2109,171.882,114.295,96.3893,0.00341839,0.164879,20.8565,128.924,1.52504,0.0,0.0
3024,755.75,36.4961,37.73,171.749,114.432,98.1981,0.00305941,0.163013,20.8634,128.613,1.36935,0.0,0.0
3078,769.25,36.1299,37.1823,170.137,115.774,101.131,0.00270918,0.159347,20.8694,128.293,1.2103,0.0,0.0
3132,782.75,35.6935,36.8418,174.17,116.521,102.817,0.00302198,0.154965,20.8764,127.983,1.11984,0.0,0.0
3186,796.25,35.8453,35.9365,173.329,115.84,105.331,0.00230269,0.151747,20.8835,127.702,0.851201,0.0,0.0
3240,809.75,34.6293,36.0148,171.43,116.25,105.283,0.00218337,0.149808,20.8886,127.472,0.886977,0.0,0.0
3294,823.25,33.9357,36.42,173.454,115.407,104.729,0.00251315,0.14699,20.8941,127.212,0.869001,0.0,0.0
3348,836.75,34.4227,35.3393,174.947,115.596,106.605,0.00235099,0.142996,20.8999,127.022,0.724708,0.0,0.0
3402,850.25,33.918,34.971,173.439,115.652,107.941,0.0024079,0.14081,20.9063,126.761,0.617586,0.0,0.0
3456,863.75,33.4806,34.7927,175.244,114.783,107.695,0.00252718,0.138782,20.9109,126.531,0.57049,0.0,0.0
3510,877.25,33.2683,34.3669,172.894,114.163,107.12,0.00284293,0.134923,20.9143,126.291,0.569873,0.0,0.0
3564,890.75,32.7563,33.3104,172.162,115.023,109.441,0.00246268,0.133096,20.918,126.131,0.445248,0.0,0.0
3618,904.25,32.7631,33.7859,171.653,116.304,110.279,0.00285629,0.13073,20.9231,125.921,0.47615,0.0,0.0
3672,917.75,33.414,32.5256,174.813,116.406,110.833,0.00317503,0.128263,20.9244,125.71,0.439073,0.0,0.0
3726,931.25,31.757,32.851,174.386,115.7,110.469,0.00345603,0.125262,20.9279,125.5,0.414055,0.0,0.0
3780,944.75,31.7504,32.2572,170.901,116.267,111.021,0.00356773,0.122208,20.9319,125.36,0.413188,0.0,0.0
3834,958.25,30.6956,32.0545,169.786,115.795,110.917,0.00388754,0.117446,20.938,125.21,0.385195,0.0,0.0
3888,971.75,30.6567,31.7024,170.867,115.53,110.861,0.00363817,0.116066,20.9439,125.03,0.369258,0.0,0.0
3942,985.25,30.5936,30.8818,177.424,115.673,111.183,0.0044014,0.111741,20.948,124.84,0.354348,0.0,0.0
3996,998.75,29.3143,30.6195,174.087,115.729,111.257,0.00422298,0.111145,20.952,124.689,0.352737,0.0,0.0
4050,1012.25,29.2246,29.9533,176.51,115.688,110.495,0.00574299,0.103967,20.9603,124.499,0.411103,0.0,0.0
4104,1025.75,28.8352,29.761,177.838,115.693,111.288,0.00617689,0.10073,20.9638,124.379,0.347508,0.0,0.0
4158,1039.25,28.8658,29.5273,175.317,115.713,111.312,0.0063998,0.0988084,20.9681,124.219,0.347035,0.0,0.0
4212,1052.75,28.317,29.0119,177.464,115.734,110.971,0.00638793,0.0986691,20.9685,124.049,0.376122,0.0,0.0
4266,1066.25,27.6688,28.2602,179.165,115.658,110.421,0.00698941,0.098037,20.9691,123.919,0.414742,0.0,0.0
4320,1079.75,27.6622,28.1303,180.316,115.442,111.104,0.00709357,0.0930087,20.9759,123.799,0.34276,0.0,0.0
4374,1093.25,26.7048,27.387,175.552,116.052,112.294,0.00723095,0.091244,20.9794,123.659,0.294636,0.0,0.0
4428,1106.75,26.5979,27.893,180.516,116.024,111.079,0.00727321,0.0910681,20.9812,123.508,0.389788,0.0,0.0
4482,1120.25,26.6672,27.467,180.854,116.244,111.739,0.00799883,0.0885962,20.9833,123.368,0.353727,0.0,0.0
4536,1133.75,26.1673,26.3979,178.262,116.365,112.047,0.008668,0.0804538,20.9928,123.248,0.338495,0.0,0.0
4590,1147.25,25.9044,26.0446,178.485,114.667,109.285,0.00858318,0.0803432,20.994,123.158,0.430281,0.0,0.0
4644,1160.75,24.6655,25.1481,173.461,114.468,109.123,0.00862839,0.078628,20.9962,123.038,0.427995,0.0,0.0
4698,1174.25,25.2712,25.4431,174.718,115.731,110.485,0.00862372,0.0780142,20.9995,122.888,0.415187,0.0,0.0
4752,1187.75,24.3846,24.8162,184.208,115.315,110.542,0.00924828,0.0736594,21.004,122.798,0.37838,0.0,0.0
4806,1201.25,24.1458,24.0175,178.189,115.969,110.752,0.00929517,0.0729166,21.0059,122.638,0.412029,0.0,0.0
4860,1214.75,24.2798,24.6224,176.953,116.534,110.617,0.00906331,0.0741403,21.0036,122.557,0.466384,0.0,0.0
4914,1228.25,23.6076,23.6831,182.599,115.092,109.663,0.00899408,0.0745723,21.0049,122.427,0.432477,0.0,0.0
4968,1241.75,23.5302,24.0572,180.464,114.462,109.182,0.00863273,0.07256,21.008,122.307,0.422724,0.0,0.0
5022,1255.25,23.2758,23.5704,173.648,115.758,109.509,0.00844267,0.0728771,21.0073,122.247,0.496755,0.0,0.0
5076,1268.75,23.2421,23.9308,179.632,115.702,109.884,0.00849827,0.0728305,21.0071,122.127,0.461736,0.0,0.0
5130,1282.25,23.0993,22.9376,179.894,115.727,109.244,0.00855984,0.0728966,21.0069,122.017,0.515962,0.0,0.0
5178,1294.25,23.084,23.652,178.314,116.498,109.712,,,,121.937,0.537154,0.0,0.0