Folder: fsri_materials_database/01_Data/EPDM_Membrane/Cone (part 5)

File: EPDM_Membrane_Cone_HF50Scan_220311_R4.csv
Names,Time,Stack TC,Smoke TC,Exh Press,Smoke Comp,Smoke Meas,CO Meter,CO2 Meter,O2 Meter,Sample Mass,Ext Coeff,Start Test,Flame Verif
Chan Gain,,500,500,1,1,1,1,1,1,1,1,1.0,1.0
Offset,,0,0,0.135167,0,0,0,0,0,0,0,0.0,0.0
Gain,,1,1,25.011,13.0486,13.2841,1,1,1,1.00089,1.0079,1.0,1.0
Units,sec,C,C,Pa,%,%,%,%,%,g,/m,,
Baseline,,32.9333,33.8397,155.551,98.5375,95.0278,0.000302862,0.0585862,21.0029,-493.148,0.320737,,
31,7.5,30.8658,32.1921,154.925,97.8917,94.5405,0.000258073,0.0616317,20.9998,510.215,0.307974,0.0,0.0
62,15.25,31.488,31.8589,156.919,98.0578,93.2834,0.000419664,0.0615662,20.9982,510.155,0.441314,0.0,0.0
93,23,31.5932,32.2839,144.543,98.2382,80.7796,0.00368518,0.104733,20.9179,509.964,1.72997,0.0,1.0
124,30.75,36.5554,37.4577,121.363,98.4206,47.3532,0.0195937,0.457814,20.2817,509.194,6.46841,0.0,0.0
155,38.5,47.6102,49.0711,120.12,98.5807,44.1679,0.0302374,0.70259,19.8825,508.163,7.09844,0.0,0.0
186,46.25,56.2071,59.6852,120.589,98.7559,38.9022,0.0324181,0.739357,19.8336,507.052,8.23652,0.0,0.0
217,54,63.3357,67.6062,124.073,98.8916,47.3446,0.0301011,0.709081,19.8914,505.991,6.51222,0.0,0.0
248,61.75,67.8283,72.6702,128.376,98.9852,46.5201,0.027271,0.661016,19.9728,505.09,6.67593,0.0,0.0
279,69.5,71.2551,76.76,135.958,99.0776,50.2579,0.0250701,0.623652,20.0448,504.159,6.00089,0.0,0.0
310,77.25,73.3784,79.0638,137.002,99.1565,51.6553,0.0236124,0.582187,20.1228,503.288,5.76545,0.0,0.0
341,85,74.8097,81.0237,135.172,99.2158,52.4709,0.0218756,0.560389,20.1526,502.468,5.63222,0.0,0.0
372,92.75,75.9651,82.2135,128.304,99.2564,53.2311,0.0211325,0.547317,20.1791,501.687,5.50868,0.0,0.0
403,100.5,77.0027,84.1634,132.765,99.2815,58.1814,0.020498,0.529075,20.2059,500.916,4.72472,0.0,0.0
434,108.25,76.8618,84.5993,133.703,99.2978,52.5504,0.020158,0.526976,20.2108,500.146,5.62615,0.0,0.0
465,116,77.4558,84.6419,127.857,99.2978,56.7098,0.020376,0.523532,20.216,499.365,4.95267,0.0,0.0
496,123.75,78.3671,85.1419,133.059,99.2958,56.229,0.0210127,0.535768,20.1927,498.604,5.02777,0.0,0.0
527,131.5,79.207,86.4907,129.76,99.2863,56.9701,0.0218008,0.56126,20.1496,497.794,4.91116,0.0,0.0
558,139.25,80.4281,88.4469,128.087,99.2656,51.2409,0.0241966,0.598989,20.0791,496.873,5.84637,0.0,0.0
589,147,83.1786,91.0192,121.967,99.2604,43.6956,0.0313806,0.686932,19.9059,495.802,7.25424,0.0,0.0
620,154.75,87.4748,95.7903,114.245,99.2508,37.6073,0.041999,0.858801,19.6188,494.441,8.58002,0.0,0.0
651,162.5,94.5612,103.74,106.198,99.2461,38.3877,0.0512076,1.04103,19.3103,492.889,8.398,0.0,0.0
682,170.25,101.266,111.369,117.148,99.2234,41.9938,0.0497284,1.05314,19.3077,491.418,7.60218,0.0,0.0
713,178,104.133,115.41,117.556,99.1947,40.2388,0.0426587,0.963076,19.4582,490.117,7.97706,0.0,0.0
744,185.75,105.951,117.107,121.261,99.1565,40.525,0.0389314,0.909713,19.5504,488.876,7.91099,0.0,0.0
775,193.5,106.6,117.912,116.11,99.117,41.8973,0.0355867,0.867767,19.6248,487.595,7.61304,0.0,0.0
806,201.25,107.345,118.824,121.456,99.082,45.4944,0.0349597,0.84725,19.6602,486.413,6.88167,0.0,0.0
837,209,107.216,118.597,121.571,99.0525,45.3363,0.0337499,0.794019,19.7477,485.232,6.90982,0.0,0.0
868,216.75,106.957,118.323,116.695,99.0219,47.2299,0.0313689,0.748812,19.8213,484.252,6.54531,0.0,0.0
899,224.5,105.67,117.062,120.506,98.986,48.6192,0.0305999,0.703159,19.8902,483.171,6.28578,0.0,0.0
930,232.25,104.58,115.437,125.308,98.9522,46.3275,0.0309032,0.681383,19.9225,482.17,6.70965,0.0,0.0
961,240,103.313,113.842,122.451,98.9004,46.1994,0.0298459,0.649376,19.9771,481.179,6.7295,0.0,0.0
992,247.75,101.544,111.497,126.955,98.8311,49.6465,0.0285003,0.613815,20.0354,480.238,6.08707,0.0,0.0
1023,255.5,99.0105,109.35,124.175,98.7865,48.3521,0.0261643,0.571463,20.1118,479.327,6.31666,0.0,0.0
1054,263.25,97.3736,107.016,124.288,98.7459,51.9626,0.0253158,0.551912,20.1483,478.516,5.67633,0.0,0.0
1085,271,95.9295,104.983,126.553,98.7216,57.0301,0.0239088,0.534114,20.178,477.666,4.85143,0.0,0.0
1116,278.75,94.4764,103.248,131.945,98.6937,55.8564,0.0234195,0.543621,20.1637,476.845,5.03277,0.0,0.0
1147,286.5,93.5327,101.876,126.852,98.6539,56.7179,0.0230563,0.557892,20.1491,476.044,4.89389,0.0,0.0
1178,294.25,92.9071,100.882,131.963,98.6053,61.3528,0.0219602,0.54461,20.1688,475.243,4.19504,0.0,0.0
1209,302,91.5087,99.5479,125.127,98.5643,62.6424,0.0200862,0.515412,20.2248,474.493,4.00745,0.0,0.0
1240,309.75,90.7642,97.8376,130.123,98.5333,63.8136,0.0179845,0.481085,20.2835,473.842,3.84089,0.0,0.0
1271,317.5,88.937,96.2884,129.37,98.4942,63.675,0.0164784,0.451994,20.3343,473.252,3.85662,0.0,0.0
1302,325.25,87.1709,94.3821,131.857,98.5197,63.6474,0.0148104,0.430031,20.3745,472.661,3.86273,0.0,0.0
1333,333,85.5655,92.3005,134.478,98.6105,68.3654,0.0141298,0.409727,20.4105,472.111,3.23865,0.0,0.0
1364,340.75,84.1294,89.7968,139.264,98.6619,68.6168,0.0126105,0.382043,20.4588,471.54,3.21081,0.0,0.0
1395,348.5,82.0423,87.4818,136.281,98.6949,69.0506,0.0124204,0.36451,20.4918,471.06,3.15805,0.0,0.0
1426,356.25,79.938,85.9538,133.787,98.7555,69.4771,0.0119973,0.346796,20.522,470.579,3.10903,0.0,0.0
1457,364,78.5639,83.8266,140.788,98.8076,73.7058,0.0113346,0.332971,20.5459,470.129,2.59132,0.0,0.0
1488,371.75,77.0162,82.0151,137.592,98.8494,73.6158,0.0111364,0.323796,20.5641,469.759,2.60586,0.0,0.0
1519,379.5,75.6189,80.0465,139.886,98.8542,74.1035,0.0109603,0.309794,20.5906,469.328,2.54791,0.0,0.0
1550,387.25,73.8111,78.0255,135.312,98.8594,74.5462,0.0101153,0.29535,20.6158,468.978,2.49571,0.0,0.0
1581,395,72.4281,76.182,143.086,98.8709,76.8833,0.00950168,0.289858,20.627,468.588,2.22381,0.0,0.0
1612,402.75,70.494,75.2497,142.818,98.8924,78.5232,0.00910785,0.280967,20.6445,468.297,2.03914,0.0,0.0
1643,410.5,69.7753,73.056,140.107,98.9032,77.1521,0.00875104,0.272445,20.6596,467.907,2.19584,0.0,0.0
1674,418.25,68.2527,72.1749,142.167,98.9319,80.7902,0.00809006,0.264152,20.6802,467.567,1.79103,0.0,0.0
1705,426,67.2371,70.3516,142.311,98.9577,82.9988,0.00750223,0.256061,20.6947,467.306,1.55489,0.0,0.0
1736,433.75,66.0059,69.0272,144.335,98.988,81.9638,0.00741997,0.249534,20.7065,466.986,1.66853,0.0,0.0
1767,441.5,65.045,67.9437,144.601,99.0032,83.7034,0.00713662,0.241998,20.7189,466.716,1.48421,0.0,0.0
1798,449.25,63.7751,66.8845,141.783,99.0151,85.6655,0.0072805,0.236722,20.7289,466.466,1.28041,0.0,0.0
1829,457,62.7981,65.7365,143.421,99.0083,86.5837,0.00710989,0.22841,20.7436,466.225,1.18554,0.0,0.0
1860,464.75,62.18,64.1308,148.394,99.0123,85.5333,0.00669454,0.223385,20.7531,466.005,1.29381,0.0,0.0
1891,472.5,60.7809,63.6213,144.941,99.0191,87.6775,0.00657358,0.217337,20.7638,465.755,1.07552,0.0,0.0
1922,480.25,60.325,62.5929,141.458,99.0131,89.1057,0.00672339,0.212314,20.7747,465.565,0.932122,0.0,0.0
1953,488,59.2919,61.3652,147.215,99.0023,89.109,0.00661192,0.206524,20.7837,465.355,0.930841,0.0,0.0
1984,495.75,58.7426,60.2753,148.023,99.0008,89.5521,0.00708975,0.199182,20.7956,465.195,0.886844,0.0,0.0
2015,503.5,57.8551,59.2457,144.011,98.994,91.592,0.00709023,0.193337,20.804,464.984,0.687097,0.0,0.0
2046,511.25,56.8141,58.7704,144.383,98.9908,91.1339,0.00705928,0.187095,20.8159,464.824,0.731144,0.0,0.0
2077,519,56.2565,57.7012,145.917,98.9733,92.1908,0.00734492,0.181208,20.8269,464.624,0.627636,0.0,0.0
2108,526.75,55.2534,56.4233,145.466,98.996,92.4036,0.00779171,0.174635,20.8382,464.484,0.609276,0.0,0.0
2139,534.5,54.1121,55.2133,146.823,99.0083,93.1686,0.00801048,0.171987,20.8439,464.354,0.537485,0.0,0.0
2170,542.25,53.3221,54.3338,149.647,99.0091,94.0889,0.00878129,0.167298,20.8522,464.214,0.450657,0.0,0.0
2201,550,52.8329,53.637,148.852,98.9896,93.1163,0.00897661,0.16449,20.8554,464.054,0.540777,0.0,0.0
2232,557.75,51.7515,53.2071,151.502,98.9928,93.8165,0.00960723,0.160486,20.8641,463.943,0.474835,0.0,0.0
2263,565.5,51.3791,52.0452,149.078,98.955,93.9308,0.00984419,0.159383,20.8677,463.813,0.460689,0.0,0.0
2294,573.25,50.3409,51.2615,148.51,98.9641,93.214,0.010528,0.157555,20.8713,463.653,0.52923,0.0,0.0
2325,581,50.2371,50.7824,149.885,98.9928,93.5623,0.0106308,0.156407,20.8708,463.553,0.498823,0.0,0.0
2356,588.75,49.7722,50.433,151.56,98.9657,93.7792,0.0110585,0.153738,20.8759,463.483,0.475932,0.0,0.0
2387,596.5,49.0392,49.7063,147.044,98.9745,94.0536,0.0118942,0.152552,20.8768,463.323,0.450877,0.0,0.0
2418,604.25,48.765,49.3183,148.068,98.9848,93.8221,0.0122627,0.151609,20.8786,463.203,0.473588,0.0,0.0
2449,612,48.1374,48.3609,148.411,98.9577,94.3998,0.0122623,0.151544,20.8782,463.073,0.416898,0.0,0.0
2480,619.75,47.3765,48.2901,151.083,98.9486,94.4039,0.0122852,0.151466,20.8799,462.973,0.4157,0.0,0.0
2511,627.5,47.3012,47.7796,148.528,98.9402,93.6734,0.0120809,0.147467,20.8858,462.893,0.483636,0.0,0.0
2542,635.25,46.4115,46.4678,151.425,98.9637,94.2097,0.0128738,0.149266,20.8818,462.752,0.435257,0.0,0.0
2573,643,45.9504,46.023,150.422,98.9414,93.7451,0.0133545,0.150495,20.8799,462.652,0.476972,0.0,0.0
2604,650.75,45.0148,45.7518,151.043,98.9311,93.8489,0.013623,0.146604,20.8871,462.542,0.466265,0.0,0.0
2635,658.5,45.1328,45.4487,148.499,98.9044,93.5566,0.0129421,0.143102,20.8916,462.432,0.491459,0.0,0.0
2666,666.25,44.9017,45.4861,151.805,98.8574,93.9689,0.0127609,0.142097,20.8938,462.302,0.448382,0.0,0.0
2697,674,44.4266,45.3004,151.315,98.806,93.8108,0.0123029,0.142049,20.8934,462.192,0.458674,0.0,0.0
2728,681.75,44.4398,44.7958,152.447,98.7933,94.245,0.012463,0.14156,20.8942,462.112,0.416708,0.0,0.0
2759,689.5,44.2467,44.907,152.992,98.7555,94.7043,0.0125126,0.141522,20.8923,462.032,0.370338,0.0,0.0
2790,697.25,43.9451,44.2079,149.19,98.7447,93.8209,0.0121143,0.141476,20.891,461.892,0.45223,0.0,0.0
2821,705,43.8242,43.7484,151.093,98.7407,94.4444,0.0117692,0.140104,20.8927,461.812,0.393312,0.0,0.0
2852,712.75,43.1804,43.7968,148.11,98.734,94.1302,0.0116278,0.139404,20.8948,461.701,0.422166,0.0,0.0
2883,720.5,43.0864,44.2194,148.832,98.7332,94.1092,0.0118,0.13768,20.9014,461.591,0.424076,0.0,0.0
2914,728.25,43.2482,43.5067,152.134,98.7367,93.7925,0.0116985,0.13731,20.9026,461.511,0.454192,0.0,0.0
2945,736,43.3157,43.1003,148.445,98.7965,94.2446,0.0112322,0.136217,20.9045,461.391,0.417032,0.0,0.0
2976,743.75,42.8061,43.4033,151.141,98.8415,94.2766,,,,461.371,0.418053,0.0,0.0
3001,750,42.7666,43.1128,152.724,98.8475,94.787,,,,461.251,0.370852,0.0,0.0

File: EPDM_Membrane_Cone_HF75-Frame+GridScalar_220225_R2.csv
LABORATORY,FSRI
TEST IDENT,EPDM_HF75_2
OPERATOR,Dow
MATERIAL,EPDM Roofing Membrane
ORIENTATION,Horizontal
HEAT FLUX,75
SURF AREA,0.00884
C FACTOR,0.0370678
SPEC HOLDER DIFF,380
SPECIMEN MASS,81.8
SCAN TIME,0.25
O2 DELAY TIME,11
CO DELAY TIME,11
CO2 DELAY TIME,8
FLOW FACTOR,1
SCAN COUNT,2634
TIME TO IGN,14.25
END OF TEST SCAN,2154
END OF TEST TIME,538.5
TEST STATUS,1
PRE TEST CMT,Dimensions: 100.09 x 100.78 x 5.98 mm; with frame and grid

File: EPDM_Membrane_Cone_HF75-Frame+GridScalar_220225_R3.csv
LABORATORY,FSRI
TEST IDENT,EPDM_HF75_3
OPERATOR,Dow
MATERIAL,EPDM Roofing Membrane
ORIENTATION,Horizontal
HEAT FLUX,75
SURF AREA,0.00884
C FACTOR,0.0370678
SPEC HOLDER DIFF,379.1
SPECIMEN MASS,81.9
SCAN TIME,0.25
O2 DELAY TIME,11
CO DELAY TIME,11
CO2 DELAY TIME,8
FLOW FACTOR,1
SCAN COUNT,2585
TIME TO IGN,12.5
END OF TEST SCAN,2105
END OF TEST TIME,526.25
TEST STATUS,1
PRE TEST CMT,Dimensions: 100.47 x 100.15 x 5.94 mm; with frame and grid

File: EPDM_Membrane_Cone_HF75-Frame+GridScan_220225_R2.csv
Names,Time,Stack TC,Smoke TC,Exh Press,Smoke Comp,Smoke Meas,CO Meter,CO2 Meter,O2 Meter,Sample Mass,Ext Coeff,Start Test,Flame Verif
Chan Gain,,500,500,1,1,1,1,1,1,1,1,1.0,1.0
Offset,,0,0,0.137915,0,0,0,0,0,0,0,0.0,0.0
Gain,,1,1,25.011,15.3125,15.3273,1,1,1,1.00096,1.02035,1.0,1.0
Units,sec,C,C,Pa,%,%,%,%,%,g,/m,,
Baseline,,44.4634,45.5979,166.862,115.498,108.876,-0.000420369,0.0517392,21.0427,-869.561,0.528637,,
27,6.5,41.9457,43.2866,165.847,115.591,108.63,-0.000511699,0.05201,21.0399,159.473,0.555861,0.0,0.0
54,13.25,42.2796,43.7033,171.241,115.594,106.264,0.000331676,0.0555687,21.0373,159.393,0.753278,0.0,0.0
81,20,43.551,46.0507,148.254,115.599,59.8339,0.00973212,0.238262,20.6793,158.942,5.89436,0.0,0.0
108,26.75,49.617,51.192,138.15,115.6,50.8049,0.0215634,0.471695,20.268,158.162,7.35855,0.0,0.0
135,33.5,56.7773,60.1679,132.014,115.624,48.2491,0.029564,0.670181,19.9322,157.151,7.82237,0.0,0.0
162,40.25,65.3539,69.9682,131.395,115.647,47.3922,0.0334291,0.751261,19.8127,156.17,7.98458,0.0,0.0
189,47,71.4632,77.4564,132.867,115.661,46.2443,0.0333975,0.75602,19.8053,155.189,8.20511,0.0,0.0
216,53.75,76.9415,84.3611,131.762,115.693,45.9422,0.0327301,0.752188,19.8204,154.188,8.26625,0.0,0.0
243,60.5,81.2299,89.5686,136.597,115.705,48.1495,0.031126,0.726081,19.8658,153.227,7.84717,0.0,0.0
270,67.25,83.8886,92.715,135.566,115.725,47.2799,0.0299121,0.695109,19.923,152.346,8.01184,0.0,0.0
297,74,86.6678,95.6159,134.644,115.74,50.0093,0.0293826,0.664887,19.967,151.465,7.51064,0.0,0.0
324,80.75,88.9879,98.1916,138.144,115.767,49.2983,0.027897,0.660296,19.9769,150.574,7.64093,0.0,0.0
351,87.5,90.4303,100.725,136.037,115.788,54.2378,0.0271555,0.646537,20.0071,149.703,6.78786,0.0,0.0
378,94.25,92.0063,101.549,143.339,115.788,55.1859,0.0272149,0.642265,20.0136,148.813,6.63279,0.0,0.0
405,101,93.4211,103.379,139.408,115.785,48.4114,0.0271653,0.632377,20.0253,148.052,7.80475,0.0,0.0
432,107.75,93.887,104.275,137.528,115.783,52.6572,0.0265623,0.627025,20.0341,147.181,7.05217,0.0,0.0
459,114.5,94.8154,105.208,138.901,115.78,48.9236,0.026777,0.621884,20.0425,146.34,7.71023,0.0,0.0
486,121.25,95.7163,105.748,142.429,115.755,51.8387,0.0267635,0.618077,20.0415,145.499,7.19023,0.0,0.0
513,128,96.0591,106.659,139.475,115.738,48.8871,0.0274104,0.625911,20.0244,144.629,7.71362,0.0,0.0
540,134.75,96.7679,107.751,133.908,115.729,47.2682,0.0288312,0.657921,19.9712,143.718,8.01438,0.0,0.0
567,141.5,99.0094,109.584,130.317,115.737,46.0867,0.0323917,0.714556,19.8536,142.717,8.24153,0.0,0.0
594,148.25,101.313,113.557,130.136,115.684,41.4527,0.0351431,0.803426,19.7105,141.606,9.18594,0.0,0.0
621,155,103.894,116.394,130.534,115.657,43.8181,0.0348824,0.820221,19.6917,140.465,8.68711,0.0,0.0
648,161.75,106.498,118.689,127.927,115.614,45.9992,0.0330444,0.780916,19.7631,139.454,8.24903,0.0,0.0
675,168.5,106.988,119.567,132.709,115.581,48.533,0.031152,0.737765,19.8363,138.493,7.76657,0.0,0.0
702,175.25,107.29,120.177,132.674,115.637,44.9767,0.0303029,0.696359,19.8958,137.502,8.45204,0.0,0.0
729,182,107.777,119.696,133.206,115.709,50.2254,0.0293181,0.67754,19.9272,136.581,7.46966,0.0,0.0
756,188.75,107.266,119.408,131.592,115.819,51.5585,0.0278823,0.655937,19.9644,135.67,7.24368,0.0,0.0
783,195.5,107.739,118.737,134.364,115.901,53.2709,0.0270497,0.636655,19.9959,134.779,6.95763,0.0,0.0
810,202.25,106.726,118.873,132.204,115.94,51.9102,0.0261444,0.615928,20.0321,134.008,7.19218,0.0,0.0
837,209,106.167,118,143.294,115.926,51.7114,0.0253232,0.59253,20.0726,133.228,7.22544,0.0,0.0
864,215.75,105.484,116.916,132.561,115.965,55.4375,0.024758,0.580431,20.0897,132.437,6.60571,0.0,0.0
891,222.5,105.268,116.074,138.608,115.974,51.0701,0.0249101,0.574082,20.1002,131.586,7.34084,0.0,0.0
918,229.25,104.518,115.615,134.823,116.026,55.9689,0.0245804,0.574043,20.1023,130.835,6.52505,0.0,0.0
945,236,104.224,115.049,137.582,116.06,51.5098,0.0251878,0.564887,20.1111,130.125,7.27075,0.0,0.0
972,242.75,103.11,114.028,137.192,116.08,51.7208,0.0255014,0.563056,20.1082,129.334,7.23575,0.0,0.0
999,249.5,102.911,113.573,135.872,116.097,55.1082,0.0259349,0.570081,20.1009,128.503,6.6692,0.0,0.0
1026,256.25,103.318,112.884,137.073,116.106,51.2844,0.0251508,0.571048,20.097,127.712,7.31358,0.0,0.0
1053,263,103.157,113.306,141.867,116.077,50.1936,0.0250293,0.567443,20.102,126.972,7.50377,0.0,0.0
1080,269.75,102.751,112.816,135.536,116.057,53.176,0.0244723,0.547325,20.1292,126.111,6.98564,0.0,0.0
1107,276.5,102.153,112.483,137.659,116.017,53.2606,0.0239644,0.533129,20.1553,125.43,6.9683,0.0,0.0
1134,283.25,101.913,111.241,140.155,115.921,52.4308,0.022218,0.503133,20.2076,124.689,7.10142,0.0,0.0
1161,290,100.678,110.195,140.756,115.832,55.6649,0.0208201,0.48212,20.245,124.029,6.55883,0.0,0.0
1188,296.75,99.9107,108.856,140.411,115.784,57.9274,0.0198265,0.458449,20.2877,123.398,6.19852,0.0,0.0
1215,303.5,98.6878,107.581,145.922,115.749,55.1419,0.0183921,0.431701,20.3354,122.788,6.63685,0.0,0.0
1242,310.25,96.3657,106.15,145.969,115.746,58.4625,0.0171885,0.405601,20.3845,122.157,6.11329,0.0,0.0
1269,317,95.2132,103.79,148.193,115.838,62.052,0.0160741,0.386927,20.4202,121.597,5.58703,0.0,0.0
1296,323.75,94.0474,101.889,146.047,115.87,62.6652,0.0148245,0.369268,20.4542,121.076,5.50151,0.0,0.0
1323,330.5,92.7518,100.19,147.063,115.914,64.4273,0.0138556,0.35561,20.4818,120.586,5.25674,0.0,0.0
1350,337.25,91.0427,97.8712,150.596,115.932,67.2628,0.0129145,0.342897,20.5037,120.085,4.87258,0.0,0.0
1377,344,89.5483,95.6418,149.979,115.968,68.3536,0.0120237,0.331952,20.5289,119.615,4.73137,0.0,0.0
1404,350.75,88.8466,94.4087,146.482,115.98,70.6189,0.0102532,0.320287,20.5526,119.214,4.44052,0.0,0.0
1431,357.5,86.6406,93.4309,149.764,116.01,72.489,0.00922114,0.306418,20.5806,118.804,4.2089,0.0,0.0
1458,364.25,86.0726,91.5722,149.95,116.015,77.4523,0.00784505,0.292149,20.6084,118.413,3.61649,0.0,0.0
1485,371,84.4761,89.7698,144.9,116.031,77.7601,0.006943,0.281294,20.6328,118.073,3.58222,0.0,0.0
1512,377.75,83.0197,88.2362,151.375,116.009,80.1283,0.00598047,0.269739,20.6568,117.803,3.312,0.0,0.0
1539,384.5,81.8013,86.7505,153.418,116.002,83.9517,0.00540354,0.260388,20.6748,117.453,2.89426,0.0,0.0
1566,391.25,80.3055,85.378,151.061,116.019,84.9083,0.0048623,0.246828,20.7009,117.192,2.79418,0.0,0.0
1593,398,79.6228,83.68,153.89,116.035,89.7359,0.00381929,0.236272,20.7189,116.982,2.30049,0.0,0.0
1620,404.75,78.153,82.6084,155.031,116.077,90.3936,0.0029389,0.224824,20.7452,116.692,2.2383,0.0,0.0
1647,411.5,77.3866,80.6692,154.516,116.066,94.0117,0.00273302,0.214651,20.7668,116.462,1.88621,0.0,0.0
1674,418.25,76.4648,79.9157,153.879,116.06,93.7787,0.00211832,0.205675,20.7832,116.271,1.90798,0.0,0.0
1701,425,74.3655,78.8559,152.737,116.061,98.4633,0.00212968,0.198191,20.7989,116.081,1.47176,0.0,0.0
1728,431.75,74.1414,77.0478,156.654,116.078,99.6612,0.00193128,0.18794,20.8172,115.941,1.36486,0.0,0.0
1755,438.5,73.2924,75.5418,155.36,116.103,100.602,0.00154727,0.179727,20.8317,115.761,1.28268,0.0,0.0
1782,445.25,71.7317,73.9606,157.154,116.126,102.109,0.00127422,0.173248,20.8459,115.611,1.15132,0.0,0.0
1809,452,70.7055,73.5402,153.701,116.13,103.654,0.00101781,0.166813,20.8561,115.501,1.01727,0.0,0.0
1836,458.75,70.0014,72.1953,155.206,116.131,104.357,0.000435342,0.160855,20.8668,115.391,0.956765,0.0,0.0
1863,465.5,68.6536,72.0622,158.261,116.159,105.589,0.00105272,0.156315,20.8749,115.25,0.853953,0.0,0.0
1890,472.25,67.6976,70.8382,157.152,116.177,107.215,0.000833109,0.150296,20.8876,115.14,0.718508,0.0,0.0
1917,479,67.2782,69.1721,158.279,116.172,107.662,0.00090936,0.145405,20.8993,115.07,0.680896,0.0,0.0
1944,485.75,66.5947,68.3158,156.182,116.19,107.237,0.00107939,0.140569,20.9093,114.94,0.717679,0.0,0.0
1971,492.5,65.6119,67.4229,160.067,116.206,107.948,0.00130085,0.136829,20.9162,114.86,0.659795,0.0,0.0
1998,499.25,64.5347,66.3974,156.953,116.185,108.006,0.00131649,0.131991,20.9241,114.79,0.653293,0.0,0.0
2025,506,63.8578,65.9675,161.015,116.156,108.311,0.00190527,0.130606,20.9271,114.72,0.62586,0.0,0.0
2052,512.75,63.5652,64.7326,158.218,116.128,109.154,0.00166242,0.127338,20.9328,114.63,0.554351,0.0,0.0
2079,519.5,62.0927,64.8655,159.212,116.04,108.202,0.00183257,0.126949,20.9354,114.55,0.6259,0.0,0.0
2106,526.25,61.8514,63.2543,160.032,115.978,108.329,0.00238725,0.125518,20.9375,114.49,0.610698,0.0,0.0
2133,533,61.6332,63.1362,162.619,115.844,108.137,0.00264444,0.124068,20.9407,114.44,0.616239,0.0,0.0
2160,539.75,60.4947,61.5367,163.342,115.581,107.898,0.00270533,0.122254,20.9463,114.38,0.615694,0.0,0.0
2187,546.5,59.4972,60.9791,162.452,115.672,107.551,0.00261712,0.12145,20.9483,114.29,0.651549,0.0,0.0
2214,553.25,58.6628,60.1653,164.763,115.858,108.304,0.00315372,0.120299,20.9505,114.199,0.603437,0.0,0.0
2241,560,59.0039,60.1361,162.19,116.095,108.38,0.00343795,0.118352,20.9538,114.149,0.615535,0.0,0.0
2268,566.75,58.5458,59.6768,166.141,116.362,109.695,0.00358243,0.118894,20.9518,113.999,0.528077,0.0,0.0
2295,573.5,57.6414,59.4346,160.127,116.523,109.031,0.00392236,0.118286,20.9537,113.929,0.594827,0.0,0.0
2322,580.25,57.4236,57.787,162.754,116.464,108.916,0.00447036,0.119409,20.9527,113.869,0.599756,0.0,0.0
2349,587,57.2356,58.0699,163.73,116.077,107.702,0.00469101,0.119019,20.9536,113.779,0.670204,0.0,0.0
2376,593.75,57.0905,58.0176,164.609,115.411,107.129,0.00477575,0.117501,20.9543,113.749,0.666492,0.0,0.0
2403,600.5,56.0239,58.0699,163.467,114.709,106.82,0.00492134,0.116905,20.9563,113.689,0.637762,0.0,0.0
2430,607.25,56.2786,57.5682,161.736,114.29,107.168,0.00481366,0.115763,20.9564,113.629,0.575884,0.0,0.0
2457,614,56.2137,57.3738,163.265,114.455,106.26,0.00479621,0.115773,20.9559,113.549,0.664942,0.0,0.0
2484,620.75,55.2527,56.9667,166.272,115.014,107.176,0.00487945,0.116227,20.9551,113.459,0.631692,0.0,0.0
2511,627.5,55.0998,56.1087,160.717,115.604,107.306,0.00522996,0.117638,20.9528,113.409,0.666689,0.0,0.0
2538,634.25,55.189,56.4688,160.23,115.771,107.069,0.00514641,0.115656,20.9577,113.349,0.699471,0.0,0.0
2565,641,55.0417,56.5455,166.315,115.467,106.953,0.0055834,0.115329,20.9574,113.279,0.685586,0.0,0.0
2592,647.75,55.1436,56.5164,162.513,115.27,106.841,,0.116149,,113.188,0.67961,0.0,0.0
2619,654.5,54.2622,55.2846,163.254,116.189,107.673,,,,113.128,0.681294,0.0,0.0
2634,658.25,54.8219,55.6337,166.699,116.149,108.609,,,,113.068,0.600731,0.0,0.0

File: EPDM_Membrane_Cone_HF75Scalar_220225_R1.csv
LABORATORY,FSRI
TEST IDENT,EPDM_HF75_1
OPERATOR,Dow
MATERIAL,EPDM Roofing Membrane
ORIENTATION,Horizontal
HEAT FLUX,75
SURF AREA,0.00884
C FACTOR,0.0370678
SPEC HOLDER DIFF,372.59
SPECIMEN MASS,81.7
SCAN TIME,0.25
O2 DELAY TIME,11
CO DELAY TIME,11
CO2 DELAY TIME,8
FLOW FACTOR,1
SCAN COUNT,2693
TIME TO IGN,14.5
END OF TEST SCAN,2213
END OF TEST TIME,553.25
TEST STATUS,1
PRE TEST CMT,Dimensions: 100.8 x 99.90 x 5.88 mm; with frame and grid

File: EPDM_Membrane_Cone_HF75Scalar_220311_R4.csv
LABORATORY,FSRI
TEST IDENT,EPDM_HF75_4
OPERATOR,Dow
MATERIAL,EPDM Membrane
ORIENTATION,Horizontal
HEAT FLUX,75
SURF AREA,0.00884
C FACTOR,0.0391476
SPEC HOLDER DIFF,-566
SPECIMEN MASS,81.4
SCAN TIME,0.25
O2 DELAY TIME,11
CO DELAY TIME,11
CO2 DELAY TIME,8
FLOW FACTOR,1
SCAN COUNT,3054
TIME TO IGN,8
END OF TEST SCAN,2574
END OF TEST TIME,643.5
TEST STATUS,1
PRE TEST CMT,Thickness: 6.04 mm; with frame; primary interest on time to ignition
POST TEST CMT,After ignition the sample expanded vertically more than two centimeters. Small charred pieces of sample rolled off of the sample holder two or three times.