Folder: fsri_materials_database/01_Data/EPDM_Membrane/HFM

Note: 01_Data/README.md
# Materials and Products Database
## 01_Data

Raw data generated from each apparatus are included here in plain-text format. The data is organized first by material, next by the short name of test apparatus used, and where applicable additional filtering by test settings.

### material.json

Each material directory contains a json file of the same name as the material. This file links the data stored in the repository as well as data and graphs produced by the accompanying scripts (__02_Scripts__) to the respective landing page for the material on the front-end website.

File: EPDM_Membrane_Density_Wet_R1.csv
,EPDM_Membrane_WET_1
Sample Mass [g],166.7
Sample Volume [cm3],139.4
Sample Density [kg/m3],1196

File: EPDM_Membrane_Density_Wet_R2.csv
,EPDM_Membrane_WET_2
Sample Mass [g],163.8
Sample Volume [cm3],136.8
Sample Density [kg/m3],1197

File: EPDM_Membrane_Density_Wet_R3.csv
,EPDM_Membrane_WET_3
Sample Mass [g],162.5
Sample Volume [cm3],134.5
Sample Density [kg/m3],1208