Folder: fsri_materials_database/01_Data/EPDM_Membrane/MCC (part 2)

File: EPDM_Membrane_MCC_30K_min_211206_R3.txt
Sample ID:	C:\MCC\MCC Cal\Test\EPDM_Membrane_MCC_30K_min_211206_R3.txt
Sample Weight (mg):	4.2
Heating Rate (C/s):	0.5
Combustor Temp (C):	900
N2 Flow Rate (cc/min):	80
O2 Flow Rate (cc/min):	20
Calibration File:	C:\MCC\MCC Cal\Coeff1 JN10440_30_210304.txt.txt
T Correction Coefficients:	0	1.024463	0
Time Shift (s):	14
*
Time (s)	Temperature (C)	N2 flow rate (cc/min)	O2 flow rate (cc/min)	Flow Rate (cc/min)	Oxygen (%)	HRR (W/g)	Heating rate (C/s)
0.000	110.862	80.000	19.996	103.042	20.018	-0.343	-0.012
8.000	110.850	80.002	19.993	103.054	20.012	0.158	-0.023
16.000	110.992	80.000	19.995	103.199	19.996	1.389	0.020
24.000	111.537	80.001	19.995	103.166	19.989	1.865	0.074
32.000	112.256	80.001	19.995	103.158	19.993	1.610	0.103
40.000	113.221	79.998	19.994	103.226	19.985	2.183	0.184
48.000	114.562	79.998	19.996	103.242	19.979	2.625	0.174
56.000	116.259	79.999	19.997	103.256	19.974	3.070	0.252
64.000	118.255	80.000	19.995	103.270	19.971	3.288	0.253
72.000	120.588	80.000	19.995	103.281	19.969	3.443	0.333
80.001	123.234	79.999	19.995	103.289	19.963	3.910	0.328
88.000	126.254	80.000	19.995	103.308	19.965	3.710	0.382
96.000	129.396	80.000	19.994	103.307	19.970	3.329	0.407
104.000	132.732	80.000	19.994	103.298	19.970	3.342	0.438
112.000	136.284	80.000	19.996	103.303	19.967	3.570	0.437
120.000	139.911	79.999	19.995	103.300	19.963	3.893	0.467
128.000	143.646	79.999	19.995	103.303	19.965	3.741	0.498
136.000	147.450	79.999	19.995	103.303	19.967	3.615	0.481
144.000	151.433	79.999	19.995	103.289	19.963	3.924	0.503
152.000	155.300	80.000	19.998	103.298	19.959	4.161	0.483
160.000	159.257	80.000	19.996	103.295	19.957	4.330	0.490
168.000	163.210	80.000	19.994	103.305	19.954	4.595	0.482
176.000	167.155	79.999	19.995	103.287	19.958	4.247	0.485
184.000	171.203	80.000	19.994	103.271	19.954	4.549	0.484
192.000	175.181	80.003	19.994	103.275	19.951	4.782	0.530
200.000	179.161	80.001	19.994	103.263	19.945	5.267	0.510
208.000	183.159	79.999	19.996	103.264	19.941	5.561	0.506
216.000	187.171	79.999	19.996	103.263	19.934	6.144	0.523
224.000	191.157	80.000	19.997	103.254	19.929	6.487	0.529
232.000	195.102	79.999	19.996	103.256	19.923	6.971	0.506
240.000	199.065	79.999	19.997	103.243	19.916	7.496	0.512
248.000	203.062	80.001	19.996	103.259	19.907	8.218	0.504
256.000	207.003	79.999	19.996	103.240	19.897	8.950	0.493
264.000	210.931	80.000	19.996	103.230	19.890	9.504	0.517
272.000	214.903	80.002	19.996	103.224	19.886	9.809	0.493
280.000	218.862	80.003	19.994	103.250	19.879	10.346	0.499
288.000	222.858	80.000	19.996	103.237	19.874	10.745	0.478
296.000	226.876	79.999	19.995	103.239	19.868	11.168	0.487
304.000	230.927	79.998	19.996	103.237	19.860	11.749	0.491
312.000	234.970	79.997	19.995	103.228	19.855	12.198	0.522
320.000	238.943	79.998	19.996	103.229	19.848	12.681	0.489
328.000	242.893	80.000	19.997	103.225	19.843	13.058	0.489
336.000	246.930	80.001	19.996	103.224	19.835	13.728	0.530
344.000	250.973	80.000	19.995	103.223	19.831	14.014	0.541
352.000	254.879	80.001	19.995	103.225	19.824	14.561	0.496
360.000	258.826	80.003	19.994	103.225	19.821	14.769	0.470
368.000	262.839	79.998	19.995	103.226	19.816	15.138	0.505
376.000	266.837	80.000	19.994	103.221	19.810	15.583	0.489
384.000	270.832	80.000	19.995	103.226	19.813	15.367	0.508
392.000	274.913	80.000	19.995	103.226	19.807	15.869	0.496
400.000	278.958	79.998	19.995	103.203	19.804	16.059	0.519
408.000	282.919	80.000	19.995	103.224	19.796	16.666	0.482
416.000	286.935	80.002	19.996	103.216	19.796	16.673	0.510
424.000	290.976	79.999	19.998	103.220	19.796	16.702	0.518
432.000	294.978	80.000	19.996	103.222	19.791	17.076	0.493
440.000	298.996	80.002	19.995	103.220	19.797	16.636	0.497
448.000	303.011	80.003	19.995	103.200	19.793	16.956	0.519
456.000	307.093	80.000	19.995	103.198	19.787	17.371	0.529
464.000	311.087	80.000	19.996	103.200	19.777	18.107	0.496
472.000	315.133	80.000	19.995	103.195	19.768	18.860	0.468
480.000	319.253	80.000	19.995	103.213	19.746	20.511	0.518
488.000	323.260	80.000	19.996	103.189	19.723	22.294	0.503
496.000	327.234	80.002	19.995	103.227	19.695	24.429	0.504
504.000	331.246	80.000	19.994	103.189	19.660	27.102	0.488
512.000	335.367	80.000	19.995	103.184	19.613	30.697	0.512
520.000	339.427	80.002	19.996	103.184	19.552	35.419	0.528
528.000	343.405	80.002	19.995	103.174	19.480	40.864	0.506
536.000	347.432	80.001	19.995	103.148	19.382	48.379	0.495
544.000	351.446	80.000	19.996	103.150	19.275	56.612	0.501
552.000	355.482	80.001	19.995	103.154	19.149	66.227	0.508
560.000	359.572	80.001	19.996	103.143	19.006	77.215	0.523
568.000	363.578	79.999	19.995	103.134	18.855	88.714	0.519
576.000	367.685	80.001	19.994	103.113	18.708	99.989	0.535
584.000	371.685	80.002	19.995	103.086	18.585	109.382	0.492
592.000	375.800	80.001	19.996	103.090	18.500	115.915	0.501
600.000	379.854	80.002	19.995	103.094	18.453	119.499	0.535
608.000	383.931	80.004	19.996	103.077	18.465	118.570	0.510
616.000	387.983	80.000	19.996	103.079	18.531	113.545	0.502
624.000	392.041	79.999	19.996	103.077	18.634	105.638	0.494
632.000	396.214	80.001	19.995	103.079	18.751	96.740	0.541
640.000	400.311	80.000	19.995	103.087	18.872	87.475	0.506
648.000	404.393	79.999	19.996	103.107	18.989	78.486	0.509
656.000	408.467	80.000	19.996	103.117	19.076	71.854	0.520
664.001	412.518	80.002	19.995	103.110	19.148	66.279	0.514
672.001	416.530	80.001	19.996	103.113	19.204	62.038	0.488
680.000	420.545	80.002	19.995	103.117	19.246	58.826	0.503
688.000	424.561	80.003	19.995	103.132	19.287	55.651	0.498
696.000	428.620	79.999	19.996	103.114	19.324	52.835	0.531
704.000	432.679	79.998	19.996	103.134	19.366	49.623	0.499
712.000	436.739	80.000	19.996	103.135	19.415	45.850	0.507
720.000	440.802	80.000	19.996	103.157	19.464	42.086	0.535
728.000	444.855	80.000	19.995	103.156	19.518	37.962	0.500
736.000	448.916	80.000	19.995	103.152	19.570	33.965	0.515
744.000	453.003	80.001	19.995	103.147	19.626	29.743	0.549
752.000	457.034	80.000	19.995	103.149	19.677	25.800	0.519
760.000	461.153	80.001	19.995	103.150	19.720	22.487	0.473
768.000	465.276	80.000	19.995	103.162	19.766	18.965	0.497
776.000	469.317	80.002	19.996	103.159	19.803	16.160	0.535
784.000	473.478	79.999	19.995	103.147	19.836	13.608	0.544
792.000	477.572	79.999	19.996	103.149	19.867	11.249	0.527
800.000	481.664	80.000	19.996	103.159	19.890	9.476	0.510
808.000	485.807	79.999	19.994	103.150	19.908	8.111	0.514
816.000	489.891	79.999	19.994	103.168	19.932	6.228	0.502
824.000	493.989	80.000	19.995	103.166	19.945	5.256	0.534
832.000	498.135	80.000	19.994	103.161	19.958	4.280	0.516
840.000	502.294	80.000	19.995	103.164	19.967	3.591	0.541
848.000	506.393	80.003	19.994	103.166	19.978	2.729	0.525
856.000	510.473	80.002	19.994	103.173	19.982	2.449	0.522
864.000	514.643	79.999	19.996	103.169	19.982	2.432	0.515
872.000	518.790	80.000	19.995	103.147	19.986	2.100	0.506
880.000	522.859	79.999	19.994	103.151	19.990	1.844	0.525
888.000	526.956	79.998	19.996	103.182	19.994	1.519	0.511
896.000	531.063	79.998	19.995	103.160	19.995	1.415	0.532
904.000	535.171	79.999	19.994	103.159	19.996	1.351	0.516
912.000	539.243	80.003	19.996	103.147	19.993	1.570	0.510
920.000	543.297	80.002	19.996	103.166	19.993	1.551	0.499
928.000	547.331	80.001	19.994	103.146	19.995	1.400	0.558
936.000	551.507	80.003	19.994	103.210	19.999	1.114	0.548
944.000	555.674	80.001	19.995	103.168	19.993	1.554	0.564
952.000	559.766	80.000	19.995	103.165	19.994	1.479	0.533
960.000	563.849	79.998	19.997	103.177	19.995	1.408	0.455
968.000	568.250	79.998	19.995	103.152	19.996	1.344	0.584
976.000	572.102	79.999	19.996	103.178	19.999	1.154	0.649
984.001	576.187	79.999	19.996	103.153	19.992	1.647	0.513
992.000	580.191	80.001	19.995	103.155	19.994	1.527	0.498
1000.000	584.125	80.002	19.995	103.162	19.994	1.530	0.487
1008.000	587.975	80.001	19.996	103.162	19.991	1.709	0.483
1016.000	591.968	80.002	19.995	103.157	19.997	1.274	0.488
1024.000	596.047	79.999	19.994	103.151	19.999	1.099	0.485
1032.000	600.076	79.999	19.995	103.152	19.999	1.129	0.506
1040.001	604.177	80.008	19.994	103.174	19.995	1.410	0.522
1048.000	608.246	79.999	19.996	103.159	19.996	1.379	0.495
1056.000	612.395	80.001	19.996	103.165	19.992	1.678	0.543
1064.000	616.604	80.001	19.995	103.181	19.993	1.569	0.554
1072.000	620.764	79.992	19.998	103.180	19.994	1.534	0.560
1080.000	624.944	79.998	19.998	103.190	19.994	1.543	0.548
1088.000	629.051	80.002	19.996	103.175	19.993	1.569	0.532
1096.000	633.209	80.001	19.996	103.190	19.998	1.208	0.519
1104.000	637.439	80.000	19.995	103.174	19.995	1.426	0.552
1112.000	641.503	80.002	19.995	103.187	19.989	1.897	0.471
1120.000	645.568	80.001	19.995	103.188	19.990	1.844	0.494
1128.000	649.534	79.998	19.996	103.201	19.992	1.695	0.482
1136.000	653.564	79.991	19.996	103.192	19.994	1.518	0.532
1144.000	657.640	79.999	19.997	103.204	19.992	1.633	0.527
1152.000	661.731	80.000	19.996	103.193	19.993	1.552	0.530
1160.001	665.789	79.993	19.995	103.196	19.987	2.019	0.479
1168.000	669.792	79.999	19.995	103.193	19.985	2.209	0.487
1176.001	673.897	80.024	19.993	103.202	19.986	2.096	0.562
1184.000	677.990	79.992	19.995	103.186	19.988	1.993	0.494
1192.000	682.076	80.002	19.995	103.187	19.990	1.823	0.508
1200.001	686.106	79.989	19.998	103.205	19.992	1.662	0.451
1208.000	690.173	80.001	19.994	103.170	19.991	1.752	0.441
1216.000	694.306	80.003	19.995	103.147	19.990	1.799	0.543
1224.001	698.378	79.994	19.995	103.163	19.993	1.557	0.526
1232.000	702.438	79.999	19.996	103.150	19.999	1.158	0.509
1240.000	706.495	80.001	19.995	103.146	19.990	1.796	0.503
1248.000	710.529	80.033	19.990	103.154	19.991	1.718	0.534
1256.000	714.581	80.000	19.997	103.183	19.996	1.323	0.530
1264.000	718.706	80.006	19.999	103.134	19.992	1.626	0.561
1272.000	722.671	79.991	19.996	103.155	19.987	2.032	0.484
1280.000	726.690	80.007	19.995	103.150	19.990	1.820	0.490
1288.000	730.726	79.998	19.995	103.154	19.992	1.645	0.502
1296.000	734.854	79.998	19.995	103.164	19.986	2.093	0.533
1304.000	738.987	80.001	19.995	103.132	19.984	2.240	0.510
1312.001	743.121	80.002	19.994	103.150	19.987	2.034	0.525
1313.000	743.600	80.005	19.995	103.149	19.988	1.999	0.503