Folder: fsri_materials_database/01_Data/R13_Fiberglas_InsulationB/MCC

Note: 01_Data/README.md
# Materials and Products Database
## 01_Data

Raw data generated from each apparatus are included here in plain-text format. The data is organized first by material, next by the short name of test apparatus used, and where applicable additional filtering by test settings.

### material.json

Each material directory contains a json file of the same name as the material. This file links the data stored in the repository as well as data and graphs produced by the accompanying scripts (__02_Scripts__) to the respective landing page for the material on the front-end website.

File: R13_Fiberglas_InsulationB_MCC_30K_min_220216_R3.txt
Sample ID:	C:\MCC\MCC Cal\Test\R13_Fiberglas_InsulationB_MCC_30K_min_220216_R3.txt
Sample Weight (mg):	4.39
Heating Rate (C/s):	0.5
Combustor Temp (C):	900
N2 Flow Rate (cc/min):	80
O2 Flow Rate (cc/min):	20
Calibration File:	C:\MCC\MCC Cal\Coeff1 JN10440_30_210304.txt.txt
T Correction Coefficients:	0	1.024463	0
Time Shift (s):	14
*
Time (s)	Temperature (C)	N2 flow rate (cc/min)	O2 flow rate (cc/min)	Flow Rate (cc/min)	Oxygen (%)	HRR (W/g)	Heating rate (C/s)
0.001	112.932	80.009	19.994	103.746	19.934	0.201	-0.024
7.500	112.892	80.011	19.993	103.743	19.935	0.127	-0.020
14.999	112.826	80.010	19.994	103.747	19.928	0.678	-0.029
22.499	112.901	80.010	19.993	103.897	19.919	1.369	-0.010
29.999	113.396	80.010	19.994	103.967	19.905	2.415	0.112
37.501	114.386	80.012	19.991	103.984	19.894	3.198	0.138
45.000	115.904	80.011	19.993	103.979	19.891	3.450	0.202
52.500	117.706	80.010	19.993	104.010	19.892	3.317	0.251
59.999	119.924	80.012	19.993	104.008	19.888	3.616	0.317
67.500	122.421	80.012	19.991	104.009	19.888	3.606	0.355
75.000	125.078	80.008	19.994	104.010	19.884	3.948	0.386
82.500	128.006	80.009	19.994	104.029	19.881	4.162	0.395
90.000	131.209	80.010	19.995	104.024	19.880	4.205	0.411
97.500	134.516	80.010	19.994	104.036	19.885	3.854	0.454
105.000	138.063	80.009	19.993	104.017	19.882	4.070	0.492
112.501	141.699	80.009	19.995	104.020	19.885	3.890	0.483
120.001	145.388	80.012	19.993	104.019	19.887	3.736	0.499
127.501	149.196	80.012	19.993	104.018	19.886	3.823	0.511
134.999	153.025	80.011	19.992	104.017	19.892	3.368	0.519
142.500	156.889	80.012	19.993	104.000	19.890	3.501	0.513
149.999	160.755	80.013	19.993	103.988	19.890	3.459	0.513
157.500	164.599	80.012	19.993	103.984	19.895	3.142	0.535
164.999	168.434	80.011	19.992	103.980	19.892	3.331	0.546
172.501	172.215	80.009	19.994	103.977	19.893	3.277	0.487
180.000	175.999	80.010	19.994	103.974	19.893	3.303	0.516
187.500	179.719	80.009	19.994	103.970	19.893	3.234	0.474
195.000	183.380	80.009	19.993	103.963	19.896	3.030	0.501
202.499	187.119	80.010	19.993	103.976	19.896	3.047	0.511
209.999	190.802	80.013	19.992	103.969	19.902	2.636	0.465
217.500	194.456	80.011	19.994	103.954	19.897	3.000	0.504
225.000	198.113	80.011	19.993	103.951	19.899	2.816	0.461
232.499	201.761	80.013	19.994	103.945	19.898	2.917	0.504
240.000	205.393	80.014	19.992	103.943	19.895	3.103	0.482
247.501	209.040	80.010	19.993	103.954	19.900	2.764	0.480
255.000	212.729	80.010	19.993	103.949	19.896	3.075	0.478
262.499	216.397	80.009	19.994	103.942	19.899	2.816	0.479
269.999	220.122	80.013	19.993	103.954	19.897	2.957	0.483
277.501	223.865	80.009	19.995	103.962	19.898	2.903	0.461
284.999	227.647	80.010	19.994	103.938	19.899	2.795	0.504
292.500	231.411	80.011	19.993	103.937	19.899	2.845	0.520
300.000	235.147	80.011	19.992	103.937	19.898	2.933	0.498
307.500	238.861	80.011	19.993	103.930	19.897	2.943	0.475
314.999	242.572	80.011	19.993	103.938	19.899	2.823	0.505
322.500	246.298	80.011	19.992	103.939	19.896	3.033	0.491
330.000	250.098	80.010	19.992	103.931	19.897	3.005	0.514
337.500	253.823	80.009	19.994	103.940	19.897	2.971	0.498
345.000	257.566	80.011	19.992	103.939	19.896	3.057	0.499
352.499	261.291	80.010	19.993	103.935	19.901	2.684	0.470
360.000	265.011	80.010	19.994	103.927	19.900	2.723	0.510
367.501	268.762	80.010	19.994	103.924	19.897	2.955	0.505
375.000	272.533	80.010	19.994	103.970	19.896	3.044	0.509
382.501	276.316	80.010	19.995	103.913	19.897	2.951	0.526
389.999	280.042	80.009	19.993	103.911	19.896	3.068	0.490
397.500	283.776	80.013	19.993	103.921	19.892	3.339	0.488
404.999	287.505	80.012	19.993	103.908	19.895	3.118	0.506
412.499	291.296	80.011	19.993	103.913	19.893	3.229	0.475
420.000	295.297	80.010	19.993	103.922	19.899	2.816	0.523
427.500	298.897	80.011	19.993	103.903	19.900	2.719	0.497
434.999	302.695	80.012	19.992	103.899	19.903	2.557	0.498
442.500	306.456	80.010	19.993	103.902	19.901	2.687	0.507
449.999	310.248	80.010	19.994	103.908	19.903	2.557	0.497
457.499	314.051	80.011	19.993	103.907	19.902	2.593	0.500
465.000	317.789	80.012	19.993	103.901	19.900	2.765	0.486
472.499	321.498	80.011	19.994	103.899	19.902	2.579	0.481
479.999	325.259	80.011	19.994	103.891	19.904	2.457	0.494
487.501	329.024	80.014	19.993	103.896	19.903	2.559	0.513
495.000	332.869	80.011	19.993	103.900	19.902	2.619	0.544
502.500	336.722	80.010	19.993	103.900	19.902	2.575	0.533
509.999	340.538	80.010	19.993	103.897	19.905	2.369	0.521
517.500	344.312	80.010	19.993	103.895	19.905	2.378	0.509
524.999	348.123	80.009	19.993	103.900	19.904	2.457	0.504
532.500	351.934	80.009	19.992	103.902	19.900	2.718	0.518
539.999	355.759	80.011	19.993	103.892	19.899	2.814	0.496
547.500	359.509	80.012	19.993	103.895	19.903	2.555	0.483
555.000	363.298	80.012	19.994	103.893	19.905	2.355	0.530
562.499	367.033	80.011	19.991	103.890	19.902	2.625	0.470
570.000	370.842	80.013	19.993	103.881	19.902	2.597	0.462
577.500	374.646	80.010	19.994	103.896	19.901	2.653	0.498
585.000	378.475	80.011	19.993	103.887	19.897	3.002	0.466
592.500	382.326	80.009	19.992	103.899	19.899	2.844	0.508
600.000	386.120	80.011	19.992	103.890	19.900	2.734	0.524
607.499	389.990	80.009	19.993	103.889	19.903	2.555	0.508
614.999	393.877	80.009	19.993	103.882	19.901	2.684	0.515
622.501	397.736	80.011	19.993	103.884	19.901	2.692	0.504
630.000	401.550	80.013	19.992	103.865	19.903	2.520	0.494
637.499	405.382	80.012	19.993	103.893	19.899	2.849	0.488
644.999	409.217	80.011	19.994	103.822	19.895	3.113	0.509
652.500	412.993	80.012	19.990	103.875	19.901	2.708	0.517
660.000	416.670	80.010	19.993	103.886	19.899	2.816	0.513
667.499	420.445	80.011	19.993	103.870	19.902	2.578	0.480
674.999	424.236	80.010	19.993	103.867	19.901	2.654	0.530
682.499	427.993	80.012	19.995	103.869	19.899	2.846	0.486
690.000	431.792	80.010	19.992	103.875	19.899	2.791	0.489
697.499	435.627	80.010	19.993	103.884	19.900	2.720	0.523
704.999	439.390	80.008	19.994	103.877	19.901	2.670	0.493
712.501	443.145	80.012	19.992	103.861	19.900	2.754	0.515
720.000	446.904	80.012	19.993	103.868	19.902	2.594	0.488
727.500	450.687	80.011	19.993	103.881	19.901	2.682	0.506
735.000	454.441	80.010	19.991	103.870	19.899	2.845	0.476
742.500	458.268	80.014	19.993	103.859	19.899	2.825	0.533
750.000	462.060	80.010	19.995	103.871	19.901	2.650	0.497
757.500	465.815	80.010	19.994	103.865	19.901	2.704	0.509
764.999	469.670	80.010	19.994	103.867	19.902	2.624	0.533
772.499	473.495	80.009	19.994	103.861	19.901	2.668	0.528
779.999	477.389	80.009	19.993	103.863	19.904	2.448	0.526
787.499	481.258	80.009	19.995	103.864	19.903	2.504	0.517
795.000	485.102	80.014	19.992	103.863	19.906	2.273	0.519
802.500	488.986	80.011	19.993	103.861	19.903	2.540	0.539
809.999	492.807	80.013	19.993	103.858	19.902	2.592	0.508
817.499	496.747	80.013	19.992	103.860	19.905	2.406	0.516
825.000	500.625	80.013	19.992	103.851	19.908	2.127	0.550
832.500	504.450	80.012	19.993	103.857	19.907	2.265	0.511
840.000	508.372	80.010	19.994	103.860	19.907	2.259	0.496
847.499	512.248	80.010	19.993	103.861	19.906	2.279	0.458
855.000	516.143	80.011	19.993	103.855	19.907	2.239	0.491
862.500	520.041	80.010	19.994	103.864	19.907	2.267	0.508
870.000	523.882	80.010	19.994	103.851	19.903	2.526	0.490
877.499	527.733	80.011	19.994	103.858	19.906	2.289	0.519
885.000	531.573	80.013	19.994	103.848	19.907	2.227	0.541
892.500	535.411	80.012	19.994	103.839	19.904	2.474	0.511
900.000	539.330	80.012	19.995	103.852	19.907	2.227	0.531
907.499	543.123	80.014	19.992	103.862	19.906	2.303	0.507
914.999	546.955	80.012	19.993	103.854	19.906	2.334	0.501
922.501	550.760	80.011	19.993	103.853	19.904	2.436	0.478
930.000	554.623	80.010	19.993	103.861	19.903	2.500	0.521
937.500	558.476	80.010	19.993	103.855	19.904	2.456	0.518
945.000	562.288	80.010	19.993	103.854	19.903	2.500	0.516
952.501	566.096	80.010	19.994	103.851	19.905	2.384	0.520
960.000	569.919	80.010	19.993	103.854	19.905	2.358	0.528
967.499	573.794	80.010	19.994	103.847	19.902	2.598	0.531
975.000	577.596	80.011	19.993	103.860	19.908	2.135	0.498
982.499	581.377	80.012	19.993	103.854	19.905	2.361	0.489
989.999	585.177	80.012	19.993	103.847	19.904	2.488	0.508
997.500	588.970	80.012	19.994	103.865	19.906	2.292	0.513
1005.000	592.760	80.010	19.993	103.857	19.903	2.542	0.513
1012.500	596.652	80.010	19.994	103.856	19.905	2.358	0.503
1020.001	600.536	80.011	19.992	103.858	19.904	2.428	0.524
1027.501	604.483	80.011	19.993	103.860	19.903	2.524	0.520
1034.999	608.315	80.011	19.994	103.844	19.904	2.444	0.472
1042.500	612.209	80.011	19.995	103.856	19.903	2.532	0.532
1050.000	616.075	80.012	19.993	103.858	19.901	2.661	0.509
1057.499	619.899	80.012	19.994	103.849	19.906	2.336	0.509
1065.000	623.733	80.013	19.995	103.851	19.904	2.442	0.520
1072.500	627.511	80.013	19.994	103.843	19.906	2.330	0.498
1080.000	631.391	80.015	19.993	103.854	19.904	2.442	0.552
1087.501	635.181	80.011	19.994	103.909	19.908	2.177	0.542
1095.000	639.017	80.013	19.994	103.824	19.905	2.356	0.525
1102.500	642.814	80.012	19.993	103.829	19.904	2.460	0.523
1109.999	646.525	80.012	19.994	103.850	19.900	2.733	0.505
1117.499	650.295	80.013	19.994	103.843	19.900	2.765	0.509
1124.999	654.071	80.012	19.993	103.853	19.904	2.426	0.480
1132.500	657.914	80.013	19.993	103.849	19.899	2.791	0.544
1140.000	661.714	80.013	19.994	103.834	19.902	2.621	0.532
1147.499	665.508	80.012	19.994	103.820	19.901	2.671	0.504
1155.001	669.302	80.012	19.994	103.851	19.899	2.815	0.531
1162.499	673.040	80.013	19.994	103.844	19.899	2.843	0.508
1170.000	676.818	80.011	19.993	103.853	19.896	3.040	0.468
1177.500	680.518	80.012	19.994	103.859	19.899	2.799	0.487
1184.999	684.206	80.011	19.993	103.826	19.900	2.739	0.479
1192.499	687.957	80.011	19.993	103.825	19.897	2.968	0.510
1199.999	691.687	80.010	19.993	103.830	19.899	2.797	0.486
1207.501	695.475	80.010	19.994	103.853	19.899	2.807	0.498
1215.001	699.300	80.013	19.992	103.845	19.895	3.130	0.508
1222.499	703.081	80.012	19.993	103.844	19.895	3.147	0.494
1230.000	706.801	80.012	19.994	103.833	19.895	3.092	0.493
1237.500	710.576	80.012	19.994	103.849	19.897	2.988	0.503
1245.000	714.420	80.016	19.992	103.835	19.895	3.132	0.588
1252.500	718.106	80.011	19.993	103.834	19.898	2.864	0.503
1259.999	721.896	80.009	19.995	103.858	19.894	3.196	0.504
1267.500	725.793	80.012	19.994	103.847	19.893	3.279	0.535
1275.001	729.595	80.011	19.993	103.843	19.896	3.078	0.527
1282.500	733.494	80.012	19.994	103.848	19.894	3.205	0.533
1289.999	737.336	80.012	19.994	103.841	19.890	3.505	0.518
1297.501	741.137	80.014	19.994	103.853	19.892	3.329	0.487
1302.499	743.684	80.015	19.993	103.837	19.889	3.554	0.540