Folder: fsri_materials_database/01_Data/Rayon_Bamboo_Pillowcase/HFM

Note: 01_Data/README.md
# Materials and Products Database
## 01_Data

Raw data generated from each apparatus are included here in plain-text format. The data is organized first by material, next by the short name of test apparatus used, and where applicable additional filtering by test settings.

### material.json

Each material directory contains a json file of the same name as the material. This file links the data stored in the repository as well as data and graphs produced by the accompanying scripts (__02_Scripts__) to the respective landing page for the material on the front-end website.

File: Rayon_Bamboo_Pillowcase_Density_Dry_R1.csv
,Rayon_Pillowcase_DRY_1
Sample Mass [g],5.9
Sample Volume [cm3],8.9
Sample Density [kg/m3],655

File: Rayon_Bamboo_Pillowcase_Density_Dry_R2.csv
,Rayon_Pillowcase_Dry_2
Sample Mass [g],5.6
Sample Volume [cm3],8.9
Sample Density [kg/m3],629

File: Rayon_Bamboo_Pillowcase_Density_Dry_R3.csv
,Rayon_Pillowcase_Dry_3
Sample Mass [g],5.6
Sample Volume [cm3],8.9
Sample Density [kg/m3],626

File: Rayon_Bamboo_Pillowcase_Density_Wet_R1.csv
,Rayon_Pillowcase_WET_1
Sample Mass [g],6.2
Sample Volume [cm3],8.9
Sample Density [kg/m3],691

File: Rayon_Bamboo_Pillowcase_Density_Wet_R2.csv
,Rayon_Pillowcase_WET_2
Sample Mass [g],5.9
Sample Volume [cm3],8.9
Sample Density [kg/m3],660

File: Rayon_Bamboo_Pillowcase_Density_Wet_R3.csv
,Rayon_Pillowcase_WET_3
Sample Mass [g],5.9
Sample Volume [cm3],8.9
Sample Density [kg/m3],661