Folder: fsri_materials_database/01_Data/Rayon_Bamboo_Pillowcase/MCC (part 2)

File: Rayon_Bamboo_Pillowcase_MCC_30K_min_220112_R3.txt
Sample ID:	C:\MCC\MCC Cal\Test\Rayon_Bamboo_Pillowcase_MCC_30K_min_220112_R3.txt
Sample Weight (mg):	4.59
Heating Rate (C/s):	0.5
Combustor Temp (C):	900
N2 Flow Rate (cc/min):	80
O2 Flow Rate (cc/min):	20
Calibration File:	C:\MCC\MCC Cal\Coeff1 JN10440_30_210304.txt.txt
T Correction Coefficients:	0	1.024463	0
Time Shift (s):	14
*
Time (s)	Temperature (C)	N2 flow rate (cc/min)	O2 flow rate (cc/min)	Flow Rate (cc/min)	Oxygen (%)	HRR (W/g)	Heating rate (C/s)
0.000	110.967	80.011	19.995	104.094	19.961	0.403	0.006
8.000	110.927	80.011	19.994	104.085	19.960	0.496	-0.007
16.000	110.945	80.012	19.994	104.097	19.957	0.689	0.007
24.000	111.163	80.012	19.993	104.187	19.949	1.256	0.049
32.001	111.639	80.011	19.994	104.208	19.943	1.656	0.056
40.001	112.508	80.011	19.994	104.244	19.931	2.528	0.133
47.999	113.676	80.014	19.993	104.264	19.924	3.041	0.123
55.999	115.300	80.013	19.993	104.296	19.922	3.201	0.220
64.001	117.307	80.013	19.993	104.311	19.920	3.326	0.279
72.000	119.639	80.014	19.994	104.298	19.920	3.315	0.322
80.000	122.183	80.014	19.994	104.302	19.921	3.250	0.309
88.001	124.957	80.012	19.994	104.324	19.920	3.300	0.322
96.000	127.983	80.010	19.994	104.265	19.913	3.839	0.377
103.999	131.101	80.011	19.994	104.305	19.915	3.689	0.379
112.001	134.383	80.012	19.995	104.317	19.914	3.758	0.412
120.001	137.816	80.012	19.993	104.324	19.917	3.526	0.421
128.000	141.477	80.013	19.994	104.331	19.917	3.547	0.496
136.000	145.229	80.015	19.994	104.322	19.916	3.607	0.476
144.001	149.085	80.013	19.994	104.331	19.920	3.326	0.491
152.000	152.963	80.014	19.994	104.310	19.925	2.979	0.487
160.001	156.964	80.016	19.994	104.314	19.928	2.754	0.520
168.001	160.920	80.012	19.995	104.314	19.928	2.756	0.510
176.001	164.899	80.012	19.994	104.298	19.931	2.507	0.505
184.001	168.900	80.012	19.993	104.301	19.927	2.842	0.472
192.000	172.810	80.011	19.994	104.290	19.926	2.893	0.492
200.000	176.738	80.010	19.995	104.287	19.928	2.737	0.516
208.000	180.604	80.011	19.994	104.287	19.930	2.639	0.448
216.000	184.557	80.013	19.993	104.285	19.929	2.655	0.487
224.000	188.566	80.012	19.993	104.287	19.929	2.680	0.519
232.000	192.451	80.012	19.992	104.275	19.928	2.742	0.523
240.000	196.331	80.014	19.993	104.271	19.932	2.452	0.488
248.000	200.248	80.015	19.993	104.288	19.930	2.639	0.487
256.000	204.229	80.013	19.994	104.283	19.928	2.752	0.514
264.000	208.227	80.012	19.994	104.283	19.928	2.728	0.483
272.000	212.244	80.011	19.995	104.271	19.930	2.635	0.518
280.000	216.217	80.012	19.994	104.260	19.923	3.138	0.500
288.000	220.234	80.010	19.995	104.269	19.919	3.362	0.479
296.000	224.177	80.010	19.994	104.261	19.918	3.481	0.478
304.000	228.134	80.011	19.994	104.262	19.914	3.767	0.508
312.000	232.100	80.013	19.993	104.273	19.903	4.547	0.491
320.000	236.092	80.014	19.993	104.283	19.899	4.795	0.501
328.000	240.066	80.015	19.994	104.288	19.884	5.895	0.536
336.001	244.010	80.015	19.994	104.292	19.862	7.465	0.468
344.000	247.971	80.013	19.994	104.321	19.832	9.535	0.498
352.000	252.040	80.013	19.995	104.341	19.793	12.355	0.488
360.000	256.170	80.013	19.994	104.360	19.736	16.389	0.526
368.000	260.127	80.011	19.995	104.388	19.672	20.931	0.480
376.000	264.113	80.012	19.995	104.407	19.598	26.155	0.488
384.000	268.068	80.013	19.993	104.412	19.535	30.677	0.480
392.000	272.037	80.013	19.995	104.418	19.478	34.714	0.427
400.000	275.990	80.013	19.995	104.438	19.431	38.020	0.510
408.000	279.887	80.013	19.994	104.449	19.394	40.686	0.474
416.000	283.798	80.014	19.993	104.467	19.357	43.340	0.699
424.000	287.699	80.013	19.993	104.489	19.320	45.963	0.444
432.000	291.689	80.013	19.994	104.514	19.277	48.998	0.515
440.000	295.666	80.014	19.992	104.528	19.231	52.303	0.495
448.000	299.652	80.013	19.993	104.562	19.178	56.076	0.500
456.000	303.649	80.011	19.994	104.574	19.116	60.483	0.487
464.000	307.653	80.012	19.994	104.599	19.062	64.301	0.513
472.000	311.615	80.014	19.994	104.603	19.013	67.817	0.514
480.000	315.703	80.012	19.994	104.616	18.968	70.991	0.501
488.000	319.692	80.011	19.994	104.625	18.934	73.433	0.488
496.000	323.738	80.013	19.994	104.609	18.921	74.339	0.531
504.000	327.722	80.010	19.994	104.600	18.940	72.971	0.462
512.000	331.686	80.011	19.993	104.558	18.982	69.967	0.470
520.000	335.682	80.011	19.993	104.499	19.077	63.135	0.486
528.000	339.722	80.012	19.993	104.434	19.210	53.666	0.515
536.000	343.727	80.011	19.995	104.375	19.367	42.511	0.505
544.001	347.871	80.012	19.994	104.323	19.531	30.919	0.498
552.000	352.053	80.014	19.995	104.290	19.663	21.526	0.516
560.000	356.246	80.012	19.993	104.256	19.768	14.100	0.533
568.000	360.423	80.011	19.995	104.251	19.830	9.670	0.538
576.000	364.569	80.014	19.994	104.248	19.867	7.098	0.528
584.000	368.697	80.012	19.995	104.242	19.889	5.533	0.545
592.000	372.869	80.011	19.994	104.250	19.896	5.026	0.518
600.000	377.064	80.011	19.993	104.244	19.904	4.485	0.559
608.000	381.112	80.012	19.994	104.228	19.906	4.318	0.497
616.000	385.168	80.011	19.993	104.254	19.913	3.828	0.487
624.000	389.277	80.010	19.994	104.253	19.911	3.928	0.512
632.000	393.329	80.012	19.994	104.235	19.921	3.265	0.511
640.000	397.386	80.012	19.993	104.237	19.923	3.072	0.492
648.000	401.467	80.013	19.995	104.229	19.927	2.793	0.500
656.000	405.460	80.013	19.994	104.233	19.922	3.150	0.479
664.000	409.489	80.015	19.993	104.232	19.928	2.755	0.489
672.000	413.540	80.011	19.994	104.234	19.927	2.802	0.489
680.000	417.574	80.011	19.995	104.222	19.926	2.895	0.539
688.000	421.585	80.010	19.995	104.224	19.926	2.895	0.529
696.000	425.580	80.012	19.993	104.238	19.930	2.642	0.517
704.000	429.601	80.011	19.993	104.239	19.927	2.827	0.473
712.000	433.686	80.013	19.994	104.225	19.931	2.541	0.524
720.000	437.702	80.013	19.994	104.227	19.933	2.392	0.485
728.000	441.712	80.013	19.994	104.216	19.938	2.071	0.476
736.000	445.752	80.013	19.993	104.225	19.935	2.260	0.517
744.000	449.750	80.013	19.994	104.214	19.940	1.901	0.501
752.000	453.756	80.010	19.995	104.214	19.940	1.872	0.508
760.000	457.816	80.010	19.995	104.217	19.942	1.751	0.521
768.000	461.898	80.011	19.995	104.214	19.944	1.613	0.519
776.000	465.965	80.012	19.995	104.210	19.946	1.486	0.469
784.000	470.045	80.011	19.995	104.205	19.946	1.445	0.524
792.000	474.178	80.012	19.993	104.209	19.955	0.818	0.565
800.000	478.190	80.013	19.993	104.210	19.956	0.738	0.519
808.000	482.245	80.012	19.994	104.213	19.963	0.288	0.517
816.000	486.322	80.014	19.993	104.212	19.965	0.123	0.513
824.000	490.354	80.012	19.993	104.212	19.968	-0.109	0.484
832.000	494.482	80.011	19.992	104.215	19.972	-0.374	0.498
840.000	498.570	80.012	19.995	104.210	19.971	-0.310	0.495
848.000	502.619	80.011	19.994	104.207	19.974	-0.479	0.494
856.000	506.782	80.011	19.994	104.200	19.980	-0.950	0.523
864.000	510.878	80.011	19.994	104.202	19.985	-1.313	0.510
872.000	515.079	80.011	19.996	104.191	19.985	-1.320	0.552
880.000	519.246	80.012	19.994	104.203	19.986	-1.338	0.520
888.000	523.440	80.013	19.994	104.197	19.994	-1.940	0.525
896.000	527.514	80.012	19.994	104.204	19.993	-1.871	0.480
904.000	531.701	80.014	19.994	104.196	19.994	-1.955	0.526
912.000	535.805	80.012	19.993	104.196	19.998	-2.191	0.520
920.000	539.943	80.012	19.994	104.177	19.997	-2.148	0.515
928.000	544.020	80.012	19.993	104.192	19.995	-1.967	0.498
936.000	548.172	80.012	19.993	104.186	20.005	-2.691	0.544
944.000	552.406	80.011	19.994	104.185	20.003	-2.598	0.548
952.000	556.811	80.011	19.993	104.196	20.008	-2.892	0.540
960.001	561.299	80.012	19.992	104.195	20.009	-2.981	0.572
968.000	565.719	80.010	19.994	104.193	20.012	-3.205	0.553
976.000	570.242	80.011	19.994	104.203	20.014	-3.353	0.624
984.000	574.630	80.014	19.993	104.186	20.015	-3.397	0.550
992.000	578.815	80.012	19.993	104.171	20.019	-3.670	0.507
1000.000	582.709	80.011	19.993	104.172	20.024	-4.083	0.491
1008.000	586.458	80.012	19.994	104.170	20.032	-4.637	0.476
1016.000	590.148	80.010	19.993	104.158	20.028	-4.306	0.441
1024.000	593.905	80.011	19.994	104.198	20.035	-4.852	0.475
1032.000	597.572	80.011	19.995	104.159	20.033	-4.673	0.462
1040.001	601.313	80.013	19.994	104.172	20.040	-5.195	0.462
1048.000	605.166	80.012	19.994	104.171	20.041	-5.228	0.483
1056.000	609.324	80.012	19.994	104.189	20.041	-5.259	0.526
1064.000	613.585	80.014	19.995	104.159	20.041	-5.272	0.484
1072.000	617.854	80.012	19.994	104.161	20.043	-5.366	0.525
1080.000	622.034	80.013	19.993	104.160	20.046	-5.617	0.533
1088.000	626.171	80.010	19.993	104.166	20.044	-5.470	0.522
1096.001	630.260	80.013	19.994	104.144	20.047	-5.657	0.499
1104.001	634.313	80.012	19.994	104.160	20.046	-5.600	0.480
1112.000	638.320	80.013	19.995	104.139	20.048	-5.741	0.491
1120.000	642.100	80.013	19.993	104.153	20.048	-5.776	0.478
1127.999	645.829	80.013	19.994	104.145	20.056	-6.338	0.466
1136.000	649.662	80.012	19.993	104.155	20.058	-6.467	0.509
1143.999	653.472	80.014	19.994	104.138	20.062	-6.711	0.462
1152.000	657.481	80.014	19.994	104.155	20.059	-6.495	0.472
1160.000	661.536	80.011	19.995	104.158	20.053	-6.120	0.525
1168.000	665.637	80.012	19.994	104.174	20.061	-6.641	0.554
1176.000	669.797	80.012	19.994	104.148	20.062	-6.745	0.510
1184.000	673.958	80.013	19.996	104.148	20.056	-6.337	0.523
1192.000	678.203	80.010	19.994	104.140	20.060	-6.632	0.541
1200.000	682.346	80.012	19.993	104.160	20.064	-6.907	0.579
1208.000	686.437	80.014	19.994	104.149	20.065	-6.982	0.520
1216.000	690.546	80.013	19.995	104.155	20.068	-7.129	0.489
1223.999	694.647	80.014	19.994	104.148	20.068	-7.183	0.519
1232.000	698.735	80.014	19.993	104.143	20.067	-7.084	0.522
1240.000	702.770	80.010	19.993	104.151	20.070	-7.277	0.525
1248.000	706.781	80.010	19.995	104.145	20.067	-7.063	0.513
1255.999	710.813	80.010	19.995	104.147	20.067	-7.115	0.518
1263.999	714.867	80.013	19.994	104.142	20.066	-6.998	0.491
1272.000	718.901	80.011	19.994	104.158	20.068	-7.161	0.528
1280.000	722.871	80.012	19.994	104.161	20.072	-7.427	0.498
1288.000	726.872	80.013	19.993	104.166	20.069	-7.232	0.499
1296.000	730.940	80.012	19.994	104.166	20.070	-7.315	0.535
1304.000	735.030	80.013	19.992	104.153	20.073	-7.495	0.520
1312.000	739.148	80.014	19.994	104.150	20.067	-7.082	0.515
1320.000	743.206	80.011	19.994	104.145	20.068	-7.135	0.530
1320.500	743.457	80.012	19.996	104.151	20.074	-7.616	0.528