Folder: fsri_materials_database/01_Data/Coffee_Machine/STA/N2/10K_min (part 2)

File: Coffee_Maker_STA_N2_10KData_220202_R3.csv
##Temp./Â°C,Time/min,Mass loss(subtr.2)/mg,DSC(subtr.2)/(mW/mg),Sensit./(uV/mW)
49.289,10.01,-0.0453,0.00448271,1.07447
51.889,11.21872,-0.04791249,0.14057,1.07429
54.489,11.6149,-0.04908089,0.20726,1.07408
57.089,11.94688,-0.05139849,0.2461,1.07387
59.689,12.2528,-0.05068005,0.27542,1.07364
62.289,12.54557,-0.05064537,0.29095,1.07339
64.889,12.83126,-0.05122522,0.29936,1.07312
67.489,13.1131,-0.05329378,0.3063,1.07284
70.089,13.3918,-0.05297861,0.30645,1.07255
72.689,13.66729,-0.05427193,0.31104,1.07224
75.289,13.93987,-0.05549844,0.316,1.07191
77.889,14.21054,-0.05627874,0.3203,1.07157
80.489,14.47884,-0.05625515,0.32559,1.07121
83.089,14.74514,-0.05756598,0.32673,1.07083
85.689,15.0099,-0.05890109,0.32829,1.07044
88.289,15.27259,-0.0581573,0.33285,1.07004
90.889,15.5331,-0.05758323,0.33464,1.06962
93.489,15.7924,-0.0603241,0.33798,1.06918
96.089,16.05036,-0.06021071,0.34221,1.06873
98.689,16.30811,-0.06153006,0.34562,1.06826
101.289,16.56437,-0.06289459,0.3506,1.06778
103.889,16.8199,-0.06153016,0.35598,1.06728
106.489,17.0751,-0.06284954,0.36187,1.06677
109.089,17.32909,-0.06285428,0.36463,1.06624
111.689,17.58405,-0.0641601,0.36837,1.06569
114.289,17.83803,-0.06547004,0.37142,1.06513
116.889,18.09166,-0.06713034,0.37713,1.06456
119.489,18.3456,-0.06680009,0.38348,1.06397
122.089,18.59865,-0.0681766,0.38732,1.06336
124.689,18.8508,-0.06680025,0.39384,1.06274
127.289,19.10318,-0.06694012,0.40242,1.06211
129.889,19.35484,-0.06845013,0.41098,1.06146
132.489,19.60655,-0.06840124,0.41998,1.06079
135.089,19.85868,-0.06811,0.434,1.06011
137.689,20.11091,-0.07073915,0.44529,1.05942
140.289,20.3626,-0.06945305,0.46302,1.05871
142.889,20.6145,-0.07073975,0.48722,1.05798
145.489,20.86524,-0.07207322,0.52205,1.05724
148.089,21.11634,-0.0720599,0.56476,1.05649
150.689,21.3672,-0.07203508,0.62702,1.05572
153.289,21.6192,-0.07337751,0.71601,1.05493
155.889,21.87045,-0.07338,0.85118,1.05414
158.489,22.12302,-0.07347342,1.03621,1.05332
161.089,22.37548,-0.07337994,1.24952,1.05249
163.689,22.6289,-0.07336962,1.4478,1.05165
166.289,22.8814,-0.07338,1.50201,1.05079
168.889,23.1311,-0.07441908,1.09324,1.04992
171.489,23.37735,-0.07571265,0.65772,1.04904
174.089,23.6221,-0.07469086,0.53299,1.04814
176.689,23.8695,-0.07601,0.50371,1.04722
179.289,24.11726,-0.07717618,0.49309,1.04629
181.889,24.36463,-0.07733,0.49115,1.04535
184.489,24.61294,-0.07850098,0.48977,1.0444
187.089,24.86038,-0.07765,0.49242,1.04342
189.689,25.1082,-0.07830471,0.49418,1.04244
192.289,25.35613,-0.07898,0.49694,1.04144
194.889,25.60401,-0.07889164,0.49513,1.04043
197.489,25.8519,-0.07940209,0.49696,1.0394
200.089,26.10044,-0.08028991,0.49586,1.03836
202.689,26.349,-0.0793,0.50053,1.03731
205.289,26.59709,-0.08157553,0.50125,1.03624
207.889,26.8457,-0.08020838,0.50478,1.03516
210.489,27.09463,-0.0803471,0.50532,1.03406
213.089,27.3422,-0.08263272,0.5142,1.03295
215.689,27.59035,-0.08259,0.5161,1.03183
218.289,27.8375,-0.08161,0.51983,1.03069
220.889,28.08413,-0.08293,0.52415,1.02954
223.489,28.3308,-0.08226028,0.5249,1.02838
226.089,28.5773,-0.08225986,0.529,1.02721
228.689,28.8241,-0.08258441,0.52835,1.02602
231.289,29.0717,-0.08292,0.52939,1.02481
233.889,29.3192,-0.08423,0.53299,1.0236
236.489,29.56707,-0.08324569,0.53241,1.02237
239.089,29.81526,-0.08457476,0.53603,1.02113
241.689,30.06343,-0.08523376,0.53307,1.01988
244.289,30.3113,-0.08523,0.53564,1.01861
246.889,30.5595,-0.08620999,0.5384,1.01733
249.489,30.8074,-0.08521996,0.53972,1.01604
252.089,31.05599,-0.08654,0.5434,1.01473
254.689,31.30443,-0.08754649,0.54361,1.01341
257.289,31.55319,-0.08720024,0.54655,1.01208
259.889,31.8021,-0.08686211,0.54663,1.01074
262.489,32.05117,-0.08818,0.54871,1.00938
265.089,32.29973,-0.08818,0.54987,1.00802
267.689,32.54882,-0.0895,0.55595,1.00664
270.289,32.79765,-0.08950167,0.55645,1.00524
272.889,33.04596,-0.08977913,0.55945,1.00384
275.489,33.2943,-0.09012007,0.55965,1.00242
278.089,33.54234,-0.09180343,0.56323,1.001
280.689,33.79051,-0.09183226,0.56483,0.99956
283.289,34.03897,-0.09115,0.56593,0.9981
285.889,34.28743,-0.09345,0.56766,0.99664
288.489,34.536,-0.09345951,0.56908,0.99516
291.089,34.78483,-0.09508988,0.57113,0.99368
293.689,35.0342,-0.09443001,0.57419,0.99218
296.289,35.2839,-0.09455203,0.57366,0.99067
298.889,35.53362,-0.09575,0.57671,0.98914
301.489,35.78303,-0.09575,0.57678,0.98761
304.089,36.03233,-0.09576284,0.57772,0.98606
306.689,36.28272,-0.09706998,0.5782,0.98451
309.289,36.53317,-0.09839,0.57747,0.98294
311.889,36.7843,-0.09839329,0.57638,0.98136
314.489,37.0359,-0.09839169,0.58373,0.97977
317.089,37.28683,-0.09970167,0.5845,0.97817
319.689,37.53722,-0.10068,0.58453,0.97656
322.289,37.78803,-0.10102,0.58835,0.97494
324.889,38.03934,-0.10202,0.58916,0.9733
327.489,38.28993,-0.10135,0.59107,0.97166
330.089,38.5407,-0.10266,0.59495,0.97001
332.689,38.79103,-0.1053,0.59472,0.96834
335.289,39.0422,-0.10563,0.59601,0.96667
337.889,39.29401,-0.10694,0.59859,0.96498
340.489,39.54588,-0.10957,0.60124,0.96328
343.089,39.7986,-0.10826,0.60134,0.96158
345.689,40.05088,-0.11089,0.60448,0.95986
348.289,40.30363,-0.11122,0.6084,0.95813
350.889,40.55595,-0.11516,0.6114,0.9564
353.489,40.80885,-0.11517,0.6152,0.95465
356.089,41.06105,-0.1178,0.61783,0.95289
358.689,41.3133,-0.1192,0.62177,0.95112
361.289,41.5659,-0.12043,0.62512,0.94935
363.889,41.81852,-0.12175,0.62864,0.94756
366.489,42.07117,-0.12688,0.62873,0.94577
369.089,42.32365,-0.12712,0.63227,0.94396
371.689,42.57631,-0.12967,0.63588,0.94215
374.289,42.82925,-0.13239,0.64069,0.94032
376.889,43.08255,-0.13634,0.64116,0.93849
379.489,43.3358,-0.13916,0.64367,0.93665
382.089,43.58948,-0.14249,0.64931,0.93479
384.689,43.8429,-0.14643,0.6533,0.93293
387.289,44.09645,-0.15104,0.65261,0.93106
389.889,44.35042,-0.15436,0.661,0.92918
392.489,44.60372,-0.16043,0.66862,0.9273
395.089,44.8564,-0.16703,0.67543,0.9254
397.689,45.10945,-0.17309,0.68944,0.9235
400.289,45.36226,-0.18118,0.70083,0.92158
402.889,45.6162,-0.18989,0.70946,0.91966
405.489,45.86956,-0.20017,0.7283,0.91773
408.089,46.1241,-0.21233,0.74449,0.91579
410.689,46.3782,-0.22464,0.76315,0.91384
413.289,46.63293,-0.24179,0.79034,0.91189
415.889,46.8874,-0.25858,0.82509,0.90992
418.489,47.14255,-0.28168,0.86413,0.90795
421.089,47.39694,-0.30681,0.90773,0.90597
423.689,47.6509,-0.33588,1.01002,0.90399
426.289,47.90631,-0.37366,0.98792,0.90199
428.889,48.16101,-0.41019,1.04662,0.89999
431.489,48.41639,-0.45942,1.13243,0.89798
434.089,48.6721,-0.51794,1.2313,0.89596
436.689,48.9283,-0.58973,1.34614,0.89393
439.289,49.1848,-0.67427,1.48684,0.8919
441.889,49.44141,-0.78265,1.62665,0.88986
444.489,49.69721,-0.90832,1.81727,0.88781
447.089,49.95393,-1.06745,1.9801,0.88576
449.689,50.21033,-1.24876,2.12385,0.88369
452.289,50.46757,-1.46674,2.27814,0.88162
454.889,50.7249,-1.71821,2.39356,0.87955
457.489,50.98182,-1.98308,2.46162,0.87747
460.089,51.2385,-2.28654,2.4777,0.87538
462.689,51.49542,-2.60431,2.37573,0.87328
465.289,51.75029,-2.92497,2.16477,0.87118
467.889,52.0047,-3.22357,1.82638,0.86907
470.489,52.25776,-3.48033,1.40664,0.86695
473.089,52.5101,-3.68411,0.95152,0.86483
475.689,52.7623,-3.82149,0.56934,0.8627
478.289,53.0141,-3.90172,0.3267,0.86056
480.889,53.26817,-3.94813,0.19067,0.85842
483.489,53.52318,-3.97089,0.11932,0.85628
486.089,53.77873,-3.98415,0.08347774,0.85412
488.689,54.03533,-3.98818,0.06232891,0.85196
491.289,54.292,-3.99082,0.04690643,0.8498
493.889,54.54701,-3.9895,0.06081186,0.84763
496.489,54.8045,-3.99213,0.04614524,0.84545
499.089,55.06295,-3.99213,0.0420781,0.84327
501.689,55.3202,-3.99081,0.0432408,0.84108
504.289,55.5779,-3.99212,0.04522962,0.83889
506.889,55.8359,-3.9918,0.04692995,0.83669
509.489,56.0937,-3.99213,0.05004239,0.83449
512.089,56.35188,-3.9918,0.0473924,0.83228
514.689,56.61011,-3.99213,0.04176345,0.83006
517.289,56.8681,-3.99115,0.03859128,0.82784
519.889,57.1262,-3.99115,0.04127713,0.82562
522.489,57.38389,-3.99104,0.04114099,0.82339
525.089,57.64142,-3.99207,0.04188067,0.82116
527.689,57.8992,-3.99104,0.04281895,0.81892
530.289,58.15665,-3.99236,0.04097546,0.81668
532.889,58.4146,-3.99041,0.04202496,0.81443
535.489,58.67195,-3.99038,0.04523477,0.81218
538.089,58.9299,-3.99475,0.04351803,0.80992
540.689,59.18733,-3.99161,0.04367184,0.80766
543.289,59.4458,-3.99191,0.04298577,0.80539
545.889,59.70411,-3.99062,0.04864623,0.80312
548.489,59.9625,-3.99026,0.04881224,0.80085
551.089,60.22121,-3.99026,0.04429658,0.79857
553.689,60.47988,-3.99027,0.04740777,0.79629
556.289,60.7385,-3.99158,0.04883254,0.794
558.889,60.99739,-3.98928,0.04875678,0.79172
561.489,61.25674,-3.9906,0.05211596,0.78942
564.089,61.5158,-3.9906,0.05623284,0.78713
566.689,61.77553,-3.98856,0.0565951,0.78483
569.289,62.03556,-3.99097,0.06131255,0.78252
571.889,62.2958,-3.99005,0.06117634,0.78021
574.489,62.55551,-3.98865,0.06036154,0.7779
577.089,62.81539,-3.98868,0.06479812,0.77559
579.689,63.0752,-3.99312,0.06700936,0.77327
582.289,63.3347,-3.99049,0.06935532,0.77095
584.889,63.59369,-3.98885,0.07175781,0.76863
587.489,63.85289,-3.99105,0.07652602,0.7663
590.089,64.11195,-3.99016,0.07854111,0.76397
592.689,64.37186,-3.9895,0.08316626,0.76164
595.289,64.63237,-3.9895,0.08200083,0.75931
597.889,64.89242,-3.98983,0.08441896,0.75697
600.489,65.15212,-3.98886,0.08848966,0.75463
603.089,65.41234,-3.99016,0.09025535,0.75229
605.689,65.6733,-3.98811,0.09067539,0.74994
608.289,65.9344,-3.99071,0.09147158,0.7476
610.889,66.1957,-3.99071,0.09209498,0.74525
613.489,66.45699,-3.99071,0.09329899,0.7429
616.089,66.71741,-3.99136,0.09189536,0.74054
618.689,66.9784,-3.99136,0.09658227,0.73818
621.289,67.23954,-3.99136,0.09721557,0.73583
623.889,67.49978,-3.99204,0.09503361,0.73347
626.489,67.75998,-3.99005,0.10382,0.73111
629.089,68.02064,-3.99071,0.1065,0.72874
631.689,68.28197,-3.99071,0.10703,0.72638
634.289,68.54326,-3.99126,0.11033,0.72401
636.889,68.8052,-3.98977,0.10807,0.72164
639.489,69.06681,-3.99016,0.10655,0.71927
642.089,69.3279,-3.98983,0.10744,0.7169
644.689,69.58887,-3.99009,0.11264,0.71453
647.289,69.8494,-3.99083,0.1115,0.71215
648.789,69.99979,-3.99016,0.1103,0.71078