Folder: fsri_materials_database/01_Data/Coffee_Machine/STA/N2/10K_min

Note: 01_Data/README.md
# Materials and Products Database
## 01_Data

Raw data generated from each apparatus are included here in plain-text format. The data is organized first by material, next by the short name of test apparatus used, and where applicable additional filtering by test settings.

### material.json

Each material directory contains a json file of the same name as the material. This file links the data stored in the repository as well as data and graphs produced by the accompanying scripts (__02_Scripts__) to the respective landing page for the material on the front-end website.

File: Coffee_Machine_STA_N2_10KData_220201_R1.csv
##Temp./Â°C,Time/min,Mass loss(subtr.2)/mg,DSC(subtr.2)/(mW/mg),Sensit./(uV/mW)
49.342,10.00917,0.02041,-0.01474056,1.07447
52.042,11.22898,0.02073038,0.12798,1.07427
54.742,11.63495,0.0219287,0.20484,1.07406
57.442,11.97513,0.02020091,0.24591,1.07384
60.142,12.28969,0.02243248,0.27457,1.07359
62.842,12.5914,0.02344827,0.29172,1.07333
65.542,12.88636,0.02287116,0.29824,1.07305
68.242,13.1776,0.02349576,0.30593,1.07276
70.942,13.466,0.02242155,0.30811,1.07245
73.642,13.75126,0.02215722,0.3095,1.07212
76.342,14.03408,0.02346085,0.31423,1.07177
79.042,14.31431,0.02222104,0.32074,1.07141
81.742,14.59206,0.0234792,0.32302,1.07103
84.442,14.86674,0.02347994,0.32834,1.07063
87.142,15.1394,0.02346897,0.3326,1.07022
89.842,15.40979,0.02348126,0.3359,1.06979
92.542,15.67919,0.0231399,0.33921,1.06934
95.242,15.9476,0.02467844,0.34021,1.06888
97.942,16.2147,0.02324674,0.34535,1.0684
100.642,16.4821,0.02352914,0.3511,1.0679
103.342,16.74715,0.02314573,0.3559,1.06739
106.042,17.01195,0.02210685,0.35676,1.06686
108.742,17.2762,0.02479002,0.36265,1.06631
111.442,17.54068,0.02350758,0.36604,1.06575
114.142,17.80317,0.02344941,0.37219,1.06517
116.842,18.06654,0.02347829,0.37689,1.06457
119.542,18.32917,0.02281961,0.37833,1.06396
122.242,18.59202,0.02215999,0.38398,1.06333
124.942,18.85405,0.02083998,0.39304,1.06268
127.642,19.1159,0.02215125,0.3995,1.06202
130.342,19.3773,0.02215999,0.4091,1.06134
133.042,19.638,0.02221737,0.41749,1.06065
135.742,19.89935,0.02086134,0.42896,1.05994
138.442,20.1613,0.02056833,0.44291,1.05921
141.142,20.42323,0.02051001,0.46214,1.05847
143.842,20.68458,0.02060413,0.49184,1.05771
146.542,20.94559,0.02083998,0.5274,1.05694
149.242,21.20635,0.02084384,0.57864,1.05615
151.942,21.4675,0.02182627,0.65354,1.05534
154.642,21.7282,0.02120338,0.76555,1.05452
157.342,21.9893,0.02117006,0.92649,1.05368
160.042,22.25074,0.02117046,1.13437,1.05283
162.742,22.51318,0.0215,1.36647,1.05196
165.442,22.77564,0.02156136,1.52094,1.05108
168.142,23.0372,0.02117039,1.27729,1.05018
170.842,23.2946,0.01985,0.72901,1.04926
173.542,23.54946,0.02018989,0.54081,1.04833
176.242,23.80549,0.01886913,0.4997,1.04738
178.942,24.06167,0.01985016,0.49081,1.04642
181.642,24.31926,0.01986,0.48682,1.04544
184.342,24.57638,0.01849082,0.48604,1.04445
187.042,24.8338,0.01985643,0.48614,1.04344
189.742,25.0918,0.0192,0.48923,1.04242
192.442,25.34921,0.01951909,0.49039,1.04138
195.142,25.60609,0.01956249,0.49281,1.04033
197.842,25.86306,0.01865078,0.49537,1.03926
200.542,26.1196,0.01927362,0.49491,1.03818
203.242,26.3765,0.01865002,0.49936,1.03708
205.942,26.63325,0.01962982,0.49936,1.03597
208.642,26.89105,0.01831995,0.50053,1.03484
211.342,27.14882,0.01964042,0.49853,1.0337
214.042,27.4064,0.01762088,0.501,1.03254
216.742,27.6638,0.01766493,0.5038,1.03137
219.442,27.92117,0.01768004,0.50882,1.03019
222.142,28.17898,0.01732197,0.50888,1.02899
224.842,28.43664,0.01799003,0.51125,1.02777
227.542,28.6943,0.01667,0.51471,1.02654
230.242,28.95161,0.01534368,0.51683,1.0253
232.942,29.20897,0.01601,0.51945,1.02404
235.642,29.46667,0.01536007,0.52018,1.02277
238.342,29.72445,0.01634673,0.52162,1.02149
241.042,29.98181,0.01668,0.52459,1.02019
243.742,30.2394,0.01635001,0.5253,1.01888
246.442,30.4967,0.01503006,0.52622,1.01755
249.142,30.75419,0.01666113,0.52696,1.01621
251.842,31.0127,0.01666997,0.53008,1.01486
254.542,31.2705,0.01531712,0.53147,1.01349
257.242,31.529,0.01404,0.53347,1.01211
259.942,31.7868,0.01535848,0.53451,1.01071
262.642,32.0452,0.01404,0.53427,1.0093
265.342,32.3033,0.01340818,0.53912,1.00788
268.042,32.5617,0.0133801,0.53964,1.00645
270.742,32.8202,0.0140598,0.53879,1.005
273.442,33.0788,0.01175097,0.54238,1.00354
276.142,33.33761,0.01306,0.54587,1.00207
278.842,33.59578,0.01305819,0.54762,1.00058
281.542,33.8534,0.01042,0.55052,0.99908
284.242,34.11077,0.01140886,0.5524,0.99757
286.942,34.36935,0.01074946,0.55594,0.99604
289.642,34.628,0.01008996,0.55194,0.9945
292.342,34.88615,0.01075,0.55602,0.99295
295.042,35.1447,0.009446335,0.55772,0.99139
297.742,35.40354,0.00943,0.55912,0.98982
300.442,35.66194,0.008762286,0.56085,0.98823
303.142,35.92044,0.008770001,0.56147,0.98663
305.842,36.1801,0.00746562,0.56064,0.98502
308.542,36.43864,0.00615,0.56478,0.98339
311.242,36.6973,0.006473244,0.56669,0.98176
313.942,36.95683,0.00516,0.56613,0.98011
316.642,37.2166,0.003090576,0.57184,0.97845
319.342,37.47602,0.003159039,0.57573,0.97678
322.042,37.73559,0.00382982,0.57442,0.97509
324.742,37.99583,0.002190085,0.5793,0.9734
327.442,38.25598,0.001210003,0.58107,0.97169
330.142,38.51631,-0.0001099651,0.57949,0.96997
332.842,38.77708,-0.002090766,0.58286,0.96824
335.542,39.03775,-0.0034,0.58451,0.9665
338.242,39.29835,-0.00472,0.58819,0.96475
340.942,39.55888,-0.00603997,0.59198,0.96299
343.642,39.81913,-0.00766999,0.59118,0.96121
346.342,40.07954,-0.009976646,0.59385,0.95943
349.042,40.33947,-0.01162008,0.59767,0.95763
351.742,40.5995,-0.01294,0.59974,0.95582
354.442,40.8597,-0.01623,0.60276,0.95401
357.142,41.12063,-0.01758443,0.60625,0.95218
359.842,41.38153,-0.02149508,0.60671,0.95034
362.542,41.64288,-0.02311408,0.61009,0.94849
365.242,41.9041,-0.02578102,0.6099,0.94663
367.942,42.165,-0.02872441,0.61803,0.94476
370.642,42.42707,-0.03332597,0.61782,0.94288
373.342,42.68855,-0.03525898,0.62212,0.94099
376.042,42.95028,-0.03859913,0.6228,0.93909
378.742,43.21125,-0.04386561,0.62709,0.93718
381.442,43.4743,-0.04882928,0.62927,0.93526
384.142,43.73748,-0.05222906,0.62844,0.93333
386.842,44.00059,-0.05813722,0.63193,0.93139
389.542,44.26386,-0.06503528,0.63625,0.92944
392.242,44.52708,-0.0710613,0.64252,0.92748
394.942,44.79053,-0.07765387,0.64816,0.92551
397.642,45.05365,-0.08608306,0.65889,0.92353
400.342,45.31708,-0.0967383,0.66592,0.92154
403.042,45.5809,-0.10663,0.68007,0.91955
405.742,45.84381,-0.11855,0.70028,0.91754
408.442,46.10727,-0.13043,0.71744,0.91553
411.142,46.37143,-0.147,0.73947,0.9135
413.842,46.63592,-0.16351,0.76616,0.91147
416.542,46.90031,-0.18495,0.79863,0.90943
419.242,47.16509,-0.20707,0.83629,0.90738
421.942,47.4294,-0.23464,0.8767,0.90532
424.642,47.6945,-0.27065,0.93517,0.90326
427.342,47.95909,-0.30919,0.99854,0.90118
430.042,48.2238,-0.35446,1.07892,0.8991
432.742,48.48915,-0.41384,1.16619,0.89701
435.442,48.75396,-0.48593,1.30055,0.89491
438.142,49.0192,-0.56951,1.42613,0.8928
440.842,49.28475,-0.67053,1.57241,0.89068
443.542,49.55125,-0.79635,1.74266,0.88856
446.242,49.81759,-0.94592,1.92164,0.88643
448.942,50.08461,-1.1294,2.11555,0.88429
451.642,50.35147,-1.34431,2.30319,0.88214
454.342,50.6192,-1.59498,2.43924,0.87999
457.042,50.8867,-1.88168,2.54113,0.87782
459.742,51.1532,-2.1922,2.56115,0.87566
462.442,51.41943,-2.51762,2.45038,0.87348
465.142,51.68507,-2.85032,2.25216,0.8713
467.842,51.9494,-3.15224,1.89325,0.86911
470.542,52.2127,-3.41499,1.43256,0.86691
473.242,52.47517,-3.61483,0.93431,0.8647
475.942,52.7367,-3.74539,0.52299,0.86249
478.642,52.9991,-3.82222,0.25307,0.86027
481.342,53.26316,-3.86058,0.10546,0.85805
484.042,53.52844,-3.8784,0.03529338,0.85582
486.742,53.79449,-3.88639,-0.002094135,0.85358
489.442,54.06114,-3.89035,-0.0212839,0.85134
492.142,54.3258,-3.89167,0.00416349,0.84909
494.842,54.5935,-3.89134,-0.02063185,0.84683
497.542,54.8623,-3.89163,-0.0212665,0.84457
500.242,55.1307,-3.89292,-0.02228517,0.8423
502.942,55.39886,-3.89298,-0.02593231,0.84003
505.642,55.66656,-3.89265,-0.02732372,0.83775
508.342,55.9347,-3.89298,-0.02764698,0.83546
511.042,56.20326,-3.89206,-0.04118177,0.83317
513.742,56.47056,-3.89166,-0.04697446,0.83087
516.442,56.73725,-3.89326,-0.04728612,0.82857
519.142,57.00434,-3.89467,-0.04739077,0.82626
521.842,57.27135,-3.89232,-0.04435529,0.82395
524.542,57.5384,-3.89363,-0.04734878,0.82163
527.242,57.80568,-3.89363,-0.04880797,0.8193
529.942,58.07356,-3.89423,-0.04889308,0.81698
532.642,58.3421,-3.89295,-0.05119516,0.81464
535.342,58.61079,-3.89331,-0.04879749,0.8123
538.042,58.8809,-3.89402,-0.05087348,0.80996
540.742,59.1505,-3.89232,-0.05385834,0.80761
543.442,59.4206,-3.89364,-0.052237,0.80526
546.142,59.69016,-3.89495,-0.04986111,0.8029
548.842,59.95949,-3.89363,-0.048769,0.80054
551.542,60.2286,-3.89363,-0.05151045,0.79817
554.242,60.49745,-3.89496,-0.055923,0.7958
556.942,60.7669,-3.89363,-0.05278331,0.79343
559.642,61.0362,-3.89462,-0.05324903,0.79105
562.342,61.30621,-3.89462,-0.05273712,0.78867
565.042,61.5754,-3.89462,-0.05501873,0.78628
567.742,61.8455,-3.89583,-0.05253135,0.78389
570.442,62.11566,-3.89593,-0.05491137,0.7815
573.142,62.38539,-3.89692,-0.05321973,0.7791
575.842,62.65449,-3.89463,-0.05196822,0.7767
578.542,62.9235,-3.89594,-0.05255579,0.7743
581.242,63.1925,-3.89529,-0.05296978,0.77189
583.942,63.46207,-3.89618,-0.05121504,0.76948
586.642,63.73183,-3.89657,-0.05186564,0.76706
589.342,64.00208,-3.89496,-0.04899772,0.76464
592.042,64.27202,-3.8966,-0.05046184,0.76222
594.742,64.54298,-3.89561,-0.05191911,0.7598
597.442,64.81373,-3.89459,-0.04684619,0.75737
600.142,65.08499,-3.89528,-0.05175521,0.75494
602.842,65.3566,-3.89629,-0.05385177,0.75251
605.542,65.62777,-3.89561,-0.05428816,0.75008
608.242,65.89952,-3.89495,-0.05225635,0.74764
610.942,66.17107,-3.89495,-0.05038644,0.7452
613.642,66.44198,-3.89561,-0.05199132,0.74276
616.342,66.71225,-3.89585,-0.05311855,0.74031
619.042,66.98258,-3.89525,-0.05192675,0.73786
621.742,67.2534,-3.89528,-0.05226033,0.73542
624.442,67.5237,-3.89494,-0.05337001,0.73296
627.142,67.79483,-3.89495,-0.04987634,0.73051
629.842,68.0658,-3.89426,-0.04343643,0.72806
632.542,68.33765,-3.89547,-0.04798794,0.7256
635.242,68.6098,-3.89594,-0.04337851,0.72314
637.942,68.8814,-3.89495,-0.04660731,0.72068
640.642,69.15361,-3.88847,-0.0483803,0.71822
643.342,69.42634,-3.8933,-0.04226536,0.71576
646.042,69.69906,-3.89944,-0.03625681,0.71329
648.742,69.97116,-3.89714,-0.0379178,0.71082
648.942,69.9913,-3.89714,-0.03688451,0.71064

File: Coffee_Maker_STA_N2_10KData_220202_R2.csv
##Temp./Â°C,Time/min,Mass loss(subtr.2)/mg,DSC(subtr.2)/(mW/mg),Sensit./(uV/mW)
49.364,10.01,0.02293,-0.001239513,1.07447
51.964,11.2136,0.02395504,0.14854,1.07428
54.564,11.60997,0.02315164,0.22,1.07408
57.164,11.94153,0.02511803,0.26616,1.07386
59.764,12.24709,0.02455673,0.29615,1.07363
62.364,12.54133,0.02594096,0.31568,1.07338
64.964,12.8279,0.02587426,0.32522,1.07312
67.564,13.10975,0.02741252,0.33161,1.07283
70.164,13.3872,0.02620648,0.33792,1.07254
72.764,13.6624,0.02479153,0.34198,1.07223
75.364,13.93612,0.0246903,0.34423,1.0719
77.964,14.20723,0.02750958,0.34788,1.07156
80.564,14.47541,0.02642845,0.35248,1.0712
83.164,14.74177,0.02616,0.35549,1.07082
85.764,15.006,0.0244601,0.3595,1.07043
88.364,15.26915,0.02347934,0.36428,1.07003
90.964,15.5309,0.02511972,0.36962,1.0696
93.564,15.7906,0.02512776,0.37642,1.06917
96.164,16.0485,0.02555995,0.38254,1.06872
98.764,16.3054,0.02498092,0.38791,1.06825
101.364,16.56107,0.02655076,0.39321,1.06776
103.964,16.81652,0.02621,0.39709,1.06727
106.564,17.07104,0.02491317,0.40423,1.06675
109.164,17.32537,0.02489329,0.40455,1.06622
111.764,17.5797,0.02622,0.40811,1.06568
114.364,17.83416,0.02630571,0.41312,1.06512
116.964,18.08805,0.02521958,0.4196,1.06454
119.564,18.34153,0.0262187,0.42508,1.06395
122.164,18.5948,0.02773911,0.42934,1.06335
124.764,18.8474,0.02512014,0.43653,1.06273
127.364,19.10077,0.02479,0.44257,1.06209
129.964,19.3535,0.02479,0.44783,1.06144
132.564,19.60626,0.02478297,0.45788,1.06077
135.164,19.85905,0.0247901,0.4692,1.06009
137.764,20.111,0.02479,0.48674,1.0594
140.364,20.36255,0.02478638,0.50787,1.05869
142.964,20.6131,0.02610819,0.53439,1.05796
145.564,20.86404,0.02479,0.56796,1.05722
148.164,21.11509,0.02682498,0.6124,1.05647
150.764,21.3662,0.02479049,0.67116,1.0557
153.364,21.6182,0.02445868,0.75791,1.05491
155.964,21.87045,0.02609309,0.88956,1.05411
158.564,22.12284,0.02610996,1.06852,1.0533
161.164,22.37506,0.02609643,1.29702,1.05247
163.764,22.6279,0.02742633,1.52804,1.05163
166.364,22.88124,0.02780641,1.62288,1.05077
168.964,23.13137,0.02616055,1.1942,1.0499
171.564,23.37752,0.02742,0.71467,1.04901
174.164,23.62213,0.02610089,0.57922,1.04811
176.764,23.86815,0.02742,0.54463,1.0472
179.364,24.11521,0.02611066,0.53367,1.04627
181.964,24.36296,0.02643934,0.5322,1.04532
184.564,24.60985,0.02644,0.53086,1.04437
187.164,24.85688,0.0260935,0.53356,1.0434
189.764,25.10458,0.02611253,0.53339,1.04241
192.364,25.35187,0.02478999,0.53678,1.04141
194.964,25.5994,0.02478995,0.53813,1.0404
197.564,25.84691,0.02542466,0.54133,1.03937
200.164,26.09431,0.02414055,0.54369,1.03833
202.764,26.3417,0.0238001,0.54526,1.03728
205.364,26.58939,0.02479,0.54774,1.03621
207.964,26.83628,0.02345728,0.54854,1.03512
210.564,27.08468,0.02479,0.55266,1.03403
213.164,27.3328,0.02348,0.55262,1.03292
215.764,27.58065,0.02347418,0.55379,1.0318
218.364,27.82814,0.02347,0.55774,1.03066
220.964,28.07654,0.02347003,0.55866,1.02951
223.564,28.32488,0.02340233,0.56063,1.02835
226.164,28.57287,0.02345023,0.56071,1.02717
228.764,28.8208,0.02210645,0.56562,1.02598
231.364,29.0692,0.02347419,0.56521,1.02478
233.964,29.31715,0.02216,0.5672,1.02356
236.564,29.5661,0.02248458,0.56835,1.02234
239.164,29.8144,0.02149,0.57062,1.02109
241.764,30.0618,0.02144426,0.57111,1.01984
244.364,30.31028,0.0215,0.57502,1.01857
246.964,30.5587,0.02127894,0.57802,1.01729
249.564,30.80733,0.01963019,0.57796,1.016
252.164,31.0555,0.02161593,0.58154,1.01469
254.764,31.3036,0.02095026,0.58292,1.01337
257.364,31.55166,0.02029,0.58444,1.01204
259.964,31.8,0.01898004,0.58676,1.0107
262.564,32.04813,0.01948453,0.58859,1.00935
265.164,32.29714,0.01908887,0.59044,1.00798
267.764,32.54566,0.02045446,0.59166,1.0066
270.364,32.79363,0.01909137,0.59192,1.0052
272.964,33.0437,0.01907995,0.59436,1.0038
275.564,33.29185,0.01790339,0.59714,1.00238
278.164,33.54079,0.01908741,0.60031,1.00095
280.764,33.7892,0.01881761,0.60336,0.99951
283.364,34.03818,0.01790309,0.60491,0.99806
285.964,34.2871,0.01785493,0.605,0.9966
288.564,34.53641,0.01854,0.60848,0.99512
291.164,34.78499,0.01722475,0.61096,0.99363
293.764,35.03452,0.01722,0.6126,0.99213
296.364,35.2834,0.01775794,0.61436,0.99062
298.964,35.53192,0.01655927,0.61584,0.9891
301.564,35.78068,0.01623,0.61805,0.98757
304.164,36.02952,0.01622952,0.61958,0.98602
306.764,36.27798,0.01492551,0.62092,0.98446
309.364,36.52732,0.01492064,0.62315,0.9829
311.964,36.77667,0.01525,0.62476,0.98132
314.564,37.02616,0.01525055,0.62571,0.97973
317.164,37.2755,0.01426005,0.62531,0.97813
319.764,37.5259,0.01425972,0.62575,0.97651
322.364,37.77637,0.01130071,0.62549,0.97489
324.964,38.0273,0.01195,0.62961,0.97326
327.564,38.27832,0.0114289,0.63178,0.97161
330.164,38.5289,0.01064,0.6389,0.96996
332.764,38.77949,0.00933059,0.6376,0.96829
335.364,39.03076,0.00801563,0.64094,0.96662
337.964,39.2823,0.00734995,0.64113,0.96493
340.564,39.53436,0.006698875,0.64328,0.96323
343.164,39.78699,0.00554004,0.65046,0.96153
345.764,40.03828,0.00219016,0.65353,0.95981
348.364,40.29025,0.00219,0.65513,0.95808
350.964,40.54156,-0.000475381,0.65894,0.95634
353.564,40.79334,-0.0004406823,0.66239,0.9546
356.164,41.0449,-0.00373643,0.66676,0.95284
358.764,41.29613,-0.005049963,0.67201,0.95107
361.364,41.54717,-0.007359763,0.67099,0.9493
363.964,41.7993,-0.008999986,0.66909,0.94751
366.564,42.0514,-0.01233412,0.67079,0.94571
369.164,42.30358,-0.01491751,0.67227,0.94391
371.764,42.55638,-0.01791544,0.6733,0.94209
374.364,42.80875,-0.02215004,0.68041,0.94027
376.964,43.06122,-0.0247785,0.68547,0.93844
379.564,43.31322,-0.03010133,0.68797,0.93659
382.164,43.56495,-0.03313689,0.6952,0.93474
384.764,43.81767,-0.03793369,0.69639,0.93288
387.364,44.0705,-0.04321192,0.70103,0.93101
389.964,44.32307,-0.04846407,0.70545,0.92913
392.564,44.57575,-0.05375335,0.71255,0.92724
395.164,44.82911,-0.06071725,0.7242,0.92535
397.764,45.082,-0.07009663,0.73633,0.92344
400.364,45.33538,-0.07792575,0.73969,0.92153
402.964,45.58866,-0.08806761,0.75266,0.9196
405.564,45.84236,-0.09692386,0.76831,0.91767
408.164,46.09675,-0.10937,0.7853,0.91573
410.764,46.3513,-0.12422,0.80906,0.91379
413.364,46.60563,-0.14028,0.8327,0.91183
415.964,46.86014,-0.1585,0.86383,0.90987
418.564,47.11363,-0.1797,0.90002,0.9079
421.164,47.36745,-0.20504,0.94647,0.90592
423.764,47.62113,-0.23455,0.99315,0.90393
426.364,47.8755,-0.26948,1.05483,0.90193
428.964,48.1299,-0.31005,1.03829,0.89993
431.564,48.38475,-0.35455,1.08997,0.89792
434.164,48.63967,-0.4085,1.16785,0.8959
436.764,48.8952,-0.47245,1.29116,0.89387
439.364,49.15108,-0.5537,1.42432,0.89184
441.964,49.40749,-0.65142,1.57599,0.8898
444.564,49.66404,-0.77402,1.74013,0.88775
447.164,49.92187,-0.91884,1.91908,0.8857
449.764,50.17917,-1.09838,2.10762,0.88363
452.364,50.43707,-1.30533,2.28134,0.88157
454.964,50.695,-1.55249,2.41347,0.87949
457.564,50.9523,-1.82571,2.52998,0.87741
460.164,51.21011,-2.13333,2.58642,0.87532
462.764,51.46698,-2.45888,2.49563,0.87322
465.364,51.72294,-2.78612,2.28687,0.87112
467.964,51.9775,-3.09827,1.95687,0.86901
470.564,52.22998,-3.37217,1.57081,0.86689
473.164,52.4812,-3.59457,1.11946,0.86477
475.764,52.7323,-3.75011,0.69772,0.86264
478.364,52.98457,-3.84861,0.40207,0.8605
480.964,53.23865,-3.90216,0.23021,0.85836
483.564,53.49391,-3.93013,0.14218,0.85621
486.164,53.75,-3.94475,0.10203,0.85406
488.764,54.00639,-3.95259,0.07197886,0.8519
491.364,54.2632,-3.95539,0.06025693,0.84974
493.964,54.5188,-3.9567,0.08422038,0.84756
496.564,54.7752,-3.9566,0.05728025,0.84539
499.164,55.0328,-3.95605,0.05644838,0.84321
501.764,55.29034,-3.95639,0.05811881,0.84102
504.364,55.54798,-3.95506,0.05866834,0.83882
506.964,55.80571,-3.95769,0.05491894,0.83663
509.564,56.06366,-3.95629,0.05836056,0.83442
512.164,56.3218,-3.95802,0.05288224,0.83221
514.764,56.5807,-3.95774,0.05643088,0.83
517.364,56.83899,-3.9567,0.04581342,0.82778
519.964,57.09697,-3.95703,0.04484128,0.82556
522.564,57.35544,-3.95835,0.04098286,0.82333
525.164,57.61326,-3.95835,0.04127743,0.82109
527.764,57.87095,-3.95901,0.0432815,0.81885
530.364,58.1287,-3.95901,0.04345506,0.81661
532.964,58.38612,-3.95901,0.04483658,0.81436
535.564,58.6438,-3.95834,0.04377066,0.81211
538.164,58.90235,-3.95835,0.04426721,0.80985
540.764,59.1606,-3.95901,0.04435044,0.80759
543.364,59.41978,-3.95835,0.04324692,0.80533
545.964,59.67901,-3.96,0.04559988,0.80306
548.564,59.93825,-3.95901,0.04569918,0.80078
551.164,60.1977,-3.95934,0.0477534,0.79851
553.764,60.45621,-3.95934,0.04648863,0.79622
556.364,60.71586,-3.95749,0.0483404,0.79394
558.964,60.97518,-3.95632,0.04973528,0.79165
561.564,61.23445,-3.95802,0.05474867,0.78936
564.164,61.49377,-3.95802,0.05419593,0.78706
566.764,61.753,-3.95877,0.05299819,0.78476
569.364,62.01246,-3.95835,0.06097708,0.78246
571.964,62.27104,-3.95703,0.05850835,0.78015
574.564,62.53018,-3.95835,0.06066345,0.77784
577.164,62.78945,-3.9577,0.06252649,0.77552
579.764,63.05027,-3.9577,0.06199056,0.77321
582.364,63.31123,-3.95704,0.06194675,0.77089
584.964,63.5721,-3.95704,0.06546272,0.76856
587.564,63.8318,-3.95671,0.06554582,0.76624
590.164,64.09233,-3.95803,0.06675005,0.76391
592.764,64.35177,-3.95739,0.06928755,0.76158
595.364,64.61071,-3.9587,0.07359703,0.75924
597.964,64.87114,-3.95901,0.06889336,0.7569
600.564,65.13117,-3.95637,0.07289641,0.75456
603.164,65.39102,-3.95759,0.07258178,0.75222
605.764,65.65132,-3.95759,0.0729843,0.74988
608.364,65.91215,-3.95759,0.07369915,0.74753
610.964,66.17331,-3.95759,0.07796297,0.74518
613.564,66.43457,-3.95825,0.07586018,0.74283
616.164,66.69716,-3.95825,0.07467084,0.74047
618.764,66.95917,-3.95825,0.07631695,0.73812
621.364,67.22106,-3.95824,0.07863121,0.73576
623.964,67.4826,-3.95692,0.08042533,0.7334
626.564,67.74409,-3.95824,0.07950307,0.73104
629.164,68.00539,-3.95857,0.07795919,0.72867
631.764,68.26711,-3.95857,0.07816045,0.72631
634.364,68.52879,-3.95824,0.085785,0.72394
636.964,68.78955,-3.95824,0.08675353,0.72157
639.564,69.0514,-3.95691,0.08236989,0.7192
642.164,69.31331,-3.9572,0.08942266,0.71683
644.764,69.5749,-3.95955,0.08569147,0.71446
647.364,69.8361,-3.96054,0.0891782,0.71208
648.964,69.9962,-3.95923,0.08573367,0.71062