Folder: fsri_materials_database/01_Data/Coffee_Machine/STA/N2/30K_min

Note: 01_Data/README.md
# Materials and Products Database
## 01_Data

Raw data generated from each apparatus are included here in plain-text format. The data is organized first by material, next by the short name of test apparatus used, and where applicable additional filtering by test settings.

### material.json

Each material directory contains a json file of the same name as the material. This file links the data stored in the repository as well as data and graphs produced by the accompanying scripts (__02_Scripts__) to the respective landing page for the material on the front-end website.

File: Coffee_Machine_STA_N2_30KData_220201_R1.csv
##Temp./Â°C,Time/min,Mass loss(subtr.2)/mg,DSC(subtr.2)/(mW/mg),Sensit./(uV/mW)
49.249,10.00667,-0.00352,0.002689618,1.07447
51.949,10.83183,-0.00520276,0.19237,1.07428
54.649,11.04721,-0.008728645,0.33007,1.07407
57.349,11.21119,-0.005958956,0.44206,1.07385
60.049,11.35144,-0.00515982,0.53787,1.0736
62.749,11.47799,-0.0066227,0.62152,1.07334
65.449,11.5953,-0.004516371,0.69244,1.07306
68.149,11.70708,-0.005946723,0.75316,1.07277
70.849,11.81436,-0.004219335,0.80168,1.07246
73.549,11.91808,-0.004048725,0.83941,1.07213
76.249,12.01925,-0.004257296,0.86971,1.07178
78.949,12.11848,-0.003329807,0.89591,1.07142
81.649,12.21607,-0.005009822,0.91762,1.07104
84.349,12.31247,-0.00442592,0.93542,1.07065
87.049,12.40762,-0.004602163,0.95202,1.07023
89.749,12.50177,-0.001853876,0.96759,1.0698
92.449,12.59496,-0.001991803,0.98159,1.06936
95.149,12.68735,-0.00351625,0.99559,1.06889
97.849,12.77962,-0.00350967,1.00665,1.06841
100.549,12.8713,-0.00290451,1.01836,1.06792
103.249,12.96234,-0.003510832,1.03165,1.0674
105.949,13.0534,-0.00351975,1.0418,1.06687
108.649,13.1442,-0.00352,1.05074,1.06633
111.349,13.23497,-0.003558871,1.06294,1.06577
114.049,13.32523,-0.00482999,1.07507,1.06519
116.749,13.41572,-0.004880742,1.08582,1.06459
119.449,13.5056,-0.003498852,1.10022,1.06398
122.149,13.5952,-0.003519752,1.11434,1.06335
124.849,13.6844,-0.00352135,1.13309,1.06271
127.549,13.77341,-0.0022,1.15485,1.06204
130.249,13.8622,-0.003506042,1.1772,1.06137
132.949,13.9505,-0.002199848,1.20919,1.06067
135.649,14.03825,-0.003510878,1.24723,1.05996
138.349,14.12592,-0.00483,1.29269,1.05924
141.049,14.213,-0.004847376,1.34921,1.0585
143.749,14.29974,-0.00484,1.42155,1.05774
146.449,14.3863,-0.00484,1.51261,1.05697
149.149,14.4727,-0.004840134,1.63719,1.05618
151.849,14.55905,-0.003190176,1.80485,1.05537
154.549,14.64515,-0.00318991,2.03279,1.05455
157.249,14.7313,-0.004501071,2.3336,1.05371
159.949,14.81749,-0.003800693,2.68658,1.05286
162.649,14.9037,-0.00384,3.06071,1.05199
165.349,14.98996,-0.002534796,3.36172,1.05111
168.049,15.0758,-0.003510885,3.39063,1.05021
170.749,15.16145,-0.001985536,3.08436,1.04929
173.449,15.2463,-0.003734728,2.60906,1.04836
176.149,15.3307,-0.00505,2.187,1.04741
178.849,15.41435,-0.005714219,1.90906,1.04645
181.549,15.4978,-0.005048255,1.73738,1.04548
184.249,15.5808,-0.005709943,1.63632,1.04448
186.949,15.66366,-0.005037158,1.57833,1.04348
189.649,15.7462,-0.005059999,1.5407,1.04245
192.349,15.8286,-0.0063744,1.52659,1.04142
195.049,15.91116,-0.00509978,1.51703,1.04036
197.749,15.99366,-0.00374,1.51186,1.0393
200.449,16.0761,-0.0039726,1.51134,1.03821
203.149,16.1585,-0.00637063,1.51261,1.03712
205.849,16.24073,-0.00637,1.51733,1.03601
208.549,16.323,-0.006363962,1.52083,1.03488
211.249,16.4052,-0.00571,1.52396,1.03374
213.949,16.4873,-0.004365645,1.53233,1.03258
216.649,16.56941,-0.005711351,1.53764,1.03141
219.349,16.65129,-0.00538241,1.54306,1.03023
222.049,16.7334,-0.00429102,1.55023,1.02903
224.749,16.8155,-0.00635881,1.55572,1.02781
227.449,16.8975,-0.007141,1.56166,1.02659
230.149,16.9794,-0.00846169,1.56714,1.02534
232.849,17.0612,-0.007139999,1.57297,1.02409
235.549,17.14309,-0.00714,1.58068,1.02282
238.249,17.22496,-0.00714,1.58376,1.02153
240.949,17.30622,-0.007140034,1.5906,1.02023
243.649,17.38847,-0.00813241,1.59591,1.01892
246.349,17.47012,-0.00813,1.60184,1.0176
249.049,17.55187,-0.00813,1.6086,1.01626
251.749,17.63351,-0.008788951,1.61191,1.0149
254.449,17.7151,-0.00879,1.61785,1.01354
257.149,17.79671,-0.00879,1.62441,1.01215
259.849,17.87828,-0.00879,1.62665,1.01076
262.549,17.95968,-0.00879,1.63171,1.00935
265.249,18.04146,-0.008789992,1.63921,1.00793
267.949,18.12293,-0.01009908,1.6443,1.0065
270.649,18.2042,-0.01108006,1.65098,1.00505
273.349,18.28571,-0.01109249,1.65738,1.00359
276.049,18.36721,-0.00977,1.66329,1.00212
278.749,18.44878,-0.00977,1.66801,1.00063
281.449,18.53029,-0.00977007,1.67421,0.99913
284.149,18.61188,-0.0110897,1.68207,0.99762
286.849,18.69335,-0.01043,1.68582,0.9961
289.549,18.77498,-0.01043,1.69373,0.99456
292.249,18.8566,-0.01178821,1.69868,0.99301
294.949,18.9382,-0.01042022,1.70465,0.99145
297.649,19.01977,-0.01173998,1.70907,0.98987
300.349,19.10152,-0.0117102,1.71474,0.98828
303.049,19.1832,-0.01076003,1.72162,0.98668
305.749,19.2649,-0.01239944,1.72407,0.98507
308.449,19.34645,-0.0124,1.72958,0.98345
311.149,19.42831,-0.01243594,1.73734,0.98181
313.849,19.51005,-0.01338,1.74105,0.98016
316.549,19.5918,-0.01337999,1.75003,0.97851
319.249,19.67365,-0.01404003,1.75271,0.97683
321.949,19.7557,-0.01403987,1.7572,0.97515
324.649,19.8376,-0.01436999,1.76478,0.97346
327.349,19.91958,-0.01437009,1.76988,0.97175
330.049,20.00167,-0.01437004,1.77577,0.97003
332.749,20.084,-0.01536012,1.77773,0.9683
335.449,20.16619,-0.01568999,1.78082,0.96656
338.149,20.24843,-0.01609733,1.78898,0.96481
340.849,20.33073,-0.0173299,1.78943,0.96305
343.549,20.41325,-0.01865,1.7984,0.96127
346.249,20.49563,-0.01865,1.80303,0.95949
348.949,20.578,-0.01996189,1.80744,0.95769
351.649,20.6605,-0.02160271,1.8151,0.95589
354.349,20.74294,-0.021616,1.82044,0.95407
357.049,20.8256,-0.02226999,1.8281,0.95224
359.749,20.90814,-0.02359023,1.82988,0.9504
362.449,20.99095,-0.02483737,1.83776,0.94855
365.149,21.07374,-0.0259239,1.84424,0.94669
367.849,21.15646,-0.02622032,1.84866,0.94482
370.549,21.23949,-0.02754039,1.8545,0.94294
373.249,21.32252,-0.02884717,1.8621,0.94105
375.949,21.40555,-0.03150665,1.86028,0.93915
378.649,21.48871,-0.03279902,1.86377,0.93724
381.349,21.57198,-0.03411985,1.86852,0.93532
384.049,21.65523,-0.03542889,1.87383,0.93339
386.749,21.7385,-0.03809393,1.87659,0.93145
389.449,21.82209,-0.03990888,1.88175,0.9295
392.149,21.90551,-0.04300772,1.88795,0.92754
394.849,21.98919,-0.04571534,1.89594,0.92558
397.549,22.0728,-0.04848195,1.90791,0.9236
400.249,22.15662,-0.05198378,1.91631,0.92161
402.949,22.24036,-0.05573915,1.92798,0.91962
405.649,22.32432,-0.05881207,1.93997,0.91761
408.349,22.40794,-0.06336347,1.95724,0.9156
411.049,22.49202,-0.06811326,1.99345,0.91357
413.749,22.57609,-0.07347322,2.01981,0.91154
416.449,22.6602,-0.0793488,2.04458,0.9095
419.149,22.74464,-0.0867416,2.07288,0.90745
421.849,22.82899,-0.09561809,2.11378,0.90539
424.549,22.91341,-0.10598,2.14734,0.90333
427.249,22.9979,-0.11595,2.20668,0.90125
429.949,23.08246,-0.1282,2.25935,0.89917
432.649,23.16714,-0.14213,2.32621,0.89708
435.349,23.2519,-0.15703,2.40734,0.89498
438.049,23.3367,-0.17823,2.54505,0.89287
440.749,23.4219,-0.19907,2.61411,0.89075
443.449,23.50689,-0.22637,2.72768,0.88863
446.149,23.59206,-0.25816,2.85257,0.8865
448.849,23.6773,-0.29582,3.00915,0.88436
451.549,23.76265,-0.33796,3.20254,0.88221
454.249,23.84826,-0.38677,3.45048,0.88006
456.949,23.9339,-0.44656,3.71166,0.8779
459.649,24.01974,-0.52283,4.02079,0.87573
462.349,24.10581,-0.61044,4.37251,0.87355
465.049,24.1919,-0.71538,4.76243,0.87137
467.749,24.27819,-0.84181,5.17665,0.86918
470.449,24.36474,-0.99384,5.62166,0.86698
473.149,24.45145,-1.17238,6.06517,0.86478
475.849,24.53835,-1.38091,6.47994,0.86257
478.549,24.62514,-1.64331,6.81117,0.86035
481.249,24.71227,-1.91751,7.08379,0.85813
483.949,24.79907,-2.22056,7.04566,0.8559
486.649,24.88556,-2.52989,6.80009,0.85366
489.349,24.97167,-2.83502,6.29467,0.85141
492.049,25.05728,-3.1193,5.48279,0.84916
494.749,25.14274,-3.36707,4.43587,0.84691
497.449,25.22762,-3.56548,3.29053,0.84465
500.149,25.31204,-3.70769,2.24121,0.84238
502.849,25.3962,-3.80267,1.4202,0.8401
505.549,25.48028,-3.86045,0.85898,0.83782
508.249,25.56445,-3.89385,0.50691,0.83554
510.949,25.6492,-3.91591,0.29557,0.83325
513.649,25.7341,-3.92638,0.17054,0.83095
516.349,25.81939,-3.93191,0.09506844,0.82865
519.049,25.9052,-3.93324,0.05063748,0.82634
521.749,25.9906,-3.93324,0.02406305,0.82403
524.449,26.0773,-3.93522,0.00128075,0.82171
527.149,26.1635,-3.9362,-0.00702761,0.81938
529.849,26.2499,-3.9362,-0.01050014,0.81706
532.549,26.3363,-3.93726,-0.0086234,0.81472
535.249,26.4229,-3.93719,-0.01259691,0.81238
537.949,26.50975,-3.93839,-0.01394612,0.81004
540.649,26.59665,-3.93851,-0.01448007,0.80769
543.349,26.68352,-3.93752,-0.01174082,0.80534
546.049,26.7706,-3.93785,-0.01381215,0.80298
548.749,26.85762,-3.93785,-0.01237633,0.80062
551.449,26.9449,-3.93884,-0.00559487,0.79826
554.149,27.03221,-3.93884,-0.00611812,0.79589
556.849,27.1198,-3.93884,-0.01935132,0.79351
559.549,27.2074,-3.93752,-0.02987804,0.79113
562.249,27.29502,-3.93752,-0.03437203,0.78875
564.949,27.3827,-3.93916,-0.03774243,0.78637
567.649,27.47046,-3.93916,-0.03842344,0.78398
570.349,27.55831,-3.93916,-0.04508715,0.78158
573.049,27.6464,-3.93916,-0.04556727,0.77918
575.749,27.7344,-3.93916,-0.04810308,0.77678
578.449,27.82252,-3.93917,-0.04957933,0.77438
581.149,27.91054,-3.93982,-0.0484223,0.77197
583.849,27.9985,-3.93987,-0.04989238,0.76956
586.549,28.0868,-3.93883,-0.04849663,0.76715
589.249,28.1748,-3.93883,-0.04685911,0.76473
591.949,28.26308,-3.93881,-0.04731888,0.76231
594.649,28.35143,-3.93981,-0.04538068,0.75988
597.349,28.4399,-3.93982,-0.04754495,0.75746
600.049,28.5283,-3.94048,-0.04703726,0.75503
602.749,28.6164,-3.94048,-0.04906172,0.75259
605.449,28.7048,-3.94048,-0.049129,0.75016
608.149,28.79338,-3.94048,-0.04845296,0.74772
610.849,28.8818,-3.93984,-0.04883374,0.74528
613.549,28.9704,-3.93907,-0.04470614,0.74284
616.249,29.0588,-3.94037,-0.04604288,0.7404
618.949,29.1472,-3.94169,-0.04819232,0.73795
621.649,29.23602,-3.9407,-0.04672196,0.7355
624.349,29.3247,-3.94039,-0.04937333,0.73305
627.049,29.41337,-3.94103,-0.04377752,0.7306
629.749,29.5019,-3.94103,-0.04515437,0.72814
632.449,29.59065,-3.94107,-0.04424008,0.72568
635.149,29.6794,-3.94108,-0.04309753,0.72323
637.849,29.76823,-3.94034,-0.03897189,0.72077
640.549,29.85704,-3.93893,-0.03863139,0.7183
643.249,29.946,-3.94026,-0.03620616,0.71584
644.849,29.9987,-3.94026,-0.0367847,0.71438

File: Coffee_Machine_STA_N2_30KData_220203_R3.csv
##Temp./Â°C,Time/min,Mass loss(subtr.2)/mg,DSC(subtr.2)/(mW/mg),Sensit./(uV/mW)
48.235,10.00667,0.03126,-0.003763416,1.06966
50.835,10.8202,0.03213309,0.17724,1.06943
53.435,11.03262,0.03307594,0.31421,1.06917
56.035,11.1934,0.03543047,0.42434,1.0689
58.635,11.331,0.03513965,0.52183,1.06862
61.235,11.45456,0.03737068,0.60205,1.06831
63.835,11.56939,0.03647591,0.67462,1.06798
66.435,11.6777,0.03621086,0.73549,1.06764
69.035,11.78242,0.03677979,0.78357,1.06727
71.635,11.88325,0.03630544,0.82377,1.06689
74.235,11.9818,0.03740383,0.853,1.06649
76.835,12.07848,0.03673008,0.87694,1.06607
79.435,12.17338,0.03684924,0.89675,1.06563
82.035,12.267,0.03857662,0.91756,1.06518
84.635,12.35898,0.0372607,0.93255,1.0647
87.235,12.45016,0.03921327,0.94646,1.06421
89.835,12.54043,0.03825834,0.96212,1.0637
92.435,12.63011,0.03886363,0.97693,1.06317
95.035,12.7191,0.04002946,0.99051,1.06263
97.635,12.80748,0.03927055,1.0034,1.06206
100.235,12.89541,0.03870807,1.01506,1.06148
102.835,12.983,0.04001645,1.02411,1.06088
105.435,13.07048,0.04004317,1.03576,1.06027
108.035,13.158,0.03872015,1.04553,1.05963
110.635,13.24497,0.03883468,1.0555,1.05898
113.235,13.332,0.04010723,1.06769,1.05831
115.835,13.41894,0.04279971,1.07675,1.05763
118.435,13.5056,0.04146275,1.08798,1.05692
121.035,13.592,0.04146003,1.10412,1.0562
123.635,13.67813,0.04146,1.12052,1.05547
126.235,13.7638,0.04151239,1.13921,1.05471
128.835,13.84932,0.04008471,1.16043,1.05394
131.435,13.93457,0.04111717,1.18787,1.05315
134.035,14.0198,0.04277098,1.22144,1.05235
136.635,14.10423,0.04145002,1.26287,1.05153
139.235,14.18879,0.04145,1.31581,1.05069
141.835,14.2729,0.04145645,1.37959,1.04983
144.435,14.35674,0.04015425,1.45879,1.04896
147.035,14.44043,0.04145829,1.56206,1.04808
149.635,14.52369,0.04145596,1.69851,1.04717
152.235,14.60709,0.04146,1.88119,1.04625
154.835,14.6902,0.04145999,2.11146,1.04532
157.435,14.7734,0.04276997,2.40335,1.04437
160.035,14.8568,0.04277002,2.75112,1.0434
162.635,14.93966,0.04408999,3.12674,1.04242
165.235,15.02289,0.04278003,3.43774,1.04142
167.835,15.1059,0.04277995,3.48094,1.04041
170.435,15.18785,0.04409998,3.11162,1.03938
173.035,15.2703,0.04344628,2.55036,1.03833
175.635,15.3515,0.04343873,2.13826,1.03727
178.235,15.43224,0.04278,1.88453,1.0362
180.835,15.5124,0.04277911,1.73138,1.03511
183.435,15.5924,0.04409,1.63788,1.034
186.035,15.67208,0.04409,1.58117,1.03288
188.635,15.7517,0.0435738,1.5506,1.03175
191.235,15.83121,0.04343,1.5321,1.0306
193.835,15.9108,0.04478903,1.52494,1.02944
196.435,15.99017,0.04605623,1.52119,1.02826
199.035,16.0696,0.04475,1.52047,1.02707
201.635,16.14888,0.04475,1.5216,1.02586
204.235,16.22822,0.04412368,1.52659,1.02464
206.835,16.3074,0.04508,1.53108,1.0234
209.435,16.38658,0.04508,1.53556,1.02215
212.035,16.46595,0.04475013,1.54385,1.02089
214.635,16.54488,0.04343273,1.54468,1.01962
217.235,16.62407,0.04343,1.55481,1.01833
219.835,16.703,0.04343,1.55861,1.01702
222.435,16.78196,0.04343022,1.56522,1.01571
225.035,16.86103,0.04474998,1.56869,1.01437
227.635,16.93979,0.04474832,1.57532,1.01303
230.235,17.01876,0.04414001,1.58249,1.01168
232.835,17.0976,0.04441325,1.58682,1.01031
235.435,17.17653,0.0444217,1.59042,1.00892
238.035,17.25515,0.04376,1.59868,1.00753
240.635,17.33396,0.04376075,1.60376,1.00612
243.235,17.41244,0.04475,1.60978,1.0047
245.835,17.49115,0.04381254,1.61428,1.00327
248.435,17.56964,0.04276969,1.61735,1.00182
251.035,17.64808,0.04277,1.62248,1.00036
253.635,17.72671,0.04277003,1.62794,0.99889
256.235,17.80515,0.04244,1.63523,0.99741
258.835,17.88356,0.04243964,1.63916,0.99592
261.435,17.96196,0.04112987,1.64629,0.99441
264.035,18.04042,0.04243998,1.65021,0.9929
266.635,18.1189,0.04243952,1.65587,0.99137
269.235,18.1973,0.04211,1.66184,0.98983
271.835,18.27575,0.04211,1.66781,0.98828
274.435,18.3542,0.04211,1.674,0.98671
277.035,18.4326,0.04210946,1.67759,0.98514
279.635,18.51115,0.04075011,1.68207,0.98356
282.235,18.58954,0.04310114,1.68656,0.98196
284.835,18.66805,0.0431,1.69078,0.98035
287.435,18.74677,0.0431,1.69668,0.97874
290.035,18.82536,0.04310297,1.69988,0.97711
292.635,18.90395,0.04179001,1.70398,0.97547
295.235,18.98249,0.04179,1.70881,0.97382
297.835,19.06127,0.04179,1.71087,0.97216
300.435,19.13994,0.04179,1.7171,0.97049
303.035,19.21874,0.04179,1.72142,0.96881
305.635,19.2975,0.0421195,1.72244,0.96712
308.235,19.37622,0.04212,1.72819,0.96543
310.835,19.4551,0.04212,1.72986,0.96372
313.435,19.5335,0.04212007,1.73364,0.962
316.035,19.6128,0.03980996,1.73665,0.96027
318.635,19.69177,0.03981,1.74116,0.95853
321.235,19.77076,0.03981,1.74611,0.95679
323.835,19.8496,0.03981,1.75031,0.95503
326.435,19.92845,0.03980964,1.75208,0.95327
329.035,20.00781,0.03848676,1.75502,0.95149
331.635,20.08708,0.03849,1.7616,0.94971
334.235,20.16636,0.03849,1.76257,0.94792
336.835,20.2456,0.03849,1.7661,0.94612
339.435,20.3249,0.03850547,1.7722,0.94431
342.035,20.40429,0.03751,1.77658,0.94249
344.635,20.4838,0.03751001,1.7795,0.94067
347.235,20.56344,0.03717983,1.78479,0.93884
349.835,20.643,0.03685075,1.78695,0.93699
352.435,20.72265,0.0355299,1.79182,0.93515
355.035,20.8024,0.03553,1.79772,0.93329
357.635,20.8822,0.03419132,1.80083,0.93142
360.235,20.96193,0.03290488,1.80271,0.92955
362.835,21.04187,0.0334077,1.80493,0.92767
365.435,21.12186,0.03374273,1.81336,0.92578
368.035,21.20178,0.03160015,1.81563,0.92389
370.635,21.28186,0.03027078,1.81857,0.92199
373.235,21.3621,0.02895999,1.82322,0.92008
375.835,21.44214,0.02881317,1.82431,0.91816
378.435,21.5226,0.02764,1.82839,0.91624
381.035,21.6029,0.02632618,1.83187,0.91431
383.635,21.6834,0.02473779,1.83473,0.91237
386.235,21.76374,0.02338155,1.84272,0.91043
388.835,21.84423,0.02107051,1.84992,0.90848
391.435,21.92483,0.01973834,1.8556,0.90652
394.035,22.00566,0.01843248,1.86237,0.90456
396.635,22.08633,0.01578553,1.87621,0.90259
399.235,22.16722,0.01344425,1.8814,0.90062
401.835,22.24819,0.01001546,1.89224,0.89864
404.435,22.32913,0.006037651,1.90795,0.89665
407.035,22.40997,0.004426721,1.92655,0.89466
409.635,22.49108,-0.00154464,1.95216,0.89266
412.235,22.57219,-0.00659783,1.97905,0.89066
414.835,22.65332,-0.01173824,2.0018,0.88865
417.435,22.7345,-0.01711351,2.02693,0.88664
420.035,22.81575,-0.02346139,2.07138,0.88462
422.635,22.89714,-0.03091319,2.15358,0.8826
425.235,22.97845,-0.04217378,2.21072,0.88057
427.835,23.0599,-0.05308313,2.24304,0.87853
430.435,23.1417,-0.06613316,2.28712,0.87649
433.035,23.2231,-0.08069455,2.3569,0.87445
435.635,23.30487,-0.0987809,2.42824,0.8724
438.235,23.3866,-0.11691,2.52443,0.87035
440.835,23.46854,-0.13763,2.57031,0.86829
443.435,23.55039,-0.16195,2.55328,0.86623
446.035,23.63251,-0.18169,2.61689,0.86416
448.635,23.7148,-0.20232,2.75246,0.86209
451.235,23.7969,-0.23095,2.94789,0.86002
453.835,23.8793,-0.26919,3.18762,0.85794
456.435,23.96189,-0.31612,3.48323,0.85586
459.035,24.04449,-0.37535,3.81533,0.85377
461.635,24.12732,-0.45168,4.18681,0.85168
464.235,24.21034,-0.54445,4.60368,0.84959
466.835,24.29362,-0.65932,5.05491,0.84749
469.435,24.37695,-0.79786,5.52336,0.84539
472.035,24.46045,-0.96588,5.98973,0.84329
474.635,24.54413,-1.16045,6.42747,0.84118
477.235,24.6279,-1.41364,6.80432,0.83907
479.835,24.7117,-1.67543,7.03393,0.83696
482.435,24.79547,-1.96115,7.12453,0.83484
485.035,24.87908,-2.25959,6.96231,0.83272
487.635,24.96217,-2.56088,6.52552,0.8306
490.235,25.04533,-2.8517,5.83553,0.82847
492.835,25.12791,-3.11556,4.92273,0.82635
495.435,25.21027,-3.39372,3.64652,0.82422
498.035,25.29167,-3.57157,2.46841,0.82208
500.635,25.37238,-3.68623,1.57874,0.81995
503.235,25.45297,-3.75574,0.9364,0.81781
505.835,25.53373,-3.79529,0.52761,0.81567
508.435,25.61489,-3.81761,0.27638,0.81353
511.035,25.6965,-3.82781,0.12018,0.81139
513.635,25.7783,-3.83387,0.02779321,0.80924
516.235,25.86029,-3.83675,-0.0341344,0.8071
518.835,25.943,-3.83988,-0.07229017,0.80495
521.435,26.02565,-3.84297,-0.09098629,0.8028
524.035,26.10864,-3.84583,-0.10193,0.80064
526.635,26.19174,-3.84643,-0.10845,0.79849
529.235,26.2749,-3.84823,-0.11041,0.79633
531.835,26.3582,-3.84952,-0.10902,0.79418
534.435,26.44149,-3.85086,-0.11233,0.79202
537.035,26.52488,-3.85218,-0.10314,0.78986
539.635,26.60855,-3.85438,-0.10236,0.7877
542.235,26.6922,-3.8561,-0.10032,0.78554
544.835,26.776,-3.85671,-0.09377746,0.78337
547.435,26.85991,-3.85843,-0.08515667,0.78121
550.035,26.94394,-3.85843,-0.08167888,0.77904
552.635,27.02804,-3.85755,-0.09135202,0.77688
555.235,27.1124,-3.85843,-0.09797576,0.77471
557.835,27.1966,-3.85942,-0.10587,0.77254
560.435,27.2811,-3.85942,-0.11595,0.77038
563.035,27.36573,-3.85942,-0.12252,0.76821
565.635,27.45034,-3.85942,-0.1253,0.76604
568.235,27.5349,-3.85949,-0.12966,0.76387
570.835,27.61957,-3.85975,-0.13075,0.7617
573.435,27.70438,-3.85975,-0.13033,0.75953
576.035,27.7891,-3.85975,-0.13387,0.75736
578.635,27.87401,-3.86041,-0.13713,0.75519
581.235,27.9589,-3.85909,-0.14351,0.75302
583.835,28.04402,-3.85909,-0.14585,0.75085
586.435,28.12909,-3.85943,-0.14945,0.74868
589.035,28.21445,-3.85975,-0.15359,0.74651
591.635,28.29966,-3.85975,-0.15397,0.74434
594.235,28.385,-3.85876,-0.15298,0.74217
596.835,28.4704,-3.85859,-0.15423,0.74
599.435,28.5557,-3.85909,-0.15667,0.73783
602.035,28.6411,-3.85909,-0.15534,0.73566
604.635,28.72656,-3.85909,-0.15157,0.73349
607.235,28.8121,-3.85941,-0.15068,0.73132
609.835,28.8975,-3.86073,-0.15081,0.72916
612.435,28.98297,-3.86073,-0.15467,0.72699
615.035,29.0686,-3.85943,-0.15184,0.72482
617.635,29.1541,-3.86073,-0.1517,0.72266
620.235,29.2396,-3.86073,-0.14926,0.72049
622.835,29.32515,-3.86158,-0.15064,0.71833
625.435,29.41085,-3.86091,-0.14467,0.71617
628.035,29.4965,-3.86205,-0.14745,0.714
630.635,29.5822,-3.86205,-0.14327,0.71184
633.235,29.6678,-3.86203,-0.14739,0.70968
635.835,29.75352,-3.86106,-0.15144,0.70752
638.435,29.83936,-3.86106,-0.1486,0.70537
641.035,29.92513,-3.86139,-0.14954,0.70321
643.235,29.9979,-3.86139,-0.15129,0.70139