Folder: fsri_materials_database/01_Data/Coffee_Machine/STA/N2/30K_min (part 2)

File: Coffee_Maker_STA_N2_30KData_220203_R2.csv
##Temp./Â°C,Time/min,Mass loss(subtr.2)/mg,DSC(subtr.2)/(mW/mg),Sensit./(uV/mW)
48.363,10.00667,0.00966,-0.007360458,1.06965
50.963,10.82156,0.00939949,0.18659,1.06941
53.563,11.03333,0.01174065,0.32821,1.06916
56.163,11.19422,0.01166941,0.4431,1.06889
58.763,11.33181,0.01214149,0.53874,1.0686
61.363,11.45519,0.01246892,0.62603,1.06829
63.963,11.57007,0.01108716,0.69796,1.06796
66.563,11.67885,0.01212427,0.75986,1.06762
69.163,11.78325,0.01147169,0.80975,1.06725
71.763,11.88417,0.01189767,0.85121,1.06687
74.363,11.98276,0.01255773,0.88076,1.06647
76.963,12.07916,0.01160486,0.90674,1.06605
79.563,12.1741,0.01152087,0.92572,1.06561
82.163,12.26793,0.01175449,0.94599,1.06515
84.763,12.35971,0.01164746,0.96351,1.06468
87.363,12.4514,0.01383073,0.98016,1.06419
89.963,12.54176,0.0116388,0.99453,1.06368
92.563,12.63147,0.01146259,1.00786,1.06315
95.163,12.72055,0.01284409,1.02219,1.0626
97.763,12.80907,0.01277814,1.03348,1.06204
100.363,12.89717,0.01297563,1.04728,1.06145
102.963,12.98508,0.0142576,1.05949,1.06085
105.563,13.07283,0.01322818,1.06544,1.06024
108.163,13.16025,0.01427403,1.08005,1.0596
110.763,13.24751,0.01427803,1.09161,1.05895
113.363,13.33487,0.01426004,1.10344,1.05828
115.963,13.4217,0.01305074,1.11444,1.05759
118.563,13.5084,0.01441023,1.12691,1.05689
121.163,13.5949,0.01425987,1.14116,1.05617
123.763,13.68095,0.01459892,1.15624,1.05543
126.363,13.7668,0.01426,1.17803,1.05467
128.963,13.8522,0.01348897,1.20227,1.0539
131.563,13.9373,0.0155811,1.23185,1.05311
134.163,14.02195,0.01425557,1.2653,1.05231
136.763,14.10626,0.01569003,1.30889,1.05149
139.363,14.1904,0.01437002,1.36215,1.05065
141.963,14.27428,0.01336893,1.42856,1.04979
144.563,14.35779,0.01437,1.5101,1.04892
147.163,14.4411,0.01436999,1.61571,1.04803
149.763,14.52425,0.01568954,1.75368,1.04713
152.363,14.6075,0.01438025,1.93421,1.04621
154.963,14.6905,0.01339001,2.16451,1.04527
157.563,14.7734,0.01339,2.45253,1.04432
160.163,14.85639,0.01470024,2.79421,1.04335
162.763,14.93955,0.0160165,3.15138,1.04237
165.363,15.02258,0.01573,3.43604,1.04137
167.963,15.1058,0.01437079,3.47417,1.04036
170.563,15.1883,0.01305932,3.13475,1.03933
173.163,15.2702,0.01437001,2.62651,1.03828
175.763,15.35115,0.01437,2.22208,1.03722
178.363,15.43195,0.01437,1.95569,1.03614
180.963,15.51206,0.01308924,1.7924,1.03505
183.563,15.5918,0.01305998,1.69399,1.03395
186.163,15.6715,0.01417618,1.6351,1.03283
188.763,15.75097,0.01305,1.60138,1.03169
191.363,15.83055,0.01305,1.58022,1.03054
193.963,15.90986,0.01435679,1.57261,1.02938
196.563,15.98913,0.01305512,1.57121,1.0282
199.163,16.06851,0.01300407,1.5699,1.02701
201.763,16.14767,0.01206778,1.57048,1.0258
204.363,16.2268,0.01404,1.57107,1.02458
206.963,16.30579,0.01404001,1.57354,1.02334
209.563,16.3847,0.01273056,1.5796,1.02209
212.163,16.46396,0.01273371,1.58528,1.02083
214.763,16.54315,0.01140992,1.59208,1.01955
217.363,16.6218,0.01371117,1.59676,1.01826
219.963,16.701,0.01272995,1.60049,1.01696
222.563,16.77966,0.01273,1.60746,1.01564
225.163,16.85875,0.01210745,1.61233,1.01431
227.763,16.93763,0.01207,1.62067,1.01297
230.363,17.0164,0.01207,1.62311,1.01161
232.963,17.09524,0.01207,1.63,1.01024
235.563,17.17395,0.01207,1.63538,1.00885
238.163,17.25285,0.01207,1.63843,1.00746
240.763,17.3317,0.01207,1.64511,1.00605
243.363,17.41026,0.01207,1.64672,1.00463
245.963,17.489,0.01133908,1.65341,1.0032
248.563,17.5678,0.01141,1.66037,1.00175
251.163,17.64653,0.01141,1.66168,1.00029
253.763,17.72516,0.01096295,1.67027,0.99882
256.363,17.8037,0.01204667,1.67315,0.99734
258.963,17.88229,0.01075,1.67918,0.99585
261.563,17.96089,0.01075,1.68606,0.99434
264.163,18.0395,0.01075,1.68741,0.99282
266.763,18.1181,0.01076827,1.69337,0.99129
269.363,18.19669,0.00944,1.69971,0.98975
271.963,18.2752,0.00944,1.70411,0.9882
274.563,18.35393,0.00944,1.71021,0.98664
277.163,18.43219,0.01008396,1.71538,0.98506
279.763,18.5109,0.0100901,1.72005,0.98348
282.363,18.58955,0.009787139,1.72482,0.98188
284.963,18.66822,0.01009955,1.72998,0.98027
287.563,18.74655,0.00943945,1.73443,0.97866
290.163,18.82563,0.00944,1.74016,0.97703
292.763,18.90429,0.009426221,1.74329,0.97539
295.363,18.98304,0.00863282,1.74564,0.97374
297.963,19.06182,0.00878,1.75088,0.97208
300.563,19.14058,0.008780015,1.75387,0.97041
303.163,19.21944,0.007460054,1.75992,0.96873
305.763,19.29822,0.00746,1.76462,0.96704
308.363,19.37705,0.00814224,1.76953,0.96534
310.963,19.4559,0.00812103,1.77227,0.96363
313.563,19.5348,0.006707981,1.77735,0.96191
316.163,19.6137,0.0068,1.78003,0.96019
318.763,19.69275,0.00547979,1.78313,0.95845
321.363,19.77165,0.00548,1.78881,0.9567
323.963,19.8506,0.00548,1.79438,0.95494
326.563,19.92967,0.00525417,1.79407,0.95318
329.163,20.0088,0.004225363,1.80165,0.95141
331.763,20.08802,0.005489998,1.8045,0.94962
334.363,20.16714,0.00417519,1.80898,0.94783
336.963,20.24653,0.00285,1.80991,0.94603
339.563,20.3259,0.00285,1.81395,0.94422
342.163,20.4054,0.00285296,1.8195,0.9424
344.763,20.4848,0.00153,1.81942,0.94058
347.363,20.56431,0.00153,1.82466,0.93875
349.963,20.64402,0.00116204,1.82866,0.9369
352.563,20.72361,-0.0007748702,1.83472,0.93505
355.163,20.80346,-0.0007609483,1.83882,0.9332
357.763,20.88324,-0.00233505,1.84279,0.93133
360.363,20.96322,-0.00339,1.85032,0.92946
362.963,21.04308,-0.004419284,1.85299,0.92758
365.563,21.1231,-0.005030771,1.85577,0.92569
368.163,21.20326,-0.0063551,1.85833,0.9238
370.763,21.28346,-0.00767009,1.86202,0.92189
373.363,21.36369,-0.00766992,1.86696,0.91998
375.963,21.4436,-0.01037274,1.87149,0.91807
378.563,21.524,-0.01294512,1.87319,0.91614
381.163,21.60442,-0.01426,1.88107,0.91421
383.763,21.68477,-0.01556731,1.88654,0.91228
386.363,21.76535,-0.01589955,1.88947,0.91033
388.963,21.84609,-0.017226,1.8931,0.90838
391.563,21.9267,-0.0211699,1.90157,0.90643
394.163,22.00725,-0.02391854,1.90849,0.90447
396.763,22.08815,-0.02668754,1.91688,0.9025
399.363,22.16885,-0.027656,1.92653,0.90052
401.963,22.24975,-0.03166273,1.93968,0.89854
404.563,22.33063,-0.03467799,1.95192,0.89656
407.163,22.41167,-0.04112345,1.96979,0.89456
409.763,22.4927,-0.04519729,1.99648,0.89257
412.363,22.57391,-0.0520224,2.02245,0.89056
414.963,22.65512,-0.05710315,2.04547,0.88855
417.563,22.73647,-0.06552341,2.08039,0.88654
420.163,22.81792,-0.07397782,2.11934,0.88452
422.763,22.89959,-0.08217009,2.15007,0.8825
425.363,22.98098,-0.0920286,2.19317,0.88047
427.963,23.06261,-0.10313,2.25647,0.87843
430.563,23.14426,-0.11651,2.32442,0.87639
433.163,23.2259,-0.13305,2.45307,0.87435
435.763,23.30754,-0.15114,2.49775,0.8723
438.363,23.3897,-0.17249,2.56919,0.87025
440.963,23.47158,-0.19711,2.67261,0.86819
443.563,23.55358,-0.22505,2.80117,0.86613
446.163,23.63578,-0.25698,2.92806,0.86406
448.763,23.71796,-0.2961,3.11469,0.86199
451.363,23.80012,-0.34042,3.33519,0.85991
453.963,23.8827,-0.39286,3.58234,0.85784
456.563,23.96526,-0.45492,3.87736,0.85575
459.163,24.0482,-0.53083,4.19664,0.85367
461.763,24.13124,-0.62017,4.58199,0.85158
464.363,24.21438,-0.72839,4.98557,0.84948
466.963,24.29768,-0.85832,5.40453,0.84739
469.563,24.38113,-1.0108,5.88093,0.84529
472.163,24.4647,-1.19164,6.31155,0.84318
474.763,24.54857,-1.4357,6.70854,0.84108
477.363,24.63233,-1.66241,7.0416,0.83896
479.963,24.71634,-1.93625,7.23926,0.83685
482.563,24.8001,-2.23171,7.23159,0.83474
485.163,24.88363,-2.53588,7.00797,0.83262
487.763,24.96659,-2.83698,6.53004,0.83049
490.363,25.04928,-3.12503,5.7589,0.82837
492.963,25.1314,-3.37854,4.72875,0.82624
495.563,25.21335,-3.59062,3.56426,0.82411
498.163,25.29448,-3.73664,2.45845,0.82198
500.763,25.37566,-3.84357,1.55197,0.81984
503.363,25.4566,-3.91006,0.90103,0.81771
505.963,25.5376,-3.95062,0.48361,0.81557
508.563,25.61896,-3.97335,0.23166,0.81343
511.163,25.70056,-3.98679,0.08258094,0.81128
513.763,25.7822,-3.99324,-0.01069638,0.80914
516.363,25.86482,-3.99504,-0.06356825,0.80699
518.963,25.94772,-3.99772,-0.09728774,0.80484
521.563,26.03067,-3.99884,-0.11392,0.80269
524.163,26.11378,-3.99904,-0.12899,0.80054
526.763,26.197,-4.00036,-0.13256,0.79838
529.363,26.2801,-4.00036,-0.13655,0.79623
531.963,26.36373,-4.00167,-0.14382,0.79407
534.563,26.4473,-4.00167,-0.15451,0.79191
537.163,26.531,-4.00167,-0.16139,0.78975
539.763,26.6148,-4.00205,-0.16092,0.78759
542.363,26.69854,-4.00266,-0.15957,0.78543
544.963,26.7825,-4.00332,-0.16113,0.78327
547.563,26.86657,-4.00365,-0.15722,0.7811
550.163,26.95048,-4.00299,-0.15792,0.77894
552.763,27.03476,-4.00299,-0.15673,0.77677
555.363,27.11877,-4.00299,-0.15164,0.77461
557.963,27.2024,-4.00299,-0.13305,0.77244
560.563,27.28714,-4.00466,-0.13381,0.77027
563.163,27.37153,-4.00497,-0.14326,0.7681
565.763,27.45618,-4.00497,-0.15359,0.76593
568.363,27.5407,-4.00497,-0.15795,0.76376
570.963,27.6254,-4.00497,-0.1637,0.76159
573.563,27.71,-4.00497,-0.17129,0.75942
576.163,27.7946,-4.0053,-0.17266,0.75725
578.763,27.87947,-4.00661,-0.17289,0.75508
581.363,27.96422,-4.00661,-0.16896,0.75291
583.963,28.049,-4.00661,-0.16824,0.75074
586.563,28.13389,-4.00529,-0.16857,0.74857
589.163,28.21888,-4.00659,-0.17056,0.7464
591.763,28.3039,-4.00661,-0.17263,0.74423
594.363,28.389,-4.00793,-0.17377,0.74206
596.963,28.4741,-4.00793,-0.17821,0.73989
599.563,28.5595,-4.00793,-0.18207,0.73772
602.163,28.64463,-4.00793,-0.17935,0.73555
604.763,28.72997,-4.00859,-0.1777,0.73338
607.363,28.8154,-4.00932,-0.17723,0.73122
609.963,28.9007,-4.00925,-0.1785,0.72905
612.563,28.98625,-4.00925,-0.17903,0.72688
615.163,29.0717,-4.00925,-0.17883,0.72472
617.763,29.15741,-4.00925,-0.17625,0.72255
620.363,29.2429,-4.01056,-0.17567,0.72039
622.963,29.32834,-4.00925,-0.1756,0.71822
625.563,29.4138,-4.00926,-0.16998,0.71606
628.163,29.49946,-4.00923,-0.17271,0.7139
630.763,29.58505,-4.00924,-0.17788,0.71174
633.363,29.6707,-4.00924,-0.17583,0.70958
635.963,29.75623,-4.01056,-0.17553,0.70742
638.563,29.84194,-4.01056,-0.1753,0.70526
641.163,29.92782,-4.01023,-0.17633,0.7031
643.263,29.9971,-4.01023,-0.18102,0.70136