Folder: fsri_materials_database/01_Data/Coffee_Machine/STA/N2/3K_min

Note: 01_Data/README.md
# Materials and Products Database
## 01_Data

Raw data generated from each apparatus are included here in plain-text format. The data is organized first by material, next by the short name of test apparatus used, and where applicable additional filtering by test settings.

### material.json

Each material directory contains a json file of the same name as the material. This file links the data stored in the repository as well as data and graphs produced by the accompanying scripts (__02_Scripts__) to the respective landing page for the material on the front-end website.

File: Coffee_Maker_STA_N2_3KData_220202_R1.csv
##Temp./Â°C,Time/min,DSC(subtr.2)/(mW/mg),Mass loss(subtr.2)/mg,Sensit./(uV/mW)
49.898,10.0158,-0.00104953,-0.01929,1.06381
52.598,12.11786,0.07344976,-0.02183683,1.06316
55.298,13.16061,0.08922399,-0.02091062,1.06251
57.998,14.1491,0.09375796,-0.02237001,1.06185
60.698,15.1008,0.09522853,-0.02401907,1.06119
63.398,16.0318,0.09909617,-0.02402053,1.06053
66.098,16.94985,0.10056,-0.02664161,1.05986
68.798,17.8702,0.09901539,-0.02665,1.05919
71.498,18.77962,0.10277,-0.02526013,1.05852
74.198,19.6813,0.10595,-0.02531662,1.05784
76.898,20.588,0.10351,-0.0269633,1.05716
79.598,21.4972,0.10013,-0.02917463,1.05648
82.298,22.39951,0.1042,-0.02926651,1.05579
84.998,23.30067,0.10813,-0.0289849,1.0551
87.698,24.20165,0.10553,-0.03060009,1.0544
90.398,25.09571,0.10978,-0.03126587,1.0537
93.098,25.99162,0.10568,-0.03290675,1.05299
95.798,26.88565,0.10738,-0.03227578,1.05229
98.498,27.7813,0.10843,-0.03426204,1.05157
101.198,28.67388,0.11069,-0.03289497,1.05086
103.898,29.5714,0.10993,-0.03554382,1.05013
106.598,30.4653,0.11209,-0.03553264,1.04941
109.298,31.36038,0.11265,-0.03568198,1.04868
111.998,32.25447,0.11872,-0.03543843,1.04794
114.698,33.14354,0.11864,-0.03782968,1.0472
117.398,34.03395,0.11938,-0.03817001,1.04645
120.098,34.9233,0.1213,-0.03828356,1.0457
122.798,35.80948,0.12339,-0.0381595,1.04495
125.498,36.69815,0.12312,-0.03686497,1.04418
128.198,37.58875,0.12288,-0.03878151,1.04342
130.898,38.47738,0.12499,-0.0384962,1.04264
133.598,39.36634,0.12811,-0.03882986,1.04187
136.298,40.25222,0.13409,-0.03849048,1.04108
138.998,41.1372,0.1385,-0.03968692,1.0403
141.698,42.02175,0.14126,-0.04087279,1.0395
144.398,42.9108,0.14755,-0.04066195,1.0387
147.098,43.79907,0.16083,-0.04112,1.03789
149.798,44.68083,0.17672,-0.04212917,1.03708
152.498,45.56238,0.1972,-0.04144794,1.03626
155.198,46.44863,0.22733,-0.04211021,1.03544
157.898,47.3369,0.27912,-0.04204213,1.03461
160.598,48.22338,0.37272,-0.04409386,1.03377
163.298,49.11323,0.48712,-0.04440999,1.03293
165.998,50.00197,0.5726,-0.04442,1.03208
168.698,50.88172,0.42368,-0.04474865,1.03122
171.398,51.7494,0.17229,-0.04507845,1.03035
174.098,52.61909,0.14984,-0.04602987,1.02948
176.798,53.4965,0.14693,-0.04513722,1.02861
179.498,54.37105,0.1488,-0.04442138,1.02772
182.198,55.25156,0.14868,-0.04558928,1.02683
184.898,56.1328,0.14726,-0.04539999,1.02593
187.598,57.01019,0.14736,-0.04542677,1.02502
190.298,57.89218,0.15031,-0.04771081,1.02411
192.998,58.7719,0.14929,-0.04804842,1.02319
195.698,59.64635,0.14796,-0.04771001,1.02226
198.398,60.5233,0.14837,-0.04906473,1.02132
201.098,61.4029,0.1501,-0.05099822,1.02038
203.798,62.2777,0.15311,-0.05035114,1.01943
206.498,63.1531,0.1547,-0.05133358,1.01847
209.198,64.03328,0.14892,-0.05166776,1.0175
211.898,64.91145,0.15149,-0.05120241,1.01652
214.598,65.7951,0.14978,-0.05201322,1.01554
217.298,66.67625,0.15403,-0.05363073,1.01454
219.998,67.54788,0.15573,-0.05392298,1.01354
222.698,68.4268,0.15258,-0.05464928,1.01253
225.398,69.29994,0.15382,-0.05495979,1.01151
228.098,70.17517,0.15166,-0.05824056,1.01049
230.798,71.05318,0.15204,-0.05792408,1.00945
233.498,71.93046,0.15396,-0.05636971,1.00841
236.198,72.80999,0.15264,-0.05538014,1.00735
238.898,73.68773,0.15377,-0.05828816,1.00629
241.598,74.56565,0.15551,-0.06086763,1.00522
244.298,75.4448,0.1572,-0.05956232,1.00414
246.998,76.321,0.15855,-0.05921384,1.00305
249.698,77.1922,0.16093,-0.06191431,1.00195
252.398,78.07118,0.1595,-0.06251507,1.00084
255.098,78.95255,0.16242,-0.0631706,0.99972
257.798,79.8293,0.16308,-0.06252,0.9986
260.498,80.7049,0.16404,-0.06447601,0.99746
263.198,81.58434,0.15882,-0.06317006,0.99631
265.898,82.4631,0.16599,-0.06486026,0.99515
268.598,83.34107,0.16186,-0.06510588,0.99399
271.298,84.22108,0.16315,-0.06513919,0.99281
273.998,85.0981,0.1644,-0.06737741,0.99162
276.698,85.97338,0.16693,-0.06645999,0.99043
279.398,86.84496,0.16544,-0.06778,0.98922
282.098,87.7223,0.16713,-0.0680566,0.988
284.798,88.60373,0.16307,-0.06975003,0.98678
287.498,89.48055,0.16566,-0.06808814,0.98554
290.198,90.36,0.16696,-0.06843318,0.98429
292.898,91.2362,0.16681,-0.06943002,0.98303
295.598,92.1161,0.1666,-0.06976379,0.98176
298.298,92.99444,0.16924,-0.07007967,0.98048
300.998,93.87428,0.16678,-0.07270998,0.97919
303.698,94.7628,0.16833,-0.0717336,0.97789
306.398,95.6425,0.17496,-0.07303975,0.97657
309.098,96.5204,0.17164,-0.07566061,0.97525
311.798,97.40208,0.16869,-0.07731462,0.97392
314.498,98.2848,0.1719,-0.07732451,0.97257
317.198,99.16034,0.17605,-0.08093732,0.97121
319.898,100.041,0.17043,-0.08258063,0.96984
322.598,100.922,0.17314,-0.08395027,0.96847
325.298,101.805,0.17592,-0.08095,0.96707
327.998,102.685,0.17635,-0.08095,0.96567
330.698,103.566,0.17484,-0.08489006,0.96426
333.398,104.452,0.17418,-0.08752014,0.96283
336.098,105.341,0.17764,-0.0907443,0.9614
338.798,106.2187,0.18123,-0.09350223,0.95995
341.498,107.099,0.17805,-0.09673066,0.95849
344.198,107.986,0.17651,-0.09871,0.95702
346.898,108.876,0.17866,-0.10266,0.95554
349.598,109.761,0.18316,-0.10729,0.95404
352.298,110.646,0.18388,-0.11051,0.95253
354.998,111.5274,0.19196,-0.11514,0.95102
357.698,112.41,0.18691,-0.11944,0.94949
360.398,113.296,0.18713,-0.12324,0.94794
363.098,114.185,0.18931,-0.13058,0.94639
365.798,115.067,0.19064,-0.13646,0.94482
368.498,115.952,0.18872,-0.14165,0.94324
371.198,116.843,0.18994,-0.1514,0.94165
373.898,117.732,0.19389,-0.1575,0.94005
376.598,118.618,0.19334,-0.16541,0.93844
379.298,119.505,0.19288,-0.17434,0.93681
381.998,120.392,0.19512,-0.18416,0.93517
384.698,121.284,0.19637,-0.196,0.93352
387.398,122.176,0.20768,-0.21004,0.93185
390.098,123.064,0.20835,-0.22466,0.93018
392.798,123.956,0.22043,-0.24096,0.92849
395.498,124.84,0.23021,-0.26027,0.92679
398.198,125.724,0.24146,-0.28225,0.92507
400.898,126.612,0.25354,-0.30992,0.92335
403.598,127.508,0.2699,-0.34419,0.92161
406.298,128.4019,0.29262,-0.38155,0.91986
408.998,129.287,0.31711,-0.42846,0.91809
411.698,130.178,0.34701,-0.48519,0.91632
414.398,131.066,0.38259,-0.55624,0.91453
417.098,131.95,0.42902,-0.64254,0.91273
419.798,132.844,0.47691,-0.75439,0.91091
422.498,133.739,0.51167,-0.89292,0.90909
425.198,134.636,0.57022,-1.05412,0.90725
427.898,135.535,0.63269,-1.25239,0.9054
430.598,136.428,0.69766,-1.48484,0.90353
433.298,137.322,0.754,-1.76078,0.90166
435.998,138.217,0.78239,-2.08163,0.89977
438.698,139.11,0.78319,-2.42813,0.89787
441.398,140.006,0.74005,-2.79592,0.89595
444.098,140.898,0.64796,-3.15179,0.89402
446.798,141.784,0.51515,-3.46596,0.89208
449.498,142.6718,0.35704,-3.71995,0.89013
452.198,143.568,0.20841,-3.89957,0.88817
454.898,144.454,0.10584,-4.00695,0.88619
457.598,145.346,0.05106271,-4.06637,0.8842
460.298,146.241,0.01888763,-4.09604,0.8822
462.998,147.14,0.0005789425,-4.11111,0.88018
465.698,148.034,-0.004252568,-4.12046,0.87815
468.398,148.926,0.001690641,-4.12079,0.87611
471.098,149.8213,-0.008764651,-4.12013,0.87406
473.798,150.718,-0.01113853,-4.12037,0.872
476.498,151.618,-0.01864057,-4.12211,0.86992
479.198,152.517,-0.01736635,-4.12145,0.86783
481.898,153.409,-0.01563264,-4.12138,0.86573
484.598,154.307,-0.01551348,-4.12013,0.86361
487.298,155.208,-0.0153157,-4.11981,0.86148
489.998,156.1082,-0.01416542,-4.11983,0.85934
492.698,157.012,-0.01288569,-4.12025,0.85719
495.398,157.911,-0.01297077,-4.1209,0.85503
498.098,158.808,-0.0125659,-4.12352,0.85285
500.798,159.704,-0.0100533,-4.12185,0.85066
503.498,160.603,-0.00769543,-4.12092,0.84846
506.198,161.499,-0.007268965,-4.12287,0.84624
508.898,162.401,-0.007169856,-4.12254,0.84402
511.598,163.298,-0.002283915,-4.1209,0.84178
514.298,164.199,-0.002217976,-4.12189,0.83953
516.998,165.101,0.001100654,-4.12222,0.83727
519.698,166.008,0.0005966804,-4.12218,0.835
522.398,166.9041,0.00288029,-4.1232,0.83271
525.098,167.804,0.002789136,-4.12356,0.83041
527.798,168.704,-0.001094727,-4.12104,0.8281
530.498,169.607,-0.00101307,-4.12048,0.82578
533.198,170.514,-0.0008239096,-4.12351,0.82345
535.898,171.42,-0.00230293,-4.12421,0.8211
538.598,172.326,0.00508595,-4.12386,0.81875
541.298,173.225,0.004779865,-4.12386,0.81638
543.998,174.125,0.008308956,-4.12353,0.814
546.698,175.026,0.00776345,-4.12145,0.81161
549.398,175.929,0.00929981,-4.12223,0.80921
552.098,176.831,0.01019533,-4.12013,0.80679
554.798,177.729,0.009487794,-4.12115,0.80437
557.498,178.632,0.006994676,-4.12211,0.80193
560.198,179.536,0.01080982,-4.12112,0.79948
562.898,180.441,0.01168447,-4.12377,0.79702
565.598,181.341,0.01235523,-4.12145,0.79456
568.298,182.249,0.009694088,-4.12046,0.79207
570.998,183.153,0.0117421,-4.12011,0.78958
573.698,184.055,0.01173704,-4.1208,0.78708
576.398,184.96,0.01241228,-4.12047,0.78457
579.098,185.868,0.01096745,-4.11877,0.78204
581.798,186.778,0.01216718,-4.12178,0.77951
584.498,187.68,0.009281157,-4.12244,0.77696
587.198,188.587,0.01225209,-4.12013,0.77441
589.898,189.491,0.01378535,-4.12016,0.77184
592.598,190.398,0.01580633,-4.1218,0.76927
595.298,191.304,0.0168437,-4.12184,0.76668
597.998,192.209,0.01358588,-4.12141,0.76409
600.698,193.117,0.01615679,-4.12079,0.76148
603.398,194.0215,0.01716888,-4.12098,0.75886
606.098,194.929,0.01340989,-4.12152,0.75624
608.798,195.8345,0.01503504,-4.12177,0.7536
611.498,196.746,0.01260938,-4.12177,0.75095
614.198,197.657,0.00961963,-4.12289,0.7483
616.898,198.566,0.009710718,-4.1221,0.74563
619.598,199.475,0.0116349,-4.12309,0.74296
622.298,200.387,0.00868259,-4.12244,0.74028
624.998,201.284,0.01148192,-4.12079,0.73758
627.698,202.195,0.006059785,-4.12138,0.73488
630.398,203.107,0.004950422,-4.12013,0.73217
633.098,204.0163,0.01037143,-4.12079,0.72945
635.798,204.929,0.006967525,-4.1203,0.72672
638.498,205.842,0.00540136,-4.1222,0.72399
641.198,206.748,0.00554265,-4.12178,0.72124
643.898,207.656,0.003641212,-4.12375,0.71849
646.598,208.569,0.0036473,-4.12175,0.71572
649.298,209.478,0.008051467,-4.12145,0.71295
650.798,209.985,0.009965029,-4.12139,0.71141