Folder: fsri_materials_database/01_Data/FDNY_LDF/Cone (part 2)

File: FDNY_LDF_Cone_HF25Scan_220909_R3.csv
Names,Time,Stack TC,Smoke TC,Exh Press,Smoke Comp,Smoke Meas,CO Meter,CO2 Meter,O2 Meter,Sample Mass,Ext Coeff,Start Test,Flame Verif
Chan Gain,,500,500,1,1,1,1,1,1,1,1,1.0,1.0
Offset,,0,0,0.139139,0,0,0,0,0,0,0,0.0,0.0
Gain,,1,1,25.011,13.0826,14.7555,1,1,1,1.00088,1.03743,1.0,1.0
Units,sec,C,C,Pa,%,%,%,%,%,g,/m,,
Baseline,,32.722,32.8964,146.871,96.5837,95.8728,0.000977371,0.0457379,20.991,-441.962,0.067256,,
24,5.75,31.6444,31.7449,144.614,97.5025,97.0587,0.00146095,0.0465616,20.9901,83.8639,0.0415207,0.0,0.0
48,11.75,31.4022,31.9794,145.789,97.5819,96.5552,0.001235,0.0461688,20.9914,83.7538,0.0962579,0.0,0.0
72,17.75,31.6003,31.8881,150.027,97.6538,96.3346,0.000804059,0.0461688,20.9922,83.7237,0.123778,0.0,0.0
96,23.75,32.0428,32.2285,148.48,97.7185,95.5902,0.000886862,0.0461949,20.9922,83.6637,0.200392,0.0,0.0
120,29.75,31.5995,32.0396,145.195,97.7468,96.0117,0.000946856,0.0463779,20.9922,83.5836,0.162993,0.0,0.0
144,35.75,31.7244,32.2558,145.969,97.7796,95.0282,0.00152494,0.0471153,20.9913,83.5135,0.259737,0.0,0.0
168,41.75,33.992,33.3807,134.65,97.8051,99.2719,0.00185314,0.152405,20.8147,83.0732,-0.135462,0.0,1.0
192,47.75,36.6298,34.1194,136.16,97.8359,98.197,0.00205892,0.257287,20.7261,82.4626,-0.0335306,0.0,1.0
216,53.75,39.7429,36.8199,137.453,97.8522,98.4424,0.00214464,0.273675,20.726,81.9922,-0.0547235,0.0,0.0
240,59.75,41.585,38.5957,136.425,97.8722,98.5721,0.00235191,0.270913,20.7346,81.5218,-0.0648474,0.0,0.0
264,65.75,42.9669,40.184,137.553,97.8862,98.3636,0.00228671,0.266308,20.7429,81.0614,-0.0442801,0.0,0.0
288,71.75,43.9616,41.8964,138.658,97.8998,97.8832,0.00225708,0.256524,20.7564,80.611,0.00154251,0.0,0.0
312,77.75,44.589,42.9181,138.325,97.9081,98.6536,0.00228197,0.248002,20.7652,80.2707,-0.0690292,0.0,0.0
336,83.75,45.3754,43.9165,133.942,97.9169,98.1007,0.00233396,0.243107,20.7736,79.8803,-0.0170599,0.0,0.0
360,89.75,44.9125,44.6087,138.626,97.9077,98.3641,0.00250729,0.234039,20.7832,79.44,-0.0423175,0.0,0.0
384,95.75,45.2763,45.153,134.393,97.9057,98.1768,0.00209721,0.227539,20.7909,79.0997,-0.0251564,0.0,0.0
408,101.75,45.2943,45.9345,136.22,97.8906,98.2375,0.00210627,0.222755,20.7943,78.7494,-0.0321996,0.0,0.0
432,107.75,45.3567,45.7128,137.486,97.8742,98.4532,0.00266736,0.215948,20.8032,78.329,-0.0536808,0.0,0.0
456,113.75,45.0687,45.7977,141.548,97.8626,98.3952,0.0024977,0.211678,20.8057,77.9386,-0.049386,0.0,0.0
480,119.75,45.0621,46.2206,137.471,97.8526,98.301,0.00250089,0.207075,20.8112,77.5883,-0.0416053,0.0,0.0
504,125.75,45.3439,46.4661,140.704,97.8087,98.3839,0.00229984,0.203064,20.8146,77.228,-0.0533583,0.0,0.0
528,131.75,44.8971,46.2135,139.036,97.7995,98.2357,0.00243998,0.198931,20.8239,76.8677,-0.0404986,0.0,0.0
552,137.75,44.663,46.7545,140.877,97.7612,98.7068,0.00266605,0.194967,20.8297,76.5174,-0.0875953,0.0,0.0
576,143.75,44.7418,46.8196,139.575,97.7349,98.3524,0.0022417,0.190045,20.8351,76.1771,-0.057317,0.0,0.0
600,149.75,44.5673,46.3873,136.655,97.7141,97.8521,0.00258349,0.18557,20.839,75.7968,-0.0128416,0.0,0.0
624,155.75,44.5287,46.4853,140.585,97.6798,98.1025,0.00293182,0.183364,20.8381,75.4865,-0.0392952,0.0,0.0
648,161.75,43.9783,45.8834,138.437,97.6331,97.6909,0.00287665,0.180435,20.844,75.1662,-0.00538783,0.0,0.0
672,167.75,44.0401,46.3115,137.911,97.5999,98.2029,0.00307754,0.176285,20.8491,74.8759,-0.0560475,0.0,0.0
696,173.75,43.6919,45.9715,134.743,97.5764,98.0412,0.00336175,0.172587,20.8537,74.5356,-0.0432505,0.0,0.0
720,179.75,43.3759,46.1729,136.082,97.7724,98.2191,0.00363553,0.170286,20.8555,74.2554,-0.0414821,0.0,0.0
744,185.75,43.3282,45.3637,142.003,97.9912,98.7829,0.00358384,0.167744,20.8584,73.9251,-0.0732276,0.0,0.0
768,191.75,42.8729,45.4609,140.663,98.1684,98.3101,0.00338554,0.165501,20.8618,73.6449,-0.013117,0.0,0.0
792,197.75,42.924,44.9212,143.523,98.2747,98.5924,0.00335118,0.164219,20.8622,73.3146,-0.0293749,0.0,0.0
816,203.75,42.4362,44.9365,140.963,98.287,98.6716,0.00315014,0.16354,20.862,72.9843,-0.0355414,0.0,0.0
840,209.75,42.4279,45.0876,139.221,98.3425,99.0724,0.0029892,0.163028,20.8649,72.644,-0.0672924,0.0,0.0
864,215.75,42.2526,44.7656,142.889,98.3884,98.274,0.00326731,0.162379,20.8665,72.3237,0.0105884,0.0,0.0
888,221.75,42.4447,44.6309,141.148,98.4152,99.5835,0.00283733,0.164046,20.8608,72.1035,-0.107396,0.0,0.0
912,227.75,42.593,44.3968,146.081,98.39,99.1328,0.00248481,0.166294,20.859,71.8433,-0.0684378,0.0,0.0
936,233.75,42.4716,44.5945,138.617,98.3293,98.0944,0.00290696,0.16803,20.8556,71.563,0.0217749,0.0,0.0
960,239.75,42.6231,44.4419,142.206,98.2275,98.1551,0.00281288,0.16912,20.8548,71.2728,0.00670943,0.0,0.0
984,245.75,42.6821,44.3924,139.197,98.1133,98.3168,0.00234868,0.173587,20.8506,70.9425,-0.0188513,0.0,0.0
1008,251.75,42.6487,44.7005,140.729,97.9628,97.9696,0.00263017,0.176872,20.8454,70.6722,-0.000630314,0.0,0.0
1032,257.75,43.1699,44.5185,141.147,97.8678,98.8405,0.00326429,0.181235,20.8403,70.362,-0.0899998,0.0,0.0
1056,263.75,43.0152,44.4679,135.677,97.9341,98.5194,0.00299328,0.184556,20.8365,70.1117,-0.0542302,0.0,0.0
1080,269.75,43.7043,44.7515,139.8,97.986,98.9774,0.00269075,0.186537,20.8342,69.7815,-0.0916122,0.0,0.0
1104,275.75,43.7311,44.8686,139.613,98.0734,98.9031,0.0027649,0.189245,20.8306,69.5212,-0.0766622,0.0,0.0
1128,281.75,43.9045,44.6554,138.464,98.1928,98.297,0.00253153,0.193202,20.8261,69.221,-0.00965097,0.0,0.0
1152,287.75,43.7241,45.1728,138.656,98.305,98.8923,0.00254618,0.197904,20.8207,68.8707,-0.0542057,0.0,0.0
1176,293.75,44.5317,45.6278,137.624,98.398,99.1674,0.00246655,0.203631,20.8129,68.5704,-0.0708816,0.0,0.0
1200,299.75,45.1488,45.9484,136.775,98.4775,98.9355,0.00252967,0.207891,20.8089,68.2601,-0.0422298,0.0,0.0
1224,305.75,45.2073,46.2832,141.004,98.5294,99.2764,0.00231086,0.212527,20.8015,67.9298,-0.0687357,0.0,0.0
1248,311.75,45.9488,46.6787,137.319,98.5749,98.8554,0.00231906,0.218446,20.7957,67.5895,-0.025857,0.0,0.0
1272,317.75,46.5157,47.4838,134.788,98.6164,99.103,0.00232983,0.222985,20.7916,67.2592,-0.0447946,0.0,0.0
1296,323.75,46.4029,47.2825,138.501,98.6464,99.8024,0.00179367,0.228732,20.7847,66.9089,-0.106023,0.0,0.0
1320,329.75,46.7243,47.9562,133.189,98.6659,100.471,0.00175949,0.231862,20.783,66.5586,-0.164948,0.0,0.0
1344,335.75,47.3018,48.5765,136.794,98.6755,99.8217,0.00169612,0.233505,20.7819,66.1983,-0.1051,0.0,0.0
1368,341.75,48.0744,48.6515,135.872,98.6931,100.544,0.00212533,0.237333,20.7766,65.818,-0.169131,0.0,0.0
1392,347.75,48.3675,48.9969,134.107,98.6751,100.27,0.00233197,0.240675,20.7731,65.4476,-0.145893,0.0,0.0
1416,353.75,48.7635,49.8269,135.659,98.6543,100.29,0.00219031,0.2456,20.7667,65.1073,-0.149647,0.0,0.0
1440,359.75,48.9896,50.2608,133.51,98.6192,98.9211,0.00233437,0.251463,20.7572,64.6469,-0.027816,0.0,0.0
1464,365.75,49.5047,51.022,134.694,98.5909,99.7654,0.00235726,0.256057,20.7523,64.2266,-0.107776,0.0,0.0
1488,371.75,49.7009,51.5348,135.461,98.5589,99.5835,0.001997,0.258239,20.7491,63.8462,-0.0941159,0.0,0.0
1512,377.75,50.7342,51.6536,136.069,98.5194,99.1904,0.0024447,0.25244,20.7567,63.556,-0.0617711,0.0,0.0
1536,383.75,50.1102,51.6237,139.494,98.4363,98.5478,0.00292851,0.24189,20.7685,63.2357,-0.0102982,0.0,0.0
1560,389.75,49.9181,51.399,138.739,98.3641,97.8854,0.00401983,0.22585,20.79,62.9655,0.0443928,0.0,0.0
1584,395.75,49.2065,51.0368,137.632,98.2675,98.4983,0.0048019,0.207288,20.811,62.7152,-0.0213497,0.0,0.0
1608,401.75,48.1874,50.5553,136.688,98.1704,97.4824,0.00588985,0.188169,20.8333,62.495,0.0640067,0.0,0.0
1632,407.75,47.4616,50.0915,141.456,98.0327,97.7386,0.00658937,0.168325,20.8514,62.3049,0.0273413,0.0,0.0
1656,413.75,45.961,49.6523,142.919,97.9073,97.9723,0.00724006,0.151467,20.872,62.1547,-0.00603751,0.0,0.0
1680,419.75,45.5017,48.4859,140.552,97.788,98.3249,0.00829186,0.136017,20.8876,62.0446,-0.0498322,0.0,0.0
1704,425.75,43.9393,47.9045,145.213,97.6726,97.5211,0.00931625,0.123953,20.9022,61.9345,0.0141223,0.0,0.0
1728,431.75,43.0193,46.8395,143.892,97.558,96.8839,0.010612,0.110458,20.9183,61.7944,0.0630953,0.0,0.0
1752,437.75,41.8693,46.0422,145.69,97.4446,97.3158,0.0114303,0.101854,20.925,61.7544,0.0120392,0.0,0.0
1776,443.75,39.6497,43.051,144.384,97.3352,96.9988,0.0116236,0.096657,20.9311,61.5842,0.031511,0.0,0.0
1800,449.75,38.401,42.3575,141.001,97.2594,96.7817,0.0115022,0.0936462,20.9348,61.5842,0.0448008,0.0,0.0
1824,455.75,37.9685,41.5138,143.967,97.1867,96.3211,0.0112371,0.0924606,20.9369,61.5342,0.0814186,0.0,0.0
1848,461.75,37.7753,40.382,144.044,97.1472,96.6021,0.0113531,0.0925632,20.937,61.4942,0.0512076,0.0,0.0
1872,467.75,37.7193,40.2024,145.452,97.0565,96.2148,0.0106964,0.0911637,20.9381,61.364,0.079268,0.0,0.0
1896,473.75,36.7807,39.5,142.384,96.9815,96.5449,0.0105967,0.0905816,20.9382,61.364,0.0410628,0.0,0.0
1920,479.75,36.717,39.2914,139.226,96.9128,96.607,0.0102372,0.089741,20.9375,61.274,0.0287603,0.0,0.0
1944,485.75,36.306,38.7606,146.162,96.833,96.3048,0.0102564,0.0890856,20.9374,61.2339,0.0497674,0.0,0.0
1968,491.75,36.4815,38.5596,146.815,96.7831,96.6201,0.0101163,0.0888236,20.9386,61.1739,0.0153386,0.0,0.0
1992,497.75,35.8588,37.8247,143.758,96.7435,96.1819,0.0102088,0.0883631,20.9392,61.1639,0.052982,0.0,0.0
2016,503.75,36.1045,37.7237,141.696,96.7092,96.0473,0.0103495,0.0881663,20.9395,61.0638,0.0624995,0.0,0.0
2040,509.75,35.7639,37.4184,145.061,96.6876,96.4517,0.0097522,0.087334,20.9417,60.9737,0.022237,0.0,0.0
2064,515.75,35.8576,37.2745,139.459,96.6932,96.9641,0.00977277,0.0868383,20.942,60.8936,-0.0254577,0.0,0.0
2088,521.75,35.079,36.9964,143.882,96.6844,96.5957,0.00995243,0.086503,20.9421,60.8236,0.0083516,0.0,0.0
2112,527.75,35.3096,36.7453,144.059,96.6848,96.3152,0.00981457,0.0866666,20.9421,60.8736,0.0348574,0.0,0.0
2136,533.75,34.8409,36.5847,145.452,96.7308,96.4449,0.00970944,0.0863405,20.9421,60.8035,0.0269325,0.0,0.0
2160,539.75,35.3401,36.3792,140.642,96.7635,96.0937,0.00985426,0.085653,20.9413,60.7635,0.0632149,0.0,0.0
2184,545.75,35.1393,36.0605,147.38,96.7659,96.1486,0.00935222,0.0853409,20.9411,60.6935,0.0582384,0.0,0.0
2208,551.75,35.0614,35.4797,143.015,96.7842,96.3571,,0.0846266,,60.6634,0.0402539,0.0,0.0
2232,557.75,34.9561,35.8911,141.797,96.7994,96.6205,,,,60.6034,0.0168352,0.0,0.0
2240,559.75,34.7939,36.0698,141.772,96.817,96.8961,,,,60.5934,-0.00743256,0.0,0.0

File: FDNY_LDF_Cone_HF25Scan_220913_R4.csv
Names,Time,Stack TC,Smoke TC,Exh Press,Smoke Comp,Smoke Meas,CO Meter,CO2 Meter,O2 Meter,Sample Mass,Ext Coeff,Start Test,Flame Verif
Chan Gain,,500,500,1,1,1,1,1,1,1,1,1.0,1.0
Offset,,0,0,0.139139,0,0,0,0,0,0,0,0.0,0.0
Gain,,1,1,25.011,13.0826,14.7555,1,1,1,1.00088,1.03743,1.0,1.0
Units,sec,C,C,Pa,%,%,%,%,%,g,/m,,
Baseline,,36.0601,36.5563,145.287,98.0431,97.7555,0.000933445,0.0464242,20.9902,-442.286,0.0267661,,
24,5.75,34.1886,35.0962,150.943,97.9644,97.9458,0.000812312,0.0478891,20.9891,83.1032,0.00173558,0.0,0.0
48,11.75,34.5575,34.6639,140.498,97.9477,97.0663,0.000778494,0.0468389,20.9912,83.0231,0.0822561,0.0,0.0
72,17.75,34.4606,35.1902,140.201,97.9393,96.8655,0.00104493,0.0464846,20.9907,82.943,0.100326,0.0,0.0
96,23.75,34.4857,35.5648,143.282,97.9285,96.5228,0.000957608,0.046732,20.9908,82.913,0.131576,0.0,0.0
120,29.75,34.3789,35.2392,144.301,97.8938,95.909,0.0013512,0.0472825,20.9906,82.7929,0.186399,0.0,0.0
144,35.75,35.0466,35.1317,146.081,97.8646,95.5465,0.00143952,0.0487489,20.987,82.7128,0.218149,0.0,0.0
168,41.75,37.2013,36.5761,135.467,97.8558,98.9468,0.0022343,0.182011,20.7831,82.1824,-0.100893,0.0,1.0
192,47.75,40.0837,37.5826,133.42,97.8107,99.0715,0.00265547,0.276525,20.7109,81.6319,-0.116554,0.0,0.0
216,53.75,42.7412,39.9591,133.481,97.786,98.8297,0.00246813,0.284128,20.714,81.1515,-0.0966187,0.0,0.0
240,59.75,44.4032,42.1777,136.364,97.7612,98.7567,0.00219044,0.275552,20.7298,80.6911,-0.0922023,0.0,0.0
264,65.75,46.5682,43.7584,138.214,97.7349,98.6126,0.00228312,0.266847,20.7417,80.2707,-0.0813677,0.0,0.0
288,71.75,46.7037,44.8473,138.537,97.7181,98.5654,0.00239982,0.256816,20.7562,79.8303,-0.0785649,0.0,0.0
312,77.75,47.7578,46.1195,139.103,97.6965,98.4289,0.00220564,0.246495,20.7684,79.48,-0.0679667,0.0,0.0
336,83.75,48.0485,46.5954,139.285,97.667,98.3834,0.00261128,0.238928,20.7764,79.0896,-0.0665132,0.0,0.0
360,89.75,48.7211,47.6696,135.577,97.6542,98.0741,0.0024947,0.231965,20.7852,78.6993,-0.039044,0.0,0.0
384,95.75,47.7107,48.0813,141.31,97.6462,98.3497,0.00248481,0.223801,20.7932,78.309,-0.0653238,0.0,0.0
408,101.75,48.2877,48.6566,137.65,97.6913,98.6,0.00228628,0.218808,20.7962,77.9787,-0.0842573,0.0,0.0
432,107.75,47.927,48.8043,138.404,97.7748,98.465,0.00258619,0.214693,20.8028,77.5983,-0.0640105,0.0,0.0
456,113.75,48.0371,49.0042,139.881,97.6953,98.2835,0.00276429,0.209647,20.8071,77.208,-0.0546209,0.0,0.0
480,119.75,48.2437,48.8704,140.077,97.6762,99.2183,0.00248967,0.205472,20.8126,76.8176,-0.142555,0.0,0.0
504,125.75,47.9759,49.6039,136.861,97.7069,99.5939,0.00250782,0.200327,20.8157,76.4373,-0.174072,0.0,0.0
528,131.75,47.8268,49.5824,137.798,97.7832,98.3028,0.00270129,0.195727,20.8215,76.087,-0.0482354,0.0,0.0
552,137.75,47.4207,49.8062,136.924,97.865,98.6514,0.00255097,0.190725,20.8273,75.7867,-0.0728296,0.0,0.0
576,143.75,47.5197,49.3193,133.641,97.9828,98.2475,0.00270194,0.186177,20.8322,75.4965,-0.0245472,0.0,0.0
600,149.75,47.0233,49.1924,140.712,98.0822,99.3061,0.00285752,0.181214,20.8397,75.1762,-0.112854,0.0,0.0
624,155.75,46.6812,49.1404,139.572,98.1832,99.2183,0.00294541,0.178167,20.8428,74.8559,-0.0954368,0.0,0.0
648,161.75,46.8062,48.6805,143.106,98.2495,98.936,0.00293518,0.174279,20.8487,74.5356,-0.0633627,0.0,0.0
672,167.75,46.6357,48.7681,141.732,98.317,99.1728,0.00311396,0.170874,20.8522,74.2254,-0.0788762,0.0,0.0
696,173.75,45.769,48.4131,135.851,98.3713,98.863,0.00317626,0.168887,20.855,73.9251,-0.0453784,0.0,0.0
720,179.75,45.7687,48.0529,137.764,98.4052,99.0913,0.00317117,0.166,20.8601,73.6048,-0.0632305,0.0,0.0
744,185.75,46.0104,48.0526,141.392,98.4427,99.3827,0.00363805,0.163548,20.8634,73.3346,-0.0864775,0.0,0.0
768,191.75,45.3305,47.9263,138.959,98.4767,99.3512,0.00369323,0.160322,20.866,73.0243,-0.0804548,0.0,0.0
792,197.75,45.2733,47.392,141.62,98.4974,98.632,0.00389741,0.158454,20.8674,72.684,-0.0124256,0.0,0.0
816,203.75,44.9589,47.5076,141.268,98.5122,98.9463,0.00367851,0.156626,20.8703,72.3938,-0.0400148,0.0,0.0
840,209.75,44.7152,47.2329,139.557,98.4962,99.5182,0.00370094,0.155174,20.8712,72.0935,-0.0939367,0.0,0.0
864,215.75,44.6967,46.9262,140.745,98.4675,98.696,0.00330305,0.156254,20.8713,71.8733,-0.0210898,0.0,0.0
888,221.75,44.5359,46.6907,143.635,98.4128,99.2197,0.00313596,0.157052,20.8689,71.573,-0.0743076,0.0,0.0
912,227.75,44.4261,46.4639,137.872,98.3769,98.8117,0.00292732,0.158782,20.8652,71.3128,-0.0401352,0.0,0.0
936,233.75,44.3904,46.5485,139.736,98.3381,98.7604,0.00272431,0.161348,20.8621,71.0426,-0.0389896,0.0,0.0
960,239.75,44.6912,46.2477,142.654,98.299,99.035,0.00266379,0.164416,20.8584,70.7323,-0.0678864,0.0,0.0
984,245.75,44.5722,46.1229,138.985,98.2235,98.6581,0.0026476,0.167464,20.8555,70.4821,-0.040175,0.0,0.0
1008,251.75,44.4797,46.1057,140.3,98.1669,98.2799,0.00272949,0.169222,20.8539,70.2118,-0.0104715,0.0,0.0
1032,257.75,44.2989,46.3865,136.734,98.0419,99.5632,0.00247323,0.171195,20.8515,69.9416,-0.140129,0.0,0.0
1056,263.75,44.4437,46.4726,141.841,97.988,99.0535,0.00302007,0.17347,20.8477,69.6613,-0.0984208,0.0,0.0
1080,269.75,44.8213,46.6571,140.085,98.0044,98.7171,0.00293781,0.176519,20.8438,69.4011,-0.0659444,0.0,0.0
1104,275.75,44.7697,46.7258,138.766,98.0551,98.7032,0.00277695,0.180273,20.8373,69.0808,-0.0599511,0.0,0.0
1128,281.75,45.6117,46.835,140.769,98.1038,98.3857,0.0026419,0.184031,20.8337,68.8206,-0.0261148,0.0,0.0
1152,287.75,45.7466,47.0854,137.888,98.1465,99.7213,0.00260096,0.18847,20.8302,68.5504,-0.144859,0.0,0.0
1176,293.75,46.0773,47.1334,138.79,98.2016,98.5523,0.00237144,0.193702,20.8258,68.3001,-0.0324435,0.0,0.0
1200,299.75,46.4709,47.8464,133.948,98.2323,99.4074,0.00225201,0.197728,20.8204,68.0199,-0.108216,0.0,0.0
1224,305.75,46.9164,47.8502,137.086,98.3126,98.7477,0.00206919,0.202074,20.8161,67.6896,-0.0401919,0.0,0.0
1248,311.75,46.9198,47.9631,137.595,98.3549,99.0634,0.0021262,0.20632,20.811,67.4094,-0.0653194,0.0,0.0
1272,317.75,47.5772,48.8583,136.953,98.4212,99.3133,0.00238055,0.211897,20.8035,67.0891,-0.0821192,0.0,0.0
1296,323.75,47.7116,49.1784,131.969,98.4747,99.6254,0.00198607,0.216299,20.7974,66.7388,-0.105724,0.0,0.0
1320,329.75,48.3335,49.4668,135.054,98.5402,99.8123,0.00200361,0.220359,20.7927,66.3985,-0.116728,0.0,0.0
1344,335.75,48.2638,49.7028,135.877,98.5733,99.8348,0.00227515,0.226519,20.7866,66.0482,-0.115721,0.0,0.0
1368,341.75,49.0273,50.1839,133.32,98.6148,99.615,0.0022095,0.232518,20.7786,65.7079,-0.0918363,0.0,0.0
1392,347.75,49.5664,50.4469,138.44,98.6623,100.154,0.002481,0.239989,20.7692,65.2475,-0.13652,0.0,0.0
1416,353.75,50.1627,51.1027,136.26,98.6959,99.8775,0.00267568,0.249289,20.7584,64.8571,-0.108311,0.0,0.0
1440,359.75,50.7225,51.457,134.181,98.7366,99.4781,0.00242148,0.256737,20.7484,64.4868,-0.0680919,0.0,0.0
1464,365.75,51.4574,52.1945,135.411,98.7577,100.028,0.00232357,0.259388,20.7483,64.1265,-0.116342,0.0,0.0
1488,371.75,51.6899,52.7735,132.09,98.7737,100.117,0.00241382,0.263278,20.7435,63.7261,-0.122937,0.0,0.0
1512,377.75,52.4099,52.5862,135.842,98.7953,99.33,0.00258762,0.26646,20.7389,63.3158,-0.049121,0.0,0.0
1536,383.75,52.4734,53.5517,134.871,98.8096,99.3237,0.00300052,0.26211,20.7471,62.9254,-0.047219,0.0,0.0
1560,389.75,52.1761,54.2338,133.033,98.8041,98.3123,0.00350303,0.249421,20.7628,62.5851,0.0454053,0.0,0.0
1584,395.75,52.148,53.8357,136.979,98.8168,98.2538,0.00375997,0.231336,20.7816,62.3249,0.0520027,0.0,0.0
1608,401.75,52.0005,53.6645,139.927,98.8041,98.1988,0.00440879,0.208654,20.8055,62.0747,0.0559163,0.0,0.0
1632,407.75,50.3615,53.1248,138.985,98.7933,98.6167,0.00559413,0.181933,20.8367,61.8445,0.0162786,0.0,0.0
1656,413.75,49.1652,52.2855,143.602,98.7549,98.8076,0.0069089,0.156821,20.8642,61.7043,-0.00485378,0.0,0.0
1680,419.75,47.8697,51.54,137.878,98.7182,99.3228,0.00845005,0.137527,20.8854,61.5442,-0.0555612,0.0,0.0
1704,425.75,46.5411,50.0229,140.771,98.6683,98.7995,0.00911033,0.124149,20.8982,61.4241,-0.0120942,0.0,0.0
1728,431.75,45.3621,49.2869,143.06,98.6515,98.7847,0.0104404,0.113304,20.912,61.304,-0.0122724,0.0,0.0
1752,437.75,44.4641,47.84,137.694,98.628,98.8058,0.0111123,0.105188,20.9207,61.274,-0.0163953,0.0,0.0
1776,443.75,43.2967,47.2562,142.877,98.5905,98.8981,0.0107814,0.100297,20.9263,61.1739,-0.0283563,0.0,0.0
1800,449.75,42.6291,46.4303,145.186,98.5326,98.6955,0.0108055,0.0966068,20.9311,61.1238,-0.0150364,0.0,0.0
1824,455.75,40.6584,43.8735,141.415,98.4387,98.5406,0.0108363,0.0946153,20.9315,61.0738,-0.00941151,0.0,0.0
1848,461.75,39.6925,43.2282,142.751,98.317,98.0759,0.011245,0.0920792,20.9342,61.0137,0.022342,0.0,0.0
1872,467.75,39.2105,42.0669,143.773,98.2008,98.1705,0.0109158,0.0909453,20.9347,60.9437,0.00281147,0.0,0.0
1896,473.75,39.098,42.0376,137.825,98.1177,97.649,0.0106846,0.0910476,20.9328,60.8836,0.0435798,0.0,0.0
1920,479.75,38.8171,41.3777,142.206,98.0163,97.7832,0.0103204,0.0906087,20.9334,60.8136,0.021671,0.0,0.0
1944,485.75,38.217,40.978,140.285,97.9297,97.4473,0.0104423,0.0898531,20.9358,60.7835,0.0449412,0.0,0.0
1968,491.75,37.7224,40.3519,142.898,97.8079,98.4348,0.0103867,0.0889276,20.9368,60.6834,-0.0581386,0.0,0.0
1992,497.75,38.3267,39.8076,142.335,97.7125,97.4356,0.0105016,0.0885005,20.9367,60.5733,0.0258292,0.0,0.0
2016,503.75,37.374,39.8972,142.851,97.6163,97.6661,0.0104392,0.0889057,20.9349,60.5433,-0.00464376,0.0,0.0
2040,509.75,37.609,39.3176,143.412,97.5193,98.1074,0.0104401,0.0883505,20.9377,60.4933,-0.0547192,0.0,0.0
2064,515.75,37.0183,39.0875,143.92,97.4618,97.4608,0.0104114,0.0878741,20.9383,60.4833,9.32958e-05,0.0,0.0
2088,521.75,36.6979,38.4442,144.123,97.3991,97.9939,0.0105677,0.0879663,20.9395,60.3632,-0.0554089,0.0,0.0
2112,527.75,36.575,38.4228,142.325,97.344,97.5914,0.0099986,0.0877458,20.9398,60.3531,-0.0230962,0.0,0.0
2136,533.75,37.1935,38.4704,142.768,97.2693,97.3991,0.0104414,0.0875984,20.9392,60.3031,-0.0121306,0.0,0.0
2160,539.75,36.4419,38.0102,140.579,97.2186,97.3099,0.0103745,0.0877556,20.9369,60.2931,-0.0085417,0.0,0.0
2184,545.75,36.6991,37.7058,143.097,97.1647,97.5459,0.010187,0.086993,20.9408,60.2431,-0.035628,0.0,0.0
2208,551.75,36.6656,37.6405,144.354,97.1428,97.1915,0.0104535,0.0864694,20.9407,60.133,-0.0045629,0.0,0.0
2232,557.75,36.6664,37.4885,144.94,97.1372,97.5567,0.0100441,0.0866542,20.9415,60.1129,-0.0392173,0.0,0.0
2256,563.75,36.3387,37.3654,144.892,97.1088,97.6166,,0.0865715,,60.0729,-0.0474578,0.0,0.0
2280,569.75,36.4957,37.4875,141.527,97.0705,96.9546,,,,59.9928,0.0108701,0.0,0.0
2296,573.75,36.4317,37.4447,143.257,97.0545,96.6813,,,,59.9428,0.0350638,0.0,0.0

File: FDNY_LDF_Cone_HF50Scalar_220913_R1.csv
LABORATORY,FSRI
TEST IDENT,FDNY_LDF_HF50_R1
OPERATOR,Dow
MATERIAL,FDNY Low Density Fiberboard
ORIENTATION,Horizontal
HEAT FLUX,50
SURF AREA,0.01
C FACTOR,0.0415136
SPEC HOLDER DIFF,-566
SPECIMEN MASS,26.95
SCAN TIME,0.25
O2 DELAY TIME,11
CO DELAY TIME,11
CO2 DELAY TIME,8
FLOW FACTOR,1
SCAN COUNT,2012
TIME TO IGN,6.25
END OF TEST SCAN,1532
END OF TEST TIME,383
TEST STATUS,1
PRE TEST CMT,Dimensions: 99.10 x 99.23 x 12.14 mm; with tie wires
POST TEST CMT,Exposed area of sample shrank. See post test pictures.

File: FDNY_LDF_Cone_HF50Scalar_220913_R2.csv
LABORATORY,FSRI
TEST IDENT,FDNY_LDF_HF50_R2
OPERATOR,Dow
MATERIAL,FDNY Low Density Fiberboard
ORIENTATION,Horizontal
HEAT FLUX,50
SURF AREA,0.01
C FACTOR,0.0415136
SPEC HOLDER DIFF,-566
SPECIMEN MASS,27.08
SCAN TIME,0.25
O2 DELAY TIME,11
CO DELAY TIME,11
CO2 DELAY TIME,8
FLOW FACTOR,1
SCAN COUNT,1903
TIME TO IGN,5.5
END OF TEST SCAN,1423
END OF TEST TIME,355.75
TEST STATUS,1
PRE TEST CMT,Dimensions: 99.09 x 99.25 x 12.01 mm; with tie wires
POST TEST CMT,Sample shrank. See post test pictures.

File: FDNY_LDF_Cone_HF50Scalar_220913_R3.csv
LABORATORY,FSRI
TEST IDENT,FDNY_LDF_HF50_R3
OPERATOR,Dow
MATERIAL,FDNY Low Density Fiberboard
ORIENTATION,Horizontal
HEAT FLUX,50
SURF AREA,0.01
C FACTOR,0.0415136
SPEC HOLDER DIFF,-566
SPECIMEN MASS,26.67
SCAN TIME,0.25
O2 DELAY TIME,11
CO DELAY TIME,11
CO2 DELAY TIME,8
FLOW FACTOR,1
SCAN COUNT,2192
TIME TO IGN,6
END OF TEST SCAN,1712
END OF TEST TIME,428
TEST STATUS,1
PRE TEST CMT,Dimensions: 99.23 x 99.16 x 11.98 mm; with tie wires
POST TEST CMT,Sample shrank. See post test pictures.