Folder: fsri_materials_database/01_Data/FDNY_LDF/Cone (part 5)

File: FDNY_LDF_Cone_HF75Scan_220913_R2.csv
Names,Time,Stack TC,Smoke TC,Exh Press,Smoke Comp,Smoke Meas,CO Meter,CO2 Meter,O2 Meter,Sample Mass,Ext Coeff,Start Test,Flame Verif
Chan Gain,,500,500,1,1,1,1,1,1,1,1,1.0,1.0
Offset,,0,0,0.139139,0,0,0,0,0,0,0,0.0,0.0
Gain,,1,1,25.011,13.0826,14.7555,1,1,1,1.00088,1.03743,1.0,1.0
Units,sec,C,C,Pa,%,%,%,%,%,g,/m,,
Baseline,,63.3029,65.0276,132.87,97.9397,100.958,0.000799661,0.0491674,20.9837,-449.337,-0.276157,,
13,3,60.6424,62.4293,120.818,98.6803,100.48,0.00297391,0.11521,20.8643,75.2262,-0.164479,0.0,1.0
26,6.25,64.41,64.0953,112.667,98.7078,94.8918,0.00436528,0.353487,20.5756,74.6357,0.358797,0.0,1.0
39,9.5,68.9699,66.341,107.787,98.7498,93.6512,0.00549828,0.540008,20.3844,74.1553,0.482421,0.0,0.0
52,12.75,74.0367,70.9068,113.667,98.7549,92.8614,0.0062661,0.620629,20.3012,73.5247,0.559974,0.0,0.0
65,16,77.9911,74.2546,114.873,98.7629,92.8546,0.00668516,0.63049,20.2945,72.9542,0.561372,0.0,0.0
78,19.25,80.8694,77.3995,115.974,98.7741,93.3468,0.00694823,0.620207,20.3102,72.4038,0.514293,0.0,0.0
91,22.5,83.0287,79.7584,114.377,98.7917,92.9947,0.00708552,0.602616,20.3318,71.9333,0.550305,0.0,0.0
104,25.75,85.3418,81.5434,119.732,98.7597,93.9939,0.00693509,0.578541,20.3628,71.3729,0.450101,0.0,0.0
117,29,86.6206,83.769,111.022,98.737,93.8021,0.00671877,0.557092,20.3876,70.8924,0.466596,0.0,0.0
130,32.25,87.6767,85.3584,117.203,98.7418,94.4874,0.00614213,0.539813,20.4076,70.5021,0.40079,0.0,0.0
143,35.5,88.5916,86.6743,117.998,98.7174,96.0806,0.00574944,0.522244,20.433,70.0117,0.246381,0.0,0.0
156,38.75,89.4653,87.9149,118.455,98.6699,95.3903,0.00563863,0.502225,20.4559,69.5613,0.307619,0.0,0.0
169,42,89.4453,88.6929,115.805,98.6639,94.3145,0.0052651,0.4869,20.4749,69.1409,0.41028,0.0,0.0
182,45.25,89.9393,89.7427,117.941,98.6164,96.2657,0.00494283,0.470479,20.494,68.7505,0.219553,0.0,0.0
195,48.5,90.6005,90.4978,116.266,98.5589,95.5389,0.00500818,0.454212,20.5111,68.2701,0.283212,0.0,0.0
208,51.75,90.3661,91.5056,114.702,98.5082,95.6713,0.00503699,0.441796,20.5278,67.8097,0.265927,0.0,0.0
221,55,90.5787,91.8824,121.939,98.4663,97.3014,0.0049287,0.428161,20.5423,67.4094,0.108305,0.0,0.0
234,58.25,90.7221,92.668,117.547,98.3892,97.2843,0.00451917,0.413386,20.562,66.9389,0.102781,0.0,0.0
247,61.5,90.48,92.5418,118.433,98.3246,97.6985,0.00411089,0.402494,20.575,66.5886,0.0581252,0.0,0.0
260,64.75,89.974,93.1166,120.532,98.2838,98.0318,0.00377982,0.392791,20.5887,66.1783,0.0233689,0.0,0.0
273,68,90.3224,92.7376,120.6,98.287,98.8774,0.00355728,0.381637,20.6018,65.7979,-0.0545009,0.0,0.0
286,71.25,89.563,92.8991,123.789,98.287,98.949,0.00329516,0.37321,20.6097,65.3475,-0.0610885,0.0,0.0
299,74.5,89.6406,93.2495,118.891,98.309,99.262,0.00327933,0.367426,20.6181,65.0573,-0.087793,0.0,0.0
312,77.75,89.2487,93.1773,119.258,98.3521,99.0868,0.00325188,0.361423,20.6236,64.697,-0.067729,0.0,0.0
325,81,89.46,93.4883,122.681,98.3653,99.8609,0.00322356,0.355713,20.631,64.2466,-0.137326,0.0,0.0
338,84.25,88.7726,93.3876,119.974,98.3952,100.56,0.00303868,0.350561,20.6363,63.9263,-0.198021,0.0,0.0
351,87.5,87.968,93.4177,122.977,98.4156,100.076,0.00303351,0.346912,20.64,63.566,-0.152266,0.0,0.0
364,90.75,88.3433,93.0787,124.609,98.4363,100.312,0.00294853,0.344025,20.6412,63.2257,-0.171738,0.0,0.0
377,94,87.7751,92.9067,118.257,98.4487,99.8712,0.00276373,0.343757,20.6394,62.8554,-0.130553,0.0,0.0
390,97.25,88.1704,93.1273,116.383,98.4894,99.9365,0.0027805,0.34951,20.6339,62.485,-0.132737,0.0,0.0
403,100.5,88.2542,93.4457,121.477,98.5062,99.7974,0.00279786,0.354113,20.6309,62.1547,-0.118508,0.0,0.0
416,103.75,88.127,93.757,118.868,98.5034,99.9392,0.00289095,0.362924,20.6225,61.7644,-0.131692,0.0,0.0
429,107,88.0503,93.6319,118.078,98.509,99.4367,0.00307177,0.377766,20.603,61.3741,-0.0852997,0.0,0.0
442,110.25,89.2389,93.5327,116.676,98.5338,99.099,0.00314006,0.396793,20.5778,60.9837,-0.0520528,0.0,0.0
455,113.5,89.4402,94.1167,116.862,98.5402,98.1106,0.00337931,0.418098,20.5509,60.6034,0.0397592,0.0,0.0
468,116.75,89.7679,94.7024,116.693,98.5737,98.36,0.00359893,0.436004,20.5296,60.193,0.0197454,0.0,0.0
481,120,90.2823,95.5702,118.883,98.5833,98.3339,0.00378147,0.448119,20.5158,59.7626,0.0230475,0.0,0.0
494,123.25,90.9229,95.913,115.225,98.6136,97.6139,0.00398196,0.453495,20.5089,59.3423,0.0927289,0.0,0.0
507,126.5,91.4565,96.3968,114.887,98.63,97.5274,0.00395878,0.45815,20.4989,58.9719,0.102303,0.0,0.0
520,129.75,92.355,96.7498,115.924,98.6715,96.208,0.00389872,0.463694,20.4894,58.5516,0.230085,0.0,0.0
533,133,92.4358,96.9993,121.744,98.7346,96.05,0.004108,0.470744,20.4764,58.2213,0.250865,0.0,0.0
546,136.25,92.8554,97.1843,118.528,98.7749,95.5997,0.00426261,0.47895,20.4623,57.8209,0.297345,0.0,0.0
559,139.5,93.3765,97.5882,116.97,98.8224,96.4778,0.00420776,0.490096,20.4479,57.4706,0.218515,0.0,0.0
572,142.75,93.4945,97.5508,119.014,98.8631,96.3697,0.00412252,0.50178,20.433,56.9101,0.232465,0.0,0.0
585,146,94.1209,98.3651,117.746,98.8943,97.8012,0.00416245,0.515547,20.4139,56.7099,0.101146,0.0,0.0
598,149.25,94.2641,99.2462,116.574,98.9202,97.6715,0.00411431,0.527918,20.4009,56.2395,0.115608,0.0,0.0
611,152.5,95.2477,99.5142,115.913,98.9474,97.6778,0.00399861,0.534238,20.3959,55.8292,0.117518,0.0,0.0
624,155.75,95.5926,99.9884,117.94,98.9705,98.8635,0.00396529,0.533309,20.4016,55.3888,0.00985044,0.0,0.0
637,159,95.8174,100.604,117.47,98.9781,97.6364,0.00426945,0.527084,20.4125,54.9484,0.124206,0.0,0.0
650,162.25,95.9867,100.606,116.988,98.9805,98.1754,0.0045964,0.515292,20.4284,54.6081,0.0743251,0.0,0.0
663,165.5,96.0697,100.953,118.351,98.9961,98.0484,0.00457715,0.489905,20.4648,54.2678,0.0875354,0.0,0.0
676,168.75,94.7805,100.653,119.352,98.9881,96.6709,0.00448848,0.450936,20.5032,53.9575,0.215558,0.0,0.0
689,172,93.8591,100.415,121.949,98.9813,97.2784,0.0042854,0.401206,20.5667,53.6873,0.157928,0.0,0.0
702,175.25,93.0651,99.3479,127.068,99.0013,98.6095,0.00384013,0.329738,20.6554,53.5372,0.036085,0.0,0.0
715,178.5,90.3622,98.0303,125.639,99.0005,102.144,0.00304551,0.250693,20.7618,53.417,-0.284457,0.0,0.0
728,181.75,88.5003,96.4867,128.689,99.0089,103.157,0.00242185,0.181739,20.8321,53.377,-0.373509,0.0,0.0
741,185,86.5712,94.8561,128.206,99.0292,102.463,0.00228808,0.145943,20.8697,53.357,-0.310176,0.0,0.0
754,188.25,82.6742,91.4818,129.476,99.0468,102.491,0.00238472,0.12784,20.8898,53.327,-0.31104,0.0,0.0
767,191.5,81.0357,89.6445,132.099,99.0432,101.821,0.00231464,0.121723,20.8968,53.2169,-0.25168,0.0,0.0
780,194.75,79.3834,88.4366,130.389,99.0528,102.267,0.0022177,0.119632,20.8975,53.2669,-0.290597,0.0,0.0
793,198,78.3692,87.3379,128.687,99.0771,102.549,0.00224837,0.117302,20.8997,53.2169,-0.31345,0.0,0.0
806,201.25,76.9305,86.1521,131.711,99.0783,102.9,0.00225198,0.11585,20.9017,53.1468,-0.344455,0.0,0.0
819,204.5,76.0054,84.5971,133.269,99.0895,103.419,0.00209617,0.116014,20.9004,53.1268,-0.389151,0.0,0.0
832,207.75,75.1059,83.6737,127.24,99.1095,102.347,0.00206104,0.116043,20.9006,53.0868,-0.292479,0.0,0.0
845,211,74.1505,82.266,137.238,99.1027,103.317,0.00234052,0.114691,20.9013,53.0367,-0.378982,0.0,0.0
858,214.25,73.7132,81.4703,131.488,99.1079,103.199,0.00253094,0.11497,20.9015,52.9266,-0.368107,0.0,0.0
871,217.5,72.9903,80.4839,127.1,99.1239,103.13,0.00261287,0.114994,20.9024,52.8866,-0.360564,0.0,0.0
884,220.75,72.3045,80.0588,129.454,99.1263,102.753,0.00271828,0.114592,20.9044,52.9366,-0.326984,0.0,0.0
897,224,71.9151,79.3475,127.947,99.1187,102.944,0.00264996,0.114197,20.9051,52.8666,-0.344574,0.0,0.0
910,227.25,71.1618,78.044,129.149,99.1099,102.287,0.00272808,0.114438,20.9053,52.8666,-0.287117,0.0,0.0
923,230.5,70.926,77.834,132.965,99.1203,102.787,0.00278046,0.11401,20.9054,52.8766,-0.330525,0.0,0.0
936,233.75,70.0519,77.204,131.746,99.1039,103.125,0.00286172,0.113483,20.9054,52.8666,-0.361959,0.0,0.0
949,237,70.2537,76.2167,129.666,99.0943,102.628,0.00287945,0.113313,20.9054,52.7064,-0.318824,0.0,0.0
962,240.25,69.5862,75.9074,132.052,99.0712,103.344,0.00285876,0.113946,20.9054,52.6964,-0.384297,0.0,0.0
975,243.5,69.2973,75.0983,129.332,99.064,102.405,0.0028621,0.113432,20.9068,52.7565,-0.301864,0.0,0.0
988,246.75,69.2347,74.7238,129.618,99.0145,102.546,0.00277302,0.112546,20.9075,52.6664,-0.318889,0.0,0.0
1001,250,68.8374,74.3366,130.926,98.9969,103.029,0.00275276,0.113067,20.9063,52.5863,-0.363321,0.0,0.0
1014,253.25,68.9196,73.7647,127.456,98.9809,102.343,0.002823,0.113273,20.9074,52.6263,-0.303931,0.0,0.0
1027,256.5,68.2567,73.4866,129.074,98.947,103.01,0.00295535,0.113083,20.9076,52.6364,-0.3662,0.0,0.0
1040,259.75,68.4163,73.2538,133.937,98.9158,103.599,0.00299712,0.112629,20.9083,52.5463,-0.42099,0.0,0.0
1053,263,67.8068,72.4532,132.81,98.9306,102.774,0.0030313,0.112484,20.9083,52.5963,-0.346876,0.0,0.0
1066,266.25,67.712,72.5074,128.995,98.931,102.368,0.00307685,0.11342,20.9072,52.5263,-0.310763,0.0,0.0
1079,269.5,68.0468,72.1574,129.827,98.9226,102.37,0.00288372,0.113496,20.9076,52.4462,-0.311774,0.0,0.0
1092,272.75,67.6514,71.9649,129.767,98.915,101.686,0.00284359,0.112464,20.9083,52.4362,-0.251422,0.0,0.0
1105,276,67.2181,71.5578,133.519,98.9234,101.792,0.00288811,0.112754,20.9085,52.4862,-0.260116,0.0,0.0
1118,279.25,66.9031,71.198,125.842,98.9238,102.021,0.00293108,0.112575,20.909,52.4562,-0.280508,0.0,0.0
1131,282.5,67.3374,70.7623,130.916,98.9234,101.741,0.00313882,0.11175,20.9101,52.3361,-0.255566,0.0,0.0
1144,285.75,67.03,70.8997,134.505,98.9334,102.322,0.00336508,0.11129,20.911,52.3761,-0.306499,0.0,0.0
1157,289,67.1484,70.5561,134.215,98.9314,102.955,0.00337374,0.110906,20.912,52.3161,-0.362777,0.0,0.0
1170,292.25,66.5828,70.1851,129.823,98.9302,102.935,0.00339603,0.111454,20.9123,52.276,-0.361096,0.0,0.0
1183,295.5,67.1319,69.973,131.726,98.947,101.935,0.00337095,0.111676,20.9124,52.256,-0.270783,0.0,0.0
1196,298.75,66.848,70.1368,130.964,98.951,102.59,,0.111507,,52.3161,-0.328641,0.0,0.0
1209,302,66.7373,69.8802,134.154,98.9318,102.51,,,,52.206,-0.32329,0.0,0.0
1222,305.25,66.2755,69.5492,130.608,98.927,102.434,,,,52.1759,-0.317053,0.0,0.0
1228,306.75,66.437,69.4653,130.356,98.9314,102.807,,,,52.236,-0.349673,0.0,0.0

File: FDNY_LDF_Cone_HF75Scan_220913_R3.csv
Names,Time,Stack TC,Smoke TC,Exh Press,Smoke Comp,Smoke Meas,CO Meter,CO2 Meter,O2 Meter,Sample Mass,Ext Coeff,Start Test,Flame Verif
Chan Gain,,500,500,1,1,1,1,1,1,1,1,1.0,1.0
Offset,,0,0,0.139139,0,0,0,0,0,0,0,0.0,0.0
Gain,,1,1,25.011,13.0826,14.7555,1,1,1,1.00088,1.03743,1.0,1.0
Units,sec,C,C,Pa,%,%,%,%,%,g,/m,,
Baseline,,63.773,65.4052,133.076,97.2982,100.672,0.000791645,0.0498316,20.9831,-449.568,-0.310073,,
13,3,61.1295,62.9998,119.443,97.564,99.7199,0.00227095,0.10201,20.9268,75.4364,-0.198908,0.0,1.0
26,6.25,64.9291,64.6946,113.99,97.6127,94.3956,0.00373316,0.335776,20.6212,74.8259,0.304982,0.0,1.0
39,9.5,69.4324,66.7174,116.609,97.6239,93.5657,0.00512595,0.538102,20.3934,74.2754,0.386386,0.0,0.0
52,12.75,74.2191,70.6765,107.957,97.6718,92.3489,0.00593949,0.614874,20.3106,73.7049,0.509966,0.0,0.0
65,16,77.9663,74.453,115.105,97.7049,93.7917,0.0065556,0.627312,20.3,73.0243,0.371978,0.0,0.0
78,19.25,81.1994,77.8395,115.007,97.7373,90.8413,0.00696288,0.617461,20.3138,72.5639,0.665855,0.0,0.0
91,22.5,83.6693,79.711,117.04,97.8071,92.8398,0.00688199,0.602063,20.3363,72.1135,0.474329,0.0,0.0
104,25.75,85.2951,82.0559,115.795,97.8275,93.7746,0.00683963,0.578245,20.3615,71.583,0.385049,0.0,0.0
117,29,87.0189,84.0541,116.629,97.8846,93.6057,0.0068598,0.558091,20.3867,71.0125,0.40676,0.0,0.0
130,32.25,88.1708,85.8173,117.024,97.9417,93.7854,0.00681929,0.542051,20.4092,70.5221,0.394615,0.0,0.0
143,35.5,88.9821,87.4609,118.875,98.0056,94.7414,0.00672144,0.521065,20.431,70.2218,0.308255,0.0,0.0
156,38.75,89.5938,88.0683,120.368,98.0503,95.6096,0.00639349,0.503895,20.4531,69.7214,0.229394,0.0,0.0
169,42,89.9942,89.2785,116.535,98.1217,95.8248,0.00604417,0.485772,20.4732,69.281,0.21556,0.0,0.0
182,45.25,89.8288,90.1573,120.682,98.1844,97.0447,0.005603,0.47161,20.4889,68.8506,0.106254,0.0,0.0
195,48.5,90.5226,91.2206,118.247,98.2267,96.5714,0.00535,0.459051,20.5016,68.3702,0.154664,0.0,0.0
208,51.75,91.1736,92.184,114.95,98.2766,96.8934,0.00496417,0.445278,20.5215,67.9198,0.128997,0.0,0.0
221,55,91.1702,92.4871,117.493,98.3413,97.1613,0.00473788,0.429009,20.5418,67.5495,0.109856,0.0,0.0
234,58.25,91.3371,92.717,121.944,98.382,97.0996,0.00451099,0.415673,20.5585,67.0691,0.119403,0.0,0.0
247,61.5,91.0745,93.2052,117.962,98.4112,97.69,0.00406492,0.403623,20.5735,66.6687,0.0669374,0.0,0.0
260,64.75,91.2802,93.5487,120.494,98.4244,99.0841,0.00371442,0.393571,20.5866,66.2583,-0.0607964,0.0,0.0
273,68,90.452,93.4978,118.01,98.4244,100.037,0.00360616,0.382632,20.5992,65.9481,-0.147932,0.0,0.0
286,71.25,90.1978,93.5413,119.994,98.4232,99.6731,0.00349985,0.375056,20.6076,65.5477,-0.114843,0.0,0.0
299,74.5,90.6408,93.6059,122.167,98.4391,99.6929,0.00340578,0.367175,20.6192,65.1574,-0.115175,0.0,0.0
312,77.75,90.2889,93.8641,121.313,98.4787,100.039,0.00338987,0.360716,20.6266,64.7871,-0.143036,0.0,0.0
325,81,90.0248,94.2717,123.133,98.4898,99.7168,0.00320774,0.352185,20.6357,64.4568,-0.112667,0.0,0.0
338,84.25,89.4061,93.7997,121.362,98.5086,100.314,0.00301759,0.350052,20.6386,64.0464,-0.165304,0.0,0.0
351,87.5,89.4456,93.9492,120.974,98.5314,100.333,0.00300991,0.348168,20.6402,63.6661,-0.164878,0.0,0.0
364,90.75,89.2728,93.9788,119.578,98.5545,100.74,0.00277363,0.346934,20.6415,63.3858,-0.199586,0.0,0.0
377,94,89.4788,93.7903,121.547,98.5497,100.957,0.00270162,0.346404,20.6416,62.9354,-0.219614,0.0,0.0
390,97.25,89.4008,93.9763,125.007,98.5521,100.701,0.00258576,0.350432,20.6403,62.5751,-0.196308,0.0,0.0
403,100.5,88.6219,94.6317,121.538,98.5645,100.321,0.00257998,0.357381,20.63,62.2148,-0.160755,0.0,0.0
416,103.75,89.0143,93.8493,119.365,98.5374,100.749,0.00265019,0.370462,20.6165,61.8645,-0.201985,0.0,0.0
429,107,89.385,94.1613,120.151,98.5433,99.6709,0.0030468,0.385249,20.5974,61.4641,-0.103533,0.0,0.0
442,110.25,89.913,94.4297,118.907,98.5402,99.7411,0.00327009,0.400232,20.58,61.0337,-0.110239,0.0,0.0
455,113.5,90.3949,95.1842,118.03,98.5218,100.195,0.00341614,0.41023,20.5675,60.6834,-0.153215,0.0,0.0
468,116.75,90.8558,95.1743,118.148,98.5034,98.3785,0.00354617,0.421363,20.5541,60.3031,0.0115484,0.0,0.0
481,120,91.004,95.8211,119.332,98.5082,99.4354,0.00347417,0.430392,20.5438,59.9028,-0.0852505,0.0,0.0
494,123.25,91.4552,96.5583,120.071,98.5026,97.9192,0.00360639,0.447195,20.5156,59.4824,0.0540627,0.0,0.0
507,126.5,92.0876,96.522,118.43,98.4703,98.7784,0.00365493,0.465653,20.493,59.092,-0.028427,0.0,0.0
520,129.75,93.1232,97.1896,118.922,98.4615,97.699,0.00397283,0.479745,20.4727,58.6917,0.0707498,0.0,0.0
533,133,93.4695,97.8497,123.343,98.4639,95.5474,0.00434206,0.487078,20.4633,58.3013,0.273619,0.0,0.0
546,136.25,94.2783,97.9592,118.057,98.4387,94.0596,0.004593,0.494723,20.4509,57.8509,0.414113,0.0,0.0
559,139.5,94.7148,98.2828,113.62,98.4399,91.4803,0.0047722,0.502785,20.4423,57.4806,0.66726,0.0,0.0
572,142.75,95.3385,99.3291,113.971,98.4371,92.3057,0.00486553,0.514786,20.4242,57.0803,0.585259,0.0,0.0
585,146,95.8279,99.7102,115.037,98.4383,92.1427,0.00498286,0.523814,20.4097,56.6799,0.601455,0.0,0.0
598,149.25,96.5473,101.112,116.435,98.4391,91.8496,0.00542144,0.527233,20.4042,56.1995,0.630528,0.0,0.0
611,152.5,97.0127,101.346,114.461,98.4383,92.353,0.00550778,0.534709,20.3971,55.7791,0.58071,0.0,0.0
624,155.75,97.3735,101.54,116.432,98.4423,92.9501,0.00531549,0.535031,20.4024,55.3888,0.522432,0.0,0.0
637,159,97.9441,101.654,115.501,98.4391,92.811,0.00504208,0.524284,20.4182,54.9984,0.535769,0.0,0.0
650,162.25,97.8917,102.465,123.036,98.4164,94.3411,0.00456884,0.508309,20.4338,54.5681,0.384856,0.0,0.0
663,165.5,97.2134,102.483,114.864,98.418,95.0953,0.0043547,0.480944,20.4674,54.2278,0.312537,0.0,0.0
676,168.75,96.5112,102.097,118.316,98.4024,94.8387,0.00478006,0.440637,20.5187,53.9075,0.335693,0.0,0.0
689,172,95.4246,101.612,121.631,98.408,96.2535,0.00471372,0.392528,20.5794,53.6773,0.201449,0.0,0.0
702,175.25,94.2423,100.781,126.024,98.414,97.98,0.00367149,0.330959,20.6574,53.5171,0.0402215,0.0,0.0
715,178.5,91.9909,99.5654,124.418,98.4112,101.801,0.00279207,0.243819,20.7635,53.4471,-0.308167,0.0,0.0
728,181.75,89.3894,97.7703,131.947,98.3996,102.601,0.00248053,0.177972,20.8309,53.377,-0.380489,0.0,0.0
741,185,86.9714,95.7974,128.739,98.3976,102.412,0.002364,0.144643,20.8687,53.347,-0.363883,0.0,0.0
754,188.25,85.5719,93.6599,127.962,98.4096,102.274,0.00234092,0.129598,20.8829,53.347,-0.350483,0.0,0.0
767,191.5,82.4985,91.1515,128.995,98.4,101.663,0.0020868,0.123531,20.8907,53.2969,-0.296834,0.0,0.0
780,194.75,80.7544,89.9836,130.282,98.4004,102.004,0.00194069,0.119099,20.8961,53.2169,-0.3273,0.0,0.0
793,198,79.5335,88.3264,133.263,98.4024,102.412,0.00233363,0.116837,20.899,53.1868,-0.36348,0.0,0.0
806,201.25,78.0646,86.6598,131.433,98.4048,102.41,0.00258376,0.116388,20.9013,53.1668,-0.363018,0.0,0.0
819,204.5,76.6334,85.8044,127.007,98.3972,102.317,0.00238205,0.115536,20.9034,53.0968,-0.355474,0.0,0.0
832,207.75,76.0065,84.2401,128.926,98.3809,102.378,0.00217493,0.114233,20.9043,53.0968,-0.362432,0.0,0.0
845,211,74.8971,83.4789,130.317,98.3785,102.491,0.0023352,0.113903,20.9052,53.0767,-0.372695,0.0,0.0
858,214.25,74.6684,82.3303,128.944,98.3385,103.129,0.00248011,0.113487,20.905,52.9666,-0.43283,0.0,0.0
871,217.5,73.6223,81.6032,130.834,98.3086,102.041,0.00246797,0.113195,20.9056,52.9166,-0.33913,0.0,0.0
884,220.75,72.4833,80.3783,127.78,98.2766,102.614,0.00261542,0.113305,20.9058,52.9867,-0.393026,0.0,0.0
897,224,72.7296,79.8099,129.057,98.2527,101.452,0.00249492,0.113147,20.9062,52.8666,-0.291584,0.0,0.0
910,227.25,72.0448,79.4184,127.522,98.2283,101.823,0.00243328,0.113337,20.9059,52.8766,-0.327104,0.0,0.0
923,230.5,71.5612,78.5278,129.512,98.2048,101.977,0.00252496,0.113993,20.9058,52.8365,-0.34304,0.0,0.0
936,233.75,70.9798,78.0102,131.1,98.1864,101.08,0.00258342,0.114144,20.9058,52.8666,-0.26434,0.0,0.0
949,237,70.6603,76.9666,128.471,98.1457,101.506,0.00251587,0.113411,20.9055,52.7264,-0.306347,0.0,0.0
962,240.25,70.6815,76.7316,131.029,98.1066,102.371,0.00246031,0.113133,20.9067,52.6964,-0.387199,0.0,0.0
975,243.5,70.0591,75.3988,129.947,98.0958,101.359,0.00244705,0.11322,20.907,52.7765,-0.297764,0.0,0.0
988,246.75,69.769,75.5482,132.981,98.0734,101.609,0.00254186,0.113271,20.9071,52.7064,-0.32229,0.0,0.0
1001,250,69.8736,75.2315,132.088,98.0455,101.523,0.00262051,0.113145,20.9059,52.6564,-0.317137,0.0,0.0
1014,253.25,69.5391,74.6535,130.046,98.0351,102.247,0.00279682,0.112712,20.9057,52.6063,-0.382855,0.0,0.0
1027,256.5,69.0826,74.1232,128.01,98.0143,101.745,0.00292562,0.113198,20.9059,52.6464,-0.339987,0.0,0.0
1040,259.75,69.1363,73.8218,130.495,98.0119,101.466,0.00292771,0.112982,20.9062,52.6163,-0.315163,0.0,0.0
1053,263,68.5549,73.3908,130.117,97.9976,102.134,0.00289126,0.112428,20.90625,52.5763,-0.376276,0.0,0.0
1066,266.25,68.4026,72.8262,128.966,98.0103,101.786,0.0030295,0.111988,20.9056,52.5563,-0.344021,0.0,0.0
1079,269.5,68.2448,72.4521,128.459,97.9856,102.235,0.00313276,0.112297,20.9044,52.4662,-0.38633,0.0,0.0
1092,272.75,67.791,72.7087,128.677,97.9804,101.374,0.0029995,0.111892,20.9061,52.4862,-0.30985,0.0,0.0
1105,276,67.8776,72.6476,128.88,97.9828,101.555,0.00288896,0.111756,20.9063,52.4662,-0.325902,0.0,0.0
1118,279.25,68.1812,72.0672,128.299,98.0008,102.008,0.00277874,0.111826,20.9063,52.4562,-0.364697,0.0,0.0
1131,282.5,67.4716,71.7237,130.177,98.0786,102.594,0.00287669,0.112841,20.9083,52.3761,-0.409625,0.0,0.0
1144,285.75,67.6691,71.7466,131.443,98.1457,101.692,0.00290097,0.112804,20.9078,52.3461,-0.323045,0.0,0.0
1157,289,67.7848,71.1111,132.238,98.2267,102.458,0.00281578,0.112462,20.9092,52.3561,-0.383782,0.0,0.0
1170,292.25,68.1261,70.8985,130.543,98.2727,102.137,0.00282486,0.111725,20.9097,52.2961,-0.350967,0.0,0.0
1183,295.5,67.379,70.9896,129.863,98.3118,102.155,0.00303262,0.111618,20.9103,52.266,-0.348948,0.0,0.0
1196,298.75,67.443,70.8158,132.273,98.42,101.469,,0.110904,,52.3161,-0.277639,0.0,0.0
1209,302,67.7269,70.7198,129.298,98.4755,102.821,,,,52.206,-0.392986,0.0,0.0
1222,305.25,67.1404,70.4371,128.531,98.5397,101.783,,,,52.1659,-0.294676,0.0,0.0
1233,308,67.1202,70.2958,128.622,98.6012,101.451,,,,52.1559,-0.259319,0.0,0.0