Folder: fsri_materials_database/01_Data/FDNY_LDF/Cone (part 3)

File: FDNY_LDF_Cone_HF50Scan_220913_R1.csv
Names,Time,Stack TC,Smoke TC,Exh Press,Smoke Comp,Smoke Meas,CO Meter,CO2 Meter,O2 Meter,Sample Mass,Ext Coeff,Start Test,Flame Verif
Chan Gain,,500,500,1,1,1,1,1,1,1,1,1.0,1.0
Offset,,0,0,0.139139,0,0,0,0,0,0,0,0.0,0.0
Gain,,1,1,25.011,13.0826,14.7555,1,1,1,1.00088,1.03743,1.0,1.0
Units,sec,C,C,Pa,%,%,%,%,%,g,/m,,
Baseline,,46.8865,48.1891,139.696,97.9027,99.0401,0.00145517,0.0482968,20.9857,-443.597,-0.105062,,
21,5,45.7465,47.386,141.107,98.1309,96.3098,0.0030103,0.0610226,20.9454,82.2324,0.17047,0.0,0.0
42,10.25,49.138,49.1215,122.5,98.1724,98.6919,0.00293094,0.250909,20.6878,81.6119,-0.0480254,0.0,1.0
63,15.5,53.5145,51.5439,126.275,98.283,97.3288,0.00362895,0.378893,20.5797,80.9813,0.0887828,0.0,0.0
84,20.75,57.8639,54.8629,127.078,98.3513,97.0497,0.00427163,0.41081,20.5577,80.3708,0.121244,0.0,0.0
105,26,61.0764,58.2635,121.089,98.4547,97.3748,0.00431118,0.410027,20.5633,79.6001,0.100371,0.0,0.0
126,31.25,62.94,61.037,124.594,98.5366,96.3954,0.00414623,0.401309,20.577,79.1197,0.199929,0.0,0.0
147,36.5,64.905,62.3733,129.335,98.6104,97.3946,0.003718,0.385356,20.5981,78.5091,0.112901,0.0,0.0
168,41.75,65.7912,64.295,126.329,98.6543,97.7665,0.00357059,0.370033,20.6182,77.9186,0.0822658,0.0,0.0
189,47,66.4949,65.4271,127.056,98.7042,98.2285,0.00365484,0.357467,20.6357,77.4782,0.0439642,0.0,0.0
210,52.25,67.2859,66.7479,129.082,98.7258,97.8525,0.00358458,0.345165,20.6488,76.9878,0.0808531,0.0,0.0
231,57.5,67.0726,67.9458,126.713,98.6903,99.0355,0.00346073,0.335595,20.6599,76.3773,-0.0317772,0.0,0.0
252,62.75,67.2878,68.3352,129.265,98.6939,98.6063,0.00331499,0.323966,20.6704,75.8868,0.00807305,0.0,0.0
273,68,67.9811,69.1299,131.27,98.701,98.9828,0.00323648,0.312484,20.6856,75.4264,-0.0259407,0.0,0.0
294,73.25,67.9859,69.6351,132.338,98.707,99.8411,0.00336631,0.300752,20.6983,74.8459,-0.103957,0.0,0.0
315,78.5,67.2818,69.7434,132.578,98.7374,100.152,0.0031647,0.291792,20.7071,74.3955,-0.129436,0.0,0.0
336,83.75,67.1778,70.2134,125.426,98.7542,99.4007,0.0029471,0.281332,20.7205,73.9451,-0.0593844,0.0,0.0
357,89,66.64,70.0514,127.608,98.749,100.23,0.00274697,0.273303,20.7313,73.4146,-0.135445,0.0,0.0
378,94.25,66.7203,69.6669,130.388,98.7677,100.124,0.00270665,0.265691,20.741,72.9442,-0.124102,0.0,0.0
399,99.5,66.6582,69.7952,130.274,98.7809,100.67,0.00257401,0.259195,20.7488,72.6039,-0.1724,0.0,0.0
420,104.75,66.1262,69.5225,128.161,98.7917,100.935,0.0023695,0.25262,20.7554,72.1836,-0.19531,0.0,0.0
441,110,65.8125,69.6508,129.732,98.8284,100.856,0.00235969,0.247123,20.7632,71.7132,-0.18482,0.0,0.0
462,115.25,65.4575,69.6612,132.218,98.8655,101.502,0.00234614,0.242578,20.7697,71.3328,-0.239521,0.0,0.0
483,120.5,65.2639,69.5064,132.499,98.8899,101.486,0.00193716,0.238175,20.7732,70.8924,-0.235786,0.0,0.0
504,125.75,64.9532,68.6445,124.255,98.9226,101.652,0.00192756,0.238305,20.7734,70.5021,-0.247661,0.0,0.0
525,131,65.0344,68.7343,134.065,98.935,101.632,0.00200635,0.235741,20.7772,70.1318,-0.244748,0.0,0.0
546,136.25,64.8076,68.712,129.128,98.933,100.583,0.00202509,0.238027,20.7753,69.7915,-0.150537,0.0,0.0
567,141.5,64.3039,68.6984,132.203,98.9182,101.124,0.00191578,0.239651,20.7726,69.3511,-0.200654,0.0,0.0
588,146.75,64.4859,68.4989,129.579,98.8899,100.992,0.00222264,0.244773,20.7653,69.0108,-0.191382,0.0,0.0
609,152,64.8011,68.7113,128.857,98.8512,102.046,0.00184724,0.25211,20.7552,68.5804,-0.289484,0.0,0.0
630,157.25,65.4082,69.2077,130.743,98.8009,100.122,0.00175081,0.262959,20.7411,68.14,-0.120845,0.0,0.0
651,162.5,66.0376,69.6201,126.784,98.7825,101.187,0.00195136,0.276993,20.7235,67.7296,-0.218904,0.0,0.0
672,167.75,66.7712,69.3089,130.086,98.7338,100.786,0.00216224,0.291312,20.7038,67.2993,-0.187237,0.0,0.0
693,173,67.4756,70.0609,129.911,98.6867,99.1661,0.00211487,0.311985,20.6783,66.7788,-0.0440997,0.0,0.0
714,178.25,68.0542,70.7964,124.435,98.6699,98.7685,0.00241633,0.327103,20.6588,66.3584,-0.00908464,0.0,0.0
735,183.5,68.8186,71.7026,126.988,98.6376,98.2213,0.0028236,0.342549,20.6374,65.878,0.0384824,0.0,0.0
756,188.75,69.7219,72.3879,128.425,98.6,98.4613,0.00298219,0.353198,20.624,65.3676,0.0128094,0.0,0.0
777,194,70.4069,73.1528,127.046,98.5825,96.6836,0.00307019,0.358135,20.6163,64.9072,0.177002,0.0,0.0
798,199.25,71.4399,73.6485,128.377,98.5697,96.3431,0.00331938,0.363731,20.6098,64.4067,0.207922,0.0,0.0
819,204.5,71.665,74.0751,126.202,98.5429,97.2577,0.00343427,0.367693,20.6075,63.8662,0.119472,0.0,0.0
840,209.75,72.1351,74.68,125.281,98.5298,97.2536,0.00351812,0.374565,20.5968,63.3658,0.118635,0.0,0.0
861,215,73.0011,75.5199,132.449,98.5298,96.67,0.00347561,0.38538,20.5845,62.8754,0.173408,0.0,0.0
882,220.25,73.7197,76.376,121.444,98.513,96.3134,0.00340771,0.3973,20.5735,62.2748,0.205494,0.0,0.0
903,225.5,74.5546,76.5276,123.595,98.5106,96.0995,0.0036124,0.403582,20.5683,61.7344,0.225506,0.0,0.0
924,230.75,74.9568,77.7748,125.942,98.489,95.9446,0.00344218,0.397881,20.5754,61.2239,0.238193,0.0,0.0
945,236,74.7288,78.3526,127.888,98.4511,96.2382,0.00349406,0.374865,20.6055,60.6935,0.206884,0.0,0.0
966,241.25,74.4805,77.7093,125.104,98.3996,97.6251,0.00322546,0.330012,20.665,60.3431,0.0719091,0.0,0.0
987,246.5,72.9844,76.8095,126.881,98.3545,98.8166,0.00287976,0.260762,20.7423,60.153,-0.0426592,0.0,0.0
1008,251.75,69.9714,75.1519,132.935,98.295,100.685,0.00311492,0.19157,20.826,59.9428,-0.218616,0.0,0.0
1029,257,67.4022,73.0791,133.77,98.2235,99.6862,0.0042214,0.146721,20.8776,59.8827,-0.134511,0.0,0.0
1050,262.25,65.2309,71.6155,136.764,98.176,100.027,0.00561915,0.126094,20.8985,59.8527,-0.169981,0.0,0.0
1071,267.5,63.4559,69.6649,134.52,98.1621,99.5695,0.00664531,0.116704,20.9055,59.7927,-0.129557,0.0,0.0
1092,272.75,61.5353,68.2828,134.144,98.1381,100.897,0.00740554,0.112746,20.9061,59.6625,-0.252304,0.0,0.0
1113,278,60.59,66.9875,138.857,98.0842,99.5912,0.00800571,0.110237,20.9088,59.6225,-0.138752,0.0,0.0
1134,283.25,59.5511,65.5525,133.425,98.0539,99.4804,0.00809604,0.108949,20.911,59.5625,-0.131441,0.0,0.0
1155,288.5,58.1721,64.2346,135.557,98.004,99.7033,0.00813204,0.108422,20.9125,59.4824,-0.156441,0.0,0.0
1176,293.75,57.6159,62.8466,138.12,97.9509,98.8288,0.00811953,0.107142,20.9122,59.4624,-0.081203,0.0,0.0
1197,299,56.8719,61.8344,133.313,97.8854,100.246,0.00798949,0.10569,20.915,59.4123,-0.216891,0.0,0.0
1218,304.25,55.9764,61.4947,139.082,97.8155,99.2309,0.00820937,0.104859,20.9149,59.3022,-0.130739,0.0,0.0
1239,309.5,56.0546,60.3951,134.709,97.7912,99.212,0.00864549,0.103902,20.9167,59.3022,-0.131271,0.0,0.0
1260,314.75,55.4105,60.1325,139.098,97.7712,99.8631,0.00841043,0.103592,20.917,59.2622,-0.19266,0.0,0.0
1281,320,54.6389,59.3729,137.389,97.7341,99.5646,0.00863692,0.102866,20.9208,59.1421,-0.168869,0.0,0.0
1302,325.25,54.6506,59.1407,135.364,97.748,99.4786,0.00853819,0.102598,20.9212,59.1321,-0.159703,0.0,0.0
1323,330.5,54.2844,58.148,133.747,97.7668,99.4844,0.00893277,0.102065,20.9213,59.102,-0.158492,0.0,0.0
1344,335.75,54.1485,57.7431,133.672,97.7365,99.013,0.00867639,0.101239,20.9219,58.9519,-0.118087,0.0,0.0
1365,341,53.9885,57.2025,135.034,97.764,99.353,0.00865496,0.100644,20.9234,58.9719,-0.146717,0.0,0.0
1386,346.25,53.6405,57.2488,136.752,97.7289,100.319,0.00893969,0.10058,20.9242,58.9219,-0.238032,0.0,0.0
1407,351.5,53.3296,56.6408,133.868,97.7013,99.5083,0.00893726,0.0996038,20.9243,58.8518,-0.166771,0.0,0.0
1428,356.75,53.2518,56.0074,137.257,97.6774,99.1526,0.0090047,0.0992651,20.9238,58.8418,-0.136412,0.0,0.0
1449,362,53.0623,56.507,138.753,97.6279,99.1463,0.00885593,0.0982465,20.9255,58.8018,-0.140447,0.0,0.0
1470,367.25,52.7406,55.6808,138.337,97.5185,99.4376,0.00892057,0.0972937,20.9265,58.6817,-0.177352,0.0,0.0
1491,372.5,52.0504,55.1549,141.575,97.4215,99.6105,0.00894162,0.0970904,20.927,58.6216,-0.202221,0.0,0.0
1512,377.75,52.5705,55.1083,139.263,97.3105,99.0828,0.009072,0.0964454,20.9281,58.6617,-0.164251,0.0,0.0
1533,383,52.3547,54.3438,137.592,97.1907,99.1044,0.009328,0.0957713,20.929,58.5416,-0.177444,0.0,0.0
1554,388.25,50.9841,52.9613,134.435,97.1092,98.2785,0.00928765,0.0943916,20.9282,58.4615,-0.108922,0.0,0.0
1575,393.5,50.5937,53.0821,133.576,97.0334,98.5636,0.00959833,0.0939609,20.9283,58.5215,-0.14239,0.0,0.0
1596,398.75,50.7442,52.8023,137.96,97.0094,99.294,0.0094589,0.0944512,20.9283,58.4615,-0.211824,0.0,0.0
1617,404,50.8228,52.4134,134.915,97.0006,99.3498,0.00901844,0.0932343,20.9303,58.3814,-0.217764,0.0,0.0
1638,409.25,50.7894,52.637,135.976,97.011,97.8602,0.00883833,0.0922447,20.9306,58.4014,-0.0793118,0.0,0.0
1659,414.5,50.4731,52.1882,139.907,97.0146,97.7373,0.00865513,0.0911504,20.9327,58.3814,-0.0675356,0.0,0.0
1680,419.75,50.2582,52.1425,139.441,97.0605,98.401,0.0085446,0.0915503,20.9329,58.2813,-0.124822,0.0,0.0
1701,425,50.5481,52.4768,133.848,97.1072,100.151,0.00805906,0.0910275,20.933,58.2713,-0.280853,0.0,0.0
1722,430.25,50.199,51.8981,134.858,97.1176,98.224,0.00823616,0.090316,20.9334,58.2313,-0.103089,0.0,0.0
1743,435.5,50.0914,51.5889,138.002,97.0925,98.8914,0.00805501,0.0902091,20.9357,58.1212,-0.167066,0.0,0.0
1764,440.75,49.9608,51.9653,135.548,97.0925,98.4177,0.00797594,0.0902306,20.9365,58.1912,-0.123369,0.0,0.0
1785,446,50.4936,51.5018,133.164,97.0961,98.2587,0.00797973,0.0897462,20.9375,58.1212,-0.108322,0.0,0.0
1806,451.25,49.9965,51.8396,133.122,97.0985,98.7329,0.00806888,0.0893035,20.9385,58.0311,-0.151907,0.0,0.0
1827,456.5,50.0193,51.6097,136.437,97.1284,99.1201,0.00791498,0.0893732,20.9364,58.0011,-0.184725,0.0,0.0
1848,461.75,50.3259,51.3821,137.698,97.122,99.3642,0.00769532,0.0885008,20.937,58.0011,-0.207704,0.0,0.0
1869,467,49.9877,51.7157,138.751,97.0965,99.2593,0.0079158,0.0881042,20.9368,57.871,-0.200485,0.0,0.0
1890,472.25,50.3336,51.7038,135.395,97.0933,99.2566,0.00765898,0.0880757,20.9376,57.861,-0.200536,0.0,0.0
1911,477.5,49.9689,51.2036,135.216,97.0669,98.7667,0.0076217,0.0878557,20.9375,57.871,-0.157976,0.0,0.0
1932,482.75,50.3024,51.5949,134.67,97.0414,98.9387,0.00742694,0.0880532,20.9373,57.7509,-0.176207,0.0,0.0
1953,488,49.9882,51.5069,132.704,97.0314,98.9342,0.00730129,0.0880589,20.9361,57.7208,-0.176729,0.0,0.0
1974,493.25,50.2131,51.6448,138.572,97.0342,98.8184,,0.0877603,,57.8109,-0.165816,0.0,0.0
1995,498.5,50.0836,51.2283,137.431,97.013,98.8653,,,,57.7108,-0.172113,0.0,0.0
2012,502.75,50.2787,51.2094,138.782,97.023,98.8387,,,,57.6508,-0.16873,0.0,0.0

File: FDNY_LDF_Cone_HF50Scan_220913_R2.csv
Names,Time,Stack TC,Smoke TC,Exh Press,Smoke Comp,Smoke Meas,CO Meter,CO2 Meter,O2 Meter,Sample Mass,Ext Coeff,Start Test,Flame Verif
Chan Gain,,500,500,1,1,1,1,1,1,1,1,1.0,1.0
Offset,,0,0,0.139139,0,0,0,0,0,0,0,0.0,0.0
Gain,,1,1,25.011,13.0826,14.7555,1,1,1,1.00088,1.03743,1.0,1.0
Units,sec,C,C,Pa,%,%,%,%,%,g,/m,,
Baseline,,50.8845,52.3998,137.587,97.9988,99.515,0.00101608,0.0494675,20.9839,-445.082,-0.139653,,
20,4.75,49.2874,50.402,140.617,98.2643,96.5453,0.00171396,0.0660873,20.955,79.6902,0.160602,0.0,0.0
40,9.75,52.4977,51.7617,124.279,98.2315,99.4232,0.00261566,0.260144,20.7109,79.1297,-0.109733,0.0,1.0
60,14.75,56.2243,54.3375,123.378,98.2072,97.6247,0.00345161,0.382481,20.58,78.4791,0.0541371,0.0,0.0
80,19.75,60.2235,57.5063,122.231,98.1645,97.1127,0.00400027,0.411718,20.5547,77.8786,0.09803,0.0,0.0
100,24.75,63.104,60.6978,125.165,98.1497,96.4413,0.00396696,0.419309,20.5512,77.3081,0.159794,0.0,0.0
120,29.75,65.6692,63.4367,120.497,98.1645,96.3949,0.00412644,0.414821,20.5602,76.7076,0.165542,0.0,0.0
140,34.75,67.4641,65.5231,125.767,98.1844,96.1004,0.00434231,0.406527,20.5735,76.1771,0.195237,0.0,0.0
160,39.75,69.0964,66.9549,124.337,98.2012,97.409,0.00429017,0.390987,20.5922,75.6566,0.0737106,0.0,0.0
180,44.75,69.3241,68.4112,121.581,98.2335,96.725,0.00417235,0.377546,20.608,75.1362,0.140835,0.0,0.0
200,49.75,70.2195,69.753,124.082,98.192,98.3128,0.00384638,0.364133,20.6238,74.6257,-0.011184,0.0,0.0
220,54.75,70.521,70.8087,124.934,98.18,97.0087,0.00339745,0.352214,20.6397,74.0852,0.109225,0.0,0.0
240,59.75,70.9498,71.264,125.891,98.1772,98.8594,0.00297236,0.337388,20.6568,73.5748,-0.0630147,0.0,0.0
260,64.75,71.1506,72.2728,129.924,98.1521,99.3367,0.0028341,0.325283,20.6725,73.1344,-0.10918,0.0,0.0
280,69.75,71.1937,72.6284,130.078,98.1461,98.7923,0.00269973,0.312289,20.6848,72.614,-0.0597234,0.0,0.0
300,74.75,71.2729,72.5896,128.479,98.113,99.0202,0.00282395,0.302374,20.6976,72.1135,-0.0837608,0.0,0.0
320,79.75,70.5667,73.5022,130.96,98.1201,98.9769,0.00255143,0.292079,20.711,71.6631,-0.0791208,0.0,0.0
340,84.75,70.5141,73.152,127.82,98.1185,99.7339,0.00242781,0.282978,20.7199,71.2327,-0.148601,0.0,0.0
360,89.75,70.4991,73.2475,123.24,98.0814,99.9645,0.00254813,0.276876,20.7275,70.7823,-0.173059,0.0,0.0
380,94.75,70.114,73.2712,129.027,98.1261,100.049,0.0023339,0.269217,20.7363,70.352,-0.176615,0.0,0.0
400,99.75,69.3267,73.1412,128.664,98.1808,100.656,0.00217208,0.263899,20.7441,69.9316,-0.226589,0.0,0.0
420,104.75,68.8089,73.0312,130.934,98.1884,100.471,0.00216348,0.258199,20.7515,69.5613,-0.209179,0.0,0.0
440,109.75,68.9677,72.9524,128.564,98.184,100.719,0.00216711,0.254177,20.7563,69.1609,-0.231991,0.0,0.0
460,114.75,68.7881,72.614,128.985,98.212,102.012,0.00225361,0.250088,20.7604,68.7906,-0.345508,0.0,0.0
480,119.75,68.5167,72.7781,128.449,98.2375,100.278,0.00222949,0.246648,20.7634,68.3602,-0.187114,0.0,0.0
500,124.75,68.1802,72.8477,127.769,98.2503,100.65,0.00207852,0.246028,20.7634,67.9799,-0.219622,0.0,0.0
520,129.75,68.2731,72.4114,132.019,98.2487,100.974,0.00187735,0.246934,20.763,67.5795,-0.249038,0.0,0.0
540,134.75,67.654,72.2314,123.54,98.2471,100.36,0.00173382,0.248087,20.761,67.2192,-0.193661,0.0,0.0
560,139.75,68.1282,72.3656,131.325,98.2838,100.72,0.00185506,0.251455,20.7568,66.8489,-0.222785,0.0,0.0
580,144.75,68.3352,72.6162,127.21,98.3258,101.227,0.00173275,0.257387,20.747,66.3985,-0.264642,0.0,0.0
600,149.75,68.2129,72.1256,131.062,98.4048,101.152,0.00218463,0.264114,20.7382,65.9481,-0.250565,0.0,0.0
620,154.75,68.2897,72.3629,125.297,98.4799,101.55,0.00219134,0.274877,20.7238,65.5878,-0.27941,0.0,0.0
640,159.75,69.1223,72.6705,127.322,98.5182,101.274,0.00222766,0.291176,20.7031,65.1874,-0.251059,0.0,0.0
660,164.75,69.3941,72.9417,127.399,98.5354,99.8555,0.00254622,0.305007,20.6904,64.767,-0.121111,0.0,0.0
680,169.75,70.5117,73.4326,126.195,98.5693,99.4336,0.00237296,0.322476,20.6665,64.3266,-0.0794436,0.0,0.0
700,174.75,71.2095,74.1234,124.143,98.5909,98.2096,0.00265868,0.34386,20.6394,63.8462,0.0352573,0.0,0.0
720,179.75,72.0182,74.7336,128.043,98.6008,98.0732,0.00302837,0.364072,20.612,63.3958,0.0488298,0.0,0.0
740,184.75,72.7011,75.7188,119.964,98.6312,97.6954,0.00337672,0.375891,20.6005,62.8954,0.0867542,0.0,0.0
760,189.75,73.2252,76.0934,124.632,98.6336,97.7359,0.00355179,0.379491,20.5953,62.3949,0.0832011,0.0,0.0
780,194.75,74.1402,77.0822,123.251,98.6515,97.2379,0.0037209,0.382306,20.589,61.8845,0.131349,0.0,0.0
800,199.75,74.8313,77.7709,125.694,98.6647,96.2823,0.00377807,0.38799,20.582,61.4241,0.222435,0.0,0.0
820,204.75,75.0656,77.9858,128.851,98.6595,97.0965,0.00385005,0.398136,20.5683,60.9337,0.145328,0.0,0.0
840,209.75,75.8459,78.8946,124.757,98.6679,97.0821,0.00357176,0.405341,20.5596,60.3932,0.147452,0.0,0.0
860,214.75,76.7431,79.2984,125.015,98.6595,97.404,0.00354882,0.411923,20.5549,59.8827,0.116549,0.0,0.0
880,219.75,77.2354,80.3281,122.169,98.6515,97.3878,0.00370014,0.412502,20.5553,59.3423,0.117327,0.0,0.0
900,224.75,77.8026,80.664,124.478,98.6599,96.7412,0.00358977,0.403707,20.5657,58.8118,0.178726,0.0,0.0
920,229.75,77.3654,81.3408,123.995,98.6611,98.2659,0.00302238,0.378849,20.6005,58.3214,0.0365269,0.0,0.0
940,234.75,76.9642,81.2192,125.523,98.6591,97.2455,0.00301846,0.341052,20.6418,57.951,0.131333,0.0,0.0
960,239.75,75.8026,80.3239,128.37,98.6555,98.5703,0.00320929,0.272292,20.727,57.7008,0.00786386,0.0,0.0
980,244.75,73.3547,78.9421,130.39,98.6491,100.241,0.0031273,0.201719,20.8115,57.6608,-0.14567,0.0,0.0
1000,249.75,70.9197,77.3109,134.592,98.6543,100.011,0.00385493,0.159626,20.8562,57.5307,-0.124277,0.0,0.0
1020,254.75,68.2782,75.3965,131.287,98.6567,100.313,0.00473999,0.138303,20.8787,57.4106,-0.15155,0.0,0.0
1040,259.75,66.6986,73.7145,135.758,98.6683,100.265,0.00578013,0.126809,20.8911,57.4306,-0.146068,0.0,0.0
1060,264.75,64.7917,71.9826,132.043,98.6763,100.715,0.00637152,0.120138,20.8983,57.3605,-0.186071,0.0,0.0
1080,269.75,63.3699,70.699,137.649,98.6787,100.949,0.00662526,0.115072,20.9045,57.2504,-0.207024,0.0,0.0
1100,274.75,62.7005,69.2001,136.18,98.6719,100.663,0.00719534,0.112534,20.9076,57.2905,-0.181836,0.0,0.0
1120,279.75,60.6002,67.8016,138.875,98.6751,100.816,0.00768176,0.109261,20.9115,57.2504,-0.195332,0.0,0.0
1140,284.75,60.5706,66.629,133.326,98.6551,100.51,0.00810716,0.108684,20.9101,57.1503,-0.16949,0.0,0.0
1160,289.75,59.64,65.6198,133.997,98.6288,100.177,0.00823732,0.107528,20.9117,57.0703,-0.141742,0.0,0.0
1180,294.75,59.2073,64.8559,137.224,98.6136,100.251,0.00806048,0.10654,20.9139,57.0102,-0.149848,0.0,0.0
1200,299.75,58.1639,63.8052,132.504,98.6096,100.461,0.008256,0.105527,20.915,56.9201,-0.169245,0.0,0.0
1220,304.75,57.4865,63.1663,136.35,98.6032,100.236,0.00898172,0.10488,20.9136,56.8901,-0.149498,0.0,0.0
1240,309.75,57.3343,62.245,131.621,98.5968,100.437,0.00887854,0.104265,20.915,56.83,-0.168302,0.0,0.0
1260,314.75,56.8417,61.8322,137.025,98.5921,100.675,0.00862156,0.103249,20.9155,56.78,-0.190302,0.0,0.0
1280,319.75,56.4034,60.7046,132.913,98.5885,100.885,0.00891005,0.10322,20.9155,56.76,-0.209542,0.0,0.0
1300,324.75,56.4454,60.6824,137.485,98.5817,100.77,0.00892816,0.102778,20.9166,56.6999,-0.199764,0.0,0.0
1320,329.75,56.3559,59.9363,133.93,98.5681,100.589,0.00888422,0.10254,20.9171,56.6599,-0.184695,0.0,0.0
1340,334.75,56.0317,59.3795,134.083,98.5713,100.289,0.00900739,0.101489,20.9172,56.6199,-0.157228,0.0,0.0
1360,339.75,55.5127,59.4645,134.608,98.5717,100.617,0.0090354,0.100849,20.9172,56.6499,-0.18693,0.0,0.0
1380,344.75,56.1062,58.7663,135.773,98.5721,100.221,0.00913473,0.100938,20.9178,56.5698,-0.150941,0.0,0.0
1400,349.75,55.1733,58.6561,132.814,98.5509,100.213,0.00910881,0.0999099,20.9201,56.5398,-0.152199,0.0,0.0
1420,354.75,55.2615,58.2423,134.471,98.5617,101.065,0.00910232,0.0994717,20.9206,56.4998,-0.228203,0.0,0.0
1440,359.75,53.4516,56.1219,136.778,98.5541,100.566,0.00968109,0.0983253,20.9221,56.4597,-0.183867,0.0,0.0
1460,364.75,53.7333,56.3107,136.928,98.537,100.129,0.00982989,0.0969318,20.9223,56.3396,-0.145881,0.0,0.0
1480,369.75,53.2396,55.6168,137.936,98.4883,100.131,0.00941268,0.0960902,20.9223,56.3296,-0.150544,0.0,0.0
1500,374.75,52.9771,55.4578,137.148,98.418,99.8366,0.00951967,0.0959633,20.9246,56.2395,-0.130234,0.0,0.0
1520,379.75,53.1993,55.5707,134.18,98.3473,100.138,0.0093212,0.0947293,20.9267,56.1895,-0.164231,0.0,0.0
1540,384.75,52.4635,55.369,132.239,98.2523,99.2489,0.00898988,0.0948602,20.9271,56.1294,-0.0918456,0.0,0.0
1560,389.75,53.249,55.3385,134.42,98.1748,100.004,0.00877714,0.0947599,20.9285,56.1294,-0.168002,0.0,0.0
1580,394.75,52.3645,54.3049,135.506,98.1856,99.7803,0.00889819,0.0952616,20.9272,56.0894,-0.146614,0.0,0.0
1600,399.75,52.255,54.615,133.478,98.22,100.099,0.00854235,0.0944756,20.9261,56.0093,-0.172421,0.0,0.0
1620,404.75,52.6322,54.5572,133.217,98.2164,100.54,0.00832893,0.094162,20.9271,55.9993,-0.212827,0.0,0.0
1640,409.75,52.6622,54.2485,138.898,98.2543,99.8348,0.00833736,0.0939106,20.9272,56.0293,-0.145219,0.0,0.0
1660,414.75,52.4288,54.1498,134.32,98.3126,99.9955,0.00798357,0.0930271,20.9294,56.0093,-0.154464,0.0,0.0
1680,419.75,52.6984,53.8756,134.796,98.3537,100.91,0.00804793,0.0928269,20.9301,55.9593,-0.233471,0.0,0.0
1700,424.75,52.79,53.8476,137.503,98.4248,99.4628,0.00792397,0.0920536,20.9303,55.8292,-0.0954752,0.0,0.0
1720,429.75,52.269,53.5676,138.486,98.4815,100.02,0.00774328,0.0920476,20.9302,55.8091,-0.141057,0.0,0.0
1740,434.75,52.1996,53.7909,142.299,98.5374,100.987,0.007771,0.0917486,20.9287,55.7991,-0.223436,0.0,0.0
1760,439.75,52.0279,53.2386,135.145,98.5825,100.147,0.00790101,0.0917617,20.9302,55.7891,-0.143275,0.0,0.0
1780,444.75,51.9925,53.7082,139.991,98.6164,100.071,0.00778367,0.0910337,20.9317,55.7591,-0.133266,0.0,0.0
1800,449.75,51.7922,53.777,134.998,98.6392,100.554,0.0077904,0.0904014,20.9319,55.659,-0.174957,0.0,0.0
1820,454.75,51.8031,53.2382,136.769,98.6471,100.289,0.00785596,0.090692,20.9324,55.599,-0.150227,0.0,0.0
1840,459.75,52.1596,53.0221,135.441,98.7054,100.78,0.00748038,0.0906397,20.9327,55.599,-0.189322,0.0,0.0
1860,464.75,51.7176,53.2634,137.212,98.737,100.915,,0.0901027,,55.5489,-0.198604,0.0,0.0
1880,469.75,52.0024,52.7395,135.423,98.7885,100.892,,,,55.5289,-0.191707,0.0,0.0
1900,474.75,51.5946,52.5533,138.606,98.822,100.458,,,,55.4588,-0.14946,0.0,0.0
1903,475.5,51.7462,53.171,137.028,98.818,100.955,,,,55.4789,-0.19471,0.0,0.0