Folder: fsri_materials_database/01_Data/FDNY_LDF/Cone

Note: 01_Data/README.md
# Materials and Products Database
## 01_Data

Raw data generated from each apparatus are included here in plain-text format. The data is organized first by material, next by the short name of test apparatus used, and where applicable additional filtering by test settings.

### material.json

Each material directory contains a json file of the same name as the material. This file links the data stored in the repository as well as data and graphs produced by the accompanying scripts (__02_Scripts__) to the respective landing page for the material on the front-end website.

File: FDNY_LDF_Cone_HF25Scalar_220909_R1.csv
LABORATORY,FSRI
TEST IDENT,FDNY_LDF_HF25_R1
OPERATOR,Dow
MATERIAL,FDNY Low Density Fiberboard
ORIENTATION,Horizontal
HEAT FLUX,25
SURF AREA,0.01
C FACTOR,0.0424895
SPEC HOLDER DIFF,-566
SPECIMEN MASS,26.65
SCAN TIME,0.25
O2 DELAY TIME,11
CO DELAY TIME,11
CO2 DELAY TIME,8
FLOW FACTOR,1
SCAN COUNT,2074
TIME TO IGN,39
END OF TEST SCAN,1594
END OF TEST TIME,398.5
TEST STATUS,1
PRE TEST CMT,Dimensions: 99.09 x 99.14 x 12.13 mm
POST TEST CMT,Sample warped at end of test forming an arched shape. See test pictures.

File: FDNY_LDF_Cone_HF25Scalar_220909_R2.csv
LABORATORY,FSRI
TEST IDENT,FDNY_LDF_HF25_R2
OPERATOR,Dow
MATERIAL,FDNY Low Density Fiberboard
ORIENTATION,Horizontal
HEAT FLUX,25
SURF AREA,0.01
C FACTOR,0.0424895
SPEC HOLDER DIFF,-566
SPECIMEN MASS,26.23
SCAN TIME,0.25
O2 DELAY TIME,11
CO DELAY TIME,11
CO2 DELAY TIME,8
FLOW FACTOR,1
SCAN COUNT,2159
TIME TO IGN,35.75
END OF TEST SCAN,1679
END OF TEST TIME,419.75
TEST STATUS,1
PRE TEST CMT,Dimensions: 99.28 x 98.95 x 12.04 mm; with tie wires

File: FDNY_LDF_Cone_HF25Scalar_220909_R3.csv
LABORATORY,FSRI
TEST IDENT,FDNY_LDF_HF25_R3
OPERATOR,Dow
MATERIAL,FDNY Low Density Fiberboard
ORIENTATION,Horizontal
HEAT FLUX,25
SURF AREA,0.01
C FACTOR,0.0415136
SPEC HOLDER DIFF,-566
SPECIMEN MASS,27.03
SCAN TIME,0.25
O2 DELAY TIME,11
CO DELAY TIME,11
CO2 DELAY TIME,8
FLOW FACTOR,1
SCAN COUNT,2240
TIME TO IGN,37.75
END OF TEST SCAN,1760
END OF TEST TIME,440
TEST STATUS,1
PRE TEST CMT,Dimensions: 99.20 x 99.24 x 11.96 mm; with tie wires

File: FDNY_LDF_Cone_HF25Scalar_220913_R4.csv
LABORATORY,FSRI
TEST IDENT,FDNY_LDF_HF25_R4
OPERATOR,Dow
MATERIAL,FDNY Low Density Fiberboard
ORIENTATION,Horizontal
HEAT FLUX,25
SURF AREA,0.01
C FACTOR,0.0415136
SPEC HOLDER DIFF,-566
SPECIMEN MASS,26.9
SCAN TIME,0.25
O2 DELAY TIME,11
CO DELAY TIME,11
CO2 DELAY TIME,8
FLOW FACTOR,1
SCAN COUNT,2296
TIME TO IGN,37.5
END OF TEST SCAN,1816
END OF TEST TIME,454
TEST STATUS,1
PRE TEST CMT,Dimensions: 99.20 x 98.92 x 12.14 mm; with tie wires

File: FDNY_LDF_Cone_HF25Scan_220909_R1.csv
Names,Time,Stack TC,Smoke TC,Exh Press,Smoke Comp,Smoke Meas,CO Meter,CO2 Meter,O2 Meter,Sample Mass,Ext Coeff,Start Test,Flame Verif
Chan Gain,,500,500,1,1,1,1,1,1,1,1,1.0,1.0
Offset,,0,0,0.142519,0,0,0,0,0,0,0,0.0,0.0
Gain,,1,1,25.011,13.0826,14.7555,1,1,1,1.00088,1.03743,1.0,1.0
Units,sec,C,C,Pa,%,%,%,%,%,g,/m,,
Baseline,,44.6059,45.0516,137.95,100.723,108.577,0.00031747,0.0478855,20.9959,-443.69,-0.683248,,
22,5.25,42.2263,43.1589,135.707,100.159,107.534,0.000418055,0.0594587,20.9813,61.8845,-0.646589,0.0,0.0
44,10.75,42.4164,43.0033,136.589,99.981,107.386,4.95504e-05,0.0567387,20.986,61.8244,-0.6502,0.0,0.0
66,16.25,42.6876,43.0349,135.679,99.8385,106.649,0.000180348,0.0526566,20.9925,61.7544,-0.600537,0.0,0.0
88,21.75,42.5449,42.8558,136.209,99.773,105.826,0.000324737,0.0508917,20.9935,61.6543,-0.535957,0.0,0.0
110,27.25,43.0734,43.2311,137.97,99.7914,105.735,0.000427675,0.050336,20.9941,61.5742,-0.526456,0.0,0.0
132,32.75,43.1079,43.3731,139.098,99.8469,104.674,0.000797852,0.0503803,20.9939,61.4641,-0.429666,0.0,0.0
154,38.25,43.5619,43.7983,140.485,99.9763,104.447,0.00141173,0.0565823,20.9832,61.334,-0.398091,0.0,0.0
176,43.75,46.4114,44.7551,121.729,100.117,104.137,0.00181991,0.273982,20.7176,60.7335,-0.358275,0.0,1.0
198,49.25,50.5982,47.3004,123.907,100.25,103.978,0.00252014,0.366252,20.6238,60.143,-0.3323,0.0,0.0
220,54.75,54.1913,50.891,131.546,100.384,105.141,0.00236861,0.354265,20.6402,59.6025,-0.421325,0.0,0.0
242,60.25,56.3152,53.2104,129.501,100.548,105.426,0.00208053,0.327187,20.6762,59.1421,-0.431096,0.0,0.0
264,65.75,57.0319,54.5453,127.41,100.709,105.411,0.00191682,0.305196,20.7021,58.7017,-0.415262,0.0,0.0
286,71.25,58.044,55.8111,127.077,100.825,106.18,0.0018269,0.287945,20.7226,58.2513,-0.470931,0.0,0.0
308,76.75,57.9822,57.063,128.155,100.922,106.401,0.00171135,0.273469,20.7375,57.861,-0.481106,0.0,0.0
330,82.25,58.6235,57.5494,128.477,100.984,106.882,0.00188892,0.262442,20.7509,57.4206,-0.516603,0.0,0.0
352,87.75,58.6108,58.2449,130.69,101.049,107.517,0.00141962,0.252103,20.7624,57.0402,-0.564642,0.0,0.0
374,93.25,59.02,58.699,127.326,101.095,107.309,0.00121381,0.243766,20.7733,56.6299,-0.542844,0.0,0.0
396,98.75,58.8296,58.8819,130.783,101.134,107.571,0.00136521,0.234564,20.785,56.2696,-0.561557,0.0,0.0
418,104.25,57.684,59.1879,127.642,101.154,107.856,0.00173931,0.227551,20.7962,55.9192,-0.583771,0.0,0.0
440,109.75,58.0136,59.2201,128.168,101.159,108.184,0.00162516,0.22198,20.8022,55.5189,-0.610994,0.0,0.0
462,115.25,57.6877,59.4885,132.166,101.174,108.455,0.00137017,0.217395,20.8073,55.1486,-0.632404,0.0,0.0
484,120.75,57.8154,59.6742,129.557,101.196,108.07,0.00131059,0.211199,20.8135,54.7983,-0.598102,0.0,0.0
506,126.25,57.7387,59.7751,128.366,101.182,108.179,0.00155165,0.208788,20.8141,54.478,-0.608569,0.0,0.0
528,131.75,57.6104,59.5755,132.152,101.198,108.162,0.00143849,0.203273,20.8198,54.1277,-0.605654,0.0,0.0
550,137.25,57.398,59.5828,132.812,101.207,108.47,0.00161777,0.201121,20.8223,53.8074,-0.630708,0.0,0.0
572,142.75,57.0336,59.3324,131.798,101.215,108.394,0.0016275,0.19662,20.8267,53.4571,-0.623601,0.0,0.0
594,148.25,56.721,59.0265,132.704,101.25,108.553,0.00154853,0.193321,20.8323,53.1668,-0.633779,0.0,0.0
616,153.75,56.7177,58.6351,129.697,101.265,108.414,0.00151423,0.189123,20.8393,52.8666,-0.620817,0.0,0.0
638,159.25,55.9559,58.6004,129.672,101.278,108.689,0.00171798,0.186528,20.8404,52.5563,-0.642663,0.0,0.0
660,164.75,55.8959,58.7587,133.096,101.299,108.447,0.0017261,0.184493,20.8445,52.266,-0.620528,0.0,0.0
682,170.25,56.5078,58.07,131.776,101.301,108.567,0.00171849,0.184565,20.8437,51.9257,-0.630468,0.0,0.0
704,175.75,55.6723,58.1205,132.463,101.305,108.382,0.00168583,0.182598,20.8444,51.6054,-0.614508,0.0,0.0
726,181.25,55.3241,57.7984,132.682,101.324,108.373,0.0017584,0.183368,20.8447,51.3252,-0.611994,0.0,0.0
748,186.75,54.971,57.3653,134.433,101.294,108.546,0.00161226,0.182771,20.8454,50.9949,-0.62923,0.0,0.0
770,192.25,55.0024,57.76,136.076,101.25,108.327,0.0016027,0.184455,20.8432,50.7647,-0.614809,0.0,0.0
792,197.75,55.1577,57.4769,128.321,101.153,108.37,0.00117533,0.186228,20.8422,50.4544,-0.627127,0.0,0.0
814,203.25,55.1469,57.4856,130.858,101.013,107.888,0.00129489,0.188766,20.8392,50.1241,-0.599267,0.0,0.0
836,208.75,55.3831,57.222,134.207,100.837,107.965,0.00120474,0.1933,20.8333,49.8239,-0.621599,0.0,0.0
858,214.25,55.5667,57.4965,129.029,100.67,107.868,0.0010146,0.197572,20.829,49.5136,-0.628469,0.0,0.0
880,219.75,55.1445,57.4382,126.079,100.55,107.507,0.000860468,0.202463,20.8232,49.2534,-0.608896,0.0,0.0
902,225.25,55.8619,57.6731,130.961,100.467,107.166,0.00165502,0.211363,20.8118,49.0132,-0.58744,0.0,0.0
924,230.75,55.9553,58.0637,129.22,100.404,107.454,0.00161991,0.216969,20.8061,48.6629,-0.617521,0.0,0.0
946,236.25,56.4752,58.0165,135.156,100.551,107.299,0.00179887,0.225386,20.7962,48.3926,-0.591086,0.0,0.0
968,241.75,57.4869,58.5117,125.843,100.669,106.822,0.00133393,0.234592,20.7856,48.0623,-0.539896,0.0,0.0
990,247.25,57.5553,59.0011,131.764,100.751,107.634,0.00133841,0.242206,20.7756,47.722,-0.601407,0.0,0.0
1012,252.75,58.1538,59.454,132.739,100.751,106.778,0.00153054,0.251874,20.7629,47.3417,-0.528706,0.0,0.0
1034,258.25,58.5244,59.9496,130.209,100.7,107.019,0.00146223,0.259285,20.7554,46.9914,-0.553796,0.0,0.0
1056,263.75,58.7084,60.5702,129.268,100.627,106.624,0.00135226,0.265507,20.7472,46.581,-0.526796,0.0,0.0
1078,269.25,59.8842,61.1081,131.956,100.485,106.621,0.00142564,0.270883,20.7418,46.2207,-0.539352,0.0,0.0
1100,274.75,60.1935,61.7224,129.115,100.341,106.109,0.00164529,0.277375,20.7335,45.8304,-0.508608,0.0,0.0
1122,280.25,60.5209,62.1521,126.736,100.093,105.897,0.00159853,0.285937,20.7232,45.47,-0.512951,0.0,0.0
1144,285.75,61.3612,62.4749,130.734,100.135,105.686,0.00159752,0.292314,20.7149,44.9596,-0.490938,0.0,0.0
1166,291.25,62.1584,62.8147,128.264,100.288,105.518,0.001873,0.301998,20.7025,44.5592,-0.462618,0.0,0.0
1188,296.75,62.771,63.4611,126.533,100.475,104.966,0.00191405,0.312911,20.6901,44.1189,-0.397978,0.0,0.0
1210,302.25,63.2063,64.3792,128.019,100.62,104.536,0.00244868,0.320439,20.6802,43.7385,-0.347464,0.0,0.0
1232,307.75,63.8753,64.7058,127.844,100.74,105.302,0.00252733,0.325591,20.6755,43.2681,-0.403001,0.0,0.0
1254,313.25,64.3531,65.4329,132.768,100.811,103.81,0.00271056,0.328262,20.6715,42.8177,-0.266806,0.0,0.0
1276,318.75,64.1729,66.0305,132.314,100.801,103.425,0.00241764,0.325028,20.6756,42.3673,-0.233857,0.0,0.0
1298,324.25,64.5926,66.2509,129.246,100.739,103.904,0.00237203,0.316786,20.6825,41.8869,-0.281542,0.0,0.0
1320,329.75,64.6606,66.1927,127.76,100.602,103.108,0.00223849,0.302098,20.698,41.4965,-0.223849,0.0,0.0
1342,335.25,64.1068,66.4765,127.314,100.402,102.357,0.00351205,0.291102,20.7062,41.1562,-0.175501,0.0,0.0
1364,340.75,64.0293,66.1246,130.329,100.171,105.415,0.00689669,0.28579,20.7056,40.6558,-0.464303,0.0,0.0
1386,346.25,63.7402,66.0972,125.635,99.9531,102.064,0.0101553,0.322254,20.655,40.2454,-0.190207,0.0,0.0
1408,351.75,63.7196,66.4386,128.041,99.7307,106.066,0.011201,0.317921,20.6472,39.8451,-0.560434,0.0,0.0
1430,357.25,61.9685,65.2884,134.876,99.6121,106.833,0.0134022,0.251779,20.7259,39.6349,-0.636897,0.0,0.0
1452,362.75,59.9859,64.0694,134.929,99.5858,107.009,0.0165147,0.202065,20.7927,39.4648,-0.654252,0.0,0.0
1474,368.25,58.0763,62.9597,133.898,99.6736,106.709,0.0174274,0.185868,20.8149,39.3346,-0.620689,0.0,0.0
1496,373.75,57.5693,61.6108,134.409,99.8824,107.155,0.0169688,0.178828,20.8251,39.2245,-0.639621,0.0,0.0
1518,379.25,55.6227,60.4422,133.108,100.14,107.435,0.0165894,0.176062,20.8276,39.1345,-0.639905,0.0,0.0
1540,384.75,54.2835,58.9773,134.477,100.455,107.658,0.0159182,0.169126,20.8398,39.0144,-0.630186,0.0,0.0
1562,390.25,53.5316,57.921,130.916,100.763,107.974,0.0159374,0.167943,20.8426,38.9243,-0.628951,0.0,0.0
1584,395.75,52.7168,57.1081,135.482,101.017,108.435,0.0159461,0.162931,20.8486,38.8242,-0.644864,0.0,0.0
1606,401.25,50.0097,54.5395,137.534,101.154,108.303,0.0162738,0.161474,20.8511,38.7041,-0.621458,0.0,0.0
1628,406.75,49.4859,53.8982,135.763,101.191,108.506,0.0167326,0.159048,20.855,38.624,-0.635129,0.0,0.0
1650,412.25,49.6783,52.6031,137.722,101.133,108.568,0.0171503,0.155772,20.8589,38.5139,-0.645585,0.0,0.0
1672,417.75,48.7997,52.3514,139.021,100.952,108.373,0.0174325,0.152802,20.8605,38.4338,-0.645551,0.0,0.0
1694,423.25,48.6002,51.6196,136.544,100.73,108.057,0.017415,0.1526,20.8613,38.3538,-0.638963,0.0,0.0
1716,428.75,48.0006,51.3927,137.856,100.477,107.572,0.0172932,0.151237,20.8644,38.2637,-0.620924,0.0,0.0
1738,434.25,48.1576,50.2005,135.059,100.286,107.63,0.0165488,0.146487,20.8695,38.2137,-0.643138,0.0,0.0
1760,439.75,47.6363,50.3492,132.944,100.488,107.611,0.0165967,0.146285,20.8702,38.0835,-0.623227,0.0,0.0
1782,445.25,47.2853,49.7569,132.394,100.643,108.055,0.0162245,0.142742,20.8737,37.9434,-0.646641,0.0,0.0
1804,450.75,47.006,49.6362,134.212,100.657,107.883,0.0162683,0.143078,20.8737,37.9234,-0.630878,0.0,0.0
1826,456.25,46.7405,49.0493,135.325,100.497,107.474,0.015649,0.140975,20.8778,37.8433,-0.610846,0.0,0.0
1848,461.75,46.6033,48.5842,134.413,100.252,107.37,0.0150162,0.136816,20.8844,37.7232,-0.624259,0.0,0.0
1870,467.25,46.5509,48.6375,135.497,99.9248,106.892,0.0153074,0.136726,20.8841,37.6732,-0.613405,0.0,0.0
1892,472.75,46.3325,48.3171,133.549,100.034,107.06,0.0147903,0.135892,20.8832,37.6031,-0.617736,0.0,0.0
1914,478.25,46.1066,48.206,137.244,100.233,107.419,0.0140425,0.131937,20.8856,37.5331,-0.630086,0.0,0.0
1936,483.75,46.023,47.8244,135.514,100.41,107.671,0.0139809,0.131393,20.888,37.443,-0.635416,0.0,0.0
1958,489.25,46.1012,47.7142,133.738,100.563,107.652,0.0137251,0.12835,20.8927,37.3829,-0.619893,0.0,0.0
1980,494.75,45.8685,47.5254,136.781,100.647,107.428,0.0130866,0.12639,20.897,37.3229,-0.593337,0.0,0.0
2002,500.25,45.383,46.9697,134.509,100.659,107.754,0.0121949,0.1211,20.9044,37.2428,-0.619827,0.0,0.0
2024,505.75,45.5212,47.0414,135.63,100.603,107.9,0.0119134,0.117939,20.9087,37.2128,-0.637231,0.0,0.0
2046,511.25,45.619,46.3914,134.497,100.475,107.782,,,,37.1527,-0.638914,0.0,0.0
2068,516.75,45.1838,46.2688,136.732,100.312,106.832,,,,37.1027,-0.573027,0.0,0.0
2074,518.25,45.0227,46.6537,136.287,100.264,107.413,,,,37.0827,-0.626835,0.0,0.0

File: FDNY_LDF_Cone_HF25Scan_220909_R2.csv
Names,Time,Stack TC,Smoke TC,Exh Press,Smoke Comp,Smoke Meas,CO Meter,CO2 Meter,O2 Meter,Sample Mass,Ext Coeff,Start Test,Flame Verif
Chan Gain,,500,500,1,1,1,1,1,1,1,1,1.0,1.0
Offset,,0,0,0.142519,0,0,0,0,0,0,0,0.0,0.0
Gain,,1,1,25.011,13.0826,14.7555,1,1,1,1.00088,1.03743,1.0,1.0
Units,sec,C,C,Pa,%,%,%,%,%,g,/m,,
Baseline,,41.7114,42.4472,138.459,100.038,106.564,0.000180927,0.0459546,20.9974,-443.987,-0.575062,,
23,5.5,40.2123,41.0157,136.527,99.8325,106,0.000135172,0.0493153,20.9951,80.8512,-0.545506,0.0,0.0
46,11.25,40.3891,41.039,138.947,99.8034,105.256,9.78689e-05,0.0484858,20.9959,80.8512,-0.484035,0.0,0.0
69,17,40.1695,40.9926,137.71,99.7643,105.238,0.000188964,0.0483152,20.9942,80.8012,-0.486123,0.0,0.0
92,22.75,40.3606,40.9164,139.31,99.696,104.391,0.000295873,0.047646,20.9949,80.6811,-0.418772,0.0,0.0
115,28.5,40.191,41.1415,142.623,99.6393,104.203,0.000517778,0.0475713,20.9944,80.611,-0.407525,0.0,0.0
138,34.25,40.3189,41.2496,135.005,99.5503,103.362,0.000826109,0.0489931,20.9953,80.5109,-0.341941,0.0,0.0
161,40,41.9081,41.3715,124.949,99.4225,104.907,0.00138707,0.206732,20.8139,80.0405,-0.488686,0.0,1.0
184,45.75,45.5387,44.0216,131.08,99.3259,104.497,0.00188108,0.311494,20.6942,79.53,-0.461879,0.0,0.0
207,51.5,48.9198,46.4798,126.243,99.27,104.446,0.00190222,0.305841,20.6993,79.0596,-0.462529,0.0,0.0
230,57.25,50.6821,48.5069,128.663,99.2536,104.337,0.00187013,0.29964,20.7059,78.5492,-0.45457,0.0,0.0
253,63,52.5428,50.1461,129.751,99.3199,104.661,0.00176521,0.28899,20.7198,78.1288,-0.476651,0.0,0.0
276,68.75,53.4699,51.8441,128.987,99.5119,105.526,0.00203477,0.275899,20.7356,77.7385,-0.534017,0.0,0.0
299,74.5,54.1788,53.0385,129.793,99.8082,105.748,0.00170113,0.267273,20.7458,77.208,-0.526091,0.0,0.0
322,80.25,54.0404,53.7438,127.51,100.116,106.078,0.00158467,0.256017,20.7586,76.8577,-0.526391,0.0,0.0
345,86,54.8515,54.2541,129.928,100.409,106.299,0.00163538,0.247603,20.7683,76.4473,-0.518777,0.0,0.0
368,91.75,54.8377,55.2627,132.564,100.638,106.23,0.00135372,0.241953,20.7777,76.0169,-0.49213,0.0,0.0
391,97.5,55.0739,55.5347,130.947,100.81,106.956,0.00140454,0.233583,20.7857,75.6967,-0.538517,0.0,0.0
414,103.25,54.4995,55.8164,132.327,100.929,107.008,0.00174801,0.227591,20.7912,75.3564,-0.532225,0.0,0.0
437,109,54.4477,55.9726,128.681,100.971,107.247,0.00158828,0.220947,20.7988,74.936,-0.548757,0.0,0.0
460,114.75,55.182,56.3995,132.702,100.965,106.959,0.00164509,0.215425,20.8048,74.5757,-0.52481,0.0,0.0
483,120.5,54.3587,55.9241,134.181,100.881,107.159,0.00145387,0.209315,20.8111,74.2154,-0.549367,0.0,0.0
506,126.25,54.2848,56.5306,133.56,100.745,107.012,0.00139804,0.207631,20.815,73.775,-0.549182,0.0,0.0
529,132,54.312,56.5204,130.477,100.574,107.071,0.00151945,0.202003,20.8228,73.5147,-0.569718,0.0,0.0
552,137.75,53.8209,56.5612,131.783,100.436,106.398,0.00163004,0.199328,20.8269,73.1945,-0.524794,0.0,0.0
575,143.5,53.5135,56.1496,133.508,100.313,107.187,0.00174977,0.194797,20.8341,72.8842,-0.603208,0.0,0.0
598,149.25,53.4687,55.3182,125.95,100.142,106.87,0.00194874,0.191739,20.8369,72.5339,-0.591694,0.0,0.0
621,155,53.3791,55.6703,133.644,100.136,106.772,0.00221986,0.188922,20.8384,72.2136,-0.583986,0.0,0.0
644,160.75,53.0983,55.6951,134.636,100.309,106.814,0.001707,0.185662,20.8427,71.8132,-0.571821,0.0,0.0
667,166.5,52.7804,55.613,132.172,100.367,106.452,0.00167174,0.18385,20.8466,71.583,-0.535634,0.0,0.0
690,172.25,52.5091,55.0806,133.052,100.472,106.953,0.00162565,0.180858,20.8481,71.2327,-0.568901,0.0,0.0
713,178,52.3088,55.1441,132.86,100.454,106.886,0.00170631,0.179303,20.8492,70.9625,-0.564818,0.0,0.0
736,183.75,52.1969,55.0012,134.669,100.305,106.863,0.00189147,0.17847,20.8491,70.6722,-0.576363,0.0,0.0
759,189.5,51.9178,54.8831,131.07,100.093,106.52,0.00164111,0.178225,20.849,70.382,-0.566389,0.0,0.0
782,195.25,51.7435,54.6597,131.619,99.892,106.223,0.00142977,0.178577,20.8491,70.0117,-0.55924,0.0,0.0
805,201,51.7782,54.3888,136.919,99.686,105.917,0.00110286,0.179589,20.8478,69.7514,-0.551795,0.0,0.0
828,206.75,51.5502,53.9487,134.62,99.7619,106.022,0.00121991,0.180656,20.8492,69.5012,-0.553883,0.0,0.0
851,212.5,51.7722,54.0279,137.766,99.8401,106.035,0.0012908,0.18291,20.8467,69.1809,-0.54783,0.0,0.0
874,218.25,52.1222,53.9876,131.831,99.9759,106.201,0.00113951,0.186764,20.8411,68.9407,-0.549676,0.0,0.0
897,224,51.601,54.1776,130.238,100.108,106.819,0.00101307,0.189516,20.8368,68.5904,-0.590518,0.0,0.0
920,229.75,52.1283,53.9248,134.297,100.241,106.685,0.00120731,0.194766,20.8306,68.2701,-0.567001,0.0,0.0
943,235.5,51.9355,53.7323,128.578,100.348,105.838,0.00117959,0.197826,20.8272,68.0499,-0.484753,0.0,0.0
966,241.25,52.3981,54.0968,134.24,100.376,106.387,0.00109603,0.201953,20.8215,67.6296,-0.529293,0.0,0.0
989,247,52.3473,54.2154,132.252,100.336,106.659,0.00131031,0.20603,20.8174,67.4394,-0.556113,0.0,0.0
1012,252.75,53.0626,54.8711,132.981,100.261,106.342,0.00105066,0.211396,20.8104,67.1491,-0.535873,0.0,0.0
1035,258.5,53.2063,55.0354,131.206,100.11,106.136,0.000979801,0.215428,20.8051,66.8088,-0.53199,0.0,0.0
1058,264.25,53.2125,55.3469,131.223,99.9144,106.426,0.00150611,0.220976,20.7995,66.4285,-0.574586,0.0,0.0
1081,270,53.8233,55.6558,132.475,99.7115,105.552,0.00158517,0.227495,20.7912,66.2083,-0.518032,0.0,0.0
1104,275.75,54.094,56.0278,129.403,99.4992,105.373,0.000978786,0.23272,20.7852,65.878,-0.521972,0.0,0.0
1127,281.5,54.8003,56.4833,131.012,99.3399,105.112,0.00123084,0.238519,20.7777,65.4877,-0.514009,0.0,0.0
1150,287.25,54.9769,56.6775,129.838,99.2157,105.722,0.00113562,0.24329,20.7725,65.1774,-0.578064,0.0,0.0
1173,293,55.5879,56.9544,132.853,99.145,105.002,0.000954913,0.246516,20.7677,64.757,-0.522319,0.0,0.0
1196,298.75,55.8156,57.5522,130.794,99.1231,104.699,0.00119043,0.250516,20.7635,64.3867,-0.49807,0.0,0.0
1219,304.5,56.5478,57.919,130.012,99.1937,105.016,0.00129349,0.254877,20.7596,64.0564,-0.519098,0.0,0.0
1242,310.25,56.8691,58.5011,127.681,99.3151,104.752,0.00101343,0.260477,20.7521,63.7161,-0.485035,0.0,0.0
1265,316,57.1911,58.6869,131.986,99.5011,104.749,0.00116915,0.26774,20.743,63.2757,-0.467729,0.0,0.0
1288,321.75,57.772,59.3148,130.518,99.7159,105.145,0.0013493,0.274371,20.7359,62.8654,-0.482466,0.0,0.0
1311,327.5,57.8655,59.3709,125.398,99.9563,105.183,0.00127723,0.281231,20.7273,62.3649,-0.463831,0.0,0.0
1334,333.25,58.6752,59.8352,127.21,100.213,105.039,0.00145172,0.284798,20.7231,62.0446,-0.428016,0.0,0.0
1357,339,58.9254,60.4918,127.558,100.434,104.565,0.00147171,0.286174,20.7223,61.5842,-0.366815,0.0,0.0
1380,344.75,59.0498,60.9302,132.406,100.605,104.871,0.00164015,0.281838,20.7263,61.294,-0.377917,0.0,0.0
1403,350.5,59.2367,61.0289,127.404,100.732,105.132,0.00186831,0.265994,20.7418,60.9237,-0.389075,0.0,0.0
1426,356.25,58.5504,61.1242,134.966,100.821,104.994,0.00234764,0.241702,20.766,60.6334,-0.369097,0.0,0.0
1449,362,58.092,60.8647,134.727,100.85,105.558,0.00303129,0.213112,20.8036,60.3431,-0.415204,0.0,0.0
1472,367.75,56.7352,59.5811,134.178,100.846,106.318,0.00456605,0.177837,20.8453,60.183,-0.480858,0.0,0.0
1495,373.5,55.2483,58.7814,135.719,100.782,106.535,0.00603073,0.147963,20.8768,60.0929,-0.50522,0.0,0.0
1518,379.25,53.3588,57.343,139.64,100.651,106.787,0.00773907,0.126501,20.8982,59.9928,-0.53853,0.0,0.0
1541,385,51.7394,56.1708,132.856,100.528,106.71,0.00865064,0.11327,20.9133,59.8927,-0.543165,0.0,0.0
1564,390.75,50.6861,54.7188,135.248,100.391,106.371,0.00972897,0.106195,20.9221,59.7927,-0.526607,0.0,0.0
1587,396.5,49.3562,53.4538,138.104,100.241,106.175,0.0103333,0.0999786,20.93,59.6826,-0.523414,0.0,0.0
1610,402.25,48.1079,52.8359,134.332,100.093,105.913,0.0104388,0.0960829,20.9338,59.6826,-0.514347,0.0,0.0
1633,408,47.3227,51.8771,138.898,99.9719,105.508,0.0102851,0.0951339,20.9345,59.6025,-0.4905,0.0,0.0
1656,413.75,46.9453,50.9681,138.225,100.13,105.82,0.0103515,0.0939798,20.9377,59.5524,-0.503031,0.0,0.0
1679,419.5,46.3587,49.3327,139.966,100.277,106.119,0.0102128,0.091929,20.9396,59.4624,-0.515254,0.0,0.0
1702,425.25,43.6424,47.552,140.323,100.356,106.01,0.0102564,0.090993,20.9407,59.3523,-0.498805,0.0,0.0
1725,431,43.6632,46.9917,138.067,100.373,106.195,0.0098561,0.0902719,20.9429,59.2922,-0.513125,0.0,0.0
1748,436.75,43.2917,46.2251,136.104,100.367,106.234,0.00923032,0.0892556,20.943,59.3022,-0.51706,0.0,0.0
1771,442.5,42.9488,45.4532,137.891,100.352,106.32,0.00915124,0.0896892,20.9425,59.2522,-0.525651,0.0,0.0
1794,448.25,42.528,45.3774,140.875,100.328,105.96,0.00941802,0.0900105,20.9425,59.2021,-0.497014,0.0,0.0
1817,454,42.2948,44.8581,138.151,100.292,106.403,0.00938258,0.0890659,20.9425,59.1421,-0.538322,0.0,0.0
1840,459.75,42.4828,44.3078,141.1,100.252,105.951,0.00925644,0.0883534,20.9432,59.002,-0.503196,0.0,0.0
1863,465.5,41.4871,43.7198,136.975,100.246,106.176,0.00914324,0.0877947,20.9438,59.032,-0.522984,0.0,0.0
1886,471.25,41.9012,43.653,137.892,100.245,105.65,0.0090353,0.0881343,20.9446,58.992,-0.477865,0.0,0.0
1909,477,41.3456,43.2644,136.99,100.251,106.11,0.00863749,0.0880065,20.9444,58.9219,-0.516876,0.0,0.0
1932,482.75,41.5563,42.9973,140.311,100.267,106.158,0.00890149,0.0872694,20.9439,58.8718,-0.519555,0.0,0.0
1955,488.5,41.5558,43.1796,135.14,100.276,105.973,0.00856212,0.0865708,20.9463,58.8118,-0.502918,0.0,0.0
1978,494.25,41.4612,42.7512,138.181,100.288,106.145,0.00878149,0.0863384,20.947,58.7017,-0.51659,0.0,0.0
2001,500,41.0303,42.2044,137.715,100.321,106.491,0.00908098,0.0860023,20.9458,58.7317,-0.543149,0.0,0.0
2024,505.75,41.1199,41.887,145.096,100.356,106.169,0.00862352,0.0853456,20.9456,58.7017,-0.512406,0.0,0.0
2047,511.5,41.5664,42.3771,139.645,100.388,106.141,0.00859449,0.0857756,20.9442,58.6717,-0.507115,0.0,0.0
2070,517.25,41.2719,42.3293,138.744,100.392,106.094,0.00842172,0.0869589,20.9441,58.6016,-0.502662,0.0,0.0
2093,523,41.1543,42.3796,137.846,100.337,106.56,0.00877424,0.0868513,20.9444,58.5115,-0.547623,0.0,0.0
2116,528.75,41.2531,42.2802,135.768,100.217,106.01,,0.0864733,,58.4415,-0.511415,0.0,0.0
2139,534.5,41.0278,41.8781,136.745,99.985,105.897,,,,58.4715,-0.522757,0.0,0.0
2159,539.5,40.6556,41.9208,137.135,100.01,106.261,,,,58.4315,-0.551718,0.0,0.0