Folder: fsri_materials_database/01_Data/FDNY_LDF/Cone (part 4)

File: FDNY_LDF_Cone_HF50Scan_220913_R3.csv
Names,Time,Stack TC,Smoke TC,Exh Press,Smoke Comp,Smoke Meas,CO Meter,CO2 Meter,O2 Meter,Sample Mass,Ext Coeff,Start Test,Flame Verif
Chan Gain,,500,500,1,1,1,1,1,1,1,1,1.0,1.0
Offset,,0,0,0.139139,0,0,0,0,0,0,0,0.0,0.0
Gain,,1,1,25.011,13.0826,14.7555,1,1,1,1.00088,1.03743,1.0,1.0
Units,sec,C,C,Pa,%,%,%,%,%,g,/m,,
Baseline,,51.7087,53.1017,137.478,98.3966,100.185,0.00073906,0.0500585,20.9823,-445.838,-0.163831,,
23,5.5,50.1058,51.004,133.445,98.2136,99.6402,0.00181054,0.0801984,20.9276,79.5901,-0.131243,0.0,0.0
46,11.25,53.4716,51.9866,120.245,98.1106,98.5447,0.00324846,0.304297,20.6601,78.9395,-0.0401761,0.0,1.0
69,17,58.8609,56.7926,122.665,98.0036,97.4955,0.00394466,0.410793,20.5516,78.2089,0.0473039,0.0,0.0
92,22.75,63.0156,60.333,123.507,97.9457,96.7367,0.00407905,0.422958,20.5463,77.5783,0.113027,0.0,0.0
115,28.5,65.7926,63.1633,122.196,97.8283,96.5764,0.00409612,0.415603,20.5558,76.9277,0.117207,0.0,0.0
138,34.25,67.7079,65.7294,125.397,97.7365,97.0992,0.00415587,0.401853,20.5764,76.2371,0.0595318,0.0,0.0
161,40,69.2394,68.2197,124.399,97.6299,96.8304,0.00384474,0.387718,20.594,75.5565,0.0748308,0.0,0.0
184,45.75,70.765,69.3667,126.558,97.5552,97.5639,0.00372576,0.373878,20.6091,74.966,-0.000811497,0.0,0.0
207,51.5,71.0263,70.7887,126.302,97.4622,97.4797,0.00363587,0.36072,20.6267,74.4356,-0.00163554,0.0,0.0
230,57.25,71.8447,71.712,126.831,97.4087,97.6922,0.00372197,0.347205,20.6412,73.8651,-0.0264521,0.0,0.0
253,63,71.63,72.2848,128.531,97.3408,97.5774,0.00327821,0.331327,20.6584,73.3046,-0.022093,0.0,0.0
276,68.75,71.9955,73.0719,126.335,97.3129,98.0822,0.00307603,0.316613,20.6761,72.7241,-0.0716617,0.0,0.0
299,74.5,72.0593,73.8681,125.765,97.2893,98.8891,0.00272086,0.304227,20.6919,72.1235,-0.148429,0.0,0.0
322,80.25,71.4355,73.8314,129.743,97.3065,99.1332,0.00235473,0.292377,20.7057,71.6031,-0.169256,0.0,0.0
345,86,71.572,74.336,132.649,97.2849,99.6303,0.00217076,0.28353,20.7163,71.1527,-0.216795,0.0,0.0
368,91.75,71.4328,74.1454,126.207,97.2729,99.6065,0.0022418,0.274221,20.7285,70.6022,-0.215735,0.0,0.0
391,97.5,70.4927,74.2559,126.89,97.231,99.7082,0.00211106,0.267573,20.7376,70.1918,-0.228951,0.0,0.0
414,103.25,70.3547,74.0401,129.91,97.2067,99.6312,0.0023214,0.259321,20.7479,69.6413,-0.2242,0.0,0.0
437,109,69.917,73.7109,128.771,97.1823,99.4367,0.00232593,0.253364,20.7544,69.1609,-0.208695,0.0,0.0
460,114.75,69.8068,73.5185,126.717,97.1599,99.8109,0.00202807,0.248082,20.7604,68.7205,-0.24497,0.0,0.0
483,120.5,68.9503,73.3449,131.216,97.1555,99.5745,0.00199422,0.245408,20.7645,68.3102,-0.223801,0.0,0.0
506,126.25,68.9769,73.6646,133.765,97.1412,99.5529,0.0017947,0.242897,20.7673,67.9198,-0.223172,0.0,0.0
529,132,69.2379,72.74,125.078,97.1208,99.7028,0.00198167,0.244257,20.7644,67.4494,-0.238777,0.0,0.0
552,137.75,68.8309,72.9605,125.395,97.1208,98.8918,0.00179894,0.247794,20.7601,67.009,-0.164451,0.0,0.0
575,143.5,69.1442,72.5595,126.084,97.1112,100.209,0.00204311,0.255594,20.751,66.5386,-0.285715,0.0,0.0
598,149.25,69.2834,72.8385,127.532,97.104,100.173,0.00240301,0.265602,20.7386,66.1382,-0.283157,0.0,0.0
621,155,68.9674,73.5978,127.619,97.1116,99.3845,0.00255104,0.280571,20.7193,65.6578,-0.210532,0.0,0.0
644,160.75,70.2769,73.5294,128.864,97.1268,98.727,0.00199356,0.301191,20.6932,65.2074,-0.148711,0.0,0.0
667,166.5,70.441,74.1881,126.424,97.132,99.0332,0.00230764,0.32361,20.666,64.697,-0.176406,0.0,0.0
690,172.25,72.0282,75.2746,125.878,97.1248,97.3383,0.00253806,0.34805,20.6371,64.1065,-0.0199808,0.0,0.0
713,178,73.2874,75.7429,125.313,97.1372,96.938,0.0031352,0.368685,20.6108,63.576,0.0186824,0.0,0.0
736,183.75,73.7022,76.815,120.493,97.1432,95.9703,0.00338344,0.382555,20.5926,63.0055,0.110545,0.0,0.0
759,189.5,74.6842,77.2351,125.447,97.1647,96.1423,0.00330985,0.399078,20.568,62.425,0.0962676,0.0,0.0
782,195.25,76.1105,78.1348,126.216,97.1719,94.3411,0.00369856,0.411613,20.5506,61.7644,0.269051,0.0,0.0
805,201,77.1593,79.4327,124.074,97.1755,94.0295,0.00359088,0.43059,20.5276,61.1338,0.299495,0.0,0.0
828,206.75,78.2932,80.8228,123.185,97.1947,95.0944,0.0036959,0.445733,20.5122,60.4332,0.198801,0.0,0.0
851,212.5,79.5258,81.8266,122.957,97.2063,94.3911,0.00387621,0.450926,20.5086,59.7826,0.267445,0.0,0.0
874,218.25,80.1097,83.09,122.439,97.225,93.7575,0.00412797,0.440866,20.5212,59.1721,0.330491,0.0,0.0
897,224,80.17,82.9828,123.827,97.2466,93.5139,0.00400842,0.408924,20.5619,58.6316,0.356185,0.0,0.0
920,229.75,79.4473,82.8129,127.43,97.2705,93.8273,0.00400537,0.349023,20.631,58.1812,0.327979,0.0,0.0
943,235.5,77.0412,81.9154,132.278,97.2598,98.7635,0.00289785,0.255437,20.7473,57.881,-0.139624,0.0,0.0
966,241.25,74.1362,79.7819,135.058,97.2534,99.2696,0.00308345,0.171902,20.8412,57.7408,-0.186741,0.0,0.0
989,247,70.9034,77.3348,135.2,97.2725,99.3259,0.00437038,0.133185,20.8852,57.6808,-0.190105,0.0,0.0
1012,252.75,67.6826,74.9414,134.213,97.2833,99.6276,0.00572899,0.120411,20.9002,57.6608,-0.216697,0.0,0.0
1035,258.5,66.2242,72.8363,139.792,97.2929,99.9676,0.00639104,0.115553,20.8995,57.6207,-0.246803,0.0,0.0
1058,264.25,64.4203,71.0253,134.068,97.3085,99.2444,0.00657144,0.114357,20.9025,57.5407,-0.179274,0.0,0.0
1081,270,62.8453,69.7204,135.348,97.2973,99.6402,0.00668623,0.111367,20.9053,57.4306,-0.216542,0.0,0.0
1104,275.75,61.5911,68.5775,136.583,97.3252,99.1665,0.00729862,0.109924,20.9075,57.3605,-0.17056,0.0,0.0
1127,281.5,60.8951,66.6319,137.689,97.3444,98.9792,0.00740073,0.108525,20.9095,57.3105,-0.151561,0.0,0.0
1150,287.25,59.9969,66.1849,136.507,97.3831,100.07,0.00737085,0.107811,20.8891,57.2504,-0.247667,0.0,0.0
1173,293,59.3838,65.1854,135.7,97.4422,100.066,0.00777391,0.106575,20.8947,57.2104,-0.241779,0.0,0.0
1196,298.75,58.9448,64.0337,142.538,97.471,99.5736,0.00772618,0.106123,20.901,57.1703,-0.194223,0.0,0.0
1219,304.5,58.1361,62.8484,139.198,97.5045,99.6578,0.00819453,0.104491,20.9134,57.0202,-0.198786,0.0,0.0
1242,310.25,57.7967,62.1866,137.005,97.53,99.1764,0.00784652,0.104353,20.9158,57.0002,-0.152338,0.0,0.0
1265,316,57.3043,61.4347,134.941,97.5456,99.6974,0.00817661,0.103798,20.9142,56.9902,-0.198567,0.0,0.0
1288,321.75,57.6055,61.3515,134.856,97.5328,100.347,0.00811098,0.103406,20.917,56.9702,-0.258877,0.0,0.0
1311,327.5,56.8858,60.8883,132.337,97.5121,99.9158,0.00809385,0.101718,20.9197,56.9301,-0.221608,0.0,0.0
1334,333.25,56.8146,60.4903,132.501,97.5197,99.4538,0.00801281,0.101579,20.92,56.83,-0.178724,0.0,0.0
1357,339,56.0875,59.3755,133.558,97.475,99.869,0.00828216,0.101351,20.921,56.75,-0.220808,0.0,0.0
1380,344.75,56.3215,59.5642,138.527,97.4462,99.3966,0.00822414,0.100024,20.924,56.6899,-0.180347,0.0,0.0
1403,350.5,56.038,58.8155,135.537,97.4558,100.036,0.00858721,0.0995692,20.9234,56.6899,-0.237767,0.0,0.0
1426,356.25,55.9365,58.558,137.756,97.4777,99.6461,0.0082584,0.0989633,20.9234,56.6599,-0.200214,0.0,0.0
1449,362,55.8818,57.9029,134.683,97.4678,99.2264,0.00810867,0.0986781,20.9234,56.5798,-0.162736,0.0,0.0
1472,367.75,55.8234,57.861,136.092,97.4845,99.7145,0.00856007,0.0977763,20.9259,56.5198,-0.205828,0.0,0.0
1495,373.5,55.4065,58.0618,134.145,97.4706,99.4714,0.00857796,0.0966515,20.9266,56.4397,-0.184914,0.0,0.0
1518,379.25,55.6508,57.8244,142.819,97.4614,100.198,0.00844739,0.0965921,20.9273,56.3997,-0.25198,0.0,0.0
1541,385,55.5196,57.2029,137.647,97.4474,99.2917,0.00805444,0.0954954,20.9285,56.3596,-0.170624,0.0,0.0
1564,390.75,55.7566,57.1652,138.785,97.4302,99.67,0.00791137,0.0944602,20.9296,56.3897,-0.206829,0.0,0.0
1587,396.5,55.2668,56.9759,136.766,97.4155,99.6866,0.00831555,0.0937145,20.9302,56.3396,-0.20973,0.0,0.0
1610,402.25,55.0862,56.4642,135.366,97.4446,99.71,0.00863522,0.0937257,20.9291,56.2595,-0.209145,0.0,0.0
1633,408,54.4352,56.784,139.049,97.4446,99.23,0.00831247,0.093354,20.9303,56.1795,-0.165229,0.0,0.0
1656,413.75,54.252,56.3805,135.36,97.443,100.229,0.008463,0.0932104,20.9304,56.1595,-0.256517,0.0,0.0
1679,419.5,54.1049,56.3933,136.244,97.4398,99.828,0.00841549,0.0925876,20.9301,56.1795,-0.220354,0.0,0.0
1702,425.25,54.3925,56.0745,136.39,97.4406,99.5691,0.00803319,0.0913557,20.9321,56.0994,-0.196646,0.0,0.0
1725,431,52.7389,54.1345,135.048,97.4286,99.5502,0.00789616,0.0909197,20.9324,56.0894,-0.196035,0.0,0.0
1748,436.75,52.6777,54.3198,137.231,97.4087,99.2134,0.00798116,0.0911599,20.9324,55.9693,-0.167058,0.0,0.0
1771,442.5,52.3865,54.3381,137.115,97.3987,99.7906,0.00820925,0.0910922,20.9297,55.9192,-0.220788,0.0,0.0
1794,448.25,52.1863,54.2413,136.519,97.3775,99.5777,0.00750081,0.0899301,20.9327,55.9092,-0.203321,0.0,0.0
1817,454,52.7893,53.9952,136.029,97.3727,98.8207,0.00776925,0.0901992,20.9315,55.9192,-0.134327,0.0,0.0
1840,459.75,51.9535,54.0493,134.261,97.3699,99.6461,0.00777352,0.0894091,20.9314,55.8892,-0.210283,0.0,0.0
1863,465.5,52.5533,53.8177,136.795,97.3352,99.8947,0.00761601,0.089513,20.9337,55.8192,-0.236202,0.0,0.0
1886,471.25,52.2182,53.7235,137.655,97.3244,99.7199,0.00732645,0.0892517,20.9349,55.7191,-0.22128,0.0,0.0
1909,477,52.2187,53.6643,138.595,97.2981,98.5861,0.00773108,0.0888535,20.9351,55.7191,-0.119677,0.0,0.0
1932,482.75,52.3534,54.2035,137.386,97.3021,99.7055,0.007437,0.0883076,20.9353,55.6991,-0.222055,0.0,0.0
1955,488.5,52.0928,53.5013,135.769,97.32,99.5786,0.00728166,0.0880619,20.9381,55.7091,-0.208777,0.0,0.0
1978,494.25,51.8727,53.4996,136.134,97.3372,99.2359,0.00715281,0.0876074,20.9381,55.679,-0.175801,0.0,0.0
2001,500,52.0224,53.4668,134.742,97.338,99.2597,0.00705143,0.0875716,20.9384,55.639,-0.177915,0.0,0.0
2024,505.75,52.045,53.1696,135.11,97.3364,99.4871,0.00681281,0.0868225,20.9384,55.5189,-0.198889,0.0,0.0
2047,511.5,52.3188,53.6687,131.99,97.3672,99.9883,0.00655959,0.086919,20.937,55.4989,-0.241745,0.0,0.0
2070,517.25,52.2852,53.804,136.784,97.3715,100.372,0.00694258,0.0866411,20.9389,55.4789,-0.276227,0.0,0.0
2093,523,51.9888,53.7127,139.194,97.3819,99.0422,0.0067846,0.0861531,20.9391,55.5389,-0.153847,0.0,0.0
2116,528.75,51.9853,53.4029,136.714,97.3684,100.094,0.00648013,0.0855137,20.9391,55.4388,-0.251259,0.0,0.0
2139,534.5,52.047,53.478,137.773,97.3496,99.6754,0.00616041,0.0852121,20.9403,55.2787,-0.214858,0.0,0.0
2162,540.25,51.8796,53.5753,133.887,97.3157,99.9564,,,,55.2887,-0.24365,0.0,0.0
2185,546,51.7404,52.8952,135.732,97.2817,99.5421,,,,55.2487,-0.209028,0.0,0.0
2192,547.75,51.7606,53.7493,137.834,97.2765,99.0508,,,,55.3688,-0.164489,0.0,0.0

File: FDNY_LDF_Cone_HF75Scalar_220913_R1.csv
LABORATORY,FSRI
TEST IDENT,FDNY_LDF_HF75_R1
OPERATOR,Dow
MATERIAL,FDNY Low Density Fiberboard
ORIENTATION,Horizontal
HEAT FLUX,75
SURF AREA,0.01
C FACTOR,0.0415136
SPEC HOLDER DIFF,-566
SPECIMEN MASS,26.43
SCAN TIME,0.25
O2 DELAY TIME,11
CO DELAY TIME,11
CO2 DELAY TIME,8
FLOW FACTOR,1
SCAN COUNT,1273
TIME TO IGN,2.75
END OF TEST SCAN,793
END OF TEST TIME,198.25
TEST STATUS,1
PRE TEST CMT,Dimensions: 98.87 x 99.21 x 12.07 mm; with tie wires
POST TEST CMT,Sample shrank. See post test pictures.

File: FDNY_LDF_Cone_HF75Scalar_220913_R3.csv
LABORATORY,FSRI
TEST IDENT,FDNY_LDF_HF75_R3
OPERATOR,Dow
MATERIAL,FDNY Low Density Fiberboard
ORIENTATION,Horizontal
HEAT FLUX,75
SURF AREA,0.01
C FACTOR,0.0415136
SPEC HOLDER DIFF,-566
SPECIMEN MASS,26.59
SCAN TIME,0.25
O2 DELAY TIME,11
CO DELAY TIME,11
CO2 DELAY TIME,8
FLOW FACTOR,1
SCAN COUNT,1233
TIME TO IGN,3
END OF TEST SCAN,753
END OF TEST TIME,188.25
TEST STATUS,1
PRE TEST CMT,Dimensions: 99.09 x 99.28 x 12.11 mm; with tie wires
POST TEST CMT,Sample shrank. See post test pictures.

File: FDNY_LDF_Cone_HF75Scan_220913_R1.csv
Names,Time,Stack TC,Smoke TC,Exh Press,Smoke Comp,Smoke Meas,CO Meter,CO2 Meter,O2 Meter,Sample Mass,Ext Coeff,Start Test,Flame Verif
Chan Gain,,500,500,1,1,1,1,1,1,1,1,1.0,1.0
Offset,,0,0,0.139139,0,0,0,0,0,0,0,0.0,0.0
Gain,,1,1,25.011,13.0826,14.7555,1,1,1,1.00088,1.03743,1.0,1.0
Units,sec,C,C,Pa,%,%,%,%,%,g,/m,,
Baseline,,60.7714,62.8954,133.649,98.5607,100.984,0.00109671,0.0509063,20.9757,-448.732,-0.220953,,
13,3,59.1165,60.5286,119.312,98.9749,100.236,0.00305896,0.120622,20.8897,76.6575,-0.115216,0.0,1.0
26,6.25,62.1091,62.8596,116.244,98.9917,96.2576,0.00423571,0.318375,20.5988,76.087,0.254885,0.0,1.0
39,9.5,66.201,64.699,112.1,98.9997,94.2852,0.00530214,0.509006,20.3956,75.5165,0.444022,0.0,0.0
52,12.75,71.1335,68.2118,115.121,99.0248,94.2767,0.00590062,0.594922,20.3219,74.956,0.447159,0.0,0.0
65,16,75.2217,71.8113,113.731,99.034,93.5391,0.00628811,0.612546,20.3137,74.3755,0.519482,0.0,0.0
78,19.25,78.4187,74.8663,114.521,99.0384,93.341,0.00657796,0.600612,20.3288,73.765,0.539182,0.0,0.0
91,22.5,80.6496,77.8212,114.742,99.0452,94.396,0.00653404,0.5835,20.3525,73.3846,0.437519,0.0,0.0
104,25.75,82.8924,80.0516,119.848,99.0688,93.4887,0.00645532,0.560337,20.3832,72.9242,0.527581,0.0,0.0
117,29,84.0629,81.5961,116.59,99.0568,94.7662,0.00637764,0.541828,20.4051,72.3837,0.402968,0.0,0.0
130,32.25,84.8407,83.1849,118.333,99.046,94.392,0.006356,0.526405,20.4209,71.9033,0.437982,0.0,0.0
143,35.5,86.5405,84.8354,118.696,99.0628,94.5086,0.0062496,0.510722,20.4421,71.533,0.428287,0.0,0.0
156,38.75,86.4817,85.6923,118.211,99.0476,94.5851,0.00616375,0.493073,20.4632,71.0526,0.419525,0.0,0.0
169,42,87.0231,87.0187,117.116,99.032,95.1115,0.00612576,0.479388,20.4813,70.6122,0.367588,0.0,0.0
182,45.25,87.3832,87.6194,116.349,99.0201,96.222,0.0056903,0.464719,20.4979,70.2719,0.260855,0.0,0.0
195,48.5,88.2191,88.7794,118.268,99.0089,96.5746,0.0051853,0.448759,20.5194,69.7514,0.226542,0.0,0.0
208,51.75,88.5544,89.0941,116.463,98.9817,96.68,0.00486365,0.434241,20.5336,69.311,0.214122,0.0,0.0
221,55,88.3133,89.5042,114.501,98.9522,97.1825,0.00467222,0.424296,20.5452,68.8907,0.164225,0.0,0.0
234,58.25,88.2161,90.6096,119.777,98.9166,97.7485,0.00441995,0.412225,20.5596,68.5404,0.108106,0.0,0.0
247,61.5,88.071,90.2665,119.829,98.8735,98.2925,0.00405882,0.401085,20.5752,68.09,0.0536367,0.0,0.0
260,64.75,87.9657,90.7714,120.027,98.8284,98.1705,0.00392754,0.38989,20.5872,67.7096,0.0607884,0.0,0.0
273,68,87.9555,91.5119,120.948,98.7877,99.1899,0.00370744,0.380252,20.6004,67.2993,-0.0369802,0.0,0.0
286,71.25,87.9078,91.5772,120.58,98.707,99.0229,0.0034983,0.373091,20.6091,66.8789,-0.0290718,0.0,0.0
299,74.5,88.1608,91.2347,122.27,98.6416,99.4331,0.00355432,0.365311,20.619,66.4285,-0.0727333,0.0,0.0
312,77.75,87.6424,91.7928,121.974,98.5637,98.4915,0.00329266,0.360177,20.6224,66.2483,0.00666715,0.0,0.0
325,81,87.5178,91.8486,118.574,98.4871,99.0179,0.00314239,0.35745,20.6244,65.7779,-0.0489209,0.0,0.0
338,84.25,87.1114,91.4351,121.186,98.3936,99.0125,0.00309708,0.350758,20.6335,65.3776,-0.0570616,0.0,0.0
351,87.5,87.0137,91.4694,121.833,98.3014,99.0922,0.00300186,0.344689,20.6404,65.0673,-0.0729181,0.0,0.0
364,90.75,86.7685,91.5968,118.041,98.2439,99.2503,0.00278978,0.342552,20.6422,64.7971,-0.0927464,0.0,0.0
377,94,86.539,91.5111,124.735,98.1936,99.5461,0.00275471,0.343028,20.6427,64.3567,-0.124492,0.0,0.0
390,97.25,86.3003,91.6538,121.352,98.1313,99.1935,0.00297112,0.343641,20.6408,63.9363,-0.0979773,0.0,0.0
403,100.5,86.3109,91.4723,120.302,98.0818,100.389,0.00296973,0.34716,20.6353,63.6661,-0.211556,0.0,0.0
416,103.75,86.2431,91.7389,119.785,98.0463,99.8222,0.0029467,0.35371,20.6296,63.2757,-0.163356,0.0,0.0
429,107,86.5501,91.4914,122.144,97.968,98.6924,0.0030148,0.361427,20.6208,62.8954,-0.0670356,0.0,0.0
442,110.25,86.4513,91.6728,117.954,97.9313,99.0026,0.00302124,0.372828,20.6042,62.415,-0.0990114,0.0,0.0
455,113.5,87.0207,92.0498,119.252,97.8926,98.0025,0.00331367,0.387144,20.5847,62.1848,-0.0102124,0.0,0.0
468,116.75,87.2344,92.4965,119.274,97.8602,97.9498,0.00364257,0.402236,20.5668,61.7744,-0.00832616,0.0,0.0
481,120,88.3515,92.8112,118.892,97.8419,98.2137,0.00379375,0.41983,20.5432,61.3941,-0.0345172,0.0,0.0
494,123.25,88.866,93.1833,122.096,97.8379,97.1465,0.00395722,0.436268,20.5243,60.9937,0.0645377,0.0,0.0
507,126.5,89.1766,93.9337,117.652,97.8035,96.1914,0.0041358,0.451991,20.5039,60.5533,0.151256,0.0,0.0
520,129.75,89.8273,94.2779,114.351,97.7608,95.2484,0.0042801,0.464652,20.4863,60.173,0.236927,0.0,0.0
533,133,90.606,95.2134,114.602,97.7508,93.6611,0.00415049,0.474361,20.47,59.6826,0.388933,0.0,0.0
546,136.25,91.3631,95.4807,117.367,97.7397,92.0243,0.00438439,0.480202,20.4596,59.3923,0.548338,0.0,0.0
559,139.5,91.5467,96.1058,116.18,97.7149,92.0063,0.00468921,0.486446,20.4478,58.9819,0.547814,0.0,0.0
572,142.75,92.4008,96.7825,115.266,97.6898,91.1989,0.0047943,0.495255,20.4363,58.5916,0.625683,0.0,0.0
585,146,92.5455,97.7413,112.72,97.6866,89.9497,0.00500126,0.504848,20.4209,58.1712,0.750892,0.0,0.0
598,149.25,93.1704,98.1551,112.158,97.6806,89.8691,0.00516896,0.515634,20.41,57.7909,0.758493,0.0,0.0
611,152.5,93.9002,97.9772,119.684,97.6662,89.503,0.0051904,0.526877,20.3994,57.2804,0.794302,0.0,0.0
624,155.75,94.2869,98.5972,114.942,97.6542,90.8823,0.00536406,0.534098,20.3952,56.8401,0.654015,0.0,0.0
637,159,94.1511,98.9117,118.271,97.6362,91.0471,0.0060802,0.535486,20.3962,56.4397,0.635853,0.0,0.0
650,162.25,94.282,99.0808,118.375,97.6163,90.3221,0.00674774,0.532759,20.4021,55.9693,0.706746,0.0,0.0
663,165.5,93.5714,99.0404,118.321,97.6019,89.3792,0.00691782,0.516319,20.4259,55.5589,0.800909,0.0,0.0
676,168.75,94.0137,99.3875,119.32,97.5716,90.2739,0.00659135,0.488042,20.4594,55.2286,0.707433,0.0,0.0
689,172,92.9856,99.0851,124.291,97.5201,92.317,0.00569662,0.442262,20.5067,54.9084,0.498971,0.0,0.0
702,175.25,92.2175,98.412,120.5,97.4789,94.6063,0.00422642,0.369101,20.6109,54.7182,0.27221,0.0,0.0
715,178.5,90.3332,96.8911,125.373,97.4494,100.907,0.00302514,0.275698,20.7241,54.6381,-0.317327,0.0,0.0
728,181.75,87.7744,95.3855,128.092,97.4067,100.488,0.00241536,0.196343,20.8183,54.468,-0.28339,0.0,0.0
741,185,85.3532,94.4613,132.437,97.3927,101.031,0.00215722,0.152146,20.8636,54.498,-0.333743,0.0,0.0
754,188.25,83.8748,92.2585,128.423,97.368,100.157,0.00204888,0.131795,20.8839,54.478,-0.256986,0.0,0.0
767,191.5,81.7882,90.6557,129.535,97.3264,99.6515,0.00207969,0.122069,20.8928,54.448,-0.214844,0.0,0.0
780,194.75,80.4163,88.9753,129.584,97.2897,100.501,0.00210302,0.117854,20.8987,54.3979,-0.295548,0.0,0.0
793,198,79.2795,87.7836,129.355,97.2653,100.341,0.00220624,0.115003,20.9006,54.3679,-0.28334,0.0,0.0
806,201.25,75.9794,85.1453,132.06,97.2594,99.3741,0.00230189,0.112935,20.9028,54.4279,-0.195752,0.0,0.0
819,204.5,75.161,83.9521,132.251,97.2242,100.673,0.00221436,0.113241,20.9019,54.2878,-0.317237,0.0,0.0
832,207.75,74.3173,83.0934,130.4,97.1963,99.574,0.00209507,0.113789,20.9023,54.2678,-0.219946,0.0,0.0
845,211,73.2289,81.8896,128.57,97.1803,99.8496,0.00205739,0.113042,20.9039,54.2578,-0.246593,0.0,0.0
858,214.25,72.3499,81.3631,131.749,97.1671,100.301,0.00209245,0.112108,20.9054,54.1777,-0.288899,0.0,0.0
871,217.5,71.743,79.9432,132.015,97.1528,99.7636,0.00210876,0.112458,20.9041,54.1277,-0.241332,0.0,0.0
884,220.75,70.9035,79.2376,128.897,97.142,99.6141,0.00212034,0.11244,20.9037,54.0176,-0.228694,0.0,0.0
897,224,71.112,77.7183,126.648,97.1376,100.428,0.00233086,0.112261,20.9045,54.0776,-0.303179,0.0,0.0
910,227.25,70.6204,77.865,133.039,97.112,100.268,0.00250759,0.1112,20.9072,54.0376,-0.290995,0.0,0.0
923,230.5,69.6041,76.8596,127.139,97.1156,99.6772,0.00252943,0.111723,20.906,54.0276,-0.236921,0.0,0.0
936,233.75,69.1567,76.2329,131.671,97.1084,100.317,0.00244867,0.113122,20.9052,54.0476,-0.295827,0.0,0.0
949,237,69.1281,75.894,128.119,97.0949,99.4259,0.00228968,0.112383,20.9079,53.9675,-0.215896,0.0,0.0
962,240.25,68.5093,75.2082,131.462,97.1044,100.244,0.00224135,0.11129,20.9096,53.9075,-0.28954,0.0,0.0
975,243.5,68.532,74.782,129.527,97.0993,100.126,0.00241195,0.110505,20.9096,53.9175,-0.27935,0.0,0.0
988,246.75,68.2152,74.3602,128.125,97.1096,100.326,0.00251221,0.111424,20.9077,53.9275,-0.29649,0.0,0.0
1001,250,68.2699,73.4768,130.044,97.1248,99.2926,0.00250272,0.111581,20.9072,53.8074,-0.200883,0.0,0.0
1014,253.25,67.6346,73.3767,127.451,97.1132,99.1733,0.00248697,0.111732,20.9075,53.8274,-0.191024,0.0,0.0
1027,256.5,67.6402,73.123,134.274,97.1384,99.6002,0.00265578,0.11097,20.9084,53.8274,-0.227756,0.0,0.0
1040,259.75,67.3688,71.9638,129.79,97.1384,100.119,0.00274375,0.111269,20.9074,53.7273,-0.275029,0.0,0.0
1053,263,67.093,72.2666,131.413,97.1524,99.4016,0.00265706,0.111459,20.9071,53.7273,-0.208284,0.0,0.0
1066,266.25,66.7016,71.8794,129.502,97.1607,100.805,0.00265154,0.11153,20.9088,53.7173,-0.335059,0.0,0.0
1079,269.5,66.6858,71.3475,127.987,97.1859,100.757,0.00265731,0.111094,20.9106,53.6673,-0.328393,0.0,0.0
1092,272.75,66.577,70.4617,128.786,97.1911,99.6164,0.00246964,0.110755,20.9115,53.6272,-0.224301,0.0,0.0
1105,276,66.8798,70.7254,135.463,97.2418,99.8649,0.00260967,0.109989,20.9137,53.6072,-0.242233,0.0,0.0
1118,279.25,66.3925,70.5109,134.956,97.2614,100.351,0.00277742,0.110068,20.9136,53.6472,-0.284571,0.0,0.0
1131,282.5,65.7248,70.0677,131.034,97.2929,100.105,0.0026662,0.110361,20.913,53.5772,-0.259296,0.0,0.0
1144,285.75,65.795,69.7541,128.603,97.3396,100.532,0.00258123,0.110515,20.9123,53.5372,-0.293653,0.0,0.0
1157,289,65.7222,69.7286,133.871,97.3747,100.851,0.00267143,0.110378,20.9112,53.5772,-0.319183,0.0,0.0
1170,292.25,66.1128,69.9855,127.964,97.4111,101.061,0.00263518,0.109999,20.9112,53.5171,-0.334784,0.0,0.0
1183,295.5,66.0574,69.4667,131.883,97.4302,100.142,0.00279322,0.109069,20.9141,53.4571,-0.249815,0.0,0.0
1196,298.75,65.3331,69.2638,132.372,97.4801,100.016,0.00299999,0.109367,20.915,53.397,-0.233731,0.0,0.0
1209,302,65.6968,69.3904,129.016,97.5209,100.927,0.00303315,0.109463,20.9143,53.4271,-0.312442,0.0,0.0
1222,305.25,65.5069,68.4965,130.824,97.5644,99.9262,0.0030499,0.110138,20.9127,53.347,-0.217672,0.0,0.0
1235,308.5,65.1238,68.2989,131.075,97.6003,100.309,,0.109626,,53.3069,-0.249152,0.0,0.0
1248,311.75,65.5906,68.611,130.413,97.671,100.288,,,,53.387,-0.240605,0.0,0.0
1261,315,64.9355,68.5172,133.325,97.7257,100.938,,,,53.3069,-0.294283,0.0,0.0
1273,318,65.232,68.0701,133.434,97.7636,100.847,,,,53.2069,-0.282547,0.0,0.0