Folder: fsri_materials_database/01_Data/FDNY_LDF/MCC

Note: 01_Data/README.md
# Materials and Products Database
## 01_Data

Raw data generated from each apparatus are included here in plain-text format. The data is organized first by material, next by the short name of test apparatus used, and where applicable additional filtering by test settings.

### material.json

Each material directory contains a json file of the same name as the material. This file links the data stored in the repository as well as data and graphs produced by the accompanying scripts (__02_Scripts__) to the respective landing page for the material on the front-end website.

File: FDNY_LDF_MCC_30K_min_211207_R1.txt
Sample ID:	C:\MCC\MCC Cal\Test\FDNY_LDF_MCC_30K_min_211207_R1.txt
Sample Weight (mg):	4.05
Heating Rate (C/s):	0.5
Combustor Temp (C):	900
N2 Flow Rate (cc/min):	80
O2 Flow Rate (cc/min):	20
Calibration File:	C:\MCC\MCC Cal\Coeff1 JN10440_30_210304.txt.txt
T Correction Coefficients:	0	1.024463	0
Time Shift (s):	14
*
Time (s)	Temperature (C)	N2 flow rate (cc/min)	O2 flow rate (cc/min)	Flow Rate (cc/min)	Oxygen (%)	HRR (W/g)	Heating rate (C/s)
0.000	112.554	80.013	19.993	103.053	20.171	-0.329	0.002
8.000	112.564	79.993	19.994	103.058	20.165	0.147	-0.003
16.000	112.503	79.994	19.994	103.052	20.161	0.454	-0.032
24.000	112.532	79.989	19.995	103.113	20.159	0.615	0.014
32.000	112.870	79.997	19.994	103.186	20.145	1.759	0.088
40.000	113.707	79.996	19.994	103.246	20.128	3.090	0.140
48.000	114.915	80.006	19.993	103.254	20.127	3.192	0.168
56.000	116.668	80.009	19.992	103.266	20.121	3.632	0.228
64.001	118.770	80.003	19.993	103.264	20.121	3.610	0.257
72.000	121.145	80.004	19.993	103.263	20.117	3.978	0.314
80.000	123.705	80.010	19.993	103.291	20.120	3.736	0.356
88.000	126.464	80.012	19.994	103.286	20.117	3.990	0.346
96.000	129.525	79.998	19.994	103.289	20.117	3.988	0.388
104.000	132.596	79.996	19.995	103.282	20.114	4.193	0.403
112.000	135.848	79.994	19.996	103.282	20.115	4.092	0.403
120.000	139.290	80.001	19.992	103.300	20.110	4.482	0.459
128.000	142.740	80.002	19.994	103.296	20.112	4.328	0.424
136.000	146.383	79.985	19.996	103.293	20.111	4.449	0.450
144.000	150.209	80.007	19.994	103.292	20.104	4.989	0.469
152.000	153.934	80.011	19.994	103.287	20.108	4.640	0.469
160.000	157.799	80.009	19.992	103.290	20.103	5.097	0.497
168.000	161.740	80.006	19.995	103.278	20.106	4.854	0.495
176.000	165.797	79.998	19.995	103.266	20.108	4.704	0.491
184.000	169.845	79.995	19.997	103.274	20.106	4.790	0.498
192.000	173.903	80.003	19.996	103.258	20.107	4.771	0.481
200.000	177.913	79.999	19.996	103.263	20.102	5.165	0.503
208.000	182.019	80.003	19.994	103.252	20.102	5.173	0.492
216.000	186.080	80.001	19.996	103.250	20.102	5.136	0.518
224.000	190.169	79.994	19.995	103.249	20.101	5.208	0.539
232.000	194.098	80.002	19.996	103.238	20.098	5.457	0.482
240.000	198.053	80.008	19.994	103.246	20.093	5.886	0.510
248.000	201.966	80.007	19.993	103.249	20.092	5.949	0.470
256.000	205.930	80.004	19.994	103.249	20.091	6.026	0.478
264.000	209.917	80.005	19.994	103.242	20.090	6.081	0.477
272.000	213.852	80.004	19.994	103.238	20.091	6.004	0.491
280.000	217.858	80.001	19.994	103.228	20.085	6.455	0.505
288.000	221.840	79.998	19.996	103.231	20.086	6.403	0.496
296.000	225.842	80.004	19.996	103.246	20.085	6.528	0.529
304.000	229.876	80.001	19.995	103.244	20.079	6.969	0.495
312.000	233.832	80.003	19.994	103.242	20.071	7.574	0.504
320.000	237.812	80.003	19.994	103.242	20.066	7.981	0.497
328.000	241.773	80.002	19.994	103.237	20.057	8.735	0.479
336.000	245.816	80.004	19.993	103.237	20.052	9.081	0.505
344.000	249.800	80.005	19.993	103.245	20.041	10.029	0.481
352.000	253.872	80.000	19.995	103.245	20.031	10.784	0.483
360.000	257.894	80.002	19.995	103.246	20.018	11.863	0.545
368.000	261.892	80.002	19.995	103.250	20.003	13.007	0.472
376.000	265.884	79.997	19.995	103.252	19.983	14.590	0.495
384.000	269.887	80.003	19.995	103.251	19.966	15.979	0.495
392.000	273.898	80.005	19.993	103.258	19.949	17.312	0.509
400.000	277.934	80.007	19.991	103.259	19.928	18.977	0.521
408.000	281.934	80.004	19.993	103.266	19.908	20.578	0.489
416.001	285.989	80.008	19.996	103.286	19.883	22.602	0.537
424.000	289.970	80.006	19.993	103.287	19.858	24.564	0.498
432.000	294.047	80.003	19.989	103.290	19.832	26.623	0.546
440.000	298.067	80.006	19.992	103.308	19.805	28.768	0.534
448.000	302.058	80.001	19.997	103.326	19.772	31.386	0.484
456.000	306.058	80.003	19.993	103.331	19.738	34.108	0.503
464.000	310.124	80.002	19.995	103.336	19.701	37.043	0.512
472.000	314.193	80.002	19.996	103.349	19.662	40.178	0.520
480.000	318.232	80.004	19.999	103.361	19.621	43.418	0.527
488.000	322.203	80.004	19.993	103.368	19.592	45.802	0.484
496.000	326.252	80.002	19.996	103.368	19.558	48.496	0.517
504.000	330.329	80.007	19.991	103.371	19.533	50.469	0.499
512.000	334.371	80.002	19.996	103.372	19.513	52.035	0.510
520.000	338.423	80.002	19.991	103.383	19.496	53.377	0.498
528.000	342.488	80.003	19.993	103.385	19.482	54.562	0.504
536.000	346.558	79.997	19.998	103.381	19.463	56.046	0.524
544.000	350.597	80.011	19.990	103.398	19.433	58.425	0.507
552.000	354.651	79.998	19.999	103.404	19.399	61.152	0.528
560.000	358.691	80.006	19.993	103.408	19.356	64.586	0.498
568.000	362.770	80.003	19.999	103.426	19.309	68.311	0.500
576.000	366.771	80.004	19.997	103.444	19.257	72.478	0.491
584.000	370.814	80.005	19.990	103.448	19.221	75.318	0.475
592.000	374.924	80.003	19.989	103.444	19.215	75.817	0.515
600.000	378.971	80.005	19.993	103.406	19.242	73.605	0.538
608.000	383.014	80.000	19.998	103.359	19.323	67.130	0.469
616.000	387.180	80.004	19.996	103.299	19.448	57.179	0.556
624.000	391.189	80.004	19.993	103.238	19.605	44.675	0.464
632.000	395.373	79.999	19.996	103.187	19.766	31.868	0.508
640.000	399.456	80.002	19.995	103.171	19.887	22.216	0.547
648.000	403.574	80.000	20.002	103.173	19.966	15.916	0.530
656.000	407.629	80.007	19.993	103.162	20.003	13.013	0.534
664.000	411.701	80.004	19.994	103.168	20.019	11.769	0.495
672.000	415.774	80.001	19.999	103.166	20.025	11.242	0.509
680.000	419.852	80.004	19.995	103.162	20.034	10.549	0.507
688.000	423.940	80.006	19.992	103.168	20.035	10.437	0.544
696.000	428.052	80.005	19.993	103.160	20.041	9.949	0.496
704.000	432.068	80.000	19.995	103.157	20.042	9.897	0.485
712.000	436.190	80.001	19.994	103.156	20.045	9.688	0.505
720.000	440.194	80.001	19.994	103.155	20.052	9.104	0.491
728.000	444.253	80.004	19.993	103.147	20.054	8.917	0.533
736.000	448.343	80.002	19.995	103.135	20.059	8.563	0.493
744.000	452.414	80.005	19.994	103.152	20.067	7.952	0.509
752.000	456.543	80.005	19.994	103.132	20.068	7.810	0.527
760.000	460.656	80.003	19.995	103.138	20.076	7.243	0.502
768.000	464.727	80.001	19.993	103.135	20.078	7.005	0.505
776.001	468.844	80.000	19.992	103.136	20.085	6.475	0.526
784.000	472.922	80.002	19.994	103.142	20.092	5.901	0.528
792.000	477.098	80.002	19.994	103.132	20.096	5.633	0.544
800.000	481.223	80.003	19.995	103.135	20.096	5.615	0.515
808.000	485.261	80.005	19.993	103.132	20.103	5.057	0.512
816.000	489.352	80.002	19.994	103.132	20.103	5.064	0.512
824.000	493.490	80.002	19.994	103.131	20.104	4.951	0.499
832.000	497.626	80.003	19.994	103.132	20.104	4.940	0.492
840.000	501.708	80.003	19.994	103.134	20.105	4.917	0.508
848.000	505.786	80.002	19.995	103.136	20.108	4.648	0.523
856.000	509.862	80.004	19.995	103.131	20.108	4.642	0.494
864.000	513.950	80.002	19.994	103.133	20.105	4.936	0.491
872.000	518.068	80.003	19.994	103.132	20.107	4.776	0.513
880.000	522.158	80.006	19.993	103.132	20.108	4.683	0.503
888.000	526.317	80.005	19.994	103.133	20.108	4.648	0.521
896.000	530.438	80.002	19.994	103.134	20.106	4.849	0.510
904.000	534.572	80.002	19.994	103.132	20.107	4.715	0.546
912.000	538.648	80.005	19.994	103.129	20.106	4.780	0.519
920.000	542.692	80.000	19.993	103.129	20.109	4.590	0.490
928.000	546.808	80.004	19.993	103.125	20.110	4.514	0.531
936.000	550.843	80.003	19.997	103.120	20.114	4.169	0.494
944.000	555.005	80.005	19.994	103.110	20.113	4.291	0.536
952.000	559.081	80.002	19.992	103.119	20.113	4.228	0.503
960.000	563.137	80.001	19.997	103.135	20.115	4.101	0.483
968.000	567.161	80.003	19.997	103.121	20.112	4.323	0.503
976.000	571.200	80.003	19.992	103.116	20.116	4.043	0.527
984.000	575.315	80.005	19.996	103.125	20.114	4.193	0.533
992.000	579.410	80.005	19.997	103.113	20.113	4.277	0.522
1000.000	583.513	80.001	19.997	103.131	20.113	4.251	0.513
1008.000	587.538	80.006	19.994	103.123	20.109	4.615	0.491
1016.000	591.585	80.000	19.999	103.120	20.109	4.601	0.511
1024.000	595.662	80.000	19.998	103.116	20.108	4.684	0.512
1032.000	599.801	80.003	19.990	103.098	20.099	5.394	0.514
1040.001	603.989	79.995	20.002	103.110	20.096	5.589	0.537
1048.000	608.262	80.006	19.993	103.116	20.104	4.977	0.545
1056.000	612.523	80.003	19.996	103.131	20.110	4.540	0.517
1064.001	616.836	80.005	19.995	103.131	20.106	4.787	0.554
1072.001	621.065	80.009	19.992	103.130	20.107	4.731	0.534
1080.000	625.247	80.002	19.992	103.131	20.113	4.259	0.540
1088.000	629.647	80.007	19.992	103.133	20.109	4.559	0.487
1096.001	633.699	80.004	19.997	103.133	20.113	4.237	0.840
1104.000	637.762	80.004	19.993	103.134	20.109	4.578	0.547
1112.001	641.988	80.002	19.994	103.127	20.105	4.862	0.538
1120.000	646.215	80.004	19.993	103.122	20.104	4.940	0.565
1128.000	650.418	80.005	19.997	103.113	20.109	4.614	0.575
1136.000	654.562	80.004	19.995	103.105	20.108	4.654	0.512
1144.000	658.462	80.008	19.995	103.115	20.109	4.551	0.491
1152.000	662.501	80.008	19.992	103.116	20.112	4.374	0.510
1160.000	666.369	80.008	19.992	103.106	20.107	4.732	0.508
1168.000	670.231	80.006	19.991	103.107	20.109	4.613	0.511
1176.000	674.151	80.006	19.992	103.114	20.104	5.010	0.497
1184.000	678.093	79.997	19.997	103.109	20.107	4.749	0.472
1192.001	682.112	80.002	19.995	103.097	20.102	5.099	0.492
1200.000	685.985	80.003	19.989	103.108	20.102	5.171	0.226
1208.001	690.284	80.002	19.999	103.106	20.104	5.006	0.505
1216.000	694.449	80.005	19.994	103.098	20.103	5.067	0.571
1224.000	698.613	80.004	19.995	103.106	20.104	4.976	0.518
1232.000	702.858	80.005	19.994	103.102	20.102	5.104	0.508
1240.000	707.133	80.005	19.995	103.117	20.104	5.008	0.556
1248.000	711.309	80.002	19.996	103.105	20.104	4.965	0.510
1256.001	715.478	80.002	19.994	103.108	20.101	5.218	0.518
1264.000	719.612	80.004	19.995	103.113	20.106	4.815	0.532
1272.001	723.617	80.004	19.994	103.102	20.106	4.799	0.479
1280.000	727.629	80.002	19.995	103.097	20.105	4.889	0.498
1288.000	731.678	80.004	19.995	103.107	20.110	4.497	0.514
1296.000	735.707	80.003	19.994	103.100	20.108	4.645	0.497
1304.000	739.746	80.002	19.995	103.095	20.105	4.869	0.482
1311.000	743.311	80.002	19.994	103.099	20.106	4.781	0.487

File: FDNY_LDF_MCC_30K_min_211208_R2.txt
Sample ID:	C:\MCC\MCC Cal\Test\FDNY_LDF_MCC_30K_min_211208_R2.txt
Sample Weight (mg):	4.55
Heating Rate (C/s):	0.5
Combustor Temp (C):	900
N2 Flow Rate (cc/min):	80
O2 Flow Rate (cc/min):	20
Calibration File:	C:\MCC\MCC Cal\Coeff1 JN10440_30_210304.txt.txt
T Correction Coefficients:	0	1.024463	0
Time Shift (s):	14
*
Time (s)	Temperature (C)	N2 flow rate (cc/min)	O2 flow rate (cc/min)	Flow Rate (cc/min)	Oxygen (%)	HRR (W/g)	Heating rate (C/s)
0.000	108.843	80.009	19.996	103.067	20.224	-0.455	-0.004
8.000	108.874	80.007	19.994	103.088	20.217	0.061	0.005
16.000	108.947	80.008	19.995	103.175	20.209	0.635	0.021
24.001	109.267	80.006	19.995	103.207	20.197	1.505	0.057
32.001	109.991	80.007	19.995	103.254	20.187	2.162	0.126
40.000	111.185	80.010	19.994	103.296	20.176	2.953	0.152
48.000	112.873	80.006	19.996	103.311	20.174	3.097	0.254
56.000	114.917	80.005	19.996	103.319	20.174	3.135	0.277
64.000	117.297	80.005	19.995	103.327	20.172	3.262	0.292
72.000	119.971	80.004	19.995	103.327	20.173	3.219	0.353
80.001	123.011	80.005	19.997	103.329	20.170	3.436	0.422
88.000	126.093	80.005	19.995	103.336	20.173	3.213	0.380
96.000	129.442	80.008	19.995	103.337	20.171	3.307	0.422
104.000	132.958	80.007	19.996	103.335	20.167	3.584	0.454
112.000	136.533	80.006	19.994	103.332	20.169	3.442	0.446
120.001	140.274	80.007	19.993	103.341	20.171	3.307	0.481
128.000	144.163	80.009	19.995	103.329	20.171	3.344	0.509
136.000	148.095	80.006	19.995	103.329	20.168	3.514	0.507
144.000	152.111	80.005	19.996	103.323	20.168	3.555	0.508
152.000	156.057	80.006	19.994	103.322	20.171	3.365	0.499
160.000	160.064	80.004	19.994	103.315	20.169	3.453	0.478
168.000	164.137	80.004	19.995	103.305	20.168	3.542	0.534
176.000	168.150	80.007	19.996	103.312	20.169	3.503	0.500
184.000	172.142	80.007	19.994	103.288	20.167	3.608	0.503
192.000	176.121	80.006	19.997	103.294	20.166	3.673	0.463
200.000	180.095	80.009	19.994	103.288	20.166	3.718	0.496
208.000	184.097	80.009	19.993	103.281	20.160	4.128	0.499
216.001	188.087	80.007	19.994	103.289	20.158	4.261	0.487
224.000	192.010	80.006	19.994	103.282	20.157	4.345	0.490
232.000	195.972	80.004	19.994	103.284	20.156	4.382	0.475
240.000	199.911	80.006	19.996	103.284	20.152	4.669	0.482
248.000	203.883	80.006	19.995	103.280	20.152	4.671	0.510
256.000	207.850	80.007	19.996	103.275	20.145	5.190	0.505
264.000	211.793	80.005	19.996	103.269	20.142	5.386	0.509
272.000	215.764	80.006	19.994	103.273	20.140	5.492	0.507
280.000	219.736	80.006	19.996	103.270	20.136	5.775	0.509
288.000	223.740	80.007	19.994	103.268	20.138	5.632	0.504
296.000	227.724	80.004	19.995	103.274	20.135	5.862	0.485
304.000	231.841	80.006	19.994	103.277	20.127	6.468	0.488
312.000	235.800	80.006	19.994	103.276	20.118	7.077	0.511
320.000	239.750	80.005	19.994	103.269	20.109	7.748	0.496
328.000	243.755	80.005	19.995	103.270	20.100	8.338	0.504
336.001	247.752	80.006	19.997	103.273	20.090	9.087	0.529
344.000	251.774	80.006	19.996	103.282	20.080	9.806	0.541
352.000	255.777	80.003	19.995	103.280	20.068	10.632	0.505
360.000	259.785	80.005	19.996	103.292	20.051	11.831	0.501
368.000	263.781	80.008	19.992	103.295	20.031	13.274	0.508
376.000	267.744	80.006	19.993	103.299	20.013	14.515	0.494
384.000	271.747	80.006	19.995	103.305	19.994	15.887	0.501
392.000	275.766	80.006	19.993	103.321	19.971	17.524	0.484
400.000	279.758	80.006	19.994	103.326	19.945	19.341	0.464
408.000	283.816	80.005	19.994	103.332	19.919	21.184	0.512
416.000	287.862	80.005	19.995	103.335	19.893	23.060	0.507
424.000	291.825	80.005	19.995	103.352	19.862	25.208	0.462
432.000	295.848	80.006	19.994	103.347	19.832	27.360	0.475
440.000	299.903	80.007	19.995	103.362	19.798	29.747	0.491
448.001	303.936	80.007	19.996	103.372	19.757	32.685	0.515
456.000	307.947	80.006	19.995	103.390	19.718	35.470	0.493
464.000	311.970	80.007	19.994	103.404	19.679	38.199	0.484
472.000	316.010	80.005	19.994	103.407	19.639	41.043	0.460
480.000	320.020	80.007	19.996	103.410	19.597	44.012	0.511
488.000	324.059	80.004	19.995	103.430	19.564	46.420	0.503
496.000	328.032	80.005	19.996	103.449	19.538	48.199	0.519
504.000	332.034	80.007	19.994	103.442	19.518	49.625	0.526
512.000	336.040	80.005	19.995	103.437	19.500	50.928	0.504
520.000	340.075	80.006	19.996	103.445	19.478	52.504	0.494
528.000	344.140	80.006	19.994	103.445	19.453	54.282	0.514
536.000	348.192	80.007	19.995	103.458	19.418	56.772	0.510
544.000	352.302	80.004	19.994	103.480	19.378	59.611	0.518
552.000	356.398	80.006	19.995	103.489	19.324	63.443	0.516
560.000	360.455	80.005	19.994	103.496	19.271	67.221	0.501
568.000	364.512	80.004	19.995	103.526	19.226	70.435	0.502
576.000	368.578	80.006	19.995	103.522	19.198	72.363	0.501
584.000	372.663	80.008	19.995	103.490	19.204	71.913	0.487
592.000	376.783	80.007	19.995	103.455	19.251	68.558	0.512
600.000	380.887	80.007	19.995	103.407	19.358	60.905	0.515
608.000	384.916	80.008	19.996	103.354	19.503	50.664	0.510
616.001	389.026	80.006	19.994	103.300	19.670	38.827	0.485
624.000	393.077	80.003	19.995	103.257	19.826	27.727	0.493
632.000	397.175	80.005	19.995	103.228	19.947	19.206	0.474
640.000	401.256	80.005	19.996	103.212	20.023	13.834	0.518
648.000	405.296	80.006	19.994	103.212	20.057	11.381	0.508
656.000	409.291	80.006	19.995	103.211	20.072	10.362	0.487
664.000	413.345	80.006	19.994	103.213	20.079	9.850	0.468
672.000	417.362	80.007	19.995	103.208	20.084	9.495	0.494
680.000	421.378	80.007	19.995	103.213	20.086	9.377	0.483
688.000	425.491	80.009	19.994	103.211	20.090	9.027	0.524
696.000	429.486	80.007	19.994	103.211	20.093	8.871	0.512
704.000	433.602	80.006	19.996	103.209	20.094	8.781	0.486
712.000	437.706	80.005	19.995	103.202	20.104	8.051	0.496
720.000	441.744	80.006	19.995	103.198	20.112	7.512	0.515
728.000	445.833	80.006	19.995	103.211	20.119	7.039	0.497
736.000	449.899	80.003	19.995	103.208	20.127	6.469	0.507
744.000	454.088	80.008	19.994	103.202	20.129	6.298	0.497
752.001	458.133	80.007	19.994	103.194	20.134	5.960	0.581
760.000	462.146	80.007	19.995	103.206	20.145	5.179	0.512
768.000	466.200	80.008	19.994	103.183	20.150	4.847	0.524
776.000	470.284	80.006	19.991	103.200	20.151	4.765	0.519
784.000	474.312	80.007	19.994	103.189	20.153	4.585	0.493
792.000	478.330	80.006	19.996	103.175	20.158	4.230	0.535
800.001	482.319	80.006	19.995	103.189	20.159	4.150	0.529
808.000	486.343	80.004	19.994	103.181	20.164	3.853	0.523
816.000	490.372	80.004	19.994	103.184	20.164	3.798	0.542
824.001	494.426	80.006	19.996	103.185	20.168	3.509	0.527
832.000	498.460	80.006	19.994	103.198	20.168	3.535	0.502
840.000	502.549	80.007	19.995	103.197	20.168	3.530	0.483
848.001	506.648	80.010	19.995	103.183	20.170	3.377	0.514
856.000	510.745	80.007	19.993	103.183	20.167	3.613	0.528
864.000	514.903	80.007	19.995	103.199	20.168	3.531	0.539
872.000	519.049	80.006	19.995	103.203	20.170	3.394	0.527
880.000	523.166	80.006	19.995	103.187	20.167	3.617	0.518
888.000	527.344	80.006	19.995	103.188	20.170	3.402	0.495
896.000	531.493	80.006	19.995	103.178	20.174	3.105	0.495
904.000	535.689	80.007	19.996	103.183	20.171	3.322	0.540
912.000	539.773	80.005	19.997	103.185	20.172	3.234	0.504
920.000	543.942	80.006	19.996	103.180	20.171	3.321	0.543
928.000	548.074	80.007	19.995	103.226	20.174	3.126	0.521
936.000	552.173	80.009	19.994	103.187	20.172	3.233	0.500
944.000	556.326	80.006	19.995	103.182	20.173	3.218	0.536
952.001	560.358	80.006	19.994	103.179	20.174	3.146	0.514
960.000	564.392	80.004	19.996	103.178	20.174	3.087	0.509
968.000	568.503	80.005	19.995	103.187	20.174	3.112	0.523
976.001	572.553	80.005	19.995	103.188	20.172	3.249	0.513
984.000	576.722	80.006	19.996	103.193	20.175	3.040	0.500
992.000	580.762	80.006	19.995	103.185	20.174	3.093	0.486
1000.000	584.903	80.005	19.996	103.183	20.174	3.116	0.507
1008.000	588.949	80.006	19.997	103.176	20.176	2.964	0.544
1016.000	593.002	80.006	19.994	103.183	20.173	3.157	0.508
1024.000	597.188	80.005	19.994	103.188	20.172	3.286	0.511
1032.000	601.317	80.007	19.994	103.178	20.174	3.095	0.513
1040.000	605.433	80.006	19.995	103.178	20.175	3.066	0.498
1048.000	609.553	80.006	19.994	103.171	20.169	3.440	0.487
1056.000	613.688	80.006	19.995	103.180	20.172	3.290	0.489
1064.000	617.832	80.005	19.996	103.181	20.172	3.239	0.535
1072.001	621.936	80.006	19.994	103.179	20.171	3.317	0.496
1080.000	625.970	80.006	19.994	103.173	20.175	3.040	0.506
1088.000	630.042	80.006	19.993	103.177	20.173	3.212	0.500
1096.000	634.171	80.010	19.993	103.171	20.172	3.239	0.484
1104.000	638.231	80.006	19.996	103.170	20.174	3.130	0.482
1112.000	642.317	80.004	19.995	103.170	20.169	3.489	0.501
1120.001	646.414	80.007	19.995	103.171	20.171	3.321	0.507
1128.000	650.464	80.007	19.996	103.174	20.169	3.436	0.508
1136.000	654.518	80.005	19.995	103.173	20.170	3.417	0.505
1144.001	658.622	80.005	19.994	103.174	20.173	3.190	0.491
1152.000	662.660	80.009	19.995	103.172	20.170	3.372	0.457
1160.000	666.747	80.009	19.995	103.171	20.168	3.516	0.479
1168.001	670.776	80.007	19.992	103.169	20.170	3.424	0.500
1176.000	674.893	80.007	19.995	103.165	20.171	3.317	0.531
1184.000	678.983	80.007	19.995	103.173	20.170	3.407	0.533
1192.000	683.057	80.007	19.995	103.171	20.169	3.448	0.561
1200.000	687.043	80.004	19.994	103.172	20.163	3.907	0.476
1208.000	691.082	80.005	19.995	103.173	20.163	3.877	0.483
1216.000	695.132	80.006	19.994	103.172	20.165	3.766	0.520
1224.000	699.132	80.007	19.994	103.171	20.165	3.764	0.510
1232.001	703.180	80.008	19.994	103.171	20.161	4.008	0.480
1240.000	707.152	80.010	19.995	103.165	20.164	3.852	0.486
1248.000	711.179	80.008	19.993	103.168	20.161	4.065	0.475
1256.001	715.282	80.009	19.993	103.173	20.156	4.356	0.528
1264.000	719.386	80.008	19.995	103.169	20.159	4.184	0.514
1272.000	723.496	80.006	19.995	103.177	20.158	4.262	0.544
1280.000	727.531	80.006	19.994	103.172	20.155	4.485	0.469
1288.001	731.512	80.006	19.994	103.170	20.156	4.375	0.452
1296.000	735.528	80.006	19.996	103.169	20.159	4.194	0.498
1304.000	739.576	80.006	19.995	103.166	20.154	4.518	0.507
1312.000	743.565	80.006	19.994	103.173	20.153	4.627	0.523