Folder: fsri_materials_database/01_Data/FDNY_LDF/MCC (part 2)

File: FDNY_LDF_MCC_30K_min_211208_R3.txt
Sample ID:	C:\MCC\MCC Cal\Test\FDNY_LDF_MCC_30K_min_211208_R3.txt
Sample Weight (mg):	4.62
Heating Rate (C/s):	0.5
Combustor Temp (C):	900
N2 Flow Rate (cc/min):	80
O2 Flow Rate (cc/min):	20
Calibration File:	C:\MCC\MCC Cal\Coeff1 JN10440_30_210304.txt.txt
T Correction Coefficients:	0	1.024463	0
Time Shift (s):	14
*
Time (s)	Temperature (C)	N2 flow rate (cc/min)	O2 flow rate (cc/min)	Flow Rate (cc/min)	Oxygen (%)	HRR (W/g)	Heating rate (C/s)
0.000	109.452	80.012	19.995	103.084	20.054	-0.044	-0.013
8.000	109.394	80.010	19.995	103.081	20.055	-0.117	-0.026
16.000	109.462	80.008	19.994	103.110	20.055	-0.096	0.013
24.000	109.694	80.007	19.996	103.210	20.037	1.108	0.062
32.000	110.313	80.008	19.996	103.257	20.022	2.180	0.081
40.000	111.375	80.007	19.994	103.288	20.021	2.224	0.134
48.000	112.912	80.008	19.994	103.323	20.010	3.023	0.196
56.000	114.886	80.009	19.994	103.314	20.013	2.777	0.241
64.000	117.123	80.009	19.994	103.324	20.010	2.983	0.298
72.000	119.684	80.011	19.995	103.328	20.009	3.064	0.328
80.000	122.478	80.010	19.993	103.342	20.012	2.857	0.343
88.000	125.588	80.010	19.993	103.333	20.007	3.255	0.391
96.000	128.835	80.006	19.995	103.351	20.004	3.423	0.396
104.000	132.200	80.007	19.994	103.343	20.007	3.230	0.427
112.000	135.816	80.008	19.994	103.353	20.008	3.149	0.478
120.001	139.510	80.006	19.996	103.338	20.008	3.137	0.456
128.000	143.340	80.006	19.995	103.325	20.010	3.018	0.474
136.000	147.222	80.008	19.994	103.326	20.008	3.164	0.486
144.000	151.162	80.009	19.994	103.324	20.007	3.229	0.462
152.000	155.112	80.008	19.994	103.327	20.009	3.085	0.474
160.000	159.155	80.010	19.993	103.326	20.007	3.216	0.513
168.000	163.189	80.010	19.992	103.322	20.007	3.210	0.514
176.001	167.243	80.007	19.994	103.312	20.003	3.483	0.506
184.000	171.240	80.008	19.994	103.304	20.003	3.488	0.496
192.000	175.222	80.007	19.996	103.305	20.005	3.352	0.502
200.000	179.293	80.008	19.995	103.289	19.998	3.843	0.520
208.000	183.281	80.007	19.995	103.292	20.003	3.511	0.537
216.000	187.253	80.006	19.995	103.287	20.001	3.669	0.495
224.000	191.281	80.009	19.994	103.287	19.999	3.808	0.512
232.000	195.257	80.008	19.993	103.288	20.002	3.552	0.500
240.000	199.188	80.008	19.994	103.280	20.004	3.411	0.474
248.000	203.179	80.011	19.993	103.287	20.000	3.700	0.477
256.000	207.143	80.010	19.994	103.277	19.996	3.956	0.515
264.000	211.098	80.008	19.995	103.275	19.995	4.071	0.486
272.000	215.050	80.008	19.994	103.271	19.994	4.098	0.504
280.000	219.041	80.008	19.995	103.269	19.991	4.371	0.496
288.001	223.009	80.008	19.995	103.280	19.987	4.601	0.509
296.000	226.921	80.006	19.995	103.270	19.983	4.899	0.477
304.001	230.956	80.007	19.993	103.284	19.982	4.951	0.512
312.000	234.908	80.008	19.995	103.285	19.969	5.881	0.450
320.000	238.960	80.008	19.995	103.272	19.966	6.056	0.514
328.000	242.896	80.009	19.994	103.268	19.958	6.670	0.494
336.000	246.905	80.009	19.994	103.271	19.951	7.148	0.462
344.000	251.020	80.009	19.995	103.280	19.939	7.947	0.521
352.000	255.068	80.007	19.996	103.286	19.925	8.915	0.494
360.000	259.080	80.006	19.994	103.286	19.910	10.003	0.520
368.000	263.031	80.007	19.994	103.291	19.892	11.262	0.517
376.001	267.020	80.006	19.995	103.295	19.883	11.866	0.511
384.000	271.044	80.009	19.995	103.310	19.864	13.214	0.504
392.000	275.048	80.009	19.994	103.312	19.838	15.011	0.472
400.000	279.054	80.009	19.995	103.315	19.820	16.299	0.514
408.000	283.000	80.008	19.996	103.325	19.792	18.206	0.518
416.000	286.981	80.010	19.995	103.335	19.771	19.707	0.487
424.000	290.975	80.008	19.995	103.354	19.738	22.010	0.491
432.000	295.014	80.007	19.995	103.365	19.711	23.869	0.492
440.000	299.028	80.006	19.994	103.373	19.677	26.248	0.487
448.000	303.082	80.009	19.995	103.377	19.642	28.704	0.508
456.000	307.090	80.009	19.994	103.398	19.607	31.186	0.513
464.000	311.163	80.009	19.995	103.404	19.565	34.097	0.510
472.000	315.228	80.008	19.996	103.403	19.516	37.543	0.496
480.000	319.216	80.008	19.994	103.414	19.478	40.161	0.496
488.001	323.243	80.009	19.994	103.441	19.445	42.453	0.508
496.000	327.243	80.009	19.995	103.439	19.411	44.834	0.520
504.000	331.240	80.007	19.996	103.443	19.390	46.310	0.478
512.000	335.276	80.008	19.993	103.442	19.369	47.798	0.520
520.000	339.316	80.009	19.994	103.444	19.358	48.571	0.471
528.000	343.401	80.008	19.994	103.452	19.332	50.379	0.495
536.000	347.519	80.007	19.993	103.498	19.302	52.496	0.516
544.000	351.568	80.007	19.994	103.471	19.263	55.256	0.513
552.000	355.707	80.009	19.993	103.489	19.214	58.658	0.472
560.000	359.756	80.009	19.994	103.509	19.161	62.361	0.520
568.000	363.807	80.009	19.995	103.525	19.113	65.705	0.540
576.000	367.859	80.011	19.994	103.521	19.079	68.070	0.534
584.000	371.913	80.008	19.994	103.508	19.065	69.047	0.544
592.000	376.075	80.007	19.996	103.476	19.106	66.160	0.517
600.000	380.217	80.008	19.995	103.430	19.189	60.337	0.517
608.000	383.947	80.007	19.994	103.367	19.333	50.225	0.205
616.000	388.321	80.006	19.994	103.326	19.501	38.492	0.519
624.000	392.517	80.007	19.993	103.282	19.673	26.484	0.532
632.000	396.776	80.009	19.993	103.241	19.804	17.364	0.560
640.000	400.960	80.009	19.994	103.212	19.895	11.027	0.520
648.000	405.185	80.008	19.994	103.213	19.942	7.779	0.505
656.001	409.402	80.010	19.995	103.208	19.960	6.509	0.531
664.000	413.504	80.008	19.995	103.207	19.972	5.680	0.507
672.000	417.569	80.007	19.995	103.208	19.979	5.172	0.532
680.000	421.639	80.007	19.996	103.210	19.985	4.749	0.491
688.000	425.700	80.006	19.995	103.207	19.991	4.343	0.523
696.000	429.702	80.006	19.994	103.196	19.997	3.933	0.471
704.000	433.740	80.007	19.994	103.192	20.001	3.612	0.544
712.000	437.704	80.010	19.994	103.198	20.009	3.071	0.484
720.000	441.752	80.010	19.994	103.186	20.019	2.410	0.496
728.000	445.707	80.009	19.994	103.186	20.023	2.091	0.499
736.000	449.721	80.010	19.994	103.150	20.023	2.071	0.529
744.000	453.680	80.010	19.994	103.176	20.039	0.989	0.474
752.000	457.765	80.007	19.995	103.188	20.042	0.785	0.513
760.000	461.895	80.005	19.994	103.194	20.044	0.625	0.508
768.000	465.905	80.009	19.995	103.185	20.048	0.331	0.494
776.000	470.033	80.008	19.995	103.176	20.054	-0.029	0.494
784.000	474.215	80.007	19.995	103.172	20.066	-0.860	0.532
792.000	478.298	80.009	19.995	103.173	20.064	-0.765	0.525
800.000	482.392	80.009	19.994	103.190	20.070	-1.163	0.462
808.000	486.518	80.008	19.994	103.186	20.074	-1.463	0.492
816.000	490.663	80.010	19.993	103.174	20.077	-1.631	0.501
824.000	494.811	80.010	19.993	103.178	20.077	-1.692	0.537
832.001	498.910	80.007	19.993	103.186	20.083	-2.065	0.489
840.000	502.962	80.007	19.995	103.180	20.089	-2.482	0.521
848.000	507.082	80.008	19.994	103.174	20.085	-2.202	0.523
856.001	511.142	80.008	19.995	103.177	20.083	-2.109	0.485
864.000	515.246	80.007	19.995	103.176	20.089	-2.484	0.528
872.000	519.350	80.008	19.995	103.176	20.086	-2.315	0.495
880.000	523.470	80.008	19.994	103.174	20.089	-2.519	0.490
888.000	527.655	80.010	19.995	103.173	20.096	-3.004	0.516
896.000	531.795	80.011	19.995	103.176	20.092	-2.694	0.549
904.000	535.995	80.011	19.995	103.172	20.092	-2.717	0.504
912.000	540.057	80.009	19.995	103.172	20.093	-2.802	0.539
920.000	544.226	80.008	19.994	103.172	20.097	-3.029	0.550
928.000	548.386	80.008	19.993	103.172	20.097	-3.029	0.552
936.000	552.492	80.008	19.994	103.173	20.097	-3.079	0.511
944.000	556.686	80.008	19.996	103.175	20.096	-2.981	0.536
952.000	560.855	80.006	19.994	103.176	20.097	-3.073	0.519
960.000	564.984	80.009	19.994	103.173	20.099	-3.176	0.505
968.000	569.156	80.009	19.996	103.169	20.099	-3.196	0.556
976.000	573.272	80.010	19.995	103.169	20.097	-3.030	0.508
984.000	577.415	80.009	19.993	103.171	20.102	-3.392	0.473
992.000	581.490	80.010	19.993	103.170	20.105	-3.605	0.519
1000.000	585.496	80.005	19.995	103.174	20.100	-3.284	0.447
1008.000	589.575	80.008	19.994	103.173	20.104	-3.555	0.498
1016.000	593.654	80.008	19.993	103.175	20.109	-3.922	0.487
1024.000	597.745	80.009	19.995	103.172	20.108	-3.807	0.534
1032.000	601.776	80.008	19.997	103.162	20.109	-3.911	0.470
1040.001	605.779	80.010	19.995	103.163	20.110	-3.943	0.502
1048.000	609.790	80.008	19.994	103.168	20.114	-4.218	0.502
1056.000	613.885	80.008	19.994	103.164	20.111	-4.035	0.518
1064.000	617.999	80.008	19.996	103.148	20.115	-4.336	0.499
1072.000	622.031	80.006	19.993	103.171	20.110	-3.940	0.492
1080.000	626.147	80.007	19.993	103.169	20.112	-4.115	0.505
1088.000	630.144	80.008	19.993	103.166	20.121	-4.724	0.480
1096.000	634.229	80.008	19.996	103.168	20.122	-4.768	0.513
1104.000	638.368	80.008	19.994	103.161	20.126	-5.051	0.491
1112.000	642.498	80.012	19.994	103.166	20.117	-4.464	0.529
1120.000	646.610	80.007	19.993	103.157	20.115	-4.301	0.516
1128.000	650.757	80.008	19.994	103.166	20.118	-4.506	0.556
1136.000	654.879	80.009	19.994	103.144	20.114	-4.239	0.511
1144.000	659.067	80.009	19.994	103.162	20.117	-4.422	0.521
1152.000	663.223	80.006	19.995	103.157	20.123	-4.869	0.547
1160.000	667.315	80.007	19.995	103.159	20.122	-4.796	0.488
1168.000	671.480	80.007	19.993	103.139	20.120	-4.629	0.491
1176.000	675.580	80.009	19.994	103.142	20.122	-4.806	0.534
1184.000	679.703	80.008	19.994	103.145	20.128	-5.238	0.555
1192.000	683.798	80.007	19.994	103.136	20.123	-4.829	0.511
1200.000	687.915	80.010	19.993	103.135	20.130	-5.365	0.533
1208.000	691.969	80.006	19.993	103.146	20.132	-5.484	0.523
1216.001	696.055	80.009	19.995	103.143	20.130	-5.359	0.512
1224.000	700.062	80.010	19.996	103.141	20.134	-5.613	0.489
1232.000	704.066	80.007	19.995	103.135	20.135	-5.701	0.516
1240.000	708.082	80.006	19.996	103.135	20.132	-5.522	0.494
1248.000	712.115	80.006	19.996	103.133	20.136	-5.792	0.476
1256.000	716.132	80.007	19.994	103.134	20.133	-5.571	0.508
1264.000	720.122	80.005	19.994	103.141	20.132	-5.469	0.499
1272.000	724.115	80.006	19.996	103.137	20.137	-5.811	0.508
1280.000	728.132	80.009	19.995	103.134	20.141	-6.103	0.484
1288.000	732.103	80.007	19.994	103.131	20.135	-5.674	0.492
1296.000	736.134	80.009	19.994	103.136	20.130	-5.370	0.508
1304.000	740.143	80.010	19.994	103.132	20.136	-5.759	0.493
1310.500	743.464	80.009	19.995	103.129	20.138	-5.932	0.519