Folder: fsri_materials_database/01_Data/Nylon_Carpet_HighPile/Cone

Note: 01_Data/README.md
# Materials and Products Database
## 01_Data

Raw data generated from each apparatus are included here in plain-text format. The data is organized first by material, next by the short name of test apparatus used, and where applicable additional filtering by test settings.

### material.json

Each material directory contains a json file of the same name as the material. This file links the data stored in the repository as well as data and graphs produced by the accompanying scripts (__02_Scripts__) to the respective landing page for the material on the front-end website.

File: Nylon_Carpet_High_Pile_Cone_HF25Scalar_220317_R3.csv
LABORATORY,FSRI
TEST IDENT,NylonCarpetLP_HF25_3
OPERATOR,Dow
MATERIAL,Nylon Carpet - low pile
ORIENTATION,Horizontal
HEAT FLUX,25
SURF AREA,0.01
C FACTOR,0.0418642
SPEC HOLDER DIFF,-566
SPECIMEN MASS,24.11
SCAN TIME,0.25
O2 DELAY TIME,11
CO DELAY TIME,11
CO2 DELAY TIME,8
FLOW FACTOR,1
SCAN COUNT,3276
TIME TO IGN,449
END OF TEST SCAN,2796
END OF TEST TIME,699
TEST STATUS,1
PRE TEST CMT,Dimensions: 94.69 x 96.97 x 13.82 mm; 60 mm spacing
POST TEST CMT,Same as R1. Initial (candle size) ignition began at about 7:00 (420 s).

File: Nylon_Carpet_High_Pile_Cone_HF50Scan_220318_R1.csv
Names,Time,Stack TC,Smoke TC,Exh Press,Smoke Comp,Smoke Meas,CO Meter,CO2 Meter,O2 Meter,Sample Mass,Ext Coeff,Start Test,Flame Verif
Chan Gain,,500,500,1,1,1,1,1,1,1,1,1.0,1.0
Offset,,0,0,0.13495,0,0,0,0,0,0,0,0.0,0.0
Gain,,1,1,25.011,13.0212,13.19,1,1,1,1.0009,1.01015,1.0,1.0
Units,sec,C,C,Pa,%,%,%,%,%,g,/m,,
Baseline,,36.3385,38.3421,132.05,97.967,92.5149,0.000767185,0.0434089,21.0229,-489.231,0.507464,,
16,3.75,35.617,37.8478,131.368,97.6067,91.824,0.00083274,0.0534364,21.0143,24.3919,0.541164,0.0,0.0
32,7.75,36.0682,37.7176,133.127,97.6198,92.3911,0.000842281,0.0526003,21.013,24.3519,0.487791,0.0,0.0
48,11.75,36.1353,37.9562,130.079,97.6067,91.884,0.000870086,0.0532491,21.012,24.3018,0.535378,0.0,0.0
64,15.75,36.2236,37.9608,126.032,97.6071,92.3505,0.000952076,0.0537124,21.0126,24.2618,0.490537,0.0,0.0
80,19.75,35.8276,37.8114,134.418,97.6079,91.8928,0.000903451,0.0545328,21.0135,24.2218,0.534631,0.0,0.0
96,23.75,36.6433,38.0606,128.18,97.6087,91.6871,0.000759498,0.053653,21.0147,24.1917,0.554561,0.0,0.0
112,27.75,36.8063,38.2681,129.555,97.6059,90.9259,0.000739145,0.0512206,21.0166,24.1317,0.628178,0.0,0.0
128,31.75,36.4884,38.2954,134.368,97.6111,91.8723,0.000959803,0.0496904,21.018,24.1117,0.5369,0.0,0.0
144,35.75,37.1191,38.6625,127.848,97.6405,90.5089,0.00111932,0.0495221,21.0182,24.0616,0.672049,0.0,0.0
160,39.75,37.223,38.5873,130.643,97.6111,88.489,0.00144284,0.0501396,21.0158,23.9816,0.869369,0.0,0.0
176,43.75,36.8309,39.0773,128.412,97.6151,90.7231,0.00142247,0.0511105,21.0146,23.8815,0.6488,0.0,0.0
192,47.75,37.5269,39.4172,130.427,97.6182,89.3187,0.00152236,0.0501635,21.0122,23.8414,0.787331,0.0,0.0
208,51.75,37.7001,39.5648,118.051,97.6238,91.1316,0.00207751,0.0992783,20.8931,23.6813,0.609778,0.0,1.0
224,55.75,39.8373,42.4516,114.444,97.6369,91.7539,0.00286087,0.294386,20.6156,23.351,0.550665,0.0,0.0
240,59.75,43.9307,46.6372,114.969,97.6298,91.0725,0.00354552,0.40683,20.472,23.0007,0.616075,0.0,0.0
256,63.75,47.4164,50.3512,109.161,97.6405,89.982,0.00403802,0.47649,20.3768,22.6404,0.723785,0.0,0.0
272,67.75,50.8335,53.5156,114.339,97.6508,87.7432,0.00488104,0.520773,20.3045,22.24,0.947981,0.0,0.0
288,71.75,53.5913,57.796,109.619,97.6508,84.9363,0.00635423,0.562453,20.2397,21.8396,1.23607,0.0,0.0
304,75.75,57.3679,61.2346,103.337,97.6496,81.4287,0.00814285,0.629402,20.113,21.3992,1.60966,0.0,0.0
320,79.75,60.9946,65.9074,104.491,97.654,81.7797,0.00937784,0.705114,20.0086,20.9188,1.57194,0.0,0.0
336,83.75,64.622,69.9339,105.553,97.656,82.6045,0.010498,0.758408,19.9269,20.3783,1.48321,0.0,0.0
352,87.75,68.4754,74.1525,105.013,97.6759,79.4962,0.011408,0.805139,19.8593,19.8979,1.82487,0.0,0.0
368,91.75,71.6487,78.5439,101.945,97.6874,77.4655,0.0124624,0.829079,19.8182,19.3474,2.05521,0.0,0.0
384,95.75,74.8396,82.081,103.84,97.6866,77.3866,0.0137335,0.862066,19.7559,18.8069,2.06417,0.0,0.0
400,99.75,78.1135,85.6784,99.9676,97.689,76.1701,0.0144834,0.877919,19.7375,18.2564,2.20478,0.0,0.0
416,103.75,80.9023,88.7686,106.499,97.7204,75.3474,0.0150042,0.862267,19.7603,17.7059,2.30386,0.0,0.0
432,107.75,82.9213,91.5391,104.924,97.7494,72.3002,0.0164096,0.849591,19.7764,17.1854,2.67228,0.0,0.0
448,111.75,84.3753,93.387,101.887,97.7768,72.3087,0.0174882,0.829173,19.8052,16.655,2.67373,0.0,0.0
464,115.75,85.9414,95.2216,106.926,97.8181,70.2163,0.0177419,0.801643,19.8456,16.1245,2.93766,0.0,0.0
480,119.75,86.5774,95.9968,108.084,97.8833,70.5408,0.0180274,0.759899,19.9116,15.7041,2.90271,0.0,0.0
496,123.75,88.2168,97.4694,109.29,97.9338,70.2051,0.0178725,0.720825,19.9664,15.2237,2.94955,0.0,0.0
512,127.75,87.0812,96.983,106.653,97.9977,67.5995,0.0165811,0.695428,19.9993,14.8133,3.29046,0.0,0.0
528,131.75,87.2402,97.3874,107.812,98.0565,69.7555,0.0150859,0.662602,20.0465,14.3829,3.01759,0.0,0.0
544,135.75,87.5398,97.5186,114.278,98.1265,73.0996,0.0137051,0.632443,20.0983,13.9926,2.60896,0.0,0.0
560,139.75,87.252,97.0674,105.688,98.2068,75.77,0.0123478,0.593941,20.1605,13.6723,2.29829,0.0,0.0
576,143.75,86.7725,96.4151,112.722,98.2727,74.8901,0.0111428,0.573343,20.1956,13.332,2.40774,0.0,0.0
592,147.75,86.2212,96.1184,113.991,98.3633,77.2441,0.0103029,0.537342,20.2597,12.9917,2.14167,0.0,0.0
608,151.75,86.0003,95.4915,110.374,98.436,75.2681,0.00963949,0.505596,20.3019,12.7114,2.37785,0.0,0.0
624,155.75,85.4083,94.6014,113.491,98.5068,78.4726,0.00921434,0.480153,20.3404,12.3811,2.01477,0.0,0.0
640,159.75,84.2337,93.8429,113.857,98.5914,77.5955,0.00850201,0.458031,20.3821,12.1209,2.12198,0.0,0.0
656,163.75,83.7511,93.509,116.337,98.6625,78.8896,0.00793924,0.443876,20.4015,11.8406,1.9818,0.0,0.0
672,167.75,83.0362,92.1914,118.081,98.7182,77.7569,0.00748524,0.4325,20.4202,11.5504,2.11495,0.0,0.0
688,171.75,82.3267,91.7507,113.93,98.7889,78.979,0.007269,0.422605,20.441,11.3102,1.98312,0.0,0.0
704,175.75,81.7085,91.0353,115.281,98.8461,80.93,0.00745294,0.405218,20.4623,11.08,1.77201,0.0,0.0
720,179.75,80.9717,89.8894,114.341,98.8783,80.3282,0.00730777,0.391881,20.4841,10.8297,1.84103,0.0,0.0
736,183.75,80.4028,89.5765,112.697,98.8871,79.3678,0.00734224,0.384203,20.4952,10.5995,1.9484,0.0,0.0
752,187.75,79.8395,88.7517,114.752,98.8783,79.8645,0.00714373,0.375721,20.5099,10.3493,1.89233,0.0,0.0
768,191.75,79.2305,87.5874,117.357,98.8676,80.7271,0.0069242,0.363822,20.5299,10.1291,1.79618,0.0,0.0
784,195.75,78.0796,86.3236,118.652,98.8239,82.1275,0.00653291,0.351147,20.5469,9.92893,1.63986,0.0,0.0
800,199.75,78.111,86.2384,118.021,98.7635,80.3395,0.00596007,0.341418,20.563,9.73875,1.82949,0.0,0.0
816,203.75,77.0832,85.0829,119.418,98.7202,81.698,0.00553793,0.326581,20.5877,9.46851,1.67702,0.0,0.0
832,207.75,76.613,84.5665,118.807,98.6566,82.6625,0.00501229,0.310574,20.6157,9.29836,1.56732,0.0,0.0
848,211.75,75.4035,83.5215,118.315,98.5934,85.4496,0.00453153,0.288139,20.6546,9.1182,1.26781,0.0,0.0
864,215.75,74.1022,82.1149,120.704,98.5258,85.4379,0.00442871,0.266044,20.6881,9.02812,1.26294,0.0,0.0
880,219.75,73.609,80.9611,119.922,98.4829,86.2313,0.00423253,0.248085,20.716,8.87798,1.17718,0.0,0.0
896,223.75,72.5231,79.4654,119.486,98.4567,86.8866,0.00375658,0.237327,20.7311,8.71784,1.10774,0.0,0.0
912,227.75,71.4425,78.5547,119.122,98.4488,87.9002,0.00324311,0.226714,20.7493,8.63776,1.00425,0.0,0.0
928,231.75,70.6898,77.0981,121.986,98.6804,89.1983,0.00302971,0.21226,20.7733,8.50765,0.895174,0.0,0.0
944,235.75,69.4205,76.3173,122.638,98.8807,90.0943,0.00265204,0.198537,20.7965,8.39755,0.824573,0.0,0.0
960,239.75,68.5151,75.1424,123.151,99.0476,90.6748,0.00226985,0.181562,20.8255,8.33749,0.782613,0.0,0.0
976,243.75,67.0975,73.554,128.658,99.17,91.9391,0.00210109,0.151639,20.871,8.24741,0.670855,0.0,0.0
992,247.75,65.7525,72.4081,125.85,99.2375,92.9015,0.00201967,0.121592,20.9148,8.2374,0.584612,0.0,0.0
1008,251.75,63.6266,69.3996,129.538,99.2737,93.4317,0.00148913,0.0918132,20.9599,8.2274,0.53742,0.0,0.0
1024,255.75,61.9179,67.718,125.981,99.2662,92.5912,0.00164851,0.0760568,20.9832,8.18736,0.616817,0.0,0.0
1040,259.75,60.8468,66.1936,133.802,99.2201,92.9909,0.00152321,0.0694339,20.9921,8.17735,0.574532,0.0,0.0
1056,263.75,59.3935,64.3447,127.52,99.1493,92.7458,0.00139849,0.064194,20.9998,8.14732,0.591601,0.0,0.0
1072,267.75,58.446,62.8026,130.805,99.0416,92.9313,0.00134759,0.0592958,21.0048,8.15733,0.56426,0.0,0.0
1088,271.75,56.998,61.2158,126.93,98.9085,92.9354,0.00107629,0.0554939,21.0083,8.13732,0.55196,0.0,0.0
1104,275.75,55.9914,60.6976,130.756,98.7432,92.6588,0.000939943,0.0524158,21.0116,8.1173,0.563544,0.0,0.0
1120,279.75,55.0281,59.1996,124.362,98.777,92.8013,0.000584189,0.0499243,21.0146,8.15733,0.552958,0.0,0.0
1136,283.75,54.2491,58.4897,130.395,98.8445,92.2704,0.000493414,0.0478226,21.0175,8.13732,0.609856,0.0,0.0
1152,287.75,53.1576,57.1047,127.897,98.932,92.619,0.000632718,0.0465499,21.0181,8.12731,0.584277,0.0,0.0
1168,291.75,52.6286,55.8626,125.587,99.019,92.5546,0.000596239,0.0453652,21.02,8.15733,0.598233,0.0,0.0
1184,295.75,51.5347,54.9376,129.177,99.1076,92.8766,0.000455638,0.0445743,21.0211,8.12731,0.575383,0.0,0.0
1200,299.75,50.9137,54.4063,127.752,99.2081,92.8593,0.000208126,0.0438873,21.0195,8.13732,0.586018,0.0,0.0
1216,303.75,50.8971,54.0361,126.819,99.3015,92.9788,0.000349013,0.0431327,21.021,8.14732,0.582954,0.0,0.0
1232,307.75,50.4307,53.0073,129.261,99.3862,92.7486,0.000245473,0.0428802,21.0213,8.12731,0.612474,0.0,0.0
1248,311.75,50.4736,52.9519,126.272,99.4517,93.4019,0.000446575,0.0427022,21.0214,8.1173,0.556121,0.0,0.0
1264,315.75,49.5234,52.4947,125.311,99.5157,93.2964,0.000224235,0.0427388,21.0221,8.13732,0.571831,0.0,0.0
1280,319.75,49.3833,51.7704,128.752,99.528,92.6761,0.000261261,0.0423987,21.0212,8.12731,0.632037,0.0,0.0
1296,323.75,49.1563,51.4876,129.068,99.5328,93.4442,0.000333597,0.0422982,21.0224,8.12731,0.559332,0.0,0.0
1312,327.75,48.6057,51.0472,133.015,99.5205,93.6011,0.000476835,0.0422642,21.0221,8.13732,0.543362,0.0,0.0
1328,331.75,48.122,50.7814,129.774,99.4966,92.8995,0.000197015,0.0423514,21.0229,8.1173,0.607909,0.0,0.0
1344,335.75,48.1548,50.2601,124.312,99.4498,92.5409,-2.95311e-06,0.0422666,21.0234,8.14732,0.638007,0.0,0.0
1360,339.75,47.6856,49.734,124.286,99.3901,93.5645,6.67881e-05,0.0422741,21.0234,8.12731,0.535218,0.0,0.0
1376,343.75,47.9694,49.0492,128.936,99.3226,93.6325,0.000696414,0.0423022,21.0234,8.2274,0.522753,0.0,0.0
1392,347.75,47.1933,48.7381,126.354,99.2324,92.9406,0.00074288,0.042843,21.0216,8.1173,0.580427,0.0,0.0
1408,351.75,46.8287,49.2273,127.725,99.1366,93.0762,0.000496304,0.0442862,21.0192,8.12731,0.558948,0.0,0.0
1424,355.75,46.6745,48.3323,126.192,99.0385,93.0122,0.000469024,0.0459311,21.0179,8.09728,0.556266,0.0,0.0
1440,359.75,46.3756,48.6388,130.851,98.9252,92.3388,,0.0467332,,8.07726,0.610516,0.0,0.0
1456,363.75,46.1517,48.0054,127.446,98.8108,92.9434,,,,8.10729,0.542431,0.0,0.0
1472,367.75,46.4459,48.3436,125.566,98.6788,92.7103,,,,8.12731,0.552839,0.0,0.0
1482,370.25,46.1739,47.4944,132.318,98.5811,92.2434,,,,8.08727,0.588797,0.0,0.0

File: Nylon_Carpet_High_Pile_Cone_HF50Scan_220318_R3.csv
Names,Time,Stack TC,Smoke TC,Exh Press,Smoke Comp,Smoke Meas,CO Meter,CO2 Meter,O2 Meter,Sample Mass,Ext Coeff,Start Test,Flame Verif
Chan Gain,,500,500,1,1,1,1,1,1,1,1,1.0,1.0
Offset,,0,0,0.13495,0,0,0,0,0,0,0,0.0,0.0
Gain,,1,1,25.011,13.0212,13.19,1,1,1,1.0009,1.01015,1.0,1.0
Units,sec,C,C,Pa,%,%,%,%,%,g,/m,,
Baseline,,42.9743,44.1241,128.306,99.1423,92.99,0.000426226,0.0429174,21.022,-489.437,0.567718,,
18,4.25,41.4675,43.013,127.331,98.1265,91.9125,0.000464827,0.0500261,21.0131,23.6413,0.579682,0.0,0.0
36,8.75,41.6448,43.2123,127.23,98.0478,91.9476,0.000402525,0.0479528,21.0172,23.5512,0.569199,0.0,0.0
54,13.25,41.8981,43.1428,128.033,97.9524,92.2466,0.000439999,0.0456061,21.0189,23.5111,0.531801,0.0,0.0
72,17.75,41.142,43.0817,125.182,97.9024,91.6936,0.000513889,0.0439865,21.0197,23.4511,0.580557,0.0,0.0
90,22.25,42.4344,42.7199,135,97.834,91.5865,0.000313263,0.042986,21.021,23.371,0.584722,0.0,0.0
108,26.75,41.774,43.368,128.752,97.7955,92.0836,0.000623003,0.0428864,21.0214,23.361,0.533264,0.0,0.0
126,31.25,42.2432,43.9289,131.682,97.7537,91,0.000885761,0.0427929,21.0219,23.2909,0.634372,0.0,0.0
144,35.75,41.9235,43.4254,127.393,97.7259,89.8093,0.000878971,0.0428753,21.0228,23.2109,0.748556,0.0,0.0
162,40.25,42.0935,43.2681,127.896,97.7259,88.0374,0.00098568,0.0431869,21.0207,23.1508,0.925128,0.0,0.0
180,44.75,42.4651,43.8772,127.98,97.6798,87.742,0.00122024,0.0438447,21.0191,23.0307,0.950735,0.0,0.0
198,49.25,42.5154,44.1591,128.75,97.6628,88.0757,0.00143421,0.0447578,21.0168,23.0007,0.91555,0.0,0.0
216,53.75,42.8978,44.2723,126.551,97.6393,90.0219,0.00123612,0.0451042,21.0178,22.9406,0.719753,0.0,0.0
234,58.25,42.545,44.2035,127.078,97.6198,89.3231,0.00104756,0.043779,21.0224,22.9206,0.787037,0.0,0.0
252,62.75,43.28,44.2769,117.586,97.5972,90.4779,0.00149499,0.0738778,20.9724,22.7505,0.671153,0.0,1.0
270,67.25,45.2419,46.643,115.079,97.5801,89.3782,0.00287032,0.284389,20.6516,22.4302,0.777959,0.0,0.0
288,71.75,49.7704,51.3443,108.352,97.5753,87.6973,0.00453784,0.497482,20.3398,21.9397,0.945763,0.0,0.0
306,76.25,54.2777,56.7313,102.061,97.565,84.6546,0.00558779,0.610657,20.1479,21.4393,1.25772,0.0,0.0
324,80.75,58.4637,61.6798,109.528,97.5678,84.7955,0.00632424,0.640916,20.0878,21.0489,1.24324,0.0,0.0
342,85.25,62.4172,65.9182,107.31,97.565,82.4499,0.00707756,0.653381,20.0703,20.5585,1.49154,0.0,0.0
360,89.75,65.8944,70.0893,108.351,97.5888,82.1432,0.00821666,0.685035,20.0199,20.038,1.52673,0.0,0.0
378,94.25,70.1718,75.171,103.719,97.594,80.3572,0.00955878,0.728398,19.9566,19.5075,1.72199,0.0,0.0
396,98.75,72.7897,78.0659,103.392,97.6186,75.9862,0.0110662,0.744689,19.9199,18.957,2.21982,0.0,0.0
414,103.25,76.0838,82.1314,104.533,97.6496,72.3107,0.0127672,0.761755,19.8926,18.4666,2.66195,0.0,0.0
432,107.75,78.6705,85.4881,103.167,97.6707,69.9008,0.013683,0.759383,19.8949,17.9261,2.96421,0.0,0.0
450,112.25,80.3128,87.3897,105.12,97.72,67.8672,0.0141208,0.721979,19.9417,17.4157,3.23029,0.0,0.0
468,116.75,81.9053,89.1979,106.817,97.749,71.3575,0.0134976,0.687216,19.9968,16.9552,2.78854,0.0,0.0
486,121.25,82.6941,90.094,109.147,97.8153,72.2185,0.0127288,0.647959,20.0568,16.5349,2.68828,0.0,0.0
504,125.75,83.4222,91.7754,111.672,97.8761,74.1627,0.011916,0.621971,20.0973,16.0544,2.45839,0.0,0.0
522,130.25,84.2184,91.9555,108.886,97.9528,76.115,0.0112265,0.590407,20.1484,15.6541,2.2351,0.0,0.0
540,134.75,84.3948,92.7033,106.414,98.0212,76.4772,0.0106669,0.573401,20.1801,15.2437,2.1992,0.0,0.0
558,139.25,84.5338,92.5666,107.207,98.1126,75.2817,0.00988885,0.549394,20.2223,14.8934,2.34707,0.0,0.0
576,143.75,84.3383,92.8542,112.397,98.1885,78.2222,0.00948416,0.527018,20.2565,14.493,2.01441,0.0,0.0
594,148.25,84.693,93.4381,111.299,98.2668,76.4165,0.00902665,0.507845,20.2865,14.1727,2.22842,0.0,0.0
612,152.75,84.6206,92.3985,110.446,98.3526,77.6913,0.00859706,0.489976,20.3142,13.8224,2.08955,0.0,0.0
630,157.25,84.2964,92.54,112.407,98.4118,78.3667,0.00831235,0.477295,20.3347,13.4521,2.01818,0.0,0.0
648,161.75,84.4334,92.4785,109.969,98.4869,78.4396,0.00824742,0.466786,20.3524,13.1518,2.01671,0.0,0.0
666,166.25,83.4204,91.5568,108.921,98.529,78.1884,0.00821375,0.450683,20.3752,12.8315,2.04892,0.0,0.0
684,170.75,83.1198,91.6245,114.159,98.5863,79.1794,0.00802993,0.442052,20.3909,12.4612,1.94246,0.0,0.0
702,175.25,82.8254,91.2552,112.517,98.6343,77.8269,0.00758422,0.429516,20.4093,12.201,2.09944,0.0,0.0
720,179.75,82.6189,90.6599,113.434,98.6832,77.4626,0.00753919,0.426085,20.4157,11.8507,2.14541,0.0,0.0
738,184.25,81.951,89.9553,114.945,98.7289,78.4005,0.00746288,0.420716,20.4252,11.5604,2.04287,0.0,0.0
756,188.75,81.9038,89.7771,111.351,98.7524,77.2891,0.00735189,0.411006,20.4377,11.3002,2.17148,0.0,0.0
774,193.25,81.6439,89.4638,110.56,98.7937,79.7735,0.00737818,0.407003,20.4473,10.9999,1.89484,0.0,0.0
792,197.75,81.1664,88.7545,114.739,98.8147,76.5131,0.00680492,0.401411,20.4568,10.7697,2.2665,0.0,0.0
810,202.25,80.3818,88.0745,115.85,98.8298,78.9133,0.00674852,0.388699,20.4752,10.4794,1.99415,0.0,0.0
828,206.75,80.0015,87.7361,114.104,98.8239,80.2638,0.00690157,0.388492,20.4772,10.1892,1.84326,0.0,0.0
846,211.25,80.1896,87.447,110.539,98.8231,79.2611,0.00647771,0.380689,20.491,9.91892,1.95458,0.0,0.0
864,215.75,79.3868,86.4711,116.901,98.7957,81.5781,0.00612443,0.368105,20.5081,9.60864,1.69681,0.0,0.0
882,220.25,79.0514,86.2572,115.143,98.7734,81.7866,0.00620796,0.364034,20.5154,9.3384,1.6722,0.0,0.0
900,224.75,78.141,85.4587,115.937,98.7464,80.4401,0.00606598,0.34872,20.5396,9.1182,1.81686,0.0,0.0
918,229.25,78.1236,84.6528,113.865,98.6737,81.4758,0.00597703,0.332626,20.564,8.91802,1.69698,0.0,0.0
936,233.75,76.8454,83.8944,116.615,98.6407,82.1702,0.00559568,0.317339,20.5916,8.68781,1.61882,0.0,0.0
954,238.25,76.3013,83.2251,115.688,98.5561,83.2007,0.00516356,0.305913,20.6102,8.49764,1.50078,0.0,0.0
972,242.75,75.4789,82.4549,114.627,98.4972,82.9559,0.00494325,0.302678,20.6202,8.29746,1.5216,0.0,0.0
990,247.25,74.6442,81.9306,118.292,98.436,81.8119,0.00432535,0.290864,20.6409,8.07726,1.63913,0.0,0.0
1008,251.75,74.3265,80.5228,114.84,98.38,84.3317,0.00378763,0.27826,20.66,7.8971,1.36529,0.0,0.0
1026,256.25,73.6724,80.0223,120.905,98.3351,84.6976,0.00358581,0.266443,20.683,7.69692,1.32288,0.0,0.0
1044,260.75,73.1857,79.1674,115.913,98.2962,84.632,0.00342958,0.257355,20.6966,7.5668,1.32624,0.0,0.0
1062,265.25,72.585,78.549,115.308,98.2362,85.1895,0.00334972,0.250154,20.7049,7.38664,1.26265,0.0,0.0
1080,269.75,71.743,77.4547,113.411,98.3216,86.0405,0.0034933,0.243323,20.7145,7.25652,1.18228,0.0,0.0
1098,274.25,71.0887,76.7491,124.868,98.5191,86.4333,0.00334626,0.232151,20.736,7.07636,1.15969,0.0,0.0
1116,278.75,70.546,75.856,118.414,98.6912,87.9074,0.00288884,0.217526,20.7578,6.92623,1.02531,0.0,0.0
1134,283.25,69.7153,75.2454,121.851,98.833,89.7952,0.00265899,0.198275,20.7901,6.88619,0.849762,0.0,0.0
1152,287.75,68.8523,73.8872,121.759,98.9248,90.5355,0.00234561,0.172887,20.8261,6.76608,0.785242,0.0,0.0
1170,292.25,67.0112,71.9605,122.514,99.0182,91.5905,0.00205312,0.143829,20.8741,6.70603,0.690941,0.0,0.0
1188,296.75,66.1247,71.3739,129.351,99.0703,91.7394,0.00192249,0.118741,20.917,6.68601,0.681202,0.0,0.0
1206,301.25,65.6652,69.9864,126.017,99.0953,92.1001,0.00158812,0.100573,20.9428,6.65598,0.648673,0.0,0.0
1224,305.75,63.3506,68.5219,124.012,99.1016,92.3779,0.00154136,0.0870067,20.9668,6.61595,0.622559,0.0,0.0
1242,310.25,62.0203,66.2375,129.2,99.0726,92.4366,0.00141798,0.0740032,20.986,6.59593,0.61433,0.0,0.0
1260,314.75,60.6289,64.0501,127.347,99.0424,92.3783,0.00156794,0.0660561,20.9974,6.60594,0.617226,0.0,0.0
1278,319.25,59.2128,62.9402,124.357,98.9506,92.2877,0.00122994,0.0611501,21.004,6.5659,0.617701,0.0,0.0
1296,323.75,58.541,61.9475,128.043,98.8378,91.9991,0.000857651,0.057673,21.0077,6.57591,0.635344,0.0,0.0
1314,328.25,56.6425,60.5692,124.296,98.6836,91.7672,0.000756171,0.0543117,21.0108,6.54588,0.643869,0.0,0.0
1332,332.75,56.161,59.8592,125.555,98.6204,92.1625,0.000879389,0.0519032,21.0141,6.53588,0.600108,0.0,0.0
1350,337.25,55.6559,59.3946,125.535,98.6729,91.8421,0.000724448,0.0498851,21.0173,6.55589,0.63568,0.0,0.0
1368,341.75,54.9756,58.383,123.773,98.7404,92.2796,0.000619223,0.0480806,21.0186,6.52587,0.599629,0.0,0.0
1386,346.25,54.3915,57.7837,126.553,98.7996,92.1496,0.000673196,0.0467721,21.0193,6.51586,0.617434,0.0,0.0
1404,350.75,53.6707,56.1492,124.919,98.8557,92.1388,0.000820111,0.0455005,21.0206,6.50585,0.623504,0.0,0.0
1422,355.25,53.544,55.5679,123.373,98.9459,92.0719,0.000716357,0.0446842,21.0192,6.51586,0.638014,0.0,0.0
1440,359.75,52.8492,55.0979,125.487,99.0246,92.619,0.000644902,0.0440602,21.0189,6.51586,0.592566,0.0,0.0
1458,364.25,52.172,54.6073,123.78,99.1084,92.2901,0.000675284,0.0436088,21.0205,6.51586,0.631585,0.0,0.0
1476,368.75,51.9437,53.555,129.159,99.2006,92.2961,0.000703028,0.0434479,21.0206,6.53588,0.639243,0.0,0.0
1494,373.25,50.9894,53.4146,126.949,99.2689,92.943,0.000704379,0.0429849,21.0193,6.52587,0.583461,0.0,0.0
1512,377.75,50.7375,53.3091,125.993,99.3289,92.8476,0.000495043,0.0427869,21.0202,6.52587,0.597916,0.0,0.0
1530,382.25,50.569,52.2553,129.027,99.3818,92.4833,0.000642629,0.0426363,21.0205,6.52587,0.637462,0.0,0.0
1548,386.75,50.3336,51.8018,127.389,99.4239,92.7772,0.000373059,0.0425262,21.0205,6.52587,0.613109,0.0,0.0
1566,391.25,50.3245,51.4309,123.299,99.4342,92.3674,0.00015886,0.0424509,21.0197,6.49584,0.653253,0.0,0.0
1584,395.75,49.961,51.6423,123.906,99.4764,93.1016,0.000250899,0.0425893,21.0207,6.52587,0.586849,0.0,0.0
1602,400.25,49.2348,51.2063,127.538,99.4319,93.7332,0.000380883,0.0424226,21.0213,6.52587,0.522979,0.0,0.0
1620,404.75,49.1846,51.1443,126.277,99.4346,93.3914,0.000345406,0.0424228,21.0215,6.51586,0.555592,0.0,0.0
1638,409.25,48.9,50.2141,126.996,99.3941,93.49,0.000269511,0.0422645,21.0211,6.52587,0.542627,0.0,0.0
1656,413.75,48.4706,50.3791,124.379,99.3564,92.6202,0.000485518,0.0424071,21.021,6.49584,0.622093,0.0,0.0
1674,418.25,48.6067,50.1727,123.415,99.3178,93.0271,,0.0422171,,6.51586,0.579806,0.0,0.0
1692,422.75,48.3788,49.9597,129.561,99.2586,92.871,,,,6.50585,0.589411,0.0,0.0
1710,427.25,48.2394,49.232,126.958,99.2066,92.753,,,,6.53588,0.596022,0.0,0.0