Folder: fsri_materials_database/01_Data/Nylon_Carpet_HighPile/MCC

Note: 01_Data/README.md
# Materials and Products Database
## 01_Data

Raw data generated from each apparatus are included here in plain-text format. The data is organized first by material, next by the short name of test apparatus used, and where applicable additional filtering by test settings.

### material.json

Each material directory contains a json file of the same name as the material. This file links the data stored in the repository as well as data and graphs produced by the accompanying scripts (__02_Scripts__) to the respective landing page for the material on the front-end website.

File: Nylon_Carpet_HighPile_MCC_30K_min_211027_R1.txt
Sample ID:	C:\MCC\MCC Cal\Test\Nylon_Carpet_HighPile_MCC_30K_min_211027_R1.txt
Sample Weight (mg):	4.31
Heating Rate (C/s):	1
Combustor Temp (C):	900
N2 Flow Rate (cc/min):	80
O2 Flow Rate (cc/min):	20
Calibration File:	C:\MCC\MCC Cal\Coeff1 JN10440_30_210304.txt.txt
T Correction Coefficients:	0	1.024463	0
Time Shift (s):	14
*
Time (s)	Temperature (C)	N2 flow rate (cc/min)	O2 flow rate (cc/min)	Flow Rate (cc/min)	Oxygen (%)	HRR (W/g)	Heating rate (C/s)
0.000	105.115	80.000	19.997	102.997	20.013	0.074	-0.008
4.000	105.142	80.001	19.995	102.995	20.012	0.084	0.019
8.000	105.110	80.003	19.996	103.012	20.004	0.749	0.023
12.000	105.141	80.003	19.994	103.110	19.995	1.391	0.004
16.000	105.366	80.005	19.995	103.221	19.977	2.711	0.062
20.000	105.733	80.002	19.995	103.285	19.964	3.681	0.115
24.000	106.366	80.002	19.996	103.309	19.952	4.577	0.178
28.000	107.196	80.000	19.995	103.348	19.946	5.037	0.211
32.000	108.257	80.001	19.997	103.380	19.935	5.902	0.288
36.000	109.574	80.003	19.995	103.395	19.934	5.988	0.316
40.000	111.102	80.004	19.996	103.400	19.929	6.361	0.384
44.000	112.733	80.004	19.995	103.415	19.925	6.610	0.446
48.000	114.626	80.001	19.996	103.447	19.927	6.444	0.474
52.000	116.689	80.000	19.995	103.463	19.925	6.624	0.524
56.000	118.947	80.000	19.995	103.464	19.925	6.635	0.574
60.000	121.358	80.002	19.997	103.466	19.916	7.290	0.629
64.001	123.956	80.001	19.996	103.499	19.916	7.307	0.642
68.000	126.750	80.003	19.994	103.498	19.916	7.283	0.710
72.000	129.669	80.002	19.995	103.503	19.914	7.491	0.762
76.000	132.706	80.002	19.996	103.502	19.915	7.365	0.786
80.001	135.901	80.004	19.997	103.475	19.913	7.528	0.841
84.000	139.239	80.002	19.996	103.493	19.916	7.342	0.834
88.000	142.644	80.002	19.994	103.481	19.922	6.825	0.843
92.000	146.137	80.003	19.996	103.465	19.918	7.173	0.843
96.000	149.719	80.004	19.995	103.470	19.921	6.894	0.931
100.001	153.419	80.005	19.995	103.458	19.920	6.976	0.904
104.001	157.126	80.003	19.996	103.440	19.916	7.341	0.974
108.001	160.876	80.003	19.995	103.448	19.919	7.060	0.944
112.001	164.697	80.005	19.996	103.453	19.923	6.764	0.958
116.000	168.596	80.004	19.995	103.463	19.927	6.489	0.972
120.000	172.520	80.003	19.994	103.428	19.922	6.826	0.982
124.000	176.475	80.003	19.996	103.429	19.923	6.767	0.953
128.000	180.468	80.004	19.995	103.439	19.925	6.634	0.985
132.000	184.476	80.002	19.995	103.420	19.922	6.864	0.978
136.000	188.570	80.000	19.996	103.426	19.930	6.232	1.009
140.000	192.687	80.002	19.997	103.406	19.929	6.307	1.045
144.001	196.770	80.003	19.996	103.388	19.930	6.257	1.011
148.000	200.857	80.003	19.997	103.392	19.926	6.518	1.013
152.000	204.978	80.003	19.997	103.384	19.930	6.216	1.008
156.000	209.126	80.000	19.997	103.362	19.929	6.311	1.054
160.000	213.193	80.003	19.997	103.380	19.932	6.127	1.030
164.000	217.304	80.000	19.996	103.376	19.926	6.545	1.018
168.000	221.471	80.002	19.995	103.375	19.936	5.835	1.020
172.000	225.640	80.003	19.995	103.363	19.935	5.857	1.035
176.000	229.823	80.003	19.995	103.350	19.937	5.699	1.055
180.000	233.997	80.005	19.996	103.346	19.935	5.871	1.038
184.000	238.117	80.004	19.995	103.343	19.936	5.790	1.052
188.000	242.215	80.002	19.996	103.344	19.933	6.036	1.027
192.000	246.300	80.003	19.995	103.340	19.934	5.984	1.023
196.000	250.406	80.003	19.996	103.320	19.935	5.906	1.031
200.001	254.460	80.002	19.995	103.314	19.932	6.117	1.023
204.000	258.450	80.005	19.994	103.310	19.932	6.060	1.011
208.000	262.415	80.005	19.995	103.302	19.934	5.926	1.076
212.001	266.514	80.003	19.995	103.297	19.932	6.119	0.943
216.000	270.512	80.003	19.997	103.300	19.927	6.484	1.063
220.000	274.470	80.002	19.997	103.285	19.930	6.240	0.958
224.000	278.444	80.001	19.996	103.298	19.925	6.617	0.994
228.000	282.361	80.002	19.998	103.292	19.920	6.975	0.987
232.000	286.299	80.003	19.995	103.271	19.921	6.891	0.998
236.000	290.168	80.002	19.997	103.290	19.918	7.162	0.951
240.000	294.110	80.001	19.996	103.280	19.909	7.780	0.940
244.000	297.997	80.001	19.998	103.275	19.911	7.661	0.949
248.000	301.980	79.998	19.997	103.277	19.904	8.181	0.982
252.000	305.864	80.001	19.996	103.274	19.889	9.276	0.974
256.000	309.785	80.002	19.997	103.273	19.881	9.945	1.030
260.000	313.748	80.004	19.995	103.279	19.860	11.505	0.989
264.000	317.666	80.004	19.994	103.272	19.842	12.850	0.999
268.000	321.582	80.021	20.000	103.305	19.815	14.832	0.987
272.000	325.453	80.022	20.002	103.306	19.792	16.578	0.956
276.000	329.372	80.021	20.002	103.293	19.755	19.343	0.985
280.000	333.288	80.022	20.002	103.306	19.726	21.482	1.006
284.000	337.215	80.023	20.003	103.305	19.679	24.990	0.985
288.000	341.121	80.005	19.997	103.299	19.631	28.587	0.985
292.000	345.024	80.004	19.995	103.300	19.577	32.625	0.981
296.000	348.986	80.003	19.996	103.300	19.512	37.474	1.000
300.000	352.911	80.003	19.995	103.311	19.440	42.866	0.977
304.000	356.938	80.002	19.996	103.312	19.353	49.388	1.012
308.000	360.890	80.001	19.996	103.310	19.254	56.786	0.979
312.000	364.903	80.003	19.995	103.334	19.149	64.724	1.007
316.000	368.920	80.002	19.996	103.351	19.024	74.066	0.989
320.000	372.941	80.003	19.996	103.347	18.882	84.724	1.029
324.000	377.004	80.002	19.997	103.375	18.722	96.687	1.039
328.000	381.007	80.001	19.995	103.387	18.535	110.673	1.046
332.000	384.990	80.000	19.996	103.396	18.335	125.665	1.017
336.000	389.041	80.003	19.996	103.408	18.112	142.360	1.024
340.001	393.131	80.004	19.996	103.420	17.875	160.100	1.004
344.000	397.312	80.004	19.996	103.422	17.621	179.005	1.026
348.000	401.491	80.005	19.997	103.416	17.362	198.329	1.033
352.000	405.713	80.004	19.995	103.388	17.103	217.498	1.054
356.000	409.966	80.003	19.995	103.352	16.870	234.794	1.087
360.000	414.203	80.004	19.995	103.294	16.665	249.934	1.063
364.000	418.424	80.005	19.995	103.214	16.530	259.846	1.064
368.000	422.714	80.006	19.997	103.150	16.498	262.183	1.047
372.000	426.951	80.007	19.996	103.097	16.590	255.247	1.064
376.000	431.212	80.005	19.996	103.037	16.831	237.367	1.070
380.000	435.512	80.002	19.997	103.009	17.224	208.239	1.072
384.001	439.780	80.003	19.995	103.017	17.712	171.897	1.060
388.000	444.014	80.002	19.995	103.052	18.190	136.255	1.074
392.000	448.184	80.003	19.996	103.132	18.555	108.903	1.040
396.000	452.388	80.002	19.995	103.193	18.794	91.076	1.035
400.000	456.549	80.003	19.995	103.193	18.933	80.696	1.027
404.000	460.708	80.002	19.995	103.159	19.002	75.525	1.045
408.000	464.836	80.002	19.995	103.152	19.035	73.016	1.022
412.000	468.963	80.002	19.996	103.134	19.041	72.556	1.012
416.000	473.039	80.001	19.994	103.122	19.041	72.599	1.012
420.000	477.141	80.004	19.996	103.114	19.028	73.540	1.001
424.000	481.213	80.003	19.996	103.105	19.014	74.601	1.041
428.000	485.199	80.004	19.996	103.096	19.001	75.549	1.029
432.000	489.224	80.002	19.996	103.073	19.003	75.333	1.002
436.000	493.254	80.002	19.997	103.057	19.042	72.472	1.009
440.000	497.290	80.002	19.996	103.032	19.158	63.884	0.995
444.000	501.320	80.004	19.996	103.002	19.347	49.790	1.004
448.000	505.308	80.004	19.995	103.043	19.560	33.868	1.003
452.000	509.283	80.005	19.994	103.131	19.735	20.827	0.975
456.000	513.302	80.003	19.994	103.192	19.844	12.671	1.006
460.000	517.398	80.001	19.995	103.178	19.892	9.090	1.006
464.000	521.424	80.001	19.995	103.172	19.922	6.832	1.036
468.001	525.498	80.003	19.996	103.168	19.936	5.813	1.017
472.000	529.518	80.002	19.994	103.187	19.945	5.152	1.008
476.000	533.596	80.004	19.995	103.188	19.952	4.570	0.984
480.000	537.719	80.004	19.995	103.187	19.953	4.539	1.007
484.000	541.782	80.002	19.994	103.191	19.954	4.461	1.040
488.000	545.791	80.004	19.995	103.191	19.958	4.180	1.014
492.000	549.910	80.001	19.996	103.191	19.960	3.986	1.001
496.000	553.957	80.001	19.996	103.189	19.963	3.748	1.010
500.000	558.049	80.000	19.995	103.186	19.962	3.838	1.043
504.000	562.154	80.002	19.996	103.190	19.960	4.022	1.051
508.000	566.212	80.002	19.996	103.183	19.961	3.887	1.034
512.000	570.261	80.004	19.995	103.190	19.961	3.918	1.016
516.000	574.342	80.002	19.995	103.188	19.962	3.859	1.055
520.000	578.388	80.002	19.995	103.190	19.963	3.807	0.982
524.000	582.429	80.001	19.996	103.184	19.964	3.732	1.022
528.000	586.512	80.003	19.996	103.190	19.963	3.807	1.019
532.000	590.505	80.002	19.996	103.185	19.964	3.705	0.982
536.000	594.591	80.005	19.996	103.187	19.962	3.848	1.044
540.000	598.641	80.002	19.995	103.184	19.962	3.859	1.003
544.000	602.646	80.002	19.995	103.184	19.967	3.492	0.984
548.000	606.748	80.002	19.994	103.179	19.966	3.566	1.048
552.000	610.734	80.002	19.995	103.189	19.966	3.533	1.011
556.000	614.831	80.003	19.996	103.192	19.964	3.705	1.025
560.000	618.876	80.002	19.994	103.190	19.963	3.789	1.014
564.000	622.907	80.004	19.995	103.190	19.965	3.650	0.978
568.000	626.909	80.003	19.996	103.192	19.961	3.927	1.003
572.001	630.979	80.002	19.995	103.198	19.962	3.880	1.017
576.000	634.964	80.001	19.995	103.197	19.960	3.989	1.012
580.000	639.024	80.002	19.994	103.200	19.960	4.016	1.007
584.000	643.069	80.002	19.995	103.220	19.960	4.035	1.015
588.000	647.026	80.002	19.994	103.229	19.958	4.139	0.975
592.000	651.084	80.003	19.994	103.232	19.960	4.027	1.016
596.000	655.031	80.004	19.996	103.238	19.956	4.335	0.986
600.000	659.046	80.002	19.995	103.233	19.954	4.477	0.978
604.000	663.060	80.002	19.996	103.241	19.952	4.606	0.997
608.000	667.030	80.003	19.995	103.264	19.950	4.785	1.018
612.000	671.055	80.004	19.996	103.266	19.950	4.755	1.046
616.000	675.024	80.006	19.995	103.266	19.947	4.946	1.029
620.000	678.986	80.003	19.995	103.295	19.945	5.088	0.991
624.000	682.922	80.004	19.997	103.295	19.945	5.132	0.970
628.000	686.823	80.003	19.998	103.304	19.940	5.512	0.979
632.000	690.758	80.001	19.995	103.308	19.937	5.703	0.985
636.000	694.681	80.002	19.995	103.342	19.936	5.808	0.984
640.000	698.571	80.001	19.995	103.341	19.934	5.959	0.974
644.000	702.476	80.003	19.994	103.347	19.932	6.127	0.970
648.000	706.442	80.002	19.994	103.362	19.930	6.271	0.972
652.000	710.357	80.002	19.994	103.377	19.928	6.423	0.963
656.000	714.268	80.001	19.994	103.391	19.926	6.529	1.004
660.000	718.276	80.001	19.994	103.409	19.923	6.807	1.007
664.000	722.254	80.003	19.995	103.434	19.915	7.368	1.001
668.000	726.234	80.003	19.995	103.462	19.914	7.486	1.010
672.000	730.207	80.005	19.995	103.468	19.907	7.971	0.983
676.000	734.172	80.005	19.995	103.501	19.905	8.123	0.983
680.000	738.130	80.004	19.994	103.504	19.905	8.134	0.981
683.000	741.091	80.003	19.995	103.502	19.900	8.510	1.017