Folder: fsri_materials_database/01_Data/Cotton_Sheet/Cone

Note: 01_Data/README.md
# Materials and Products Database
## 01_Data

Raw data generated from each apparatus are included here in plain-text format. The data is organized first by material, next by the short name of test apparatus used, and where applicable additional filtering by test settings.

### material.json

Each material directory contains a json file of the same name as the material. This file links the data stored in the repository as well as data and graphs produced by the accompanying scripts (__02_Scripts__) to the respective landing page for the material on the front-end website.

File: Cotton_Sheet_Cone_HF25Scalar_220429_R1.csv
LABORATORY,FSRI
TEST IDENT,Cotton_Sheet_HF_25
OPERATOR,Dow
MATERIAL,Cotton Sheet
ORIENTATION,Horizontal
HEAT FLUX,25
SURF AREA,0.00884
C FACTOR,0.0415476
SPEC HOLDER DIFF,-566
SPECIMEN MASS,1.08
SCAN TIME,0.25
O2 DELAY TIME,11
CO DELAY TIME,11
CO2 DELAY TIME,8
FLOW FACTOR,1
SCAN COUNT,587
TIME TO IGN,8.75
END OF TEST SCAN,107
END OF TEST TIME,26.75
TEST STATUS,1
PRE TEST CMT,Thickness: 0.21 mm; with frame; with calcium silicate substrate

File: Cotton_Sheet_Cone_HF25Scan_220429_R3.csv
Names,Time,Stack TC,Smoke TC,Exh Press,Smoke Comp,Smoke Meas,CO Meter,CO2 Meter,O2 Meter,Sample Mass,Ext Coeff,Start Test,Flame Verif
Chan Gain,,500,500,1,1,1,1,1,1,1,1,1.0,1.0
Offset,,0,0,0.138979,0,0,0,0,0,0,0,0.0,0.0
Gain,,1,1,25.011,14.099,15.1965,1,1,1,1.00087,0.986176,1.0,1.0
Units,sec,C,C,Pa,%,%,%,%,%,g,/m,,
Baseline,,18.0819,18.5897,157.129,104.481,100.702,0.00084799,0.0510948,21.0233,-833.995,0.318729,,
6,1.25,16.7489,17.3772,156.803,106.16,102.332,0.000932423,0.0570855,21.0143,181.788,0.317698,0.0,0.0
12,2.75,16.9833,17.6616,154.549,106.199,102.194,0.00101923,0.0567032,21.014,181.698,0.332464,0.0,0.0
18,4.25,16.7513,17.9787,149.694,106.214,102.045,0.00104206,0.0561608,21.0138,181.738,0.346416,0.0,0.0
24,5.75,16.6953,17.7449,154.494,106.242,101.775,0.00101732,0.0556046,21.0137,181.718,0.37157,0.0,0.0
30,7.25,16.7584,18.0329,154.439,106.264,101.668,0.00101137,0.0556385,21.0121,181.708,0.382463,0.0,0.0
36,8.75,17.0341,17.5193,160.29,106.276,100.851,0.00110789,0.0671926,21.002,181.668,0.453178,0.0,0.0
42,10.25,16.8655,17.3842,147.864,106.288,103.88,0.00137237,0.110627,20.955,181.508,0.198221,0.0,1.0
48,11.75,17.8523,18.1259,141.291,106.303,105.179,0.0016734,0.175859,20.8888,181.458,0.0919744,0.0,1.0
54,13.25,18.2672,18.4997,138.966,106.312,105.34,0.00193021,0.248536,20.8014,181.077,0.0794141,0.0,1.0
60,14.75,19.6928,19.3452,140.546,106.309,105.27,0.00213743,0.301022,20.7496,181.097,0.0849945,0.0,0.0
66,16.25,20.758,20.2303,140.066,106.321,104.014,0.00241559,0.312022,20.7334,180.897,0.189725,0.0,0.0
72,17.75,21.7515,21.956,153.688,106.318,102.892,0.00296833,0.287817,20.7527,180.907,0.283287,0.0,0.0
78,19.25,21.4404,22.3353,153.429,106.308,102.867,0.00354259,0.238202,20.8117,180.897,0.284626,0.0,0.0
84,20.75,21.7139,22.2833,154.356,106.303,102.491,0.00407366,0.186831,20.8606,180.937,0.315894,0.0,0.0
90,22.25,22.2518,22.653,154.575,106.294,102.564,0.00452334,0.146217,20.9026,180.917,0.309016,0.0,0.0
96,23.75,21.5453,21.6619,158.051,106.284,102.508,0.0049951,0.119012,20.934,180.917,0.312979,0.0,0.0
102,25.25,21.2559,22.5235,152.36,106.266,102.445,0.00538103,0.0992026,20.9575,180.897,0.316793,0.0,0.0
108,26.75,21.6285,22.0178,156.561,106.239,102.406,0.00559798,0.0861828,20.9767,180.907,0.317802,0.0,0.0
114,28.25,20.7545,21.3998,157.035,106.228,102.4375,0.00558206,0.0780448,20.9881,180.877,0.314301,0.0,0.0
120,29.75,20.9172,21.5943,156.403,106.205,102.42,0.00539934,0.0727331,20.9966,180.837,0.313859,0.0,0.0
126,31.25,20.8079,21.4048,156.853,106.171,102.554,0.00496807,0.0687028,21.0029,180.817,0.299885,0.0,0.0
132,32.75,20.6245,21.0473,153.588,106.149,102.423,0.00445081,0.065375,21.0081,180.867,0.309066,0.0,0.0
138,34.25,20.9069,21.0402,157.694,106.121,102.309,0.00392114,0.0624112,21.0134,180.847,0.316502,0.0,0.0
144,35.75,20.6003,20.5397,154.09,106.081,102.37,0.00340216,0.0595684,21.018,180.837,0.3081,0.0,0.0
150,37.25,19.6446,20.7924,160.166,106.069,102.169,0.00285279,0.0574283,21.0209,180.857,0.324065,0.0,0.0
156,38.75,20.185,20.6792,155.708,106.023,102.386,0.00227094,0.055523,21.0236,180.857,0.301956,0.0,0.0
162,40.25,20.4829,20.5223,158.208,106.001,102.148,0.00178317,0.0538618,21.026,180.847,0.320289,0.0,0.0
168,41.75,19.9636,20.6261,158.274,105.96,102.09,0.00144626,0.0524751,21.0281,180.857,0.321903,0.0,0.0
174,43.25,19.798,20.6334,158.209,105.949,102.016,0.00122359,0.0515816,21.0295,180.857,0.327165,0.0,0.0
180,44.75,19.7018,20.137,156.127,105.902,102.139,0.00108472,0.05092,21.0298,180.847,0.312955,0.0,0.0
186,46.25,19.3073,20.3508,156.006,105.882,102.232,0.00101138,0.0504143,21.0294,180.827,0.303526,0.0,0.0
192,47.75,19.4624,20.5588,159.126,105.851,102.232,0.00101612,0.050142,21.0292,180.847,0.300995,0.0,0.0
198,49.25,19.2048,19.5872,153.398,105.834,102.047,0.00105264,0.0500001,21.0291,180.847,0.315259,0.0,0.0
204,50.75,19.1825,19.938,155.903,105.794,102.021,0.00105488,0.0498606,21.029,180.837,0.314077,0.0,0.0
210,52.25,19.1401,19.9836,157.58,105.769,101.977,0.000974178,0.0500298,21.029,180.827,0.315851,0.0,0.0
216,53.75,19.3524,19.8742,152.057,105.742,102.029,0.000890246,0.0502043,21.029,180.837,0.309259,0.0,0.0
222,55.25,19.0129,19.6032,154.053,105.747,102.036,0.00085314,0.0503555,21.029,180.827,0.308982,0.0,0.0
228,56.75,18.9129,20.0052,156.99,105.692,101.891,0.000840005,0.050492,21.029,180.827,0.316792,0.0,0.0
234,58.25,18.3246,19.2913,152.898,105.681,101.963,0.000779533,0.0505784,21.029,180.837,0.30981,0.0,0.0
240,59.75,18.7157,19.7824,155.294,105.65,102.02,0.000673252,0.0504793,21.029,180.837,0.302471,0.0,0.0
246,61.25,19.1661,19.1798,153.179,105.642,101.948,0.000538634,0.0504026,21.029,180.827,0.307903,0.0,0.0
252,62.75,18.2687,19.1717,157.748,105.606,101.76,0.000422269,0.0502388,21.03,180.837,0.32093,0.0,0.0
258,64.25,18.4624,19.1926,153.762,105.584,101.931,0.000366063,0.0500164,21.0306,180.827,0.304562,0.0,0.0
264,65.75,18.9459,18.7956,157.017,105.573,101.813,0.000414581,0.0496947,21.0309,180.827,0.313683,0.0,0.0
270,67.25,18.8663,19.3869,154.192,105.543,101.81,0.000494105,0.0494244,21.0311,180.827,0.311566,0.0,0.0
276,68.75,18.4742,19.1149,157.586,105.536,101.819,0.000568414,0.0491648,21.0308,180.817,0.310178,0.0,0.0
282,70.25,18.7049,19.0784,154.019,105.507,101.826,0.000585155,0.0488839,21.0306,180.817,0.307149,0.0,0.0
288,71.75,18.0805,18.5816,158.565,105.495,101.765,0.000578814,0.048628,21.031,180.837,0.311398,0.0,0.0
294,73.25,18.5228,18.9085,157.437,105.47,101.779,0.000612968,0.0484095,21.0317,180.837,0.308165,0.0,0.0
300,74.75,17.7716,19.0882,158.693,105.471,101.712,0.000641017,0.0482349,21.0321,180.807,0.313993,0.0,0.0
306,76.25,17.8334,19.2759,158.844,105.486,101.816,0.000605338,0.0481724,21.0327,180.827,0.306397,0.0,0.0
312,77.75,18.4847,18.8035,154.968,105.547,101.759,0.000572108,0.048167,21.0323,180.827,0.316179,0.0,0.0
318,79.25,17.9318,18.7883,156.459,105.584,101.875,0.000617291,0.0481131,21.0327,180.827,0.309325,0.0,0.0
324,80.75,17.9832,18.8807,161.055,105.655,102.032,0.000724306,0.0480844,21.033,180.817,0.301802,0.0,0.0
330,82.25,17.678,18.7032,158.131,105.699,102.002,0.000806383,0.0480095,21.0324,180.807,0.307989,0.0,0.0
336,83.75,17.82,18.7889,156.109,105.745,102.106,0.000848564,0.0479959,21.0329,180.807,0.302871,0.0,0.0
342,85.25,17.6364,19.07,157.106,105.79,101.867,0.000816679,0.0480173,21.0331,180.817,0.326864,0.0,0.0
348,86.75,18.1365,18.4721,153.869,105.814,102.073,0.000722916,0.0481724,21.0333,180.817,0.311363,0.0,0.0
354,88.25,17.5023,18.5686,163.112,105.845,102.34,0.000657284,0.0483989,21.0333,180.817,0.291324,0.0,0.0
360,89.75,18.0946,18.6291,156.79,105.899,102.2,0.000606917,0.048702,21.0323,180.847,0.30757,0.0,0.0
366,91.25,17.9514,18.697,156.67,105.915,102.13,0.000545227,0.0489655,21.032,180.817,0.314721,0.0,0.0
372,92.75,17.8045,18.3179,160.405,105.958,102.126,0.000500944,0.0490669,21.0315,180.837,0.318698,0.0,0.0
378,94.25,17.9019,18.6006,162.016,105.978,102.193,0.000472259,0.0490346,21.0309,180.827,0.314584,0.0,0.0
384,95.75,17.4009,18.2426,157.923,106.009,102.297,0.00044707,0.0490978,21.0306,180.817,0.308319,0.0,0.0
390,97.25,17.2979,18.4343,162.378,106.024,102.38,0.000430219,0.0491759,21.0305,180.797,0.30253,0.0,0.0
396,98.75,17.4013,18.9582,155.655,106.044,102.196,0.000418579,0.0491102,21.0304,180.807,0.319752,0.0,0.0
402,100.25,17.531,18.008,158.966,106.066,102.486,0.000413323,0.049056,21.0303,180.817,0.297045,0.0,0.0
408,101.75,17.1487,17.9675,161.147,106.063,102.315,0.0004286,0.0491452,21.0303,180.807,0.311182,0.0,0.0
414,103.25,17.5094,18.3145,160.782,106.086,102.398,0.000445833,0.0490268,21.0303,180.797,0.306096,0.0,0.0
420,104.75,17.7785,18.0049,158.437,106.075,102.459,0.000488554,0.0489762,21.0303,180.807,0.300014,0.0,0.0
426,106.25,17.4624,18.0139,156.439,106.092,102.349,0.000542115,0.0488828,21.0303,180.807,0.310702,0.0,0.0
432,107.75,17.751,18.6759,154.238,106.089,102.476,0.000604346,0.0488135,21.0303,180.827,0.299766,0.0,0.0
438,109.25,17.882,18.198,154.818,106.103,102.35,0.000692443,0.0487502,21.0303,180.807,0.31154,0.0,0.0
444,110.75,17.6049,18.1245,156.638,106.078,102.469,0.000774498,0.0485989,21.0313,180.817,0.299472,0.0,0.0
450,112.25,17.4511,18.5054,159.031,106.1,102.425,0.000818965,0.0484905,21.0319,180.807,0.304907,0.0,0.0
456,113.75,17.4559,17.6246,157.64,106.078,102.416,0.000830695,0.0485241,21.0326,180.807,0.303906,0.0,0.0
462,115.25,17.2867,17.7836,161.046,106.087,102.328,0.000928334,0.0485702,21.0332,180.807,0.312049,0.0,0.0
468,116.75,16.7565,17.8626,159.076,106.075,102.362,0.00103985,0.0485366,21.0325,180.797,0.308275,0.0,0.0
474,118.25,17.6302,18.1892,157.819,106.072,102.456,0.00109891,0.048535,21.0316,180.797,0.300042,0.0,0.0
480,119.75,17.2143,18.1609,158.974,106.047,102.376,0.00100185,0.0485087,21.0321,180.777,0.304744,0.0,0.0
486,121.25,17.5963,17.3517,158.137,106.047,102.493,0.000777021,0.0484688,21.0325,180.777,0.294948,0.0,0.0
492,122.75,17.6042,18.3865,157.507,106.033,102.451,0.000582554,0.0484102,21.032,180.797,0.297314,0.0,0.0
498,124.25,16.5959,17.98,160.801,106.017,102.337,0.0005038,0.0482953,21.0314,180.787,0.305614,0.0,0.0
504,125.75,17.3877,17.6582,157.192,106.002,102.284,0.000534518,0.0483711,21.0311,180.787,0.308895,0.0,0.0
510,127.25,17.012,17.6124,153.176,106.005,102.271,0.000615149,0.0485776,21.0309,180.797,0.310239,0.0,0.0
516,128.75,16.7087,17.7844,156.94,105.966,102.27,0.000659995,0.0487498,21.0308,180.807,0.307086,0.0,0.0
522,130.25,16.9827,17.1149,161.667,105.955,102.266,0.000655026,0.048929,21.0308,180.787,0.306558,0.0,0.0
528,131.75,16.8576,18.0355,161.649,105.934,102.148,0.000623463,0.0491093,21.0307,180.777,0.314884,0.0,0.0
534,133.25,17.3865,17.9017,158.115,105.915,102.164,0.000578404,0.0491802,21.0299,180.797,0.311963,0.0,0.0
540,134.75,17.0178,18.3626,155.21,105.896,102.158,0.000494375,0.0494387,21.0292,180.787,0.310853,0.0,0.0
546,136.25,17.4882,17.6265,158.695,105.854,102.238,0.000374074,0.0498431,21.0293,180.787,0.30073,0.0,0.0
552,137.75,17.073,17.1292,155.142,105.838,102.266,,0.0500168,,180.777,0.297036,0.0,0.0
558,139.25,17.0694,17.8536,155.368,105.804,102.045,,0.0499895,,180.787,0.312951,0.0,0.0
564,140.75,17.1935,17.8302,156.839,105.794,102.004,,,,180.787,0.315601,0.0,0.0
570,142.25,17.4487,17.7632,158.183,105.739,102.016,,,,180.777,0.310114,0.0,0.0
576,143.75,17.3554,17.7505,157.794,105.73,102.082,,,,180.777,0.303792,0.0,0.0
582,145.25,17.1866,17.8811,155.123,105.674,101.998,,,,180.777,0.306221,0.0,0.0
588,146.75,17.2101,17.9896,162.172,105.673,101.894,,,,180.787,0.315001,0.0,0.0
590,147.25,17.2098,17.8222,154.264,105.634,101.951,,,,180.797,0.306918,0.0,0.0

File: Cotton_Sheet_Cone_HF50Scalar_220429_R1.csv
LABORATORY,FSRI
TEST IDENT,Cotton_Sheet_HF_50_1
OPERATOR,Dow
MATERIAL,Cotton Sheet
ORIENTATION,Horizontal
HEAT FLUX,50
SURF AREA,0.00884
C FACTOR,0.0415476
SPEC HOLDER DIFF,-566
SPECIMEN MASS,1.07
SCAN TIME,0.25
O2 DELAY TIME,11
CO DELAY TIME,11
CO2 DELAY TIME,8
FLOW FACTOR,1
SCAN COUNT,555
TIME TO IGN,2.75
END OF TEST SCAN,75
END OF TEST TIME,18.75
TEST STATUS,1
PRE TEST CMT,Thickness: 0.20 mm; with frame; with calcium silicate substrate

File: Cotton_Sheet_Cone_HF50Scalar_220429_R2.csv
LABORATORY,FSRI
TEST IDENT,Cotton_Sheet_HF_50_2
OPERATOR,Dow
MATERIAL,Cotton Sheet
ORIENTATION,Horizontal
HEAT FLUX,50
SURF AREA,0.00884
C FACTOR,0.0415476
SPEC HOLDER DIFF,-566
SPECIMEN MASS,1.06
SCAN TIME,0.25
O2 DELAY TIME,11
CO DELAY TIME,11
CO2 DELAY TIME,8
FLOW FACTOR,1
SCAN COUNT,564
TIME TO IGN,3
END OF TEST SCAN,84
END OF TEST TIME,21
TEST STATUS,1
PRE TEST CMT,Thickness: 0.19 mm; with frame; with calcium silicate substrate

File: Cotton_Sheet_Cone_HF50Scalar_220429_R3.csv
LABORATORY,FSRI
TEST IDENT,Cotton_Sheet_HF_50_3
OPERATOR,Dow
MATERIAL,Cotton Sheet
ORIENTATION,Horizontal
HEAT FLUX,50
SURF AREA,0.00884
C FACTOR,0.0415476
SPEC HOLDER DIFF,-566
SPECIMEN MASS,1.07
SCAN TIME,0.25
O2 DELAY TIME,11
CO DELAY TIME,11
CO2 DELAY TIME,8
FLOW FACTOR,1
SCAN COUNT,543
TIME TO IGN,3.25
END OF TEST SCAN,63
END OF TEST TIME,15.75
TEST STATUS,1
PRE TEST CMT,Thickness: 0.19 mm; with frame; with calcium silicate substrate

File: Cotton_Sheet_Cone_HF50Scan_220429_R1.csv
Names,Time,Stack TC,Smoke TC,Exh Press,Smoke Comp,Smoke Meas,CO Meter,CO2 Meter,O2 Meter,Sample Mass,Ext Coeff,Start Test,Flame Verif
Chan Gain,,500,500,1,1,1,1,1,1,1,1,1.0,1.0
Offset,,0,0,0.138979,0,0,0,0,0,0,0,0.0,0.0
Gain,,1,1,25.011,14.099,15.1965,1,1,1,1.00087,0.986176,1.0,1.0
Units,sec,C,C,Pa,%,%,%,%,%,g,/m,,
Baseline,,28.4617,29.526,150.523,105.857,102.552,0.000905541,0.0496726,21.0311,-834.625,0.274385,,
6,1.25,26.4835,27.3747,150.474,104.366,100.388,0.00116006,0.0599257,20.9975,186.212,0.336203,0.0,0.0
12,2.75,25.962,27.1643,128.529,104.357,104.709,0.00142043,0.107316,20.9106,186.012,-0.0291367,0.0,1.0
18,4.25,26.7315,27.3708,118.102,104.367,106.265,0.00178054,0.211151,20.7882,185.721,-0.155877,0.0,1.0
24,5.75,29.2166,28.9277,126.862,104.343,104.7,0.0024392,0.32963,20.7166,185.621,-0.0295469,0.0,1.0
30,7.25,31.8434,31.7909,138.551,104.36,102.933,0.00321479,0.380131,20.7047,185.431,0.119119,0.0,1.0
36,8.75,32.1345,33.1196,144.865,104.357,102.011,0.00431879,0.360433,20.7532,185.461,0.196698,0.0,0.0
42,10.25,32.886,33.782,151.589,104.357,101.311,0.00541435,0.300906,20.8145,185.471,0.256291,0.0,0.0
48,11.75,32.4308,33.2958,147.806,104.339,101.264,0.00644302,0.238415,20.8711,185.431,0.258753,0.0,0.0
54,13.25,32.6874,33.8727,149.229,104.353,101.233,0.00703145,0.190244,20.9128,185.431,0.26255,0.0,0.0
60,14.75,32.7309,33.6031,147.318,104.345,101.235,0.00703435,0.153025,20.9445,185.441,0.261784,0.0,0.0
66,16.25,32.5842,33.7995,142.893,104.363,101.199,0.00612197,0.125622,20.9728,185.421,0.266302,0.0,0.0
72,17.75,31.7411,33.1462,148.887,104.336,101.153,0.00528004,0.104533,20.9895,185.421,0.268013,0.0,0.0
78,19.25,32.2256,33.0068,152.07,104.349,101.011,0.00432395,0.0866627,21.004,185.421,0.281268,0.0,0.0
84,20.75,31.6576,32.3099,149.737,104.346,101.337,0.00335218,0.0765187,21.0146,185.411,0.253105,0.0,0.0
90,22.25,31.4773,32.7338,150.465,104.355,101.263,0.00256171,0.0677391,21.022,185.411,0.260192,0.0,0.0
96,23.75,31.2437,32.1797,146.575,104.342,100.863,0.00190352,0.0619275,21.0259,185.401,0.293375,0.0,0.0
102,25.25,30.7453,32.4165,157.16,104.36,101.125,0.00145767,0.0581379,21.029,185.411,0.27243,0.0,0.0
108,26.75,31.2123,32.0074,151.871,104.334,101.282,0.00116064,0.0558996,21.0307,185.411,0.256855,0.0,0.0
114,28.25,30.6711,32.2016,151.57,104.362,101.125,0.00102161,0.0545143,21.0317,185.401,0.272573,0.0,0.0
120,29.75,30.1707,31.2408,147.936,104.348,101.154,0.000957932,0.0533741,21.0322,185.401,0.268897,0.0,0.0
126,31.25,30.1585,31.6521,150.864,104.361,101.18,0.000867627,0.0523754,21.033,185.381,0.267782,0.0,0.0
132,32.75,30.725,31.5925,152.503,104.363,101.122,0.00071796,0.0515707,21.034,185.401,0.272958,0.0,0.0
138,34.25,30.5389,31.6766,150.639,104.367,101.119,0.000578401,0.051,21.0342,185.401,0.273477,0.0,0.0
144,35.75,30.5083,31.6744,144.22,104.347,101.311,0.000528713,0.0506214,21.0339,185.411,0.255427,0.0,0.0
150,37.25,29.7261,31.0263,155.228,104.346,101.227,0.000592778,0.0501942,21.0337,185.391,0.262529,0.0,0.0
156,38.75,30.152,31.3501,152.442,104.363,101.01,0.000650214,0.0498453,21.0342,185.391,0.282564,0.0,0.0
162,40.25,29.827,31.4278,152.735,104.368,101.19,0.00065573,0.0495418,21.035,185.391,0.267444,0.0,0.0
168,41.75,29.6742,30.6787,148.746,104.368,101.188,0.00060751,0.0493093,21.0354,185.381,0.267682,0.0,0.0
174,43.25,29.6876,31.0979,147.222,104.361,101.211,0.000538884,0.0489963,21.0356,185.391,0.265165,0.0,0.0
180,44.75,29.7356,31.1534,150.379,104.363,101.074,0.000480794,0.0486896,21.0357,185.381,0.276973,0.0,0.0
186,46.25,29.7488,30.9115,151.372,104.353,101.102,0.000444632,0.0482896,21.036,185.381,0.273772,0.0,0.0
192,47.75,29.6994,30.9386,148.069,104.357,101.29,0.000442723,0.0479005,21.0363,185.361,0.258108,0.0,0.0
198,49.25,29.4606,31.0094,148.614,104.342,101.165,0.000462296,0.0476632,21.0365,185.351,0.267445,0.0,0.0
204,50.75,29.3691,31.1897,149.092,104.349,101.118,0.000495902,0.0476048,21.0358,185.371,0.272101,0.0,0.0
210,52.25,29.6612,30.8959,149.362,104.338,101.243,0.000529961,0.0475416,21.0351,185.381,0.2605,0.0,0.0
216,53.75,29.0858,30.4473,149.72,104.342,101.149,0.000584732,0.0474121,21.0348,185.371,0.268909,0.0,0.0
222,55.25,28.8469,30.7764,149.495,104.338,101.209,0.000649484,0.0472721,21.0346,185.381,0.263397,0.0,0.0
228,56.75,29.0472,29.641,150.992,104.353,101.5,0.000720477,0.0471246,21.0346,185.361,0.239752,0.0,0.0
234,58.25,28.8946,30.0942,147.511,104.343,101.213,0.00080707,0.0471,21.0347,185.371,0.263509,0.0,0.0
240,59.75,29.0952,30.3411,144.996,104.363,101.407,0.000869014,0.0470738,21.0347,185.361,0.248556,0.0,0.0
246,61.25,28.705,29.7154,147.513,104.35,101.317,0.000851703,0.0470602,21.0348,185.361,0.255204,0.0,0.0
252,62.75,29.3004,30.3268,148.942,104.356,101.041,0.000793911,0.0470309,21.0348,185.351,0.279261,0.0,0.0
258,64.25,29.0529,29.8869,151.379,104.34,101.002,0.000746985,0.0470281,21.0348,185.321,0.281238,0.0,0.0
264,65.75,29.0557,30.4519,150.308,104.354,101.062,0.000673912,0.0470216,21.0348,185.331,0.277367,0.0,0.0
270,67.25,29.2584,29.5276,150.791,104.347,101.089,0.000601206,0.0469312,21.0348,185.351,0.274344,0.0,0.0
276,68.75,28.6504,29.7341,150.739,104.361,101.286,0.000503834,0.0468796,21.0348,185.351,0.25871,0.0,0.0
282,70.25,28.695,29.8769,149.173,104.356,101.055,0.000452314,0.0468318,21.0348,185.351,0.278066,0.0,0.0
288,71.75,28.5754,30.2757,148.807,104.36,101.217,0.000434541,0.0467224,21.0359,185.351,0.264543,0.0,0.0
294,73.25,28.8563,29.7059,147.868,104.356,101.158,0.000405778,0.0465771,21.0365,185.351,0.269297,0.0,0.0
300,74.75,28.5042,29.9761,154.398,104.365,101.228,0.000381743,0.046529,21.0367,185.331,0.264024,0.0,0.0
306,76.25,28.3937,29.5408,151.535,104.366,101.342,0.000343955,0.0466215,21.0369,185.351,0.254351,0.0,0.0
312,77.75,28.8072,29.7996,152.525,104.367,101.031,0.000336417,0.0467224,21.037,185.341,0.281057,0.0,0.0
318,79.25,28.5428,30.1831,152.399,104.376,101.104,0.000401337,0.0469215,21.036,185.321,0.275535,0.0,0.0
324,80.75,28.3683,30.0494,150.706,104.363,101.235,0.00052506,0.0470837,21.0354,185.331,0.263243,0.0,0.0
330,82.25,28.1416,29.6623,151.831,104.385,101.266,0.000652212,0.0472434,21.0351,185.331,0.26245,0.0,0.0
336,83.75,28.5894,29.875,150.983,104.369,101.381,0.000760396,0.0473692,21.035,185.331,0.251312,0.0,0.0
342,85.25,28.2154,29.76,146.666,104.397,101.114,0.000791794,0.0475293,21.0341,185.311,0.276337,0.0,0.0
348,86.75,28.4767,29.9698,151.892,104.383,101.301,0.000693797,0.0477229,21.0334,185.311,0.259262,0.0,0.0
354,88.25,28.5175,30.0241,150.173,104.394,101.178,0.000562799,0.047878,21.033,185.311,0.27069,0.0,0.0
360,89.75,28.0418,29.4499,153.267,104.386,100.959,0.000438733,0.0480983,21.0328,185.301,0.288749,0.0,0.0
366,91.25,28.4135,29.7249,149.218,104.405,101.194,0.000457794,0.0482144,21.0326,185.301,0.270269,0.0,0.0
372,92.75,28.1078,30.0312,147.914,104.401,101.435,0.000572041,0.0482135,21.0315,185.281,0.249321,0.0,0.0
378,94.25,27.8439,29.592,151.223,104.413,101.334,0.000670822,0.0483455,21.0309,185.301,0.258982,0.0,0.0
384,95.75,27.7996,29.7462,155.113,104.41,101.202,0.000686453,0.048514,21.0306,185.291,0.269943,0.0,0.0
390,97.25,28.0256,29.3209,150.159,104.436,101.239,0.000610278,0.0487193,21.0304,185.311,0.268916,0.0,0.0
396,98.75,28.4142,29.5317,147.285,104.416,101.272,0.000494914,0.0489272,21.0303,185.301,0.264502,0.0,0.0
402,100.25,28.1622,29.6197,149.706,104.452,101.453,0.000427513,0.0491008,21.0303,185.301,0.252017,0.0,0.0
408,101.75,28.5165,29.7377,152.444,104.436,101.109,0.000437016,0.0494066,21.0302,185.301,0.280094,0.0,0.0
414,103.25,28.3946,30.0111,151.858,104.462,101.093,0.000555039,0.0497516,21.0294,185.301,0.283546,0.0,0.0
420,104.75,28.2629,29.7669,151.572,104.459,101.457,0.000632524,0.0499754,21.0287,185.291,0.25227,0.0,0.0
426,106.25,28.3481,29.3529,147.61,104.483,101.235,0.000640323,0.0501637,21.0283,185.281,0.273187,0.0,0.0
432,107.75,28.3463,29.2639,153.227,104.487,101.369,0.000611928,0.0503563,21.0281,185.291,0.262106,0.0,0.0
438,109.25,28.2493,29.9351,151.394,104.488,101.355,0.00055445,0.0505081,21.028,185.281,0.263325,0.0,0.0
444,110.75,28.2733,29.8209,152.335,104.501,101.443,0.000454571,0.0506343,21.0273,185.271,0.256877,0.0,0.0
450,112.25,27.8413,29.4947,149.214,104.493,101.461,0.000425176,0.0506988,21.0265,185.271,0.254769,0.0,0.0
456,113.75,28.4119,29.1506,151.422,104.517,101.242,0.000474005,0.0506853,21.0261,185.261,0.275411,0.0,0.0
462,115.25,27.8572,29.3633,149.543,104.522,101.536,0.00052769,0.0506794,21.0259,185.261,0.250716,0.0,0.0
468,116.75,28.4312,29.5037,155.192,104.541,101.234,0.000486087,0.0508205,21.0257,185.271,0.278039,0.0,0.0
474,118.25,28.4707,29.7535,149.058,104.554,101.267,0.000444386,0.0509337,21.0252,185.271,0.276337,0.0,0.0
480,119.75,28.4588,29.4124,149.638,104.573,101.342,0.000454521,0.0509733,21.0246,185.251,0.271489,0.0,0.0
486,121.25,28.1752,29.4252,150.668,104.57,101.345,0.000492331,0.050922,21.0253,185.251,0.270958,0.0,0.0
492,122.75,28.263,29.5521,152.25,104.598,101.469,0.00051901,0.0508158,21.0258,185.261,0.262749,0.0,0.0
498,124.25,28.579,29.1912,153.009,104.604,101.431,0.000553337,0.0507208,21.0261,185.261,0.266413,0.0,0.0
504,125.75,28.3851,29.2575,146.22,104.634,101.585,0.000532717,0.0507882,21.0262,185.251,0.255893,0.0,0.0
510,127.25,27.8685,29.3288,150.05,104.638,101.582,0.000393345,0.0508451,21.0262,185.241,0.256375,0.0,0.0
516,128.75,27.6925,29.3581,145.542,104.661,101.56,,0.050824,,185.231,0.260192,0.0,0.0
522,130.25,28.1732,29.8089,147.81,104.672,101.377,,0.0508693,,185.241,0.276734,0.0,0.0
528,131.75,28.7107,29.2792,147.136,104.69,101.713,,,,185.241,0.249624,0.0,0.0
534,133.25,28.1981,29.1203,149.896,104.708,101.446,,,,185.231,0.273751,0.0,0.0
540,134.75,27.9647,28.4792,149.158,104.725,101.529,,,,185.231,0.268176,0.0,0.0
546,136.25,28.3644,29.2489,151.501,104.728,101.87,,,,185.231,0.239316,0.0,0.0
552,137.75,28.5004,29.7065,149.424,104.769,101.72,,,,185.241,0.255535,0.0,0.0
555,138.5,28.1586,29.043,146.334,104.775,101.666,,,,185.241,0.260534,0.0,0.0