Folder: fsri_materials_database/01_Data/Cotton_Sheet/Cone (part 2)

File: Cotton_Sheet_Cone_HF50Scan_220429_R2.csv
Names,Time,Stack TC,Smoke TC,Exh Press,Smoke Comp,Smoke Meas,CO Meter,CO2 Meter,O2 Meter,Sample Mass,Ext Coeff,Start Test,Flame Verif
Chan Gain,,500,500,1,1,1,1,1,1,1,1,1.0,1.0
Offset,,0,0,0.138979,0,0,0,0,0,0,0,0.0,0.0
Gain,,1,1,25.011,14.099,15.1965,1,1,1,1.00087,0.986176,1.0,1.0
Units,sec,C,C,Pa,%,%,%,%,%,g,/m,,
Baseline,,29.7967,30.8535,149.34,105.37,102.121,0.000607553,0.0493121,21.0315,-835.101,0.270958,,
6,1.25,27.9039,28.7263,145.889,106.375,102.008,0.000930529,0.0508864,21.0175,180.467,0.362653,0.0,0.0
12,2.75,27.9675,28.7582,139.537,106.356,106.464,0.00137412,0.0956143,20.9518,180.317,-0.00880611,0.0,1.0
18,4.25,28.6325,29.519,122.919,106.304,108.734,0.00198012,0.215226,20.8279,179.826,-0.195489,0.0,1.0
24,5.75,30.2439,30.7369,112.958,106.185,107.981,0.00262987,0.352658,20.7337,179.626,-0.145066,0.0,1.0
30,7.25,33.2132,33.4065,142.801,106.055,104.972,0.0034587,0.413342,20.7074,179.596,0.0887791,0.0,1.0
36,8.75,34.245,34.6073,146.659,105.847,102.891,0.00441019,0.380874,20.7525,179.586,0.24502,0.0,0.0
42,10.25,34.6105,35.2165,145.589,105.635,102.894,0.00536912,0.313298,20.8098,179.566,0.227392,0.0,0.0
48,11.75,34.2837,35.4568,145.582,105.373,102.3,0.00624263,0.246157,20.866,179.566,0.255997,0.0,0.0
54,13.25,34.301,35.4232,148.975,105.135,101.942,0.00676645,0.189532,20.9153,179.546,0.26677,0.0,0.0
60,14.75,34.2438,35.5651,148.759,104.866,101.75,0.00682017,0.148518,20.9516,179.526,0.260927,0.0,0.0
66,16.25,34.0658,35.0566,152.682,104.653,101.766,0.00642577,0.120334,20.9762,179.496,0.241992,0.0,0.0
72,17.75,33.8155,35.1013,150.463,104.469,101.146,0.00555433,0.100819,20.9914,179.526,0.279629,0.0,0.0
78,19.25,33.5369,34.8096,149.402,104.339,101.04,0.00467479,0.0869856,21.0013,179.506,0.277945,0.0,0.0
84,20.75,33.5038,34.6133,151.357,104.256,100.81,0.0035589,0.0766311,21.0079,179.486,0.290814,0.0,0.0
90,22.25,32.5367,34.1603,151.14,104.242,100.972,0.00277085,0.068525,21.0133,179.476,0.275758,0.0,0.0
96,23.75,32.6139,33.974,151.189,104.266,101.088,0.00212876,0.0621664,21.0184,179.486,0.267714,0.0,0.0
102,25.25,32.4093,33.546,150.659,104.365,101.2,0.0017488,0.0586227,21.0211,179.486,0.266437,0.0,0.0
108,26.75,32.4758,33.7807,148.974,104.5,101.292,0.00149724,0.0556824,21.0234,179.476,0.269783,0.0,0.0
114,28.25,32.2006,34.2306,151.367,104.673,101.501,0.00126017,0.0537206,21.0248,179.466,0.266206,0.0,0.0
120,29.75,32.38,33.2338,147.435,104.838,102.269,0.00103997,0.0526358,21.0256,179.486,0.214647,0.0,0.0
126,31.25,31.8701,33.5247,146.401,105.015,101.94,0.000855471,0.0519794,21.0252,179.466,0.25708,0.0,0.0
132,32.75,31.8525,33.1612,149.852,105.185,101.829,0.000700573,0.0515147,21.0248,179.496,0.280484,0.0,0.0
138,34.25,31.8457,33.1843,148.868,105.318,102.06,0.00056904,0.051176,21.0245,179.476,0.271774,0.0,0.0
144,35.75,32.2731,33.5065,149.184,105.462,102.241,0.000501163,0.0509668,21.0244,179.476,0.268328,0.0,0.0
150,37.25,31.7325,33.0174,148.156,105.549,102.478,0.000473772,0.0509056,21.0243,179.446,0.255462,0.0,0.0
156,38.75,31.7767,33.4526,147.144,105.627,102.485,0.00043012,0.0509726,21.0235,179.486,0.26118,0.0,0.0
162,40.25,32.0191,33.1329,151.28,105.643,102.57,0.000366644,0.0509789,21.0227,179.456,0.255359,0.0,0.0
168,41.75,31.7024,33.1042,147.596,105.643,102.443,0.000337942,0.0510983,21.0223,179.466,0.266047,0.0,0.0
174,43.25,31.7821,33.0415,149.228,105.587,102.625,0.000389359,0.0510928,21.0237,179.466,0.246088,0.0,0.0
180,44.75,31.6727,33.3203,148.902,105.514,102.42,0.000451854,0.0510991,21.0244,179.456,0.257499,0.0,0.0
186,46.25,31.6174,33.0672,150.377,105.449,101.975,0.000507899,0.0511178,21.0247,179.476,0.289818,0.0,0.0
192,47.75,31.3925,32.9865,151.025,105.413,102.278,0.000569263,0.051133,21.0249,179.466,0.261126,0.0,0.0
198,49.25,31.4614,33.2337,147.175,105.385,102.227,0.000655087,0.0512325,21.025,179.456,0.263182,0.0,0.0
204,50.75,30.8087,32.2627,149.614,105.384,102.411,0.000702197,0.0513729,21.024,179.446,0.247513,0.0,0.0
210,52.25,31.2163,32.5048,148.361,105.303,102.06,0.000711708,0.0513635,21.0235,179.446,0.270611,0.0,0.0
216,53.75,31.0913,32.2,148.106,105.253,101.951,0.000745749,0.0513408,21.0232,179.416,0.275792,0.0,0.0
222,55.25,31.1792,32.4962,147.447,105.223,102.018,0.000808596,0.0513626,21.0233,179.436,0.267573,0.0,0.0
228,56.75,30.6451,32.3121,150.374,105.221,102.189,0.000852754,0.0515236,21.0242,179.456,0.252937,0.0,0.0
234,58.25,30.6796,31.9387,147.542,105.272,102.317,0.000837518,0.0516162,21.0246,179.436,0.246282,0.0,0.0
240,59.75,30.5858,31.7505,153.038,105.244,101.915,0.000762507,0.0514758,21.0249,179.426,0.278044,0.0,0.0
246,61.25,30.2922,32.2269,151.406,105.216,101.908,0.000723778,0.0513362,21.025,179.416,0.276336,0.0,0.0
252,62.75,30.8267,31.5411,149.161,105.197,101.969,0.000770824,0.0513017,21.0251,179.416,0.26966,0.0,0.0
258,64.25,30.1923,31.4231,148.238,105.328,102.326,0.000824197,0.0511665,21.0251,179.406,0.250163,0.0,0.0
264,65.75,30.0813,31.6742,149.631,105.511,102.719,0.000886455,0.0510443,21.0248,179.416,0.231985,0.0,0.0
270,67.25,31.0656,31.8039,145.038,105.678,102.44,0.000863624,0.0509947,21.0245,179.396,0.26921,0.0,0.0
276,68.75,29.7761,31.8024,147.938,105.805,102.508,0.000783476,0.0509284,21.0243,179.416,0.273839,0.0,0.0
282,70.25,30.1086,31.775,148.148,105.919,102.867,0.000691057,0.0509736,21.0243,179.476,0.252878,0.0,0.0
288,71.75,30.5354,31.9882,147.511,106.009,103.003,0.000634876,0.0510213,21.0236,179.416,0.248874,0.0,0.0
294,73.25,30.7389,31.803,148.852,106.078,102.678,0.000639554,0.0509181,21.0228,179.416,0.281837,0.0,0.0
300,74.75,30.4807,32.301,148.94,106.118,103.03,0.000666563,0.0508945,21.0223,179.406,0.255494,0.0,0.0
306,76.25,30.7476,31.8267,150.915,106.143,103.153,0.000711595,0.0509368,21.0221,179.406,0.247216,0.0,0.0
312,77.75,30.0516,31.7902,151.322,106.134,103.041,0.000707985,0.0509275,21.022,179.396,0.255822,0.0,0.0
318,79.25,30.2746,31.5688,149.442,106.14,102.962,0.000660285,0.0510244,21.0219,179.386,0.262932,0.0,0.0
324,80.75,30.1424,31.7398,146.335,106.12,103.204,0.000585685,0.0510571,21.0219,179.406,0.241041,0.0,0.0
330,82.25,30.3585,31.7171,151.179,106.092,102.736,0.000499897,0.0511534,21.0219,179.436,0.278037,0.0,0.0
336,83.75,30.5519,32.0137,149.281,106.033,103.015,0.00044398,0.0511754,21.0223,179.426,0.249828,0.0,0.0
342,85.25,30.0893,31.5083,148.292,105.99,103.12,0.000426136,0.0512587,21.0225,179.416,0.237445,0.0,0.0
348,86.75,30.319,31.3745,147.788,105.893,102.577,0.000437435,0.0513099,21.0226,179.426,0.275218,0.0,0.0
354,88.25,30.4875,31.6959,143.09,105.811,102.594,0.000478449,0.0512985,21.0227,179.416,0.267094,0.0,0.0
360,89.75,30.1786,31.8689,149.668,105.701,102.745,0.000502912,0.0512835,21.0228,179.446,0.245341,0.0,0.0
366,91.25,30.1477,31.8741,146.99,105.592,102.497,0.000516495,0.0513336,21.0219,179.426,0.257343,0.0,0.0
372,92.75,30.0238,31.1757,145.181,105.594,102.664,0.000546669,0.051378,21.0213,179.416,0.243409,0.0,0.0
378,94.25,29.898,31.3637,147.867,105.649,102.513,0.000647481,0.0514189,21.0206,179.406,0.260704,0.0,0.0
384,95.75,30.0584,31.1487,150.572,105.684,102.448,0.00072562,0.0514238,21.0202,179.396,0.269033,0.0,0.0
390,97.25,30.3057,31.1211,150.581,105.748,102.59,0.00074774,0.0515313,21.0199,179.366,0.262309,0.0,0.0
396,98.75,30.0388,31.0391,147.504,105.802,102.796,0.000689737,0.0516367,21.0198,179.396,0.249319,0.0,0.0
402,100.25,30.0052,31.2322,146.939,105.869,103.036,0.00064871,0.0516041,21.0198,179.396,0.23469,0.0,0.0
408,101.75,29.8961,31.2822,149.188,105.918,103.057,0.000659145,0.0515936,21.0197,179.396,0.236907,0.0,0.0
414,103.25,29.3215,30.903,148.687,105.985,102.959,0.000711997,0.0514791,21.0197,179.396,0.250569,0.0,0.0
420,104.75,29.8066,31.5292,144.693,106.057,103.205,0.000777834,0.051522,21.0197,179.376,0.235732,0.0,0.0
426,106.25,30.2914,30.9522,149.437,106.118,102.726,0.000808837,0.0515766,21.0206,179.346,0.280997,0.0,0.0
432,107.75,29.7359,31.0662,148.587,106.182,103.34,0.000717305,0.0515156,21.0213,179.376,0.234669,0.0,0.0
438,109.25,29.4888,31.2566,149.4,106.23,102.967,0.000575731,0.0514305,21.0216,179.376,0.269941,0.0,0.0
444,110.75,29.9606,31.2492,147.731,106.286,103.327,0.000448868,0.051459,21.0214,179.366,0.244312,0.0,0.0
450,112.25,29.4625,31.4332,153.627,106.324,103.229,0.000418717,0.0514423,21.021,179.356,0.25559,0.0,0.0
456,113.75,29.938,31.4172,149.566,106.379,103.663,0.000463408,0.0515634,21.0219,179.346,0.223696,0.0,0.0
462,115.25,29.489,31.0289,151.827,106.387,103.391,0.00063306,0.0516499,21.0223,179.336,0.247146,0.0,0.0
468,116.75,30.5352,31.3265,145.14,106.447,103.419,0.000753108,0.0516201,21.0226,179.336,0.249638,0.0,0.0
474,118.25,29.6663,31.1714,147.773,106.448,103.703,0.00078093,0.0514882,21.0227,179.346,0.226003,0.0,0.0
480,119.75,30.1548,31.3366,147.036,106.468,103.48,0.000694744,0.0514232,21.0228,179.346,0.246275,0.0,0.0
486,121.25,29.5157,30.4489,151.43,106.485,103.41,0.000565457,0.0515226,21.0228,179.326,0.253565,0.0,0.0
492,122.75,30.2662,31.1958,151.599,106.478,103.535,0.00046161,0.051518,21.0228,179.346,0.242463,0.0,0.0
498,124.25,29.9634,31.0643,149.4,106.479,103.351,0.000471069,0.0514867,21.0229,179.336,0.257968,0.0,0.0
504,125.75,30.2361,31.3788,144.384,106.484,103.504,0.000594828,0.0515683,21.0233,179.326,0.245553,0.0,0.0
510,127.25,29.6384,31.3567,148.654,106.463,103.304,0.000767092,0.051529,21.0235,179.346,0.260522,0.0,0.0
516,128.75,29.7657,31.5227,149.33,106.458,103.532,0.000925855,0.0515093,21.0236,179.316,0.241091,0.0,0.0
522,130.25,29.6715,30.9244,150.321,106.424,103.414,,0.0515429,,179.336,0.248212,0.0,0.0
528,131.75,30.6266,30.9389,150.059,106.413,103.477,,0.0516581,,179.326,0.242028,0.0,0.0
534,133.25,30.1913,31.2484,148.829,106.379,103.362,,,,179.316,0.248923,0.0,0.0
540,134.75,29.8152,31.2045,148.471,106.348,103.275,,,,179.316,0.25363,0.0,0.0
546,136.25,29.8662,30.9008,147.928,106.308,103.711,,,,179.306,0.214009,0.0,0.0
552,137.75,30.4329,31.4597,149.463,106.271,103.261,,,,179.296,0.248562,0.0,0.0
558,139.25,29.7215,30.7412,148.654,106.223,103.163,,,,179.286,0.252876,0.0,0.0
564,140.75,29.6502,31.3325,149.574,106.19,102.986,,,,179.306,0.26505,0.0,0.0

File: Cotton_Sheet_Cone_HF75Scalar_220429_R2.csv
LABORATORY,FSRI
TEST IDENT,Cotton_Sheet_HF_75_2
OPERATOR,Dow
MATERIAL,Cotton Sheet
ORIENTATION,Horizontal
HEAT FLUX,75
SURF AREA,0.00884
C FACTOR,0.0415476
SPEC HOLDER DIFF,-566
SPECIMEN MASS,1.06
SCAN TIME,0.25
O2 DELAY TIME,11
CO DELAY TIME,11
CO2 DELAY TIME,8
FLOW FACTOR,1
SCAN COUNT,536
TIME TO IGN,2.25
END OF TEST SCAN,56
END OF TEST TIME,14
TEST STATUS,1
PRE TEST CMT,Thickness: 0.19 mm; with frame; with calcium silicate substrate

File: Cotton_Sheet_Cone_HF75Scalar_220429_R3.csv
LABORATORY,FSRI
TEST IDENT,Cotton_Sheet_HF_75_3
OPERATOR,Dow
MATERIAL,Cotton Sheet
ORIENTATION,Horizontal
HEAT FLUX,75
SURF AREA,0.00884
C FACTOR,0.0415476
SPEC HOLDER DIFF,-566
SPECIMEN MASS,1.06
SCAN TIME,0.25
O2 DELAY TIME,11
CO DELAY TIME,11
CO2 DELAY TIME,8
FLOW FACTOR,1
SCAN COUNT,531
TIME TO IGN,1.75
END OF TEST SCAN,51
END OF TEST TIME,12.75
TEST STATUS,1
PRE TEST CMT,Thickness: 0.20 mm; with frame; with calcium silicate substrate

File: Cotton_Sheet_Cone_HF75Scan_220429_R3.csv
Names,Time,Stack TC,Smoke TC,Exh Press,Smoke Comp,Smoke Meas,CO Meter,CO2 Meter,O2 Meter,Sample Mass,Ext Coeff,Start Test,Flame Verif
Chan Gain,,500,500,1,1,1,1,1,1,1,1,1.0,1.0
Offset,,0,0,0.138979,0,0,0,0,0,0,0,0.0,0.0
Gain,,1,1,25.011,14.099,15.1965,1,1,1,1.00087,0.986176,1.0,1.0
Units,sec,C,C,Pa,%,%,%,%,%,g,/m,,
Baseline,,39.6371,41.1356,144.86,104.591,102.064,0.000629212,0.0498065,21.0219,-836.667,0.211615,,
6,1.25,37.0368,38.5975,157.135,104.774,100.23,0.00151307,0.0746056,20.9847,187.133,0.383545,0.0,0.0
12,2.75,37.1702,38.9633,113.11,104.78,107.17,0.00220129,0.216032,20.831,186.882,-0.195087,0.0,1.0
18,4.25,39.593,40.6019,115.334,104.773,104.209,0.00300171,0.393208,20.7307,186.632,0.0467628,0.0,1.0
24,5.75,43.6191,43.6369,134.417,104.793,103.701,0.00387493,0.453262,20.6774,186.552,0.0906203,0.0,1.0
30,7.25,43.9841,44.3642,140.902,104.808,102.418,0.00497696,0.398646,20.7177,186.532,0.199577,0.0,0.0
36,8.75,43.2746,45.0978,142.079,104.784,102.163,0.00595053,0.318721,20.7929,186.522,0.219117,0.0,0.0
42,10.25,43.7605,44.9303,144.158,104.782,102.539,0.00657626,0.244438,20.8643,186.502,0.187229,0.0,0.0
48,11.75,43.2637,45.3243,136.406,104.78,102.543,0.00670278,0.185288,20.915,186.452,0.18666,0.0,0.0
54,13.25,43.0971,45.1357,141.778,104.789,102.28,0.00629864,0.144345,20.948,186.482,0.209653,0.0,0.0
60,14.75,42.5661,44.7295,142.502,104.787,102.132,0.00530806,0.114551,20.9749,186.482,0.221962,0.0,0.0
66,16.25,42.8594,44.4793,146.64,104.802,102.161,0.00424973,0.094075,20.9947,186.482,0.220809,0.0,0.0
72,17.75,42.9819,44.5068,147.035,104.795,102.294,0.00337089,0.0793824,21.0081,186.482,0.209012,0.0,0.0
78,19.25,42.7006,43.914,143.976,104.819,102.395,0.00274332,0.069305,21.0127,186.502,0.202457,0.0,0.0
84,20.75,42.3267,43.8389,148.874,104.818,102.35,0.00221662,0.0630293,21.0146,186.482,0.206112,0.0,0.0
90,22.25,41.4289,43.5226,145.791,104.838,102.479,0.00179136,0.0586122,21.0172,186.482,0.196859,0.0,0.0
96,23.75,41.5406,43.5632,142.327,104.827,102.114,0.0014679,0.0556758,21.0201,186.482,0.226831,0.0,0.0
102,25.25,41.6865,43.6778,142.257,104.849,102.34,0.00130062,0.0535724,21.0218,186.482,0.209534,0.0,0.0
108,26.75,41.129,43.2247,146.769,104.85,102.286,0.0011947,0.0520427,21.024,186.462,0.214186,0.0,0.0
114,28.25,41.5867,43.5306,142.093,104.868,102.123,0.00110726,0.0511699,21.0252,186.472,0.229458,0.0,0.0
120,29.75,41.1752,43.4571,144.999,104.867,102.533,0.000976531,0.0504303,21.0259,186.472,0.19469,0.0,0.0
126,31.25,41.24,43.2187,140.637,104.894,102.32,0.000832378,0.0497631,21.0262,186.442,0.214946,0.0,0.0
132,32.75,41.513,43.0531,143.204,104.891,102.18,0.000731684,0.0493114,21.0264,186.462,0.226583,0.0,0.0
138,34.25,41.1315,42.8712,144.517,104.924,102.478,0.000725049,0.0490942,21.0265,186.422,0.20407,0.0,0.0
144,35.75,41.3745,43.2624,142.983,104.918,102.4,0.000769873,0.0489155,21.0265,186.452,0.21015,0.0,0.0
150,37.25,40.9467,43.1651,147.038,104.95,102.457,0.000774819,0.0488604,21.0266,186.432,0.207957,0.0,0.0
156,38.75,40.773,43.1581,147.189,104.934,102.109,0.000709289,0.0487528,21.0266,186.412,0.236069,0.0,0.0
162,40.25,41.0745,42.5647,145.206,104.943,102.323,0.000649165,0.0486017,21.0266,186.402,0.218642,0.0,0.0
168,41.75,40.729,42.82,144.23,104.944,102.734,0.000628718,0.0485709,21.0266,186.412,0.184116,0.0,0.0
174,43.25,40.3432,42.7008,141.51,104.959,102.451,0.000619755,0.0485968,21.0255,186.412,0.209211,0.0,0.0
180,44.75,41.1878,42.5663,142.358,104.963,102.382,0.000577461,0.0486299,21.0241,186.422,0.21537,0.0,0.0
186,46.25,40.2639,42.2679,146.414,104.981,102.638,0.000585531,0.0486908,21.0231,186.422,0.195253,0.0,0.0
192,47.75,40.1092,42.3841,146.621,104.983,102.472,0.000605785,0.0488434,21.0221,186.422,0.209437,0.0,0.0
198,49.25,40.1423,42.2758,146.907,104.99,102.776,0.00061386,0.0490675,21.021,186.392,0.1844,0.0,0.0
204,50.75,41.0379,41.572,143.007,104.984,102.793,0.000624633,0.0492242,21.0204,186.392,0.182455,0.0,0.0
210,52.25,39.8967,41.7884,145.571,104.996,102.964,0.000669327,0.0492448,21.02,186.362,0.169058,0.0,0.0
216,53.75,40.2924,42.2563,147.171,105.001,102.81,0.00073013,0.0493049,21.0208,186.352,0.182468,0.0,0.0
222,55.25,40.3987,41.8729,143.789,105.012,102.644,0.000754704,0.0493482,21.0214,186.382,0.197261,0.0,0.0
228,56.75,39.7918,42.0302,144.68,105.052,102.412,0.000757658,0.0493568,21.0216,186.362,0.220156,0.0,0.0
234,58.25,40.0711,42.0875,140.025,105.014,102.486,0.000772165,0.0492239,21.0219,186.352,0.210812,0.0,0.0
240,59.75,40.2272,42.0707,144.438,105.029,102.278,0.000775934,0.0490233,21.0223,186.392,0.229607,0.0,0.0
246,61.25,39.5139,41.7849,142.031,105.024,102.584,0.000755457,0.048838,21.0226,186.352,0.203375,0.0,0.0
252,62.75,40.4494,41.5998,144.332,105.038,102.439,0.000709658,0.0487651,21.0227,186.362,0.216751,0.0,0.0
258,64.25,39.9115,42.2181,139.391,105.037,102.405,0.000680064,0.0486768,21.023,186.342,0.219508,0.0,0.0
264,65.75,39.5723,40.7976,142.821,105.051,103.026,0.000673172,0.0485923,21.0242,186.312,0.168304,0.0,0.0
270,67.25,40.0747,41.4322,142.886,105.024,102.606,0.000658491,0.0483679,21.0249,186.322,0.201495,0.0,0.0
276,68.75,39.7366,41.1986,144.871,105.047,102.56,0.000628228,0.0483379,21.0252,186.322,0.207244,0.0,0.0
282,70.25,39.6355,41.5544,142.023,105.038,102.737,0.000615482,0.0483939,21.025,186.322,0.191649,0.0,0.0
288,71.75,38.9337,41.4044,140.972,105.062,102.636,0.000699474,0.0484364,21.0241,186.352,0.202072,0.0,0.0
294,73.25,39.7591,41.7403,143.377,105.061,102.343,0.000824049,0.0485604,21.0243,186.352,0.22674,0.0,0.0
300,74.75,39.4919,41.353,146.939,105.069,102.252,0.000980299,0.0487302,21.0245,186.372,0.235028,0.0,0.0
306,76.25,39.4092,41.1768,147.166,105.063,102.577,0.00103525,0.0488827,21.0246,186.362,0.207187,0.0,0.0
312,77.75,39.4523,41.7018,142.883,105.082,102.399,0.00103413,0.0490296,21.0247,186.332,0.223738,0.0,0.0
318,79.25,39.6117,41.3759,145.079,105.082,102.535,0.000974297,0.0489563,21.0236,186.322,0.212265,0.0,0.0
324,80.75,39.5688,41.3777,145.252,105.084,102.704,0.000896449,0.0488737,21.0231,186.332,0.198212,0.0,0.0
330,82.25,39.632,41.2162,146.191,105.089,102.911,0.000819723,0.0489086,21.0228,186.302,0.181194,0.0,0.0
336,83.75,38.8695,40.9161,140.723,105.095,102.521,0.000744231,0.0490296,21.0226,186.282,0.214499,0.0,0.0
342,85.25,39.4305,41.4598,143.29,105.093,102.587,0.000669093,0.0490589,21.0225,186.302,0.208767,0.0,0.0
348,86.75,38.9453,41.1883,145.437,105.102,102.58,0.000608764,0.0491002,21.0225,186.282,0.210096,0.0,0.0
354,88.25,39.3649,41.0328,144.601,105.1,102.697,0.000591087,0.0492369,21.0235,186.272,0.200105,0.0,0.0
360,89.75,39.6491,41.0116,143.048,105.107,102.559,0.000611408,0.0493248,21.024,186.282,0.212246,0.0,0.0
366,91.25,39.8506,41.4211,148.984,105.119,102.447,0.000630794,0.0493609,21.0243,186.292,0.222749,0.0,0.0
372,92.75,39.4688,41.2422,145.055,105.11,102.672,0.000643127,0.049472,21.0244,186.292,0.203068,0.0,0.0
378,94.25,39.7713,41.2007,146.283,105.119,102.592,0.000696901,0.049503,21.0245,186.292,0.210461,0.0,0.0
384,95.75,39.7776,41.1251,142.858,105.122,102.172,0.000783461,0.0494844,21.0245,186.302,0.246246,0.0,0.0
390,97.25,38.9714,41.5477,144.748,105.143,102.559,0.000774535,0.0495576,21.0246,186.292,0.215334,0.0,0.0
396,98.75,39.7269,40.9792,141.635,105.129,102.64,0.000675724,0.0496299,21.0246,186.272,0.207323,0.0,0.0
402,100.25,38.9771,41.0237,145.94,105.156,102.244,0.000545603,0.0496297,21.0246,186.252,0.242958,0.0,0.0
408,101.75,39.8296,41.4791,146.387,105.164,102.376,0.000476068,0.0495869,21.0246,186.252,0.232385,0.0,0.0
414,103.25,40.0384,40.7054,142.194,105.176,102.593,0.00050144,0.0494219,21.0246,186.262,0.215094,0.0,0.0
420,104.75,39.3624,41.1301,144.92,105.166,102.558,0.000564163,0.0491912,21.0246,186.262,0.217214,0.0,0.0
426,106.25,40.0872,41.1263,146.298,105.187,103.006,0.000566468,0.0489314,21.0246,186.272,0.181278,0.0,0.0
432,107.75,39.1506,41.3576,141.893,105.18,102.469,0.00052613,0.0486688,21.0252,186.262,0.225931,0.0,0.0
438,109.25,39.3729,41.0067,142.242,105.2,102.879,0.000517303,0.048486,21.026,186.272,0.193057,0.0,0.0
444,110.75,39.611,41.2831,145.601,105.194,102.779,0.000619512,0.0483115,21.0262,186.242,0.200949,0.0,0.0
450,112.25,39.9026,40.9359,146.379,105.206,102.815,0.00078154,0.0482656,21.0266,186.242,0.198899,0.0,0.0
456,113.75,39.9104,41.1506,143.838,105.206,102.931,0.000877439,0.0482465,21.0268,186.292,0.189071,0.0,0.0
462,115.25,39.1528,41.1395,143.056,105.232,102.509,0.00089705,0.0481782,21.027,186.272,0.226774,0.0,0.0
468,116.75,39.6423,40.8262,139.215,105.206,102.612,0.000870526,0.0480905,21.027,186.272,0.215968,0.0,0.0
474,118.25,39.1772,41.1609,142.181,105.23,103.054,0.000803513,0.0480285,21.0271,186.262,0.18077,0.0,0.0
480,119.75,39.0899,41.1967,144.918,105.218,102.633,0.000755226,0.0480832,21.0271,186.192,0.215201,0.0,0.0
486,121.25,39.5768,40.5375,144.248,105.245,102.971,0.000751447,0.0480221,21.0271,186.212,0.188975,0.0,0.0
492,122.75,39.2655,41.5154,140.39,105.236,102.866,,0.0481451,,186.202,0.19712,0.0,0.0
498,124.25,39.6139,41.1535,145.914,105.248,103.102,,0.0482023,,186.182,0.178211,0.0,0.0
504,125.75,39.3844,40.8276,142.457,105.264,102.9,,,,186.172,0.196498,0.0,0.0
510,127.25,39.5609,40.8309,146.807,105.259,103.12,,,,186.192,0.177649,0.0,0.0
516,128.75,39.5504,40.8401,142.633,105.27,102.715,,,,186.172,0.21256,0.0,0.0
522,130.25,39.7147,41.2453,141.494,105.268,102.996,,,,186.182,0.188749,0.0,0.0
528,131.75,39.349,40.7934,145.905,105.288,102.825,,,,186.152,0.204795,0.0,0.0
531,132.5,39.458,41.6585,146.808,105.279,102.87,,,,186.202,0.20027,0.0,0.0