Folder: fsri_materials_database/01_Data/Cotton_Sheet/HFM

Note: 01_Data/README.md
# Materials and Products Database
## 01_Data

Raw data generated from each apparatus are included here in plain-text format. The data is organized first by material, next by the short name of test apparatus used, and where applicable additional filtering by test settings.

### material.json

Each material directory contains a json file of the same name as the material. This file links the data stored in the repository as well as data and graphs produced by the accompanying scripts (__02_Scripts__) to the respective landing page for the material on the front-end website.

File: Cotton_Sheet_Density_Dry_R1.csv
,Cotton_Sheet_DRY_1
Sample Mass [g],4.5
Sample Volume [cm3],8.1
Sample Density [kg/m3],562

File: Cotton_Sheet_Density_Dry_R2.csv
,Cotton_Sheet_DRY_2
Sample Mass [g],4.4
Sample Volume [cm3],7.9
Sample Density [kg/m3],561

File: Cotton_Sheet_Density_Dry_R3.csv
,Cotton_Sheet_DRY_3
Sample Mass [g],4.6
Sample Volume [cm3],8.1
Sample Density [kg/m3],562

File: Cotton_Sheet_Density_Wet_R1.csv
,Cotton_Sheet_WET_1
Sample Mass [g],4.7
Sample Volume [cm3],8.1
Sample Density [kg/m3],478

File: Cotton_Sheet_Density_Wet_R2.csv
,Cotton_Sheet_WET_2
Sample Mass [g],4.6
Sample Volume [cm3],7.9
Sample Density [kg/m3],585

File: Cotton_Sheet_Density_Wet_R3.csv
,Cotton_Sheet_WET_3
Sample Mass [g],4.8
Sample Volume [cm3],8.1
Sample Density [kg/m3],587