Folder: fsri_materials_database/01_Data/Cotton_Sheet/MCC

Note: 01_Data/README.md
# Materials and Products Database
## 01_Data

Raw data generated from each apparatus are included here in plain-text format. The data is organized first by material, next by the short name of test apparatus used, and where applicable additional filtering by test settings.

### material.json

Each material directory contains a json file of the same name as the material. This file links the data stored in the repository as well as data and graphs produced by the accompanying scripts (__02_Scripts__) to the respective landing page for the material on the front-end website.

File: Cotton_Sheet_MCC_30K_min_220107_R1.txt
Sample ID:	C:\MCC\MCC Cal\Test\Cotton_Sheets_MCC_30K_min_220107_R1.txt
Sample Weight (mg):	4.99
Heating Rate (C/s):	0.5
Combustor Temp (C):	900
N2 Flow Rate (cc/min):	80
O2 Flow Rate (cc/min):	20
Calibration File:	C:\MCC\MCC Cal\Coeff1 JN10440_30_210304.txt.txt
T Correction Coefficients:	0	1.024463	0
Time Shift (s):	14
*
Time (s)	Temperature (C)	N2 flow rate (cc/min)	O2 flow rate (cc/min)	Flow Rate (cc/min)	Oxygen (%)	HRR (W/g)	Heating rate (C/s)
-0.001	110.551	80.006	19.993	104.150	20.024	0.187	0.012
8.001	110.555	80.006	19.994	104.106	20.030	-0.243	0.016
15.999	110.534	80.005	19.994	104.127	20.026	0.059	-0.007
23.999	110.762	80.006	19.993	104.245	20.008	1.201	0.036
31.999	111.367	80.007	19.994	104.315	19.998	1.834	0.091
39.999	112.464	80.007	19.993	104.301	19.992	2.253	0.156
48.000	114.008	80.008	19.994	104.326	19.990	2.402	0.209
55.999	115.809	80.006	19.993	104.337	19.988	2.496	0.253
63.999	118.013	80.007	19.994	104.353	19.993	2.178	0.290
71.999	120.377	80.006	19.994	104.338	19.991	2.347	0.299
80.001	123.042	80.005	19.994	104.364	19.983	2.865	0.334
88.000	125.908	80.005	19.995	104.372	19.980	3.018	0.405
95.999	128.968	80.006	19.992	104.379	19.980	3.053	0.428
103.999	132.151	80.007	19.995	104.383	19.981	2.978	0.384
111.999	135.646	80.008	19.994	104.377	19.982	2.919	0.435
119.999	139.280	80.006	19.993	104.397	19.982	2.908	0.445
127.999	142.976	80.009	19.993	104.392	19.980	3.009	0.478
136.000	146.781	80.007	19.992	104.373	19.983	2.828	0.490
144.000	150.667	80.006	19.995	104.374	19.983	2.837	0.510
152.000	154.561	80.006	19.993	104.376	19.981	2.972	0.511
160.000	158.466	80.005	19.993	104.370	19.985	2.717	0.519
168.000	162.442	80.005	19.993	104.362	19.981	2.996	0.522
176.000	166.441	80.004	19.995	104.374	19.982	2.890	0.518
184.000	170.413	80.005	19.993	104.370	19.986	2.623	0.493
192.000	174.446	80.007	19.993	104.349	19.986	2.668	0.514
200.000	178.464	80.006	19.994	104.342	19.983	2.863	0.519
208.000	182.509	80.007	19.994	104.364	19.986	2.647	0.511
216.000	186.574	80.007	19.993	104.333	19.983	2.856	0.532
224.000	190.583	80.006	19.995	104.332	19.986	2.633	0.493
232.000	194.617	80.005	19.994	104.324	19.985	2.682	0.534
240.000	198.628	80.006	19.994	104.314	19.987	2.587	0.529
248.000	202.645	80.008	19.991	104.319	19.983	2.815	0.520
256.000	206.607	80.005	19.991	104.331	19.986	2.674	0.504
264.000	210.576	80.007	19.993	104.397	19.987	2.602	0.501
272.000	214.576	80.008	19.993	104.324	19.986	2.621	0.509
280.000	218.485	80.007	19.995	104.320	19.977	3.205	0.505
288.000	222.400	80.007	19.997	104.331	19.984	2.757	0.491
296.000	226.363	80.007	19.990	104.308	19.983	2.861	0.481
304.000	230.381	80.008	19.996	104.312	19.984	2.774	0.476
312.000	234.331	80.005	19.991	104.295	19.983	2.862	0.497
320.000	238.282	80.005	19.991	104.331	19.985	2.677	0.502
328.000	242.266	80.006	19.994	104.297	19.981	2.981	0.546
336.000	246.200	80.006	19.994	104.319	19.987	2.552	0.501
344.000	250.267	80.005	19.995	104.300	19.985	2.704	0.517
352.000	254.304	80.007	19.996	104.303	19.983	2.848	0.502
360.000	258.307	80.007	19.994	104.300	19.986	2.659	0.457
368.000	262.328	80.007	19.994	104.334	19.982	2.928	0.510
376.000	266.331	80.007	19.992	104.303	19.981	2.974	0.461
384.000	270.383	80.008	19.993	104.305	19.978	3.175	0.498
392.000	274.455	80.006	19.992	104.300	19.966	3.923	0.494
400.000	278.445	80.006	19.993	104.296	19.957	4.545	0.458
408.000	282.443	80.007	19.994	104.312	19.952	4.863	0.507
416.000	286.411	80.007	19.993	104.314	19.934	6.018	0.488
424.000	290.383	80.005	19.994	104.332	19.919	6.997	0.476
432.000	294.406	80.006	19.993	104.342	19.895	8.606	0.485
440.000	298.420	80.007	19.994	104.359	19.871	10.168	0.504
448.000	302.424	80.006	19.995	104.373	19.842	12.069	0.523
456.000	306.395	80.007	19.996	104.384	19.811	14.100	0.519
464.000	310.439	80.008	19.995	104.382	19.769	16.820	0.507
472.000	314.528	80.006	19.994	104.407	19.723	19.804	0.555
480.000	318.531	80.006	19.993	104.450	19.670	23.308	0.513
488.000	322.503	80.006	19.992	104.463	19.599	27.947	0.492
496.000	326.481	80.005	19.992	104.511	19.510	33.772	0.503
504.000	330.477	80.006	19.994	104.547	19.405	40.660	0.477
512.000	334.475	80.006	19.993	104.604	19.273	49.345	0.486
520.000	338.523	80.007	19.993	104.670	19.121	59.313	0.517
528.000	342.502	80.006	19.994	104.764	18.947	70.802	0.518
536.000	346.477	80.006	19.995	104.818	18.751	83.637	0.476
544.000	350.489	80.008	19.993	104.859	18.537	97.703	0.526
552.000	354.475	80.007	19.993	104.955	18.332	111.337	0.497
560.000	358.468	80.005	19.994	104.981	18.147	123.449	0.482
568.000	362.457	80.005	19.993	104.997	18.008	132.431	0.510
576.000	366.443	80.006	19.994	105.009	17.935	137.117	0.490
584.000	370.536	80.006	19.992	104.919	17.982	133.847	0.500
592.000	374.633	80.006	19.993	104.770	18.202	119.234	0.538
600.000	378.789	80.008	19.993	104.586	18.581	94.322	0.560
608.000	382.903	80.009	19.993	104.424	19.027	65.195	0.524
616.000	387.084	80.008	19.994	104.329	19.417	39.733	0.543
624.000	391.225	80.007	19.995	104.255	19.696	21.550	0.530
632.000	395.388	80.009	19.993	104.222	19.864	10.598	0.516
640.000	399.434	80.007	19.994	104.228	19.942	5.537	0.506
648.000	403.506	80.006	19.994	104.243	19.968	3.837	0.499
656.000	407.443	80.006	19.994	104.241	19.976	3.265	0.459
664.000	411.440	80.007	19.993	104.254	19.979	3.110	0.498
672.000	415.338	80.006	19.992	104.256	19.981	2.948	0.499
680.000	419.236	80.009	19.993	104.249	19.979	3.110	0.494
688.000	423.204	80.007	19.993	104.252	19.980	3.066	0.495
696.000	427.115	80.009	19.993	104.251	19.979	3.082	0.473
704.000	431.125	80.008	19.993	104.258	19.981	2.944	0.521
712.000	435.132	80.009	19.994	104.258	19.986	2.631	0.484
720.000	439.184	80.007	19.994	104.252	19.987	2.565	0.474
728.000	443.336	80.006	19.994	104.237	19.989	2.444	0.497
736.000	447.473	80.008	19.994	104.254	19.992	2.247	0.507
744.000	451.606	80.006	19.994	104.254	19.995	2.038	0.526
752.000	455.780	80.004	19.994	104.232	19.994	2.126	0.537
760.000	459.912	80.006	19.993	104.246	19.996	2.017	0.538
768.000	464.014	80.008	19.993	104.248	19.991	2.324	0.504
776.000	468.140	80.007	19.993	104.234	20.002	1.586	0.531
784.000	471.808	80.006	19.993	104.228	20.002	1.631	0.085
792.000	476.419	80.010	19.992	104.230	20.005	1.414	0.505
800.000	480.515	80.009	19.993	104.223	20.007	1.259	0.546
808.000	484.457	80.006	19.994	104.226	20.004	1.495	0.442
816.000	488.454	80.006	19.994	104.217	20.007	1.297	0.539
824.000	492.396	80.007	19.994	104.253	20.010	1.093	0.489
832.000	496.428	80.005	19.993	104.246	20.008	1.218	0.520
840.000	500.335	80.004	19.995	104.234	20.008	1.214	0.485
848.000	504.250	80.006	19.996	104.221	20.013	0.880	0.474
856.000	508.215	80.007	19.993	104.217	20.017	0.647	0.493
864.000	512.039	80.007	19.993	104.247	20.010	1.071	0.475
872.000	515.914	80.008	19.995	104.228	20.018	0.582	0.481
880.000	519.727	80.009	19.994	104.244	20.014	0.827	0.472
888.000	523.612	80.006	19.991	104.218	20.020	0.439	0.464
896.000	527.437	80.005	19.993	104.222	20.018	0.559	0.474
904.000	531.406	80.006	19.993	104.217	20.014	0.795	0.482
912.000	535.330	80.006	19.994	104.229	20.017	0.645	0.498
920.000	539.252	80.007	19.994	104.219	20.022	0.327	0.491
928.000	543.155	80.006	19.993	104.216	20.021	0.330	0.493
936.000	547.006	80.008	19.994	104.212	20.020	0.411	0.461
944.000	550.925	80.008	19.995	104.211	20.021	0.338	0.501
952.000	554.980	80.008	19.993	104.224	20.024	0.170	0.521
960.000	559.037	80.010	19.992	104.228	20.023	0.241	0.494
968.000	563.206	80.006	19.993	104.238	20.020	0.445	0.528
976.000	567.398	80.006	19.994	104.230	20.018	0.525	0.520
984.000	571.655	80.007	19.994	104.220	20.021	0.339	0.531
992.000	575.951	80.006	19.993	104.219	20.021	0.379	0.493
1000.000	580.177	80.005	19.995	104.216	20.021	0.377	0.524
1008.000	584.368	80.006	19.993	104.218	20.022	0.289	0.523
1016.000	588.537	80.007	19.994	104.218	20.025	0.091	0.476
1024.000	592.748	80.005	19.993	104.238	20.022	0.288	0.515
1032.000	596.930	80.007	19.994	104.219	20.025	0.132	0.510
1040.000	601.080	80.008	19.993	104.218	20.026	0.050	0.507
1047.999	605.189	80.007	19.993	104.208	20.022	0.325	0.530
1055.999	609.262	80.005	19.994	104.218	20.027	0.000	0.495
1063.999	613.285	80.005	19.995	104.218	20.029	-0.186	0.518
1071.999	617.231	80.007	19.993	104.216	20.028	-0.070	0.468
1079.999	621.084	80.005	19.992	104.216	20.029	-0.163	0.467
1087.999	624.922	80.005	19.994	104.215	20.024	0.188	0.447
1095.999	628.823	80.006	19.994	104.204	20.028	-0.109	0.482
1103.999	632.758	80.006	19.994	104.221	20.026	0.064	0.478
1111.999	636.926	80.005	19.992	104.220	20.034	-0.509	0.538
1119.999	641.102	80.008	19.994	104.218	20.030	-0.250	0.515
1127.999	645.477	80.007	19.993	104.206	20.030	-0.218	0.571
1135.999	649.616	80.006	19.993	104.213	20.037	-0.711	0.530
1143.999	653.688	80.007	19.994	104.212	20.036	-0.623	0.520
1151.999	657.701	80.006	19.994	104.215	20.033	-0.407	0.487
1160.000	661.689	80.006	19.994	104.218	20.032	-0.327	0.493
1167.999	665.745	80.006	19.993	104.225	20.031	-0.309	0.541
1176.000	669.760	80.008	19.993	104.220	20.033	-0.443	0.493
1183.999	673.854	80.007	19.994	104.216	20.035	-0.538	0.516
1191.999	677.983	80.006	19.994	104.206	20.032	-0.348	0.493
1199.999	682.115	80.007	19.994	104.206	20.032	-0.337	0.526
1207.999	686.160	80.009	19.993	104.213	20.037	-0.671	0.497
1215.999	690.394	80.005	19.994	104.214	20.039	-0.830	0.555
1223.999	694.532	80.005	19.993	104.192	20.032	-0.388	0.540
1231.999	698.581	80.008	19.993	104.219	20.040	-0.896	0.500
1239.999	702.521	80.006	19.992	104.202	20.036	-0.639	0.480
1247.999	706.335	80.006	19.993	104.201	20.041	-0.930	0.467
1255.999	710.074	80.006	19.992	104.219	20.036	-0.605	0.481
1263.999	713.827	80.011	19.994	104.185	20.039	-0.798	0.457
1271.999	717.675	80.006	19.993	104.201	20.038	-0.757	0.481
1279.999	721.631	80.007	19.994	104.216	20.039	-0.816	0.506
1287.999	725.925	80.011	19.993	104.211	20.035	-0.530	0.572
1296.000	730.441	80.005	19.992	104.217	20.029	-0.159	0.581
1303.999	735.213	80.006	19.995	104.229	20.033	-0.448	0.607
1311.999	740.127	80.007	19.995	104.236	20.036	-0.611	0.637
1315.499	742.286	80.007	19.994	104.231	20.037	-0.668	0.612

File: Cotton_Sheet_MCC_30K_min_220107_R2.txt
Sample ID:	C:\MCC\MCC Cal\Test\Cotton_Sheets_MCC_30K_min_220107_R2.txt
Sample Weight (mg):	4.97
Heating Rate (C/s):	0.5
Combustor Temp (C):	900
N2 Flow Rate (cc/min):	80
O2 Flow Rate (cc/min):	20
Calibration File:	C:\MCC\MCC Cal\Coeff1 JN10440_30_210304.txt.txt
T Correction Coefficients:	0	1.024463	0
Time Shift (s):	14
*
Time (s)	Temperature (C)	N2 flow rate (cc/min)	O2 flow rate (cc/min)	Flow Rate (cc/min)	Oxygen (%)	HRR (W/g)	Heating rate (C/s)
0.000	110.953	80.004	19.995	104.081	20.243	0.120	-0.142
8.000	110.966	80.004	19.993	104.068	20.243	0.106	0.046
16.000	110.912	80.003	19.993	104.065	20.243	0.167	-0.035
24.000	110.941	80.003	19.993	104.063	20.241	0.295	-0.035
32.000	111.011	80.004	19.993	104.065	20.238	0.448	0.037
40.000	111.027	80.004	19.994	104.102	20.237	0.530	0.052
48.000	110.996	80.003	19.993	104.100	20.230	0.957	-0.004
56.000	111.205	80.006	19.995	104.178	20.222	1.530	0.039
64.000	111.682	80.003	19.992	104.221	20.211	2.249	0.122
72.000	112.549	80.003	19.994	104.244	20.202	2.808	0.134
80.000	113.804	80.004	19.993	104.268	20.195	3.273	0.150
88.001	115.429	80.003	19.992	104.307	20.192	3.492	0.188
96.000	117.426	80.003	19.993	104.305	20.189	3.681	0.249
104.001	119.675	80.003	19.993	104.304	20.190	3.580	0.301
112.000	122.116	80.005	19.992	104.298	20.188	3.745	0.288
120.001	124.821	80.004	19.995	104.306	20.188	3.710	0.361
128.000	127.693	80.004	19.993	104.302	20.182	4.104	0.382
136.000	130.616	80.004	19.993	104.311	20.183	4.077	0.423
144.000	133.795	80.005	19.993	104.295	20.176	4.546	0.411
152.000	137.118	80.002	19.992	104.344	20.172	4.763	0.438
160.000	140.535	80.003	19.993	104.347	20.175	4.613	0.422
168.000	144.170	80.002	19.993	104.352	20.176	4.492	0.461
176.000	147.859	80.002	19.993	104.318	20.173	4.707	0.433
184.000	151.660	80.002	19.992	104.310	20.170	4.926	0.488
192.000	155.484	80.004	19.994	104.342	20.173	4.735	0.520
200.000	159.373	80.006	19.994	104.340	20.178	4.400	0.479
208.000	163.347	80.004	19.993	104.335	20.181	4.216	0.492
216.000	167.381	80.005	19.993	104.328	20.175	4.581	0.503
224.000	171.375	80.007	19.995	104.325	20.174	4.684	0.495
232.000	175.413	80.003	19.994	104.316	20.172	4.760	0.470
240.000	179.474	80.004	19.993	104.302	20.176	4.524	0.476
248.000	183.508	80.003	19.992	104.298	20.177	4.445	0.501
256.000	187.577	80.003	19.993	104.310	20.174	4.669	0.523
264.000	191.526	80.003	19.994	104.289	20.177	4.430	0.480
272.000	195.561	80.005	19.994	104.289	20.175	4.592	0.490
280.001	199.543	80.006	19.993	104.297	20.173	4.730	0.493
288.000	203.535	80.005	19.994	104.297	20.174	4.658	0.500
296.000	207.471	80.005	19.994	104.299	20.172	4.818	0.496
304.000	211.446	80.007	19.993	104.296	20.171	4.831	0.484
312.000	215.429	80.004	19.993	104.298	20.168	5.038	0.484
320.000	219.391	80.003	19.994	104.282	20.167	5.081	0.517
328.000	223.378	80.005	19.993	104.281	20.167	5.108	0.504
336.001	227.385	80.004	19.993	104.276	20.164	5.285	0.491
344.000	231.396	80.004	19.994	104.283	20.170	4.914	0.488
352.000	235.421	80.004	19.992	104.286	20.171	4.835	0.500
360.000	239.377	80.006	19.993	104.274	20.165	5.238	0.496
368.000	243.391	80.005	19.993	104.280	20.162	5.432	0.502
376.000	247.337	80.005	19.994	104.291	20.158	5.669	0.481
384.000	251.383	80.006	19.993	104.265	20.158	5.689	0.509
392.000	255.407	80.005	19.993	104.279	20.157	5.788	0.530
400.000	259.444	80.003	19.995	104.265	20.156	5.851	0.512
408.000	263.360	80.004	19.993	104.268	20.151	6.184	0.494
416.000	267.393	80.003	19.994	104.280	20.148	6.359	0.509
424.000	271.457	80.004	19.992	104.268	20.145	6.578	0.557
432.000	275.454	80.004	19.993	104.278	20.140	6.872	0.495
440.000	279.491	80.005	19.994	104.274	20.128	7.635	0.510
448.000	283.508	80.005	19.993	104.274	20.119	8.258	0.501
456.000	287.500	80.005	19.994	104.296	20.101	9.450	0.511
464.000	291.496	80.007	19.992	104.291	20.101	9.403	0.519
472.000	295.545	80.005	19.993	104.292	20.068	11.594	0.498
480.000	299.559	80.002	19.994	104.304	20.045	13.080	0.509
488.000	303.598	80.003	19.993	104.339	20.023	14.571	0.483
496.000	307.671	80.004	19.994	104.338	19.994	16.440	0.494
504.000	311.735	80.001	19.995	104.336	19.955	19.018	0.517
512.000	315.789	80.001	19.994	104.375	19.912	21.805	0.496
520.000	319.768	80.005	19.992	104.382	19.853	25.713	0.488
528.000	323.752	80.005	19.993	104.420	19.779	30.582	0.508
536.000	327.785	80.006	19.993	104.451	19.691	36.389	0.498
544.000	331.810	80.004	19.993	104.521	19.581	43.612	0.505
552.000	335.855	80.006	19.992	104.564	19.448	52.369	0.515
560.000	339.862	80.004	19.993	104.618	19.289	62.876	0.504
568.000	343.877	80.004	19.994	104.703	19.107	74.864	0.498
576.000	347.873	80.005	19.993	104.767	18.910	87.912	0.522
584.000	351.925	80.005	19.993	104.860	18.688	102.547	0.527
592.000	355.985	80.003	19.994	104.911	18.468	117.081	0.484
600.000	359.980	80.006	19.994	104.939	18.271	130.103	0.470
608.000	363.904	80.006	19.994	104.952	18.130	139.372	0.450
616.001	367.890	80.006	19.993	104.958	18.065	143.529	0.499
624.000	371.890	80.006	19.993	104.885	18.106	140.605	0.492
632.000	375.986	80.006	19.993	104.748	18.295	127.940	0.515
640.001	380.126	80.004	19.994	104.566	18.657	104.028	0.531
648.000	384.240	80.003	19.993	104.399	19.101	74.898	0.517
656.000	388.372	80.005	19.994	104.289	19.505	48.420	0.534
664.000	392.549	80.005	19.994	104.216	19.812	28.324	0.511
672.000	396.698	80.004	19.994	104.204	19.997	16.221	0.486
680.000	400.746	80.005	19.993	104.189	20.083	10.630	0.490
688.000	404.812	80.004	19.994	104.215	20.110	8.841	0.516
696.000	408.807	80.004	19.994	104.216	20.120	8.162	0.500
704.000	412.730	80.006	19.993	104.200	20.122	8.051	0.483
712.000	416.646	80.008	19.992	104.219	20.123	8.007	0.504
720.000	420.529	80.004	19.994	104.215	20.122	8.067	0.456
728.000	424.523	80.005	19.994	104.207	20.124	7.919	0.499
736.000	428.484	80.005	19.993	104.221	20.122	8.050	0.471
744.000	432.538	80.004	19.992	104.221	20.124	7.944	0.500
752.000	436.612	80.001	19.994	104.221	20.117	8.354	0.508
760.000	440.702	80.005	19.994	104.220	20.116	8.431	0.518
768.000	444.757	80.006	19.994	104.211	20.119	8.226	0.515
776.000	448.823	80.006	19.994	104.217	20.121	8.150	0.529
784.000	452.897	80.006	19.993	104.219	20.120	8.179	0.507
792.000	456.966	80.006	19.992	104.218	20.122	8.060	0.506
800.000	461.111	80.007	19.989	104.214	20.121	8.121	0.512
808.000	465.186	80.005	19.993	104.217	20.117	8.381	0.500
816.000	469.295	80.003	19.993	104.219	20.120	8.215	0.496
824.000	473.389	80.002	19.995	104.218	20.121	8.128	0.528
832.000	477.519	80.005	19.994	104.194	20.119	8.246	0.493
840.000	481.621	80.002	19.995	104.214	20.115	8.520	0.512
848.000	485.680	80.004	19.994	104.201	20.122	8.069	0.496
856.000	489.776	80.007	19.993	104.214	20.121	8.112	0.518
864.000	493.963	80.007	19.993	104.195	20.121	8.119	0.532
872.000	498.072	80.005	19.993	104.203	20.121	8.099	0.509
880.000	502.271	80.004	19.995	104.197	20.121	8.112	0.545
888.000	506.313	80.004	19.993	104.196	20.122	8.068	0.538
896.000	510.372	80.005	19.995	104.215	20.123	8.013	0.500
904.000	514.418	80.004	19.994	104.216	20.122	8.047	0.501
912.000	518.581	80.005	19.992	104.205	20.119	8.264	0.498
920.000	522.772	80.002	19.994	104.213	20.116	8.440	0.502
928.000	526.868	80.004	19.993	104.199	20.120	8.165	0.469
936.000	530.937	80.004	19.993	104.204	20.122	8.020	0.506
944.000	535.030	80.003	19.994	104.185	20.118	8.335	0.491
952.000	538.987	80.006	19.992	104.200	20.117	8.376	0.531
960.000	542.979	80.007	19.993	104.191	20.113	8.639	0.509
968.000	547.021	80.004	19.994	104.208	20.116	8.451	0.525
976.000	551.054	80.004	19.994	104.200	20.114	8.589	0.493
984.000	555.122	80.006	19.995	104.208	20.115	8.510	0.485
992.000	559.224	80.006	19.992	104.199	20.111	8.789	0.483
1000.000	563.354	80.005	19.994	104.204	20.116	8.459	0.527
1008.000	567.504	80.004	19.993	104.208	20.110	8.820	0.539
1016.000	571.715	80.007	19.992	104.199	20.108	8.939	0.501
1024.001	576.023	80.005	19.993	104.189	20.108	8.956	0.517
1032.000	580.286	80.006	19.994	104.196	20.111	8.787	0.513
1040.000	584.596	80.007	19.996	104.194	20.109	8.891	0.542
1048.000	588.741	80.003	19.994	104.211	20.109	8.891	0.547
1056.000	592.869	79.999	19.994	104.178	20.108	8.946	0.479
1064.000	597.024	80.003	19.994	104.213	20.104	9.214	0.533
1072.000	601.225	80.005	19.993	104.180	20.108	8.999	0.536
1080.000	605.107	80.003	19.993	104.190	20.107	9.045	0.555
1088.000	609.249	80.004	19.993	104.194	20.106	9.096	0.475
1096.000	613.244	80.007	19.994	104.181	20.101	9.434	0.440
1104.000	617.276	80.004	19.995	104.179	20.103	9.305	0.522
1112.001	621.208	80.006	19.992	104.203	20.105	9.140	0.493
1120.000	625.150	80.011	19.992	104.186	20.104	9.231	0.512
1128.000	629.103	79.998	19.995	104.176	20.102	9.346	0.483
1136.000	633.139	80.008	19.992	104.183	20.102	9.342	0.508
1144.000	637.152	79.998	19.994	104.180	20.101	9.413	0.502
1152.000	641.203	80.003	19.995	104.179	20.100	9.465	0.477
1160.001	645.219	80.008	19.994	104.207	20.099	9.540	0.493
1168.001	649.199	80.012	19.992	104.190	20.095	9.846	0.467
1176.000	653.228	80.012	19.993	104.213	20.098	9.595	0.508
1184.000	657.219	80.001	19.994	104.178	20.097	9.675	0.492
1192.000	661.218	79.998	19.994	104.167	20.092	10.011	0.470
1200.001	665.186	80.018	19.992	104.170	20.098	9.621	0.496
1208.001	669.130	80.005	19.993	104.221	20.099	9.566	0.509
1216.000	673.142	80.011	19.993	104.195	20.093	9.920	0.510
1224.000	677.207	80.001	19.996	104.183	20.096	9.753	0.537
1232.000	681.391	79.996	19.993	104.175	20.095	9.837	0.968
1240.000	685.531	80.007	19.994	104.191	20.097	9.701	0.526
1248.000	689.871	80.007	19.994	104.190	20.092	10.026	0.542
1256.000	694.072	80.009	19.993	104.184	20.091	10.106	0.548
1264.001	698.338	80.004	19.993	104.179	20.087	10.337	0.523
1272.001	702.505	80.005	19.993	104.182	20.088	10.307	0.530
1280.000	706.626	80.009	19.993	104.196	20.092	9.986	0.533
1288.000	710.598	80.003	19.992	104.183	20.089	10.186	0.509
1296.000	714.566	79.993	19.994	104.189	20.086	10.413	0.513
1304.000	718.604	80.007	19.993	104.176	20.087	10.323	0.498
1312.001	722.592	80.008	19.993	104.176	20.087	10.364	0.522
1320.000	726.562	80.006	19.993	104.187	20.085	10.473	0.507
1328.000	730.550	80.001	19.994	104.202	20.087	10.349	0.482
1336.000	734.548	80.006	19.993	104.196	20.079	10.888	0.498
1344.000	738.544	80.006	19.994	104.199	20.079	10.840	0.502
1352.000	742.522	80.006	19.993	104.181	20.078	10.920	0.493
1354.500	743.768	80.007	19.992	104.179	20.079	10.849	0.510