Folder: fsri_materials_database/01_Data/Cotton_Sheet/MCC (part 2)

File: Cotton_Sheet_MCC_30K_min_220107_R3.txt
Sample ID:	C:\MCC\MCC Cal\Test\Cotton_Sheets_MCC_30K_min_220107_R3.txt
Sample Weight (mg):	4.59
Heating Rate (C/s):	0.5
Combustor Temp (C):	900
N2 Flow Rate (cc/min):	80
O2 Flow Rate (cc/min):	20
Calibration File:	C:\MCC\MCC Cal\Coeff1 JN10440_30_210304.txt.txt
T Correction Coefficients:	0	1.024463	0
Time Shift (s):	14
*
Time (s)	Temperature (C)	N2 flow rate (cc/min)	O2 flow rate (cc/min)	Flow Rate (cc/min)	Oxygen (%)	HRR (W/g)	Heating rate (C/s)
0.000	111.829	80.008	19.994	104.095	20.115	-0.095	0.004
7.500	111.798	80.004	19.993	104.114	20.115	-0.117	-0.007
15.000	111.816	80.006	19.993	104.194	20.103	0.762	0.011
22.500	112.153	80.006	19.993	104.293	20.085	2.025	0.053
30.000	112.819	80.005	19.992	104.271	20.081	2.278	0.114
37.500	113.913	80.006	19.993	104.329	20.077	2.572	0.152
45.000	115.410	80.005	19.995	104.332	20.072	2.963	0.228
52.500	117.255	80.007	19.994	104.378	20.066	3.392	0.264
60.001	119.337	80.006	19.993	104.369	20.065	3.410	0.287
67.500	121.782	80.003	19.994	104.401	20.063	3.602	0.339
75.000	124.523	80.006	19.993	104.382	20.059	3.857	0.382
82.501	127.521	80.005	19.993	104.405	20.060	3.814	0.389
90.000	130.744	80.005	19.993	104.405	20.060	3.824	0.446
97.500	134.114	80.008	19.993	104.413	20.062	3.656	0.430
105.000	137.660	80.009	19.993	104.405	20.061	3.715	0.504
112.501	141.324	80.006	19.992	104.401	20.061	3.712	0.508
120.000	145.016	80.006	19.992	104.388	20.064	3.529	0.484
127.501	148.855	80.006	19.994	104.378	20.060	3.807	0.523
135.000	152.677	80.004	19.994	104.373	20.061	3.747	0.525
142.500	156.387	80.004	19.993	104.379	20.067	3.264	0.469
150.000	160.256	80.005	19.993	104.363	20.064	3.523	0.506
157.500	164.084	80.007	19.994	104.362	20.065	3.425	0.534
165.000	167.824	80.005	19.994	104.355	20.062	3.624	0.483
172.500	171.569	80.005	19.993	104.366	20.066	3.330	0.502
180.000	175.269	80.007	19.993	104.334	20.067	3.285	0.477
187.500	178.942	80.008	19.993	104.347	20.069	3.166	0.494
195.000	182.586	80.006	19.992	104.345	20.063	3.582	0.467
202.500	186.274	80.004	19.992	104.339	20.066	3.335	0.494
210.000	189.871	80.005	19.992	104.333	20.068	3.238	0.487
217.500	193.501	80.004	19.994	104.337	20.067	3.318	0.474
225.000	197.144	80.004	19.993	104.335	20.068	3.234	0.511
232.500	200.803	80.006	19.993	104.338	20.067	3.258	0.509
240.000	204.476	80.007	19.993	104.334	20.067	3.292	0.496
247.500	208.226	80.007	19.994	104.333	20.067	3.263	0.489
255.000	211.971	80.005	19.994	104.327	20.066	3.376	0.501
262.500	215.645	80.008	19.993	104.316	20.066	3.350	0.462
270.000	219.404	80.006	19.992	104.310	20.062	3.671	0.503
277.500	223.095	80.006	19.992	104.337	20.061	3.737	0.495
285.001	226.869	80.006	19.992	104.309	20.063	3.590	0.502
292.500	230.599	80.007	19.993	104.323	20.061	3.727	0.495
300.000	234.398	80.005	19.993	104.297	20.061	3.702	0.493
307.500	238.151	80.006	19.993	104.298	20.063	3.606	0.507
315.000	241.813	80.007	19.993	104.295	20.061	3.730	0.495
322.500	245.631	80.006	19.992	104.293	20.063	3.574	0.519
330.000	249.372	80.005	19.993	104.311	20.060	3.800	0.517
337.500	253.181	80.006	19.993	104.302	20.062	3.639	0.501
345.000	256.954	80.007	19.993	104.294	20.062	3.641	0.491
352.500	260.697	80.006	19.993	104.295	20.062	3.656	0.491
360.000	264.409	80.006	19.993	104.292	20.057	3.979	0.482
367.500	268.152	80.006	19.993	104.293	20.054	4.207	0.502
375.000	271.905	80.005	19.994	104.298	20.051	4.403	0.468
382.500	275.637	80.005	19.994	104.293	20.046	4.801	0.500
390.000	279.388	80.004	19.993	104.297	20.037	5.415	0.485
397.500	283.077	80.006	19.993	104.302	20.029	5.963	0.491
405.000	286.800	80.006	19.993	104.300	20.023	6.384	0.477
412.500	290.577	80.006	19.993	104.315	20.011	7.227	0.486
420.000	294.294	80.008	19.993	104.331	19.997	8.245	0.495
427.500	298.024	80.008	19.994	104.328	19.976	9.730	0.497
435.000	301.783	80.006	19.994	104.332	19.959	10.918	0.497
442.500	305.497	80.005	19.994	104.363	19.939	12.387	0.481
450.000	309.273	80.007	19.994	104.371	19.907	14.623	0.538
457.500	313.051	80.005	19.993	104.362	19.877	16.803	0.484
465.000	316.819	80.006	19.993	104.375	19.831	20.047	0.467
472.500	320.579	80.005	19.993	104.424	19.781	23.590	0.493
480.000	324.365	80.007	19.993	104.471	19.719	28.022	0.491
487.500	328.131	80.007	19.993	104.488	19.638	33.812	0.499
495.000	331.881	80.007	19.994	104.515	19.535	41.102	0.458
502.500	335.691	80.008	19.994	104.572	19.422	49.203	0.481
510.000	339.469	80.008	19.993	104.634	19.282	59.150	0.514
517.500	343.238	80.007	19.995	104.681	19.124	70.481	0.493
525.000	347.005	80.005	19.994	104.770	18.951	82.865	0.499
532.500	350.820	80.004	19.994	104.823	18.759	96.558	0.492
540.000	354.575	80.007	19.993	104.891	18.560	110.817	0.531
547.500	358.355	80.004	19.994	104.949	18.378	123.859	0.498
555.000	362.144	80.006	19.994	104.963	18.229	134.432	0.497
562.500	365.950	80.007	19.994	104.980	18.128	141.536	0.474
570.000	369.800	80.006	19.992	104.917	18.111	142.583	0.507
577.500	373.616	80.007	19.993	104.838	18.211	135.238	0.488
585.000	377.470	80.008	19.993	104.694	18.455	117.676	0.471
592.500	381.401	80.007	19.993	104.486	18.838	90.432	0.538
600.000	385.210	80.005	19.993	104.360	19.250	61.204	0.509
607.500	389.055	80.005	19.993	104.268	19.601	36.288	0.507
615.000	392.946	80.007	19.994	104.262	19.844	19.088	0.530
622.501	396.804	80.005	19.993	104.254	19.975	9.831	0.510
630.000	400.613	80.005	19.994	104.214	20.027	6.149	0.492
637.500	404.372	80.007	19.993	104.248	20.048	4.601	0.512
645.000	408.084	80.008	19.993	104.244	20.056	4.058	0.469
652.500	411.857	80.006	19.994	104.242	20.061	3.713	0.492
660.000	415.612	80.007	19.992	104.275	20.061	3.730	0.502
667.500	419.331	80.009	19.993	104.291	20.067	3.270	0.494
675.000	423.122	80.006	19.993	104.268	20.068	3.195	0.502
682.500	426.864	80.006	19.991	104.243	20.067	3.288	0.495
690.000	430.680	80.006	19.994	104.256	20.067	3.308	0.488
697.500	434.560	80.007	19.998	104.245	20.068	3.236	0.521
705.000	438.455	80.007	19.992	104.255	20.068	3.201	0.536
712.500	442.278	80.005	19.994	104.251	20.068	3.243	0.514
720.000	445.994	80.007	19.998	104.262	20.073	2.830	0.470
727.500	449.810	80.005	19.993	104.244	20.072	2.933	0.500
735.000	453.565	80.008	19.995	104.272	20.073	2.865	0.502
742.500	457.319	80.007	19.994	104.251	20.076	2.682	0.480
750.000	461.100	80.009	19.993	104.263	20.073	2.896	0.521
757.500	464.836	80.007	19.992	104.246	20.076	2.628	0.511
765.000	468.666	80.006	19.994	104.257	20.076	2.673	0.520
772.500	472.534	80.007	19.995	104.269	20.080	2.389	0.519
780.000	476.446	80.006	19.994	104.260	20.081	2.267	0.501
787.500	480.289	80.005	19.993	104.263	20.078	2.486	0.507
795.000	484.221	80.005	19.994	104.262	20.080	2.335	0.517
802.500	488.073	80.006	19.995	104.258	20.081	2.331	0.493
810.000	491.986	80.006	19.994	104.248	20.086	1.931	0.496
817.500	495.888	80.008	19.994	104.259	20.083	2.128	0.497
825.000	499.801	80.008	19.992	104.251	20.083	2.148	0.512
832.500	503.684	80.009	19.993	104.229	20.082	2.204	0.508
840.000	507.519	80.007	19.993	104.273	20.087	1.903	0.510
847.500	511.354	80.006	19.993	104.256	20.083	2.152	0.508
855.000	515.246	80.006	19.990	104.259	20.086	1.952	0.517
862.500	519.084	80.005	19.994	104.256	20.084	2.070	0.561
870.000	522.880	80.005	19.994	104.250	20.083	2.171	0.494
877.500	526.795	80.007	19.993	104.258	20.091	1.595	0.534
885.000	530.602	80.007	19.994	104.223	20.094	1.390	0.526
892.500	534.878	80.007	19.996	104.239	20.093	1.460	0.791
900.000	537.901	80.007	19.994	104.246	20.089	1.707	0.285
907.500	541.907	80.010	19.994	104.237	20.088	1.793	0.527
915.000	545.574	80.009	19.997	104.233	20.087	1.880	0.472
922.500	549.397	80.006	19.994	104.268	20.088	1.769	0.500
930.000	553.183	80.006	19.992	104.251	20.092	1.536	0.506
937.500	556.955	80.008	19.993	104.254	20.089	1.754	0.534
945.000	560.710	80.007	19.993	104.257	20.091	1.590	0.480
952.500	564.477	80.007	19.995	104.253	20.094	1.356	0.486
960.000	568.281	80.006	19.995	104.237	20.091	1.599	0.466
967.500	572.130	80.008	19.993	104.251	20.095	1.330	0.516
975.000	575.951	80.006	19.994	104.242	20.092	1.534	0.494
982.500	579.685	80.008	19.995	104.232	20.094	1.393	0.487
990.000	583.426	80.008	19.994	104.246	20.093	1.460	0.508
997.500	587.215	80.008	19.993	104.240	20.093	1.464	0.545
1005.000	590.923	80.006	19.992	104.244	20.092	1.485	0.484
1012.500	594.780	80.006	19.995	104.240	20.092	1.488	0.557
1020.000	598.594	80.007	19.993	104.224	20.092	1.538	0.493
1027.501	602.395	80.006	19.992	104.237	20.092	1.484	0.508
1035.000	606.238	80.007	19.992	104.240	20.091	1.556	0.508
1042.500	610.029	80.006	19.993	104.235	20.095	1.297	0.532
1050.000	613.801	80.007	19.993	104.249	20.093	1.468	0.523
1057.501	617.613	80.006	19.993	104.236	20.092	1.519	0.500
1065.000	621.417	80.008	19.994	104.250	20.095	1.338	0.524
1072.500	625.277	80.008	19.993	104.253	20.094	1.371	0.520
1080.000	629.227	80.005	19.994	104.252	20.090	1.629	0.499
1087.500	633.127	80.005	19.993	104.240	20.096	1.264	0.506
1095.000	637.022	80.005	19.992	104.222	20.090	1.637	0.532
1102.500	640.814	80.007	19.993	104.244	20.092	1.538	0.483
1110.001	644.674	80.006	19.993	104.240	20.097	1.181	0.505
1117.500	648.469	80.006	19.993	104.228	20.090	1.637	0.498
1125.000	652.333	80.008	19.993	104.227	20.092	1.495	0.550
1132.500	656.167	80.008	19.993	104.224	20.087	1.851	0.540
1140.000	659.969	80.007	19.993	104.256	20.093	1.462	0.529
1147.500	663.889	80.010	19.993	104.236	20.094	1.404	0.555
1155.000	667.686	80.009	19.993	104.249	20.095	1.338	0.464
1162.500	671.541	80.006	19.994	104.247	20.093	1.421	0.505
1170.001	675.391	80.005	19.995	104.253	20.094	1.344	0.499
1177.500	679.097	80.007	19.993	104.230	20.092	1.524	0.483
1185.000	682.895	80.006	19.992	104.259	20.094	1.398	0.549
1192.500	686.751	80.004	19.994	104.230	20.090	1.652	0.504
1200.000	690.643	80.006	19.994	104.249	20.096	1.254	0.530
1207.500	694.417	80.008	19.993	104.239	20.096	1.255	0.504
1215.000	698.123	80.007	19.994	104.215	20.090	1.658	0.486
1222.500	701.777	80.008	19.993	104.230	20.095	1.307	0.464
1230.000	705.497	80.008	19.994	104.234	20.093	1.456	0.521
1237.501	709.180	80.007	19.992	104.229	20.092	1.538	0.511
1245.001	712.990	80.006	19.994	104.278	20.095	1.330	0.519
1252.500	716.840	80.005	19.993	104.226	20.095	1.301	0.514
1260.000	720.654	80.005	19.994	104.204	20.094	1.361	0.518
1267.500	724.481	80.006	19.994	104.229	20.091	1.613	0.503
1275.000	728.314	80.006	19.993	104.248	20.093	1.462	0.536
1282.500	732.251	80.007	19.993	104.227	20.092	1.499	0.522
1290.000	736.223	80.008	19.993	104.231	20.089	1.719	0.540
1297.500	740.227	80.005	19.992	104.259	20.092	1.521	0.546
1303.500	743.416	80.007	19.993	104.245	20.095	1.288	0.523