Folder: fsri_materials_database/01_Data/Roof_Felt/Cone (part 5)

File: Roof_Felt_Underlayment_Cone_HF75Scan_220328_R3.csv
Names,Time,Stack TC,Smoke TC,Exh Press,Smoke Comp,Smoke Meas,CO Meter,CO2 Meter,O2 Meter,Sample Mass,Ext Coeff,Start Test,Flame Verif
Chan Gain,,500,500,1,1,1,1,1,1,1,1,1.0,1.0
Offset,,0,0,0.138301,0,0,0,0,0,0,0,0.0,0.0
Gain,,1,1,25.011,13.2062,13.8682,1,1,1,1.0009,1.02317,1.0,1.0
Units,sec,C,C,Pa,%,%,%,%,%,g,/m,,
Baseline,,41.969,43.6739,140.655,99.5844,96.5125,0.000694199,0.0670054,21.0083,-836.083,0.281274,,
10,2.25,41.1307,43.068,139.76,98.342,94.6946,0.000785717,0.0707383,21.001,166.57,0.339205,0.0,0.0
20,4.75,41.0852,42.8667,145.353,98.344,93.4724,0.0024088,0.0769079,21.0006,166.51,0.455991,0.0,0.0
30,7.25,41.1536,43.0731,121.031,98.3404,63.5729,0.00803042,0.182299,20.8371,166.09,3.91541,0.0,1.0
40,9.75,42.8837,44.581,99.3366,98.3722,40.7793,0.0233335,0.532947,20.2696,165.579,7.90341,0.0,1.0
50,12.25,48.6384,50.0238,87.9615,98.3855,36.7578,0.0428743,1.13302,19.3235,164.638,8.83646,0.0,0.0
60,14.75,56.8127,59.8096,88.0279,98.396,33.5075,0.0571581,1.80282,18.5957,163.497,9.66837,0.0,0.0
70,17.25,67.1039,71.9516,107.109,98.4266,38.8837,0.0536258,1.81949,18.5718,162.867,8.3356,0.0,0.0
80,19.75,70.9521,77.859,119.688,98.4399,60.9946,0.0412318,1.34757,19.233,162.566,4.29608,0.0,0.0
90,22.25,72.6987,80.0388,123.053,98.4617,65.6953,0.0289258,0.910179,19.7614,162.356,3.63172,0.0,0.0
100,24.75,72.0815,79.9186,126.176,98.4988,70.2915,0.0199111,0.633419,20.1557,162.196,3.02816,0.0,0.0
110,27.25,71.6914,79.0912,130.814,98.5387,69.7905,0.0145647,0.478718,20.3733,162.026,3.09601,0.0,0.0
120,29.75,71.2869,78.7556,126.486,98.5685,74.5699,0.0110474,0.394556,20.4845,161.936,2.50421,0.0,0.0
130,32.25,70.995,78.0207,134.269,98.6245,80.1213,0.00839903,0.334974,20.5832,161.846,1.86484,0.0,0.0
140,34.75,70.7489,77.0457,135.643,98.6503,85.1793,0.00668243,0.288101,20.668,161.756,1.31776,0.0,0.0
150,37.25,69.9633,76.6767,132.096,98.7011,87.2357,0.00571596,0.251911,20.7307,161.656,1.10827,0.0,0.0
160,39.75,68.5683,75.1557,135.691,98.7583,89.7797,0.0052732,0.224669,20.7785,161.616,0.855482,0.0,0.0
170,42.25,67.7939,74.1939,135.304,98.8018,91.2107,0.0050635,0.205421,20.8098,161.586,0.717517,0.0,0.0
180,44.75,67.0793,73.1177,138.087,98.8627,92.915,0.0048335,0.191932,20.8321,161.516,0.556885,0.0,0.0
190,47.25,65.9526,72.2045,131.049,98.9207,92.9137,0.00470123,0.181788,20.85,161.455,0.562274,0.0,0.0
200,49.75,65.1462,71.6452,136.075,98.9763,94.136,0.0046213,0.174702,20.8608,161.435,0.450021,0.0,0.0
210,52.25,64.4693,70.5408,134.733,99.0243,94.4085,0.00461807,0.169451,20.8697,161.375,0.42842,0.0,0.0
220,54.75,63.4382,69.4404,136.884,99.0932,95.5521,0.00485985,0.164024,20.8776,161.365,0.326602,0.0,0.0
230,57.25,62.9678,68.865,137.548,99.1525,95.2541,0.00511774,0.160425,20.8841,161.325,0.359997,0.0,0.0
240,59.75,62.0846,67.6221,134.781,99.2254,95.6333,0.00530665,0.157749,20.8881,161.285,0.330939,0.0,0.0
250,62.25,60.9278,67.0583,137.284,99.2834,95.5601,0.00532487,0.155603,20.8922,161.195,0.343061,0.0,0.0
260,64.75,60.5079,65.9141,133.044,99.3302,96.6715,0.00523339,0.153679,20.8964,161.215,0.243504,0.0,0.0
270,67.25,60.0699,65.5399,134.659,99.3854,95.6388,0.0052253,0.152196,20.8991,161.175,0.344883,0.0,0.0
280,69.75,59.2122,64.3504,136.278,99.4588,95.4882,0.00537623,0.150656,20.9012,161.105,0.365655,0.0,0.0
290,72.25,58.2123,63.5389,135.042,99.4962,95.6609,0.00550115,0.149139,20.9032,161.075,0.352821,0.0,0.0
300,74.75,57.4711,62.5632,139.421,99.5619,96.021,0.00552498,0.147711,20.9049,161.065,0.325017,0.0,0.0
310,77.25,57.3309,62.2183,136.151,99.6051,96.2965,0.00546409,0.146345,20.9072,161.025,0.303187,0.0,0.0
320,79.75,56.8302,61.5792,140.004,99.6699,96.2851,0.00541355,0.144985,20.9089,160.975,0.310098,0.0,0.0
330,82.25,56.1306,61.0823,138.106,99.7131,96.5238,0.00533688,0.144276,20.9102,160.965,0.291757,0.0,0.0
340,84.75,55.6464,60.3242,139.702,99.7651,97.3419,0.00529041,0.14279,20.9128,160.885,0.220686,0.0,0.0
350,87.25,55.2831,59.8838,137.201,99.8199,96.0756,0.0053421,0.140608,20.9157,160.865,0.343137,0.0,0.0
360,89.75,55.1427,59.357,140.262,99.8646,96.6351,0.00535242,0.138437,20.9185,160.855,0.295043,0.0,0.0
370,92.25,54.5231,58.8327,137.97,99.9114,96.0138,0.00532578,0.13641,20.921,160.815,0.357133,0.0,0.0
380,94.75,54.3585,58.4802,137.984,99.9396,96.3782,0.00531744,0.134644,20.923,160.785,0.325668,0.0,0.0
390,97.25,53.5342,57.7833,138.556,99.9924,96.2695,0.0053613,0.132188,20.9253,160.775,0.340544,0.0,0.0
400,99.75,53.1371,57.8235,133.643,100.014,96.2352,0.00518609,0.12991,20.9287,160.715,0.345656,0.0,0.0
410,102.25,52.949,57.2694,138.162,100.064,96.4938,0.00495283,0.128095,20.9317,160.705,0.326092,0.0,0.0
420,104.75,52.3745,56.4403,135.423,100.088,96.8256,0.00488925,0.126487,20.935,160.655,0.297415,0.0,0.0
430,107.25,51.6767,55.8041,136.763,100.126,96.4552,0.00493263,0.124436,20.9379,160.635,0.33524,0.0,0.0
440,109.75,52.0634,56.1855,136.352,100.143,96.2847,0.0050564,0.121802,20.9417,160.625,0.352606,0.0,0.0
450,112.25,51.9741,55.8342,139.173,100.174,97.0266,0.00506932,0.118975,20.9447,160.625,0.286495,0.0,0.0
460,114.75,51.5083,54.97,139.16,100.186,98.1888,0.00496137,0.116322,20.9482,160.615,0.180749,0.0,0.0
470,117.25,51.243,54.8366,142.059,100.227,96.7083,0.00488332,0.114249,20.951,160.535,0.320749,0.0,0.0
480,119.75,50.7586,54.0878,135.955,100.229,96.7799,0.00476019,0.11255,20.9525,160.535,0.314293,0.0,0.0
490,122.25,50.9126,54.4361,138.146,100.25,97.0004,0.00469341,0.111295,20.9543,160.515,0.295781,0.0,0.0
500,124.75,49.9392,53.7719,140.25,100.265,96.7684,0.00467959,0.109977,20.9561,160.505,0.318564,0.0,0.0
510,127.25,49.3823,53.0614,142.045,100.285,96.8789,0.00457695,0.108806,20.9567,160.485,0.310164,0.0,0.0
520,129.75,49.3079,52.6289,133.402,100.31,96.9034,0.00439219,0.10745,20.9582,160.455,0.310127,0.0,0.0
530,132.25,48.6345,51.5687,140.782,100.312,96.5196,0.00417214,0.10539,20.9613,160.415,0.345931,0.0,0.0
540,134.75,48.9119,52.7721,136.232,100.312,96.8383,0.00402796,0.102747,20.9654,160.374,0.316346,0.0,0.0
550,137.25,48.896,52.2738,137.298,100.313,96.3169,0.00399853,0.100571,20.9689,160.404,0.364838,0.0,0.0
560,139.75,48.6851,52.0796,138.396,100.329,97.0088,0.003841,0.098787,20.9708,160.374,0.30203,0.0,0.0
570,142.25,48.4292,51.4906,136.436,100.308,96.4354,0.00363944,0.0970675,20.9728,160.395,0.353406,0.0,0.0
580,144.75,48.4454,51.4877,138.664,100.31,96.6745,0.00349704,0.0946272,20.9741,160.374,0.331288,0.0,0.0
590,147.25,48.3705,51.2963,139.306,100.302,96.9085,0.00346952,0.0921582,20.9764,160.314,0.308935,0.0,0.0
600,149.75,47.9445,50.911,139.448,100.293,96.8505,0.0035469,0.0904259,20.9776,160.304,0.313513,0.0,0.0
610,152.25,48.0825,51.3735,141.835,100.294,96.779,0.00347754,0.088567,20.9806,160.284,0.32018,0.0,0.0
620,154.75,47.915,50.4015,137.106,100.277,96.793,0.00327147,0.0861554,20.9845,160.254,0.317371,0.0,0.0
630,157.25,47.7182,50.7738,139.582,100.262,96.8125,0.00315297,0.0844509,20.986,160.234,0.314193,0.0,0.0
640,159.75,47.1872,50.4137,139.81,100.245,96.5319,0.00302177,0.0830514,20.9862,160.224,0.338766,0.0,0.0
650,162.25,47.4723,50.0881,139.692,100.238,96.969,0.00293823,0.0821586,20.9877,160.234,0.297596,0.0,0.0
660,164.75,47.2248,50.2075,136.726,100.237,96.9356,0.00286342,0.0818124,20.9883,160.204,0.300619,0.0,0.0
670,167.25,47.1162,50.1018,137.613,100.211,96.7866,0.00278247,0.0819262,20.9888,160.174,0.312041,0.0,0.0
680,169.75,47.2315,50.0443,137.296,100.197,96.4493,0.00275101,0.0818032,20.9895,160.194,0.342148,0.0,0.0
690,172.25,46.0618,49.2583,135.791,100.192,96.4751,0.00280244,0.0814248,20.9908,160.154,0.339312,0.0,0.0
700,174.75,47.0096,49.3884,141.892,100.174,96.9674,0.00282967,0.0808745,20.9918,160.164,0.292013,0.0,0.0
710,177.25,47.0636,49.451,142.358,100.166,96.9661,0.00274393,0.0804896,20.9917,160.154,0.291373,0.0,0.0
720,179.75,46.7875,49.709,140.845,100.14,97.4105,0.00268239,0.0802027,20.9917,160.154,0.248058,0.0,0.0
730,182.25,46.4115,49.1547,135.532,100.125,96.4167,0.00272771,0.0802586,20.9916,160.134,0.338717,0.0,0.0
740,184.75,46.9375,49.133,139.096,100.088,97.3542,0.002722,0.0803768,20.9916,160.134,0.248585,0.0,0.0
750,187.25,46.3907,49.0218,137.842,100.067,97.1705,0.00261469,0.0800981,20.9926,160.114,0.263583,0.0,0.0
760,189.75,46.105,49.1181,137.471,100.042,96.9906,0.00245365,0.079735,20.9932,160.104,0.27797,0.0,0.0
770,192.25,46.007,48.7912,138.474,100.026,96.4002,0.00230999,0.0792984,20.9932,160.094,0.331362,0.0,0.0
780,194.75,46.0622,48.3951,140.885,99.9992,97.2822,0.00226006,0.0786987,20.9937,160.064,0.247231,0.0,0.0
790,197.25,46.4305,48.6786,136.443,99.9851,96.8759,0.00240547,0.0779556,20.9949,160.074,0.283527,0.0,0.0
800,199.75,46.1353,48.9488,136.866,99.9625,96.7202,0.00262787,0.077409,20.9956,160.034,0.295942,0.0,0.0
810,202.25,46.3573,48.5226,140.479,99.9375,96.4057,0.00270553,0.0773081,20.9961,159.994,0.322926,0.0,0.0
820,204.75,46.0902,48.42,137.718,99.923,96.8404,0.00251437,0.0771687,20.9963,159.984,0.281249,0.0,0.0
830,207.25,45.5922,47.9975,138.648,99.8993,97.1104,0.00239054,0.07714,20.9964,159.974,0.254122,0.0,0.0
840,209.75,45.9897,49.015,139.754,99.8876,97.14,0.0023114,0.0770446,20.9978,159.964,0.250335,0.0,0.0
850,212.25,46.1021,48.8151,141.377,99.859,96.8645,0.00221716,0.0768883,20.9981,159.984,0.273256,0.0,0.0
860,214.75,46.1039,48.6127,139.568,99.8368,96.4963,0.00212855,0.0766461,20.9972,159.964,0.305445,0.0,0.0
870,217.25,45.9765,48.3553,137.596,99.8106,96.2373,0.00211991,0.0764715,20.9965,159.904,0.327214,0.0,0.0
880,219.75,45.409,48.0937,139.151,99.8078,96.0845,0.00203019,0.0764367,20.9963,159.904,0.34122,0.0,0.0
890,222.25,45.9646,48.2622,137.713,99.7836,96.4328,0.0018943,0.0764745,20.9969,159.894,0.306568,0.0,0.0
900,224.75,45.5121,47.5115,138.367,99.7707,96.6631,0.00187888,0.0763106,20.998,159.874,0.284004,0.0,0.0
910,227.25,45.6406,48.2405,137.246,99.7518,96.6512,0.0019834,0.0761894,20.9983,159.854,0.283401,0.0,0.0
920,229.75,44.993,48.2023,137.206,99.7372,96.2373,0.00199185,0.0759876,20.9973,159.814,0.320615,0.0,0.0
930,232.25,45.7074,47.7021,138.777,99.7054,97.7516,,0.0759277,,159.854,0.177623,0.0,0.0
940,234.75,45.8289,48.2836,141.646,99.7034,96.7786,,,,159.824,0.267227,0.0,0.0
950,237.25,45.2613,47.8264,139.66,99.6941,97.1324,,,,159.784,0.233639,0.0,0.0
960,239.75,45.4508,47.9727,138.551,99.6861,96.7485,,,,159.804,0.268454,0.0,0.0
970,242.25,45.532,48.1351,140.851,99.6695,96.1146,,,,159.794,0.325973,0.0,0.0
971,242.5,45.3563,47.7006,138.748,99.6558,96.8383,,,,159.794,0.257412,0.0,0.0