Folder: fsri_materials_database/01_Data/Roof_Felt/Cone

Note: 01_Data/README.md
# Materials and Products Database
## 01_Data

Raw data generated from each apparatus are included here in plain-text format. The data is organized first by material, next by the short name of test apparatus used, and where applicable additional filtering by test settings.

### material.json

Each material directory contains a json file of the same name as the material. This file links the data stored in the repository as well as data and graphs produced by the accompanying scripts (__02_Scripts__) to the respective landing page for the material on the front-end website.

File: Roof_Felt_Underlayment_Cone_HF25Scalar_220328_R1.csv
LABORATORY,FSRI
TEST IDENT,Roof_Felt_HF25_1
OPERATOR,Dow
MATERIAL,Roof Felt Underlayment
ORIENTATION,Horizontal
HEAT FLUX,25
SURF AREA,0.00884
C FACTOR,0.0401029
SPEC HOLDER DIFF,-566
SPECIMEN MASS,6.93
SCAN TIME,0.25
O2 DELAY TIME,11
CO DELAY TIME,11
CO2 DELAY TIME,8
FLOW FACTOR,1
SCAN COUNT,931
TIME TO IGN,30.5
END OF TEST SCAN,451
END OF TEST TIME,112.75
TEST STATUS,1
PRE TEST CMT,Dimensions: 101.44 x 101.16 x 0.87 mm; with frame; with calcium silicate substrate

File: Roof_Felt_Underlayment_Cone_HF25Scalar_220328_R2.csv
LABORATORY,FSRI
TEST IDENT,Roof_Felt_HF25_2
OPERATOR,Dow
MATERIAL,Roof Felt Underlayment
ORIENTATION,Horizontal
HEAT FLUX,25
SURF AREA,0.00884
C FACTOR,0.0401029
SPEC HOLDER DIFF,-566
SPECIMEN MASS,7.11
SCAN TIME,0.25
O2 DELAY TIME,11
CO DELAY TIME,11
CO2 DELAY TIME,8
FLOW FACTOR,1
SCAN COUNT,1025
TIME TO IGN,33.75
END OF TEST SCAN,545
END OF TEST TIME,136.25
TEST STATUS,1
PRE TEST CMT,Dimensions: 102.07 x 102.88 x 0.86 mm; with frame; with calcium silicate substrate
POST TEST CMT,After ignition the sample warped and one edge lifted up.

File: Roof_Felt_Underlayment_Cone_HF25Scalar_220328_R3.csv
LABORATORY,FSRI
TEST IDENT,Roof_Felt_HF25_3
OPERATOR,Dow
MATERIAL,Roof Felt Underlayment
ORIENTATION,Horizontal
HEAT FLUX,25
SURF AREA,0.00884
C FACTOR,0.0401029
SPEC HOLDER DIFF,-566
SPECIMEN MASS,7.32
SCAN TIME,0.25
O2 DELAY TIME,11
CO DELAY TIME,11
CO2 DELAY TIME,8
FLOW FACTOR,1
SCAN COUNT,870
TIME TO IGN,33.75
END OF TEST SCAN,390
END OF TEST TIME,97.5
TEST STATUS,1
PRE TEST CMT,Dimensions: 102.64 x 101.89 x 0.78 mm; with frame; with calcium silicate substrate

File: Roof_Felt_Underlayment_Cone_HF25Scan_220328_R1.csv
Names,Time,Stack TC,Smoke TC,Exh Press,Smoke Comp,Smoke Meas,CO Meter,CO2 Meter,O2 Meter,Sample Mass,Ext Coeff,Start Test,Flame Verif
Chan Gain,,500,500,1,1,1,1,1,1,1,1,1.0,1.0
Offset,,0,0,0.134123,0,0,0,0,0,0,0,0.0,0.0
Gain,,1,1,25.011,13.5775,14.0999,1,1,1,1.0009,1.03554,1.0,1.0
Units,sec,C,C,Pa,%,%,%,%,%,g,/m,,
Baseline,,17.3675,17.627,166.983,101.847,95.1097,0.000861312,0.0456891,21.0326,-834.37,0.621726,,
10,2.25,16.4551,16.0247,166.099,101.814,95.2689,0.000348766,0.0542694,21.0267,188.079,0.603537,0.0,0.0
20,4.75,16.5522,16.6935,168.787,101.774,94.9208,0.000295182,0.051342,21.0294,187.999,0.63324,0.0,0.0
30,7.25,15.9385,16.2517,169.856,101.732,94.855,0.0003545,0.0496253,21.0309,188.029,0.635805,0.0,0.0
40,9.75,16.9094,17.1465,167.809,101.688,94.9341,0.000409048,0.0494307,21.0309,187.999,0.624266,0.0,0.0
50,12.25,16.8556,16.8009,169.036,101.626,95.0129,0.000359477,0.0511037,21.0278,187.959,0.611256,0.0,0.0
60,14.75,16.6583,17.2313,170.597,101.584,95.1265,0.000403025,0.0538708,21.0251,187.919,0.596623,0.0,0.0
70,17.25,16.4999,16.8586,165.319,101.502,94.5645,0.000436206,0.0573204,21.022,187.919,0.643069,0.0,0.0
80,19.75,16.4805,16.7784,167.954,101.409,94.3115,0.000562329,0.0601972,21.0191,187.919,0.659132,0.0,0.0
90,22.25,16.6047,16.971,168.546,101.301,94.2104,0.000720852,0.0614079,21.0176,187.909,0.659147,0.0,0.0
100,24.75,16.7914,17.4357,165.523,101.202,93.9836,0.000803928,0.0611385,21.0173,187.889,0.672191,0.0,0.0
110,27.25,16.6672,17.1247,165.577,101.1,93.8055,0.000785521,0.0596005,21.0177,187.889,0.680234,0.0,0.0
120,29.75,16.6843,17.2253,166.047,100.97,92.7883,0.000919113,0.0598797,21.0127,187.869,0.767614,0.0,0.0
130,32.25,16.8188,16.568,160.732,100.889,87.3424,0.00242008,0.0816115,20.9512,187.818,1.30972,0.0,1.0
140,34.75,17.7475,17.3874,150.274,100.763,77.0322,0.00508289,0.157506,20.803,187.588,2.43944,0.0,1.0
150,37.25,19.1269,19.1784,147.153,100.661,72.024,0.0101304,0.263197,20.6248,187.248,3.04089,0.0,0.0
160,39.75,21.5696,21.9721,134.177,100.567,68.0605,0.0146679,0.412945,20.3941,186.808,3.54654,0.0,0.0
170,42.25,24.976,24.9866,136.554,100.505,70.1135,0.0176973,0.545002,20.2263,186.347,3.27098,0.0,0.0
180,44.75,27.9485,29.0085,128.278,100.447,68.0666,0.0196833,0.639065,20.1289,185.907,3.53488,0.0,0.0
190,47.25,30.77,31.8767,134.536,100.409,68.9504,0.0207875,0.676128,20.1055,185.466,3.4142,0.0,0.0
200,49.75,32.8149,34.5968,134.312,100.391,64.3733,0.0202358,0.660223,20.1465,185.146,4.03656,0.0,0.0
210,52.25,34.7353,36.7676,144.568,100.364,65.459,0.0181196,0.602278,20.2464,184.906,3.88217,0.0,0.0
220,54.75,36.4864,37.8869,144.816,100.349,65.2602,0.0161425,0.526689,20.3481,184.686,3.90842,0.0,0.0
230,57.25,36.601,39.2507,149.371,100.342,64.2077,0.0143559,0.463304,20.4198,184.486,4.05551,0.0,0.0
240,59.75,37.5934,39.7845,147.059,100.326,69.5472,0.012305,0.410683,20.4998,184.315,3.32845,0.0,0.0
250,62.25,38.4732,40.2652,155.919,100.325,74.8828,0.0102391,0.349264,20.5947,184.195,2.65692,0.0,0.0
260,64.75,37.9985,40.1289,160.135,100.328,80.6221,0.00817199,0.303142,20.6739,184.105,1.98637,0.0,0.0
270,67.25,37.7903,39.6147,159.365,100.319,84.1497,0.00631011,0.259409,20.7386,184.005,1.59651,0.0,0.0
280,69.75,36.889,39.1748,157.842,100.327,86.8614,0.00490833,0.22569,20.7783,183.965,1.30916,0.0,0.0
290,72.25,37.0685,38.735,156.991,100.317,89.2121,0.00399091,0.199143,20.8172,183.875,1.0657,0.0,0.0
300,74.75,36.5773,38.6332,160.005,100.345,91.2487,0.00365113,0.174825,20.86,183.885,0.863175,0.0,0.0
310,77.25,35.3895,37.5655,163.217,100.341,91.7908,0.00371306,0.154764,20.886,183.835,0.809024,0.0,0.0
320,79.75,34.9083,36.5913,164.407,100.354,92.1196,0.0041054,0.139616,20.9065,183.805,0.777713,0.0,0.0
330,82.25,34.2295,36.2345,162.962,100.366,92.4152,0.004715,0.127558,20.9223,183.765,0.749734,0.0,0.0
340,84.75,33.5902,35.4233,162.311,100.375,92.5103,0.00535831,0.118639,20.9348,183.745,0.741141,0.0,0.0
350,87.25,32.9752,34.818,161.788,100.392,92.9548,0.0060461,0.11144,20.9443,183.715,0.699176,0.0,0.0
360,89.75,32.2916,34.5783,162.029,100.406,93.1506,0.00668448,0.106091,20.9507,183.685,0.681339,0.0,0.0
370,92.25,31.3431,33.4042,159.26,100.436,93.6613,0.00702225,0.101959,20.9547,183.655,0.634365,0.0,0.0
380,94.75,30.7491,33.057,160.34,100.476,93.5374,0.00724461,0.0987808,20.9617,183.625,0.650026,0.0,0.0
390,97.25,30.3593,32.9034,168.078,100.492,93.4647,0.00745596,0.0946152,20.9682,183.585,0.658478,0.0,0.0
400,99.75,29.7824,31.9155,168.912,100.508,93.5537,0.0076374,0.0913519,20.9722,183.565,0.651286,0.0,0.0
410,102.25,29.2901,31.5663,165.296,100.523,93.7022,0.00781894,0.088889,20.9766,183.555,0.638269,0.0,0.0
420,104.75,28.7495,30.8459,162.474,100.527,93.4965,0.00806642,0.0866543,20.9792,183.525,0.658604,0.0,0.0
430,107.25,28.2011,30.1465,163.88,100.534,93.6024,0.00809707,0.0852762,20.9813,183.455,0.648924,0.0,0.0
440,109.75,27.8724,29.7018,165.716,100.515,93.7861,0.00810166,0.0842708,20.9824,183.475,0.629426,0.0,0.0
450,112.25,27.5277,29.3095,164.219,100.523,93.5133,0.00820642,0.0833836,20.9828,183.505,0.656562,0.0,0.0
460,114.75,26.6965,28.2504,170.371,100.494,93.7784,0.00824762,0.0826627,20.9827,183.485,0.62823,0.0,0.0
470,117.25,26.2056,27.7693,165.209,100.493,93.5615,0.00815264,0.0819395,20.9826,183.455,0.649186,0.0,0.0
480,119.75,24.4459,27.5444,163.816,100.475,94.0292,0.00808244,0.0811569,20.9835,183.455,0.60224,0.0,0.0
490,122.25,25.3818,26.6322,165.431,100.463,93.5292,0.00817167,0.0806229,20.9856,183.415,0.649585,0.0,0.0
500,124.75,24.9196,26.3735,166.209,100.441,93.7061,0.00827385,0.0803174,20.9866,183.365,0.630477,0.0,0.0
510,127.25,24.3548,26.2044,168.537,100.434,93.537,0.00816955,0.0801375,20.9882,183.375,0.64621,0.0,0.0
520,129.75,24.277,25.6203,171.236,100.419,93.4789,0.00791221,0.0799586,20.989,183.344,0.65054,0.0,0.0
530,132.25,24.0398,25.3654,164.772,100.403,93.4096,0.00772686,0.0800581,20.9891,183.334,0.655813,0.0,0.0
540,134.75,23.8438,24.6948,165.79,100.392,93.5322,0.00762448,0.0800724,20.9888,183.314,0.642883,0.0,0.0
550,137.25,23.6904,24.8855,164.622,100.374,93.6605,0.0075964,0.0799718,20.9886,183.304,0.628826,0.0,0.0
560,139.75,23.0011,24.7627,167.648,100.371,93.5576,0.0076615,0.0799266,20.9884,183.264,0.638543,0.0,0.0
570,142.25,22.794,24.7999,164.808,100.348,93.4509,0.00751724,0.0795917,20.9889,183.274,0.64681,0.0,0.0
580,144.75,21.6532,23.8997,165.592,100.351,93.392,0.0072405,0.078877,20.9905,183.254,0.652804,0.0,0.0
590,147.25,22.637,23.6701,163.948,100.332,93.4122,0.00701602,0.0781083,20.9924,183.214,0.649113,0.0,0.0
600,149.75,22.5674,23.7184,166.563,100.335,93.6846,0.00685184,0.0769366,20.9933,183.204,0.622965,0.0,0.0
610,152.25,22.2464,23.1575,166.407,100.318,93.6953,0.0067265,0.0760039,20.9936,183.214,0.620346,0.0,0.0
620,154.75,22.0855,23.4196,166.125,100.323,93.3085,0.00661323,0.0750157,20.9947,183.194,0.658452,0.0,0.0
630,157.25,22.0886,22.9576,169.69,100.313,93.5172,0.00657942,0.0738428,20.9956,183.164,0.637257,0.0,0.0
640,159.75,22.0993,22.7854,166.719,100.32,93.7474,0.00653635,0.0730084,20.996,183.174,0.615487,0.0,0.0
650,162.25,21.4628,22.4578,167.488,100.326,93.6708,0.00642564,0.0717309,20.9987,183.154,0.623474,0.0,0.0
660,164.75,21.1889,22.8221,162.652,100.341,93.3851,0.00630225,0.0706936,21.0012,183.154,0.652612,0.0,0.0
670,167.25,21.0125,21.6721,166.417,100.366,93.4612,0.00603832,0.070023,21.0022,183.104,0.647419,0.0,0.0
680,169.75,20.8852,21.9773,164.02,100.398,93.4195,0.00573976,0.0690654,21.0025,183.094,0.654401,0.0,0.0
690,172.25,20.6791,21.9047,163.837,100.434,93.5611,0.00549393,0.0678989,21.0032,183.074,0.643869,0.0,0.0
700,174.75,20.6183,21.31,166.88,100.482,93.657,0.00527102,0.0669458,21.0046,183.074,0.638905,0.0,0.0
710,177.25,20.2179,21.8053,163.484,100.556,93.685,0.00517133,0.0660957,21.0054,183.044,0.642932,0.0,0.0
720,179.75,19.8799,20.6139,165.054,100.632,93.8136,0.00520585,0.0655692,21.0057,183.024,0.637351,0.0,0.0
730,182.25,20.6485,21.4672,164.745,100.755,93.7973,0.00508604,0.065358,21.0058,183.044,0.649961,0.0,0.0
740,184.75,20.5292,21.5312,166.419,100.873,94.2289,0.00488365,0.0648319,21.007,182.994,0.618901,0.0,0.0
750,187.25,20.0362,20.7403,163.661,100.995,94.6777,0.00490595,0.0642094,21.0083,183.064,0.586704,0.0,0.0
760,189.75,19.8295,20.7685,163.399,101.135,94.2547,0.00498255,0.0637121,21.0096,183.044,0.640038,0.0,0.0
770,192.25,20.3673,20.555,167.813,101.285,94.3963,0.00476878,0.0628338,21.0099,183.024,0.639866,0.0,0.0
780,194.75,19.5817,21.0052,163.91,101.411,94.6398,0.00437241,0.0620378,21.0093,183.004,0.627751,0.0,0.0
790,197.25,19.9666,21.1126,162.953,101.559,94.5856,0.00396499,0.0611244,21.0106,183.014,0.646122,0.0,0.0
800,199.75,19.814,20.5274,164.063,101.725,95.077,0.00372612,0.0602019,21.0128,183.014,0.613938,0.0,0.0
810,202.25,19.5151,20.215,165.348,101.87,95.1381,0.00364749,0.0592711,21.0144,182.974,0.621006,0.0,0.0
820,204.75,19.8074,20.5707,166.369,102.011,95.1377,0.00353197,0.0583419,21.0168,183.004,0.633675,0.0,0.0
830,207.25,18.6369,19.4823,167.033,102.137,95.1966,0.00347645,0.0572718,21.0188,182.984,0.639184,0.0,0.0
840,209.75,19.2452,20.1466,167.136,102.243,95.2745,0.00340003,0.0564736,21.0203,182.964,0.641258,0.0,0.0
850,212.25,19.6017,20.0789,163.497,102.331,95.2995,0.00324106,0.0553715,21.0211,182.954,0.64668,0.0,0.0
860,214.75,19.3008,20.3764,158.048,102.393,95.3808,0.00306395,0.0544246,21.0226,182.944,0.644373,0.0,0.0
870,217.25,19.2434,19.5996,165.886,102.439,95.512,0.00286237,0.0536476,21.0231,182.954,0.635963,0.0,0.0
880,219.75,18.6876,19.5858,164.61,102.479,95.5288,0.00268947,0.0529844,21.0247,182.934,0.637929,0.0,0.0
890,222.25,19.7055,19.8631,165.145,102.495,95.8433,,0.0522788,,182.974,0.609501,0.0,0.0
900,224.75,19.577,20.3359,163.627,102.494,95.6097,,,,182.994,0.6316,0.0,0.0
910,227.25,19.4128,19.5416,167.756,102.464,95.5649,,,,182.994,0.633172,0.0,0.0
920,229.75,19.5337,19.8792,167.492,102.411,95.5727,,,,182.924,0.627769,0.0,0.0
930,232.25,18.672,19.4436,166.311,102.33,95.3141,,,,182.914,0.645212,0.0,0.0
931,232.5,18.6069,19.5119,166.659,102.327,95.6777,,,,182.904,0.610295,0.0,0.0

File: Roof_Felt_Underlayment_Cone_HF25Scan_220328_R2.csv
Names,Time,Stack TC,Smoke TC,Exh Press,Smoke Comp,Smoke Meas,CO Meter,CO2 Meter,O2 Meter,Sample Mass,Ext Coeff,Start Test,Flame Verif
Chan Gain,,500,500,1,1,1,1,1,1,1,1,1.0,1.0
Offset,,0,0,0.134123,0,0,0,0,0,0,0,0.0,0.0
Gain,,1,1,25.011,13.5775,14.0999,1,1,1,1.0009,1.03554,1.0,1.0
Units,sec,C,C,Pa,%,%,%,%,%,g,/m,,
Baseline,,17.6226,17.7038,166.722,102.008,95.2096,0.00030744,0.0441688,21.039,-834.399,0.626504,,
11,2.5,16.1827,16.806,166.779,101.604,95.3154,0.000484524,0.0511218,21.0326,171.023,0.580381,0.0,0.0
22,5.25,15.4393,16.6027,165.49,101.613,95.1144,0.000561558,0.0512032,21.0312,170.923,0.600367,0.0,0.0
33,8,16.8121,17.0766,163.686,101.641,95.4238,0.000601695,0.0519055,21.0293,170.913,0.573312,0.0,0.0
44,10.75,16.5293,17.0232,164.229,101.644,95.2754,0.000504073,0.0519265,21.0293,170.933,0.587752,0.0,0.0
55,13.5,16.5536,17.4669,165.925,101.64,95.1467,0.000373522,0.0515817,21.0303,170.883,0.599693,0.0,0.0
66,16.25,16.7804,17.2226,167.55,101.664,95.1187,0.00035553,0.0524473,21.0294,170.853,0.604473,0.0,0.0
77,19,16.8125,16.9387,169.099,101.671,94.8683,0.000490742,0.0535173,21.0273,170.843,0.629088,0.0,0.0
88,21.75,16.8801,16.9378,168.228,101.665,94.7973,0.000656142,0.0550632,21.0249,170.813,0.635296,0.0,0.0
99,24.5,16.6818,16.8521,170.25,101.677,94.8016,0.000758476,0.0560314,21.0249,170.823,0.636032,0.0,0.0
110,27.25,17.1493,17.21,169.562,101.7,94.7547,0.000838061,0.0554109,21.0265,170.793,0.642525,0.0,0.0
121,30,16.8132,17.2023,165.999,101.707,94.8408,0.00100834,0.0540434,21.0277,170.763,0.634945,0.0,0.0
132,32.75,16.7114,16.5548,171.793,101.717,94.4729,0.00128131,0.0534944,21.0255,170.703,0.671102,0.0,0.0
143,35.5,17.1479,17.4898,159.183,101.727,87.5064,0.00237536,0.080097,20.9501,170.533,1.36784,0.0,1.0
154,38.25,17.8292,18.2589,152.621,101.746,82.996,0.00405775,0.160045,20.8233,170.373,1.8502,0.0,1.0
165,41,18.8984,19.5822,148.696,101.758,78.1729,0.00630416,0.266847,20.6728,170.023,2.39512,0.0,0.0
176,43.75,21.0785,21.8487,143.285,101.766,79.422,0.00816006,0.377704,20.5149,169.662,2.25182,0.0,0.0
187,46.5,23.4436,24.5426,138.084,101.774,77.1729,0.00991985,0.477126,20.3878,169.212,2.51351,0.0,0.0
198,49.25,26.1899,26.8853,135.025,101.777,75.6526,0.0120745,0.561063,20.2884,168.781,2.69453,0.0,0.0
209,52,30.8275,30.1057,139.802,101.778,67.8346,0.0151723,0.60294,20.2421,168.351,3.68541,0.0,0.0
220,54.75,32.3344,33.6665,139.15,101.796,61.9133,0.0172592,0.594526,20.239,167.991,4.51675,0.0,0.0
231,57.5,33.4965,34.9252,149.337,101.81,66.7193,0.0168758,0.535038,20.3291,167.72,3.83893,0.0,0.0
242,60.25,35.2799,37.7627,147.188,101.82,60.8643,0.0158292,0.473192,20.4022,167.45,4.67413,0.0,0.0
253,63,34.9796,37.4158,149.595,101.843,66.3191,0.01393,0.419245,20.4794,167.22,3.89649,0.0,0.0
264,65.75,37.0556,38.5014,150.849,101.851,72.1307,0.0117129,0.369367,20.5598,167.02,3.13412,0.0,0.0
275,68.5,37.017,38.7207,156.959,101.844,77.9741,0.00961075,0.322822,20.6347,166.87,2.42594,0.0,0.0
286,71.25,36.765,38.8428,154.762,101.863,82.629,0.00797828,0.28527,20.6918,166.68,1.90093,0.0,0.0
297,74,36.7839,39.0758,155.332,101.871,82.5614,0.00690444,0.260019,20.7237,166.589,1.90906,0.0,0.0
308,76.75,36.9865,38.8079,157.863,101.875,85.2581,0.0058185,0.242678,20.7495,166.469,1.61744,0.0,0.0
319,79.5,36.3013,38.2218,156.488,101.913,85.7766,0.00490619,0.225119,20.777,166.479,1.56576,0.0,0.0
330,82.25,36.1077,37.8646,156.024,101.907,86.1738,0.00465457,0.213359,20.7895,166.299,1.52328,0.0,0.0
341,85,35.0721,37.1814,161.052,101.919,87.456,0.00474874,0.204334,20.8022,166.199,1.39018,0.0,0.0
352,87.75,35.6458,37.8138,156.299,101.915,87.8149,0.00479623,0.193676,20.8184,166.079,1.35262,0.0,0.0
363,90.5,35.4759,37.2625,161.598,101.927,90.0279,0.00498215,0.181263,20.8384,166.019,1.12765,0.0,0.0
374,93.25,34.5323,36.789,162.991,101.917,90.2211,0.00543631,0.167058,20.863,165.999,1.10729,0.0,0.0
385,96,33.3888,35.7359,160.201,101.915,92.7297,0.00589855,0.151233,20.8838,165.929,0.857978,0.0,0.0
396,98.75,33.623,35.9127,160.855,101.895,93.5697,0.0063858,0.137694,20.9038,165.859,0.774259,0.0,0.0
407,101.5,33.3611,34.9417,159.524,101.873,93.5292,0.00701224,0.127187,20.9194,165.859,0.776266,0.0,0.0
418,104.25,32.014,34.6598,161.91,101.85,93.4165,0.0074516,0.12184,20.9273,165.819,0.785153,0.0,0.0
429,107,31.8295,34.1875,160.679,101.822,94.1428,0.00744629,0.118731,20.9333,165.769,0.712247,0.0,0.0
440,109.75,31.2787,33.1798,160.421,101.803,95.1815,0.00744738,0.116307,20.9385,165.739,0.610871,0.0,0.0
451,112.5,30.7383,32.9022,160.427,101.766,94.3649,0.00792525,0.115445,20.9386,165.699,0.685858,0.0,0.0
462,115.25,30.4893,32.0035,166.503,101.718,94.7366,0.00826324,0.116094,20.937,165.669,0.64585,0.0,0.0
473,118,29.543,31.3389,161.078,101.678,95.1738,0.00839992,0.116573,20.937,165.629,0.600511,0.0,0.0
484,120.75,28.5435,30.7252,166.383,101.618,95.04,0.00873091,0.115657,20.9401,165.619,0.607923,0.0,0.0
495,123.5,28.9018,30.6018,161.675,101.559,94.6385,0.00908382,0.113459,20.9428,165.549,0.641115,0.0,0.0
506,126.25,27.9846,29.9724,164.945,101.49,94.6626,0.00929048,0.11165,20.9444,165.529,0.632574,0.0,0.0
517,129,27.9155,29.8557,162.224,101.422,94.5645,0.00944971,0.110735,20.945,165.488,0.635909,0.0,0.0
528,131.75,27.2629,29.362,162.049,101.347,94.6682,0.00983952,0.110469,20.9462,165.478,0.619233,0.0,0.0
539,134.5,27.2641,28.5607,162.933,101.261,94.6897,0.0103777,0.109913,20.9471,165.438,0.609515,0.0,0.0
550,137.25,25.912,27.7422,159.904,101.178,94.3954,0.0108996,0.109038,20.9499,165.428,0.63032,0.0,0.0
561,140,25.7204,27.5419,168.442,101.092,94.6798,0.0111667,0.10788,20.9514,165.388,0.595288,0.0,0.0
572,142.75,25.2035,27.503,165.96,100.994,94.293,0.0112987,0.107488,20.9523,165.368,0.623612,0.0,0.0
583,145.5,24.815,27.049,168.479,100.923,94.2263,0.0112423,0.107227,20.9531,165.318,0.623702,0.0,0.0
594,148.25,24.5262,26.178,165.681,100.823,94.2392,0.0110168,0.10633,20.9542,165.298,0.613427,0.0,0.0
605,151,24.502,26.5984,168.041,100.748,94.4298,0.01088,0.105329,20.9553,165.258,0.588275,0.0,0.0
616,153.75,24.002,25.2582,165.577,100.665,94.8803,0.0110972,0.104635,20.9556,165.228,0.537602,0.0,0.0
627,156.5,24.466,25.6375,162.431,100.592,94.2538,0.0110369,0.103832,20.9558,165.198,0.591162,0.0,0.0
638,159.25,22.8474,23.9776,163.04,100.533,93.731,0.0107192,0.102506,20.9584,165.168,0.636335,0.0,0.0
649,162,23.5185,25.0346,164.401,100.481,94.0572,0.0104654,0.101274,20.9598,165.128,0.6001,0.0,0.0
660,164.75,23.4251,25.2702,165.328,100.452,93.9875,0.010133,0.100413,20.9618,165.138,0.604212,0.0,0.0
671,167.5,22.2103,23.3381,164.514,100.393,93.9118,0.00956433,0.0993073,20.9623,165.118,0.606213,0.0,0.0
682,170.25,22.7912,24.4143,161.803,100.354,93.66,0.00932876,0.0974464,20.9648,165.088,0.62703,0.0,0.0
693,173,22.5866,23.8717,164.762,100.329,93.805,0.00936997,0.0957864,20.9668,165.068,0.610727,0.0,0.0
704,175.75,23.3282,23.5879,167.611,100.307,93.8154,0.00917467,0.0934461,20.9707,165.038,0.607738,0.0,0.0
715,178.5,22.3731,23.3913,167.249,100.284,93.7418,0.0087727,0.0905946,20.9749,165.008,0.61284,0.0,0.0
726,181.25,21.8308,23.384,165.264,100.289,93.6381,0.0081864,0.0873336,20.9785,164.988,0.623269,0.0,0.0
737,184,21.9925,22.6756,167.231,100.283,93.7672,0.00755596,0.0838325,20.9826,164.988,0.610229,0.0,0.0
748,186.75,21.7638,22.6601,165.215,100.291,94.0817,0.00686992,0.0801966,20.988,164.988,0.580598,0.0,0.0
759,189.5,21.5916,22.6953,164.306,100.29,93.9741,0.00628504,0.0767748,20.9918,164.948,0.590839,0.0,0.0
770,192.25,21.3538,22.9259,167.499,100.294,93.8808,0.00579617,0.0739715,20.9973,164.948,0.600207,0.0,0.0
781,195,21.5157,22.7902,165.788,100.307,94.2383,0.00540572,0.0717603,21.0014,164.948,0.566875,0.0,0.0
792,197.75,21.3066,22.2927,163.365,100.334,94.0383,0.00488328,0.0697602,21.003,164.928,0.588621,0.0,0.0
803,200.5,20.6741,20.8588,159.056,100.348,93.8334,0.00435401,0.0677703,21.0052,164.938,0.60974,0.0,0.0
814,203.25,20.6094,21.7035,164.479,100.366,93.8941,0.00416058,0.0658652,21.0068,164.908,0.605519,0.0,0.0
825,206,20.8187,21.3968,161.913,100.445,94.1286,0.00404944,0.064122,21.0073,164.908,0.589945,0.0,0.0
836,208.75,21.0067,21.6588,161.92,100.492,93.8971,0.00377608,0.0626201,21.0094,164.918,0.616621,0.0,0.0
847,211.5,20.8879,21.4901,163.368,100.528,93.9247,0.00344321,0.0609045,21.0103,164.898,0.617215,0.0,0.0
858,214.25,20.8473,21.1561,163.876,100.58,94.083,0.00308701,0.0594057,21.0144,164.888,0.606556,0.0,0.0
869,217,20.585,21.5747,167.408,100.634,93.9186,0.00299957,0.0575917,21.0183,164.898,0.62734,0.0,0.0
880,219.75,20.3229,21.4157,167.082,100.703,94.092,0.0027746,0.0558335,21.0212,164.848,0.61679,0.0,0.0
891,222.5,19.6338,21.2477,165.552,100.776,93.9664,0.00246701,0.0542319,21.0234,164.888,0.635504,0.0,0.0
902,225.25,19.687,20.4725,170.018,100.817,94.1247,0.00228515,0.0526785,21.0262,164.848,0.623943,0.0,0.0
913,228,19.9215,20.5469,164.726,100.86,94.5275,0.00196445,0.0514922,21.0282,164.848,0.588965,0.0,0.0
924,230.75,19.9319,20.533,165.984,100.88,94.1768,0.00163689,0.0502288,21.0307,164.848,0.624556,0.0,0.0
935,233.5,19.555,19.8638,165.046,100.902,94.0834,0.00142881,0.0492341,21.0322,164.848,0.635543,0.0,0.0
946,236.25,19.6531,20.6815,167.936,100.928,94.0056,0.00123102,0.0484408,21.0332,164.788,0.645454,0.0,0.0
957,239,19.8476,20.8032,162.607,100.934,94.055,0.00100406,0.047944,21.0332,164.808,0.641158,0.0,0.0
968,241.75,19.2879,20.7647,160.702,100.916,94.3851,0.00101722,0.047381,21.0332,164.858,0.607773,0.0,0.0
979,244.5,19.7588,20.772,162.603,100.911,94.299,0.00105333,0.0471113,21.0345,164.848,0.615612,0.0,0.0
990,247.25,19.1134,19.9635,167.714,100.912,94.364,,0.0468215,,164.838,0.609392,0.0,0.0
1001,250,20.2132,20.3556,162.91,100.897,94.8872,,,,164.848,0.557858,0.0,0.0
1012,252.75,19.557,20.1993,165.954,100.928,94.5443,,,,164.828,0.593508,0.0,0.0
1023,255.5,19.5444,19.7278,163.404,100.967,94.725,,,,164.828,0.579666,0.0,0.0
1025,256,19.6011,20.0011,165.322,100.974,94.4509,,,,164.828,0.606622,0.0,0.0