Folder: fsri_materials_database/01_Data/Roof_Felt/Cone (part 2)

File: Roof_Felt_Underlayment_Cone_HF25Scan_220328_R3.csv
Names,Time,Stack TC,Smoke TC,Exh Press,Smoke Comp,Smoke Meas,CO Meter,CO2 Meter,O2 Meter,Sample Mass,Ext Coeff,Start Test,Flame Verif
Chan Gain,,500,500,1,1,1,1,1,1,1,1,1.0,1.0
Offset,,0,0,0.134123,0,0,0,0,0,0,0,0.0,0.0
Gain,,1,1,25.011,13.5775,14.0999,1,1,1,1.0009,1.03554,1.0,1.0
Units,sec,C,C,Pa,%,%,%,%,%,g,/m,,
Baseline,,17.4695,17.5247,166.826,100.971,94.4103,0.00027271,0.0438597,21.0383,-834.465,0.610337,,
9,2,16.5704,16.4609,164.655,102.306,95.6088,0.000361037,0.0574106,21.0205,197.097,0.615031,0.0,0.0
18,4.25,16.5518,16.3663,167.098,102.32,95.5994,0.000396375,0.0583803,21.0197,197.067,0.617108,0.0,0.0
27,6.5,16.5824,16.4851,166.696,102.328,95.6454,0.000531607,0.0606099,21.0159,197.027,0.613433,0.0,0.0
36,8.75,16.9127,16.9188,167.327,102.339,96.4595,0.00057536,0.0622422,21.0147,197.017,0.537434,0.0,0.0
45,11,16.7282,17.2206,163.424,102.33,95.963,0.000533056,0.0617398,21.0161,196.997,0.583544,0.0,0.0
54,13.25,17.0892,17.0269,164.214,102.339,95.9023,0.00058792,0.0602372,21.0181,196.967,0.590061,0.0,0.0
63,15.5,17.0206,18.0033,161.68,102.338,95.8498,0.000739531,0.0587069,21.0192,196.987,0.594962,0.0,0.0
72,17.75,16.6492,16.6219,168.824,102.323,95.8016,0.000781095,0.0570726,21.0207,196.937,0.598206,0.0,0.0
81,20,17.1099,17.2239,164.406,102.289,95.6347,0.000702982,0.0557815,21.0234,196.907,0.61107,0.0,0.0
90,22.25,17.3539,17.7884,163.794,102.257,95.2956,0.000567869,0.0547655,21.0256,196.897,0.640463,0.0,0.0
99,24.5,17.202,17.1594,166.247,102.219,95.1454,0.000479016,0.0540313,21.027,196.897,0.651364,0.0,0.0
108,26.75,16.6071,17.098,170.554,102.155,95.0094,0.00053077,0.0530357,21.0289,196.887,0.65872,0.0,0.0
117,29,17.5162,17.1317,165.664,102.098,95.1355,0.000625998,0.0513481,21.0311,196.867,0.641588,0.0,0.0
126,31.25,17.4539,17.5465,167.013,102.024,94.5766,0.000808454,0.0498123,21.0308,196.857,0.688551,0.0,0.0
135,33.5,17.4068,17.1166,165.835,101.956,94.6648,0.00138918,0.0521635,21.0186,196.837,0.673994,0.0,1.0
144,35.75,17.5602,17.4432,153.253,101.878,87.4466,0.00271145,0.0777889,20.9428,196.626,1.38751,0.0,1.0
153,38,18.376,18.4413,153.373,101.823,80.4289,0.00470977,0.150055,20.8387,196.486,2.14248,0.0,1.0
162,40.25,18.3676,18.3054,146.649,101.772,76.4237,0.00798001,0.243605,20.6914,196.246,2.6019,0.0,0.0
171,42.5,20.7341,21.2003,134.636,101.711,68.6905,0.0115435,0.376627,20.4912,195.846,3.56557,0.0,0.0
180,44.75,23.7959,23.5437,135.501,101.7,67.7765,0.016146,0.5228,20.2921,195.425,3.68628,0.0,0.0
189,47,27.3061,27.5273,121.895,101.714,65.1208,0.0197109,0.687936,20.0773,194.905,4.05056,0.0,0.0
198,49.25,30.7369,30.9679,132.008,101.714,63.6156,0.0208752,0.78827,19.9835,194.474,4.26302,0.0,0.0
207,51.5,33.623,34.4008,136.108,101.721,66.0566,0.0201917,0.783984,20.0079,194.104,3.92161,0.0,0.0
216,53.75,35.8762,36.8807,145.538,101.729,63.6306,0.0186699,0.711374,20.1085,193.824,4.2622,0.0,0.0
225,56,36.6817,38.7509,148.82,101.724,63.6139,0.0170429,0.618557,20.2367,193.574,4.26415,0.0,0.0
234,58.25,37.6448,39.2314,145.918,101.724,64.687,0.0154498,0.528701,20.3501,193.404,4.11219,0.0,0.0
243,60.5,38.5339,40.0047,146.996,101.728,66.3355,0.0133499,0.452461,20.4499,193.233,3.88394,0.0,0.0
252,62.75,38.758,40.3848,152.723,101.74,73.317,0.0112415,0.389164,20.5554,193.103,2.97603,0.0,0.0
261,65,38.4913,40.6016,154.122,101.751,76.6987,0.00951402,0.332746,20.6271,192.983,2.56746,0.0,0.0
270,67.25,38.1329,40.2661,156.507,101.757,81.6974,0.00763557,0.290802,20.6779,192.903,1.99446,0.0,0.0
279,69.5,37.8127,39.991,160.051,101.769,84.0748,0.00612343,0.256132,20.7303,192.823,1.73493,0.0,0.0
288,71.75,37.6328,39.73,157.908,101.787,86.7891,0.00486363,0.228518,20.7729,192.763,1.44793,0.0,0.0
297,74,37.4571,39.7018,155.506,101.797,90.6376,0.00393066,0.205707,20.8091,192.713,1.05469,0.0,0.0
306,76.25,37.1633,39.0484,160.118,101.802,92.1901,0.00349459,0.186286,20.8381,192.623,0.900902,0.0,0.0
315,78.5,36.5387,38.6482,158.918,101.812,93.9939,0.00349959,0.170893,20.86,192.593,0.725773,0.0,0.0
324,80.75,36.2439,38.5433,162.885,101.827,93.8502,0.00398595,0.159141,20.8778,192.553,0.741005,0.0,0.0
333,83,34.7819,36.7067,161.637,101.85,93.6149,0.00473359,0.148728,20.8922,192.533,0.765884,0.0,0.0
342,85.25,34.6295,37.1032,161.095,101.876,94.432,0.00551811,0.136429,20.9137,192.473,0.689194,0.0,0.0
351,87.5,33.5457,35.5699,164.255,101.917,94.1157,0.00618711,0.123939,20.9324,192.463,0.723398,0.0,0.0
360,89.75,33.7349,36.0513,163.592,101.961,94.6523,0.00688183,0.112083,20.9446,192.443,0.675635,0.0,0.0
369,92,33.3104,35.2992,163.674,101.998,94.7211,0.00750079,0.103521,20.9571,192.433,0.672351,0.0,0.0
378,94.25,32.3136,34.7422,164.872,102.065,94.1988,0.00811568,0.0978519,20.9638,192.433,0.728561,0.0,0.0
387,96.5,32.0285,33.8536,165.716,102.113,95.0034,0.00865076,0.0950361,20.9664,192.383,0.655537,0.0,0.0
396,98.75,30.8524,32.6068,166.645,102.188,94.9419,0.00896022,0.0947131,20.9672,192.353,0.668128,0.0,0.0
405,101,30.4301,32.1208,165.993,102.216,94.9191,0.00916847,0.0952968,20.9672,192.333,0.672741,0.0,0.0
414,103.25,29.4816,31.5662,163.587,102.283,95.1609,0.00927717,0.0958385,20.9667,192.323,0.655591,0.0,0.0
423,105.5,29.332,31.056,165.564,102.345,95.6958,0.00928957,0.095772,20.9656,192.293,0.610198,0.0,0.0
432,107.75,28.3399,30.6157,164.372,102.397,95.0512,0.00926714,0.0955491,20.9651,192.303,0.676223,0.0,0.0
441,110,28.2941,30.683,165.013,102.446,95.3997,0.00926178,0.0952421,20.9656,192.242,0.647274,0.0,0.0
450,112.25,28.1666,29.8053,166.06,102.474,95.4828,0.00934861,0.0944999,20.9675,192.222,0.641868,0.0,0.0
459,114.5,27.9278,28.7439,162.325,102.488,95.4935,0.00957913,0.0942557,20.9686,192.212,0.64213,0.0,0.0
468,116.75,26.9299,28.8092,163.773,102.499,95.33,0.00966972,0.0944199,20.9691,192.202,0.658652,0.0,0.0
477,119,26.6237,28.4209,165.471,102.495,95.8382,0.00952401,0.0940539,20.9684,192.162,0.609991,0.0,0.0
486,121.25,26.3729,27.5782,161.006,102.48,95.5482,0.0093283,0.0939428,20.9668,192.132,0.636199,0.0,0.0
495,123.5,25.8029,27.2106,164.877,102.42,95.5606,0.00916529,0.0939336,20.9655,192.112,0.62965,0.0,0.0
504,125.75,25.1968,27.3865,166.978,102.387,95.5731,0.00891189,0.0935189,20.9663,192.132,0.625596,0.0,0.0
513,128,25.3221,27.3821,167.58,102.306,95.2633,0.00866384,0.0925827,20.9696,192.062,0.647918,0.0,0.0
522,130.25,25.1801,26.4999,164.684,102.209,95.1355,0.00857435,0.0912042,20.9706,192.022,0.651425,0.0,0.0
531,132.5,25.0306,26.1999,166.735,102.093,95.0701,0.00861809,0.0902432,20.9694,192.042,0.647356,0.0,0.0
540,134.75,24.2088,25.7571,164.095,102.013,94.9272,0.00867541,0.0896788,20.9707,192.012,0.653935,0.0,0.0
549,137,24.2093,25.3162,162.454,101.89,94.8072,0.00855621,0.0887891,20.9757,191.992,0.654466,0.0,0.0
558,139.25,24.3122,25.8167,159.486,101.813,94.9057,0.00833147,0.0874265,20.9804,191.992,0.638119,0.0,0.0
567,141.5,23.9637,25.2109,162.522,101.697,94.8674,0.00817044,0.0857975,20.9848,191.952,0.631428,0.0,0.0
576,143.75,24.0013,24.8371,168.586,101.581,94.512,0.00818348,0.084092,20.9881,191.962,0.65523,0.0,0.0
585,146,23.5279,25.5944,167.002,101.46,94.5443,0.0080538,0.083393,20.9906,191.932,0.641302,0.0,0.0
594,148.25,23.3921,24.9116,167.627,101.302,94.58,0.00774166,0.0825833,20.9928,191.922,0.62369,0.0,0.0
603,150.5,23.2541,24.2894,163.932,101.131,94.5387,0.00740079,0.0816124,20.9939,191.902,0.612338,0.0,0.0
612,152.75,22.9179,23.8494,164.477,100.971,94.2018,0.00718049,0.0809705,20.9948,191.892,0.630316,0.0,0.0
621,155,22.8053,24.2756,165.874,100.853,93.9957,0.00709948,0.0799594,20.9951,191.872,0.639657,0.0,0.0
630,157.25,22.7857,23.719,164.254,100.739,93.9272,0.00696973,0.0786859,20.9967,191.872,0.635928,0.0,0.0
639,159.5,22.6179,23.4637,162.439,100.656,93.7095,0.00661915,0.0771546,20.9959,191.882,0.649534,0.0,0.0
648,161.75,22.3384,23.6074,166.06,100.552,93.7074,0.00633856,0.0760012,20.9965,191.902,0.640426,0.0,0.0
657,164,22.5115,23.0781,169.796,100.479,93.7186,0.00618985,0.0748598,20.9966,191.842,0.632713,0.0,0.0
666,166.25,21.0519,22.2155,166.025,100.426,93.555,0.00612212,0.0737528,20.9967,191.822,0.64378,0.0,0.0
675,168.5,21.7199,22.7961,161.901,100.381,93.7022,0.00605836,0.073065,20.998,191.812,0.625417,0.0,0.0
684,170.75,21.9601,22.8654,166.231,100.354,93.7099,0.00588907,0.0721595,20.9993,191.842,0.62219,0.0,0.0
693,173,21.5243,22.5842,161.702,100.324,93.4918,0.00558086,0.0709421,21.0005,191.782,0.640699,0.0,0.0
702,175.25,21.3808,22.7597,170.165,100.324,93.5434,0.00522471,0.06982,21.0032,191.772,0.635647,0.0,0.0
711,177.5,20.9323,22.0787,166.38,100.307,93.5081,0.0048132,0.0686369,21.0055,191.822,0.637535,0.0,0.0
720,179.75,21.3302,21.9411,166.953,100.32,93.7611,0.00450889,0.0672149,21.0077,191.812,0.614153,0.0,0.0
729,182,20.3917,21.2998,166.415,100.323,93.6596,0.00445675,0.0661752,21.01,191.772,0.624259,0.0,0.0
738,184.25,21.5712,22.1791,163.216,100.322,93.7319,0.00441132,0.0654345,21.0102,191.782,0.617214,0.0,0.0
747,186.5,21.5367,21.8135,162.817,100.335,93.5615,0.00418872,0.0641331,21.0109,191.812,0.634942,0.0,0.0
756,188.75,20.8305,21.6746,165.078,100.339,93.5864,0.00395946,0.062513,21.0116,191.782,0.632857,0.0,0.0
765,191,19.6811,20.8897,165.139,100.363,93.6781,0.00366826,0.0609445,21.0131,191.742,0.626141,0.0,0.0
774,193.25,20.9437,21.9376,168.414,100.361,93.6488,0.0033928,0.0596358,21.0151,191.722,0.628791,0.0,0.0
783,195.5,20.3662,21.0654,164.427,100.355,93.6291,0.00324737,0.0583928,21.0174,191.722,0.630148,0.0,0.0
792,197.75,20.6414,21.2876,161.508,100.366,93.8291,0.00311599,0.057616,21.0192,191.722,0.611732,0.0,0.0
801,200,20.5999,21.4308,167.683,100.37,93.7977,0.00296881,0.0569039,21.0212,191.722,0.615187,0.0,0.0
810,202.25,20.2742,21.1688,163.786,100.385,93.6803,0.00277467,0.0563094,21.0237,191.802,0.62792,0.0,0.0
819,204.5,20.6196,21.1235,165.253,100.343,93.8627,0.0025908,0.055586,21.0245,191.802,0.60642,0.0,0.0
828,206.75,20.0038,20.9923,164.498,100.344,93.7633,,0.0547425,,191.772,0.616158,0.0,0.0
837,209,19.7634,20.6991,164.905,100.334,93.6953,,0.053878,,191.682,0.621809,0.0,0.0
846,211.25,20.0942,21.0389,165.709,100.316,93.6613,,,,191.772,0.623491,0.0,0.0
855,213.5,19.9129,20.5974,168.042,100.322,93.5107,,,,191.762,0.638634,0.0,0.0
864,215.75,20.1834,20.4014,164.258,100.32,93.9578,,,,191.742,0.595121,0.0,0.0
870,217.25,20.1548,20.5983,167.602,100.31,93.9479,,,,191.732,0.595216,0.0,0.0

File: Roof_Felt_Underlayment_Cone_HF50Scalar_220328_R1.csv
LABORATORY,FSRI
TEST IDENT,Roof_Felt_HF50_1
OPERATOR,Dow
MATERIAL,Roof Felt Underlayment
ORIENTATION,Horizontal
HEAT FLUX,50
SURF AREA,0.00884
C FACTOR,0.0395835
SPEC HOLDER DIFF,-566
SPECIMEN MASS,7
SCAN TIME,0.25
O2 DELAY TIME,11
CO DELAY TIME,11
CO2 DELAY TIME,8
FLOW FACTOR,1
SCAN COUNT,904
TIME TO IGN,11.75
END OF TEST SCAN,424
END OF TEST TIME,106
TEST STATUS,1
PRE TEST CMT,Dimensions: 101.50 x 102.34 x 0.86 mm; with frame; with calcium silicate substrate
POST TEST CMT,"After ignition an air bubble formed beneath the sample which raised the height of the sample surface. After a few seconds a hole formed in the sample which released the gases in the bubble at high enough velocity to form a horizontal flame that extended beyond the radius of the cone. This only lasted a few seconds, then the sample returned to normal burning behavoir. "

File: Roof_Felt_Underlayment_Cone_HF50Scalar_220328_R2.csv
LABORATORY,FSRI
TEST IDENT,Roof_Felt_HF50_2
OPERATOR,Dow
MATERIAL,Roof Felt Underlayment
ORIENTATION,Horizontal
HEAT FLUX,50
SURF AREA,0.01
C FACTOR,0.0395835
SPEC HOLDER DIFF,-566
SPECIMEN MASS,7.05
SCAN TIME,0.25
O2 DELAY TIME,11
CO DELAY TIME,11
CO2 DELAY TIME,8
FLOW FACTOR,1
SCAN COUNT,872
TIME TO IGN,11
END OF TEST SCAN,392
END OF TEST TIME,98
TEST STATUS,1
PRE TEST CMT,Dimensions: 101.45 x 101.27 x 0.89 mm; with frame; with calcium silicate substrate
POST TEST CMT,"After ignition an air bubble formed beneath the sample which raised the height of the sample surface. After a few seconds a hole formed in the sample which released the gases in the bubble at high enough velocity to form a horizontal flame that extended beyond the radius of the cone. This lasted less than 5 seconds, then the sample returned to normal burning behavoir. "

File: Roof_Felt_Underlayment_Cone_HF50Scalar_220328_R3.csv
LABORATORY,FSRI
TEST IDENT,Roof_Felt_HF50_3
OPERATOR,Dow
MATERIAL,Roof Felt Underlayment
ORIENTATION,Horizontal
HEAT FLUX,50
SURF AREA,0.00884
C FACTOR,0.0395835
SPEC HOLDER DIFF,-566
SPECIMEN MASS,6.89
SCAN TIME,0.25
O2 DELAY TIME,11
CO DELAY TIME,11
CO2 DELAY TIME,8
FLOW FACTOR,1
SCAN COUNT,1087
TIME TO IGN,11.75
END OF TEST SCAN,607
END OF TEST TIME,151.75
TEST STATUS,1
PRE TEST CMT,Dimensions: 101.91 x 101.28 x 0.84 mm; with frame; with calcium silicate substrate
POST TEST CMT,"After ignition an air bubble formed beneath the sample which raised the height of the sample surface. After a few seconds a hole formed in the sample which released the gases in the bubble at high enough velocity to form a horizontal flame that extended beyond the radius of the cone. This lasted less than 5 seconds, then the sample returned to normal burning behavoir. See test pictures."

File: Roof_Felt_Underlayment_Cone_HF50Scan_220328_R1.csv
Names,Time,Stack TC,Smoke TC,Exh Press,Smoke Comp,Smoke Meas,CO Meter,CO2 Meter,O2 Meter,Sample Mass,Ext Coeff,Start Test,Flame Verif
Chan Gain,,500,500,1,1,1,1,1,1,1,1,1.0,1.0
Offset,,0,0,0.138301,0,0,0,0,0,0,0,0.0,0.0
Gain,,1,1,25.011,13.2062,13.8682,1,1,1,1.0009,1.02317,1.0,1.0
Units,sec,C,C,Pa,%,%,%,%,%,g,/m,,
Baseline,,28.9853,30.3099,147.55,99.5674,97.2894,0.00101753,0.066859,21.0116,-834.284,0.207804,,
10,2.25,28.6484,29.7655,145.328,99.0404,95.2778,0.000952804,0.0675444,21.0181,193.554,0.347616,0.0,0.0
20,4.75,28.7246,29.843,145.24,99.2967,95.6571,0.000906378,0.0666704,21.0192,193.514,0.335165,0.0,0.0
30,7.25,28.6984,29.4773,147.15,99.4721,94.9202,0.000942288,0.0663997,21.0176,193.464,0.420399,0.0,0.0
40,9.75,28.9807,29.8946,145.948,99.5579,94.2629,0.00165283,0.0709751,20.9967,193.494,0.490505,0.0,0.0
50,12.25,28.7924,30.1032,135.656,99.572,75.6999,0.00488573,0.129796,20.9263,193.124,2.46014,0.0,1.0
60,14.75,29.6943,30.8929,116.396,99.4926,58.0066,0.012357,0.300733,20.6452,192.844,4.84235,0.0,1.0
70,17.25,32.7649,33.5645,117.591,99.4076,49.281,0.0214028,0.599799,20.1365,192.233,6.2978,0.0,1.0
80,19.75,37.4258,38.38,97.4246,99.3012,46.007,0.0329617,0.916814,19.6338,191.372,6.9052,0.0,0.0
90,22.25,43.0255,45.0711,92.045,99.2282,46.5466,0.0427593,1.29934,19.1721,190.522,6.79395,0.0,0.0
100,24.75,51.0421,54.5081,106.873,99.1629,45.3328,0.0454063,1.44125,19.0525,189.861,7.0252,0.0,0.0
110,27.25,56.5175,60.9604,116.919,99.4966,47.7181,0.0401006,1.27594,19.2632,189.411,6.5951,0.0,0.0
120,29.75,59.1746,64.6613,121.398,99.7796,60.813,0.0307469,0.988655,19.7383,189.14,4.44415,0.0,0.0
130,32.25,59.9291,65.805,135.311,99.9533,81.4245,0.0214949,0.698669,20.156,189.04,1.84016,0.0,0.0
140,34.75,58.6982,64.6464,138.573,100.015,84.9398,0.0143586,0.488383,20.4274,188.96,1.46638,0.0,0.0
150,37.25,58.2123,64.3774,137.577,99.9589,87.2324,0.00964308,0.362102,20.596,188.88,1.22228,0.0,0.0
160,39.75,58.0517,63.5155,137.738,99.8175,89.0539,0.00720032,0.28287,20.7077,188.85,1.02408,0.0,0.0
170,42.25,56.5511,62.1809,142.764,99.5696,90.773,0.00616875,0.237025,20.7785,188.77,0.830155,0.0,0.0
180,44.75,55.8686,61.3104,144.722,99.4983,91.1484,0.00580738,0.210536,20.8186,188.71,0.786682,0.0,0.0
190,47.25,55.3016,60.1244,135.782,99.6051,92.1934,0.00588357,0.194072,20.8413,188.67,0.694004,0.0,0.0
200,49.75,54.4236,59.4513,140.408,99.73,92.3322,0.00627664,0.182406,20.8582,188.62,0.69175,0.0,0.0
210,52.25,54.0425,58.3931,146.29,99.863,93.4216,0.00656885,0.173779,20.8702,188.56,0.598437,0.0,0.0
220,54.75,52.6345,57.3972,148.501,100.01,94.4174,0.00687665,0.166806,20.8809,188.51,0.516482,0.0,0.0
230,57.25,51.1929,56.5804,140.297,100.104,94.4576,0.0071595,0.160145,20.89,188.48,0.521048,0.0,0.0
240,59.75,51.0279,55.7136,140.05,100.205,94.9156,0.00746663,0.154893,20.8931,188.44,0.486707,0.0,0.0
250,62.25,50.1165,54.7249,143.46,100.248,95.2681,0.00765007,0.150827,20.8992,188.39,0.457294,0.0,0.0
260,64.75,49.4139,53.6675,143.623,100.255,96.0676,0.00766312,0.146894,20.906,188.36,0.38294,0.0,0.0
270,67.25,48.9856,52.6873,144.913,100.212,95.8335,0.00775209,0.143252,20.9102,188.35,0.401007,0.0,0.0
280,69.75,47.4231,51.6079,145.298,100.146,96.2352,0.00767853,0.139727,20.9163,188.33,0.357548,0.0,0.0
290,72.25,47.3775,51.4974,141.159,100.037,95.7764,0.0077366,0.137003,20.9204,188.29,0.39068,0.0,0.0
300,74.75,46.8129,51.1901,146.331,99.8823,95.4865,0.00784158,0.135486,20.9232,188.25,0.403956,0.0,0.0
310,77.25,45.5525,50.4385,143.478,99.7106,95.0607,0.00775905,0.134221,20.9252,188.24,0.428625,0.0,0.0
320,79.75,45.0587,49.1862,138.628,99.543,95.1636,0.00775702,0.132626,20.9286,188.2,0.403816,0.0,0.0
330,82.25,44.4338,49.1936,141.459,99.3709,94.6718,0.00790992,0.130433,20.9325,188.17,0.434789,0.0,0.0
340,84.75,44.1872,48.3846,143.737,99.1916,95.6757,0.00801754,0.12839,20.9365,188.139,0.323904,0.0,0.0
350,87.25,43.6052,47.7067,143.959,99.0082,95.2952,0.00784383,0.125703,20.9406,188.119,0.34306,0.0,0.0
360,89.75,43.2158,47.1757,142.348,98.84375,94.4424,0.00755547,0.123778,20.9434,188.089,0.408822,0.0,0.0
370,92.25,42.6919,46.5015,145.047,98.6789,94.3434,0.00747267,0.122653,20.946,188.029,0.403259,0.0,0.0
380,94.75,41.9937,45.9047,144.187,98.5475,94.8508,0.007498,0.121246,20.9487,188.039,0.343155,0.0,0.0
390,97.25,41.0865,44.81,144.032,98.4226,94.4094,0.00754953,0.119534,20.9522,187.989,0.373637,0.0,0.0
400,99.75,41.2177,44.6756,145.938,98.3351,93.7018,0.0074202,0.118101,20.9541,187.949,0.433184,0.0,0.0
410,102.25,40.9926,44.6842,142.133,98.284,94.1136,0.00711428,0.117089,20.9555,187.949,0.389153,0.0,0.0
420,104.75,40.4041,43.6164,145.561,98.2529,94.1097,0.00696814,0.115619,20.9568,187.939,0.386682,0.0,0.0
430,107.25,39.7548,42.8715,146.314,98.2614,94.7856,0.00704357,0.114411,20.9574,187.919,0.323226,0.0,0.0
440,109.75,39.4446,42.4715,145.396,98.263,94.3603,0.00711431,0.113819,20.9585,187.899,0.363739,0.0,0.0
450,112.25,38.9249,42.204,146.496,98.3126,93.8012,0.00694772,0.112778,20.96,187.879,0.421602,0.0,0.0
460,114.75,38.8473,42.0004,144.563,98.3803,94.723,0.00666765,0.110991,20.9624,187.839,0.340012,0.0,0.0
470,117.25,38.1176,41.5758,142.783,98.4496,94.1542,0.00653595,0.109753,20.9632,187.819,0.400393,0.0,0.0
480,119.75,38.2586,41.235,148.124,98.5419,94.2249,0.00652613,0.108572,20.9648,187.779,0.402068,0.0,0.0
490,122.25,37.5488,41.3431,144.919,98.6213,94.9109,0.0065012,0.107498,20.9662,187.759,0.344185,0.0,0.0
500,124.75,37.4755,40.5788,146.279,98.7063,94.3764,0.00637273,0.105712,20.9685,187.749,0.402612,0.0,0.0
510,127.25,36.8531,40.2392,147.714,98.793,94.7166,0.00615485,0.103975,20.9706,187.739,0.378185,0.0,0.0
520,129.75,36.9711,39.4001,149.063,98.8877,94.7192,0.00585895,0.102463,20.9737,187.689,0.386545,0.0,0.0
530,132.25,37.4066,39.9717,147.29,98.9904,95.0616,0.0057341,0.100746,20.9757,187.679,0.363482,0.0,0.0
540,134.75,35.459,38.8247,146.783,99.0658,94.5601,0.00579936,0.0990779,20.9783,187.669,0.417789,0.0,0.0
550,137.25,36.6815,39.6753,145.296,99.1323,94.8677,0.0056388,0.0975897,20.9801,187.639,0.394656,0.0,0.0
560,139.75,36.1422,39.1225,146.861,99.1968,95.2093,0.00536211,0.0956552,20.9821,187.639,0.368237,0.0,0.0
570,142.25,35.534,38.945,144.19,99.2625,94.9905,0.00522728,0.094019,20.9848,187.639,0.39483,0.0,0.0
580,144.75,35.6815,38.6123,145.446,99.3064,95.128,0.00506411,0.0931884,20.9859,187.609,0.385814,0.0,0.0
590,147.25,36.2285,38.5444,141.928,99.3483,94.9206,0.00488239,0.0923239,20.987,187.599,0.409188,0.0,0.0
600,149.75,35.9482,38.0009,145.022,99.3721,95.9245,0.00477668,0.090878,20.9896,187.569,0.316912,0.0,0.0
610,152.25,35.8679,38.4796,149.115,99.4116,95.5919,0.00477925,0.0896649,20.9902,187.559,0.351658,0.0,0.0
620,154.75,35.3662,37.8315,143.513,99.4426,94.7759,0.00473714,0.0890833,20.9903,187.539,0.431402,0.0,0.0
630,157.25,34.7784,37.4283,142.036,99.4797,95.343,0.00456801,0.0883376,20.9911,187.529,0.381201,0.0,0.0
640,159.75,34.4685,36.8507,146.228,99.5023,95.216,0.00430402,0.0875547,20.9921,187.519,0.395197,0.0,0.0
650,162.25,35.1869,37.22,144.363,99.5212,95.506,0.00422973,0.0863617,20.9928,187.489,0.369619,0.0,0.0
660,164.75,35.0552,37.205,148.965,99.5414,96.0794,0.00420688,0.0852068,20.9942,187.479,0.317706,0.0,0.0
670,167.25,34.9911,36.8889,142.922,99.5502,95.6122,0.00413173,0.084243,20.9946,187.489,0.362258,0.0,0.0
680,169.75,34.5882,36.918,145.631,99.5555,95.6676,0.00406402,0.0836859,20.9948,187.459,0.357528,0.0,0.0
690,172.25,34.2106,37.0573,143.364,99.5684,95.6156,0.00401559,0.0829396,20.9949,187.449,0.363577,0.0,0.0
700,174.75,34.4963,36.2442,145.056,99.566,95.8763,0.00398421,0.0819445,20.9978,187.449,0.338919,0.0,0.0
710,177.25,34.0855,37.0653,146.672,99.5732,95.5165,0.00390947,0.0810803,20.9997,187.409,0.373313,0.0,0.0
720,179.75,34.0793,36.2624,151.375,99.5893,95.6152,0.00367008,0.0803534,21.0004,187.389,0.365505,0.0,0.0
730,182.25,34.4422,36.3499,140.043,99.5881,95.5779,0.00346879,0.079596,21.0006,187.379,0.368892,0.0,0.0
740,184.75,34.2081,36.2626,143.813,99.595,95.8399,0.00334834,0.0786219,21.0008,187.369,0.344943,0.0,0.0
750,187.25,33.6062,35.9874,140.183,99.5785,95.3777,0.00318016,0.077751,21.0017,187.349,0.386838,0.0,0.0
760,189.75,34.0992,35.9774,148.356,99.5869,95.8314,0.00306701,0.0770466,21.0033,187.359,0.345009,0.0,0.0
770,192.25,34.0505,35.8872,148.039,99.5801,95.5263,0.00301,0.0759738,21.0041,187.349,0.373016,0.0,0.0
780,194.75,33.9471,35.8423,144.667,99.5853,95.2436,0.00292458,0.0749495,21.0058,187.359,0.400089,0.0,0.0
790,197.25,34.02,35.4385,143.352,99.5704,95.4382,0.00275978,0.0742224,21.0076,187.299,0.380419,0.0,0.0
800,199.75,33.7437,35.478,146.073,99.5772,95.5318,0.00264648,0.0737692,21.0091,187.299,0.372244,0.0,0.0
810,202.25,32.7579,34.2323,146.921,99.5627,95.2753,0.00260099,0.0732159,21.0097,187.289,0.395065,0.0,0.0
820,204.75,33.7805,35.6028,141.601,99.5615,95.1644,0.00256915,0.0728936,21.0103,187.299,0.405408,0.0,0.0
830,207.25,33.6295,35.4819,145.482,99.5611,94.9617,0.00252943,0.0723256,21.0107,187.269,0.424511,0.0,0.0
840,209.75,33.1086,35.3175,145.797,99.5857,96.2174,0.00244198,0.0717885,21.0108,187.279,0.308822,0.0,0.0
850,212.25,33.6965,35.3157,142.53,99.5426,95.7789,0.00245289,0.0716694,21.0108,187.239,0.345929,0.0,0.0
860,214.75,33.8204,35.3647,143.178,99.549,95.0404,0.0026324,0.0713395,21.012,187.259,0.415984,0.0,0.0
870,217.25,33.556,34.9707,142.13,99.541,95.1885,,0.0711645,,187.239,0.40128,0.0,0.0
880,219.75,33.3131,35.5619,143.185,99.541,95.4226,,,,187.229,0.379239,0.0,0.0
890,222.25,33.6452,35.4991,143.384,99.541,95.2258,,,,187.209,0.397769,0.0,0.0
900,224.75,33.4791,35.0733,149.346,99.5333,95.6668,,,,187.209,0.355608,0.0,0.0
904,225.75,33.3247,35.4675,152.937,99.5281,95.3947,,,,187.209,0.380703,0.0,0.0