Folder: fsri_materials_database/01_Data/Roof_Felt/HFM

Note: 01_Data/README.md
# Materials and Products Database
## 01_Data

Raw data generated from each apparatus are included here in plain-text format. The data is organized first by material, next by the short name of test apparatus used, and where applicable additional filtering by test settings.

### material.json

Each material directory contains a json file of the same name as the material. This file links the data stored in the repository as well as data and graphs produced by the accompanying scripts (__02_Scripts__) to the respective landing page for the material on the front-end website.

File: Roof_Felt_Density_Dry_R1.csv
,Roof_Felt_DRY_1
Sample Mass [g],28.1
Sample Volume [cm3],39.3
Sample Density [kg/m3],714

File: Roof_Felt_Density_Dry_R2.csv
,Roof_Felt_DRY_2
Sample Mass [g],27.5
Sample Volume [cm3],38.9
Sample Density [kg/m3],708

File: Roof_Felt_Density_Dry_R3.csv
,Roof_Felt_DRY_3
Sample Mass [g],27.8
Sample Volume [cm3],41.2
Sample Density [kg/m3],674

File: Roof_Felt_Density_Wet_R1.csv
,Roof_Felt_WET_1
Sample Mass [g],29.1
Sample Volume [cm3],39.3
Sample Density [kg/m3],740

File: Roof_Felt_Density_Wet_R2.csv
,Roof_Felt_WET_2
Sample Mass [g],28.4
Sample Volume [cm3],38.9
Sample Density [kg/m3],731

File: Roof_Felt_Density_Wet_R3.csv
,Roof_Felt_WET_3
Sample Mass [g],29.2
Sample Volume [cm3],41.2
Sample Density [kg/m3],708