Folder: fsri_materials_database/01_Data/Roof_Felt/MCC (part 2)

File: Roof_Felt_MCC_30K_min_210930_R3.txt
Sample ID:	C:\MCC\MCC Cal\Test\Roof_Felt_MCC_30K_min_210930_R3.txt
Sample Weight (mg):	4.89
Heating Rate (C/s):	0.5
Combustor Temp (C):	900
N2 Flow Rate (cc/min):	80
O2 Flow Rate (cc/min):	20
Calibration File:	C:\MCC\MCC Cal\Coeff1 JN10440_30_210304.txt.txt
T Correction Coefficients:	0	1.024463	0
Time Shift (s):	14
*
Time (s)	Temperature (C)	N2 flow rate (cc/min)	O2 flow rate (cc/min)	Flow Rate (cc/min)	Oxygen (%)	HRR (W/g)	Heating rate (C/s)
0.000	107.025	80.000	19.995	100.573	20.195	0.108	-0.010
8.000	107.034	80.000	19.995	100.584	20.194	0.196	0.000
16.000	107.041	80.002	19.995	100.622	20.187	0.619	-0.010
24.000	107.224	80.002	19.996	100.698	20.176	1.357	0.000
32.000	107.844	80.000	19.997	100.793	20.161	2.303	0.112
40.001	108.886	80.001	19.996	100.788	20.154	2.775	0.151
48.000	110.389	80.001	19.996	100.802	20.154	2.750	0.215
56.001	112.136	80.002	19.996	100.765	20.154	2.731	0.236
64.001	114.154	80.002	19.997	100.815	20.151	2.962	0.249
72.001	116.440	80.002	19.995	100.843	20.150	3.016	0.290
80.000	118.975	80.001	19.994	100.837	20.142	3.524	0.357
88.000	121.864	79.999	19.995	100.848	20.143	3.463	0.369
96.000	124.893	80.001	19.996	100.849	20.143	3.483	0.402
104.000	128.148	80.000	19.996	100.853	20.141	3.559	0.433
112.000	131.503	79.999	19.997	100.854	20.144	3.384	0.440
120.000	135.055	80.000	19.998	100.841	20.142	3.500	0.436
128.000	138.697	80.002	19.996	100.844	20.142	3.527	0.449
136.000	142.406	80.000	19.996	100.845	20.144	3.393	0.452
144.000	146.234	80.001	19.997	100.846	20.142	3.495	0.493
152.000	150.100	80.001	19.996	100.846	20.145	3.332	0.520
160.000	154.007	80.002	19.996	100.846	20.142	3.534	0.496
168.000	157.929	80.001	19.996	100.835	20.141	3.557	0.506
176.000	161.844	79.999	19.997	100.834	20.145	3.358	0.481
184.000	165.833	80.000	19.995	100.831	20.145	3.301	0.480
192.000	169.775	80.001	19.996	100.818	20.144	3.370	0.488
200.000	173.765	80.000	19.996	100.823	20.144	3.372	0.451
208.000	177.764	80.000	19.995	100.821	20.145	3.299	0.507
216.000	181.725	80.001	19.995	100.811	20.143	3.474	0.507
224.000	185.710	80.000	19.996	100.811	20.142	3.526	0.511
232.000	189.698	80.002	19.997	100.806	20.136	3.886	0.484
240.000	193.692	80.002	19.997	100.804	20.139	3.706	0.509
248.000	197.663	80.000	19.997	100.799	20.136	3.918	0.524
256.000	201.600	80.000	19.996	100.798	20.136	3.925	0.480
264.000	205.605	80.000	19.996	100.795	20.135	3.946	0.479
272.000	209.564	80.000	19.998	100.781	20.131	4.206	0.503
280.000	213.532	79.998	19.996	100.779	20.127	4.480	0.518
288.000	217.435	80.001	19.995	100.789	20.127	4.494	0.485
296.000	221.368	80.002	19.997	100.789	20.119	5.001	0.503
304.000	225.334	80.000	19.995	100.773	20.114	5.289	0.525
312.000	229.307	80.003	19.996	100.780	20.112	5.451	0.528
320.000	233.282	80.001	19.995	100.766	20.105	5.923	0.489
328.000	237.295	80.000	19.996	100.771	20.098	6.356	0.539
336.000	241.241	79.999	19.997	100.788	20.090	6.857	0.517
344.000	245.224	80.001	19.996	100.775	20.082	7.399	0.473
352.000	249.246	80.000	19.996	100.778	20.076	7.779	0.521
360.000	253.251	80.000	19.995	100.771	20.061	8.744	0.463
368.000	257.247	80.000	19.996	100.768	20.050	9.422	0.473
376.000	261.313	80.004	19.995	100.767	20.037	10.300	0.499
384.000	265.352	80.003	19.996	100.773	20.020	11.376	0.535
392.000	269.268	80.002	19.996	100.787	20.006	12.293	0.484
400.001	273.335	80.004	19.997	100.779	19.983	13.732	0.515
408.000	277.307	80.000	19.995	100.773	19.963	15.024	0.488
416.000	281.324	80.000	19.996	100.789	19.937	16.721	0.525
424.000	285.280	80.001	19.997	100.799	19.919	17.884	0.502
432.000	289.232	80.003	19.998	100.795	19.889	19.776	0.505
440.000	293.283	80.000	19.995	100.805	19.861	21.597	0.513
448.000	297.251	80.002	19.996	100.802	19.830	23.557	0.497
456.000	301.250	80.003	19.996	100.807	19.800	25.520	0.513
464.000	305.224	80.001	19.996	100.811	19.774	27.163	0.510
472.000	309.237	80.002	19.997	100.815	19.737	29.586	0.503
480.000	313.294	80.004	19.996	100.814	19.707	31.475	0.533
488.000	317.260	80.001	19.996	100.822	19.669	33.961	0.505
496.000	321.310	79.998	19.996	100.836	19.634	36.233	0.523
504.000	325.348	80.004	19.996	100.844	19.590	39.069	0.544
512.000	329.383	80.001	19.996	100.846	19.548	41.732	0.514
520.000	333.533	79.998	19.997	100.853	19.492	45.350	0.535
528.000	337.530	79.999	19.996	100.870	19.430	49.350	0.476
536.000	341.672	80.002	19.997	100.887	19.368	53.354	0.547
544.000	345.678	79.999	19.994	100.898	19.297	57.950	0.517
552.000	349.783	80.001	19.996	100.905	19.223	62.674	0.509
560.000	353.911	80.006	19.997	100.910	19.158	66.890	0.523
568.000	357.911	80.005	19.995	100.885	19.117	69.451	0.537
576.000	361.894	80.003	19.994	100.873	19.110	69.927	0.498
584.000	365.926	80.001	19.996	100.828	19.150	67.282	0.525
592.000	369.915	80.004	19.996	100.777	19.239	61.521	0.498
600.000	374.056	80.002	19.997	100.739	19.347	54.559	0.518
608.000	378.140	80.003	19.998	100.703	19.448	48.071	0.507
616.000	382.293	80.001	19.997	100.694	19.522	43.354	0.534
624.000	386.417	80.002	19.996	100.687	19.562	40.780	0.530
632.001	390.522	80.002	19.995	100.689	19.566	40.542	0.512
640.000	394.663	80.004	19.995	100.690	19.551	41.500	0.524
648.000	398.717	80.005	19.995	100.687	19.533	42.642	0.490
656.000	402.792	80.002	19.996	100.690	19.509	44.211	0.488
664.000	406.853	80.003	19.995	100.692	19.480	46.058	0.492
672.000	410.884	80.001	19.995	100.688	19.444	48.350	0.514
680.000	414.879	80.001	19.996	100.677	19.405	50.833	0.487
688.000	418.819	80.001	19.996	100.683	19.378	52.565	0.487
696.000	422.795	80.002	19.996	100.664	19.339	55.098	0.512
704.000	426.680	80.003	19.996	100.654	19.300	57.598	0.465
712.000	430.636	80.002	19.997	100.664	19.267	59.687	0.506
720.000	434.666	80.003	19.997	100.654	19.225	62.427	0.512
728.000	438.694	80.005	19.996	100.655	19.200	64.005	0.529
736.000	442.711	80.000	19.996	100.651	19.176	65.581	0.510
744.000	446.827	80.001	19.995	100.648	19.164	66.337	0.496
752.000	450.889	80.001	19.994	100.637	19.165	66.270	0.495
760.000	454.957	80.002	19.995	100.643	19.183	65.079	0.495
768.000	458.958	80.000	19.997	100.631	19.231	62.044	0.482
776.000	462.914	80.000	19.995	100.650	19.306	57.189	0.493
784.000	466.949	80.002	19.996	100.649	19.390	51.820	0.494
792.000	470.999	80.002	19.997	100.663	19.485	45.699	0.495
800.000	475.077	80.002	19.997	100.664	19.598	38.493	0.522
808.000	479.052	80.004	19.996	100.671	19.698	32.035	0.507
816.000	483.171	80.002	19.996	100.671	19.800	25.476	0.492
824.001	487.297	80.001	19.997	100.687	19.881	20.288	0.533
832.000	491.467	80.001	19.996	100.688	19.953	15.671	0.530
840.000	495.686	80.001	19.997	100.686	20.005	12.349	0.523
848.000	499.883	80.001	19.995	100.691	20.044	9.790	0.534
856.000	503.955	80.002	19.996	100.703	20.079	7.583	0.528
864.000	507.995	80.003	19.996	100.696	20.098	6.355	0.497
872.000	511.929	80.003	19.995	100.716	20.115	5.252	0.481
880.000	516.012	80.001	19.995	100.695	20.127	4.453	0.492
888.000	520.171	80.004	19.996	100.687	20.139	3.738	0.513
896.000	524.345	80.002	19.996	100.692	20.148	3.130	0.507
904.000	528.591	80.002	19.996	100.700	20.149	3.040	0.557
912.000	532.790	80.002	19.995	100.690	20.152	2.870	0.535
920.000	537.040	80.004	19.996	100.706	20.158	2.517	0.526
928.000	541.287	80.002	19.997	100.695	20.155	2.693	0.529
936.000	545.450	80.001	19.995	100.709	20.161	2.269	0.518
944.000	549.591	80.004	19.996	100.698	20.165	2.043	0.507
952.000	553.757	80.002	19.997	100.697	20.160	2.338	0.515
960.000	557.902	80.002	19.996	100.690	20.166	1.944	0.521
968.000	561.944	80.004	19.998	100.696	20.164	2.119	0.531
976.000	566.033	80.005	19.996	100.691	20.165	2.037	0.524
984.000	570.024	80.000	19.997	100.691	20.162	2.253	0.470
992.000	574.095	80.001	19.997	100.700	20.164	2.075	0.506
1000.000	578.119	80.001	19.996	100.693	20.170	1.696	0.499
1008.000	582.075	80.001	19.996	100.700	20.167	1.889	0.524
1016.000	586.068	80.000	19.996	100.700	20.170	1.744	0.514
1024.000	589.985	80.003	19.997	100.699	20.170	1.686	0.472
1032.001	593.954	80.004	19.996	100.690	20.168	1.854	0.488
1040.000	597.890	80.004	19.997	100.687	20.169	1.749	0.525
1048.000	601.826	80.004	19.997	100.694	20.174	1.475	0.516
1056.000	605.794	80.005	19.997	100.689	20.176	1.301	0.505
1064.000	609.748	80.001	19.995	100.689	20.170	1.746	0.492
1072.000	613.784	80.000	19.998	100.707	20.174	1.458	0.544
1080.000	617.870	80.001	19.998	100.690	20.174	1.461	0.510
1088.000	622.025	80.002	19.996	100.689	20.177	1.244	0.550
1096.001	626.110	80.002	19.996	100.689	20.179	1.168	0.522
1104.000	630.417	80.002	19.996	100.699	20.173	1.506	0.554
1112.001	634.797	80.003	19.995	100.694	20.175	1.373	0.546
1120.001	639.338	80.002	19.997	100.691	20.177	1.255	0.572
1128.001	643.853	80.003	19.996	100.692	20.173	1.555	0.562
1136.001	648.256	80.003	19.996	100.694	20.178	1.202	0.535
1144.000	652.792	80.001	19.995	100.687	20.173	1.526	0.551
1152.000	657.225	80.000	19.996	100.688	20.179	1.110	0.521
1160.000	661.471	80.001	19.996	100.689	20.181	1.037	0.462
1168.000	665.708	80.001	19.997	100.681	20.176	1.327	0.532
1176.000	669.874	80.000	19.997	100.681	20.178	1.189	0.538
1184.000	673.908	80.001	19.995	100.691	20.184	0.841	0.499
1192.000	678.047	80.003	19.995	100.688	20.187	0.656	0.500
1200.000	682.152	80.002	19.997	100.694	20.175	1.369	0.498
1208.000	686.191	80.002	19.995	100.684	20.182	0.967	0.497
1216.000	690.167	80.006	19.995	100.683	20.176	1.300	0.482
1224.001	694.202	80.004	19.997	100.686	20.183	0.869	0.515
1232.000	698.203	80.001	19.997	100.688	20.179	1.141	0.511
1240.001	702.210	80.001	19.996	100.688	20.185	0.724	0.509
1248.001	706.198	80.002	19.995	100.690	20.184	0.827	0.474
1256.000	710.220	80.000	19.997	100.689	20.181	1.014	0.493
1264.000	714.277	80.001	19.997	100.684	20.186	0.694	0.502
1272.000	718.306	80.006	19.995	100.677	20.184	0.837	0.478
1280.000	722.330	80.003	19.995	100.684	20.179	1.111	0.511
1288.000	726.370	80.001	19.995	100.682	20.185	0.767	0.486
1296.000	730.418	80.005	19.996	100.686	20.178	1.217	0.538
1304.000	734.500	80.002	19.995	100.684	20.183	0.864	0.514
1312.000	738.598	80.002	19.996	100.689	20.182	0.949	0.532
1320.000	742.621	79.999	19.997	100.677	20.177	1.238	0.505
1322.000	743.598	80.001	19.996	100.672	20.178	1.189	0.496