Folder: fsri_materials_database/01_Data/Polyester_Batting/Cone

Note: 01_Data/README.md
# Materials and Products Database
## 01_Data

Raw data generated from each apparatus are included here in plain-text format. The data is organized first by material, next by the short name of test apparatus used, and where applicable additional filtering by test settings.

### material.json

Each material directory contains a json file of the same name as the material. This file links the data stored in the repository as well as data and graphs produced by the accompanying scripts (__02_Scripts__) to the respective landing page for the material on the front-end website.

File: Polyester_Batting_Cone_HF25Scalar_210324_R1.csv
LABORATORY,FSRI
TEST IDENT,PEbat_H25_1
OPERATOR,Morrissey
MATERIAL,1.75'' PE Batting
ORIENTATION,Horizontal
HEAT FLUX,25
SURF AREA,0.01
C FACTOR,0.0386052
SPEC HOLDER DIFF,-98.3
SPECIMEN MASS,6.7
SCAN TIME,0.25
O2 DELAY TIME,11
CO DELAY TIME,11
CO2 DELAY TIME,8
FLOW FACTOR,1
SCAN COUNT,3129
TIME TO IGN,604.5
END OF TEST SCAN,2649
END OF TEST TIME,662.25
TEST STATUS,1
PRE TEST CMT,test w/o retainer grid or frame
POST TEST CMT,Severe foil lift towards last few seconds

File: Polyester_Batting_Cone_HF25Scan_210324_R1.csv
Names,Time,Stack TC,Smoke TC,Exh Press,Smoke Comp,Smoke Meas,CO Meter,CO2 Meter,O2 Meter,Sample Mass,Ext Coeff,Start Test,Flame Verif
Chan Gain,,500,500,1,1,1,1,1,1,1,1,1.0,1.0
Offset,,0,0,0.194005,0,0,0,0,0,0,0,0.0,0.0
Gain,,1,1,25.011,13.5067,16.616,1,1,1,1.00091,1.04608,1.0,1.0
Units,sec,C,C,Pa,%,%,%,%,%,g,/m,,
Baseline,,19.0703,20.3065,168.456,100.997,100.271,0.000346696,0.0624977,20.9179,-1.20551,0.0661557,,
33,8,17.692,18.4816,165.919,100.455,99.8074,0.00056446,0.0726664,20.9009,474.072,0.0593257,0.0,0.0
66,16.25,17.0355,18.6789,168.73,100.198,99.4225,0.000685917,0.0741597,20.9027,474.021,0.0712915,0.0,0.0
99,24.5,18.2253,19.5678,169.088,100.044,99.2785,0.000643838,0.0698918,20.9113,474.001,0.0704633,0.0,0.0
132,32.75,18.021,19.3166,166.451,100.052,99.3175,0.000325084,0.0694236,20.9056,474.001,0.0676112,0.0,0.0
165,41,18.2728,19.8812,165.476,100.243,99.4281,0.000375673,0.0698512,20.906,473.981,0.07489,0.0,0.0
198,49.25,18.1538,19.8019,161.455,100.591,99.7561,0.000375211,0.0738086,20.8995,473.991,0.0764523,0.0,0.0
231,57.5,18.0732,19.8809,169.759,101.01,100.248,0.000394123,0.0761784,20.9004,473.991,0.0694798,0.0,0.0
264,65.75,18.0776,20.1025,168.623,101.383,100.678,0.000611175,0.075287,20.9055,473.981,0.0640664,0.0,0.0
297,74,17.8157,19.9976,171.632,101.684,100.786,0.00030422,0.0704977,20.9127,473.981,0.0813847,0.0,0.0
330,82.25,18.3849,19.6559,167.421,101.885,100.998,0.000499303,0.06811,20.9146,473.991,0.0801941,0.0,0.0
363,90.5,18.565,19.6899,166.836,101.943,101.21,0.000463394,0.0664815,20.9183,473.991,0.0662365,0.0,0.0
396,98.75,18.3994,19.8862,162.702,101.889,101.002,0.000543511,0.0646604,20.9175,473.941,0.0802527,0.0,0.0
429,107,18.1591,20.0928,171.876,101.757,101.102,0.000386671,0.0695324,20.9065,473.951,0.0592399,0.0,0.0
462,115.25,18.8612,20.1165,168.337,101.546,100.649,0.000393312,0.0708933,20.9067,473.961,0.0814714,0.0,0.0
495,123.5,18.2653,20.2976,163.479,101.317,100.33,0.000253741,0.0704042,20.9066,473.931,0.0898268,0.0,0.0
528,131.75,18.9581,19.9141,170.493,101.14,100.117,0.000283471,0.0705436,20.9097,473.951,0.0932968,0.0,0.0
561,140,18.4903,20.1197,170.818,101.415,100.279,0.000377373,0.0713535,20.9038,473.931,0.1033,0.0,0.0
594,148.25,18.9697,19.9257,164.341,101.645,100.471,0.000277074,0.0760986,20.9014,473.921,0.106565,0.0,0.0
627,156.5,18.5009,20.4068,166.639,101.665,100.263,0.000125864,0.0749389,20.9037,473.891,0.127479,0.0,0.0
660,164.75,18.8028,19.6692,164.827,101.514,100.062,0.000323595,0.0724149,20.9038,473.881,0.132248,0.0,0.0
693,173,19.2538,20.5619,163.23,101.148,99.8596,0.000546551,0.0729852,20.9032,473.881,0.117675,0.0,0.0
726,181.25,18.8496,20.307,170.347,100.728,99.4661,0.000392201,0.0694169,20.9109,473.851,0.115722,0.0,0.0
759,189.5,18.7725,20.1571,163.31,100.858,99.1745,0.000342906,0.0679818,20.9093,473.851,0.15448,0.0,0.0
792,197.75,19.0386,20.233,164.123,101.031,99.386,0.000421028,0.0709326,20.9037,473.841,0.150598,0.0,0.0
825,206,18.7525,20.4484,167.514,101.207,99.4864,0.000562718,0.0719058,20.9027,473.821,0.157343,0.0,0.0
858,214.25,18.9463,20.6465,167.183,101.32,99.6862,0.000552809,0.0712703,20.9071,473.811,0.149131,0.0,0.0
891,222.5,19.1228,20.3916,169.951,101.351,99.7688,0.000593525,0.0691326,20.9109,473.791,0.144399,0.0,0.0
924,230.75,19.5411,21.0782,169.561,101.287,99.4149,0.000238988,0.0683439,20.9061,473.771,0.171187,0.0,0.0
957,239,19.0205,20.7783,173.56,101.133,99.4899,0.000392523,0.0694603,20.9045,473.731,0.150286,0.0,0.0
990,247.25,18.9017,20.9891,169.795,100.915,99.1953,0.000637713,0.0711118,20.9045,473.741,0.15773,0.0,0.0
1023,255.5,19.3177,20.7851,165.955,100.703,98.814,0.00088167,0.0737907,20.9009,473.701,0.17375,0.0,0.0
1056,263.75,18.2439,20.756,169.778,100.465,98.384,0.000828888,0.0737301,20.9033,473.671,0.192109,0.0,0.0
1089,272,18.5745,20.8553,166.395,100.243,98.5706,0.000400393,0.0718526,20.9042,473.641,0.154406,0.0,0.0
1122,280.25,18.9219,20.1058,162.316,100.104,98.7212,0.000727624,0.0692447,20.9068,473.601,0.127598,0.0,0.0
1155,288.5,19.0716,20.9418,165.704,100.017,98.1391,0.000824668,0.0696392,20.9052,473.601,0.173966,0.0,0.0
1188,296.75,19.0131,20.3489,168.161,100.045,98.2567,0.000553841,0.0676498,20.9084,473.571,0.165544,0.0,0.0
1221,305,19.465,20.8443,167.003,100.166,98.5376,0.000895774,0.0671802,20.9087,473.531,0.150417,0.0,0.0
1254,313.25,18.5973,20.5941,169.058,100.379,98.4099,0.000841227,0.0678752,20.9058,473.521,0.181825,0.0,0.0
1287,321.5,18.4262,20.8379,166.773,100.7,98.9889,0.000788429,0.0687395,20.9057,473.501,0.157219,0.0,0.0
1320,329.75,18.5285,20.3569,173.291,101.026,99.5984,0.000860151,0.0688604,20.9078,473.451,0.130553,0.0,0.0
1353,338,19.178,20.2281,169.12,101.346,99.139,0.00089631,0.0673691,20.9102,473.491,0.202059,0.0,0.0
1386,346.25,19.007,20.4931,169.426,101.597,99.6877,0.000682806,0.0668837,20.9094,473.441,0.17408,0.0,0.0
1419,354.5,19.1154,21.2768,166.444,101.784,100.191,0.000507997,0.0672142,20.9097,473.411,0.14477,0.0,0.0
1452,362.75,19.4198,20.7733,174.504,101.906,99.9813,0.000689695,0.0669872,20.9101,473.401,0.174973,0.0,0.0
1485,371,19.0078,20.3405,167.84,101.957,100.095,0.00056984,0.0667341,20.9074,473.351,0.169156,0.0,0.0
1518,379.25,19.2662,20.7019,172.553,101.949,100.088,0.000870017,0.0669033,20.9074,473.331,0.169101,0.0,0.0
1551,387.5,18.6714,20.9824,165.503,101.888,100.2,0.000576354,0.0679598,20.9056,473.311,0.15334,0.0,0.0
1584,395.75,19.1443,20.6561,166.743,101.799,99.4331,0.000576596,0.0694904,20.9029,473.281,0.215801,0.0,0.0
1617,404,19.2464,20.5622,167.606,101.661,100.159,0.000786693,0.0700068,20.9046,473.231,0.136542,0.0,0.0
1650,412.25,19.3009,20.7487,166.779,101.533,99.8069,0.000608525,0.0678625,20.9074,473.221,0.157382,0.0,0.0
1683,420.5,19.2144,20.9903,167.785,101.421,99.638,0.000542216,0.0676166,20.9046,473.201,0.162782,0.0,0.0
1716,428.75,19.8456,21.1805,161.871,101.32,99.5604,0.000750668,0.0687373,20.9031,473.161,0.160714,0.0,0.0
1749,437,19.3056,20.7307,167.594,101.235,99.5254,0.000838721,0.0673602,20.9068,473.121,0.156246,0.0,0.0
1782,445.25,19.8232,21.1399,164.109,101.159,99.2704,0.000753504,0.0660062,20.9066,473.071,0.172953,0.0,0.0
1815,453.5,19.1374,20.7055,165.168,101.393,99.3246,0.00108151,0.0658211,20.9067,473.061,0.189152,0.0,0.0
1848,461.75,19.2731,20.7529,167.353,101.572,99.3774,0.000821254,0.0654412,20.9068,473.041,0.200419,0.0,0.0
1881,470,19.6965,21.5293,169.052,101.678,100.147,0.000783727,0.0651268,20.9045,473.021,0.139266,0.0,0.0
1914,478.25,19.4672,21.0014,171.255,101.723,100.005,0.000819587,0.0654018,20.905,472.991,0.156339,0.0,0.0
1947,486.5,19.2847,21.3581,168.1,101.7,99.207,0.000937583,0.066092,20.9041,472.941,0.227775,0.0,0.0
1980,494.75,19.6627,20.9311,168.173,101.603,99.9524,0.000692998,0.0675231,20.9015,472.92,0.150268,0.0,0.0
2013,503,19.7554,21.4243,166.453,101.459,99.7059,0.000791037,0.0693967,20.8999,472.88,0.159919,0.0,0.0
2046,511.25,20.0213,21.3727,170.932,101.259,99.2014,0.000573321,0.0711852,20.8952,482.459,0.18841,0.0,0.0
2079,519.5,19.7072,21.1486,167.795,101.007,99.1877,0.000711382,0.0736314,20.8966,473.061,0.166789,0.0,0.0
2112,527.75,19.3126,21.0594,172.025,100.782,99.2136,0.00079336,0.0726827,20.8973,472.83,0.14389,0.0,0.0
2145,536,19.9159,21.8926,173.827,100.808,99.1583,0.00119585,0.0747454,20.8949,472.78,0.151406,0.0,0.0
2178,544.25,19.4357,21.1035,163.339,100.886,98.8343,0.000863675,0.074087,20.8969,472.62,0.188528,0.0,0.0
2211,552.5,19.5864,21.1433,166.507,100.976,98.4169,0.000724608,0.0731595,20.9003,472.76,0.235526,0.0,0.0
2244,560.75,20.0003,21.4277,167.326,101.04,99.0538,0.000615409,0.0707702,20.9022,472.7,0.182139,0.0,0.0
2277,569,19.7392,21.2306,170.238,101.159,99.9108,0.000528895,0.0709048,20.9009,472.65,0.113906,0.0,0.0
2310,577.25,19.8516,21.4855,164.495,101.242,99.5736,0.000906337,0.0706544,20.9001,472.67,0.152441,0.0,0.0
2343,585.5,19.5418,20.9864,167.972,101.309,99.5173,0.00103414,0.0696747,20.9044,472.62,0.163754,0.0,0.0
2376,593.75,19.8433,21.0583,164.145,101.341,99.5847,0.00069601,0.0685527,20.9034,472.57,0.160413,0.0,0.0
2409,602,19.7774,21.8727,163.219,101.332,99.6522,0.00043423,0.0694092,20.8977,472.54,0.153415,0.0,0.0
2442,610.25,23.3143,27.3153,155.878,101.272,83.5712,0.00826902,0.203433,20.6023,471.459,1.76281,0.0,1.0
2475,618.5,29.2435,37.6653,142.916,101.167,69.9287,0.0144493,0.422481,20.386,470.298,3.38866,0.0,0.0
2508,626.75,33.8488,43.205,159.131,101.013,89.6343,0.0130813,0.511066,20.4347,469.447,1.09663,0.0,0.0
2541,635,32.2534,40.2573,158.911,100.852,92.404,0.00749253,0.37877,20.6188,469.087,0.802769,0.0,0.0
2574,643.25,30.4289,36.6478,159.131,100.681,97.4956,0.00428515,0.275685,20.7321,468.847,0.295014,0.0,0.0
2607,651.5,27.6132,32.5903,165.797,100.498,98.6918,0.00199617,0.183778,20.8234,468.757,0.166382,0.0,0.0
2640,659.75,25.7367,28.8027,164.451,100.333,99.3905,0.00151662,0.127185,20.8658,468.737,0.0865755,0.0,0.0
2673,668,23.5381,25.8035,160.878,100.177,99.3916,0.00138961,0.0981003,20.8876,468.747,0.0722586,0.0,0.0
2706,676.25,22.6487,23.637,170.311,100.052,99.3763,0.000489802,0.0803489,20.8966,468.767,0.0621413,0.0,0.0
2739,684.5,21.3958,23.2163,162.556,100.002,99.3981,0.000300263,0.0736184,20.9002,468.747,0.0555526,0.0,0.0
2772,692.75,20.9207,22.5541,165.711,99.9819,99.317,-5.20562e-05,0.071504,20.902,468.737,0.0612297,0.0,0.0
2805,701,20.8539,21.73,168.304,100.008,99.4357,0.000112267,0.0683282,20.9027,468.747,0.0526567,0.0,0.0
2838,709.25,20.6317,21.5474,171.292,100.083,99.3383,4.96556e-05,0.0667489,20.9044,468.757,0.0685255,0.0,0.0
2871,717.5,20.5707,21.6714,166.034,100.158,99.4554,1.70237e-05,0.0659325,20.9064,468.727,0.0645497,0.0,0.0
2904,725.75,19.9648,21.2404,166.939,100.294,99.5731,-0.000230046,0.0654362,20.9086,468.767,0.0661941,0.0,0.0
2937,734,19.31,20.9033,166.7,100.448,99.7359,-2.85666e-06,0.0655136,20.9052,468.767,0.0652612,0.0,0.0
2970,742.25,19.9317,21.6136,164.98,100.624,99.9179,-4.26772e-05,0.0654572,20.9032,468.767,0.0646301,0.0,0.0
3003,750.5,20.2058,20.4606,164.169,100.849,100.026,0.000177139,0.0649728,20.9053,468.747,0.0752177,0.0,0.0
3036,758.75,19.3727,20.8082,169.4,101.094,100.381,5.23538e-05,0.0649465,20.9071,468.777,0.0649169,0.0,0.0
3069,767,20.0397,21.0317,167.159,101.32,100.564,0.000122794,0.0649168,20.9075,468.747,0.0687611,0.0,0.0
3102,775.25,19.5227,20.9793,172.168,101.551,100.772,,,,468.767,0.0706924,0.0,0.0
3129,782,19.4456,20.7218,161.742,101.705,100.966,,,,468.767,0.0669434,0.0,0.0

File: Polyester_Batting_Cone_HF50Scalar_210326_R2.csv
LABORATORY,FSRI
TEST IDENT,PEbat_HF50_2
OPERATOR,Dow
MATERIAL,"PE batting, 1.75 inch thick"
ORIENTATION,Horizontal
HEAT FLUX,50
SURF AREA,0.01
C FACTOR,0.0386052
SPEC HOLDER DIFF,-96.46
SPECIMEN MASS,6.02
SCAN TIME,0.25
O2 DELAY TIME,11
CO DELAY TIME,11
CO2 DELAY TIME,8
FLOW FACTOR,1
SCAN COUNT,807
TIME TO IGN,48
END OF TEST SCAN,327
END OF TEST TIME,81.75
TEST STATUS,1
PRE TEST CMT,without frame or grid
POST TEST CMT,corners of foil collapsed towards center shortly prior to extinguishment

File: Polyester_Batting_Cone_HF75Scalar_210325_R1.csv
LABORATORY,FSRI
TEST IDENT,PEbat_HF75_1
OPERATOR,Morrissey
MATERIAL,1 3/4'' Inch PE Batting
ORIENTATION,Horizontal
HEAT FLUX,75
SURF AREA,0.01
C FACTOR,0.0386052
SPEC HOLDER DIFF,-96.26
SPECIMEN MASS,6.56
SCAN TIME,0.25
O2 DELAY TIME,11
CO DELAY TIME,11
CO2 DELAY TIME,8
FLOW FACTOR,1
SCAN COUNT,715
TIME TO IGN,15.75
END OF TEST SCAN,235
END OF TEST TIME,58.75
TEST STATUS,1
PRE TEST CMT,test w/o frame or grid