Folder: fsri_materials_database/01_Data/Polyester_Batting/MCC

Note: 01_Data/README.md
# Materials and Products Database
## 01_Data

Raw data generated from each apparatus are included here in plain-text format. The data is organized first by material, next by the short name of test apparatus used, and where applicable additional filtering by test settings.

### material.json

Each material directory contains a json file of the same name as the material. This file links the data stored in the repository as well as data and graphs produced by the accompanying scripts (__02_Scripts__) to the respective landing page for the material on the front-end website.

File: Polyester_Batting_MCC_30K_min_210308_R1.txt
Sample ID:	C:\MCC\MCC Cal\Test\Polyester_Batting_30_1.txt
Sample Weight (mg):	5.43
Heating Rate (C/s):	0.5
Combustor Temp (C):	900
N2 Flow Rate (cc/min):	80
O2 Flow Rate (cc/min):	20
Calibration File:	C:\MCC\MCC Cal\Coeff1 JN10440_30_210304.txt.txt
T Correction Coefficients:	0	1.024463	0
Time Shift (s):	14
*
Time (s)	Temperature (C)	N2 flow rate (cc/min)	O2 flow rate (cc/min)	Flow Rate (cc/min)	Oxygen (%)	HRR (W/g)	Heating rate (C/s)
0.000	106.669	79.990	19.992	99.694	20.075	0.058	-0.004
6.000	106.615	79.990	19.993	99.701	20.073	0.184	-0.000
12.000	106.672	79.990	19.992	99.702	20.074	0.136	0.049
18.000	106.630	79.992	19.991	99.721	20.067	0.518	0.033
24.000	106.735	79.992	19.992	99.722	20.062	0.856	0.050
30.000	106.907	79.991	19.992	99.725	20.054	1.280	0.039
36.000	107.241	79.993	19.990	99.816	20.051	1.435	0.079
42.000	107.766	79.992	19.991	99.833	20.045	1.791	0.128
48.000	108.508	79.993	19.992	99.914	20.039	2.132	0.209
54.000	109.509	79.993	19.992	99.924	20.032	2.580	0.217
60.001	110.788	80.005	19.993	99.863	20.024	3.013	0.280
66.000	112.268	80.008	19.993	99.965	20.030	2.663	0.294
72.000	113.702	80.001	19.993	99.952	20.024	3.018	0.213
78.001	115.377	79.989	19.990	99.964	20.034	2.451	-0.003
84.000	117.534	79.991	19.993	99.959	20.017	3.433	0.527
90.000	119.833	79.989	19.994	99.979	20.005	4.109	0.193
96.000	122.123	79.991	19.992	99.991	20.009	3.864	0.317
102.000	124.717	79.993	19.990	100.011	20.001	4.352	0.432
108.000	127.313	79.991	19.991	100.011	20.011	3.735	0.542
114.000	130.152	79.992	19.990	99.996	20.005	4.115	0.561
120.000	132.942	79.993	19.992	99.994	20.008	3.950	0.430
126.000	136.095	79.992	19.992	99.993	20.006	4.063	0.488
132.000	139.215	79.990	19.990	99.981	20.008	3.961	0.599
138.000	142.388	79.989	19.989	99.993	20.013	3.674	0.452
144.000	145.611	79.989	19.992	99.968	20.014	3.603	0.457
150.000	148.867	79.990	19.992	99.958	20.017	3.439	0.576
156.000	151.964	79.991	19.994	99.953	20.014	3.561	0.507
162.000	155.174	79.991	19.992	99.955	20.023	3.071	0.537
168.000	158.232	79.989	19.993	99.938	20.024	3.033	0.506
174.000	161.330	79.989	19.992	99.921	20.026	2.924	0.539
180.000	164.373	79.991	19.993	99.938	20.024	3.030	0.530
186.000	167.390	79.992	19.993	99.915	20.021	3.196	0.505
192.000	170.272	79.991	19.993	99.944	20.022	3.128	0.440
198.000	173.255	79.989	19.992	99.939	20.021	3.166	0.505
204.000	176.151	79.993	19.991	99.920	20.027	2.865	0.434
210.000	179.061	79.993	19.990	99.914	20.018	3.369	0.487
216.000	181.981	79.990	19.990	99.918	20.023	3.054	0.508
222.000	184.861	79.990	19.992	99.972	20.023	3.081	0.508
228.000	187.885	79.992	19.992	99.914	20.023	3.051	0.481
234.000	190.768	79.990	19.992	99.918	20.021	3.191	0.525
240.000	193.665	79.989	19.991	99.936	20.023	3.053	0.458
246.000	196.613	79.989	19.993	99.926	20.021	3.198	0.480
252.000	199.554	79.991	19.994	99.947	20.023	3.069	0.472
258.000	202.532	79.990	19.993	99.926	20.025	2.934	0.482
264.000	205.465	79.992	19.992	99.897	20.023	3.063	0.510
270.000	208.433	79.992	19.992	99.951	20.026	2.925	0.512
276.000	211.434	79.991	19.993	99.888	20.022	3.126	0.519
282.000	214.390	79.992	19.992	99.910	20.023	3.089	0.483
288.000	217.402	79.993	19.991	99.902	20.019	3.292	0.512
294.000	220.358	79.992	19.992	99.924	20.020	3.238	0.490
300.000	223.380	79.991	19.992	99.909	20.022	3.117	0.519
306.000	226.375	79.989	19.992	99.919	20.022	3.143	0.506
312.000	229.416	79.991	19.991	99.917	20.019	3.324	0.506
318.000	232.468	79.990	19.991	99.901	20.019	3.296	0.485
324.000	235.513	79.990	19.991	99.904	20.022	3.112	0.494
330.000	238.602	79.989	19.993	99.903	20.021	3.177	0.505
336.000	241.583	79.991	19.992	99.906	20.023	3.057	0.511
342.000	244.569	79.990	19.991	99.915	20.022	3.133	0.526
348.000	247.631	79.994	19.992	99.905	20.026	2.889	0.489
354.000	250.678	79.992	19.995	99.913	20.024	2.993	0.518
360.000	253.604	79.990	19.993	99.895	20.022	3.149	0.462
366.000	256.586	79.992	19.993	99.893	20.023	3.049	0.468
372.000	259.571	79.993	19.992	99.901	20.026	2.891	0.484
378.000	262.554	79.992	19.991	99.913	20.025	2.955	0.481
384.000	265.555	79.989	19.992	99.903	20.025	2.948	0.480
390.000	268.582	79.990	19.992	99.896	20.023	3.053	0.471
396.000	271.688	79.991	19.991	99.891	20.029	2.733	0.537
402.000	274.680	79.988	19.991	99.887	20.024	2.990	0.483
408.000	277.691	79.992	19.990	99.893	20.025	2.972	0.537
414.000	280.724	79.991	19.992	99.915	20.021	3.176	0.468
420.000	283.751	79.991	19.992	99.904	20.021	3.212	0.513
426.001	286.763	79.994	19.992	99.881	20.021	3.157	0.500
432.000	289.766	79.992	19.992	99.882	20.026	2.908	0.551
438.000	292.770	79.991	19.992	99.881	20.020	3.240	0.484
444.000	295.796	79.991	19.994	99.877	20.020	3.265	0.503
450.000	298.838	79.992	19.992	99.879	20.024	3.031	0.502
456.000	301.854	79.992	19.991	99.876	20.019	3.296	0.515
462.000	304.887	79.991	19.991	99.914	20.022	3.155	0.525
468.000	307.943	79.990	19.992	99.904	20.020	3.267	0.499
474.000	310.976	79.990	19.992	99.898	20.018	3.377	0.503
480.000	314.017	79.990	19.992	99.889	20.016	3.464	0.491
486.000	317.019	79.990	19.992	99.879	20.013	3.644	0.512
492.000	320.049	79.992	19.992	99.898	20.019	3.314	0.503
498.000	323.057	79.991	19.991	99.873	20.017	3.439	0.511
504.000	326.089	79.991	19.992	99.880	20.014	3.580	0.503
510.000	329.133	79.992	19.991	99.897	20.019	3.313	0.510
516.000	332.213	79.990	19.992	99.878	20.018	3.360	0.546
522.000	335.268	79.991	19.994	99.903	20.016	3.455	0.528
528.000	338.350	79.991	19.992	99.856	20.012	3.672	0.511
534.000	341.376	79.994	19.994	99.880	20.012	3.685	0.476
540.000	344.461	79.992	19.993	99.862	20.011	3.733	0.496
546.000	347.469	79.991	19.993	99.877	20.009	3.858	0.478
552.000	350.508	79.991	19.991	99.873	20.011	3.734	0.479
558.000	353.645	79.991	19.991	99.896	20.012	3.688	0.507
564.000	356.708	79.991	19.992	99.883	20.011	3.778	0.536
570.000	359.744	79.989	19.993	99.888	20.006	4.059	0.524
576.000	362.776	79.984	19.992	99.881	20.003	4.197	0.481
582.000	365.779	79.989	19.992	99.883	19.999	4.440	0.490
588.000	368.808	79.989	19.991	99.892	19.989	5.048	0.492
594.000	371.780	79.991	19.993	99.888	19.979	5.611	0.531
600.000	374.841	79.992	19.992	99.890	19.964	6.476	0.539
606.000	377.867	79.991	19.993	99.906	19.945	7.559	0.526
612.000	380.819	79.991	19.994	99.908	19.932	8.319	0.507
618.000	383.872	79.992	19.993	99.914	19.905	9.824	0.511
624.000	386.892	79.993	19.991	99.926	19.876	11.514	0.496
630.000	389.943	79.990	19.993	99.951	19.835	13.845	0.532
636.000	392.986	79.986	19.992	99.937	19.792	16.340	0.536
642.000	396.090	79.970	19.992	99.993	19.740	19.365	0.530
648.000	399.123	79.997	19.991	99.995	19.664	23.700	0.486
654.000	402.194	79.987	19.992	100.040	19.546	30.527	0.555
660.000	405.254	79.993	19.992	100.011	19.461	35.412	0.509
666.000	408.372	79.991	19.991	100.110	19.366	40.912	0.503
672.000	411.421	79.995	19.991	100.106	19.274	46.216	0.476
678.000	414.389	79.991	19.991	100.174	19.163	52.625	0.510
684.000	417.531	79.999	19.988	100.215	19.021	60.990	0.511
690.000	420.518	79.998	19.992	100.272	18.885	68.498	0.492
696.000	423.481	79.985	19.991	100.540	18.384	97.877	0.501
702.000	426.553	79.994	19.993	99.958	18.291	103.330	0.472
708.000	429.547	79.980	19.994	100.734	17.929	124.473	0.498
714.000	432.587	79.988	19.991	100.578	17.711	137.128	0.524
720.000	435.650	79.989	19.993	101.206	17.287	162.153	0.463
726.000	438.599	79.977	19.993	100.632	17.001	178.136	0.493
732.000	441.657	79.980	19.990	101.166	16.699	196.062	0.544
738.000	444.720	79.997	19.990	100.882	16.669	197.676	0.521
744.000	447.783	79.995	19.991	101.005	16.759	192.215	0.491
750.000	450.868	79.996	19.992	100.942	16.936	181.870	0.536
756.000	453.936	79.990	19.991	100.839	17.207	165.970	0.494
762.000	457.013	79.993	19.990	100.762	17.564	145.105	0.522
768.000	460.137	80.003	19.993	100.632	17.966	121.804	0.511
774.000	463.259	79.988	19.992	100.514	18.386	97.430	0.511
780.000	466.377	79.974	19.993	100.396	18.810	72.900	0.517
786.000	469.443	79.989	19.992	100.293	19.146	53.523	0.543
792.001	472.531	79.991	19.992	100.192	19.372	40.521	0.529
798.000	475.621	79.998	19.994	100.103	19.528	31.511	0.484
804.000	478.665	79.987	19.991	100.058	19.645	24.799	0.493
810.000	481.693	79.987	19.993	100.014	19.740	19.339	0.508
816.000	484.739	79.985	19.992	99.970	19.825	14.461	0.503
822.000	487.826	80.001	19.990	99.955	19.884	11.063	0.513
828.000	490.905	79.993	19.991	99.932	19.918	9.093	0.517
834.000	494.012	79.985	19.993	99.901	19.949	7.320	0.495
840.000	497.099	79.977	19.993	99.895	19.963	6.522	0.513
846.000	500.195	79.994	19.989	99.909	19.970	6.092	0.486
852.000	503.342	79.987	19.993	99.880	19.975	5.822	0.511
858.000	506.414	79.990	19.993	99.885	19.982	5.421	0.512
864.000	509.438	79.977	19.992	99.878	19.982	5.412	0.501
870.000	512.542	80.001	19.990	99.877	19.989	5.042	0.511
876.000	515.659	80.006	19.988	99.865	19.985	5.253	0.514
882.000	518.734	79.991	19.992	99.879	19.988	5.066	0.523
888.000	521.871	79.988	19.995	99.891	19.993	4.782	0.501
894.000	524.983	79.994	19.990	99.851	19.989	5.041	0.490
900.000	528.077	79.985	19.994	99.880	19.995	4.665	0.495
906.000	531.212	79.988	19.993	99.879	19.994	4.718	0.534
912.000	534.319	79.988	19.991	99.871	19.994	4.753	0.536
918.000	537.441	79.992	19.991	99.904	19.996	4.644	0.480
924.000	540.498	79.990	19.993	99.874	19.996	4.610	0.533
930.000	543.525	79.989	19.994	99.863	19.995	4.697	0.490
936.000	546.627	80.003	19.989	99.865	19.991	4.924	0.543
942.000	549.648	79.993	19.989	99.862	19.990	4.966	0.511
948.000	552.746	79.995	19.991	99.875	19.992	4.836	0.469
954.000	555.869	79.991	19.992	99.851	19.984	5.317	0.513
960.000	558.934	79.996	19.994	99.875	19.985	5.244	0.497
966.000	561.965	79.985	19.993	99.946	19.989	5.001	0.485
972.000	565.045	79.992	19.992	99.879	19.993	4.774	0.515
978.000	568.145	79.989	19.994	99.887	19.992	4.842	0.519
984.000	571.217	79.988	19.993	99.839	19.989	5.002	0.521
990.000	574.365	79.990	19.992	99.857	19.991	4.880	0.555
996.000	577.409	79.993	19.991	99.859	19.989	5.036	0.498
1002.000	580.508	79.994	19.992	99.864	19.988	5.083	0.518
1008.000	583.569	79.993	19.993	99.873	19.986	5.201	0.511
1014.000	586.687	79.991	19.992	99.877	19.990	4.977	0.525
1020.000	589.748	79.990	19.991	99.872	19.990	4.989	0.506
1026.000	592.866	79.997	19.992	99.856	19.984	5.291	0.516
1027.001	593.426	79.994	19.992	99.858	19.985	5.270	0.522

File: Polyester_Batting_MCC_30K_min_210308_R2.txt
Sample ID:	C:\MCC\MCC Cal\Test\Polyester_Batting_30_2.txt
Sample Weight (mg):	3.76
Heating Rate (C/s):	0.5
Combustor Temp (C):	900
N2 Flow Rate (cc/min):	80
O2 Flow Rate (cc/min):	20
Calibration File:	C:\MCC\MCC Cal\Coeff1 JN10440_30_210304.txt.txt
T Correction Coefficients:	0	1.024463	0
Time Shift (s):	14
*
Time (s)	Temperature (C)	N2 flow rate (cc/min)	O2 flow rate (cc/min)	Flow Rate (cc/min)	Oxygen (%)	HRR (W/g)	Heating rate (C/s)
0.000	108.118	79.992	19.990	99.687	20.088	-0.054	-0.010
7.000	108.120	79.993	19.992	99.706	20.088	-0.070	0.004
14.000	108.104	79.993	19.992	99.724	20.083	0.347	-0.015
21.000	108.172	79.993	19.994	99.728	20.080	0.578	-0.005
28.000	108.368	79.994	19.991	99.781	20.072	1.219	0.027
35.001	108.757	79.992	19.992	99.822	20.062	2.061	0.078
42.000	109.366	79.991	19.992	99.901	20.057	2.522	0.088
49.000	110.343	79.991	19.992	99.915	20.045	3.448	0.148
56.000	111.690	79.992	19.991	99.933	20.038	4.090	0.226
63.000	113.303	79.991	19.992	99.934	20.029	4.781	0.272
70.000	115.327	79.989	19.992	99.994	20.030	4.695	0.295
77.000	117.601	79.991	19.992	99.969	20.029	4.830	0.357
84.000	120.242	79.992	19.991	99.999	20.028	4.855	0.389
91.000	123.052	79.992	19.991	100.004	20.029	4.794	0.404
98.000	126.146	79.992	19.992	100.005	20.032	4.571	0.449
105.000	129.318	79.994	19.992	99.988	20.024	5.240	0.483
112.001	132.638	79.994	19.990	99.995	20.031	4.653	0.483
119.000	136.030	79.991	19.990	99.991	20.025	5.112	0.510
126.000	139.599	79.990	19.991	99.996	20.024	5.229	0.517
133.000	143.172	79.990	19.993	99.972	20.031	4.640	0.491
140.000	146.788	79.992	19.992	99.972	20.031	4.667	0.519
147.000	150.420	79.991	19.992	99.956	20.035	4.274	0.510
154.000	153.996	79.990	19.991	99.956	20.032	4.533	0.495
161.000	157.650	79.991	19.992	99.951	20.037	4.122	0.541
168.000	161.164	79.993	19.992	99.948	20.039	3.945	0.508
175.000	164.742	79.993	19.990	99.952	20.038	4.036	0.508
182.000	168.249	79.992	19.990	99.892	20.038	4.085	0.517
189.000	171.771	79.993	19.992	99.927	20.039	3.992	0.516
196.000	175.281	79.993	19.992	99.936	20.042	3.753	0.512
203.000	178.780	79.992	19.992	99.948	20.037	4.108	0.540
210.000	182.171	79.993	19.991	99.923	20.039	3.964	0.494
217.000	185.658	79.990	19.991	99.928	20.044	3.590	0.520
224.000	189.113	79.992	19.991	99.943	20.039	4.001	0.491
231.000	192.557	79.992	19.992	99.922	20.036	4.255	0.569
238.000	195.906	79.990	19.992	99.934	20.036	4.245	0.467
245.000	199.270	79.991	19.992	99.925	20.039	3.955	0.411
252.000	202.718	79.993	19.993	99.928	20.039	4.007	0.498
259.000	206.181	79.991	19.991	99.925	20.042	3.730	0.507
266.000	209.622	79.992	19.990	99.926	20.037	4.169	0.509
273.000	213.105	79.993	19.991	99.917	20.038	4.019	0.480
280.000	216.511	79.993	19.990	99.928	20.039	3.943	0.487
287.000	220.000	79.991	19.992	99.924	20.041	3.794	0.476
294.000	223.475	79.992	19.991	99.914	20.040	3.866	0.511
301.000	226.915	79.992	19.991	99.919	20.044	3.561	0.471
308.000	230.521	79.991	19.993	99.919	20.044	3.598	0.475
315.000	234.033	79.989	19.992	99.900	20.044	3.540	0.509
322.000	237.574	79.990	19.992	99.916	20.045	3.485	0.524
329.000	241.091	79.992	19.993	99.917	20.044	3.585	0.505
336.000	244.565	79.992	19.992	99.917	20.046	3.373	0.467
343.000	247.963	79.992	19.992	99.913	20.044	3.553	0.492
350.000	251.506	79.993	19.993	99.913	20.046	3.373	0.482
357.000	255.001	79.995	19.991	99.913	20.044	3.553	0.478
364.000	258.579	79.992	19.990	99.914	20.047	3.337	0.545
371.000	262.017	79.992	19.992	99.920	20.041	3.814	0.474
378.000	265.581	79.991	19.992	99.919	20.041	3.807	0.523
385.000	269.054	79.992	19.991	99.919	20.049	3.169	0.459
392.000	272.711	79.991	19.991	99.918	20.045	3.510	0.540
399.000	276.303	79.991	19.992	99.913	20.046	3.380	0.505
406.001	279.804	79.991	19.993	99.914	20.046	3.353	0.480
413.000	283.329	79.994	19.989	99.914	20.048	3.241	0.521
420.001	286.868	79.993	19.992	99.919	20.048	3.216	0.508
427.000	290.397	79.991	19.992	99.912	20.043	3.655	0.488
434.000	293.900	79.993	19.992	99.911	20.040	3.859	0.490
441.000	297.377	79.994	19.990	99.914	20.042	3.757	0.470
448.000	300.886	79.992	19.990	99.915	20.043	3.661	0.504
455.000	304.343	79.991	19.992	99.915	20.039	3.940	0.463
462.000	307.844	79.991	19.991	99.910	20.044	3.600	0.504
469.000	311.386	79.992	19.990	99.910	20.041	3.784	0.519
476.000	314.920	79.990	19.991	99.914	20.041	3.782	0.496
483.000	318.438	79.992	19.991	99.913	20.041	3.836	0.509
490.000	321.943	79.993	19.993	99.912	20.034	4.350	0.465
497.000	325.528	80.000	19.992	99.916	20.036	4.211	0.544
504.000	329.032	79.992	19.991	99.911	20.035	4.302	0.479
511.000	332.606	79.992	19.992	99.913	20.037	4.136	0.553
518.000	336.169	79.992	19.992	99.917	20.037	4.168	0.520
525.000	339.775	79.993	19.992	99.913	20.036	4.208	0.524
532.000	343.310	79.991	19.991	99.906	20.034	4.361	0.499
539.000	346.894	79.992	19.991	99.910	20.034	4.346	0.484
546.000	350.430	79.993	19.991	99.911	20.037	4.131	0.513
553.000	354.056	79.993	19.991	99.897	20.037	4.163	0.544
560.000	357.628	79.995	19.992	99.907	20.029	4.842	0.536
567.000	361.184	79.991	19.990	99.911	20.028	4.903	0.496
574.000	364.723	79.991	19.991	99.907	20.020	5.564	0.533
581.000	368.259	79.992	19.991	99.915	20.015	5.978	0.499
588.000	371.797	79.994	19.993	99.927	20.010	6.411	0.471
595.001	375.341	79.992	19.994	99.918	19.996	7.528	0.506
602.000	378.855	79.994	19.992	99.920	19.983	8.607	0.494
609.000	382.390	79.994	19.993	99.932	19.965	10.124	0.482
616.000	385.984	79.992	19.992	99.927	19.936	12.554	0.524
623.000	389.533	79.992	19.991	99.952	19.908	14.851	0.480
630.000	393.102	79.991	19.991	99.964	19.866	18.314	0.530
637.000	396.690	79.993	19.993	99.960	19.836	20.846	0.510
644.000	400.215	79.991	19.992	99.999	19.766	26.598	0.511
651.000	403.870	79.992	19.991	100.007	19.677	34.010	0.519
658.000	407.443	79.993	19.992	100.046	19.615	39.168	0.534
665.000	410.962	79.994	19.991	100.042	19.528	46.481	0.521
672.000	414.472	79.993	19.991	100.113	19.443	53.516	0.494
679.000	418.072	79.993	19.993	100.169	19.284	66.781	0.502
686.000	421.634	79.995	19.992	100.115	19.165	76.790	0.501
693.000	425.108	79.992	19.992	100.296	18.956	94.361	0.544
700.000	428.586	79.991	19.992	100.410	18.592	124.241	0.507
707.000	432.136	79.990	19.991	100.467	18.153	161.618	0.506
714.000	435.733	79.990	19.992	100.630	18.062	169.019	0.492
721.000	439.404	79.992	19.991	100.504	17.962	177.382	0.470
728.000	443.008	79.990	19.992	100.612	17.947	178.649	0.526
735.000	446.568	79.992	19.991	100.594	17.953	178.098	0.537
742.000	450.103	79.994	19.990	100.595	18.035	171.113	0.465
749.000	453.671	79.995	19.990	100.521	18.211	156.247	0.512
756.000	457.211	79.991	19.992	100.463	18.448	136.363	0.495
763.000	460.767	79.994	19.991	100.342	18.752	111.015	0.529
770.001	464.297	79.995	19.991	100.250	19.100	82.001	0.506
777.000	467.780	79.993	19.991	100.153	19.402	56.839	0.506
784.000	471.342	79.991	19.991	100.067	19.603	40.149	0.538
791.000	474.964	79.991	19.992	100.008	19.741	28.698	0.519
798.000	478.461	79.993	19.992	99.984	19.830	21.277	0.492
805.000	482.009	79.992	19.991	99.979	19.899	15.617	0.509
812.000	485.591	79.991	19.991	99.965	19.937	12.411	0.541
819.000	489.150	80.007	19.992	99.940	19.970	9.706	0.530
826.000	492.722	79.993	19.990	99.939	19.989	8.102	0.533
833.000	496.296	79.994	19.992	99.928	20.002	7.017	0.498
840.000	499.889	79.993	19.991	99.925	20.016	5.920	0.502
847.000	503.510	79.992	19.990	99.934	20.015	5.948	0.508
854.000	507.136	79.997	19.993	99.889	20.021	5.496	0.509
861.000	510.714	79.993	19.991	99.908	20.022	5.395	0.536
868.000	514.347	79.992	19.993	99.923	20.023	5.311	0.509
875.000	517.945	79.991	19.992	99.909	20.027	4.937	0.500
882.001	521.593	79.992	19.992	99.967	20.033	4.481	0.524
889.000	525.186	79.992	19.992	99.898	20.031	4.645	0.506
896.000	528.850	79.993	19.992	99.920	20.036	4.198	0.515
903.000	532.444	79.993	19.991	99.915	20.030	4.706	0.501
910.000	536.081	79.993	19.991	99.899	20.029	4.769	0.548
917.000	539.587	79.993	19.991	99.895	20.030	4.680	0.511
924.000	543.287	79.994	19.991	99.895	20.030	4.736	0.498
931.000	546.978	79.996	19.991	99.884	20.030	4.684	0.426
938.000	550.334	79.996	19.992	99.876	20.031	4.641	0.437
945.000	553.858	79.992	19.992	99.888	20.028	4.896	0.538
952.000	557.474	79.992	19.992	99.895	20.028	4.845	0.482
959.000	561.106	79.992	19.991	99.887	20.030	4.744	0.510
966.000	564.667	79.992	19.993	99.892	20.029	4.798	0.500
973.000	568.343	79.992	19.993	99.878	20.021	5.433	0.512
980.000	571.962	79.991	19.991	99.899	20.027	4.970	0.541
987.000	575.548	79.993	19.991	99.888	20.027	4.979	0.497
994.000	579.199	79.994	19.991	99.891	20.028	4.878	0.512
1001.000	582.820	79.993	19.991	99.876	20.028	4.881	0.493
1008.000	586.485	79.994	19.991	99.886	20.027	5.002	0.531
1015.000	590.166	79.994	19.990	99.898	20.029	4.768	0.539
1022.000	593.822	79.995	19.991	99.880	20.028	4.904	0.523
1029.000	597.442	79.992	19.991	99.886	20.026	5.029	0.505
1036.000	601.060	79.992	19.992	99.881	20.029	4.822	0.516
1043.000	604.608	79.992	19.992	99.886	20.029	4.772	0.500
1050.001	608.233	79.992	19.993	99.881	20.026	5.031	0.549
1057.000	611.806	79.990	19.992	99.880	20.021	5.437	0.511
1064.000	615.361	79.991	19.991	99.882	20.030	4.720	0.496
1071.000	618.965	79.993	19.992	99.887	20.027	4.960	0.520
1078.000	622.613	79.994	19.992	99.913	20.028	4.865	0.520
1085.000	626.274	79.991	19.990	99.869	20.022	5.387	0.494
1092.000	629.828	79.995	19.991	99.876	20.021	5.446	0.534
1099.001	633.326	79.994	19.991	99.876	20.022	5.385	0.495
1106.000	636.950	79.993	19.992	99.877	20.025	5.122	0.501
1113.000	640.554	79.993	19.992	99.873	20.024	5.237	0.471
1120.001	644.122	79.992	19.992	99.887	20.021	5.460	0.528
1127.000	647.748	79.993	19.991	99.874	20.026	5.019	0.511
1134.000	651.296	79.994	19.992	99.877	20.028	4.885	0.518
1141.000	654.903	79.990	19.992	99.873	20.027	4.942	0.531
1148.000	658.488	79.992	19.992	99.899	20.032	4.574	0.507
1155.001	662.030	79.994	19.991	99.875	20.034	4.349	0.509
1162.000	665.598	79.993	19.991	99.888	20.031	4.651	0.493
1169.001	669.191	79.992	19.990	99.905	20.034	4.361	0.824
1176.000	672.600	79.993	19.989	99.871	20.033	4.445	0.527
1183.000	676.259	79.997	19.991	99.873	20.034	4.411	0.486
1190.000	679.838	79.994	19.991	99.874	20.037	4.166	0.489
1197.000	683.474	79.994	19.992	99.876	20.043	3.657	0.521
1204.000	687.158	79.993	19.993	99.878	20.038	4.096	0.569
1211.000	690.786	79.992	19.993	99.839	20.040	3.905	0.535
1216.000	693.353	79.993	19.993	99.875	20.039	3.956	0.543