Folder: fsri_materials_database/01_Data/Polyester_Batting/MCC (part 2)

File: Polyester_Batting_MCC_30K_min_210308_R3.txt
Sample ID:	C:\MCC\MCC Cal\Test\Polyester_Batting_30_3.txt
Sample Weight (mg):	4.22
Heating Rate (C/s):	0.5
Combustor Temp (C):	900
N2 Flow Rate (cc/min):	80
O2 Flow Rate (cc/min):	20
Calibration File:	C:\MCC\MCC Cal\Coeff1 JN10440_30_210304.txt.txt
T Correction Coefficients:	0	1.024463	0
Time Shift (s):	14
*
Time (s)	Temperature (C)	N2 flow rate (cc/min)	O2 flow rate (cc/min)	Flow Rate (cc/min)	Oxygen (%)	HRR (W/g)	Heating rate (C/s)
0.000	111.283	79.990	19.992	99.717	20.139	0.478	-0.002
7.000	111.130	79.992	19.991	99.719	20.144	0.155	-0.012
14.000	111.111	79.994	19.991	99.724	20.138	0.566	0.040
21.000	111.082	79.994	19.991	99.723	20.132	1.052	-0.025
28.000	111.153	79.993	19.991	99.846	20.111	2.550	0.011
35.000	111.598	79.995	19.992	99.910	20.105	2.993	0.101
42.000	112.424	79.993	19.992	99.922	20.101	3.303	0.077
49.001	113.651	79.993	19.992	99.918	20.097	3.606	0.186
56.000	115.128	79.992	19.991	99.954	20.099	3.484	0.237
63.000	116.939	79.992	19.992	99.952	20.095	3.768	0.305
70.000	118.881	79.992	19.991	99.937	20.089	4.178	0.276
77.000	121.104	79.991	19.991	99.997	20.087	4.341	0.330
84.000	123.507	79.992	19.992	100.019	20.092	3.986	0.368
91.000	126.089	79.991	19.992	99.952	20.090	4.138	0.361
98.000	128.889	79.993	19.992	99.989	20.084	4.575	0.438
105.000	131.696	79.995	19.992	99.999	20.090	4.141	0.409
112.000	134.628	79.992	19.992	99.973	20.090	4.132	0.415
119.000	137.713	79.995	19.990	99.988	20.087	4.370	0.457
126.000	140.969	79.996	19.992	100.028	20.090	4.109	0.462
133.000	144.201	79.991	19.991	99.990	20.086	4.452	0.470
140.000	147.555	79.992	19.990	99.988	20.090	4.097	0.473
147.000	150.937	79.995	19.992	100.006	20.090	4.127	0.475
154.000	154.392	79.992	19.992	99.992	20.090	4.121	0.477
161.000	157.782	79.993	19.993	99.987	20.087	4.384	0.421
168.000	161.280	79.992	19.992	99.969	20.090	4.162	0.485
175.000	164.740	79.995	19.992	99.975	20.090	4.142	0.473
182.000	168.318	79.993	19.993	99.979	20.089	4.199	0.518
189.000	171.834	79.992	19.993	100.038	20.092	3.996	0.488
196.000	175.349	79.995	19.992	99.997	20.091	4.049	0.493
203.000	178.935	79.996	19.990	99.944	20.090	4.098	0.525
210.000	182.379	79.994	19.992	99.949	20.091	4.065	0.498
217.000	185.963	79.992	19.991	99.960	20.089	4.235	0.530
224.000	189.526	79.993	19.990	99.952	20.090	4.161	0.541
231.000	192.993	79.992	19.990	99.935	20.091	4.041	0.501
238.000	196.421	79.993	19.992	99.993	20.096	3.699	0.510
245.000	199.865	79.990	19.993	99.949	20.098	3.572	0.496
252.000	203.357	79.992	19.993	99.956	20.089	4.225	0.499
259.000	206.886	79.994	19.990	99.959	20.089	4.223	0.522
266.000	210.309	79.991	19.991	99.958	20.094	3.826	0.534
273.000	213.718	79.992	19.993	99.958	20.099	3.484	0.482
280.000	217.204	79.994	19.992	99.950	20.093	3.881	0.506
287.000	220.672	79.995	19.990	99.950	20.095	3.743	0.487
294.000	224.112	79.993	19.991	99.951	20.095	3.794	0.492
301.000	227.551	79.992	19.991	99.950	20.094	3.863	0.508
308.000	231.062	79.994	19.995	99.951	20.099	3.444	0.507
315.000	234.580	79.995	19.993	99.953	20.094	3.819	0.516
322.000	238.137	79.993	19.990	99.955	20.105	3.022	0.528
329.000	241.587	79.991	19.990	99.968	20.098	3.551	0.494
336.000	245.051	79.995	19.993	99.915	20.094	3.806	0.513
343.000	248.472	79.996	19.993	99.944	20.095	3.735	0.495
350.000	252.012	79.993	19.992	99.946	20.094	3.840	0.538
357.000	255.436	79.993	19.992	99.949	20.095	3.798	0.530
364.000	258.941	79.994	19.993	99.947	20.097	3.583	0.498
371.000	262.382	79.994	19.992	99.944	20.095	3.790	0.476
378.000	265.871	79.992	19.990	99.936	20.097	3.641	0.498
385.000	269.383	79.992	19.991	99.969	20.101	3.289	0.474
392.000	272.955	79.992	19.994	99.940	20.097	3.585	0.499
399.000	276.513	79.994	19.991	99.934	20.100	3.364	0.515
406.000	280.014	79.992	19.990	99.934	20.096	3.681	0.479
413.000	283.530	79.994	19.992	99.952	20.095	3.771	0.466
420.000	287.032	79.994	19.993	99.949	20.094	3.801	0.496
427.000	290.648	79.994	19.991	99.931	20.103	3.202	0.508
434.000	294.136	79.993	19.991	99.953	20.095	3.787	0.511
441.000	297.774	79.993	19.990	99.918	20.095	3.757	0.556
448.000	301.177	79.994	19.991	99.946	20.100	3.366	0.459
455.000	304.766	79.995	19.992	99.939	20.098	3.571	0.491
462.001	308.297	79.993	19.992	99.923	20.098	3.513	0.504
469.000	311.868	79.992	19.991	99.932	20.098	3.560	0.521
476.000	315.369	79.992	19.992	99.885	20.102	3.258	0.471
483.000	318.901	79.994	19.993	99.928	20.097	3.636	0.521
490.000	322.436	79.993	19.993	99.925	20.103	3.136	0.492
497.000	325.923	79.992	19.992	99.914	20.096	3.671	0.490
504.000	329.491	79.995	19.991	99.919	20.098	3.519	0.538
511.000	333.006	79.993	19.991	99.926	20.104	3.064	0.502
518.000	336.590	79.992	19.991	99.910	20.093	3.936	0.531
525.000	340.096	79.994	19.992	99.939	20.101	3.300	0.480
532.000	343.619	79.995	19.991	99.946	20.099	3.477	0.502
539.000	347.182	79.991	19.992	99.903	20.094	3.813	0.505
546.000	350.691	79.991	19.993	99.903	20.091	4.076	0.454
553.000	354.280	79.993	19.993	99.952	20.092	4.003	0.535
560.000	357.757	79.994	19.992	99.914	20.088	4.296	0.491
567.000	361.275	79.993	19.992	99.962	20.086	4.458	0.474
574.000	364.771	79.991	19.991	99.927	20.077	5.118	0.505
581.000	368.233	79.992	19.991	99.921	20.072	5.492	0.474
588.000	371.782	79.994	19.991	99.941	20.057	6.579	0.471
595.000	375.332	79.993	19.990	99.927	20.041	7.784	0.540
602.000	378.921	79.995	19.992	99.952	20.023	9.059	0.522
609.000	382.472	79.993	19.992	99.964	19.994	11.218	0.529
616.000	386.133	79.995	19.992	99.947	19.968	13.140	0.506
623.000	389.681	79.992	19.992	99.953	19.938	15.352	0.507
630.000	393.305	79.991	19.992	99.987	19.897	18.380	0.537
637.000	396.875	79.991	19.992	100.028	19.829	23.403	0.527
644.001	400.439	79.995	19.992	99.996	19.754	29.000	0.490
651.000	403.966	79.992	19.992	100.080	19.678	34.649	0.511
658.000	407.462	79.994	19.991	100.078	19.600	40.435	0.501
665.001	411.067	79.995	19.990	100.146	19.470	50.097	0.515
672.000	414.581	79.994	19.992	100.172	19.321	61.234	0.495
679.000	418.067	79.995	19.991	100.268	19.080	78.913	0.505
686.000	421.703	79.993	19.990	100.209	18.842	96.790	0.485
693.000	425.311	79.995	19.991	100.488	18.716	106.263	0.505
700.000	428.869	79.996	19.992	100.439	18.514	121.709	0.521
707.000	432.420	79.992	19.991	100.579	18.204	144.098	0.491
714.000	435.960	79.993	19.992	100.664	17.717	180.979	0.497
721.000	439.558	79.992	19.992	100.842	17.650	185.903	0.508
728.000	443.064	79.992	19.992	100.743	17.660	185.045	0.486
735.000	446.703	79.992	19.991	100.730	17.725	180.085	0.502
742.000	450.318	79.993	19.993	100.688	17.889	167.792	0.569
749.000	453.858	79.993	19.993	100.602	18.142	148.767	0.512
756.000	457.432	79.995	19.992	100.492	18.452	125.655	0.510
763.000	460.918	79.994	19.991	100.372	18.802	99.541	0.471
770.000	464.486	79.994	19.991	100.269	19.185	71.165	0.469
777.000	467.964	79.996	19.991	100.188	19.486	48.836	0.460
784.000	471.628	79.994	19.993	100.092	19.694	33.411	0.541
791.000	475.269	79.993	19.992	100.036	19.824	23.833	0.579
798.001	479.209	79.994	19.993	99.993	19.905	17.816	0.366
805.000	482.358	79.992	19.992	99.994	19.965	13.397	0.465
812.000	485.891	79.993	19.993	99.971	20.007	10.248	0.514
819.000	489.384	79.993	19.994	99.953	20.039	7.930	0.522
826.000	492.909	79.993	19.991	99.930	20.056	6.676	0.536
833.000	496.435	79.995	19.991	99.910	20.068	5.767	0.525
840.000	499.915	79.995	19.991	99.912	20.077	5.091	0.503
847.001	503.448	79.995	19.991	99.952	20.083	4.682	0.507
854.000	506.964	79.996	19.991	99.929	20.084	4.575	0.522
861.000	510.492	79.996	19.990	99.895	20.090	4.098	0.495
868.000	513.987	79.992	19.990	99.917	20.087	4.322	0.534
875.000	517.627	79.992	19.991	99.908	20.086	4.399	0.529
882.000	521.197	79.993	19.992	99.927	20.092	3.960	0.511
889.000	524.825	79.994	19.991	99.942	20.097	3.640	0.510
896.000	528.397	79.991	19.991	99.906	20.089	4.195	0.501
903.000	531.969	79.991	19.993	99.896	20.096	3.669	0.484
910.001	535.551	79.993	19.994	99.910	20.095	3.769	0.548
917.000	539.164	79.995	19.991	99.897	20.090	4.094	0.503
924.000	542.799	79.994	19.992	99.914	20.096	3.691	0.526
931.000	546.378	79.996	19.992	99.914	20.097	3.578	0.492
938.000	550.070	79.997	19.992	99.913	20.101	3.322	0.552
945.000	553.631	79.996	19.992	99.883	20.097	3.644	0.535
952.000	557.224	79.993	19.991	99.877	20.095	3.727	0.492
959.000	560.806	79.995	19.991	99.908	20.098	3.523	0.530
966.000	564.361	79.995	19.993	99.895	20.100	3.391	0.508
973.000	567.956	79.996	19.992	99.922	20.101	3.315	0.506
980.000	571.486	79.993	19.991	99.908	20.097	3.601	0.541
987.000	575.080	79.993	19.991	99.915	20.095	3.756	0.492
994.000	578.677	79.995	19.992	99.891	20.097	3.618	0.491
1001.000	582.235	79.996	19.992	99.910	20.094	3.819	0.507
1008.000	585.817	79.995	19.990	99.899	20.090	4.119	0.493
1015.000	589.399	79.995	19.991	99.908	20.088	4.251	0.509
1022.000	592.990	79.998	19.990	99.896	20.091	4.088	0.486
1029.000	596.574	79.996	19.991	99.912	20.091	4.090	0.530
1036.000	600.213	79.993	19.990	99.894	20.089	4.176	0.510
1043.000	603.787	79.993	19.991	99.878	20.091	4.051	0.513
1050.000	607.298	79.991	19.992	99.876	20.095	3.784	0.507
1057.000	610.927	79.995	19.991	99.885	20.092	3.994	0.520
1064.000	614.556	79.989	19.991	99.891	20.093	3.908	0.510
1071.000	618.106	79.991	19.992	99.908	20.093	3.899	0.520
1078.000	621.778	79.993	19.993	99.903	20.096	3.700	0.503
1085.001	625.340	79.994	19.992	99.890	20.094	3.862	0.484
1092.000	628.957	79.993	19.991	99.884	20.092	4.000	0.518
1099.000	632.508	79.996	19.990	99.886	20.098	3.545	0.500
1106.002	636.036	79.996	19.991	99.888	20.096	3.721	0.474
1113.000	639.679	79.993	19.991	99.904	20.097	3.595	0.509
1120.000	643.306	79.994	19.991	99.895	20.097	3.614	0.520
1127.000	646.943	79.994	19.992	99.898	20.099	3.466	0.498
1134.000	650.632	79.994	19.991	99.906	20.100	3.417	0.536
1141.000	654.302	79.991	19.992	99.898	20.099	3.458	0.545
1148.000	657.943	79.994	19.991	99.893	20.097	3.598	0.554
1155.000	661.547	79.994	19.991	99.879	20.100	3.401	0.511
1162.001	665.078	79.993	19.992	99.882	20.102	3.276	0.488
1169.000	668.669	79.993	19.992	99.875	20.099	3.427	0.565
1176.000	672.304	79.994	19.992	99.898	20.102	3.276	0.541
1183.001	675.851	79.995	19.991	99.875	20.102	3.253	0.537
1190.000	679.403	79.995	19.993	99.891	20.104	3.073	0.484
1197.000	682.973	79.994	19.992	99.878	20.103	3.168	0.532
1204.000	686.566	79.991	19.991	99.883	20.104	3.106	0.530
1211.000	690.127	79.995	19.991	99.873	20.102	3.223	0.487
1217.500	693.379	79.994	19.992	99.894	20.102	3.211	0.484