Folder: fsri_materials_database/01_Data/Pallet_Wood/STA/N2/10K_min (part 2)

File: Pallet_Wood_STA_N2_10KData_220413_R3.csv
##Temp./Â°C,Time/min,Mass loss(subtr.2)/mg,DSC(subtr.2)/(mW/mg),Sensit./(uV/mW)
49.745,10.01,-0.02227,0.02587037,1.06051
52.945,11.32421,-0.02151994,0.12671,1.05984
56.145,11.775,-0.02176185,0.17419,1.05916
59.345,12.16186,-0.02275847,0.20552,1.05846
62.545,12.52384,-0.02516931,0.22514,1.05773
65.745,12.87538,-0.02554822,0.24082,1.05699
68.945,13.22069,-0.02673646,0.25818,1.05623
72.145,13.56146,-0.02806989,0.2681,1.05545
75.345,13.8978,-0.0297438,0.27727,1.05466
78.545,14.2318,-0.02938994,0.2823,1.05384
81.745,14.5623,-0.03274295,0.28863,1.053
84.945,14.8889,-0.03465996,0.28979,1.05215
88.145,15.21279,-0.03466299,0.29189,1.05128
91.345,15.5336,-0.03532705,0.28487,1.05039
94.545,15.852,-0.03611131,0.28003,1.04948
97.745,16.16846,-0.03927,0.27743,1.04855
100.945,16.4842,-0.03926563,0.27011,1.04761
104.145,16.7985,-0.04057497,0.2684,1.04665
107.345,17.11192,-0.04126496,0.26677,1.04567
110.545,17.42471,-0.04124003,0.26619,1.04467
113.745,17.73736,-0.04123002,0.2659,1.04365
116.945,18.0496,-0.03992004,0.26659,1.04262
120.145,18.36102,-0.0399566,0.2672,1.04157
123.345,18.673,-0.03993485,0.26963,1.0405
126.545,18.984,-0.04256395,0.27249,1.03941
129.745,19.2945,-0.04223056,0.27583,1.03831
132.945,19.60535,-0.04255987,0.27769,1.03719
136.145,19.9146,-0.04125497,0.27818,1.03605
139.345,20.22469,-0.04123326,0.28383,1.03489
142.545,20.53268,-0.04124,0.2874,1.03372
145.745,20.84071,-0.04124,0.2891,1.03253
148.945,21.148,-0.04236681,0.29277,1.03133
152.145,21.45656,-0.04387002,0.29675,1.03011
155.345,21.7639,-0.04387591,0.29762,1.02887
158.545,22.0717,-0.0425428,0.30212,1.02761
161.745,22.37872,-0.04552154,0.30498,1.02634
164.945,22.6856,-0.0438685,0.30826,1.02505
168.145,22.9925,-0.04341183,0.31188,1.02375
171.345,23.29885,-0.04518999,0.31519,1.02243
174.545,23.6053,-0.04387014,0.31929,1.02109
177.745,23.91173,-0.04452486,0.32184,1.01974
180.945,24.21762,-0.04781913,0.3278,1.01837
184.145,24.52335,-0.04717107,0.33063,1.01698
187.345,24.82936,-0.04387703,0.33669,1.01558
190.545,25.13486,-0.04841765,0.33951,1.01417
193.745,25.44055,-0.04457868,0.34122,1.01274
196.945,25.7465,-0.05045386,0.34564,1.01129
200.145,26.05219,-0.05309,0.3478,1.00983
203.345,26.35817,-0.05100001,0.35733,1.00835
206.545,26.66279,-0.05527284,0.36304,1.00686
209.745,26.968,-0.05462011,0.36876,1.00535
212.945,27.27238,-0.05628593,0.37369,1.00383
216.145,27.57767,-0.06003119,0.38041,1.00229
219.345,27.883,-0.06154577,0.38373,1.00074
222.545,28.18876,-0.06548,0.38978,0.99917
225.745,28.49417,-0.06937727,0.39434,0.99759
228.945,28.7992,-0.07469715,0.40206,0.99599
232.145,29.1049,-0.0780041,0.40959,0.99438
235.345,29.41023,-0.08456826,0.41377,0.99276
238.545,29.7158,-0.09112869,0.41369,0.99112
241.745,30.0213,-0.0988614,0.41792,0.98947
244.945,30.3266,-0.10844,0.42226,0.9878
248.145,30.6321,-0.11832,0.42847,0.98612
251.345,30.93768,-0.13125,0.43171,0.98443
254.545,31.243,-0.14741,0.43668,0.98272
257.745,31.54798,-0.16222,0.4453,0.981
260.945,31.85323,-0.18299,0.45139,0.97926
264.145,32.1589,-0.20089,0.46416,0.97751
267.345,32.46478,-0.22553,0.46999,0.97575
270.545,32.77105,-0.25552,0.48327,0.97398
273.745,33.07762,-0.28648,0.48917,0.97219
276.945,33.38405,-0.32502,0.4982,0.97039
280.145,33.6898,-0.36369,0.50597,0.96858
283.345,33.9965,-0.40927,0.511,0.96675
286.545,34.30297,-0.46028,0.51476,0.96491
289.745,34.6093,-0.50748,0.51789,0.96306
292.945,34.9158,-0.56114,0.51469,0.96119
296.145,35.22229,-0.61424,0.51565,0.95932
299.345,35.52929,-0.67103,0.51416,0.95743
302.545,35.83583,-0.72602,0.52044,0.95553
305.745,36.14301,-0.78457,0.52005,0.95361
308.945,36.44996,-0.84611,0.52405,0.95169
312.145,36.7575,-0.90318,0.53522,0.94975
315.345,37.06479,-0.96436,0.54566,0.9478
318.545,37.37267,-1.02694,0.56124,0.94584
321.745,37.68012,-1.09656,0.57515,0.94387
324.945,37.9886,-1.16235,0.59313,0.94188
328.145,38.29663,-1.22995,0.61635,0.93989
331.345,38.6051,-1.30301,0.64144,0.93788
334.545,38.91356,-1.37949,0.67173,0.93586
337.745,39.2222,-1.45507,0.70749,0.93383
340.945,39.53201,-1.54064,0.74485,0.93179
344.145,39.84093,-1.62693,0.78787,0.92974
347.345,40.1505,-1.71982,0.83175,0.92768
350.545,40.4613,-1.8221,0.88398,0.92561
353.745,40.7721,-1.93533,0.93773,0.92352
356.945,41.08289,-2.05456,0.99215,0.92143
360.145,41.39421,-2.18302,1.04233,0.91932
363.345,41.70446,-2.322,1.07757,0.91721
366.545,42.0153,-2.46346,1.08958,0.91509
369.745,42.32547,-2.60571,1.05675,0.91295
372.945,42.6359,-2.73908,0.97495,0.91081
376.145,42.9456,-2.85292,0.83174,0.90865
379.345,43.25544,-2.94488,0.63972,0.90649
382.545,43.5646,-3.00419,0.44492,0.90431
385.745,43.87409,-3.04215,0.28847,0.90213
388.945,44.18359,-3.06123,0.20364,0.89993
392.145,44.49362,-3.07111,0.16688,0.89773
395.345,44.80396,-3.07986,0.14515,0.89552
398.545,45.11517,-3.08841,0.13413,0.8933
401.745,45.426,-3.09667,0.12345,0.89106
404.945,45.73774,-3.10622,0.12066,0.88882
408.145,46.0496,-3.11483,0.1128,0.88658
411.345,46.36163,-3.12144,0.10822,0.88432
414.545,46.67453,-3.13069,0.10421,0.88205
417.745,46.98675,-3.13649,0.10173,0.87978
420.945,47.29955,-3.14532,0.10179,0.87749
424.145,47.6124,-3.15161,0.10295,0.8752
427.345,47.92605,-3.15939,0.10422,0.8729
430.545,48.24015,-3.16884,0.11029,0.87059
433.745,48.55396,-3.17257,0.11122,0.86827
436.945,48.86787,-3.17924,0.11724,0.86595
440.145,49.1825,-3.18691,0.11973,0.86361
443.345,49.49665,-3.19066,0.12426,0.86127
446.545,49.81057,-3.19705,0.13551,0.85892
449.745,50.12494,-3.20174,0.14665,0.85657
452.945,50.4391,-3.20623,0.1527,0.8542
456.145,50.75444,-3.21147,0.15804,0.85183
459.345,51.06944,-3.21643,0.15762,0.84945
462.545,51.38482,-3.22163,0.16375,0.84706
465.745,51.70037,-3.22566,0.16728,0.84467
468.945,52.01632,-3.22927,0.16883,0.84227
472.145,52.3326,-3.23223,0.17339,0.83986
475.345,52.64852,-3.23672,0.19191,0.83745
478.545,52.9639,-3.2388,0.20094,0.83502
481.745,53.2806,-3.24408,0.21167,0.83259
484.945,53.5954,-3.24797,0.21457,0.83016
488.145,53.91228,-3.24834,0.21539,0.82772
491.345,54.2291,-3.2523,0.21403,0.82527
494.545,54.54529,-3.2563,0.21508,0.82281
497.745,54.86192,-3.25686,0.21603,0.82035
500.945,55.1777,-3.26184,0.22143,0.81788
504.145,55.49428,-3.26315,0.22143,0.81541
507.345,55.81081,-3.26514,0.20707,0.81293
510.545,56.1284,-3.26899,0.20293,0.81045
513.745,56.446,-3.27024,0.19934,0.80795
516.945,56.76455,-3.2727,0.19968,0.80546
520.145,57.0826,-3.27681,0.19936,0.80295
523.345,57.4005,-3.27797,0.19283,0.80045
526.545,57.71807,-3.28192,0.19209,0.79793
529.745,58.0358,-3.28416,0.19525,0.79541
532.945,58.3533,-3.28455,0.19487,0.79289
536.145,58.67154,-3.28814,0.19897,0.79036
539.345,58.9901,-3.2908,0.19344,0.78782
542.545,59.3086,-3.29207,0.19274,0.78528
545.745,59.6267,-3.29323,0.19453,0.78274
548.945,59.94624,-3.29552,0.18787,0.78019
552.145,60.2652,-3.29737,0.18959,0.77763
555.345,60.58494,-3.30086,0.18817,0.77507
558.545,60.9039,-3.30132,0.17988,0.77251
561.745,61.22316,-3.30528,0.17449,0.76994
564.945,61.5429,-3.30857,0.16955,0.76737
568.145,61.8627,-3.30584,0.16337,0.76479
571.345,62.18337,-3.30978,0.1598,0.76221
574.545,62.50414,-3.31351,0.15686,0.75962
577.745,62.8244,-3.31307,0.15455,0.75703
580.945,63.1455,-3.31464,0.15438,0.75444
584.145,63.46663,-3.31695,0.15383,0.75184
587.345,63.7879,-3.31891,0.1496,0.74924
590.545,64.1088,-3.32162,0.14525,0.74664
593.745,64.42908,-3.32287,0.14741,0.74403
596.945,64.74948,-3.32427,0.14931,0.74142
600.145,65.06954,-3.32327,0.15013,0.7388
603.345,65.39013,-3.32721,0.15489,0.73618
606.545,65.7102,-3.32589,0.15473,0.73356
609.745,66.0307,-3.33117,0.15415,0.73093
612.945,66.35059,-3.33083,0.16443,0.7283
616.145,66.67223,-3.33276,0.16605,0.72567
619.345,66.9933,-3.33642,0.16965,0.72304
622.545,67.31387,-3.33513,0.17538,0.7204
625.745,67.6349,-3.33779,0.17802,0.71776
628.945,67.95645,-3.33786,0.18636,0.71512
632.145,68.27849,-3.33917,0.19013,0.71247
635.345,68.5997,-3.34115,0.19538,0.70982
638.545,68.92104,-3.34159,0.19737,0.70717
641.745,69.2424,-3.34619,0.20347,0.70452
644.945,69.5638,-3.34367,0.20621,0.70187
648.145,69.88556,-3.34524,0.21091,0.69921
651.345,70.20676,-3.34652,0.21524,0.69655
654.545,70.529,-3.34612,0.22369,0.69389
657.745,70.8505,-3.34817,0.22849,0.69123
660.945,71.17223,-3.35167,0.23248,0.68856
664.145,71.49463,-3.35048,0.24434,0.68589
667.345,71.81703,-3.35278,0.25212,0.68322
670.545,72.13964,-3.3508,0.25599,0.68055
673.745,72.461,-3.35211,0.26825,0.67788
676.945,72.78223,-3.35146,0.27643,0.67521
680.145,73.1028,-3.35442,0.28588,0.67254
683.345,73.42532,-3.35573,0.28738,0.66986
686.545,73.7479,-3.35669,0.28796,0.66718
689.745,74.07104,-3.35805,0.29203,0.66451
692.945,74.39335,-3.35803,0.29656,0.66183
696.145,74.71558,-3.35803,0.30231,0.65915
699.345,75.03789,-3.36199,0.3036,0.65647
702.545,75.3611,-3.35672,0.3066,0.65378
705.745,75.684,-3.35936,0.31317,0.6511
708.945,76.00788,-3.36199,0.31453,0.64842
712.145,76.33193,-3.36166,0.31653,0.64573
715.345,76.65585,-3.36264,0.31482,0.64305
718.545,76.9799,-3.36428,0.32516,0.64037
721.745,77.30408,-3.36396,0.33068,0.63768
724.945,77.62818,-3.36594,0.33625,0.635
728.145,77.95187,-3.36626,0.33377,0.63231
731.345,78.2744,-3.36757,0.33837,0.62963
734.545,78.5971,-3.36899,0.34117,0.62694
737.745,78.91982,-3.37153,0.34258,0.62426
740.945,79.24382,-3.3676,0.34035,0.62157
744.145,79.5692,-3.36854,0.34307,0.61889
747.345,79.8941,-3.37176,0.35045,0.6162
750.545,80.21868,-3.37044,0.34906,0.61352
753.745,80.54304,-3.37305,0.35556,0.61084
756.945,80.86695,-3.37173,0.35822,0.60815
760.145,81.19206,-3.37306,0.35968,0.60547
763.345,81.51698,-3.37564,0.36359,0.60279
766.545,81.84175,-3.37438,0.36463,0.60011
769.745,82.16676,-3.37569,0.37647,0.59743
772.945,82.4913,-3.37689,0.37571,0.59475
776.145,82.8161,-3.37693,0.38338,0.59207
779.345,83.14175,-3.37698,0.38216,0.58939
782.545,83.4674,-3.37766,0.3902,0.58672
785.745,83.7933,-3.37958,0.39284,0.58404
788.945,84.1177,-3.37998,0.39428,0.58137
792.145,84.4429,-3.38272,0.4036,0.5787
795.345,84.76822,-3.38226,0.39776,0.57603
797.545,84.99175,-3.38271,0.40395,0.57419