Folder: fsri_materials_database/01_Data/Pallet_Wood/STA/N2/30K_min

Note: 01_Data/README.md
# Materials and Products Database
## 01_Data

Raw data generated from each apparatus are included here in plain-text format. The data is organized first by material, next by the short name of test apparatus used, and where applicable additional filtering by test settings.

### material.json

Each material directory contains a json file of the same name as the material. This file links the data stored in the repository as well as data and graphs produced by the accompanying scripts (__02_Scripts__) to the respective landing page for the material on the front-end website.

File: Pallet_Wood_STA_N2_30KData_220413_R1.csv
##Temp./Â°C,Time/min,Mass loss(subtr.2)/mg,DSC(subtr.2)/(mW/mg),Sensit./(uV/mW)
48.446,10.01,-0.04113,0.00889259,1.07508
51.646,10.88349,-0.04353835,0.14485,1.07367
54.846,11.11858,-0.04407191,0.24443,1.07224
58.046,11.2988,-0.04624998,0.32605,1.07081
61.246,11.4542,-0.04548741,0.3953,1.06936
64.446,11.5954,-0.04609007,0.45256,1.0679
67.646,11.7276,-0.04923699,0.50475,1.06643
70.846,11.85356,-0.04793333,0.55182,1.06495
74.046,11.97592,-0.04982938,0.59434,1.06346
77.246,12.09476,-0.05005952,0.63584,1.06196
80.446,12.2108,-0.05123269,0.67344,1.06044
83.646,12.3253,-0.0519219,0.70758,1.05892
86.846,12.43788,-0.0531001,0.73877,1.05738
90.046,12.54909,-0.05498997,0.76971,1.05584
93.246,12.6587,-0.05627584,0.79154,1.05428
96.446,12.768,-0.05849437,0.81211,1.05272
99.646,12.8765,-0.05832203,0.82886,1.05114
102.846,12.98433,-0.06175827,0.83566,1.04956
106.046,13.09197,-0.06445726,0.83726,1.04796
109.246,13.19936,-0.06437773,0.83385,1.04635
112.446,13.3065,-0.0669919,0.82496,1.04474
115.646,13.4133,-0.06793854,0.81171,1.04311
118.846,13.5198,-0.06898975,0.79882,1.04148
122.046,13.62563,-0.06840836,0.787,1.03983
125.246,13.731,-0.06964494,0.78044,1.03818
128.446,13.83596,-0.07031017,0.77041,1.03652
131.646,13.9402,-0.07161999,0.76621,1.03485
134.846,14.0442,-0.07294808,0.76399,1.03317
138.046,14.14746,-0.06979294,0.76567,1.03148
141.246,14.2504,-0.07198007,0.76805,1.02978
144.446,14.3527,-0.07222319,0.77038,1.02807
147.646,14.4549,-0.07326,0.78013,1.02636
150.846,14.55652,-0.07288291,0.78767,1.02463
154.046,14.6581,-0.07190271,0.79561,1.0229
157.246,14.759,-0.07253496,0.8046,1.02116
160.446,14.8597,-0.07360903,0.81146,1.01941
163.646,14.96039,-0.0732766,0.8191,1.01765
166.846,15.0608,-0.07359999,0.83055,1.01589
170.046,15.16104,-0.07367665,0.83966,1.01411
173.246,15.26096,-0.07425,0.84923,1.01233
176.446,15.3605,-0.07424995,0.86218,1.01054
179.646,15.4598,-0.07556921,0.87074,1.00874
182.846,15.5587,-0.07391492,0.88325,1.00694
186.046,15.6571,-0.07622992,0.89149,1.00513
189.246,15.75531,-0.07622551,0.90065,1.00331
192.446,15.8535,-0.07610699,0.9109,1.00148
195.646,15.9512,-0.07742996,0.92133,0.99964
198.846,16.04935,-0.07742762,0.92993,0.9978
202.046,16.14689,-0.07942801,0.93872,0.99595
205.246,16.24434,-0.0788356,0.95105,0.9941
208.446,16.34176,-0.079866,0.9616,0.99223
211.646,16.43928,-0.0810527,0.97165,0.99036
214.846,16.53606,-0.08237002,0.9804,0.98848
218.046,16.63363,-0.08332518,0.99023,0.9866
221.246,16.73065,-0.08500105,1.00005,0.98471
224.446,16.82781,-0.08664401,1.01066,0.98281
227.646,16.92481,-0.08925915,1.02202,0.98091
230.846,17.0217,-0.08916473,1.03331,0.979
234.046,17.1186,-0.0927938,1.0452,0.97708
237.246,17.21535,-0.09554011,1.05822,0.97516
240.446,17.31227,-0.09917772,1.06657,0.97323
243.646,17.4089,-0.10257,1.07763,0.97129
246.846,17.50563,-0.10626,1.09006,0.96935
250.046,17.60219,-0.11095,1.09991,0.9674
253.246,17.69878,-0.11734,1.11373,0.96545
256.446,17.79525,-0.12369,1.12611,0.96349
259.646,17.8917,-0.13053,1.13753,0.96153
262.846,17.9882,-0.13868,1.14487,0.95955
266.046,18.0847,-0.14896,1.15281,0.95758
269.246,18.18085,-0.15934,1.16271,0.95559
272.446,18.27739,-0.17143,1.17173,0.9536
275.646,18.37407,-0.18645,1.17988,0.95161
278.846,18.47056,-0.20398,1.19168,0.94961
282.046,18.5671,-0.222,1.2034,0.94761
285.246,18.6635,-0.24085,1.21386,0.9456
288.446,18.76032,-0.2665,1.22395,0.94358
291.646,18.8569,-0.2944,1.23546,0.94156
294.846,18.95375,-0.32671,1.23971,0.93953
298.046,19.05043,-0.36168,1.24151,0.9375
301.246,19.14676,-0.40316,1.23633,0.93546
304.446,19.24372,-0.44576,1.22746,0.93342
307.646,19.3407,-0.49302,1.2137,0.93138
310.846,19.43751,-0.54286,1.20164,0.92933
314.046,19.53445,-0.59414,1.18808,0.92727
317.246,19.63139,-0.6471,1.1722,0.92521
320.446,19.72855,-0.70303,1.16158,0.92314
323.646,19.82559,-0.75728,1.15912,0.92107
326.846,19.92288,-0.81246,1.15725,0.919
330.046,20.02016,-0.86992,1.1643,0.91692
333.246,20.11737,-0.92843,1.17665,0.91483
336.446,20.2149,-0.988,1.1945,0.91274
339.646,20.3124,-1.05121,1.22034,0.91065
342.846,20.40999,-1.11264,1.25237,0.90855
346.046,20.5078,-1.17881,1.28672,0.90645
349.246,20.6057,-1.24442,1.3279,0.90434
352.446,20.70364,-1.31551,1.37765,0.90223
355.646,20.80181,-1.38659,1.43354,0.90011
358.846,20.90009,-1.46186,1.50054,0.89799
362.046,20.99847,-1.54017,1.57815,0.89587
365.246,21.09702,-1.62423,1.66683,0.89374
368.446,21.19558,-1.71648,1.77085,0.89161
371.646,21.29441,-1.81322,1.88973,0.88947
374.846,21.39336,-1.92007,2.01197,0.88733
378.046,21.49239,-2.03149,2.13256,0.88519
381.246,21.59153,-2.1565,2.23614,0.88304
384.446,21.69079,-2.27844,2.30301,0.88089
387.646,21.79014,-2.41338,2.30621,0.87873
390.846,21.88953,-2.54016,2.21837,0.87657
394.046,21.98884,-2.66667,2.02241,0.87441
397.246,22.08813,-2.77351,1.71098,0.87224
400.446,22.18731,-2.86412,1.31494,0.87007
403.646,22.28614,-2.93038,0.88351,0.86789
406.846,22.3852,-2.97686,0.49188,0.86572
410.046,22.48413,-3.00382,0.1955,0.86353
413.246,22.5832,-3.0204,0.01348629,0.86135
416.446,22.68238,-3.03253,-0.08638074,0.85916
419.646,22.78169,-3.04299,-0.14612,0.85696
422.846,22.88138,-3.05062,-0.18643,0.85477
426.046,22.9812,-3.05858,-0.21913,0.85257
429.246,23.08097,-3.06584,-0.24514,0.85036
432.446,23.1813,-3.07604,-0.26825,0.84816
435.646,23.28135,-3.08352,-0.28374,0.84595
438.846,23.3817,-3.09053,-0.29812,0.84373
442.046,23.48219,-3.10002,-0.30426,0.84152
445.246,23.58287,-3.10798,-0.31146,0.8393
448.446,23.68365,-3.11517,-0.31599,0.83707
451.646,23.7846,-3.12218,-0.31078,0.83485
454.846,23.8855,-3.1286,-0.30101,0.83262
458.046,23.98658,-3.1335,-0.29165,0.83038
461.246,24.0878,-3.14081,-0.27876,0.82815
464.446,24.189,-3.14683,-0.26177,0.82591
467.646,24.29053,-3.15341,-0.24604,0.82366
470.846,24.3921,-3.16016,-0.227,0.82142
474.046,24.49375,-3.16441,-0.21047,0.81917
477.246,24.5956,-3.16921,-0.19317,0.81692
480.446,24.69749,-3.1756,-0.17745,0.81466
483.646,24.79946,-3.17945,-0.16498,0.8124
486.846,24.90136,-3.18386,-0.15018,0.81014
490.046,25.00369,-3.18728,-0.13954,0.80788
493.246,25.10604,-3.19108,-0.13136,0.80561
496.446,25.2082,-3.19563,-0.1224,0.80334
499.646,25.31077,-3.19853,-0.11465,0.80107
502.846,25.41333,-3.20274,-0.10962,0.7988
506.046,25.51594,-3.20601,-0.10701,0.79652
509.246,25.61873,-3.20963,-0.10193,0.79424
512.446,25.72137,-3.21326,-0.09883201,0.79195
515.646,25.82435,-3.21668,-0.09461788,0.78967
518.846,25.927,-3.21937,-0.09677361,0.78738
522.046,26.0301,-3.22323,-0.09142354,0.78509
525.246,26.1331,-3.22586,-0.09078897,0.78279
528.446,26.2363,-3.22782,-0.08916503,0.78049
531.646,26.33939,-3.22991,-0.08315691,0.77819
534.846,26.4426,-3.23349,-0.07781454,0.77589
538.046,26.5458,-3.23712,-0.06829283,0.77359
541.246,26.6492,-3.2394,-0.06919808,0.77128
544.446,26.75272,-3.24145,-0.06600283,0.76897
547.646,26.8563,-3.24459,-0.06029103,0.76666
550.846,26.96002,-3.24714,-0.06155761,0.76434
554.046,27.0637,-3.24978,-0.06076948,0.76202
557.246,27.16747,-3.25253,-0.06338151,0.75971
560.446,27.2714,-3.25515,-0.06312248,0.75738
563.646,27.3754,-3.25729,-0.06336226,0.75506
566.846,27.4795,-3.25976,-0.068205,0.75273
570.046,27.58352,-3.26335,-0.07200583,0.7504
573.246,27.68788,-3.26448,-0.08172695,0.74807
576.446,27.792,-3.2689,-0.09117775,0.74574
579.646,27.89647,-3.26878,-0.09523195,0.7434
582.846,28.0008,-3.27139,-0.10037,0.74106
586.046,28.10528,-3.27398,-0.10696,0.73872
589.246,28.2099,-3.27665,-0.11404,0.73638
592.446,28.31458,-3.27941,-0.11565,0.73403
595.646,28.41935,-3.28071,-0.12212,0.73168
598.846,28.52419,-3.28333,-0.12231,0.72934
602.046,28.629,-3.28564,-0.13206,0.72698
605.246,28.7339,-3.28793,-0.13206,0.72463
608.446,28.83847,-3.28959,-0.13962,0.72227
611.646,28.94378,-3.29086,-0.14503,0.71992
614.846,29.0487,-3.29353,-0.15142,0.71756
618.046,29.15376,-3.29485,-0.151,0.71519
621.246,29.2587,-3.29595,-0.15823,0.71283
624.446,29.36385,-3.2987,-0.15886,0.71047
627.646,29.46913,-3.30011,-0.16284,0.7081
630.846,29.5745,-3.30014,-0.16252,0.70573
634.046,29.6799,-3.30407,-0.17111,0.70336
637.246,29.78544,-3.30538,-0.17697,0.70098
640.446,29.89078,-3.30573,-0.18183,0.69861
643.646,29.99646,-3.30722,-0.18349,0.69623
646.846,30.10202,-3.31098,-0.18737,0.69385
650.046,30.2074,-3.31359,-0.18839,0.69147
653.246,30.31314,-3.31502,-0.19161,0.68909
656.446,30.41896,-3.31493,-0.19333,0.68671
659.646,30.5245,-3.31492,-0.1971,0.68432
662.846,30.6302,-3.31625,-0.19599,0.68194
666.046,30.73586,-3.31886,-0.19833,0.67955
669.246,30.84168,-3.31951,-0.20003,0.67716
672.446,30.9475,-3.32085,-0.19723,0.67477
675.646,31.05335,-3.32178,-0.19579,0.67237
678.846,31.15914,-3.32283,-0.19653,0.66998
682.046,31.26506,-3.32415,-0.19496,0.66758
685.246,31.37105,-3.32546,-0.19215,0.66519
688.446,31.47703,-3.32469,-0.19032,0.66279
691.646,31.58295,-3.32651,-0.19074,0.66039
694.846,31.689,-3.32778,-0.19084,0.65799
698.046,31.79481,-3.3304,-0.19058,0.65558
701.246,31.90093,-3.33114,-0.18993,0.65318
704.446,32.00703,-3.33171,-0.18962,0.65078
707.646,32.11335,-3.33187,-0.18483,0.64837
710.846,32.21966,-3.33435,-0.18512,0.64596
714.046,32.326,-3.33468,-0.18096,0.64355
717.246,32.43241,-3.33486,-0.1813,0.64114
720.446,32.5388,-3.33599,-0.17836,0.63873
723.646,32.64546,-3.33599,-0.17478,0.63632
726.846,32.75212,-3.3373,-0.18063,0.63391
730.046,32.85906,-3.33862,-0.17939,0.6315
733.246,32.96581,-3.33957,-0.176,0.62908
736.446,33.0728,-3.3396,-0.18217,0.62667
739.646,33.17974,-3.34158,-0.18392,0.62425
742.846,33.28663,-3.34028,-0.17861,0.62183
746.046,33.3938,-3.34026,-0.1765,0.61942
749.246,33.50088,-3.34157,-0.17623,0.617
752.446,33.6079,-3.3429,-0.17193,0.61458
755.646,33.71498,-3.34353,-0.17024,0.61216
758.846,33.8221,-3.34454,-0.16686,0.60974
762.046,33.92907,-3.34587,-0.15991,0.60732
765.246,34.03644,-3.34586,-0.16554,0.6049
768.446,34.14365,-3.34777,-0.16423,0.60248
771.646,34.25088,-3.34684,-0.16361,0.60005
774.846,34.35823,-3.34689,-0.16043,0.59763
778.046,34.46553,-3.34943,-0.15984,0.59521
781.246,34.57288,-3.35202,-0.16296,0.59279
784.446,34.6803,-3.35222,-0.1606,0.59036
787.646,34.7877,-3.35356,-0.15653,0.58794
790.846,34.89506,-3.35453,-0.1589,0.58552
793.946,34.9993,-3.35453,-0.15691,0.58317

File: Pallet_Wood_STA_N2_30KData_220413_R2.csv
##Temp./Â°C,Time/min,Mass loss(subtr.2)/mg,DSC(subtr.2)/(mW/mg),Sensit./(uV/mW)
48.381,10.01,-0.00197,0.006861651,1.07511
51.681,10.8917,-0.001241795,0.14681,1.07365
54.981,11.1285,0.0004073202,0.24776,1.07218
58.281,11.311,0.00261254,0.32837,1.0707
61.581,11.46865,-0.00103991,0.39787,1.06921
64.881,11.61223,-0.0008035905,0.45664,1.0677
68.181,11.74686,-0.001712525,0.50823,1.06618
71.481,11.8758,-0.0005055091,0.55513,1.06466
74.781,12.0007,-0.00167519,0.59668,1.06311
78.081,12.12242,-0.002757822,0.638,1.06156
81.381,12.24167,-0.003667205,0.67619,1.06
84.681,12.359,-0.003638418,0.7099,1.05842
87.981,12.47487,-0.005874383,0.73779,1.05684
91.281,12.58918,-0.00811955,0.76387,1.05524
94.581,12.7026,-0.009281132,0.78487,1.05363
97.881,12.81533,-0.009506308,0.80107,1.05201
101.181,12.9272,-0.01207716,0.80766,1.05038
104.481,13.0389,-0.01338778,0.8092,1.04874
107.781,13.1502,-0.01336856,0.80423,1.04709
111.081,13.2611,-0.01601278,0.79585,1.04543
114.381,13.37159,-0.01875279,0.78725,1.04376
117.681,13.4817,-0.01864001,0.77467,1.04207
120.981,13.59141,-0.01873196,0.76108,1.04038
124.281,13.7006,-0.01864,0.75244,1.03868
127.581,13.80911,-0.01864,0.74592,1.03697
130.881,13.917,-0.01862009,0.74272,1.03525
134.181,14.02413,-0.01831346,0.74151,1.03352
137.481,14.1308,-0.01863973,0.741,1.03178
140.781,14.2371,-0.01597954,0.74431,1.03003
144.081,14.3429,-0.01601,0.75089,1.02827
147.381,14.44805,-0.01620343,0.7554,1.0265
150.681,14.5531,-0.01965905,0.76425,1.02472
153.981,14.65754,-0.02138013,0.77411,1.02293
157.281,14.7619,-0.02137024,0.78416,1.02114
160.581,14.86602,-0.01827165,0.79443,1.01933
163.881,14.96941,-0.01539031,0.80369,1.01752
167.181,15.0732,-0.01443066,0.8122,1.0157
170.481,15.17614,-0.01938085,0.82572,1.01387
173.781,15.2791,-0.01799422,0.83468,1.01203
177.081,15.38168,-0.0192801,0.84882,1.01018
180.381,15.4841,-0.02171816,0.85993,1.00833
183.681,15.58585,-0.02039003,0.86977,1.00647
186.981,15.68725,-0.01940933,0.87922,1.00459
190.281,15.78844,-0.01815919,0.8914,1.00272
193.581,15.88959,-0.01810052,0.90412,1.00083
196.881,15.99054,-0.01809,0.9136,0.99893
200.181,16.091,-0.01941015,0.92308,0.99703
203.481,16.19158,-0.0207199,0.93543,0.99512
206.781,16.2923,-0.02072006,0.94734,0.9932
210.081,16.3928,-0.02204048,0.95654,0.99128
213.381,16.49315,-0.02336681,0.96595,0.98935
216.681,16.59347,-0.02383161,0.9795,0.98741
219.981,16.69377,-0.02533385,0.99162,0.98546
223.281,16.79381,-0.0256583,1.00187,0.9835
226.581,16.8933,-0.02801628,1.0145,0.98154
229.881,16.99403,-0.03069326,1.02798,0.97958
233.181,17.09371,-0.03262272,1.0412,0.9776
236.481,17.19355,-0.03592303,1.05859,0.97562
239.781,17.2934,-0.0400475,1.07303,0.97363
243.081,17.39322,-0.04227461,1.08451,0.97164
246.381,17.49298,-0.04617389,1.09813,0.96963
249.681,17.5928,-0.0516337,1.1128,0.96763
252.981,17.69246,-0.05729263,1.12456,0.96561
256.281,17.79196,-0.06153248,1.1371,0.96359
259.581,17.8915,-0.06961181,1.15055,0.96157
262.881,17.99085,-0.07816399,1.15984,0.95953
266.181,18.0905,-0.08901573,1.17051,0.95749
269.481,18.1901,-0.09927093,1.1795,0.95545
272.781,18.28947,-0.11096,1.18932,0.9534
276.081,18.3891,-0.12634,1.19732,0.95134
279.381,18.48842,-0.13998,1.21197,0.94928
282.681,18.58822,-0.158,1.22657,0.94721
285.981,18.68781,-0.18158,1.2413,0.94513
289.281,18.78751,-0.20789,1.25666,0.94305
292.581,18.88721,-0.23901,1.27093,0.94097
295.881,18.98711,-0.27409,1.28097,0.93888
299.181,19.08679,-0.30951,1.28485,0.93678
302.481,19.18664,-0.34972,1.28299,0.93468
305.781,19.28631,-0.39315,1.27856,0.93257
309.081,19.3864,-0.44472,1.2683,0.93046
312.381,19.48641,-0.49355,1.25826,0.92834
315.681,19.58625,-0.54576,1.25073,0.92622
318.981,19.68618,-0.59863,1.24446,0.92409
322.281,19.78642,-0.6533,1.24076,0.92195
325.581,19.88682,-0.70636,1.24227,0.91982
328.881,19.98715,-0.76677,1.25193,0.91767
332.181,20.0875,-0.82321,1.26706,0.91553
335.481,20.1882,-0.8825,1.29043,0.91337
338.781,20.28885,-0.94315,1.3191,0.91121
342.081,20.3893,-1.00711,1.35448,0.90905
345.381,20.49042,-1.06937,1.39524,0.90688
348.681,20.59145,-1.13716,1.44246,0.90471
351.981,20.69249,-1.20367,1.49997,0.90254
355.281,20.79372,-1.27659,1.55946,0.90035
358.581,20.89525,-1.34963,1.63507,0.89817
361.881,20.99685,-1.4309,1.71455,0.89598
365.181,21.0984,-1.51381,1.80729,0.89378
368.481,21.2002,-1.60322,1.92177,0.89159
371.781,21.302,-1.69905,2.04685,0.88938
375.081,21.404,-1.80305,2.18181,0.88718
378.381,21.50605,-1.91923,2.31286,0.88496
381.681,21.60812,-2.03659,2.42399,0.88275
384.981,21.71059,-2.16703,2.49445,0.88053
388.281,21.81302,-2.29481,2.49318,0.8783
391.581,21.91555,-2.42489,2.39544,0.87607
394.881,22.01811,-2.54323,2.17705,0.87384
398.181,22.12046,-2.6497,1.83664,0.87161
401.481,22.2226,-2.7363,1.41246,0.86937
404.781,22.32496,-2.79784,0.96573,0.86712
408.081,22.42691,-2.8373,0.58189,0.86487
411.381,22.52915,-2.85837,0.31407,0.86262
414.681,22.63125,-2.87064,0.163,0.86037
417.981,22.73367,-2.88092,0.07703838,0.85811
421.281,22.8364,-2.88975,0.02667965,0.85584
424.581,22.9392,-2.89903,-0.008413211,0.85358
427.881,23.0422,-2.9086,-0.03470518,0.8513
431.181,23.14556,-2.91381,-0.05922588,0.84903
434.481,23.24879,-2.92442,-0.08036074,0.84675
437.781,23.35229,-2.93129,-0.09654436,0.84447
441.081,23.45605,-2.93828,-0.11257,0.84218
444.381,23.55985,-2.94527,-0.1186,0.8399
447.681,23.66374,-2.95078,-0.1211,0.8376
450.981,23.768,-2.95771,-0.11939,0.83531
454.281,23.87206,-2.96522,-0.11677,0.83301
457.581,23.97643,-2.97192,-0.10434,0.83071
460.881,24.08061,-2.97933,-0.09465384,0.8284
464.181,24.18546,-2.98472,-0.07904737,0.82609
467.481,24.2901,-2.99093,-0.06076199,0.82378
470.781,24.39494,-2.99733,-0.04777326,0.82146
474.081,24.4998,-3.0008,-0.02961964,0.81914
477.381,24.60476,-3.00672,-0.01261804,0.81682
480.681,24.70978,-3.01176,0.00283316,0.8145
483.981,24.81506,-3.01467,0.01291166,0.81217
487.281,24.92034,-3.01629,0.02229441,0.80984
490.581,25.02559,-3.02147,0.03094369,0.8075
493.881,25.13102,-3.02326,0.03898506,0.80516
497.181,25.23678,-3.02954,0.04446113,0.80282
500.481,25.34225,-3.03501,0.04966454,0.80048
503.781,25.448,-3.03917,0.05288974,0.79813
507.081,25.55377,-3.04067,0.05305146,0.79578
510.381,25.6595,-3.0434,0.05769419,0.79343
513.681,25.7655,-3.04817,0.06026391,0.79107
516.981,25.8716,-3.05133,0.06439191,0.78871
520.281,25.97766,-3.05258,0.06420815,0.78635
523.581,26.08354,-3.05631,0.06750404,0.78399
526.881,26.18981,-3.0598,0.06726941,0.78162
530.181,26.29624,-3.0616,0.07465695,0.77925
533.481,26.40267,-3.06451,0.08368106,0.77687
536.781,26.509,-3.06782,0.08925598,0.7745
540.081,26.61583,-3.07066,0.09438936,0.77212
543.381,26.7224,-3.06927,0.09816537,0.76974
546.681,26.82923,-3.07506,0.09705443,0.76735
549.981,26.93618,-3.07833,0.09635128,0.76497
553.281,27.0431,-3.07965,0.09351062,0.76258
556.581,27.15018,-3.0836,0.09245664,0.76019
559.881,27.25713,-3.08489,0.09042457,0.75779
563.181,27.36419,-3.08845,0.08451759,0.7554
566.481,27.4716,-3.08875,0.07686283,0.753
569.781,27.57886,-3.08986,0.06858636,0.75059
573.081,27.68615,-3.09384,0.05905761,0.74819
576.381,27.7937,-3.09508,0.05462081,0.74578
579.681,27.90121,-3.09647,0.04568681,0.74337
582.981,28.00887,-3.09699,0.04258128,0.74096
586.281,28.1165,-3.1016,0.03912519,0.73855
589.581,28.2245,-3.1046,0.03377768,0.73613
592.881,28.3324,-3.10765,0.03069392,0.73371
596.181,28.4403,-3.11125,0.0257101,0.73129
599.481,28.54842,-3.10992,0.02633567,0.72887
602.781,28.6565,-3.11114,0.02251859,0.72644
606.081,28.76468,-3.11386,0.02159904,0.72402
609.381,28.873,-3.11519,0.01338874,0.72159
612.681,28.98118,-3.1165,0.01042819,0.71915
615.981,29.08946,-3.11875,0.007485979,0.71672
619.281,29.19796,-3.12169,0.00136758,0.71428
622.581,29.30616,-3.12298,-0.005028106,0.71184
625.881,29.41468,-3.12435,-0.008037215,0.7094
629.181,29.52303,-3.12572,-0.01365472,0.70696
632.481,29.63164,-3.12573,-0.01854239,0.70452
635.781,29.74,-3.12835,-0.02239325,0.70207
639.081,29.84842,-3.12835,-0.02577348,0.69962
642.381,29.95706,-3.12967,-0.03222894,0.69717
645.681,30.0655,-3.13093,-0.03341922,0.69472
648.981,30.1744,-3.13361,-0.03533275,0.69227
652.281,30.28313,-3.13493,-0.03975428,0.68981
655.581,30.3919,-3.13625,-0.04338932,0.68735
658.881,30.5007,-3.13888,-0.04485801,0.68489
662.181,30.6096,-3.13758,-0.04777619,0.68243
665.481,30.71872,-3.14085,-0.05262177,0.67997
668.781,30.82767,-3.14427,-0.05349489,0.67751
672.081,30.9368,-3.14425,-0.05876166,0.67504
675.381,31.0458,-3.14425,-0.05997602,0.67257
678.681,31.1552,-3.14557,-0.06430736,0.6701
681.981,31.2644,-3.14428,-0.0680889,0.66763
685.281,31.3738,-3.14569,-0.06777762,0.66516
688.581,31.48333,-3.14585,-0.07321562,0.66269
691.881,31.5928,-3.14689,-0.07834059,0.66021
695.181,31.7021,-3.1483,-0.07753351,0.65774
698.481,31.8119,-3.14966,-0.07854159,0.65526
701.781,31.9215,-3.15194,-0.07925802,0.65278
705.081,32.03133,-3.1493,-0.08274708,0.6503
708.381,32.14123,-3.14995,-0.08587142,0.64782
711.681,32.2511,-3.14996,-0.08352091,0.64533
714.981,32.36099,-3.15127,-0.08746268,0.64285
718.281,32.47105,-3.15257,-0.08853409,0.64036
721.581,32.58097,-3.15358,-0.0905497,0.63788
724.881,32.69102,-3.15495,-0.09131697,0.63539
728.181,32.8011,-3.15622,-0.09856069,0.6329
731.481,32.9112,-3.15556,-0.09867855,0.63041
734.781,33.02151,-3.15562,-0.10374,0.62792
738.081,33.13172,-3.15721,-0.10457,0.62543
741.381,33.24207,-3.1572,-0.11012,0.62294
744.681,33.35253,-3.1572,-0.11185,0.62045
747.981,33.4629,-3.1581,-0.11686,0.61795
751.281,33.57345,-3.15853,-0.11872,0.61546
754.581,33.68365,-3.15979,-0.11879,0.61297
757.881,33.79423,-3.16021,-0.11626,0.61047
761.181,33.90484,-3.16238,-0.1201,0.60797
764.481,34.01522,-3.16378,-0.12646,0.60548
767.781,34.12575,-3.16238,-0.12904,0.60298
771.081,34.2363,-3.16247,-0.12996,0.60048
774.381,34.3468,-3.16368,-0.1341,0.59798
777.681,34.4574,-3.16646,-0.1363,0.59549
780.981,34.56793,-3.16644,-0.13933,0.59299
784.281,34.67864,-3.16642,-0.14153,0.59049
787.581,34.78918,-3.16773,-0.14464,0.58799
790.881,34.8999,-3.16773,-0.14256,0.58549
793.781,34.99765,-3.16641,-0.14251,0.58329