Folder: fsri_materials_database/01_Data/Pallet_Wood/STA/N2/30K_min (part 2)

File: Pallet_Wood_STA_N2_30KData_220414_R3.csv
##Temp./Â°C,Time/min,Mass loss(subtr.2)/mg,DSC(subtr.2)/(mW/mg),Sensit./(uV/mW)
48.503,10.01,-0.01459,0.01929045,1.07506
51.703,10.8856,-0.01545053,0.1902,1.07364
54.903,11.1191,-0.01351391,0.29916,1.07222
58.103,11.2989,-0.0141103,0.39133,1.07078
61.303,11.45433,-0.01418382,0.46629,1.06933
64.503,11.59587,-0.014794,0.5343,1.06788
67.703,11.72837,-0.01604367,0.5923,1.06641
70.903,11.8546,-0.01617094,0.64707,1.06492
74.103,11.97665,-0.0156028,0.69522,1.06343
77.303,12.09583,-0.01666412,0.74245,1.06193
80.503,12.2122,-0.01696511,0.78573,1.06042
83.703,12.3268,-0.01850614,0.82665,1.05889
86.903,12.4391,-0.02038564,0.8644,1.05736
90.103,12.54994,-0.02171986,0.89738,1.05581
93.303,12.66037,-0.02303085,0.92927,1.05425
96.503,12.76934,-0.02665257,0.95087,1.05269
99.703,12.878,-0.02664965,0.96968,1.05111
102.903,12.98598,-0.0280185,0.97858,1.04953
106.103,13.09339,-0.02890652,0.9823,1.04793
109.303,13.20101,-0.03191978,0.98163,1.04632
112.503,13.3081,-0.03323013,0.97645,1.04471
115.703,13.4143,-0.03324356,0.96823,1.04308
118.903,13.5213,-0.0332333,0.96078,1.04145
122.103,13.6273,-0.03331791,0.95389,1.03981
125.303,13.73221,-0.03290827,0.94639,1.03815
128.503,13.8372,-0.03291,0.94472,1.03649
131.703,13.94145,-0.03291705,0.94587,1.03482
134.903,14.04531,-0.03422119,0.94844,1.03314
138.103,14.14836,-0.03324,0.95297,1.03145
141.303,14.2512,-0.03456032,0.96106,1.02975
144.503,14.35329,-0.03718789,0.97202,1.02804
147.703,14.4553,-0.03718,0.98366,1.02633
150.903,14.55675,-0.03602571,0.99512,1.0246
154.103,14.65829,-0.03586767,1.00559,1.02287
157.303,14.7592,-0.03588104,1.01642,1.02113
160.503,14.85985,-0.03586904,1.0308,1.01938
163.703,14.9602,-0.03388747,1.04215,1.01762
166.903,15.0606,-0.03488275,1.05423,1.01585
170.103,15.16024,-0.0362,1.06829,1.01408
173.303,15.2605,-0.03689902,1.0797,1.0123
176.503,15.3597,-0.03751104,1.09012,1.01051
179.703,15.4589,-0.03619,1.10661,1.00871
182.903,15.5577,-0.03619102,1.11969,1.00691
186.103,15.65625,-0.03850525,1.1311,1.00509
189.303,15.7545,-0.0385,1.14478,1.00327
192.503,15.85244,-0.03843045,1.15809,1.00145
195.703,15.9503,-0.03784002,1.17468,0.99961
198.903,16.0481,-0.03814033,1.18711,0.99777
202.103,16.14551,-0.03847465,1.20062,0.99592
205.303,16.24332,-0.0394993,1.21042,0.99406
208.503,16.34062,-0.04151157,1.22598,0.9922
211.703,16.43799,-0.04212,1.23985,0.99033
214.903,16.53536,-0.04211815,1.25152,0.98845
218.103,16.63265,-0.04212824,1.26521,0.98657
221.303,16.72982,-0.04355187,1.27949,0.98468
224.503,16.8266,-0.04487219,1.29294,0.98278
227.703,16.92376,-0.04649754,1.30469,0.98088
230.903,17.02042,-0.04855798,1.32103,0.97896
234.103,17.11737,-0.05177215,1.33617,0.97705
237.303,17.2143,-0.05662849,1.34983,0.97512
240.503,17.3111,-0.05768832,1.36376,0.9732
243.703,17.40802,-0.06042816,1.37572,0.97126
246.903,17.50476,-0.06490774,1.38654,0.96932
250.103,17.60142,-0.07162504,1.39762,0.96737
253.303,17.6981,-0.07453203,1.41147,0.96542
256.503,17.7947,-0.07911985,1.42138,0.96346
259.703,17.89124,-0.08731177,1.43667,0.96149
262.903,17.98777,-0.09731281,1.44505,0.95952
266.103,18.0842,-0.10771,1.45554,0.95754
269.303,18.1807,-0.11815,1.46638,0.95556
272.503,18.2774,-0.132,1.47469,0.95357
275.703,18.37381,-0.14272,1.48399,0.95158
278.903,18.47028,-0.15594,1.49732,0.94958
282.103,18.56664,-0.17384,1.50946,0.94757
285.303,18.66319,-0.19636,1.52455,0.94556
288.503,18.76016,-0.22161,1.53835,0.94354
291.703,18.85683,-0.24755,1.55109,0.94152
294.903,18.95362,-0.28107,1.55941,0.9395
298.103,19.05037,-0.31514,1.55903,0.93747
301.303,19.14728,-0.3566,1.55602,0.93543
304.503,19.2442,-0.39731,1.54512,0.93339
307.703,19.34103,-0.44413,1.53602,0.93134
310.903,19.43788,-0.49573,1.52435,0.92929
314.103,19.5349,-0.5425,1.51158,0.92723
317.303,19.63158,-0.59486,1.50087,0.92517
320.503,19.72888,-0.64919,1.49643,0.9231
323.703,19.82605,-0.7003,1.48976,0.92103
326.903,19.92343,-0.75637,1.49042,0.91896
330.103,20.0209,-0.81044,1.49677,0.91688
333.303,20.11778,-0.86874,1.51432,0.91479
336.503,20.2159,-0.9268,1.53118,0.9127
339.703,20.31325,-0.98631,1.55472,0.91061
342.903,20.41116,-1.04712,1.58861,0.90851
346.103,20.50924,-1.11163,1.62731,0.90641
349.303,20.60732,-1.17907,1.66575,0.9043
352.503,20.70559,-1.24647,1.71552,0.90219
355.703,20.80385,-1.31685,1.76992,0.90008
358.903,20.9023,-1.39041,1.83583,0.89796
362.103,21.00074,-1.46852,1.91353,0.89583
365.303,21.0993,-1.5491,2.00115,0.8937
368.503,21.1982,-1.63984,2.1058,0.89157
371.703,21.29707,-1.73179,2.22427,0.88943
374.903,21.39625,-1.83692,2.34707,0.88729
378.103,21.49558,-1.94465,2.47045,0.88515
381.303,21.59487,-2.06397,2.58026,0.883
384.503,21.69444,-2.18589,2.65185,0.88085
387.703,21.7938,-2.31624,2.66338,0.87869
390.903,21.89323,-2.44247,2.58574,0.87653
394.103,21.99271,-2.56448,2.39624,0.87437
397.303,22.09175,-2.67126,2.08777,0.8722
400.503,22.19114,-2.76015,1.68469,0.87003
403.703,22.29019,-2.82692,1.24912,0.86786
406.903,22.3892,-2.87113,0.84256,0.86568
410.103,22.48801,-2.8984,0.53664,0.86349
413.303,22.58709,-2.91541,0.34434,0.86131
416.503,22.6864,-2.92706,0.23624,0.85912
419.703,22.78578,-2.93704,0.17324,0.85693
422.903,22.8852,-2.94645,0.13359,0.85473
426.103,22.98525,-2.95342,0.09961269,0.85253
429.303,23.08509,-2.96174,0.07277707,0.85032
432.503,23.18532,-2.96776,0.05167211,0.84812
435.703,23.28546,-2.97393,0.03740255,0.84591
438.903,23.38583,-2.98512,0.0243155,0.84369
442.103,23.48635,-2.99544,0.01571921,0.84148
445.303,23.587,-2.99571,0.00957903,0.83926
448.503,23.68787,-3.00262,0.009565469,0.83703
451.703,23.78886,-3.01277,0.0128803,0.83481
454.903,23.8897,-3.0193,0.01823695,0.83258
458.103,23.9908,-3.02363,0.03008089,0.83034
461.303,24.09219,-3.0305,0.04529529,0.82811
464.503,24.1936,-3.03664,0.05849297,0.82587
467.703,24.29512,-3.04087,0.07527168,0.82362
470.903,24.39663,-3.04663,0.09034363,0.82138
474.103,24.4981,-3.05408,0.11104,0.81913
477.303,24.60008,-3.05794,0.12534,0.81688
480.503,24.70172,-3.06231,0.14152,0.81462
483.703,24.80365,-3.06693,0.1548,0.81236
486.903,24.90564,-3.06995,0.16229,0.8101
490.103,25.00769,-3.07509,0.17552,0.80784
493.303,25.10987,-3.07976,0.1809,0.80557
496.503,25.21162,-3.08225,0.19178,0.8033
499.703,25.31435,-3.08667,0.19378,0.80103
502.903,25.41655,-3.08796,0.20089,0.79875
506.103,25.51921,-3.09061,0.20311,0.79648
509.303,25.6216,-3.09503,0.20774,0.7942
512.503,25.72436,-3.09906,0.20988,0.79191
515.703,25.8271,-3.1017,0.20995,0.78963
518.903,25.9301,-3.10313,0.21072,0.78734
522.103,26.03288,-3.1056,0.2132,0.78504
525.303,26.1358,-3.10839,0.21637,0.78275
528.503,26.2389,-3.11059,0.21987,0.78045
531.703,26.342,-3.11394,0.23051,0.77815
534.903,26.445,-3.11754,0.23835,0.77585
538.103,26.5482,-3.11957,0.24572,0.77355
541.303,26.65147,-3.12305,0.25212,0.77124
544.503,26.75478,-3.1256,0.25321,0.76893
547.703,26.8583,-3.12745,0.25307,0.76662
550.903,26.96175,-3.12898,0.2569,0.7643
554.103,27.06543,-3.13214,0.25719,0.76198
557.303,27.16897,-3.13378,0.25631,0.75966
560.503,27.27249,-3.13751,0.25528,0.75734
563.703,27.3768,-3.13871,0.25667,0.75502
566.903,27.48074,-3.14021,0.2568,0.75269
570.103,27.58482,-3.14309,0.25272,0.75036
573.303,27.689,-3.1458,0.24554,0.74803
576.503,27.79327,-3.1474,0.23873,0.74569
579.703,27.89767,-3.14877,0.23487,0.74336
582.903,28.00222,-3.1514,0.23004,0.74102
586.103,28.1068,-3.15139,0.22556,0.73868
589.303,28.21153,-3.15533,0.22388,0.73634
592.503,28.3163,-3.15806,0.22463,0.73399
595.703,28.42091,-3.15823,0.21705,0.73164
598.903,28.52613,-3.16094,0.21564,0.72929
602.103,28.6307,-3.16224,0.21243,0.72694
605.303,28.736,-3.16469,0.20723,0.72459
608.503,28.841,-3.1662,0.20451,0.72223
611.703,28.946,-3.16753,0.20025,0.71987
614.903,29.05097,-3.16982,0.197,0.71751
618.103,29.15615,-3.16978,0.18894,0.71515
621.303,29.26152,-3.17143,0.18428,0.71279
624.503,29.3666,-3.17765,0.17706,0.71042
627.703,29.47213,-3.17756,0.1722,0.70806
630.903,29.5775,-3.18313,0.167,0.70569
634.103,29.683,-3.18573,0.16259,0.70331
637.303,29.78833,-3.18507,0.15561,0.70094
640.503,29.89378,-3.18408,0.1446,0.69857
643.703,29.9994,-3.18803,0.14221,0.69619
646.903,30.10486,-3.18902,0.13711,0.69381
650.103,30.21043,-3.18803,0.12955,0.69143
653.303,30.31602,-3.18803,0.12684,0.68905
656.503,30.4216,-3.18976,0.11967,0.68667
659.703,30.52703,-3.19214,0.12179,0.68428
662.903,30.63281,-3.19243,0.11556,0.68189
666.103,30.7382,-3.19492,0.11276,0.67951
669.303,30.84427,-3.19577,0.11153,0.67712
672.503,30.9499,-3.19604,0.10858,0.67472
675.703,31.0556,-3.19472,0.10801,0.67233
678.903,31.16126,-3.19746,0.11065,0.66994
682.103,31.26708,-3.19854,0.10768,0.66754
685.303,31.37268,-3.19937,0.10527,0.66514
688.503,31.4787,-3.20141,0.10235,0.66274
691.703,31.5847,-3.20048,0.10415,0.66034
694.903,31.69073,-3.20174,0.10073,0.65794
698.103,31.79676,-3.20305,0.10094,0.65554
701.303,31.9029,-3.20305,0.0981605,0.65314
704.503,32.00871,-3.20338,0.09926386,0.65073
707.703,32.11547,-3.20337,0.09817065,0.64833
710.903,32.2219,-3.20293,0.09847671,0.64592
714.103,32.32833,-3.20415,0.09584812,0.64351
717.303,32.4345,-3.20448,0.09579905,0.6411
720.503,32.541,-3.2058,0.08863299,0.63869
723.703,32.64798,-3.20711,0.09296336,0.63628
726.903,32.7547,-3.20843,0.09331263,0.63387
730.103,32.86128,-3.20804,0.09263554,0.63145
733.303,32.96825,-3.2081,0.09267255,0.62904
736.503,33.0751,-3.20817,0.08838914,0.62662
739.703,33.18177,-3.21075,0.08850638,0.62421
742.903,33.28898,-3.21205,0.08061638,0.62179
746.103,33.3959,-3.21335,0.08579254,0.61937
749.303,33.50291,-3.21339,0.08209352,0.61696
752.503,33.61003,-3.21469,0.08390599,0.61454
755.703,33.71733,-3.21333,0.08188187,0.61212
758.903,33.82431,-3.21337,0.07609763,0.6097
762.103,33.93173,-3.21436,0.07221765,0.60728
765.303,34.0389,-3.21304,0.07360697,0.60486
768.503,34.1462,-3.21616,0.07400281,0.60243
771.703,34.25343,-3.21918,0.07008973,0.60001
774.903,34.3606,-3.21682,0.06814302,0.59759
778.103,34.4678,-3.21556,0.06760417,0.59517
781.303,34.57517,-3.21687,0.06834641,0.59274
784.503,34.68242,-3.21819,0.06499041,0.59032
787.703,34.78969,-3.21819,0.06563912,0.5879
790.903,34.89718,-3.22082,0.06421789,0.58547
793.903,34.9979,-3.22083,0.06041337,0.5832