Folder: fsri_materials_database/01_Data/Pallet_Wood/STA/N2/3K_min

Note: 01_Data/README.md
# Materials and Products Database
## 01_Data

Raw data generated from each apparatus are included here in plain-text format. The data is organized first by material, next by the short name of test apparatus used, and where applicable additional filtering by test settings.

### material.json

Each material directory contains a json file of the same name as the material. This file links the data stored in the repository as well as data and graphs produced by the accompanying scripts (__02_Scripts__) to the respective landing page for the material on the front-end website.

File: Pallet_Wood_STA_N2_3KData_220412_R1.csv
##Temp./Â°C,Time/min,Mass loss(subtr.2)/mg,DSC(subtr.2)/(mW/mg),Sensit./(uV/mW)
50.236,10.0158,-0.02917,0.01875152,1.05031
53.436,12.3103,-0.03093762,0.06340603,1.04974
56.636,13.52085,-0.0322458,0.071567,1.04915
59.836,14.66252,-0.03535709,0.07733163,1.04855
63.036,15.77165,-0.03746426,0.0803776,1.04793
66.236,16.85955,-0.03906325,0.08328178,1.04729
69.436,17.93909,-0.04114053,0.08328597,1.04664
72.636,19.0171,-0.04315858,0.0788856,1.04597
75.836,20.0888,-0.0458371,0.08063162,1.04528
79.036,21.15629,-0.04716587,0.07992033,1.04458
82.236,22.2242,-0.0474432,0.07653212,1.04386
85.436,23.2961,-0.04808991,0.07006948,1.04313
88.636,24.36392,-0.04903547,0.06855177,1.04238
91.836,25.42635,-0.04903,0.06713747,1.04161
95.036,26.4902,-0.05034008,0.06473865,1.04083
98.236,27.5492,-0.04934974,0.06306242,1.04003
101.436,28.604,-0.04902824,0.06311294,1.03921
104.636,29.6629,-0.04916424,0.06415279,1.03838
107.836,30.72288,-0.04934874,0.06254075,1.03753
111.036,31.78077,-0.0487968,0.0663009,1.03667
114.236,32.83842,-0.04834473,0.06638686,1.03578
117.436,33.89304,-0.04969,0.06450448,1.03489
120.636,34.9456,-0.04941262,0.06764129,1.03398
123.836,35.99852,-0.05033947,0.06876977,1.03305
127.036,37.0533,-0.0501607,0.06962652,1.0321
130.236,38.1059,-0.04936025,0.07034605,1.03114
133.436,39.15692,-0.04969,0.07159744,1.03016
136.636,40.2089,-0.05066306,0.0737593,1.02917
139.836,41.25727,-0.04935952,0.07323238,1.02816
143.036,42.3056,-0.05100291,0.07540741,1.02713
146.236,43.35747,-0.04953445,0.07765758,1.02609
149.436,44.40387,-0.04971393,0.07766038,1.02503
152.636,45.45243,-0.05002258,0.07784991,1.02396
155.836,46.49961,-0.05034077,0.08062877,1.02287
159.036,47.54128,-0.05012094,0.08259525,1.02176
162.236,48.5916,-0.04969,0.08388396,1.02064
165.436,49.63793,-0.05103148,0.08664459,1.0195
168.636,50.6813,-0.05198965,0.08810236,1.01834
171.836,51.72445,-0.05134001,0.087188,1.01717
175.036,52.76865,-0.05067505,0.08757681,1.01599
178.236,53.8154,-0.05265,0.09360686,1.01479
181.436,54.8571,-0.05222734,0.09511343,1.01357
184.636,55.89921,-0.05296935,0.09519755,1.01233
187.836,56.9418,-0.05442939,0.09906815,1.01108
191.036,57.98409,-0.0563207,0.10134,1.00982
194.236,59.02274,-0.05735733,0.10371,1.00853
197.436,60.0611,-0.05922888,0.10606,1.00724
200.636,61.0987,-0.06119148,0.11028,1.00592
203.836,62.13726,-0.06450023,0.11093,1.00459
207.036,63.1751,-0.06646883,0.11515,1.00325
210.236,64.21562,-0.06910149,0.11569,1.00189
213.436,65.26307,-0.07369962,0.1158,1.00051
216.636,66.30519,-0.07859075,0.12246,0.99912
219.836,67.3382,-0.08423702,0.12471,0.99771
223.036,68.37657,-0.09059216,0.12706,0.99629
226.236,69.41639,-0.09937729,0.13203,0.99485
229.436,70.4584,-0.10787,0.1369,0.9934
232.636,71.49811,-0.11811,0.14216,0.99193
235.836,72.53862,-0.1303,0.13849,0.99044
239.036,73.577,-0.14676,0.13592,0.98894
242.236,74.61755,-0.16527,0.14134,0.98743
245.436,75.65555,-0.18331,0.14439,0.9859
248.636,76.69721,-0.20766,0.14596,0.98435
251.836,77.735,-0.23425,0.15222,0.98279
255.036,78.773,-0.26504,0.15804,0.98121
258.236,79.81064,-0.30126,0.16096,0.97962
261.436,80.85427,-0.34334,0.16219,0.97801
264.636,81.8926,-0.38836,0.16966,0.97639
267.836,82.929,-0.43511,0.17221,0.97475
271.036,83.96724,-0.48501,0.17029,0.9731
274.236,85.00901,-0.53737,0.17213,0.97143
277.436,86.0507,-0.59165,0.17041,0.96974
280.636,87.0885,-0.64583,0.17627,0.96805
283.836,88.1257,-0.70193,0.17743,0.96633
287.036,89.16695,-0.75733,0.1807,0.96461
290.236,90.20697,-0.81762,0.18506,0.96286
293.436,91.24802,-0.87634,0.19155,0.96111
296.636,92.28695,-0.93782,0.19556,0.95934
299.836,93.33197,-0.99986,0.19629,0.95755
303.036,94.37411,-1.06454,0.20809,0.95575
306.236,95.4113,-1.13202,0.2173,0.95393
309.436,96.45554,-1.20357,0.2215,0.9521
312.636,97.49937,-1.27446,0.23299,0.95026
315.836,98.54618,-1.35086,0.24419,0.9484
319.036,99.59085,-1.43214,0.25852,0.94653
322.236,100.633,-1.51938,0.2731,0.94464
325.436,101.678,-1.61141,0.2912,0.94274
328.636,102.724,-1.71284,0.30602,0.94082
331.836,103.772,-1.82404,0.32935,0.93889
335.036,104.822,-1.94369,0.34884,0.93695
338.236,105.874,-2.07712,0.3723,0.93499
341.436,106.915,-2.21657,0.389,0.93302
344.636,107.963,-2.3663,0.39351,0.93103
347.836,109.009,-2.51605,0.38639,0.92903
351.036,110.0516,-2.65417,0.35167,0.92702
354.236,111.096,-2.77246,0.29771,0.92499
357.436,112.144,-2.86086,0.22405,0.92295
360.636,113.192,-2.915,0.15819,0.9209
363.836,114.239,-2.9425,0.11809,0.91883
367.036,115.291,-2.95917,0.10084,0.91675
370.236,116.338,-2.96758,0.09815235,0.91466
373.436,117.3872,-2.97713,0.0895921,0.91255
376.636,118.44,-2.98545,0.08312918,0.91043
379.836,119.493,-2.99531,0.07794267,0.90829
383.036,120.545,-3.00487,0.07624913,0.90615
386.236,121.596,-3.01143,0.07275091,0.90399
389.436,122.645,-3.01986,0.07082538,0.90181
392.636,123.701,-3.02723,0.06981602,0.89963
395.836,124.7563,-3.03442,0.06652498,0.89743
399.036,125.809,-3.04335,0.06944421,0.89522
402.236,126.858,-3.0503,0.07124572,0.893
405.436,127.9104,-3.05604,0.06954799,0.89076
408.636,128.972,-3.06392,0.07030486,0.88851
411.836,130.028,-3.07217,0.07533893,0.88625
415.036,131.081,-3.07725,0.07956617,0.88398
418.236,132.139,-3.08547,0.08337718,0.88169
421.436,133.199,-3.08941,0.08515613,0.87939
424.636,134.255,-3.09464,0.08633932,0.87708
427.836,135.309,-3.09929,0.09115991,0.87476
431.036,136.369,-3.10488,0.09694774,0.87243
434.236,137.424,-3.10958,0.10362,0.87008
437.436,138.481,-3.11377,0.10384,0.86772
440.636,139.537,-3.11844,0.10896,0.86536
443.836,140.594,-3.12176,0.10866,0.86298
447.036,141.658,-3.12592,0.10904,0.86058
450.236,142.724,-3.13121,0.11762,0.85818
453.436,143.776,-3.13384,0.11928,0.85577
456.636,144.828,-3.13515,0.10966,0.85334
459.836,145.889,-3.14017,0.10647,0.8509
463.036,146.954,-3.14339,0.10376,0.84846
466.236,148.019,-3.14635,0.10795,0.846
469.436,149.076,-3.14916,0.10686,0.84353
472.636,150.1382,-3.15255,0.10012,0.84105
475.836,151.206,-3.15562,0.0974132,0.83856
479.036,152.271,-3.15818,0.09844956,0.83606
482.236,153.332,-3.16083,0.10002,0.83354
485.436,154.396,-3.16475,0.09769915,0.83102
488.636,155.461,-3.16741,0.09912227,0.82849
491.836,156.521,-3.171,0.10237,0.82595
495.036,157.585,-3.17202,0.09688767,0.8234
498.236,158.6485,-3.17596,0.09104601,0.82083
501.436,159.712,-3.17695,0.08663999,0.81826
504.636,160.782,-3.18155,0.08509166,0.81568
507.836,161.856,-3.1828,0.08292868,0.81309
511.036,162.924,-3.18617,0.0852421,0.81049
514.236,163.991,-3.1874,0.0872587,0.80788
517.436,165.054,-3.19044,0.08850492,0.80526
520.636,166.127,-3.19209,0.08985293,0.80263
523.836,167.195,-3.19372,0.09106755,0.79999
527.036,168.263,-3.19571,0.09520809,0.79734
530.236,169.329,-3.19866,0.09565973,0.79469
533.436,170.395,-3.199,0.09251387,0.79202
536.636,171.467,-3.20294,0.0951575,0.78935
539.836,172.535,-3.20229,0.09582275,0.78667
543.036,173.603,-3.20622,0.0981379,0.78398
546.236,174.673,-3.20854,0.09884866,0.78128
549.436,175.747,-3.21052,0.10602,0.77857
552.636,176.8193,-3.21116,0.10744,0.77586
555.836,177.888,-3.21364,0.10914,0.77313
559.036,178.965,-3.21643,0.1068,0.7704
562.236,180.037,-3.21965,0.10818,0.76766
565.436,181.11,-3.22028,0.11282,0.76492
568.636,182.181,-3.22466,0.11148,0.76216
571.836,183.254,-3.22627,0.11226,0.7594
575.036,184.329,-3.22729,0.11345,0.75663
578.236,185.402,-3.23026,0.11735,0.75386
581.436,186.474,-3.23256,0.11669,0.75107
584.636,187.542,-3.23298,0.11547,0.74829
587.836,188.6169,-3.23487,0.11451,0.74549
591.036,189.694,-3.23684,0.11748,0.74269
594.236,190.765,-3.2379,0.12169,0.73988
597.436,191.84,-3.24019,0.12332,0.73706
600.636,192.917,-3.24079,0.12242,0.73424
603.836,193.989,-3.24242,0.12503,0.73141
607.036,195.065,-3.24408,0.13176,0.72857
610.236,196.144,-3.24416,0.12927,0.72573
613.436,197.216,-3.24504,0.13145,0.72288
616.636,198.2961,-3.24539,0.13598,0.72003
619.836,199.368,-3.24812,0.13536,0.71717
623.036,200.441,-3.2485,0.13565,0.71431
626.236,201.517,-3.25056,0.13638,0.71144
629.436,202.592,-3.25088,0.13315,0.70856
632.636,203.6705,-3.25458,0.13096,0.70568
635.836,204.7483,-3.25219,0.13649,0.7028
639.036,205.824,-3.2534,0.13539,0.69991
642.236,206.8925,-3.25468,0.13762,0.69702
645.436,207.973,-3.25506,0.13248,0.69412
648.636,209.054,-3.25538,0.13239,0.69121
651.836,210.129,-3.2567,0.13079,0.6883
655.036,211.203,-3.25853,0.13069,0.68539
658.236,212.283,-3.25838,0.12892,0.68248
661.436,213.359,-3.25933,0.13265,0.67956
664.636,214.434,-3.26096,0.13239,0.67663
667.836,215.514,-3.26161,0.13322,0.6737
671.036,216.586,-3.26295,0.13298,0.67077
674.236,217.667,-3.26395,0.13215,0.66784
677.436,218.752,-3.26492,0.13334,0.6649
680.636,219.828,-3.26787,0.12883,0.66196
683.836,220.904,-3.26869,0.12894,0.65901
687.036,221.984,-3.27127,0.13181,0.65606
690.236,223.063,-3.27116,0.13576,0.65311
693.436,224.141,-3.2715,0.13943,0.65016
696.636,225.218,-3.27315,0.14276,0.6472
699.836,226.299,-3.27347,0.14423,0.64424
703.036,227.378,-3.27479,0.14785,0.64128
706.236,228.4619,-3.27485,0.15019,0.63832
709.436,229.541,-3.27727,0.15596,0.63535
712.636,230.624,-3.27742,0.15672,0.63238
715.836,231.699,-3.27907,0.1616,0.62941
719.036,232.778,-3.27972,0.16489,0.62644
722.236,233.861,-3.28104,0.16909,0.62347
725.436,234.948,-3.28236,0.17296,0.6205
728.636,236.024,-3.28169,0.17524,0.61752
731.836,237.104,-3.28536,0.17613,0.61454
735.036,238.191,-3.28302,0.18066,0.61157
738.236,239.273,-3.28631,0.18189,0.60859
741.436,240.351,-3.28475,0.18376,0.60561
744.636,241.432,-3.28597,0.18368,0.60263
747.836,242.515,-3.28892,0.18754,0.59965
751.036,243.604,-3.28856,0.18451,0.59666
754.236,244.69,-3.28895,0.18776,0.59368
757.436,245.771,-3.28959,0.18498,0.5907
760.636,246.857,-3.29026,0.18564,0.58772
763.836,247.945,-3.29157,0.18573,0.58474
767.036,249.029,-3.29256,0.19024,0.58175
770.236,250.111,-3.29325,0.18487,0.57877
773.436,251.193,-3.29486,0.18584,0.57579
776.636,252.289,-3.29621,0.18063,0.57281
779.836,253.378,-3.29683,0.18082,0.56983
783.036,254.456,-3.29977,0.18409,0.56685
786.236,255.537,-3.29907,0.19085,0.56387
789.436,256.619,-3.30012,0.19166,0.5609
792.636,257.707,-3.30144,0.19807,0.55792
795.836,258.793,-3.30243,0.19872,0.55495
799.036,259.876,-3.30373,0.19781,0.55197
799.336,259.977,-3.30374,0.19951,0.55169