Folder: fsri_materials_database/01_Data/Oak_Flooring/Cone

Note: 01_Data/README.md
# Materials and Products Database
## 01_Data

Raw data generated from each apparatus are included here in plain-text format. The data is organized first by material, next by the short name of test apparatus used, and where applicable additional filtering by test settings.

### material.json

Each material directory contains a json file of the same name as the material. This file links the data stored in the repository as well as data and graphs produced by the accompanying scripts (__02_Scripts__) to the respective landing page for the material on the front-end website.

File: Oak_Flooring_Cone_HF25Scalar_220913_R2.csv
LABORATORY,FSRI
TEST IDENT,Oak_Floor_HF25_2
OPERATOR,Dow
MATERIAL,Oak Flooring
ORIENTATION,Horizontal
HEAT FLUX,25
SURF AREA,0.01
C FACTOR,0.0424088
SPEC HOLDER DIFF,-566
SPECIMEN MASS,162.22
SCAN TIME,0.25
O2 DELAY TIME,11
CO DELAY TIME,11
CO2 DELAY TIME,8
FLOW FACTOR,1
SCAN COUNT,7498
TIME TO IGN,221
END OF TEST SCAN,7018
END OF TEST TIME,1754.5
TEST STATUS,1
PRE TEST CMT,Dimensions: 102.27 x 101.47 x 18.76 mm; with tie wires; joint between boards centered on sample
POST TEST CMT,"Flaming biased towards one half of sample during period between HRR peaks, then biased towards other half during final decay stage. Some seperation at joint between boards by end of test. See test picture."

File: Oak_Flooring_Cone_HF25Scalar_220913_R3.csv
LABORATORY,FSRI
TEST IDENT,Oak_Floor_HF25_3
OPERATOR,Dow
MATERIAL,Oak Flooring
ORIENTATION,Horizontal
HEAT FLUX,25
SURF AREA,0.01
C FACTOR,0.0424088
SPEC HOLDER DIFF,-566
SPECIMEN MASS,131.75
SCAN TIME,0.25
O2 DELAY TIME,11
CO DELAY TIME,11
CO2 DELAY TIME,8
FLOW FACTOR,1
SCAN COUNT,5354
TIME TO IGN,177.5
END OF TEST SCAN,4874
END OF TEST TIME,1218.5
TEST STATUS,1
PRE TEST CMT,Dimensions: 101.51 x 101.79 x 18.86 mm; with tie wires; joint between boards centered on sample

File: Oak_Flooring_Cone_HF25Scalar_220914_R4.csv
LABORATORY,FSRI
TEST IDENT,Oak_Floor_HF25_4
OPERATOR,Dow
MATERIAL,Oak Flooring
ORIENTATION,Horizontal
HEAT FLUX,25
SURF AREA,0.01
C FACTOR,0.0424088
SPEC HOLDER DIFF,-566
SPECIMEN MASS,158.65
SCAN TIME,0.25
O2 DELAY TIME,11
CO DELAY TIME,11
CO2 DELAY TIME,8
FLOW FACTOR,1
SCAN COUNT,7086
TIME TO IGN,234
END OF TEST SCAN,6606
END OF TEST TIME,1651.5
TEST STATUS,1
PRE TEST CMT,Dimensions: 101.55 x 101.78 x 18.76 mm; with tie wires; joint between boards centered on sample

File: Oak_Flooring_Cone_HF25Scan_220913_R1.csv
Names,Time,Stack TC,Smoke TC,Exh Press,Smoke Comp,Smoke Meas,CO Meter,CO2 Meter,O2 Meter,Sample Mass,Ext Coeff,Start Test,Flame Verif
Chan Gain,,500,500,1,1,1,1,1,1,1,1,1.0,1.0
Offset,,0,0,0.139139,0,0,0,0,0,0,0,0.0,0.0
Gain,,1,1,25.011,13.0826,14.7555,1,1,1,1.00088,1.03743,1.0,1.0
Units,sec,C,C,Pa,%,%,%,%,%,g,/m,,
Baseline,,38.4979,39.3572,144.542,98.9967,100.336,0.000404722,0.0477699,20.9781,-449.2,-0.122243,,
65,16,36.854,37.8646,145.986,98.8001,100.475,0.000163425,0.0482497,20.9799,168.228,-0.152951,0.0,0.0
130,32.25,36.902,37.6209,144.752,98.9785,100.387,0.000650363,0.0499227,20.9793,168.048,-0.128571,0.0,0.0
195,48.5,36.7296,37.7039,144.192,99.1686,100.289,0.000636531,0.0479074,20.9845,167.928,-0.102211,0.0,0.0
260,64.75,37.2122,38.0129,147.855,99.3351,100.616,0.000497075,0.0477179,20.9841,167.748,-0.116603,0.0,0.0
325,81,36.9658,37.5464,144.985,99.3814,100.383,0.000564234,0.0487,20.9827,167.508,-0.0912813,0.0,0.0
390,97.25,37.3185,38.3333,142.793,99.2752,100.058,0.000923588,0.0498318,20.9826,167.127,-0.0714485,0.0,0.0
455,113.5,37.5745,38.4479,143.504,99.1338,98.8,0.00106536,0.052048,20.9847,166.927,0.030699,0.0,0.0
520,129.75,37.4922,38.6146,144.071,98.9258,98.1646,0.0016559,0.0533385,20.9831,166.517,0.0702977,0.0,0.0
585,146,38.8582,38.9113,124.804,98.8492,98.3443,0.00338858,0.18717,20.7754,165.746,0.0466024,0.0,1.0
650,162.25,57.7977,52.2509,124.851,98.7809,96.503,0.00577848,0.615701,20.3092,162.753,0.212313,0.0,0.0
715,178.5,64.0849,61.4067,130.153,98.7633,99.733,0.00468505,0.462493,20.5112,160.341,-0.0889125,0.0,0.0
780,194.75,63.3898,63.8895,136.995,98.5933,100.311,0.00359331,0.35223,20.6423,158.359,-0.157162,0.0,0.0
845,211,61.1506,63.3504,134.217,98.3657,101.315,0.00361885,0.298631,20.7052,156.768,-0.268839,0.0,0.0
910,227.25,59.0042,62.8053,133.104,98.0519,101.162,0.00327242,0.27488,20.7334,155.227,-0.284195,0.0,0.0
975,243.5,57.2606,61.4385,135.67,97.6961,100.715,0.00372641,0.258126,20.752,153.775,-0.276916,0.0,0.0
1040,259.75,56.8043,60.5188,131.021,97.4051,99.5727,0.00324499,0.257002,20.753,152.354,-0.200293,0.0,0.0
1105,276,56.1935,59.4605,134.404,97.3791,99.7006,0.00328,0.249731,20.7609,150.983,-0.2144,0.0,0.0
1170,292.25,55.2577,59.2373,133.756,97.5744,100.303,0.00319211,0.238372,20.7746,149.722,-0.250961,0.0,0.0
1235,308.5,54.3307,57.8369,134.529,97.8211,100.271,0.00317823,0.226102,20.7886,148.391,-0.225077,0.0,0.0
1300,324.75,53.8542,57.2502,132.477,98.1209,100.585,0.0034195,0.222507,20.793,147.16,-0.225666,0.0,0.0
1365,341,53.1695,56.6377,139.092,98.3677,100.661,0.00336358,0.217103,20.7981,145.898,-0.209734,0.0,0.0
1430,357.25,53.0632,55.5993,137.322,98.5258,101.721,0.00410137,0.20837,20.8105,144.737,-0.290449,0.0,0.0
1495,373.5,52.3023,55.4419,135.843,98.6128,102.016,0.00401889,0.205172,20.8107,143.546,-0.308722,0.0,0.0
1560,389.75,51.7324,54.8437,141.787,98.6731,100.357,0.004086,0.203092,20.8149,142.385,-0.15396,0.0,0.0
1625,406,51.5899,54.3446,138.549,98.6735,101.787,0.00410973,0.201774,20.8181,141.194,-0.282735,0.0,0.0
1690,422.25,51.7782,53.275,135.241,98.6316,101.008,0.00442561,0.202213,20.8171,140.013,-0.216686,0.0,0.0
1755,438.5,51.3012,53.6798,135.519,98.5134,100.726,0.00381352,0.201187,20.8185,138.832,-0.202123,0.0,0.0
1820,454.75,51.1751,53.1905,138.733,98.4028,101.498,0.0041316,0.198486,20.8191,137.611,-0.281811,0.0,0.0
1885,471,50.9473,53.4927,138.812,98.3082,100.718,0.00422857,0.194266,20.8267,136.46,-0.220408,0.0,0.0
1950,487.25,50.8396,52.6432,138.931,98.2663,100.829,0.00382633,0.193513,20.8265,135.299,-0.234252,0.0,0.0
2015,503.5,50.8881,52.6916,137.518,98.2231,101.553,0.00406642,0.194108,20.8238,134.158,-0.303406,0.0,0.0
2080,519.75,50.7183,52.6598,139.833,98.3545,100.186,0.00415921,0.196255,20.8227,133.007,-0.167861,0.0,0.0
2145,536,50.7592,52.6736,137.924,98.608,101.585,0.00366399,0.196694,20.8209,131.866,-0.270681,0.0,0.0
2210,552.25,51.3296,52.0142,141.086,98.7542,101.037,0.00371698,0.197291,20.821,130.765,-0.207979,0.0,0.0
2275,568.5,51.0768,52.868,135.851,98.9194,101.023,0.00344043,0.197675,20.8204,129.624,-0.191462,0.0,0.0
2340,584.75,50.7102,52.8238,135.251,99.0528,102.211,0.00380133,0.199776,20.8176,128.503,-0.285587,0.0,0.0
2405,601,50.862,52.8766,138.005,99.052,101.953,0.00389531,0.199678,20.8132,127.352,-0.262699,0.0,0.0
2470,617.25,50.5055,53.0654,135.596,98.8819,101.137,0.00397642,0.200535,20.8175,126.221,-0.205173,0.0,0.0
2535,633.5,51.2072,52.3576,134.41,98.5825,101.192,0.00332626,0.201407,20.8177,125.1,-0.237755,0.0,0.0
2600,649.75,51.2802,53.0141,134.543,98.6539,101.35,0.00383269,0.202754,20.8167,124.019,-0.245322,0.0,0.0
2665,666,51.3477,52.7269,135.11,98.8735,101.825,0.00324129,0.202326,20.8178,122.908,-0.267647,0.0,0.0
2730,682.25,51.3634,52.8025,133.827,99.1071,101.678,0.00337753,0.204463,20.812,121.787,-0.233087,0.0,0.0
2795,698.5,51.6888,53.1155,136.591,99.3003,101.872,0.00355088,0.20714,20.81,120.646,-0.232674,0.0,0.0
2860,714.75,51.9682,53.5382,138.379,99.3506,101.938,0.00323794,0.210003,20.8061,119.505,-0.233936,0.0,0.0
2925,731,51.8856,53.6007,135.628,99.3243,101.39,0.00320169,0.217138,20.8002,118.404,-0.187335,0.0,0.0
2990,747.25,52.7469,53.972,134.847,99.24,101.956,0.00286557,0.220942,20.7982,117.243,-0.24572,0.0,0.0
3055,763.5,52.96,53.9919,132.063,99.1211,101.895,0.00277524,0.23041,20.7859,116.032,-0.251168,0.0,0.0
3120,779.75,53.8076,54.6371,133.561,98.9023,101.726,0.0031486,0.241146,20.7733,114.781,-0.256225,0.0,0.0
3185,796,54.7692,55.789,132.913,98.6212,101.47,0.00233326,0.253507,20.7591,113.44,-0.259172,0.0,0.0
3250,812.25,55.6253,57.3213,134.928,98.2327,100.61,0.00227786,0.271065,20.7405,112.109,-0.217626,0.0,0.0
3315,828.5,56.9492,58.3066,131.634,98.065,100.609,0.0030946,0.288618,20.7169,110.597,-0.233092,0.0,0.0
3380,844.75,58.4124,59.5301,131.653,98.0611,100.306,0.00253289,0.30299,20.7029,109.066,-0.206009,0.0,0.0
3445,861,59.4049,60.4682,131.817,97.9772,100.246,0.00272209,0.304581,20.6985,107.505,-0.208358,0.0,0.0
3510,877.25,59.8988,61.3465,135.319,97.7544,99.7312,0.00252127,0.303412,20.7001,105.953,-0.182189,0.0,0.0
3575,893.5,60.3474,62.182,131.996,97.5101,100.991,0.00222761,0.304599,20.6971,104.442,-0.319171,0.0,0.0
3640,909.75,60.6693,62.5762,132.052,97.4119,100.184,0.001859,0.305182,20.6987,102.881,-0.255336,0.0,0.0
3705,926,60.7161,63.4952,129.822,97.3799,100.68,0.00183354,0.313916,20.6892,101.319,-0.303285,0.0,0.0
3770,942.25,62.035,64.2735,133.246,97.4937,99.996,0.00219413,0.322607,20.682,99.6878,-0.23062,0.0,0.0
3835,958.5,62.2738,64.743,132.762,97.7141,100.27,0.0021528,0.336238,20.6651,98.0063,-0.234995,0.0,0.0
3900,974.75,63.3414,65.7005,129.119,97.9557,100.802,0.00254537,0.349317,20.6514,96.2448,-0.260706,0.0,0.0
3965,991,64.816,66.791,128.58,98.1704,101.179,0.00233719,0.362813,20.6374,94.4432,-0.274694,0.0,0.0
4030,1007.25,65.4747,67.9988,130.543,98.4367,101.224,0.00212344,0.373204,20.622,92.5815,-0.254051,0.0,0.0
4095,1023.5,66.8507,69.2292,132.921,98.5457,101.024,0.00205892,0.383836,20.6074,90.7099,-0.226029,0.0,0.0
4160,1039.75,67.4709,70.03,126.078,98.6424,101.462,0.00207156,0.388156,20.6035,88.8182,-0.256494,0.0,0.0
4225,1056,68.2746,70.5536,125.851,98.644,101.115,0.00253572,0.379413,20.6079,87.0567,-0.225113,0.0,0.0
4290,1072.25,67.011,70.6855,133.163,98.5689,101.092,0.00280116,0.354418,20.6371,85.3251,-0.230014,0.0,0.0
4355,1088.5,66.1856,70.1234,131.689,98.4571,100.686,0.00228084,0.331872,20.6631,83.8338,-0.203744,0.0,0.0
4420,1104.75,65.3412,69.0433,131.758,98.3848,100.781,0.00276058,0.334284,20.6572,82.3025,-0.218969,0.0,0.0
4485,1121,64.946,68.6122,129.832,98.3058,100.567,0.00273579,0.328944,20.6617,80.8012,-0.206908,0.0,0.0
4550,1137.25,65.1422,68.1576,125.856,98.2439,101.003,0.00305856,0.329495,20.6573,79.3199,-0.252079,0.0,0.0
4615,1153.5,65.1422,68.1665,130.771,98.1693,99.8231,0.0030022,0.323155,20.6642,77.8586,-0.152032,0.0,0.0
4680,1169.75,64.3054,67.0326,131.704,98.3214,100.44,0.00421682,0.299855,20.6911,76.5674,-0.193968,0.0,0.0
4745,1186,63.3502,66.3962,132.028,98.7074,100.854,0.00423722,0.275212,20.717,75.4064,-0.195763,0.0,0.0
4810,1202.25,60.4305,64.4185,135.365,98.951,102.003,0.004857,0.239184,20.7595,74.4656,-0.276443,0.0,0.0
4875,1218.5,57.8492,61.8602,139.023,99.0352,100.917,0.0066622,0.212329,20.7851,73.6949,-0.171279,0.0,0.0
4940,1234.75,55.9163,59.9144,137.788,98.9326,101.883,0.00669461,0.192729,20.8065,73.0343,-0.26744,0.0,0.0
5005,1251,54.2362,57.7934,134.489,98.6456,101.182,0.00695584,0.176122,20.8215,72.4438,-0.231002,0.0,0.0
5070,1267.25,52.727,55.5995,137.263,98.5749,101.666,0.0108919,0.163083,20.8379,71.9634,-0.280999,0.0,0.0
5135,1283.5,50.9656,54.0893,135.642,98.7086,101.768,0.012324,0.154461,20.8493,71.4829,-0.277804,0.0,0.0
5200,1299.75,49.2031,51.7212,140.976,98.8312,101.318,0.0141503,0.14218,20.8629,71.0826,-0.226154,0.0,0.0
5265,1316,47.3186,50.027,141.48,98.9701,101.301,0.0143605,0.140427,20.8619,70.7223,-0.211793,0.0,0.0
5330,1332.25,46.6055,49.3866,139.674,99.0708,100.964,0.0143899,0.134875,20.8724,70.442,-0.172278,0.0,0.0
5395,1348.5,46.3542,47.4181,139.693,99.2325,101.974,0.0140417,0.133136,20.8749,70.0917,-0.248023,0.0,0.0
5460,1364.75,45.2803,46.5846,140.782,99.2788,102.595,0.0144025,0.136645,20.8723,69.8215,-0.298984,0.0,0.0
5525,1381,44.5995,45.9106,141.268,99.3071,102.324,0.013075,0.130925,20.8778,69.5412,-0.272389,0.0,0.0
5590,1397.25,44.2574,45.4077,137.406,99.3243,101.953,0.0125931,0.129566,20.8791,69.281,-0.237756,0.0,0.0
5655,1413.5,43.7105,44.8011,141.514,99.3267,101.134,0.0124671,0.128798,20.8819,69.0108,-0.164089,0.0,0.0
5720,1429.75,42.2717,42.8797,141.787,99.3215,102.058,0.0127992,0.128758,20.8792,68.7405,-0.247373,0.0,0.0
5785,1446,42.1572,42.3639,138.271,99.3307,101.071,0.0127037,0.126125,20.8853,68.5203,-0.158089,0.0,0.0
5850,1462.25,41.5894,42.2825,136.695,99.3462,102.112,0.0125051,0.124458,20.8865,68.3302,-0.249882,0.0,0.0
5915,1478.5,41.4852,42.4863,143.667,99.3051,101.769,0.0125623,0.123084,20.8873,68.0799,-0.223059,0.0,0.0
5980,1494.75,41.191,42.1093,141.226,99.232,102.274,0.0115647,0.122097,20.8872,67.8898,-0.274784,0.0,0.0
6045,1511,41.3224,41.7725,141.028,99.1702,100.743,0.0117005,0.120741,20.8938,67.6696,-0.14316,0.0,0.0
6110,1527.25,40.8354,41.8702,139.487,99.1179,101.096,0.0116839,0.120051,20.8926,67.4794,-0.179795,0.0,0.0
6168,1541.75,40.697,41.3801,140.423,99.0073,101.206,,,,67.3093,-0.19988,0.0,0.0

File: Oak_Flooring_Cone_HF25Scan_220913_R2.csv
Names,Time,Stack TC,Smoke TC,Exh Press,Smoke Comp,Smoke Meas,CO Meter,CO2 Meter,O2 Meter,Sample Mass,Ext Coeff,Start Test,Flame Verif
Chan Gain,,500,500,1,1,1,1,1,1,1,1,1.0,1.0
Offset,,0,0,0.139139,0,0,0,0,0,0,0,0.0,0.0
Gain,,1,1,25.011,13.0826,14.7555,1,1,1,1.00088,1.03743,1.0,1.0
Units,sec,C,C,Pa,%,%,%,%,%,g,/m,,
Baseline,,33.3674,33.4927,154.127,99.8793,103.664,0.000490619,0.0495769,20.996,-445.993,-0.338471,,
79,19.5,32.4886,32.8328,154.999,100.436,104.73,0.000610981,0.0526191,20.9978,234.587,-0.380928,0.0,0.0
158,39.25,32.6199,33.0449,153.772,100.299,104.654,0.000607577,0.0498731,21.0016,234.547,-0.386768,0.0,0.0
237,59,33.1293,33.2511,148.932,100.214,104.222,0.000239019,0.0488004,21.0007,234.426,-0.356858,0.0,0.0
316,78.75,33.0509,32.958,154.947,100.207,104.282,0.0003748,0.0485542,20.9997,234.336,-0.362742,0.0,0.0
395,98.5,33.2778,33.5275,155.269,100.231,103.928,0.000397676,0.0489223,21.0034,234.066,-0.3297,0.0,0.0
474,118.25,33.5244,33.7573,154.058,100.284,103.898,0.000945274,0.0493555,21.0036,233.976,-0.322165,0.0,0.0
553,138,33.6029,34.1113,152.272,100.424,103.203,0.000840023,0.0501068,21.0033,233.686,-0.248353,0.0,0.0
632,157.75,33.9222,33.8553,153.32,100.453,103.165,0.00112127,0.0512316,21.0009,233.366,-0.242447,0.0,0.0
711,177.5,33.6467,34.3438,154.07,100.1,102.541,0.00191868,0.0528476,21.0012,232.915,-0.219256,0.0,0.0
790,197.25,34.2289,34.7538,153.041,99.6085,100.915,0.00200207,0.0544027,21,232.445,-0.118587,0.0,0.0
869,217,34.3368,34.9515,148.513,100.059,101.403,0.00292412,0.0562391,20.9953,231.864,-0.121447,0.0,0.0
948,236.75,45.6255,41.2929,136.555,99.7854,102.264,0.00369528,0.301947,20.5302,229.342,-0.223296,0.0,0.0
1027,256.5,55.2663,52.2545,141.061,99.2919,101.643,0.00382703,0.389172,20.5967,226.61,-0.212985,0.0,0.0
1106,276.25,56.4601,56.4467,138.877,99.2472,101.232,0.00310806,0.364986,20.6634,224.137,-0.1802,0.0,0.0
1185,296,56.1108,57.4645,142.971,99.244,102.61,0.00274616,0.323327,20.7269,221.975,-0.303527,0.0,0.0
1264,315.75,54.5633,57.0857,143.598,99.3375,103.637,0.00243693,0.288964,20.7576,220.014,-0.385606,0.0,0.0
1343,335.5,52.6873,55.9768,141.279,99.5179,103.815,0.00211376,0.263079,20.7829,218.252,-0.384655,0.0,0.0
1422,355.25,51.6013,55.3475,140.041,99.7587,103.974,0.00242609,0.244287,20.8016,216.531,-0.37667,0.0,0.0
1501,375,50.3581,53.8413,142.905,100.062,104.207,0.00251778,0.227938,20.8175,214.909,-0.369421,0.0,0.0
1580,394.75,49.893,52.8666,144.985,100.08,104.091,0.00250166,0.214302,20.83,213.378,-0.35756,0.0,0.0
1659,414.5,48.6186,51.3371,145.143,99.6353,103.907,0.00302725,0.201782,20.8461,211.827,-0.382056,0.0,0.0
1738,434.25,48.0075,51.1556,147.735,99.9775,103.975,0.00262337,0.190997,20.8541,210.415,-0.356772,0.0,0.0
1817,454,46.9066,49.7058,143.706,100.373,105.094,0.00341212,0.181677,20.8635,209.014,-0.418284,0.0,0.0
1896,473.75,46.2003,48.7043,146.355,100.49,105.33,0.0036593,0.174856,20.8695,207.663,-0.428057,0.0,0.0
1975,493.5,46.5517,47.9159,146.572,100.298,104.793,0.00362266,0.169977,20.8747,206.302,-0.398932,0.0,0.0
2054,513.25,45.8542,47.5678,147.647,99.7539,104.311,0.00356502,0.167944,20.8745,205.011,-0.406539,0.0,0.0
2133,533,45.8126,46.9794,145.769,99.034,104.171,0.00378962,0.166391,20.8783,203.699,-0.460221,0.0,0.0
2212,552.75,45.5613,47.0065,147.363,98.6691,103.99,0.00406532,0.16414,20.8794,202.408,-0.477949,0.0,0.0
2291,572.5,45.6204,46.6011,149.648,98.8815,103.658,0.00414293,0.163764,20.8788,201.087,-0.42929,0.0,0.0
2370,592.25,45.4312,46.7292,146.434,99.6073,104.069,0.00394332,0.163424,20.8787,199.796,-0.398796,0.0,0.0
2449,612,45.4096,46.661,147.467,99.8609,104.478,0.00413766,0.162124,20.8796,198.505,-0.411307,0.0,0.0
2528,631.75,45.8016,47.0271,144.447,99.5015,104.486,0.00401276,0.162825,20.8783,197.264,-0.444856,0.0,0.0
2607,651.5,45.6841,47.0511,147.473,99.2408,104.155,0.00401983,0.164391,20.8758,195.953,-0.43986,0.0,0.0
2686,671.25,46.1344,46.6983,145.131,99.4656,103.904,0.00413415,0.16505,20.8737,194.661,-0.397251,0.0,0.0
2765,691,45.7049,47.0239,153.781,99.7802,104.496,0.00396574,0.16599,20.875,193.42,-0.420228,0.0,0.0
2844,710.75,45.6041,47.0495,139.673,99.8537,104.152,0.0038117,0.169711,20.8687,192.099,-0.38356,0.0,0.0
2923,730.5,46.2708,47.1308,141.853,99.8273,104.301,0.0036408,0.171893,20.8702,190.768,-0.398975,0.0,0.0
3002,750.25,46.4939,47.6317,149.067,99.5083,104.939,0.00351205,0.173961,20.8661,189.487,-0.483605,0.0,0.0
3081,770,46.3242,47.3736,145.327,99.2348,103.972,0.00336399,0.175123,20.8662,188.176,-0.424342,0.0,0.0
3160,789.75,46.6165,47.5935,142.117,99.6125,104.421,0.00384866,0.17488,20.8685,186.835,-0.428983,0.0,0.0
3239,809.5,46.4405,48.0725,147.904,99.793,104.42,0.00366206,0.176286,20.8666,185.553,-0.412433,0.0,0.0
3318,829.25,46.6355,47.5719,144.724,99.345,103.527,0.0039715,0.176285,20.8663,184.252,-0.375259,0.0,0.0
3397,849,47.2263,48.1081,145.407,98.6835,102.357,0.00365788,0.180119,20.8575,182.941,-0.332641,0.0,0.0
3476,868.75,46.5408,48.5197,146.613,98.7298,103.449,0.00301738,0.185792,20.8526,181.62,-0.424941,0.0,0.0
3555,888.5,47.5873,48.718,145.057,99.074,103.639,0.00308197,0.192149,20.8459,180.259,-0.409976,0.0,0.0
3634,908.25,48.0569,49.0715,143.225,99.1067,104.126,0.0028491,0.197938,20.8374,178.878,-0.449612,0.0,0.0
3713,928,48.5295,49.7327,143.779,99.0632,103.394,0.00228966,0.204167,20.8328,177.446,-0.389352,0.0,0.0
3792,947.75,49.1232,50.0154,141.502,99.0823,103.239,0.00292241,0.21057,20.8235,175.965,-0.373947,0.0,0.0
3871,967.5,50.0923,50.9329,140.44,99.044,103.811,0.00262994,0.219028,20.8131,174.464,-0.427818,0.0,0.0
3950,987.25,51.0489,52.1775,143.491,98.9526,103.389,0.00254202,0.23053,20.7982,172.862,-0.39916,0.0,0.0
4029,1007,52.3629,53.2541,143.069,98.707,103.656,0.00241627,0.243736,20.7853,171.131,-0.445203,0.0,0.0
4108,1026.75,53.2541,54.476,138.622,98.6408,103.218,0.00239699,0.256344,20.7699,169.359,-0.412808,0.0,0.0
4187,1046.5,54.3176,55.4129,141.254,98.8963,103.424,0.0029158,0.271556,20.7517,167.447,-0.40739,0.0,0.0
4266,1066.25,56.0126,56.8383,141.493,99.4632,103.828,0.0027129,0.288457,20.7321,165.436,-0.390842,0.0,0.0
4345,1086,57.1904,58.8855,139.891,99.8509,103.78,0.0028382,0.308912,20.7083,163.264,-0.351217,0.0,0.0
4424,1105.75,58.9248,60.46,148.396,99.7235,103.981,0.00266583,0.331189,20.6809,160.932,-0.380426,0.0,0.0
4503,1125.5,61.2032,62.6573,134.315,99.3247,103.161,0.0028078,0.353003,20.6568,158.5,-0.344886,0.0,0.0
4582,1145.25,62.8938,64.8035,132.957,99.4445,102.613,0.00285572,0.377584,20.6273,155.897,-0.285407,0.0,0.0
4661,1165,64.9309,66.953,133.729,99.9854,102.21,0.00322434,0.401066,20.5967,153.165,-0.200222,0.0,0.0
4740,1184.75,68.1108,69.3983,130.996,99.8497,100.749,0.00371057,0.438413,20.5446,150.182,-0.0815855,0.0,0.0
4819,1204.5,70.798,72.6186,134.231,99.7511,100.5,0.00430469,0.466133,20.5197,147.08,-0.0680984,0.0,0.0
4898,1224.25,71.8571,74.3718,134.409,100.197,101.27,0.00378654,0.466804,20.5283,143.987,-0.0969591,0.0,0.0
4977,1244,72.3235,75.5409,132.014,100.392,102.229,0.00361203,0.456268,20.5439,141.094,-0.164988,0.0,0.0
5056,1263.75,72.1112,75.8571,134.574,100.284,104.107,0.00295831,0.43179,20.579,138.462,-0.340481,0.0,0.0
5135,1283.5,70.3483,74.972,134.147,100.008,103.82,0.00271636,0.38817,20.6374,136.11,-0.340481,0.0,0.0
5214,1303.25,67.5051,72.1434,141.022,99.8521,103.844,0.00250962,0.335153,20.701,134.168,-0.356753,0.0,0.0
5293,1323,63.9646,68.9149,144.089,99.8605,104.654,0.0022982,0.287883,20.752,132.497,-0.426705,0.0,0.0
5372,1342.75,61.423,65.9337,141.856,99.9271,104.711,0.00263379,0.264447,20.7679,131.035,-0.425564,0.0,0.0
5451,1362.5,60.4235,63.984,139.838,100.021,105.44,0.00274854,0.258901,20.7676,129.414,-0.480089,0.0,0.0
5530,1382.25,59.8171,62.6958,138.527,100.189,105.122,0.00239756,0.259119,20.7622,127.983,-0.437367,0.0,0.0
5609,1402,59.4175,62.2972,142.105,100.342,105.469,0.00299857,0.2624,20.7563,126.441,-0.453528,0.0,0.0
5688,1421.75,59.5319,61.6531,133.919,100.335,105.617,0.00261609,0.265984,20.7532,124.92,-0.466917,0.0,0.0
5767,1441.5,59.0751,61.4509,142.222,100.045,104.99,0.00322543,0.268746,20.7489,123.439,-0.439112,0.0,0.0
5846,1461.25,59.3805,61.4293,140.355,99.6493,104.186,0.00332367,0.271336,20.7456,121.897,-0.405119,0.0,0.0
5925,1481,58.7841,61.1339,137.15,99.5602,104.599,0.00325494,0.270321,20.7492,120.466,-0.449251,0.0,0.0
6004,1500.75,58.3325,60.9224,140.552,99.7283,104.573,0.00327002,0.261593,20.7609,119.035,-0.431666,0.0,0.0
6083,1520.5,57.8504,59.8051,139.103,99.985,105.094,0.00271994,0.249932,20.7763,117.754,-0.453497,0.0,0.0
6162,1540.25,56.3717,58.8185,140.243,100.23,104.653,0.00326437,0.232732,20.7983,116.583,-0.392956,0.0,0.0
6241,1560,55.3022,57.571,141.264,100.376,104.729,0.0032466,0.21085,20.8259,115.612,-0.386316,0.0,0.0
6320,1579.75,53.0898,56.2624,142.709,100.396,104.795,0.00422779,0.188745,20.8472,114.771,-0.390257,0.0,0.0
6399,1599.5,51.6729,53.8715,145.437,100.303,105.253,0.00407527,0.16926,20.8665,114.06,-0.438336,0.0,0.0
6478,1619.25,49.7708,52.1782,146.117,100.171,104.754,0.00500462,0.152346,20.8843,113.5,-0.407167,0.0,0.0
6557,1639,48.2038,50.1052,148.393,99.7898,104.684,0.00591586,0.136227,20.9017,113,-0.435693,0.0,0.0
6636,1658.75,45.9605,48.4306,145.714,99.2213,103.646,0.00635435,0.124312,20.9148,112.669,-0.397046,0.0,0.0
6715,1678.5,44.9834,46.8831,147.932,98.6819,103.656,0.00672148,0.115499,20.9222,112.279,-0.447483,0.0,0.0
6794,1698.25,44.5999,45.8486,150.246,98.7422,103.679,0.00657979,0.109612,20.9304,112.019,-0.443981,0.0,0.0
6873,1718,42.9201,44.4647,147.459,99.2568,104.099,0.00615656,0.105851,20.9332,111.698,-0.433437,0.0,0.0
6952,1737.75,42.6803,43.8197,151.272,99.7291,104.825,0.00637682,0.102591,20.936,111.468,-0.453551,0.0,0.0
7031,1757.5,40.4427,41.0529,148.976,99.8309,105.047,0.00660386,0.0996976,20.9387,111.258,-0.463479,0.0,0.0
7110,1777.25,39.8424,41.2217,151.131,99.5219,104.318,0.00682461,0.0966566,20.9404,111.018,-0.428315,0.0,0.0
7189,1797,39.6125,40.4967,150.573,99.1881,104.498,0.00620077,0.0958377,20.9416,110.808,-0.474547,0.0,0.0
7268,1816.75,39.4715,40.0415,146.172,99.6768,104.628,0.00617044,0.0947545,20.9415,110.617,-0.441147,0.0,0.0
7347,1836.5,39.3895,40.3738,149.016,99.9459,105.129,0.00648408,0.0958742,20.9442,110.457,-0.460101,0.0,0.0
7426,1856.25,39.6694,39.5303,150.023,99.88,105.078,0.00626251,0.0959766,20.9426,110.217,-0.461694,0.0,0.0
7498,1874.25,39.4932,39.9075,150.178,99.69,104.549,,,,109.977,-0.433087,0.0,0.0

File: Oak_Flooring_Cone_HF50Scalar_220914_R1.csv
LABORATORY,FSRI
TEST IDENT,Oak_Floor_HF50_1
OPERATOR,Dow
MATERIAL,Oak Flooring
ORIENTATION,Horizontal
HEAT FLUX,50
SURF AREA,0.01
C FACTOR,0.0421844
SPEC HOLDER DIFF,-566
SPECIMEN MASS,145.35
SCAN TIME,0.25
O2 DELAY TIME,11
CO DELAY TIME,11
CO2 DELAY TIME,8
FLOW FACTOR,1
SCAN COUNT,5433
TIME TO IGN,27.25
END OF TEST SCAN,4953
END OF TEST TIME,1238.25
TEST STATUS,1
PRE TEST CMT,Dimensions: 101.08 x 101.41 x 19.01 mm; with tie wires; joint between boards centered on sample

File: Oak_Flooring_Cone_HF50Scalar_220914_R3.csv
LABORATORY,FSRI
TEST IDENT,Oak_Flooring_HF50_3
OPERATOR,Dow
MATERIAL,Oak flooring
ORIENTATION,Horizontal
HEAT FLUX,50
SURF AREA,0.01
C FACTOR,0.0421844
SPEC HOLDER DIFF,-566
SPECIMEN MASS,136.91
SCAN TIME,0.25
O2 DELAY TIME,11
CO DELAY TIME,11
CO2 DELAY TIME,8
FLOW FACTOR,1
SCAN COUNT,4975
TIME TO IGN,29.25
END OF TEST SCAN,4495
END OF TEST TIME,1123.75
TEST STATUS,1
PRE TEST CMT,Dimensions: 101.25 x 101.74 x 18.58 mm; with tie wires; joint between boards centered on sample