Folder: fsri_materials_database/01_Data/Oak_Flooring/Cone (part 3)

File: Oak_Flooring_Cone_HF75Scan_220914_R2.csv
Names,Time,Stack TC,Smoke TC,Exh Press,Smoke Comp,Smoke Meas,CO Meter,CO2 Meter,O2 Meter,Sample Mass,Ext Coeff,Start Test,Flame Verif
Chan Gain,,500,500,1,1,1,1,1,1,1,1,1.0,1.0
Offset,,0,0,0.139139,0,0,0,0,0,0,0,0.0,0.0
Gain,,1,1,25.011,13.0826,14.7555,1,1,1,1.00088,1.03743,1.0,1.0
Units,sec,C,C,Pa,%,%,%,%,%,g,/m,,
Baseline,,65.425,67.7066,136.305,99.6119,105.93,-0.00112376,0.0484269,20.9905,-451.488,-0.559613,,
40,9.75,63.8266,65.6178,133.704,99.8816,105.396,-0.000788287,0.0511863,20.9911,198.865,-0.489002,0.0,0.0
80,19.75,72.7796,70.7248,107.446,99.9236,90.7013,0.00519136,0.567592,20.2801,197.054,0.881217,0.0,0.0
120,29.75,90.061,86.9513,111.394,99.9152,91.6996,0.00855895,0.88774,19.971,194.381,0.780837,0.0,0.0
160,39.75,99.1916,96.8923,111.423,99.8657,92.9825,0.00796033,0.826038,20.0948,191.879,0.649893,0.0,0.0
200,49.75,103.649,103.811,111.966,99.7599,94.8499,0.00793205,0.74618,20.1932,189.537,0.459292,0.0,0.0
240,59.75,106.189,108.143,114.497,99.6453,94.9418,0.00717413,0.677278,20.2801,187.385,0.440024,0.0,0.0
280,69.75,107.286,110.894,117.644,99.5199,97.006,0.00576342,0.623968,20.3403,185.473,0.232833,0.0,0.0
320,79.75,107.281,112.282,116.685,99.4081,96.7331,0.00486508,0.583335,20.3866,183.552,0.248241,0.0,0.0
360,89.75,106.865,112.93,120.927,99.3973,97.5342,0.00434034,0.549195,20.423,181.72,0.1722,0.0,0.0
400,99.75,105.987,113.103,115.039,99.684,97.8156,0.00402555,0.525445,20.451,179.948,0.172187,0.0,0.0
440,109.75,105.916,112.926,119.059,99.9419,98.3272,0.00359263,0.509467,20.4694,178.247,0.148235,0.0,0.0
480,119.75,104.931,112.338,118.675,99.9216,98.9783,0.0029827,0.493913,20.4865,176.586,0.0863147,0.0,0.0
520,129.75,104.331,112.465,122.247,99.6856,99.2674,0.00288697,0.486806,20.4961,174.974,0.0382588,0.0,0.0
560,139.75,103.958,111.822,119.143,100.108,99.8078,0.00282537,0.480556,20.5042,173.393,0.0273716,0.0,0.0
600,149.75,103.603,111.322,118.552,100.492,100.17,0.00267069,0.473407,20.5099,171.871,0.029155,0.0,0.0
640,159.75,103.19,110.889,113.508,100.34,99.7803,0.00251198,0.46459,20.5174,170.26,0.050938,0.0,0.0
680,169.75,102.658,110.931,119.89,99.595,99.6182,0.00220144,0.456403,20.5291,168.669,-0.00212057,0.0,0.0
720,179.75,102.529,110.303,121.087,98.9554,99.1165,0.00216153,0.452172,20.5353,167.107,-0.0148098,0.0,0.0
760,189.75,102.681,110.218,121.722,99.0584,98.8626,0.00206412,0.447888,20.5402,165.616,0.0180068,0.0,0.0
800,199.75,102.409,109.689,119.539,99.4984,100.658,0.00207596,0.444441,20.5466,164.105,-0.105484,0.0,0.0
840,209.75,102.28,109.503,115.27,99.8573,100.69,0.00164528,0.442699,20.5479,162.633,-0.0755644,0.0,0.0
880,219.75,102.242,109.223,123.834,100.06,101.082,0.00170748,0.442808,20.5484,161.182,-0.0924785,0.0,0.0
920,229.75,101.658,108.573,117.352,100.076,100.858,0.0017691,0.439347,20.5501,159.661,-0.070851,0.0,0.0
960,239.75,101.476,108.3,120.738,100.024,100.747,0.00227713,0.437437,20.5522,158.159,-0.0655314,0.0,0.0
1000,249.75,100.997,107.674,119.39,99.993,101.246,0.00189836,0.432855,20.5595,156.608,-0.113285,0.0,0.0
1040,259.75,101.293,107.244,117.71,100.004,101.409,0.00185727,0.434801,20.5575,155.257,-0.126945,0.0,0.0
1080,269.75,101.341,107.562,120.926,100.033,101.846,0.00143224,0.427138,20.564,153.705,-0.16341,0.0,0.0
1120,279.75,100.94,106.955,119.167,100.047,100.707,0.00192543,0.421623,20.5693,152.164,-0.0598807,0.0,0.0
1160,289.75,100.677,106.655,119.76,99.9727,101.667,0.0018647,0.41749,20.5749,150.803,-0.152904,0.0,0.0
1200,299.75,100.192,106.714,120.393,99.7902,101.267,0.00161159,0.414141,20.579,149.412,-0.133704,0.0,0.0
1240,309.75,99.8711,106.179,121.446,99.468,101.196,0.00127245,0.41628,20.5764,148.06,-0.15678,0.0,0.0
1280,319.75,100.207,106.12,119.533,99.0899,100.651,0.00132148,0.411026,20.5819,146.579,-0.142265,0.0,0.0
1320,329.75,99.8946,105.546,119.829,98.8611,100.662,0.00121787,0.413595,20.5792,145.118,-0.164237,0.0,0.0
1360,339.75,100.229,106.003,122.658,98.8995,100.499,0.00116182,0.418498,20.5735,143.777,-0.14596,0.0,0.0
1400,349.75,99.8841,105.814,119.759,99.1382,101.504,0.00143291,0.418258,20.5728,142.375,-0.214577,0.0,0.0
1440,359.75,100.27,105.645,120.4,99.4205,101.599,0.00160936,0.421017,20.5698,141.034,-0.197218,0.0,0.0
1480,369.75,100.334,106.1,118.866,99.7223,101.475,0.0015459,0.426616,20.5645,139.623,-0.158573,0.0,0.0
1520,379.75,99.9947,105.678,120.106,99.9587,101.613,0.00165179,0.429866,20.5599,138.182,-0.149378,0.0,0.0
1560,389.75,100.729,105.998,119.167,100.133,101.655,0.00153533,0.433559,20.5561,136.8,-0.137334,0.0,0.0
1600,399.75,100.572,106.169,119.681,100.21,101.807,0.00195257,0.434664,20.5536,135.319,-0.143833,0.0,0.0
1640,409.75,101.442,106.789,114.128,100.247,101.216,0.00172273,0.44606,20.538,133.948,-0.0875334,0.0,0.0
1680,419.75,101.568,106.933,118.933,100.253,101.968,0.00181575,0.447513,20.5363,132.487,-0.154389,0.0,0.0
1720,429.75,102.239,107.182,118.212,100.282,101.585,0.00199482,0.451933,20.5355,131.055,-0.117407,0.0,0.0
1760,439.75,102.239,107.57,118.338,100.256,101.078,0.00169584,0.458003,20.5295,129.664,-0.0743027,0.0,0.0
1800,449.75,102.92,108.081,116.721,100.244,100.923,0.0017155,0.465658,20.5178,128.183,-0.0613927,0.0,0.0
1840,459.75,103.64,109.289,117.816,100.175,100.331,0.00222477,0.471079,20.5094,126.752,-0.0140769,0.0,0.0
1880,469.75,104.475,109.748,121.462,100.086,100.47,0.00247306,0.481586,20.4996,125.26,-0.0348167,0.0,0.0
1920,479.75,105.256,110.222,118.707,99.9295,99.334,0.00278691,0.490362,20.4897,123.729,0.0543926,0.0,0.0
1960,489.75,105.577,111.3,115.712,99.6956,99.4943,0.0023753,0.505474,20.4704,122.228,0.0183868,0.0,0.0
2000,499.75,106.55,111.995,119.469,99.4692,96.8484,0.00353089,0.517505,20.4599,120.646,0.242993,0.0,0.0
2040,509.75,107.064,112.908,116.288,99.2392,97.531,0.00349923,0.537414,20.4343,119.085,0.158008,0.0,0.0
2080,519.75,108.184,113.945,119.142,99.068,96.7682,0.00361846,0.555635,20.4115,117.393,0.213744,0.0,0.0
2120,529.75,109.589,115.276,112.083,98.9526,96.6462,0.00397031,0.578322,20.3829,115.742,0.214622,0.0,0.0
2160,539.75,111.146,116.669,117.701,98.9174,95.2012,0.00486455,0.602363,20.3565,113.94,0.348482,0.0,0.0
2200,549.75,112.525,118.183,116.231,99.0089,95.0427,0.00543261,0.621572,20.3323,112.179,0.372053,0.0,0.0
2240,559.75,113.734,119.937,116.936,99.246,93.812,0.00491876,0.646215,20.3038,110.297,0.512432,0.0,0.0
2280,569.75,115.446,120.686,107.48,99.6413,92.7105,0.0055516,0.671772,20.2698,108.355,0.656081,0.0,0.0
2320,579.75,116.719,122.73,116.314,99.9958,94.9769,0.00537339,0.699614,20.2348,106.424,0.468617,0.0,0.0
2360,589.75,118.112,124.478,113.529,100.122,94.3289,0.00489729,0.713915,20.2187,104.452,0.542426,0.0,0.0
2400,599.75,119.722,126.114,114.636,99.8736,92.4444,0.00588043,0.72687,20.2003,102.4,0.703439,0.0,0.0
2440,609.75,120.45,127.562,116.589,99.448,91.9153,0.00589712,0.729452,20.1954,100.418,0.716811,0.0,0.0
2480,619.75,121.362,128.367,114.196,99.6241,91.6294,0.00590223,0.68908,20.2393,98.4767,0.761263,0.0,0.0
2520,629.75,118.858,127.226,115.413,99.916,93.8178,0.00497144,0.565006,20.3786,96.9954,0.573088,0.0,0.0
2560,639.75,114.86,124.082,119.213,99.8273,97.4531,0.00254874,0.443012,20.5211,95.8444,0.219049,0.0,0.0
2600,649.75,110.285,119.854,121.053,99.8277,101.462,0.00135767,0.344926,20.639,95.0537,-0.147748,0.0,0.0
2640,659.75,105.608,115.07,122.605,100.272,103.783,0.000598235,0.262277,20.7305,94.4832,-0.313111,0.0,0.0
2680,669.75,100.854,110.662,129.122,100.521,105.871,0.000240581,0.196206,20.8074,94.1229,-0.471879,0.0,0.0
2720,679.75,96.2785,105.755,129.416,100.341,105.562,0.000395614,0.159152,20.8457,93.8727,-0.461565,0.0,0.0
2760,689.75,92.9206,101.268,129.64,99.6992,105.382,0.000270398,0.141766,20.8649,93.6425,-0.504513,0.0,0.0
2800,699.75,89.6529,97.9318,131.233,99.0943,104.739,0.000327063,0.135254,20.8725,93.4623,-0.504114,0.0,0.0
2840,709.75,87.6472,94.4628,131.423,99.0815,104.757,0.000620227,0.134536,20.8743,93.2922,-0.506852,0.0,0.0
2880,719.75,86.025,92.4024,132.32,99.5722,105.427,0.000659837,0.130053,20.8784,93.1721,-0.519958,0.0,0.0
2920,729.75,84.5541,90.3129,132.587,99.987,105.718,0.000729712,0.129123,20.8784,93.072,-0.507238,0.0,0.0
2960,739.75,83.4091,88.6428,132.889,100.162,106.277,0.000370742,0.126405,20.882,92.9819,-0.539276,0.0,0.0
3000,749.75,82.1171,86.7289,131.397,100.14,105.754,0.000922693,0.123865,20.8857,92.8418,-0.496355,0.0,0.0
3040,759.75,80.8836,85.0816,130.318,99.9036,105.787,0.000752177,0.122977,20.887,92.6816,-0.520765,0.0,0.0
3080,769.75,80.4032,83.5471,125.998,99.7032,105.781,0.00097705,0.124695,20.8864,92.5115,-0.538459,0.0,0.0
3120,779.75,80.3261,82.9571,129.761,99.5535,104.992,0.00110809,0.122629,20.8892,92.4514,-0.484047,0.0,0.0
3160,789.75,79.0915,82.0783,131.894,99.4824,105.796,0.000908571,0.12154,20.891,92.2112,-0.559989,0.0,0.0
3200,799.75,78.1952,81.2671,130.724,99.4488,105.321,0.000882005,0.122785,20.8897,92.1612,-0.522101,0.0,0.0
3240,809.75,77.7009,80.2496,131.138,99.4812,105.653,0.00146249,0.122534,20.8917,92.0711,-0.547772,0.0,0.0
3280,819.75,77.3024,79.7163,129.203,99.5754,105.308,0.00149753,0.121772,20.8925,91.951,-0.509398,0.0,0.0
3320,829.75,76.8322,78.7547,131.288,99.7263,105.656,0.00135763,0.123723,20.8893,91.9009,-0.525647,0.0,0.0
3360,839.75,74.6708,77.3836,126.982,99.9391,105.932,0.00195168,0.122958,20.8918,91.6707,-0.529955,0.0,0.0
3400,849.75,74.9214,76.5734,130.021,100.12,106.145,0.00204773,0.122254,20.8958,91.6007,-0.53178,0.0,0.0
3440,859.75,74.3044,76.2207,128.806,100.157,105.602,0.0021453,0.12588,20.8915,91.5106,-0.481766,0.0,0.0
3480,869.75,74.3117,75.6711,131.604,100.089,105.806,0.00212627,0.122947,20.8951,91.3404,-0.505494,0.0,0.0
3520,879.75,73.4636,75.5563,134.93,99.8856,105.523,0.00182901,0.122867,20.8942,91.2504,-0.499595,0.0,0.0
3560,889.75,73.8052,75.6116,130.26,99.488,105.555,0.00233631,0.123255,20.8945,91.2504,-0.538693,0.0,0.0
3600,899.75,73.4018,75.527,133.428,99.1003,105.12,0.00219477,0.122817,20.8962,91.0902,-0.536605,0.0,0.0
3640,909.75,72.7425,75.0794,131.404,98.9725,105.333,0.00272998,0.125416,20.895,90.9801,-0.566842,0.0,0.0
3680,919.75,72.9405,74.2729,132.085,99.3562,105.295,0.00271577,0.123667,20.896,90.7799,-0.528286,0.0,0.0
3720,929.75,72.7528,74.69,133.087,99.9591,106.171,0.00277802,0.123169,20.8978,90.6899,-0.548618,0.0,0.0
3760,939.75,71.656,74.1036,129.278,100.424,106.579,0.00292954,0.124178,20.897,90.5898,-0.541311,0.0,0.0
3800,949.75,72.1437,74.2557,135.001,100.438,106.337,,,,90.5097,-0.519335,0.0,0.0
3829,957,72.003,73.2669,135.595,100.216,106.386,,,,90.5598,-0.543709,0.0,0.0

File: Oak_Flooring_Cone_HF75Scan_220914_R3.csv
Names,Time,Stack TC,Smoke TC,Exh Press,Smoke Comp,Smoke Meas,CO Meter,CO2 Meter,O2 Meter,Sample Mass,Ext Coeff,Start Test,Flame Verif
Chan Gain,,500,500,1,1,1,1,1,1,1,1,1.0,1.0
Offset,,0,0,0.139139,0,0,0,0,0,0,0,0.0,0.0
Gain,,1,1,25.011,13.0826,14.7555,1,1,1,1.00088,1.03743,1.0,1.0
Units,sec,C,C,Pa,%,%,%,%,%,g,/m,,
Baseline,,67.3308,68.9847,135.809,100.205,106.796,-0.00123926,0.0473702,20.9933,-451.48,-0.579688,,
43,10.5,64.9935,67.2317,137.069,99.2356,104.575,-0.000654969,0.0516143,20.9879,204.67,-0.476931,0.0,0.0
86,21.25,76.7529,74.5509,106.391,99.7419,92.299,0.00553644,0.633646,20.2339,202.709,0.705755,0.0,0.0
129,32,93.9139,90.4422,106.148,100.156,92.7065,0.00749126,0.899056,19.9737,200.006,0.703396,0.0,0.0
172,42.75,102.989,101.478,114.171,100.197,95.7375,0.00604658,0.804707,20.1144,197.474,0.414289,0.0,0.0
215,53.5,106.563,107.366,116.803,99.813,95.8672,0.00537163,0.694867,20.2476,195.272,0.367056,0.0,0.0
258,64.25,108.001,110.522,109.444,99.4441,96.2026,0.0057088,0.627839,20.3282,193.11,0.30157,0.0,0.0
301,75,108.296,112.31,117.391,99.8333,95.9284,0.00475418,0.597729,20.364,191.308,0.363101,0.0,0.0
344,85.75,107.912,113.349,115.439,99.9739,98.0732,0.00399216,0.574967,20.3893,189.417,0.174677,0.0,0.0
387,96.5,107.573,113.333,118.355,99.7179,98.4582,0.00428982,0.556822,20.4091,187.605,0.115697,0.0,0.0
430,107.25,106.122,113.252,116.64,99.7151,98.6942,0.00402848,0.523318,20.45,185.734,0.0936588,0.0,0.0
473,118,105.481,112.602,119.445,99.7654,100.115,0.00289996,0.496251,20.4811,184.052,-0.0318164,0.0,0.0
516,128.75,104.604,111.982,122.402,99.7639,100.048,0.00283605,0.479808,20.4975,182.501,-0.0259021,0.0,0.0
559,139.5,102.593,110.633,117.659,99.7171,100.062,0.00258052,0.453924,20.528,180.899,-0.0314338,0.0,0.0
602,150.25,101.939,109.568,123.266,99.6161,100.85,0.0021307,0.444224,20.5409,179.368,-0.112004,0.0,0.0
645,161,101.564,109.022,124.718,99.8066,100.536,0.00236812,0.4414,20.5431,177.827,-0.0662985,0.0,0.0
688,171.75,101.284,108.295,116.753,99.9571,100.913,0.0024312,0.44261,20.5411,176.395,-0.0866363,0.0,0.0
731,182.5,101.142,108.285,120.473,99.9256,101.109,0.00239869,0.449415,20.5349,174.904,-0.107156,0.0,0.0
774,193.25,101.017,107.941,121.916,99.7619,100.551,0.00264871,0.440506,20.5458,173.433,-0.0716803,0.0,0.0
817,204,100.901,107.504,117.885,99.4496,100.068,0.00221618,0.442577,20.5393,171.881,-0.056411,0.0,0.0
860,214.75,101.067,107.645,125.957,99.6221,101.166,0.00221018,0.432625,20.5527,170.39,-0.139978,0.0,0.0
903,225.5,100.342,106.79,117.327,99.9918,99.8902,0.00189214,0.430438,20.5578,168.909,0.00925657,0.0,0.0
946,236.25,100.346,107.031,118.452,100.166,101.595,0.00204855,0.425879,20.5631,167.467,-0.128924,0.0,0.0
989,247,100.625,106.751,121.613,99.9723,100.899,0.00205053,0.418115,20.5719,165.996,-0.0839967,0.0,0.0
1032,257.75,99.9268,106.112,119.91,99.5215,101.027,0.00188297,0.412386,20.5786,164.565,-0.136648,0.0,0.0
1075,268.5,99.7854,105.965,122.029,99.1841,101.096,0.001928,0.404912,20.5859,163.154,-0.173753,0.0,0.0
1118,279.25,99.6343,105.128,124.373,98.9913,100.91,0.00147289,0.398927,20.5902,161.772,-0.174708,0.0,0.0
1161,290,99.3389,104.919,119.901,99.1171,99.7659,0.00191382,0.395107,20.5975,160.331,-0.0593756,0.0,0.0
1204,300.75,98.7267,104.469,121.293,99.4868,101.174,0.00184232,0.396929,20.597,158.95,-0.153038,0.0,0.0
1247,311.5,98.6607,104.092,120.164,99.9343,100.849,0.00143678,0.402008,20.5902,157.439,-0.0829002,0.0,0.0
1290,322.25,98.7955,104.368,125.463,100.231,102.47,0.00194642,0.402713,20.5901,156.017,-0.201009,0.0,0.0
1333,333,98.3672,104.014,120.941,100.407,102.646,0.00160649,0.4078,20.5824,154.566,-0.200773,0.0,0.0
1376,343.75,98.6947,104.401,120.072,100.491,102.428,0.00111802,0.399842,20.5955,153.125,-0.173718,0.0,0.0
1419,354.5,99.069,104.014,120.101,100.533,102.838,0.00143823,0.397437,20.5976,151.734,-0.2063,0.0,0.0
1462,365.25,98.9382,104.206,120.79,100.547,103.252,0.00142773,0.397495,20.5973,150.412,-0.241579,0.0,0.0
1505,376,99.085,103.978,122.09,100.556,102.809,0.00142159,0.397415,20.595,149.011,-0.201647,0.0,0.0
1548,386.75,98.9075,104.071,122.1,100.564,102.798,0.00142019,0.401774,20.5889,147.58,-0.199971,0.0,0.0
1591,397.5,99.2413,104.374,122.605,100.572,103.012,0.001197,0.404217,20.5864,146.199,-0.218201,0.0,0.0
1634,408.25,99.609,104.831,118.84,100.549,102.703,0.000945347,0.410336,20.5795,144.798,-0.192893,0.0,0.0
1677,419,100.442,104.747,126.978,100.488,103.414,0.00110615,0.416339,20.5709,143.356,-0.261172,0.0,0.0
1720,429.75,100.212,105.693,124.424,100.368,102.191,0.00148764,0.42394,20.566,141.925,-0.163757,0.0,0.0
1763,440.5,100.995,106.145,122.615,100.18,101.931,0.0015892,0.430869,20.5556,140.524,-0.157732,0.0,0.0
1806,451.25,101.489,106.688,115.192,99.888,101.278,0.00147347,0.43776,20.5464,139.062,-0.12576,0.0,0.0
1849,462,102.113,106.88,122.281,99.5175,100.299,0.00151176,0.4429,20.5415,137.591,-0.0711451,0.0,0.0
1892,472.75,102.043,107.946,120.742,99.1758,100.157,0.00199292,0.447513,20.5365,136.14,-0.0896125,0.0,0.0
1935,483.5,102.815,108.061,114.708,99.0616,100.284,0.00198845,0.452994,20.5302,134.669,-0.111627,0.0,0.0
1978,494.25,103.115,108.231,121.583,99.1997,100.226,0.00203663,0.451667,20.5308,133.237,-0.0936315,0.0,0.0
2021,505,103.576,108.915,117.167,99.561,100.105,0.00189917,0.455251,20.5254,131.756,-0.0496216,0.0,0.0
2064,515.75,103.763,109.026,120.587,99.9846,100.975,0.0016688,0.452566,20.5298,130.315,-0.0897309,0.0,0.0
2107,526.5,103.723,109.374,115.53,100.229,101.264,0.0019326,0.453799,20.5286,128.894,-0.0934188,0.0,0.0
2150,537.25,104.496,109.398,117.767,100.129,100.703,0.00193747,0.456705,20.5252,127.442,-0.05196,0.0,0.0
2193,548,104.166,109.487,117.841,99.704,100.764,0.00201138,0.460073,20.5205,125.961,-0.0962196,0.0,0.0
2236,558.75,104.325,110.418,117.733,99.6804,99.9843,0.00226581,0.47002,20.5075,124.49,-0.027699,0.0,0.0
2279,569.5,104.807,110.27,120.171,100.011,99.8042,0.00237094,0.481315,20.4956,122.978,0.0188762,0.0,0.0
2322,580.25,105.634,111.292,117.244,99.6421,98.1732,0.00219123,0.495664,20.4772,121.447,0.135155,0.0,0.0
2365,591,106.319,111.822,117.48,100.169,98.8909,0.00251545,0.512125,20.4589,119.906,0.116903,0.0,0.0
2408,601.75,107.747,113.029,112.451,100.567,99.0611,0.00311584,0.528115,20.435,118.294,0.137307,0.0,0.0
2451,612.5,107.931,113.885,116.318,100.461,97.8656,0.003295,0.54537,20.4159,116.593,0.238154,0.0,0.0
2494,623.25,109.598,114.976,111.946,99.8904,97.3928,0.0035283,0.561512,20.3978,114.871,0.230435,0.0,0.0
2537,634,110.522,116.117,112.957,99.2065,96.3868,0.00330205,0.581301,20.3749,113.06,0.2624,0.0,0.0
2580,644.75,111.714,117.292,113.824,99.0783,96.1734,0.00361133,0.596204,20.3523,111.328,0.27081,0.0,0.0
2623,655.5,112.929,118.825,118.181,99.3658,95.7645,0.00390004,0.597773,20.3514,109.627,0.335947,0.0,0.0
2666,666.25,112.797,118.767,119.71,99.7467,94.9224,0.00333466,0.593975,20.3541,107.845,0.451137,0.0,0.0
2709,677,112.452,119.037,118.829,100.031,95.9784,0.00355622,0.569672,20.3791,106.123,0.376322,0.0,0.0
2752,687.75,111.468,117.994,117.121,100.208,97.7917,0.00303206,0.526655,20.4296,104.662,0.222102,0.0,0.0
2795,698.5,109.448,116.628,118.549,100.227,99.1877,0.00222027,0.461309,20.5048,103.381,0.0948216,0.0,0.0
2838,709.25,107.393,114.18,121.826,100.233,100.174,0.00199079,0.405483,20.5714,102.18,0.00532826,0.0,0.0
2881,720,104.307,112.772,120.991,100.238,100.821,0.00135257,0.372777,20.6113,101.119,-0.0527554,0.0,0.0
2924,730.75,103.182,109.742,125.652,100.197,101.522,0.00133693,0.359919,20.6223,100.098,-0.119518,0.0,0.0
2967,741.5,101.477,107.771,124.923,100.098,100.926,0.00107953,0.340074,20.6431,99.2174,-0.0749885,0.0,0.0
3010,752.25,100.358,106.58,126.538,99.8673,101.744,0.000959154,0.323197,20.664,98.3766,-0.169394,0.0,0.0
3053,763,98.0662,104.369,124.732,99.48,101.515,0.000662645,0.297019,20.6923,97.616,-0.184268,0.0,0.0
3096,773.75,96.2859,102.454,126.112,99.1494,102.642,0.000314861,0.267237,20.7269,96.9654,-0.315043,0.0,0.0
3139,784.5,93.7962,99.7102,126.095,99.0388,103.825,0.000152558,0.237403,20.7577,96.515,-0.429519,0.0,0.0
3182,795.25,92.0218,97.4669,127.576,99.0991,104.421,-6.31124e-05,0.201116,20.8023,95.9945,-0.476011,0.0,0.0
3225,806,88.8233,94.5662,132.755,99.2608,104.359,-7.14491e-06,0.16526,20.8412,95.6642,-0.455796,0.0,0.0
3268,816.75,86.0563,91.8913,130.986,99.6624,105.687,0.000461324,0.140107,20.8724,95.424,-0.534115,0.0,0.0
3311,827.5,83.7595,89.5581,129.473,100.106,105.758,0.000620586,0.132612,20.8794,95.2439,-0.499827,0.0,0.0
3354,838.25,82.6391,87.2801,129.983,100.411,105.971,0.000331962,0.129124,20.8842,95.0837,-0.490524,0.0,0.0
3397,849,81.1062,85.679,131.19,100.538,106.604,0.000727623,0.12759,20.8862,94.8936,-0.533158,0.0,0.0
3440,859.75,80.1895,84.2261,131.014,100.526,106.302,0.000456819,0.127109,20.8883,94.8135,-0.508338,0.0,0.0
3483,870.5,79.3588,83.0043,130.954,100.374,106.051,0.00111613,0.125552,20.89,94.6734,-0.500657,0.0,0.0
3526,881.25,78.5598,81.9566,132.545,100.145,106.005,0.000768226,0.123889,20.8931,94.5232,-0.517479,0.0,0.0
3569,892,77.933,81.4604,132.349,99.8992,106.248,0.00110457,0.121507,20.8931,94.3631,-0.560745,0.0,0.0
3612,902.75,75.7041,78.6574,129.815,99.688,105.754,0.00108155,0.124601,20.8909,94.283,-0.537519,0.0,0.0
3655,913.5,74.894,77.7585,131.508,99.8705,105.28,0.00106441,0.120841,20.8947,94.1529,-0.480022,0.0,0.0
3698,924.25,74.4292,77.0102,132.785,100.017,106.37,0.00100348,0.120031,20.8978,94.0028,-0.560428,0.0,0.0
3741,935,73.8659,75.9761,137.062,100.029,106.249,0.00113571,0.120527,20.8972,93.8627,-0.548971,0.0,0.0
3784,945.75,73.7759,76.0528,135.722,99.9619,106.281,0.00128216,0.119405,20.8973,93.6925,-0.557814,0.0,0.0
3827,956.5,73.1187,75.5364,132.202,99.8876,105.929,0.00140063,0.118456,20.8985,93.6725,-0.534375,0.0,0.0
3870,967.25,72.8621,75.3495,133.758,99.8441,105.836,0.00150945,0.118193,20.8988,93.5023,-0.530407,0.0,0.0
3913,978,72.3309,75.3395,135.554,99.7698,105.996,0.00120941,0.118534,20.8988,93.3922,-0.550874,0.0,0.0
3956,988.75,72.1767,74.3008,135.244,99.666,105.699,0.00129334,0.118657,20.9012,93.3022,-0.534795,0.0,0.0
3999,999.5,71.9898,74.4593,134.3,99.5858,105.966,0.00174073,0.117864,20.9011,93.2321,-0.565087,0.0,0.0
4042,1010.25,72.1685,74.1451,128.941,99.6381,106.01,,0.118418,,93.112,-0.564137,0.0,0.0
4075,1018.5,71.8531,74.0394,133.148,99.7195,105.997,,,,93.0219,-0.555541,0.0,0.0