Folder: fsri_materials_database/01_Data/Oak_Flooring/HFM

Note: 01_Data/README.md
# Materials and Products Database
## 01_Data

Raw data generated from each apparatus are included here in plain-text format. The data is organized first by material, next by the short name of test apparatus used, and where applicable additional filtering by test settings.

### material.json

Each material directory contains a json file of the same name as the material. This file links the data stored in the repository as well as data and graphs produced by the accompanying scripts (__02_Scripts__) to the respective landing page for the material on the front-end website.

File: Oak_Flooring_Density_Dry_R1.csv
,Oak_Flooring_DRY_1
Sample Mass [g],460.6
Sample Volume [cm3],699.4
Sample Density [kg/m3],659

File: Oak_Flooring_Density_Dry_R2.csv
,Oak_Flooring_DRY_2
Sample Mass [g],470.9
Sample Volume [cm3],699.4
Sample Density [kg/m3],673

File: Oak_Flooring_Density_Dry_R3.csv
,Oak_Flooring_DRY_3
Sample Mass [g],399.6
Sample Volume [cm3],615.9
Sample Density [kg/m3],649

File: Oak_Flooring_Density_Wet_R1.csv
,Oak_Flooring_WET_1
Sample Mass [g],498.1
Sample Volume [cm3],699.4
Sample Density [kg/m3],712

File: Oak_Flooring_Density_Wet_R2.csv
,Oak_Flooring_WET_2
Sample Mass [g],509.1
Sample Volume [cm3],699.4
Sample Density [kg/m3],728

File: Oak_Flooring_Density_Wet_R3.csv
,Oak_Flooring_WET_3
Sample Mass [g],431.8
Sample Volume [cm3],615.9
Sample Density [kg/m3],701