Folder: fsri_materials_database/01_Data/Oak_Flooring/MCC

Note: 01_Data/README.md
# Materials and Products Database
## 01_Data

Raw data generated from each apparatus are included here in plain-text format. The data is organized first by material, next by the short name of test apparatus used, and where applicable additional filtering by test settings.

### material.json

Each material directory contains a json file of the same name as the material. This file links the data stored in the repository as well as data and graphs produced by the accompanying scripts (__02_Scripts__) to the respective landing page for the material on the front-end website.

File: Oak_Flooring_MCC_30K_min_211105_R2.txt
Sample ID:	C:\MCC\MCC Cal\Test\Oak_HWF_MCC_30K_min_211105_R2.txt
Sample Weight (mg):	4.81
Heating Rate (C/s):	0.5
Combustor Temp (C):	900
N2 Flow Rate (cc/min):	80
O2 Flow Rate (cc/min):	20
Calibration File:	C:\MCC\MCC Cal\Coeff1 JN10440_30_210304.txt.txt
T Correction Coefficients:	0	1.024463	0
Time Shift (s):	14
*
Time (s)	Temperature (C)	N2 flow rate (cc/min)	O2 flow rate (cc/min)	Flow Rate (cc/min)	Oxygen (%)	HRR (W/g)	Heating rate (C/s)
0.000	106.032	80.027	19.997	103.019	20.203	-0.011	0.037
8.000	105.985	80.029	19.994	103.019	20.206	-0.215	-0.035
16.000	106.072	80.012	19.994	103.091	20.190	0.891	-0.003
24.000	106.338	80.013	19.996	103.181	20.174	1.941	0.041
32.000	107.086	80.009	19.995	103.224	20.164	2.639	0.125
40.000	108.297	80.024	19.995	103.255	20.156	3.134	0.163
48.000	110.031	80.023	19.996	103.286	20.159	2.972	0.240
56.000	112.112	80.026	19.996	103.290	20.149	3.625	0.258
64.000	114.582	80.017	19.995	103.292	20.147	3.732	0.316
72.000	117.371	80.017	19.997	103.305	20.147	3.720	0.383
80.000	120.395	80.023	19.998	103.312	20.144	3.980	0.382
88.000	123.650	80.027	19.994	103.302	20.143	4.019	0.417
96.000	127.054	80.028	19.998	103.311	20.141	4.183	0.421
104.000	130.565	80.027	19.997	103.315	20.143	4.038	0.416
112.001	134.255	80.029	19.999	103.321	20.145	3.893	0.456
120.001	138.103	80.018	19.998	103.315	20.136	4.473	0.493
128.000	141.997	80.011	19.996	103.306	20.135	4.522	0.496
136.000	146.001	80.010	19.996	103.290	20.142	4.065	0.514
144.000	150.010	80.013	19.994	103.292	20.142	4.111	0.456
152.000	154.072	80.011	19.993	103.288	20.139	4.273	0.518
160.000	158.071	80.006	19.995	103.292	20.135	4.572	0.562
168.000	162.031	80.010	19.995	103.291	20.143	4.019	0.493
176.000	166.048	80.007	19.996	103.276	20.144	3.926	0.515
184.000	169.957	80.008	19.994	103.268	20.139	4.288	0.414
192.000	174.000	80.008	19.995	103.271	20.142	4.083	0.538
200.000	177.887	80.009	19.995	103.242	20.149	3.611	0.485
208.000	181.886	80.011	19.995	103.281	20.148	3.700	0.529
216.000	185.856	80.011	19.997	103.253	20.143	4.037	0.517
224.000	189.699	80.011	19.994	103.278	20.145	3.899	0.466
232.000	193.683	80.011	19.994	103.258	20.140	4.243	0.504
240.000	197.635	80.009	19.994	103.255	20.139	4.308	0.496
248.000	201.562	80.009	19.994	103.259	20.134	4.598	0.518
256.000	205.566	80.009	19.994	103.256	20.136	4.480	0.489
264.000	209.568	80.010	19.994	103.255	20.131	4.806	0.492
272.000	213.590	80.009	19.994	103.261	20.122	5.400	0.510
280.000	217.656	80.010	19.994	103.262	20.117	5.789	0.521
288.000	221.647	80.010	19.994	103.257	20.107	6.426	0.487
296.000	225.717	80.009	19.995	103.254	20.100	6.920	0.499
304.000	229.756	80.008	19.995	103.266	20.095	7.204	0.532
312.000	233.810	80.010	19.995	103.260	20.087	7.791	0.523
320.000	237.824	80.010	19.995	103.251	20.081	8.187	0.485
328.000	241.803	80.010	19.994	103.255	20.067	9.116	0.485
336.000	245.725	80.010	19.995	103.261	20.048	10.377	0.500
344.000	249.645	80.008	19.995	103.270	20.029	11.625	0.529
352.000	253.581	80.008	19.995	103.274	20.016	12.541	0.496
360.000	257.488	80.008	19.995	103.294	19.983	14.722	0.466
368.000	261.482	80.010	19.995	103.313	19.951	16.881	0.509
376.000	265.455	80.009	19.995	103.323	19.915	19.292	0.541
384.000	269.407	80.009	19.995	103.309	19.883	21.442	0.491
392.000	273.431	80.010	19.995	103.325	19.847	23.833	0.479
400.000	277.445	80.010	19.995	103.339	19.799	27.044	0.531
408.000	281.416	80.007	19.996	103.340	19.762	29.586	0.464
416.000	285.403	80.008	19.994	103.351	19.719	32.422	0.511
424.000	289.404	80.011	19.994	103.375	19.679	35.157	0.501
432.000	293.402	80.007	19.995	103.375	19.642	37.629	0.475
440.000	297.503	80.009	19.995	103.397	19.607	39.990	0.494
448.000	301.542	80.010	19.994	103.403	19.577	41.981	0.498
456.000	305.588	80.010	19.996	103.396	19.546	44.063	0.508
464.000	309.670	80.010	19.994	103.405	19.516	46.098	0.517
472.000	313.813	80.009	19.996	103.407	19.485	48.177	0.491
480.000	317.895	80.011	19.994	103.419	19.447	50.701	0.519
488.000	321.981	80.009	19.995	103.447	19.406	53.485	0.527
496.000	326.023	80.008	19.996	103.455	19.354	56.979	0.505
504.000	330.064	80.008	19.995	103.483	19.291	61.250	0.527
512.000	334.135	80.009	19.996	103.489	19.227	65.558	0.528
520.000	338.140	80.009	19.996	103.525	19.163	69.833	0.495
528.000	342.114	80.009	19.994	103.530	19.104	73.812	0.493
536.000	346.140	80.009	19.995	103.529	19.063	76.535	0.531
544.000	350.140	80.010	19.994	103.526	19.053	77.209	0.480
552.000	354.099	80.010	19.993	103.493	19.074	75.748	0.501
560.000	358.061	80.011	19.994	103.448	19.147	70.767	0.465
568.000	361.971	80.010	19.993	103.371	19.282	61.723	0.474
576.000	365.957	80.009	19.995	103.333	19.443	50.857	0.500
584.000	370.063	80.009	19.995	103.257	19.628	38.468	0.519
592.000	374.327	80.008	19.995	103.213	19.801	26.939	0.556
600.000	378.601	80.009	19.996	103.210	19.919	18.974	0.535
608.000	382.954	80.009	19.996	103.179	19.990	14.226	0.527
616.000	387.220	80.011	19.995	103.179	20.027	11.779	0.530
624.000	391.404	80.010	19.994	103.176	20.044	10.641	0.531
632.000	395.576	80.009	19.994	103.174	20.054	9.956	0.460
640.000	399.624	80.010	19.995	103.183	20.059	9.655	0.519
648.000	403.511	80.010	19.994	103.168	20.072	8.740	0.499
656.000	407.333	80.008	19.994	103.152	20.075	8.559	0.477
664.000	411.073	80.009	19.995	103.165	20.083	8.041	0.461
672.000	414.673	80.009	19.995	103.142	20.090	7.544	0.422
680.000	418.345	80.007	19.995	103.171	20.089	7.641	0.454
688.000	422.104	80.009	19.995	103.176	20.091	7.466	0.446
696.000	426.065	80.006	19.995	103.176	20.091	7.459	0.494
704.000	430.100	80.010	19.996	103.173	20.094	7.289	0.502
712.000	434.179	80.012	19.995	103.164	20.096	7.160	0.487
720.000	438.307	80.011	19.995	103.172	20.098	7.041	0.478
728.000	442.500	80.010	19.995	103.166	20.096	7.158	0.545
736.000	446.567	80.012	19.995	103.166	20.104	6.625	0.485
744.000	450.742	80.010	19.995	103.169	20.107	6.423	0.550
752.000	454.925	80.010	19.993	103.173	20.112	6.071	0.532
760.000	459.140	80.010	19.994	103.175	20.116	5.831	0.534
768.000	463.373	80.009	19.995	103.173	20.122	5.419	0.520
776.000	467.577	80.008	19.995	103.173	20.127	5.070	0.521
784.000	471.809	80.009	19.994	103.169	20.130	4.878	0.494
792.000	476.109	80.011	19.995	103.168	20.135	4.518	0.511
800.000	480.373	80.011	19.995	103.170	20.135	4.538	0.519
808.000	484.600	80.012	19.994	103.171	20.139	4.287	0.551
816.000	488.784	80.010	19.995	103.172	20.142	4.055	0.535
824.000	492.985	80.007	19.995	103.175	20.140	4.245	0.561
832.000	497.161	80.008	19.994	103.168	20.142	4.077	0.529
840.000	501.223	80.009	19.995	103.171	20.138	4.354	0.498
848.000	505.283	80.009	19.995	103.174	20.139	4.310	0.488
856.000	509.376	80.008	19.995	103.168	20.140	4.208	0.515
864.000	513.430	80.008	19.995	103.171	20.143	4.034	0.512
872.000	517.668	80.010	19.995	103.170	20.139	4.258	0.532
880.000	521.886	80.010	19.996	103.168	20.142	4.052	0.520
888.000	526.013	80.009	19.995	103.168	20.144	3.913	0.518
896.000	530.182	80.010	19.995	103.149	20.142	4.084	0.507
904.000	534.309	80.010	19.994	103.155	20.137	4.384	0.519
912.000	538.338	80.010	19.995	103.152	20.143	4.026	0.485
920.000	542.371	80.011	19.994	103.157	20.139	4.251	0.508
928.000	546.356	80.008	19.995	103.141	20.142	4.066	0.503
936.000	550.358	80.011	19.994	103.164	20.142	4.085	0.516
944.000	554.422	80.009	19.994	103.169	20.142	4.063	0.499
952.000	558.527	80.011	19.995	103.163	20.140	4.199	0.497
960.000	562.620	80.010	19.995	103.153	20.142	4.051	0.466
968.000	566.740	80.009	19.994	103.163	20.143	4.013	0.537
976.000	570.838	80.011	19.994	103.167	20.138	4.335	0.509
984.000	575.040	80.010	19.996	103.162	20.141	4.167	0.534
992.000	579.180	80.009	19.996	103.162	20.144	3.964	0.492
1000.000	583.310	80.010	19.995	103.154	20.148	3.701	0.523
1008.000	587.450	80.010	19.994	103.157	20.144	3.967	0.504
1016.000	591.512	80.010	19.994	103.146	20.143	4.033	0.501
1024.000	595.651	80.009	19.995	103.167	20.145	3.866	0.536
1032.000	599.706	80.009	19.994	103.168	20.146	3.793	0.542
1040.000	603.755	80.012	19.993	103.159	20.143	4.020	0.529
1048.001	607.751	80.011	19.994	103.141	20.145	3.896	0.480
1056.000	611.667	80.011	19.996	103.152	20.147	3.759	0.505
1064.000	615.658	80.013	19.994	103.149	20.142	4.067	0.507
1072.000	619.617	80.009	19.994	103.138	20.141	4.119	0.440
1080.000	623.502	80.008	19.995	103.138	20.142	4.078	0.471
1088.000	627.260	80.008	19.995	103.144	20.144	3.922	0.457
1096.001	630.955	80.009	19.994	103.138	20.146	3.830	0.455
1104.000	634.806	80.008	19.993	103.165	20.143	3.998	0.476
1112.001	638.840	80.010	19.994	103.145	20.142	4.103	0.529
1120.000	642.989	80.011	19.995	103.140	20.141	4.175	0.531
1128.000	647.103	80.012	19.994	103.138	20.143	4.012	0.558
1136.001	651.297	80.010	19.994	103.143	20.140	4.231	0.508
1144.000	655.453	80.012	19.994	103.133	20.139	4.309	0.531
1152.000	659.580	80.010	19.994	103.132	20.144	3.947	0.508
1160.000	663.546	80.008	19.995	103.138	20.147	3.743	0.496
1168.000	667.573	80.009	19.993	103.141	20.146	3.817	0.476
1176.000	671.557	80.012	19.996	103.134	20.142	4.107	0.485
1184.001	675.479	80.009	19.995	103.134	20.142	4.043	0.475
1192.000	679.363	80.010	19.995	103.132	20.140	4.196	0.494
1200.000	683.262	80.012	19.995	103.133	20.141	4.164	0.485
1208.000	687.146	80.012	19.994	103.132	20.145	3.870	0.463
1216.000	691.099	80.011	19.995	103.144	20.141	4.160	0.498
1224.000	695.097	80.012	19.994	103.134	20.145	3.877	0.490
1232.000	699.066	80.012	19.994	103.130	20.140	4.181	0.522
1240.001	703.113	80.009	19.994	103.133	20.141	4.114	0.462
1248.000	707.213	80.008	19.994	103.122	20.139	4.270	0.511
1256.000	711.395	80.012	19.995	103.131	20.140	4.207	0.512
1264.000	715.675	80.011	19.994	103.130	20.139	4.285	0.554
1272.001	719.950	80.009	19.996	103.130	20.140	4.199	0.556
1280.000	724.226	80.009	19.995	103.135	20.144	3.925	0.566
1288.000	728.455	80.012	19.994	103.133	20.140	4.199	0.511
1296.000	732.580	80.011	19.995	103.134	20.138	4.327	0.515
1304.000	736.640	80.011	19.994	103.133	20.143	3.990	0.477
1312.000	740.687	80.014	19.994	103.131	20.145	3.852	0.517
1318.000	743.704	80.013	19.994	103.119	20.147	3.772	0.500