Folder: fsri_materials_database/01_Data/House_Wrap/Cone

Note: 01_Data/README.md
# Materials and Products Database
## 01_Data

Raw data generated from each apparatus are included here in plain-text format. The data is organized first by material, next by the short name of test apparatus used, and where applicable additional filtering by test settings.

### material.json

Each material directory contains a json file of the same name as the material. This file links the data stored in the repository as well as data and graphs produced by the accompanying scripts (__02_Scripts__) to the respective landing page for the material on the front-end website.

File: House_Wrap_Cone_HF25Scalar_220401_R3.csv
LABORATORY,FSRI
TEST IDENT,Tyvek_HF25_3
OPERATOR,Dow
MATERIAL,Tyvek
ORIENTATION,Horizontal
HEAT FLUX,25
SURF AREA,0.01
C FACTOR,0.0397155
SPEC HOLDER DIFF,-566
SPECIMEN MASS,0.66
SCAN TIME,0.25
O2 DELAY TIME,11
CO DELAY TIME,11
CO2 DELAY TIME,8
FLOW FACTOR,1
SCAN COUNT,2885
TIME TO IGN,0
END OF TEST SCAN,2405
END OF TEST TIME,601.25
TEST STATUS,1
PRE TEST CMT,Dimensions: 102.04 x 101.45 x 0.11 mm; with frame; with calcium silicate substrate
POST TEST CMT,The sample shriveled and did not ignite. Ended test at 10 minutes.

File: House_Wrap_Cone_HF25Scan_220401_R3.csv
Names,Time,Stack TC,Smoke TC,Exh Press,Smoke Comp,Smoke Meas,CO Meter,CO2 Meter,O2 Meter,Sample Mass,Ext Coeff,Start Test,Flame Verif
Chan Gain,,500,500,1,1,1,1,1,1,1,1,1.0,1.0
Offset,,0,0,0.133521,0,0,0,0,0,0,0,0.0,0.0
Gain,,1,1,25.011,13.1585,13.8929,1,1,1,1.00096,1.01488,1.0,1.0
Units,sec,C,C,Pa,%,%,%,%,%,g,/m,,
Baseline,,19.9892,20.8262,151.71,99.1432,98.0351,0.000754215,0.0664036,21.0266,-834.347,0.100131,,
31,7.5,18.3864,19.9326,151.914,97.7733,95.8145,0.000622755,0.0657851,21.0314,185.188,0.180162,0.0,0.0
62,15.25,19.0171,19.3816,153.662,97.8363,95.8887,0.000774055,0.0665114,21.0276,185.168,0.179009,0.0,0.0
93,23,19.0919,20.4126,150.825,98.5828,97.4532,0.000800396,0.0695976,21.022,185.158,0.102601,0.0,0.0
124,30.75,19.5739,20.0278,148.11,99.0587,97.5431,0.00061406,0.0698071,21.0206,185.148,0.137263,0.0,0.0
155,38.5,19.3854,19.8773,152.443,98.978,97.1255,0.00052551,0.0691539,21.0201,185.158,0.168202,0.0,0.0
186,46.25,18.5999,20.243,155.783,98.9804,97.3256,0.000722424,0.0697058,21.0198,185.178,0.150096,0.0,0.0
217,54,19.0497,20.0231,154.024,99.5273,98.0574,0.000826904,0.0688262,21.0232,185.148,0.132465,0.0,0.0
248,61.75,19.5782,20.1915,149.935,99.1711,97.4735,0.000642195,0.0676759,21.0231,185.138,0.153711,0.0,0.0
279,69.5,19.1909,20.0822,152.652,99.7353,97.3536,0.000570821,0.0671393,21.0236,185.148,0.21518,0.0,0.0
310,77.25,18.8963,20.1671,151.692,99.4081,97.7237,0.000740561,0.0661463,21.026,185.168,0.152136,0.0,0.0
341,85,19.2461,20.0006,156.418,98.3102,96.1757,0.000697878,0.0658663,21.0268,185.168,0.195413,0.0,0.0
372,92.75,19.3352,20.1824,152.989,97.7018,95.8149,0.00075909,0.0656996,21.0286,185.148,0.173612,0.0,0.0
403,100.5,19.5453,20.2102,153.937,98.3009,96.138,0.000229733,0.0658872,21.0276,185.128,0.19807,0.0,0.0
434,108.25,20.0465,20.2241,146.296,99.025,96.919,0.000599532,0.065364,21.0291,185.148,0.191373,0.0,0.0
465,116,19.734,20.5959,151.927,98.943,96.7583,0.000735128,0.0643026,21.0345,185.158,0.198778,0.0,0.0
496,123.75,19.9563,20.3646,149.47,98.9206,96.7926,0.000769671,0.064075,21.035,185.148,0.193595,0.0,0.0
527,131.5,20.0227,20.8147,157.328,99.5153,97.1318,0.000495714,0.0648127,21.0335,185.138,0.215815,0.0,0.0
558,139.25,19.5464,20.8698,151.534,99.1105,96.8253,0.000669038,0.0654826,21.0312,185.118,0.20767,0.0,0.0
589,147,20.2473,20.4476,151.882,99.7044,96.8605,0.000506229,0.0669519,21.0261,185.118,0.257624,0.0,0.0
620,154.75,19.8994,20.6506,149.229,99.445,97.1301,0.000517413,0.0671073,21.0269,185.118,0.209682,0.0,0.0
651,162.5,19.8102,20.6858,154.143,98.2744,95.1497,0.000489433,0.0668914,21.0269,185.128,0.28766,0.0,0.0
682,170.25,20.0419,21.1221,151.477,97.7472,95.2833,0.000498672,0.0675362,21.0248,185.108,0.227282,0.0,0.0
713,178,19.9729,20.6679,152.337,98.3419,95.7581,0.000510629,0.0677289,21.0237,185.138,0.237026,0.0,0.0
744,185.75,19.9525,21.098,152.024,99.0009,96.2012,0.000535306,0.0673636,21.0251,185.108,0.255385,0.0,0.0
775,193.5,19.9077,21.1276,151.556,98.9808,96.4564,0.000695341,0.0668542,21.0252,185.098,0.229992,0.0,0.0
806,201.25,20.0008,20.7398,154.048,98.7218,96.2406,0.000502817,0.0671165,21.0252,185.108,0.226605,0.0,0.0
837,209,19.8978,21.0645,153.212,99.2667,96.8626,0.000585871,0.0671989,21.0265,185.098,0.218262,0.0,0.0
868,216.75,19.8336,21.1642,148.785,99.5052,96.9499,0.000630757,0.0675728,21.0239,185.098,0.231603,0.0,0.0
899,224.5,19.6193,20.9243,153.657,99.0029,96.3178,0.000529712,0.0676805,21.0234,185.088,0.244782,0.0,0.0
930,232.25,20.0101,20.9417,153.179,99.3575,96.8109,0.000221725,0.0672385,21.0261,185.088,0.231151,0.0,0.0
961,240,19.9155,21.0581,155.814,99.712,97.2374,0.000558176,0.0668915,21.027,185.078,0.22373,0.0,0.0
992,247.75,20.3084,20.8075,151.434,99.7233,97.3264,0.000292287,0.066627,21.029,185.078,0.216586,0.0,0.0
1023,255.5,19.9947,20.6715,149.425,99.345,96.7401,0.000411987,0.0666046,21.0274,185.078,0.236549,0.0,0.0
1054,263.25,20.3688,21.4336,152.376,98.7909,96.3097,0.000265871,0.0665251,21.027,185.078,0.226441,0.0,0.0
1085,271,20.1816,20.9447,149.1,98.2234,96.0413,0.000337274,0.0664755,21.0264,185.078,0.200005,0.0,0.0
1116,278.75,20.2534,20.4446,153.552,97.8432,95.2332,0.000378999,0.0666356,21.0278,185.068,0.240694,0.0,0.0
1147,286.5,20.0423,20.6341,153.196,97.7946,95.2591,0.000510493,0.0670982,21.0257,185.078,0.233855,0.0,0.0
1178,294.25,19.9431,21.0674,150.418,97.9672,95.2477,0.000597405,0.0671997,21.0255,185.068,0.250629,0.0,0.0
1209,302,19.7581,20.7779,152.316,98.303,96.0061,0.000474021,0.0669558,21.0277,185.058,0.210471,0.0,0.0
1240,309.75,20.5448,21.1136,154.856,98.6692,96.0295,0.000468206,0.0672514,21.0268,185.058,0.241413,0.0,0.0
1271,317.5,20.3755,21.3508,158.181,98.9435,96.7049,0.000418022,0.0674306,21.0255,185.068,0.20373,0.0,0.0
1302,325.25,19.8385,21.1918,154.208,99.0744,96.4454,0.000742623,0.0667987,21.0234,185.058,0.23942,0.0,0.0
1333,333,20.1803,20.8858,153.32,99.0956,96.9105,0.00024446,0.0667176,21.0244,185.058,0.198504,0.0,0.0
1364,340.75,20.0233,21.3735,149.779,99.0286,96.3848,0.000352628,0.0667641,21.0245,185.058,0.240904,0.0,0.0
1395,348.5,20.1901,20.9639,149.954,98.9234,96.8092,0.00057953,0.0666303,21.0267,185.058,0.192328,0.0,0.0
1426,356.25,20.2097,20.9455,148.845,98.8129,96.5209,0.000414293,0.0662576,21.0262,185.068,0.208936,0.0,0.0
1457,364,20.4474,20.4671,148.537,98.7182,95.8522,0.000647606,0.0658133,21.0279,185.058,0.262277,0.0,0.0
1488,371.75,19.8811,21.1889,153.959,98.6515,96.2169,0.000424324,0.0658009,21.0316,185.048,0.222462,0.0,0.0
1519,379.5,20.4692,20.8576,150.551,98.8519,96.1872,0.000594779,0.0654682,21.0323,185.038,0.243273,0.0,0.0
1550,387.25,19.7955,20.7151,154.204,99.2081,97.0229,0.000444308,0.0656544,21.0322,185.038,0.198284,0.0,0.0
1581,395,20.1779,20.8637,152.852,99.3968,97.1924,0.000556266,0.0656882,21.0293,185.028,0.199656,0.0,0.0
1612,402.75,20.2728,20.8812,150.379,99.4823,96.7193,0.000930408,0.0661603,21.0292,185.038,0.250759,0.0,0.0
1643,410.5,20.1187,20.5391,152.732,99.4635,97.323,0.000629632,0.0676019,21.0282,185.058,0.193672,0.0,0.0
1674,418.25,20.456,20.8778,154.614,99.4972,97.3124,0.000515756,0.0668651,21.025,185.048,0.19766,0.0,0.0
1705,426,19.937,20.6957,157.971,99.5084,96.9737,0.000336519,0.0672248,21.0243,185.038,0.229711,0.0,0.0
1736,433.75,20.2486,20.7645,153.896,99.5201,97.0411,0.000460335,0.0670486,21.026,185.018,0.224566,0.0,0.0
1767,441.5,19.7432,20.8738,151.972,99.5181,97.2709,0.00040624,0.0665719,21.0309,185.028,0.20333,0.0,0.0
1798,449.25,19.9196,20.8179,152.314,99.5153,96.3843,0.000353184,0.0663352,21.0325,185.018,0.284589,0.0,0.0
1829,457,20.3164,20.77,153.05,99.5028,97.2688,0.000582581,0.0668244,21.0289,185.018,0.20216,0.0,0.0
1860,464.75,19.7481,21.1122,150.206,99.492,97.0653,0.000582204,0.0670564,21.0286,185.008,0.219833,0.0,0.0
1891,472.5,20.2346,21.1085,155.342,99.4852,97.2565,0.000565979,0.0677799,21.0265,185.028,0.201703,0.0,0.0
1922,480.25,19.9376,21.1818,146.476,99.4944,97.2815,0.000580579,0.0683141,21.0266,185.018,0.20024,0.0,0.0
1953,488,20.4918,21.2381,148.3,99.4767,96.6502,0.000380619,0.0674706,21.0301,185.018,0.25662,0.0,0.0
1984,495.75,19.8403,21.0936,154.181,99.453,97.4545,0.000510156,0.0672181,21.0307,185.028,0.180722,0.0,0.0
2015,503.5,20.0545,20.5295,154.838,99.4253,96.6807,0.000429347,0.0670264,21.0296,185.018,0.249207,0.0,0.0
2046,511.25,20.8118,21.3471,153.074,99.394,97.0127,0.000623646,0.0668056,21.0285,184.998,0.215886,0.0,0.0
2077,519,20.0864,20.9937,150.482,99.3285,96.8859,0.000599777,0.0666796,21.0259,184.998,0.221662,0.0,0.0
2108,526.75,20.3599,21.1882,149.167,99.2587,97.0199,0.000449399,0.0671292,21.0261,185.008,0.203095,0.0,0.0
2139,534.5,20.1402,20.8306,156.106,99.1462,96.8465,0.000353917,0.0670206,21.0262,184.988,0.208932,0.0,0.0
2170,542.25,20.5313,21.3003,149.458,99.0687,96.3042,0.000651021,0.0670443,21.0262,184.988,0.251957,0.0,0.0
2201,550,20.6545,20.5923,148.427,98.929,96.5285,0.000512432,0.0673333,21.0241,184.988,0.218681,0.0,0.0
2232,557.75,20.0664,20.6233,150.419,98.7997,96.7634,0.000661175,0.0679893,21.0258,184.998,0.185402,0.0,0.0
2263,565.5,20.3858,20.9274,150.771,98.6527,96.7159,0.000378436,0.0687786,21.0261,184.988,0.176518,0.0,0.0
2294,573.25,20.1926,21.1437,154.007,98.6628,95.8654,0.000421809,0.0685132,21.0238,184.988,0.256058,0.0,0.0
2325,581,20.4619,21.6373,149.127,98.6828,96.4331,0.000663539,0.0689228,21.026,184.978,0.205305,0.0,0.0
2356,588.75,20.2316,21.0524,152.628,98.684,96.4853,0.000399471,0.0706064,21.0239,184.978,0.200599,0.0,0.0
2387,596.5,19.9744,21.0881,153.849,98.7254,96.0579,0.000354412,0.0697718,21.0252,184.968,0.243851,0.0,0.0
2418,604.25,19.4442,20.7051,156.843,98.7535,96.3394,0.000426083,0.0685738,21.0239,184.968,0.220332,0.0,0.0
2449,612,19.807,20.4108,150.682,98.7997,96.6472,0.000469531,0.0679018,21.0243,184.988,0.196096,0.0,0.0
2480,619.75,20.0141,20.6785,149.337,98.8463,96.2512,0.000529071,0.0687458,21.025,184.968,0.236843,0.0,0.0
2511,627.5,19.7799,20.5567,156.109,98.8844,96.5976,0.000430825,0.0684218,21.0241,184.968,0.208297,0.0,0.0
2542,635.25,19.9178,20.6353,153.684,98.9214,96.7206,9.6224e-05,0.0678659,21.0259,184.968,0.200299,0.0,0.0
2573,643,19.8139,20.4344,153.619,98.9475,96.0341,0.000210104,0.0680338,21.0264,184.968,0.266053,0.0,0.0
2604,650.75,19.6618,21.0468,152.536,98.9872,96.6213,0.000672467,0.0678605,21.026,184.958,0.215361,0.0,0.0
2635,658.5,20.1624,20.9798,152.132,99.0298,96.3886,0.000599299,0.0674033,21.028,184.958,0.24066,0.0,0.0
2666,666.25,19.689,20.61,149.572,99.0667,97.2052,0.000449148,0.0674924,21.0281,184.958,0.168878,0.0,0.0
2697,674,20.2971,20.8325,150.267,99.0812,96.4297,0.000374444,0.0675518,21.0256,184.968,0.241482,0.0,0.0
2728,681.75,20.0451,20.8854,150.537,99.1205,96.4772,0.000479165,0.0672829,21.0285,184.958,0.240634,0.0,0.0
2759,689.5,19.6639,21.0277,152.601,99.1121,96.7435,0.000639709,0.0674526,21.0286,184.958,0.215341,0.0,0.0
2790,697.25,20.0127,20.5331,149.654,99.1049,96.8244,0.000603998,0.0675601,21.0266,184.948,0.207243,0.0,0.0
2821,705,19.8023,20.5942,154.162,99.0663,96.5891,0.000803792,0.0673937,21.0261,184.958,0.225441,0.0,0.0
2852,712.75,19.3372,20.2687,150.434,98.9952,96.6998,,0.0677643,,184.948,0.208858,0.0,0.0
2883,720.5,19.5139,20.7778,150.273,98.882,96.7549,,,,184.938,0.193597,0.0,0.0
2885,721,19.6252,20.9132,151.75,98.8856,96.5535,,,,184.948,0.21247,0.0,0.0

File: House_Wrap_Cone_HF50Scalar_220308_R1.csv
LABORATORY,FSRI
TEST IDENT,Tyvek_HF50_1
OPERATOR,Dow
MATERIAL,Tyvek
ORIENTATION,Horizontal
HEAT FLUX,50
SURF AREA,0.00884
C FACTOR,0.039038
SPEC HOLDER DIFF,-566
SPECIMEN MASS,0.6
SCAN TIME,0.25
O2 DELAY TIME,11
CO DELAY TIME,11
CO2 DELAY TIME,8
FLOW FACTOR,1
SCAN COUNT,2890
TIME TO IGN,0
END OF TEST SCAN,2410
END OF TEST TIME,602.5
TEST STATUS,1
PRE TEST CMT,Dimensions: 101 x 101 x 0.11 mm; with frame; with calcium silicate substrate
POST TEST CMT,No ignition. The sample immediately shriveled towards the edges upon exposure. Test was ended after 10 minute exposure.

File: House_Wrap_Cone_HF50Scalar_220308_R3.csv
LABORATORY,FSRI
TEST IDENT,Tyvek_HF50_3
OPERATOR,Dow
MATERIAL,Tyvek
ORIENTATION,Horizontal
HEAT FLUX,50
SURF AREA,0.00884
C FACTOR,0.039038
SPEC HOLDER DIFF,-566
SPECIMEN MASS,0.7
SCAN TIME,0.25
O2 DELAY TIME,11
CO DELAY TIME,11
CO2 DELAY TIME,8
FLOW FACTOR,1
SCAN COUNT,2886
TIME TO IGN,0
END OF TEST SCAN,2406
END OF TEST TIME,601.5
TEST STATUS,1
PRE TEST CMT,Dimensions: 100 x 102 x 0.11 mm; with frame; with calcium silicate substrate
POST TEST CMT,No ignition. The sample immediately shriveled towards the edges upon exposure. Test was ended after 10 minute exposure.

File: House_Wrap_Cone_HF50Scan_220308_R1.csv
Names,Time,Stack TC,Smoke TC,Exh Press,Smoke Comp,Smoke Meas,CO Meter,CO2 Meter,O2 Meter,Sample Mass,Ext Coeff,Start Test,Flame Verif
Chan Gain,,500,500,1,1,1,1,1,1,1,1,1.0,1.0
Offset,,0,0,0.134161,0,0,0,0,0,0,0,0.0,0.0
Gain,,1,1,25.011,15.9695,16.7489,1,1,1,1.00099,1.01863,1.0,1.0
Units,sec,C,C,Pa,%,%,%,%,%,g,/m,,
Baseline,,29.6238,30.9675,150.327,117.851,114.403,0.00115011,0.0583555,21.0097,-834.856,0.265399,,
30,7.25,28.2857,29.7896,151.417,117.611,113.511,0.00145014,0.0616161,21.0052,177.857,0.317086,0.0,0.0
60,14.75,28.6556,30.105,148.895,117.667,112.014,0.001679,0.0591453,21.0068,177.837,0.439937,0.0,0.0
90,22.25,29.3335,30.1632,150.887,117.779,112.671,0.00220938,0.0638294,20.9992,177.787,0.396167,0.0,0.0
120,29.75,28.7642,30.3475,151.383,117.869,113.139,0.00212268,0.0629105,21.0021,177.777,0.365991,0.0,0.0
150,37.25,29.1354,30.3348,148.833,117.976,113.856,0.00205208,0.0616932,21.0048,177.767,0.317618,0.0,0.0
180,44.75,29.2232,30.3714,151.737,118.026,114.156,0.00198948,0.0592439,21.0087,177.737,0.297865,0.0,0.0
210,52.25,29.3386,30.5604,151.354,118.03,114.501,0.00137905,0.0582741,21.0105,177.717,0.271235,0.0,0.0
240,59.75,29.4825,30.4309,149.229,118.044,114.203,0.00130765,0.058119,21.0098,177.707,0.295628,0.0,0.0
270,67.25,28.8843,30.2713,151.924,118.046,113.579,0.00151552,0.0581199,21.009,177.707,0.344702,0.0,0.0
300,74.75,29.509,30.9814,150.898,118.071,114.909,0.00135093,0.0579491,21.009,177.697,0.242597,0.0,0.0
330,82.25,29.9317,31.123,148.282,118.096,114.599,0.0013609,0.0574211,21.0109,177.667,0.268597,0.0,0.0
360,89.75,30.0995,31.0985,149.67,118.105,114.898,0.00118879,0.0575782,21.0106,177.646,0.245973,0.0,0.0
390,97.25,30.2472,30.7625,154.643,118.166,114.084,0.00109145,0.0577392,21.0092,177.646,0.314128,0.0,0.0
420,104.75,30.3663,31.3546,150.701,118.171,114.684,0.000889789,0.0578341,21.0092,177.636,0.26766,0.0,0.0
450,112.25,30.1978,31.6095,147.688,118.174,113.844,0.00109078,0.057873,21.0119,177.636,0.333554,0.0,0.0
480,119.75,30.1941,31.4527,148.528,118.213,115.044,0.00121848,0.0577635,21.011,177.626,0.242797,0.0,0.0
510,127.25,30.242,31.5366,147.558,118.227,114.145,0.00108004,0.057764,21.0096,177.616,0.313934,0.0,0.0
540,134.75,29.9523,32.0127,146.895,118.255,114.206,0.00101547,0.05792,21.0096,177.586,0.31131,0.0,0.0
570,142.25,30.3858,31.3109,146.013,118.309,114.643,0.00115975,0.0580879,21.01,177.586,0.28127,0.0,0.0
600,149.75,30.3952,31.7902,148.871,118.344,114.378,0.00126567,0.0585502,21.0092,177.566,0.304542,0.0,0.0
630,157.25,30.6303,31.8418,147.981,118.399,114.928,0.00104405,0.0584327,21.0091,177.586,0.265914,0.0,0.0
660,164.75,30.2792,31.8739,150.86,118.424,114.92,0.00110864,0.0584927,21.0071,177.546,0.268349,0.0,0.0
690,172.25,30.7925,31.5384,146.342,118.501,114.803,0.00125347,0.0584026,21.0089,177.516,0.283259,0.0,0.0
720,179.75,30.5289,31.715,149.079,118.618,114.403,0.00133318,0.0583492,21.0088,177.506,0.323278,0.0,0.0
750,187.25,30.419,32.0615,149.553,118.69,114.772,0.00130377,0.0581957,21.0103,177.506,0.299933,0.0,0.0
780,194.75,30.0562,32.4435,148.99,118.823,114.437,0.00135318,0.0583483,21.009,177.466,0.336047,0.0,0.0
810,202.25,30.5609,32.6501,148.837,118.922,115.1,0.00140109,0.0584423,21.0088,177.466,0.291909,0.0,0.0
840,209.75,30.7119,32.42,149.725,119.019,114.811,0.00163982,0.0583653,21.0078,177.436,0.32168,0.0,0.0
870,217.25,31.0468,32.0854,150.949,119.126,115.891,0.00157505,0.0581422,21.0078,177.426,0.246024,0.0,0.0
900,224.75,30.8747,31.966,147.774,119.162,114.727,0.00110013,0.0580509,21.0062,177.436,0.338917,0.0,0.0
930,232.25,30.9842,32.5178,149.844,119.213,115.121,0.00122787,0.0581593,21.008,177.406,0.312077,0.0,0.0
960,239.75,31.2254,32.4904,150.838,119.216,114.984,0.00157161,0.0580432,21.0067,177.396,0.322974,0.0,0.0
990,247.25,30.8225,32.1984,148.112,119.257,115.633,0.00141497,0.0580919,21.0076,177.366,0.27574,0.0,0.0
1020,254.75,30.6931,32.8945,152.534,119.245,115.187,0.00121316,0.0582868,21.0085,177.366,0.309334,0.0,0.0
1050,262.25,31.1647,32.3592,147.932,119.203,115.151,0.00106362,0.0584158,21.0063,177.366,0.309006,0.0,0.0
1080,269.75,31.2026,32.706,149.462,119.17,116.266,0.00138973,0.0583436,21.0091,177.336,0.220397,0.0,0.0
1110,277.25,31.6067,33.0691,150.081,119.123,115.203,0.00125114,0.0582506,21.0085,177.316,0.299007,0.0,0.0
1140,284.75,31.2474,32.7462,149.613,119.129,115.085,0.00148968,0.0583444,21.0088,177.316,0.308572,0.0,0.0
1170,292.25,31.6614,32.632,150.356,119.132,114.207,0.00165451,0.0585344,21.007,177.306,0.377232,0.0,0.0
1200,299.75,31.2253,33.1589,147.646,119.136,114.506,0.00132623,0.05866,21.0059,177.246,0.354157,0.0,0.0
1230,307.25,31.5785,32.6077,148.726,119.145,114.549,0.00126158,0.0586518,21.0062,177.246,0.351465,0.0,0.0
1260,314.75,31.6875,33.0854,150.625,119.116,115.826,0.00134945,0.0588841,21.0098,177.236,0.250226,0.0,0.0
1290,322.25,31.5412,32.8568,150.396,119.099,115.906,0.00118286,0.0588444,21.0095,177.236,0.242794,0.0,0.0
1320,329.75,31.2926,33.0958,148.497,119.076,114.516,0.00137333,0.0587341,21.0094,177.226,0.348943,0.0,0.0
1350,337.25,31.7159,33.1362,151.208,119.017,114.118,0.00159579,0.0585381,21.0081,177.206,0.375563,0.0,0.0
1380,344.75,31.5109,33.0873,145.845,119.014,114.91,0.00108476,0.0584849,21.009,177.206,0.31356,0.0,0.0
1410,352.25,31.5727,32.7323,152.01,118.955,115.126,0.00130209,0.0583971,21.0108,177.186,0.292338,0.0,0.0
1440,359.75,31.5972,33.0282,151.27,118.922,115.718,0.00136003,0.0582471,21.0097,177.166,0.244027,0.0,0.0
1470,367.25,31.7095,33.3636,143.778,118.919,115.134,0.00123741,0.0584496,21.0089,177.156,0.289031,0.0,0.0
1500,374.75,31.6085,33.3122,152.28,118.898,114.816,0.0014623,0.058243,21.0085,177.136,0.312165,0.0,0.0
1530,382.25,31.9483,33.4102,149.677,118.888,114.814,0.00156736,0.0585158,21.0084,177.136,0.311555,0.0,0.0
1560,389.75,31.6711,33.4167,146.785,118.873,114.677,0.00141514,0.0584929,21.0084,177.106,0.321122,0.0,0.0
1590,397.25,31.7768,32.8897,149.374,118.864,114.935,0.0012012,0.0583712,21.0084,177.086,0.300376,0.0,0.0
1620,404.75,31.9886,33.7441,147.538,118.853,115.468,0.00146185,0.0584395,21.0094,177.076,0.258219,0.0,0.0
1650,412.25,31.7478,33.7405,144.581,118.829,114.853,0.00148917,0.05836,21.0079,177.066,0.304023,0.0,0.0
1680,419.75,31.5484,33.7285,146.736,118.846,115.249,0.00144692,0.0580817,21.0082,177.066,0.274616,0.0,0.0
1710,427.25,32.1252,33.0774,146.003,118.819,114.062,0.00123729,0.0579819,21.0108,177.056,0.365095,0.0,0.0
1740,434.75,31.6936,33.8587,146.421,118.932,115.365,0.00106992,0.0580014,21.0092,177.036,0.272147,0.0,0.0
1770,442.25,31.5993,33.9707,146.385,119.084,115.484,0.000760562,0.0582546,21.0082,177.026,0.274305,0.0,0.0
1800,449.75,32.0038,33.7786,149.344,119.165,115.928,0.000956516,0.0582498,21.0086,177.016,0.246075,0.0,0.0
1830,457.25,31.9583,33.7319,148.141,119.28,115.393,0.00116669,0.057891,21.0096,176.996,0.296039,0.0,0.0
1860,464.75,32.5897,33.537,151.719,119.407,116.011,0.00135839,0.0577047,21.0125,176.996,0.257838,0.0,0.0
1890,472.25,32.8436,33.1973,150.38,119.51,116.146,0.00122209,0.0575614,21.012,176.996,0.255139,0.0,0.0
1920,479.75,31.9623,33.8437,147.483,119.593,115.214,0.00117535,0.0577311,21.0104,176.966,0.333309,0.0,0.0
1950,487.25,32.7505,33.7651,147.837,119.649,116.039,0.00120872,0.0576472,21.011,176.976,0.273741,0.0,0.0
1980,494.75,31.5804,33.3302,144.847,119.687,115.765,0.00105746,0.0579073,21.0103,176.956,0.297739,0.0,0.0
2010,502.25,31.8195,34.2433,150.599,119.727,116.004,0.00106795,0.0579537,21.0116,176.956,0.282278,0.0,0.0
2040,509.75,32.4419,34.2402,150.728,119.781,115.919,0.00120428,0.0579363,21.0102,176.936,0.292852,0.0,0.0
2070,517.25,32.6406,33.9205,147.146,119.821,115.331,0.000956951,0.0581369,21.0094,176.916,0.341261,0.0,0.0
2100,524.75,32.3557,34.0448,146.598,119.822,115.305,0.000822915,0.0582509,21.0117,176.906,0.34339,0.0,0.0
2130,532.25,32.2825,33.9852,149.925,119.843,116.333,0.000909171,0.0582991,21.0143,176.906,0.26561,0.0,0.0
2160,539.75,32.7565,34.3522,147.336,119.83,116.166,0.0010642,0.058101,21.0145,176.906,0.277477,0.0,0.0
2190,547.25,32.3025,34.0502,147.129,119.827,116.332,0.00109348,0.0580672,21.0109,176.906,0.26453,0.0,0.0
2220,554.75,32.2738,34.0485,150.793,119.775,115.528,0.000780625,0.0577632,21.0114,176.886,0.322607,0.0,0.0
2250,562.25,32.2681,33.7805,145.513,119.7,115.747,0.000996202,0.0577915,21.0121,176.866,0.300066,0.0,0.0
2280,569.75,32.1221,33.8505,145.833,119.671,116.317,0.000678345,0.0579788,21.0113,176.856,0.253956,0.0,0.0
2310,577.25,32.6862,33.8192,146.094,119.634,116.09,0.000648698,0.0580326,21.0113,176.856,0.268716,0.0,0.0
2340,584.75,32.1472,33.9715,150.561,119.61,115.7,0.000767455,0.0580942,21.0113,176.856,0.296964,0.0,0.0
2370,592.25,32.2468,34.0979,149.69,119.607,114.951,0.00101764,0.0580607,21.0093,176.846,0.3548,0.0,0.0
2400,599.75,32.4463,34.1248,148.157,119.562,115.822,0.000960854,0.0584545,21.0091,176.816,0.283929,0.0,0.0
2430,607.25,31.8867,33.1565,149.182,119.552,115.372,0.0010133,0.0583507,21.0083,176.816,0.317969,0.0,0.0
2460,614.75,32.0753,33.5156,150.326,119.461,115.266,0.000882006,0.058619,21.0106,176.816,0.31943,0.0,0.0
2490,622.25,31.5094,33.7713,150.658,119.374,115.914,0.000919971,0.0586289,21.012,176.806,0.262801,0.0,0.0
2520,629.75,31.6117,33.6159,148.323,119.254,115.894,0.00111119,0.0585599,21.0121,176.776,0.255363,0.0,0.0
2550,637.25,31.841,33.8403,147.168,119.162,115.321,0.000599127,0.0586165,21.0114,176.796,0.292742,0.0,0.0
2580,644.75,32.4113,33.7389,148.275,119.238,115.054,0.000807448,0.0586746,21.0111,176.796,0.319178,0.0,0.0
2610,652.25,32.1694,34.2295,150.497,119.303,116.138,0.000647881,0.0586376,21.0093,176.776,0.240232,0.0,0.0
2640,659.75,31.8326,33.6954,150.385,119.378,116.228,0.000761064,0.0585431,21.0101,176.766,0.238933,0.0,0.0
2670,667.25,32.6046,33.6744,145.818,119.484,115.432,0.000752186,0.0585024,21.0084,176.756,0.308275,0.0,0.0
2700,674.75,32.2614,33.4993,149.048,119.577,116.013,0.000935729,0.0584785,21.0099,176.736,0.27036,0.0,0.0
2730,682.25,32.352,33.8489,146.568,119.682,116.64,0.000802523,0.058497,21.0109,176.756,0.230048,0.0,0.0
2760,689.75,32.479,33.8725,148.197,119.754,115.837,0.000687523,0.0583383,21.0112,176.716,0.297161,0.0,0.0
2790,697.25,32.1325,33.6132,148.439,119.819,115.771,0.00085641,0.0583869,21.0106,176.716,0.307084,0.0,0.0
2820,704.75,32.2198,33.7603,150.981,119.907,115.949,0.001064,0.0582212,21.0118,176.706,0.299902,0.0,0.0
2850,712.25,32.1446,34.13,148.805,119.949,116.166,,0.0581012,,176.706,0.286414,0.0,0.0
2880,719.75,32.023,33.6731,146.532,120.011,116.399,,,,176.696,0.273078,0.0,0.0
2890,722.25,31.9861,33.53,145.505,120.019,116.269,,,,176.706,0.283628,0.0,0.0