Folder: fsri_materials_database/01_Data/House_Wrap/MCC

Note: 01_Data/README.md
# Materials and Products Database
## 01_Data

Raw data generated from each apparatus are included here in plain-text format. The data is organized first by material, next by the short name of test apparatus used, and where applicable additional filtering by test settings.

### material.json

Each material directory contains a json file of the same name as the material. This file links the data stored in the repository as well as data and graphs produced by the accompanying scripts (__02_Scripts__) to the respective landing page for the material on the front-end website.

File: House_Wrap_MCC_30K_min_220210_R2.txt
Sample ID:	C:\MCC\MCC Cal\Test\Tyvek_Wrap_MCC_30K_min_220210_R2.txt
Sample Weight (mg):	4.69
Heating Rate (C/s):	0.5
Combustor Temp (C):	900
N2 Flow Rate (cc/min):	80
O2 Flow Rate (cc/min):	20
Calibration File:	C:\MCC\MCC Cal\Coeff1 JN10440_30_210304.txt.txt
T Correction Coefficients:	0	1.024463	0
Time Shift (s):	14
*
Time (s)	Temperature (C)	N2 flow rate (cc/min)	O2 flow rate (cc/min)	Flow Rate (cc/min)	Oxygen (%)	HRR (W/g)	Heating rate (C/s)
0.000	113.337	80.006	19.994	103.670	19.961	0.457	0.006
8.000	113.244	80.006	19.995	103.703	19.950	1.204	-0.033
16.000	113.335	80.009	19.995	103.686	19.941	1.825	0.019
24.000	113.614	80.009	19.994	103.701	19.938	2.045	0.011
32.000	114.095	80.008	19.995	103.718	19.940	1.923	0.041
40.001	114.922	80.007	19.993	103.826	19.931	2.532	0.146
48.000	116.056	80.008	19.994	103.826	19.933	2.345	0.129
56.000	117.483	80.006	19.994	103.808	19.934	2.337	0.185
64.000	119.077	80.006	19.994	103.837	19.934	2.316	0.229
72.000	120.751	80.008	19.993	103.863	19.928	2.702	0.220
80.000	122.725	80.010	19.994	103.851	19.925	2.941	0.231
88.000	124.955	80.007	19.994	103.897	19.925	2.915	0.291
96.000	127.445	80.009	19.993	103.906	19.925	2.943	0.332
104.000	130.239	80.009	19.994	103.897	19.921	3.231	0.383
112.000	133.318	80.007	19.994	103.921	19.920	3.241	0.363
120.000	136.583	80.006	19.994	103.912	19.919	3.337	0.394
128.000	140.002	80.007	19.993	103.920	19.924	3.025	0.444
136.000	143.649	80.008	19.993	103.921	19.929	2.644	0.497
144.000	147.328	80.008	19.993	103.924	19.923	3.080	0.474
152.000	151.076	80.008	19.994	103.929	19.921	3.172	0.422
160.000	154.849	80.008	19.993	103.905	19.927	2.776	0.452
168.000	158.777	80.008	19.994	103.913	19.928	2.736	0.490
176.000	162.721	80.009	19.995	103.903	19.928	2.714	0.478
184.000	166.774	80.009	19.993	103.899	19.932	2.426	0.540
192.000	170.785	80.007	19.995	103.878	19.933	2.354	0.532
200.000	174.807	80.006	19.995	103.906	19.934	2.304	0.491
208.000	178.835	80.006	19.995	103.894	19.938	2.019	0.495
216.000	182.898	80.007	19.992	103.867	19.936	2.190	0.513
224.000	186.917	80.006	19.994	103.888	19.937	2.073	0.508
232.000	190.940	80.009	19.995	103.853	19.936	2.177	0.536
240.000	194.920	80.009	19.994	103.859	19.942	1.763	0.504
248.000	198.917	80.008	19.993	103.867	19.943	1.655	0.520
256.000	202.887	80.010	19.992	103.857	19.941	1.810	0.497
264.000	206.843	80.008	19.994	103.865	19.945	1.556	0.494
272.000	210.791	80.007	19.996	103.842	19.944	1.616	0.507
280.000	214.717	80.008	19.995	103.853	19.942	1.755	0.499
288.000	218.619	80.006	19.994	103.851	19.944	1.626	0.445
296.000	222.570	80.007	19.996	103.841	19.945	1.573	0.537
304.000	226.482	80.006	19.995	103.857	19.948	1.369	0.523
312.000	230.493	80.008	19.994	103.855	19.948	1.353	0.524
320.000	234.476	80.009	19.994	103.827	19.947	1.404	0.442
328.000	238.467	80.009	19.993	103.826	19.948	1.346	0.509
336.000	242.442	80.009	19.994	103.831	19.946	1.480	0.504
344.000	246.406	80.010	19.993	103.841	19.945	1.533	0.489
352.000	250.415	80.007	19.994	103.854	19.944	1.635	0.452
360.000	254.500	80.008	19.995	103.836	19.950	1.196	0.511
368.000	258.555	80.008	19.994	103.817	19.949	1.293	0.541
376.000	262.570	80.008	19.993	103.827	19.953	0.965	0.488
384.000	266.521	80.007	19.995	103.819	19.951	1.096	0.490
392.000	270.608	80.007	19.996	103.821	19.951	1.115	0.526
400.000	274.603	80.009	19.993	103.812	19.948	1.342	0.467
408.000	278.547	80.009	19.994	103.808	19.949	1.234	0.490
416.000	282.524	80.009	19.994	103.802	19.954	0.923	0.506
424.000	286.559	80.009	19.995	103.803	19.948	1.304	0.510
432.001	290.557	80.009	19.993	103.807	19.949	1.285	0.491
440.000	294.588	80.008	19.992	103.809	19.951	1.137	0.504
448.000	298.647	80.008	19.994	103.791	19.952	1.054	0.499
456.000	302.666	80.007	19.994	103.804	19.956	0.812	0.533
464.000	306.770	80.007	19.994	103.795	19.951	1.130	0.523
472.000	310.821	80.008	19.993	103.808	19.957	0.721	0.508
480.000	314.927	80.009	19.996	103.820	19.959	0.543	0.502
488.000	319.057	80.008	19.994	103.794	19.958	0.621	0.527
496.000	323.129	80.009	19.993	103.784	19.954	0.938	0.506
504.000	327.196	80.009	19.993	103.808	19.956	0.800	0.491
512.000	331.276	80.007	19.994	103.787	19.958	0.672	0.479
520.000	335.395	80.006	19.993	103.764	19.957	0.702	0.500
528.000	339.437	80.007	19.993	103.815	19.960	0.498	0.520
536.000	343.542	80.008	19.993	103.787	19.960	0.501	0.493
544.000	347.566	80.007	19.995	103.780	19.957	0.721	0.516
552.000	351.633	80.007	19.995	103.782	19.956	0.774	0.504
560.000	355.712	80.008	19.993	103.789	19.960	0.532	0.510
568.000	359.749	80.006	19.994	103.786	19.953	1.008	0.496
576.000	363.761	80.007	19.995	103.782	19.950	1.173	0.487
584.000	367.797	80.010	19.995	103.786	19.957	0.683	0.501
592.000	371.873	80.008	19.994	103.788	19.950	1.230	0.527
600.000	375.996	80.008	19.994	103.770	19.948	1.320	0.507
608.000	380.065	80.008	19.994	103.773	19.950	1.184	0.558
616.000	384.092	80.006	19.994	103.774	19.945	1.534	0.491
624.000	388.232	80.008	19.992	103.774	19.942	1.757	0.541
632.000	392.323	80.007	19.993	103.757	19.939	1.952	0.515
640.000	396.451	80.009	19.993	103.782	19.938	2.054	0.532
648.000	400.505	80.006	19.994	103.780	19.934	2.322	0.507
656.000	404.562	80.011	19.994	103.736	19.922	3.133	0.502
664.000	408.598	80.008	19.994	103.769	19.918	3.406	0.505
672.000	412.649	80.007	19.994	103.745	19.909	4.037	0.520
680.000	416.650	80.008	19.994	103.752	19.892	5.217	0.503
688.000	420.731	80.007	19.993	103.747	19.867	6.897	0.495
696.000	424.796	80.007	19.993	103.746	19.845	8.464	0.526
704.000	428.835	80.007	19.993	103.744	19.817	10.400	0.524
712.000	432.895	80.007	19.991	103.750	19.780	12.909	0.509
720.000	436.944	80.008	19.993	103.752	19.718	17.214	0.473
728.001	441.130	80.006	19.996	103.704	19.643	22.403	0.499
736.000	445.218	80.010	19.996	103.726	19.557	28.301	0.500
744.000	449.267	80.011	19.993	103.708	19.431	36.996	0.470
752.000	453.332	80.007	19.993	103.686	19.259	48.868	0.501
760.000	457.372	80.007	19.994	103.674	18.990	67.367	0.512
768.000	461.400	80.007	19.994	103.652	18.577	95.755	0.500
776.001	465.483	80.008	19.992	103.607	18.040	132.706	0.511
784.000	469.582	80.007	19.994	103.555	17.399	176.556	0.513
792.000	473.648	80.009	19.994	103.459	16.576	232.476	0.539
800.000	477.725	80.009	19.994	103.240	15.497	306.130	0.540
808.000	481.728	80.009	19.994	103.009	14.176	394.979	0.514
816.000	485.770	80.010	19.993	102.660	12.552	504.758	0.487
824.000	489.752	80.008	19.993	102.436	10.955	612.284	0.508
832.000	493.754	80.009	19.993	102.173	9.823	687.701	0.512
840.000	497.792	80.008	19.996	102.116	9.486	715.576	0.524
848.000	501.928	80.006	19.995	102.296	11.275	595.847	0.502
856.000	506.069	80.007	19.995	102.944	14.207	397.627	0.518
864.000	510.318	80.006	19.995	103.495	17.227	189.505	0.558
872.000	514.507	80.008	19.994	103.956	19.045	63.693	0.552
880.000	518.679	80.008	19.996	103.884	19.724	16.782	0.558
888.000	522.810	80.008	19.993	103.783	19.894	5.053	0.544
896.000	526.797	80.007	19.993	103.763	19.932	2.411	0.477
904.000	530.843	80.009	19.994	103.740	19.933	2.388	0.505
912.000	535.152	80.005	19.994	103.712	19.948	1.357	0.562
920.000	539.011	80.007	19.994	103.710	19.951	1.137	0.683
928.000	543.247	80.008	19.994	103.573	19.948	1.308	0.616
936.000	547.397	80.009	19.994	103.649	19.951	1.112	0.470
944.000	551.430	80.006	19.995	103.746	19.952	1.055	0.503
952.000	555.541	80.008	19.996	103.744	19.950	1.189	0.518
960.000	559.551	80.009	19.995	103.749	19.954	0.904	0.528
968.000	563.677	80.007	19.994	103.729	19.953	1.006	0.532
976.000	567.701	80.008	19.994	103.744	19.952	1.038	0.522
984.000	571.764	80.009	19.994	103.723	19.950	1.218	0.527
992.000	575.882	80.009	19.995	103.721	19.954	0.913	0.521
1000.000	580.027	80.008	19.993	103.725	19.952	1.076	0.524
1008.000	584.128	80.007	19.995	103.704	19.950	1.180	0.482
1016.000	588.231	80.007	19.994	103.740	19.950	1.167	0.512
1024.001	592.357	80.007	19.993	103.763	19.956	0.817	0.505
1032.001	596.595	80.008	19.994	103.653	19.955	0.864	0.524
1040.000	600.779	80.009	19.995	103.743	19.957	0.728	0.542
1048.000	604.981	80.008	19.995	103.730	19.954	0.887	0.527
1056.000	609.152	80.009	19.993	103.731	19.950	1.178	0.512
1064.000	613.274	80.012	19.994	103.739	19.952	1.078	0.531
1072.000	617.345	80.006	19.994	103.721	19.949	1.270	0.530
1080.000	621.425	80.009	19.996	103.724	19.950	1.187	0.477
1088.001	625.521	80.009	19.993	103.725	19.953	0.993	0.529
1096.000	629.619	80.007	19.994	103.731	19.949	1.242	0.516
1104.000	633.723	80.008	19.994	103.727	19.945	1.560	0.515
1112.000	637.883	80.008	19.994	103.734	19.948	1.342	0.497
1120.000	642.028	80.011	19.994	103.726	19.948	1.333	0.517
1128.000	646.148	80.008	19.993	103.745	19.948	1.322	0.499
1136.000	650.325	80.008	19.994	103.735	19.948	1.329	0.558
1144.000	654.422	80.011	19.994	103.746	19.948	1.301	0.508
1152.000	658.585	80.007	19.995	103.744	19.947	1.375	0.535
1160.000	662.638	80.007	19.993	103.733	19.946	1.499	0.495
1168.000	666.651	80.008	19.994	103.728	19.949	1.274	0.517
1176.000	670.655	80.009	19.994	103.743	19.950	1.223	0.516
1184.001	674.628	80.008	19.993	103.729	19.946	1.441	0.424
1192.001	678.774	80.010	19.993	103.740	19.948	1.325	0.504
1200.000	682.724	80.009	19.995	103.745	19.948	1.312	0.491
1208.000	686.715	80.009	19.993	103.725	19.947	1.378	0.501
1216.001	690.757	80.009	19.993	103.716	19.949	1.286	0.510
1224.000	694.735	80.011	19.994	103.731	19.945	1.516	0.481
1232.001	698.802	80.007	19.995	103.726	19.946	1.486	0.494
1240.001	702.822	80.008	19.993	103.731	19.944	1.611	0.476
1248.000	706.880	80.008	19.995	103.698	19.946	1.505	0.507
1256.000	710.940	80.008	19.994	103.728	19.943	1.652	0.520
1264.000	715.028	80.007	19.995	103.734	19.945	1.571	0.534
1272.000	719.165	80.010	19.993	103.746	19.945	1.526	0.543
1280.000	723.270	80.010	19.993	103.738	19.947	1.371	0.470
1288.000	727.330	80.009	19.994	103.734	19.944	1.592	0.508
1296.000	731.364	80.008	19.995	103.743	19.949	1.270	0.544
1304.000	735.403	80.010	19.993	103.709	19.944	1.639	0.515
1312.000	739.438	80.007	19.994	103.728	19.945	1.533	0.483
1320.001	743.554	80.008	19.994	103.734	19.941	1.824	0.509
1323.500	745.291	80.008	19.996	103.726	19.942	1.720	0.499