Folder: fsri_materials_database/01_Data/Rubber_Foam_Pipe_Insulation/Cone (part 2)

File: Rubber_Foam_Pipe_Insulation_Cone_HF25Scan_220307_R3.csv
Names,Time,Stack TC,Smoke TC,Exh Press,Smoke Comp,Smoke Meas,CO Meter,CO2 Meter,O2 Meter,Sample Mass,Ext Coeff,Start Test,Flame Verif
Chan Gain,,500,500,1,1,1,1,1,1,1,1,1.0,1.0
Offset,,0,0,0.13378,0,0,0,0,0,0,0,0.0,0.0
Gain,,1,1,25.011,14.4955,14.6297,1,1,1,1.00092,1.00831,1.0,1.0
Units,sec,C,C,Pa,%,%,%,%,%,g,/m,,
Baseline,,20.1955,20.7404,177.287,110.356,104.027,-0.00203549,0.037163,21.0666,-945.822,0.52242,,
8,1.75,18.6722,19.0687,173.616,110.242,97.6569,-0.00185193,0.044029,21.0557,-463.954,1.07211,0.0,0.0
16,3.75,18.5268,19.0479,172.143,110.211,93.6964,-0.000860913,0.054115,21.0452,-464.035,1.43585,0.0,0.0
24,5.75,18.7442,19.297,165.656,110.208,97.0261,0.000637795,0.0885089,20.9933,-464.245,1.12677,0.0,1.0
32,7.75,19.7071,20,161.49,110.2,84.3171,0.0028995,0.142872,20.8907,-464.445,2.36783,0.0,1.0
40,9.75,20.3713,20.4471,157.374,110.181,76.5076,0.00502131,0.193704,20.8116,-464.655,3.22601,0.0,1.0
48,11.75,21.0924,21.7485,161.1,110.174,76.8295,0.00684007,0.229283,20.762,-464.875,3.18831,0.0,0.0
56,13.75,22.61,22.2028,161.99,110.179,78.4068,0.00781083,0.248934,20.734,-465.086,3.00895,0.0,0.0
64,15.75,23.4266,23.4084,167.232,110.163,79.4292,0.00817582,0.258255,20.7204,-465.286,2.89312,0.0,0.0
72,17.75,23.9665,24.4532,161.828,110.166,81.391,0.00818144,0.263632,20.7126,-465.476,2.67753,0.0,0.0
80,19.75,25.0774,25.2616,167.47,110.135,82.0549,0.0080516,0.269569,20.7063,-465.716,2.60316,0.0,0.0
88,21.75,25.5425,26.4116,160.224,110.112,85.8221,0.00765366,0.27649,20.701,-465.926,2.20428,0.0,0.0
96,23.75,26.0692,27.4836,160.252,110.108,87.0008,0.00701673,0.283659,20.6974,-466.106,2.08335,0.0,0.0
104,25.75,26.8084,28.0318,161.228,110.106,82.8915,0.00636162,0.287172,20.6963,-466.337,2.51112,0.0,0.0
112,27.75,27.7359,28.7928,165.365,110.102,83.4612,0.00606687,0.283361,20.7023,-466.507,2.45022,0.0,0.0
120,29.75,28.5573,29.12,161.806,110.094,85.0506,0.00609969,0.278385,20.7086,-466.697,2.28276,0.0,0.0
128,31.75,28.9606,29.7081,166.387,110.088,82.542,0.00626951,0.275251,20.712,-466.887,2.54704,0.0,0.0
136,33.75,29.4845,30.6298,163.071,110.072,81.4816,0.00643171,0.272188,20.7142,-467.017,2.66016,0.0,0.0
144,35.75,30.0012,30.9492,168.731,110.071,84.8716,0.00637309,0.26678,20.7201,-467.127,2.29952,0.0,0.0
152,37.75,30.2787,31.6754,165.004,110.071,83.822,0.00609969,0.25917,20.7293,-467.237,2.40959,0.0,0.0
160,39.75,30.4303,31.7726,160.668,110.069,82.9987,0.00573729,0.251146,20.7415,-467.368,2.49671,0.0,0.0
168,41.75,31.0176,32.2857,167.219,110.06,87.5004,0.00538871,0.241839,20.7563,-467.468,2.02883,0.0,0.0
176,43.75,31.5344,32.6446,167.465,110.044,90.072,0.00500018,0.231184,20.7703,-467.548,1.77135,0.0,0.0
184,45.75,31.1523,32.8265,166.511,110.043,92.1217,0.0043897,0.221102,20.7867,-467.638,1.57226,0.0,0.0
192,47.75,31.3728,33.1024,162.828,110.024,93.6508,0.00379669,0.208391,20.8152,-467.708,1.42516,0.0,0.0
200,49.75,31.865,33.3301,173.648,110.013,96.11,0.00320086,0.193307,20.8461,-467.788,1.19501,0.0,0.0
208,51.75,31.8172,33.4562,169.692,109.997,97.5578,0.00277311,0.177838,20.8693,-467.818,1.06148,0.0,0.0
216,53.75,31.2784,32.8478,172.044,109.993,97.6936,0.00252916,0.161886,20.8931,-467.868,1.04883,0.0,0.0
224,55.75,31.0519,33.6557,172.626,109.973,99.5991,0.00244904,0.148198,20.9173,-467.918,0.876372,0.0,0.0
232,57.75,29.9974,33.0908,171.272,109.98,100.507,0.00243359,0.136573,20.9382,-467.948,0.796703,0.0,0.0
240,59.75,30.9117,32.5162,161.29,109.982,102.093,0.00236383,0.128074,20.954,-467.958,0.658374,0.0,0.0
248,61.75,30.2456,31.6357,173.969,109.952,102.435,0.00205717,0.119769,20.9691,-467.998,0.626338,0.0,0.0
256,63.75,30.0569,30.9656,168.636,109.951,100.983,0.00170397,0.111681,20.9823,-468.028,0.752567,0.0,0.0
264,65.75,28.9234,30.7601,174.35,109.951,102.603,0.00152554,0.105309,20.9907,-468.058,0.611822,0.0,0.0
272,67.75,28.79,30.7434,174.865,109.95,102.615,0.00154423,0.101172,20.9941,-468.088,0.610677,0.0,0.0
280,69.75,28.7747,30.1231,172.509,109.945,102.645,0.00158955,0.0982816,20.9974,-468.108,0.607671,0.0,0.0
288,71.75,28.084,30.3966,167.409,109.921,102.954,0.00162492,0.0963982,20.9994,-468.128,0.579168,0.0,0.0
296,73.75,27.9496,29.6492,170.543,109.919,103.301,0.00154945,0.0948111,21.0018,-468.148,0.549237,0.0,0.0
304,75.75,27.4869,29.9253,173.288,109.891,103.023,0.00131813,0.0929855,21.004,-468.178,0.570839,0.0,0.0
312,77.75,27.5777,29.4225,177.509,109.893,102.856,0.00110845,0.0913562,21.0063,-468.208,0.585255,0.0,0.0
320,79.75,27.1881,29.5538,174.796,109.901,103.285,0.000943967,0.0897252,21.0075,-468.218,0.549189,0.0,0.0
328,81.75,27.4273,28.8904,174.57,109.9,102.78,0.000810147,0.0885313,21.0089,-468.238,0.592465,0.0,0.0
336,83.75,26.658,28.6321,170.879,109.895,103.52,0.000740416,0.0870064,21.0099,-468.268,0.5286,0.0,0.0
344,85.75,26.6703,28.476,174.372,109.891,102.744,0.000713266,0.0858495,21.0117,-468.288,0.594793,0.0,0.0
352,87.75,26.6461,28.3163,176.918,109.891,103.526,0.000675913,0.0850217,21.0121,-468.308,0.527749,0.0,0.0
360,89.75,26.0174,28.4097,179.339,109.894,102.562,0.000598028,0.0842796,21.012,-468.318,0.610771,0.0,0.0
368,91.75,25.4185,27.2991,171.8,109.906,103.14,0.000532646,0.0836872,21.0125,-468.339,0.561977,0.0,0.0
376,93.75,25.9858,27.7716,175.17,109.89,103.415,0.000525466,0.0827733,21.0133,-468.359,0.537178,0.0,0.0
384,95.75,25.2835,27.3566,174.144,109.897,102.919,0.000453562,0.081722,21.0137,-468.359,0.580163,0.0,0.0
392,97.75,25.8079,26.7049,175.981,109.886,103.252,0.000324671,0.0806373,21.0144,-468.369,0.55077,0.0,0.0
400,99.75,25.9958,27.4822,173.906,109.872,103.18,0.000247753,0.07954,21.0151,-468.409,0.55579,0.0,0.0
408,101.75,24.8188,27.0855,172.551,109.88,102.883,0.000230326,0.0787221,21.0163,-468.409,0.581919,0.0,0.0
416,103.75,24.5789,26.7754,178.648,109.867,102.706,0.000157562,0.0779067,21.018,-468.419,0.596134,0.0,0.0
424,105.75,25.0712,27.0695,180.459,109.872,103.098,3.97972e-05,0.0764108,21.0189,-468.439,0.562909,0.0,0.0
432,107.75,24.589,26.4885,179.794,109.865,102.96,-0.000154176,0.0754908,21.0193,-468.459,0.574148,0.0,0.0
440,109.75,24.6479,26.4088,169.339,109.881,102.959,-0.000353373,0.074685,21.0206,-468.459,0.575503,0.0,0.0
448,111.75,24.7171,26.1762,174.386,109.847,102.919,-0.000495258,0.0737354,21.0214,-468.469,0.576288,0.0,0.0
456,113.75,24.25,26.1547,174.211,109.851,103.31,-0.000580045,0.0729743,21.0211,-468.479,0.542951,0.0,0.0
464,115.75,24.6863,26.2859,174.98,109.835,102.8,-0.000676552,0.0723021,21.0218,-468.489,0.585503,0.0,0.0
472,117.75,24.1347,25.3426,178.57,109.824,102.499,-0.000650504,0.0717499,21.0231,-468.499,0.610502,0.0,0.0
480,119.75,24.0622,24.9877,175.496,109.813,102.896,-0.000531481,0.0710833,21.0238,-468.519,0.575466,0.0,0.0
488,121.75,24.0931,25.8322,176.855,109.786,102.848,-0.00050009,0.0706175,21.0243,-468.519,0.577435,0.0,0.0
496,123.75,23.8021,24.8169,173.605,109.791,103.197,-0.000549127,0.0702917,21.0244,-468.529,0.547891,0.0,0.0
504,125.75,23.9632,25.6407,170.843,109.777,102.671,-0.00060876,0.0699475,21.0245,-468.539,0.591868,0.0,0.0
512,127.75,23.0801,24.716,168.305,109.755,102.686,-0.000634734,0.069244,21.0259,-468.539,0.588817,0.0,0.0
520,129.75,23.526,25.1663,171.203,109.732,102.71,-0.000595689,0.0684299,21.0269,-468.549,0.584958,0.0,0.0
528,131.75,23.7558,25.4245,180.84,109.72,103.002,-0.000593644,0.0675959,21.0279,-468.559,0.558854,0.0,0.0
536,133.75,23.858,25.1523,170.196,109.72,103.276,-0.000675197,0.066866,21.0292,-468.559,0.535381,0.0,0.0
544,135.75,23.4724,25.0797,164.35,109.706,103.119,-0.000769747,0.0662914,21.0303,-468.579,0.547707,0.0,0.0
552,137.75,23.6412,25.0641,175.005,109.7,103.022,-0.00074072,0.0657186,21.0319,-468.589,0.555485,0.0,0.0
560,139.75,23.4136,25.2457,174.577,109.702,102.489,-0.000686283,0.0651301,21.0321,-468.589,0.601587,0.0,0.0
568,141.75,23.5443,25.3749,176.808,109.693,103.47,-0.000741633,0.064493,21.0336,-468.599,0.516553,0.0,0.0
576,143.75,23.306,24.6252,170.32,109.703,102.973,-0.000829109,0.0634165,21.0353,-468.599,0.559988,0.0,0.0
584,145.75,23.4874,24.9694,174.089,109.687,103.466,-0.000797612,0.0623093,21.0363,-468.609,0.516394,0.0,0.0
592,147.75,22.8557,24.8386,177.307,109.695,102.738,-0.000746303,0.0609397,21.0379,-468.619,0.57958,0.0,0.0
600,149.75,23.18,24.525,178.536,109.679,103.39,-0.00076841,0.0594904,21.0398,-468.629,0.522317,0.0,0.0
608,151.75,23.2003,24.7794,174.97,109.674,103.204,-0.000908835,0.0582869,21.0422,-468.619,0.537792,0.0,0.0
616,153.75,23.267,24.1284,176.147,109.678,103.474,-0.00108555,0.0574303,21.0438,-468.629,0.514993,0.0,0.0
624,155.75,22.1776,23.7728,172.546,109.681,103.106,-0.00111742,0.0567378,21.0444,-468.639,0.546822,0.0,0.0
632,157.75,22.8942,24.1353,175.13,109.673,103.496,-0.00115068,0.0561625,21.0455,-468.629,0.51277,0.0,0.0
640,159.75,22.8235,24.1822,181.516,109.65,103.26,-0.00133677,0.0553799,21.0464,-468.629,0.531087,0.0,0.0
648,161.75,23.1159,24.5594,176.83,109.642,103.011,-0.00153933,0.0544807,21.0466,-468.639,0.551768,0.0,0.0
656,163.75,22.4178,23.6727,174.405,109.625,102.766,-0.00160506,0.0534334,21.0479,-468.629,0.57145,0.0,0.0
664,165.75,22.8406,24.363,170.043,109.606,102.977,-0.00157088,0.0524289,21.0484,-468.649,0.55179,0.0,0.0
672,167.75,21.6631,23.6046,173.477,109.6,103.24,-0.00147691,0.0514615,21.0486,-468.649,0.528736,0.0,0.0
680,169.75,22.764,23.8827,174.214,109.591,102.785,-0.00138673,0.0505191,21.0495,-468.659,0.567084,0.0,0.0
688,171.75,22.7261,23.6787,170.916,109.584,103.359,,0.0494993,,-468.669,0.517281,0.0,0.0
696,173.75,22.8148,23.7341,177.409,109.572,103.328,,0.0486007,,-468.649,0.51899,0.0,0.0
704,175.75,22.5339,23.7995,174.866,109.56,102.842,,,,-468.669,0.559742,0.0,0.0
712,177.75,22.1093,23.8003,173.184,109.547,102.385,,,,-468.649,0.598078,0.0,0.0
720,179.75,22.4486,23.9321,175.303,109.514,102.921,,,,-468.639,0.549198,0.0,0.0
728,181.75,22.1529,23.8287,173.89,109.525,103.153,,,,-468.639,0.530089,0.0,0.0
729,182,22.7654,23.6667,165.469,109.519,102.592,,,,-468.649,0.577875,0.0,0.0

File: Rubber_Foam_Pipe_Insulation_Cone_HF50Scalar_220307_R1.csv
LABORATORY,FSRI
TEST IDENT,RFPI_HF50_1
OPERATOR,Dow
MATERIAL,Rubber Foam Pipe Insulation
ORIENTATION,Horizontal
HEAT FLUX,50
SURF AREA,0.01
C FACTOR,0.0370678
SPEC HOLDER DIFF,-90.38
SPECIMEN MASS,6.6
SCAN TIME,0.25
O2 DELAY TIME,11
CO DELAY TIME,11
CO2 DELAY TIME,8
FLOW FACTOR,1
SCAN COUNT,679
TIME TO IGN,0.5
END OF TEST SCAN,199
END OF TEST TIME,49.75
TEST STATUS,1
PRE TEST CMT,Dimensions: 100 x 101 x 13 mm

File: Rubber_Foam_Pipe_Insulation_Cone_HF50Scalar_220307_R2.csv
LABORATORY,FSRI
TEST IDENT,RFPI_HF50_2
OPERATOR,Dow
MATERIAL,Rubber Foam Pipe Insulation
ORIENTATION,Horizontal
HEAT FLUX,50
SURF AREA,0.01
C FACTOR,0.0370678
SPEC HOLDER DIFF,-83
SPECIMEN MASS,6.6
SCAN TIME,0.25
O2 DELAY TIME,11
CO DELAY TIME,11
CO2 DELAY TIME,8
FLOW FACTOR,1
SCAN COUNT,699
TIME TO IGN,0.25
END OF TEST SCAN,219
END OF TEST TIME,54.75
TEST STATUS,1
PRE TEST CMT,Dimensions: 100 x 100.5 x 13 mm
POST TEST CMT,"Sample warped after ignition, and corners became elevated. Sample shriveled horizontally, reducing surface area. "

File: Rubber_Foam_Pipe_Insulation_Cone_HF50Scalar_220307_R3.csv
LABORATORY,FSRI
TEST IDENT,RFPI_HF50_3
OPERATOR,Dow
MATERIAL,Rubber Foam Pipe Insulation
ORIENTATION,Horizontal
HEAT FLUX,50
SURF AREA,0.01
C FACTOR,0.0370678
SPEC HOLDER DIFF,-91.16
SPECIMEN MASS,6.5
SCAN TIME,0.25
O2 DELAY TIME,11
CO DELAY TIME,11
CO2 DELAY TIME,8
FLOW FACTOR,1
SCAN COUNT,676
TIME TO IGN,0.5
END OF TEST SCAN,196
END OF TEST TIME,49
TEST STATUS,1
PRE TEST CMT,Dimensions: 101 x 101 x 13 mm
POST TEST CMT,"Sample warped after ignition, and corners became elevated. Sample shriveled horizontally, reducing surface area. "

File: Rubber_Foam_Pipe_Insulation_Cone_HF50Scan_220307_R1.csv
Names,Time,Stack TC,Smoke TC,Exh Press,Smoke Comp,Smoke Meas,CO Meter,CO2 Meter,O2 Meter,Sample Mass,Ext Coeff,Start Test,Flame Verif
Chan Gain,,500,500,1,1,1,1,1,1,1,1,1.0,1.0
Offset,,0,0,0.13378,0,0,0,0,0,0,0,0.0,0.0
Gain,,1,1,25.011,14.4955,14.6297,1,1,1,1.00092,1.00831,1.0,1.0
Units,sec,C,C,Pa,%,%,%,%,%,g,/m,,
Baseline,,28.6379,30.0091,170.449,110.088,102.554,-0.0015919,0.0394034,21.0618,-946.013,0.627053,,
7,1.5,27.4871,28.9439,153.864,110.288,61.8319,0.00635132,0.148764,20.8626,-463.594,5.11825,0.0,1.0
14,3.25,28.1536,29.1246,148.313,110.311,65.955,0.0095971,0.230923,20.7488,-464.035,4.54913,0.0,1.0
21,5,30.1079,30.3934,150.44,110.338,70.8795,0.0113635,0.281253,20.6846,-464.275,3.9144,0.0,1.0
28,6.75,30.799,31.8977,156.595,110.355,80.3253,0.0119796,0.301488,20.6559,-464.505,2.8093,0.0,0.0
35,8.5,32.0064,32.9886,162.021,110.392,81.633,0.0122124,0.307973,20.6439,-464.695,2.66944,0.0,0.0
42,10.25,32.9046,33.7615,157.811,110.413,80.632,0.0123494,0.312745,20.6356,-464.905,2.78023,0.0,0.0
49,12,34.1498,34.8038,155.55,110.434,81.7897,0.0124291,0.319961,20.626,-465.116,2.65585,0.0,0.0
56,13.75,35.0409,36.0576,151.793,110.454,81.8915,0.0126798,0.332543,20.6159,-465.376,2.6464,0.0,0.0
63,15.5,36.0307,37.2243,145.567,110.502,76.3509,0.0131966,0.345066,20.6008,-465.596,3.26986,0.0,0.0
70,17.25,36.799,38.3587,152.674,110.483,70.9362,0.013951,0.356352,20.5823,-465.846,3.91898,0.0,0.0
77,19,36.7802,39.4599,149.098,110.503,69.1463,0.0145036,0.362336,20.5713,-466.066,4.14661,0.0,0.0
84,20.75,38.7041,40.1629,144.297,110.519,68.5047,0.0146395,0.362403,20.567,-466.297,4.23034,0.0,0.0
91,22.5,39.2198,41.2686,154.817,110.537,67.3109,0.0142925,0.359241,20.569,-466.467,4.38725,0.0,0.0
98,24.25,40.0624,42.1531,155.22,110.553,75.1405,0.0132968,0.348985,20.581,-466.677,3.41526,0.0,0.0
105,26,40.2581,42.3094,150.828,110.561,81.1673,0.0116151,0.331529,20.6172,-466.847,2.73357,0.0,0.0
112,27.75,41.3087,43.2294,145.993,110.564,82.9697,0.00995243,0.313121,20.6546,-466.967,2.53953,0.0,0.0
119,29.5,41.6701,43.4253,151.123,110.563,87.6129,0.00846911,0.298276,20.679,-467.077,2.05779,0.0,0.0
126,31.25,41.7765,43.9427,160.292,110.579,90.1497,0.00708723,0.285198,20.7032,-467.167,1.80664,0.0,0.0
133,33,41.8248,44.4225,162.12,110.585,93.7928,0.00577986,0.272033,20.733,-467.258,1.45673,0.0,0.0
140,34.75,42.3292,44.3267,164.852,110.603,95.2514,0.00470005,0.255502,20.7577,-467.328,1.3217,0.0,0.0
147,36.5,41.9278,45.0788,163.312,110.597,98.9477,0.00378007,0.23784,20.7788,-467.408,0.984432,0.0,0.0
154,38.25,42.7923,44.6674,159.38,110.635,100.89,0.00302276,0.222908,20.8024,-467.428,0.815552,0.0,0.0
161,40,42.2109,44.7294,161.436,110.631,100.916,0.00267543,0.205922,20.8346,-467.478,0.812961,0.0,0.0
168,41.75,41.7234,45.3376,168.848,110.643,101.903,0.00272707,0.188095,20.8676,-467.508,0.727822,0.0,0.0
175,43.5,41.9864,44.4089,164.523,110.639,101.763,0.00304964,0.171743,20.8952,-467.538,0.739677,0.0,0.0
182,45.25,41.863,44.4877,171.381,110.667,102.299,0.00331993,0.157058,20.9181,-467.578,0.695423,0.0,0.0
189,47,41.4608,44.1663,168.152,110.677,102.61,0.00352027,0.14393,20.939,-467.598,0.66941,0.0,0.0
196,48.75,41.1828,44.0896,171.776,110.682,102.418,0.00365296,0.132426,20.9552,-467.618,0.686289,0.0,0.0
203,50.5,39.7413,43.5179,168.628,110.677,101.858,0.00380232,0.122944,20.9672,-467.638,0.734495,0.0,0.0
210,52.25,40.0399,42.9902,161.526,110.696,102.558,0.00395457,0.115218,20.9763,-467.688,0.67536,0.0,0.0
217,54,39.3899,42.4829,169.525,110.709,103.033,0.00401954,0.108542,20.9843,-467.708,0.635585,0.0,0.0
224,55.75,39.2705,42.19,169.327,110.715,102.11,0.00399139,0.103824,20.9897,-467.698,0.715697,0.0,0.0
231,57.5,38.9849,41.9731,168.729,110.713,102.447,0.00395295,0.100429,20.9938,-467.728,0.686334,0.0,0.0
238,59.25,38.6251,41.7449,166.903,110.707,102.79,0.00396235,0.0978611,20.9958,-467.758,0.65628,0.0,0.0
245,61,39.0687,41.266,164.201,110.727,102.817,0.00396913,0.0956612,20.9966,-467.778,0.655568,0.0,0.0
252,62.75,37.772,40.7459,170.158,110.744,102.21,0.00390561,0.093867,20.9973,-467.788,0.709296,0.0,0.0
259,64.5,37.97,40.4072,163.484,110.75,102.716,0.00378451,0.0924511,20.9976,-467.828,0.666125,0.0,0.0
266,66.25,37.1393,39.9596,164.594,110.754,102.54,0.00366409,0.0912801,20.9978,-467.828,0.681604,0.0,0.0
273,68,37.6177,40.8176,169.942,110.757,103.006,0.00356173,0.089782,20.9989,-467.868,0.641739,0.0,0.0
280,69.75,37.4402,40.4009,169.344,110.773,102.97,0.00347062,0.0886568,21.0004,-467.868,0.646076,0.0,0.0
287,71.5,37.7298,40.2377,167.073,110.788,103.041,0.00336347,0.0879133,21.0016,-467.888,0.641149,0.0,0.0
294,73.25,37.0026,39.713,164.546,110.776,102.586,0.0031763,0.0872361,21.0021,-467.888,0.679295,0.0,0.0
301,75,37.1774,39.868,167.7,110.79,103.106,0.00292076,0.0862138,21.0036,-467.888,0.635728,0.0,0.0
308,76.75,36.7078,39.9938,167.722,110.808,102.552,0.00266298,0.0851799,21.0053,-467.908,0.684798,0.0,0.0
315,78.5,36.5533,39.6639,167.147,110.812,102.957,0.00246267,0.0845116,21.0063,-467.928,0.650296,0.0,0.0
322,80.25,36.6437,39.4844,170.991,110.822,102.922,0.00233931,0.0840651,21.0068,-467.928,0.654176,0.0,0.0
329,82,36.5205,39.0001,172.861,110.834,102.365,0.00225074,0.0834752,21.0074,-467.948,0.70303,0.0,0.0
336,83.75,36.0991,38.9147,165.388,110.834,102.488,0.00217553,0.0828423,21.0101,-467.948,0.692464,0.0,0.0
343,85.5,35.701,38.6172,166.185,110.843,102.902,0.00213083,0.0819634,21.0118,-467.988,0.657528,0.0,0.0
350,87.25,35.6182,38.46,168.939,110.851,102.993,0.00205931,0.0811459,21.0126,-467.968,0.650334,0.0,0.0
357,89,35.7129,38.5411,171.595,110.854,103.074,0.00189445,0.0803995,21.013,-467.988,0.643644,0.0,0.0
364,90.75,35.7268,38.3721,170.059,110.858,103.258,0.00174768,0.0797601,21.014,-467.988,0.628154,0.0,0.0
371,92.5,35.2968,38.3528,168.984,110.876,102.707,0.0016268,0.0789372,21.0149,-467.998,0.676847,0.0,0.0
378,94.25,35.7078,37.773,171.33,110.875,102.27,0.00156087,0.0781371,21.0153,-468.028,0.714572,0.0,0.0
385,96,35.338,38.0615,165.972,110.884,102.628,0.00146583,0.0770657,21.0167,-468.038,0.684326,0.0,0.0
392,97.75,34.6706,37.1708,168.692,110.876,103.287,0.00135894,0.0762506,21.0174,-468.028,0.627153,0.0,0.0
399,99.5,35.0801,37.5207,170.669,110.889,102.715,0.00123899,0.0757177,21.0188,-468.048,0.677288,0.0,0.0
406,101.25,34.4483,36.8576,168.87,110.892,102.231,0.00104781,0.0752914,21.0199,-468.058,0.719268,0.0,0.0
413,103,34.9458,36.9403,169.443,110.897,102.781,0.000789449,0.0744284,21.0214,-468.068,0.672238,0.0,0.0
420,104.75,34.7803,37.1915,168.409,110.902,102.706,0.000521545,0.073627,21.0221,-468.078,0.679007,0.0,0.0
427,106.5,34.7264,37.2601,169.668,110.9,102.977,0.000272621,0.0730882,21.0223,-468.078,0.655634,0.0,0.0
434,108.25,34.7612,37.5394,166.157,110.922,103.863,0.000123628,0.072545,21.0234,-468.078,0.581602,0.0,0.0
441,110,34.6415,36.6277,167.564,110.926,102.523,-3.5697e-05,0.071871,21.0239,-468.108,0.69676,0.0,0.0
448,111.75,34.6302,37.1359,166.864,110.925,103.202,-0.000174624,0.0709545,21.025,-468.118,0.638301,0.0,0.0
455,113.5,34.4676,36.8873,168.068,110.922,103.014,-0.000258534,0.0700271,21.0259,-468.138,0.65418,0.0,0.0
462,115.25,34.2892,36.8717,164.814,110.937,102.603,-0.000262372,0.0693605,21.0272,-468.128,0.690715,0.0,0.0
469,117,34.4549,36.7507,169.937,110.929,103.231,-0.000277827,0.0687926,21.0282,-468.118,0.636133,0.0,0.0
476,118.75,34.5104,36.6699,167.973,110.933,103.106,-0.000332162,0.0680999,21.0299,-468.138,0.647202,0.0,0.0
483,120.5,35.0524,36.1525,161.326,110.94,102.722,-0.000393415,0.0674573,21.0307,-468.158,0.680734,0.0,0.0
490,122.25,34.633,36.3027,166.89,110.93,103.011,-0.000449643,0.0667088,21.0311,-468.158,0.655116,0.0,0.0
497,124,34.1785,36.739,169.408,110.941,102.103,-0.000478062,0.0658834,21.0313,-468.158,0.734207,0.0,0.0
504,125.75,34.0531,36.5889,166.646,110.95,103.231,-0.0005216,0.0649235,21.0314,-468.178,0.637863,0.0,0.0
511,127.5,33.7622,36.6076,167.716,110.926,102.612,-0.000636249,0.0640724,21.0319,-468.168,0.689099,0.0,0.0
518,129.25,34.6081,36.3767,167.556,110.931,103.39,-0.000761397,0.0633464,21.0336,-468.188,0.6227,0.0,0.0
525,131,34.5573,36.2916,169.579,110.937,102.427,-0.000873291,0.0623275,21.035,-468.188,0.705965,0.0,0.0
532,132.75,34.231,36.0972,169.768,110.94,102.949,-0.000967132,0.0607134,21.0365,-468.198,0.66115,0.0,0.0
539,134.5,33.387,35.6543,165.845,110.933,102.793,-0.00105034,0.05899,21.0391,-468.198,0.674094,0.0,0.0
546,136.25,33.7678,36.4651,169.491,110.926,102.356,-0.00116842,0.0575479,21.0415,-468.198,0.711142,0.0,0.0
553,138,34.2399,35.8965,167.44,110.925,102.593,-0.00125934,0.0558774,21.0431,-468.188,0.690612,0.0,0.0
560,139.75,34.0467,36.1881,168.264,110.94,103.202,-0.00132602,0.0540997,21.0453,-468.188,0.6395,0.0,0.0
567,141.5,33.6491,35.9988,168.443,110.919,102.969,-0.00142003,0.0525368,21.0463,-468.208,0.657804,0.0,0.0
574,143.25,33.9584,36.1733,167.124,110.916,103.31,-0.00160011,0.0510022,21.049,-468.218,0.628344,0.0,0.0
581,145,33.5368,35.8942,168.779,110.916,102.414,-0.00177298,0.0496185,21.0512,-468.218,0.705356,0.0,0.0
588,146.75,33.9818,35.5763,172.176,110.915,102.874,-0.00181855,0.0483448,21.0538,-468.228,0.665655,0.0,0.0
595,148.5,33.8214,35.8421,165.4,110.913,102.989,-0.00174128,0.0471943,21.0553,-468.238,0.655623,0.0,0.0
602,150.25,33.5421,36.1641,167.16,110.89,102.51,-0.00166403,0.0462425,21.0571,-468.208,0.694984,0.0,0.0
609,152,33.258,35.7146,163.531,110.885,103.298,-0.00158723,0.0451624,21.0586,-468.228,0.626903,0.0,0.0
616,153.75,33.8325,35.2135,169.516,110.883,103.348,-0.00146691,0.0441501,21.0599,-468.228,0.622449,0.0,0.0
623,155.5,33.7223,35.6073,167.351,110.881,102.664,-0.00135331,0.0433476,21.0608,-468.218,0.680998,0.0,0.0
630,157.25,33.5384,35.5254,164.901,110.884,102.639,-0.00137264,0.0423911,21.0623,-468.228,0.683404,0.0,0.0
637,159,33.8906,35.6095,170.87,110.851,102.81,,0.0416243,,-468.208,0.666106,0.0,0.0
644,160.75,33.2335,35.4961,166.559,110.856,103.256,,0.0407703,,-468.218,0.628171,0.0,0.0
651,162.5,33.3503,35.4109,169.095,110.845,102.814,,,,-468.228,0.665225,0.0,0.0
658,164.25,33.3946,35.6421,167.888,110.826,102.837,,,,-468.218,0.661787,0.0,0.0
665,166,33.4825,35.3964,161.192,110.816,102.499,,,,-468.218,0.690053,0.0,0.0
672,167.75,33.2609,34.9895,164.631,110.8,102.709,,,,-468.198,0.670696,0.0,0.0
679,169.5,33.3464,35.443,168.05,110.792,102.843,,,,-468.228,0.658569,0.0,0.0