Folder: fsri_materials_database/01_Data/Rubber_Foam_Pipe_Insulation/Cone (part 5)

File: Rubber_Foam_Pipe_Insulation_Cone_HF75Scan_220307_R3.csv
Names,Time,Stack TC,Smoke TC,Exh Press,Smoke Comp,Smoke Meas,CO Meter,CO2 Meter,O2 Meter,Sample Mass,Ext Coeff,Start Test,Flame Verif
Chan Gain,,500,500,1,1,1,1,1,1,1,1,1.0,1.0
Offset,,0,0,0.13378,0,0,0,0,0,0,0,0.0,0.0
Gain,,1,1,25.011,14.4955,14.6297,1,1,1,1.00092,1.00831,1.0,1.0
Units,sec,C,C,Pa,%,%,%,%,%,g,/m,,
Baseline,,43.6858,45.4738,163.034,110.417,102.192,-0.00199699,0.0384097,21.0612,-947.401,0.684711,,
7,1.5,41.2232,42.9549,132.935,110.954,57.3209,0.0105978,0.233293,20.7428,-466.146,5.84159,0.0,1.0
14,3.25,43.6959,44.4029,142.45,110.964,62.9257,0.0144429,0.337741,20.5982,-466.487,5.01719,0.0,1.0
21,5,44.7652,45.9517,150.12,110.983,69.5195,0.0164592,0.377553,20.5278,-466.757,4.13737,0.0,1.0
28,6.75,46.0221,47.7081,147.048,111.004,70.191,0.0171676,0.393631,20.5039,-467.097,4.05397,0.0,0.0
35,8.5,47.327,49.2839,152.332,111.011,71.9086,0.0175558,0.397496,20.4962,-467.318,3.84075,0.0,0.0
42,10.25,48.6745,50.3606,141.092,111.013,70.2361,0.0180388,0.402,20.4904,-467.638,4.04903,0.0,0.0
49,12,49.5519,52.2294,146.892,111.034,67.6011,0.0186899,0.418903,20.4677,-467.948,4.38893,0.0,0.0
56,13.75,51.2069,53.0318,144.391,111.035,67.4859,0.0191374,0.437318,20.4419,-468.228,4.40405,0.0,0.0
63,15.5,52.6035,54.5847,143.772,111.049,64.433,0.0190333,0.444137,20.4311,-468.499,4.8146,0.0,0.0
70,17.25,52.921,55.4205,148.284,111.041,70.9889,0.0184147,0.436102,20.4394,-468.769,3.957,0.0,0.0
77,19,54.0784,56.8812,146.573,111.06,70.1254,0.0173522,0.419857,20.4599,-468.979,4.06675,0.0,0.0
84,20.75,54.639,57.98,145.828,111.09,69.9022,0.0156138,0.397698,20.4979,-469.159,4.09728,0.0,0.0
91,22.5,55.5192,58.3242,147.395,111.08,77.3362,0.0133294,0.374214,20.5426,-469.309,3.2026,0.0,0.0
98,24.25,56.2399,59.4547,147.319,111.086,79.7409,0.0110956,0.344679,20.5915,-469.409,2.93226,0.0,0.0
105,26,56.5955,59.7201,148.964,111.085,83.471,0.00897147,0.316874,20.6355,-469.51,2.52779,0.0,0.0
112,27.75,56.7734,59.5666,152.348,111.105,90.2617,0.00711789,0.288602,20.6883,-469.62,1.83763,0.0,0.0
119,29.5,56.8822,60.2811,155.957,111.112,95.2166,0.00557294,0.259441,20.7439,-469.69,1.36548,0.0,0.0
126,31.25,57.0642,60.3775,152.903,111.11,99.9951,0.00458605,0.23002,20.7877,-469.71,0.932276,0.0,0.0
133,33,57.085,60.6086,152.749,111.119,102.038,0.00411761,0.202812,20.825,-469.76,0.754057,0.0,0.0
140,34.75,56.3992,59.6636,160.168,111.129,102.819,0.00422596,0.174867,20.8706,-469.78,0.6874,0.0,0.0
147,36.5,55.7518,59.2136,163.036,111.134,102.529,0.00461459,0.152866,20.9089,-469.77,0.71286,0.0,0.0
154,38.25,55.5223,58.6403,145.339,111.141,103.013,0.00502206,0.137161,20.935,-469.83,0.671698,0.0,0.0
161,40,55.0584,58.723,157.778,111.152,102.639,0.00536951,0.126519,20.9517,-469.86,0.704799,0.0,0.0
168,41.75,54.711,58.1789,159.425,111.153,102.745,0.00546683,0.119453,20.963,-469.9,0.695679,0.0,0.0
175,43.5,54.4679,57.9232,162.834,111.178,102.78,0.0053401,0.11413,20.9692,-469.9,0.694652,0.0,0.0
182,45.25,53.9997,57.5968,161.694,111.183,103.525,0.0051568,0.110433,20.9736,-469.9,0.63122,0.0,0.0
189,47,53.943,57.0725,154.487,111.178,102.945,0.00507786,0.107402,20.9773,-469.92,0.680522,0.0,0.0
196,48.75,53.3556,57.5094,157.387,111.181,103.158,0.00507501,0.105289,20.9793,-469.94,0.662417,0.0,0.0
203,50.5,53.6107,56.8967,160.265,111.187,103.037,0.00503309,0.1033,20.9816,-469.95,0.673289,0.0,0.0
210,52.25,52.9746,56.8005,163.286,111.191,103.133,0.00498605,0.101303,20.9838,-469.95,0.665443,0.0,0.0
217,54,52.5654,55.9222,156.553,111.187,102.827,0.00498787,0.0995096,20.985,-470,0.691358,0.0,0.0
224,55.75,52.1582,55.9842,159.929,111.198,103.297,0.00503482,0.0980527,20.986,-470.01,0.651892,0.0,0.0
231,57.5,52.8505,56.1411,159.273,111.187,102.82,0.00506624,0.0964309,20.9865,-470.01,0.691898,0.0,0.0
238,59.25,52.3572,55.296,157.824,111.2,102.596,0.00504306,0.0947588,20.9883,-470.05,0.712294,0.0,0.0
245,61,51.7803,55.5202,155.188,111.198,102.788,0.00496699,0.0933425,20.9907,-470.06,0.695579,0.0,0.0
252,62.75,52.0777,54.9035,159.27,111.189,102.975,0.00481951,0.0917355,20.9935,-470.12,0.678796,0.0,0.0
259,64.5,51.4972,54.9076,160.077,111.206,103.304,0.00466483,0.0896112,20.996,-470.11,0.651916,0.0,0.0
266,66.25,51.5782,54.3872,163.988,111.228,103.007,0.00449619,0.0881204,20.9976,-470.16,0.67913,0.0,0.0
273,68,51.382,54.1413,157.444,111.224,102.836,0.00426402,0.0873872,20.9994,-470.16,0.693511,0.0,0.0
280,69.75,50.6918,53.8915,162.172,111.235,103.123,0.00390639,0.0863406,21.0009,-470.15,0.66973,0.0,0.0
287,71.5,50.5004,54.2518,150.552,111.222,102.692,0.00358122,0.0851973,21.0022,-470.14,0.705817,0.0,0.0
294,73.25,50.8468,53.9046,158.036,111.221,102.771,0.00324716,0.0837824,21.0039,-470.18,0.698908,0.0,0.0
301,75,51.0438,53.6783,157.508,111.24,103.035,0.00299735,0.0827073,21.0049,-470.19,0.677702,0.0,0.0
308,76.75,50.0621,54.0361,162.673,111.256,103.051,0.00284045,0.0812941,21.0063,-470.19,0.677662,0.0,0.0
315,78.5,50.1236,53.5415,158.34,111.234,103.088,0.00273702,0.0801074,21.0073,-470.21,0.672686,0.0,0.0
322,80.25,50.1082,53.4714,160.404,111.244,102.943,0.00258125,0.0790069,21.0077,-470.25,0.685991,0.0,0.0
329,82,49.893,53.4824,158.034,111.261,102.94,0.00232508,0.0780424,21.0098,-470.21,0.687483,0.0,0.0
336,83.75,49.5586,53.5899,156.398,111.247,103.194,0.0019958,0.0771125,21.0114,-470.22,0.664632,0.0,0.0
343,85.5,49.4866,52.8245,162.614,111.271,102.475,0.00175791,0.07612,21.0129,-470.24,0.72832,0.0,0.0
350,87.25,50.1001,52.571,159.341,111.271,102.689,0.00160961,0.0747599,21.0141,-470.22,0.709878,0.0,0.0
357,89,49.5573,53.0696,162.667,111.282,103.098,0.00150202,0.0736556,21.0147,-470.28,0.675679,0.0,0.0
364,90.75,49.2759,52.3915,158.017,111.283,102.784,0.00136306,0.0726752,21.016,-470.29,0.702643,0.0,0.0
371,92.5,49.1258,51.6253,158.617,111.285,103.098,0.00116464,0.0717517,21.0178,-470.27,0.675813,0.0,0.0
378,94.25,48.2506,51.5134,157.863,111.28,103.092,0.000841162,0.0708353,21.0193,-470.3,0.676002,0.0,0.0
385,96,49.0692,51.7525,164.096,111.278,102.728,0.000593218,0.0700183,21.0209,-470.3,0.707134,0.0,0.0
392,97.75,48.5517,51.8161,158.741,111.302,103.215,0.000471528,0.0692954,21.0228,-470.28,0.667229,0.0,0.0
399,99.5,48.6681,51.5986,157.811,111.29,103.381,0.000385808,0.068339,21.0238,-470.29,0.651949,0.0,0.0
406,101.25,48.5368,51.4632,157.943,111.283,102.716,0.00022566,0.0673904,21.025,-470.3,0.708523,0.0,0.0
413,103,48.6969,51.4297,163.669,111.287,103.046,7.44627e-05,0.0663506,21.0277,-470.29,0.680544,0.0,0.0
420,104.75,48.5967,51.5112,158.523,111.287,103.206,-7.87009e-05,0.0652068,21.0298,-470.3,0.666725,0.0,0.0
427,106.5,48.4112,51.4282,163.632,111.277,103.104,-0.000278849,0.0638809,21.0308,-470.33,0.674721,0.0,0.0
434,108.25,47.9112,51.1564,163.465,111.278,103.357,-0.000511944,0.062855,21.0325,-470.32,0.653101,0.0,0.0
441,110,48.0759,50.8173,158.335,111.284,102.745,-0.000778891,0.0620536,21.035,-470.34,0.706166,0.0,0.0
448,111.75,48.182,50.7443,158.549,111.273,102.512,-0.000910156,0.0607031,21.0373,-470.35,0.725337,0.0,0.0
455,113.5,48.2772,51.2532,161.84,111.287,103.112,-0.000916723,0.0591108,21.0395,-470.33,0.67484,0.0,0.0
462,115.25,47.9878,50.9939,166.983,111.268,103.426,-0.000921488,0.0575647,21.0408,-470.36,0.646481,0.0,0.0
469,117,47.8182,50.2733,162.702,111.251,103.005,-0.00102025,0.056467,21.0424,-470.34,0.681188,0.0,0.0
476,118.75,47.6513,50.6355,154.402,111.251,103.311,-0.00111095,0.0553333,21.0431,-470.32,0.65493,0.0,0.0
483,120.5,47.5765,50.4946,161.153,111.248,102.774,-0.0011574,0.0542855,21.0433,-470.34,0.700781,0.0,0.0
490,122.25,46.9064,50.3701,157.178,111.251,102.961,-0.00119887,0.0533376,21.0438,-470.35,0.684907,0.0,0.0
497,124,47.2729,49.683,160.061,111.235,102.885,-0.00122554,0.0526823,21.0446,-470.35,0.69024,0.0,0.0
504,125.75,47.4792,50.2718,158.311,111.23,102.885,-0.00123959,0.051883,21.0461,-470.36,0.689816,0.0,0.0
511,127.5,47.1688,49.8682,163.671,111.221,103.064,-0.00128474,0.0510369,21.0468,-470.34,0.673734,0.0,0.0
518,129.25,47.4157,50.1464,156.699,111.221,103.15,-0.00139504,0.0503499,21.0478,-470.36,0.666345,0.0,0.0
525,131,47.5147,49.4597,157.104,111.212,103.024,-0.00151563,0.0495892,21.0488,-470.38,0.676406,0.0,0.0
532,132.75,47.5187,49.8782,158.565,111.211,103.273,-0.00166299,0.0488173,21.0506,-470.38,0.654937,0.0,0.0
539,134.5,47.3058,49.8138,159.075,111.195,102.773,-0.00175673,0.0481206,21.0514,-470.39,0.69664,0.0,0.0
546,136.25,47.2262,49.5582,163.797,111.191,102.897,-0.00179688,0.0473255,21.0518,-470.38,0.685648,0.0,0.0
553,138,46.9589,50.014,158.291,111.188,102.602,-0.00182387,0.0465088,21.0523,-470.39,0.710843,0.0,0.0
560,139.75,46.9355,49.5265,158.78,111.168,103.15,-0.00192056,0.0458389,21.0538,-470.41,0.662085,0.0,0.0
567,141.5,47.0016,49.7064,158.818,111.152,102.837,-0.00207472,0.0448369,21.0549,-470.4,0.68773,0.0,0.0
574,143.25,47.2703,49.9481,163.317,111.15,102.766,-0.00215254,0.0437186,21.0564,-470.37,0.693661,0.0,0.0
581,145,46.3644,49.3707,159.888,111.147,102.648,,0.0426631,,-470.37,0.703565,0.0,0.0
588,146.75,46.4664,49.5184,158.997,111.128,102.324,,0.041833,,-470.37,0.730063,0.0,0.0
595,148.5,46.9899,49.2557,159.001,111.11,102.81,,,,-470.37,0.686731,0.0,0.0
602,150.25,46.7042,49.3108,161.786,111.089,102.781,,,,-470.39,0.687534,0.0,0.0
609,152,46.3907,49.4311,156.753,111.09,103.055,,,,-470.4,0.664084,0.0,0.0
616,153.75,47.2769,49.3843,159.899,111.069,102.583,,,,-470.43,0.703025,0.0,0.0
623,155.5,46.451,49.0655,159.521,111.041,103.013,,,,-470.4,0.663741,0.0,0.0