Folder: fsri_materials_database/01_Data/Rubber_Foam_Pipe_Insulation/MCC (part 2)

File: Rubber_Foam_Pipe_Insulation_MCC_30K_min_220127_R3.txt
Sample ID:	C:\MCC\MCC Cal\Test\Rubber_Foam_Pipe_Insulation_MCC_30K_min_220127_R3.txt
Sample Weight (mg):	4.83
Heating Rate (C/s):	0.5
Combustor Temp (C):	900
N2 Flow Rate (cc/min):	80
O2 Flow Rate (cc/min):	20
Calibration File:	C:\MCC\MCC Cal\Coeff1 JN10440_30_210304.txt.txt
T Correction Coefficients:	0	1.024463	0
Time Shift (s):	14
*
Time (s)	Temperature (C)	N2 flow rate (cc/min)	O2 flow rate (cc/min)	Flow Rate (cc/min)	Oxygen (%)	HRR (W/g)	Heating rate (C/s)
0.000	114.299	80.011	19.995	103.744	20.035	0.258	-0.007
8.000	114.223	80.013	19.993	103.741	20.039	0.009	-0.059
16.000	114.255	80.011	19.994	103.760	20.037	0.171	0.013
24.000	114.246	80.009	19.994	103.784	20.034	0.376	0.026
32.000	114.509	80.010	19.995	103.867	20.020	1.276	0.072
40.000	115.100	80.010	19.993	103.942	20.007	2.171	0.089
48.000	116.285	80.008	19.993	103.975	19.999	2.737	0.167
56.000	117.851	80.009	19.995	103.963	20.000	2.647	0.194
64.000	119.871	80.011	19.994	103.976	19.989	3.360	0.282
72.000	122.183	80.010	19.993	104.010	19.987	3.517	0.332
80.001	124.815	80.010	19.994	104.017	19.982	3.861	0.337
88.000	127.832	80.012	19.994	104.022	19.984	3.734	0.368
96.001	131.054	80.011	19.992	104.019	19.984	3.738	0.399
104.000	134.612	80.010	19.993	104.024	19.983	3.771	0.447
112.000	138.247	80.010	19.993	104.025	19.986	3.590	0.439
120.000	142.040	80.010	19.994	104.018	19.982	3.818	0.477
128.000	146.001	80.010	19.993	104.019	19.984	3.682	0.467
136.000	149.986	80.010	19.993	104.016	19.978	4.114	0.508
144.000	154.047	80.011	19.993	104.021	19.982	3.814	0.514
152.000	158.105	80.012	19.996	104.014	19.976	4.230	0.516
160.000	162.292	80.009	19.994	104.017	19.975	4.292	0.477
168.000	166.523	80.011	19.993	104.007	19.972	4.501	0.542
176.000	170.731	80.012	19.993	104.005	19.971	4.610	0.545
184.000	174.904	80.009	19.992	104.000	19.969	4.739	0.520
192.000	179.051	80.010	19.994	103.985	19.965	4.999	0.507
200.000	183.107	80.010	19.993	103.974	19.962	5.207	0.461
208.000	187.211	80.013	19.994	103.977	19.964	5.033	0.480
216.000	191.076	80.010	19.993	103.973	19.953	5.768	0.480
224.000	194.854	80.009	19.995	103.964	19.950	6.026	0.474
232.000	198.506	80.011	19.993	103.949	19.944	6.383	0.458
240.000	202.130	80.012	19.993	103.949	19.946	6.243	0.448
248.000	205.712	80.011	19.996	103.949	19.940	6.640	0.429
256.000	209.408	80.012	19.994	103.975	19.933	7.115	0.469
264.000	213.141	80.012	19.993	103.981	19.926	7.581	0.479
272.000	217.019	80.011	19.993	103.980	19.917	8.211	0.497
280.000	220.988	80.010	19.994	103.999	19.901	9.277	0.511
288.000	225.066	80.010	19.993	104.010	19.879	10.759	0.524
296.000	229.175	80.009	19.992	103.998	19.860	12.026	0.471
304.000	233.191	80.010	19.994	103.986	19.841	13.343	0.479
312.000	237.096	80.010	19.994	103.991	19.820	14.746	0.508
320.000	240.850	80.010	19.994	103.978	19.811	15.313	0.456
328.000	244.634	80.012	19.995	104.011	19.808	15.545	0.479
336.000	248.382	80.011	19.993	104.020	19.803	15.916	0.451
344.000	252.241	80.012	19.994	104.055	19.776	17.678	0.505
352.000	256.045	80.009	19.995	104.093	19.722	21.347	0.464
360.000	260.095	80.011	19.993	104.089	19.641	26.760	0.507
368.000	264.322	80.010	19.994	103.987	19.545	33.113	0.534
376.000	268.568	80.009	19.993	103.839	19.515	35.153	0.538
384.000	272.853	80.009	19.993	103.798	19.571	31.435	0.552
392.000	277.134	80.011	19.995	103.839	19.665	25.089	0.494
400.000	281.364	80.013	19.993	103.862	19.744	19.833	0.522
408.000	285.497	80.011	19.993	103.884	19.800	16.067	0.496
416.000	289.549	80.011	19.995	103.876	19.837	13.540	0.495
424.000	293.554	80.014	19.995	103.878	19.861	11.991	0.489
432.000	297.500	80.011	19.993	103.886	19.878	10.847	0.499
440.000	301.386	80.009	19.993	103.900	19.888	10.164	0.458
448.000	305.272	80.009	19.995	103.896	19.892	9.887	0.479
456.000	309.169	80.011	19.992	103.897	19.900	9.338	0.510
464.000	313.095	80.009	19.993	103.899	19.902	9.183	0.520
472.001	317.020	80.011	19.994	103.917	19.905	9.016	0.525
480.000	320.917	80.011	19.993	103.912	19.908	8.820	0.504
488.000	324.930	80.012	19.995	103.910	19.911	8.637	0.536
496.000	328.854	80.012	19.992	103.906	19.908	8.820	0.461
504.000	332.760	80.012	19.990	103.909	19.907	8.843	0.452
512.000	337.159	80.012	19.993	103.920	19.910	8.697	0.598
520.000	341.145	80.010	19.994	103.914	19.909	8.742	0.526
528.000	345.235	80.011	19.993	103.903	19.910	8.666	0.532
536.000	349.306	80.011	19.992	103.905	19.906	8.945	0.528
544.000	353.440	80.011	19.994	103.918	19.906	8.917	0.528
552.000	357.463	80.008	19.994	103.909	19.903	9.132	0.495
560.000	361.525	80.011	19.993	103.923	19.898	9.509	0.526
568.000	365.552	80.013	19.993	103.939	19.894	9.756	0.510
576.000	369.555	80.012	19.993	103.943	19.889	10.105	0.462
584.000	373.636	80.013	19.992	103.971	19.875	11.013	0.547
592.000	377.563	80.014	19.992	103.976	19.868	11.521	0.489
600.000	381.487	80.010	19.994	103.975	19.860	12.028	0.487
608.000	385.523	80.012	19.993	103.968	19.852	12.584	0.520
616.000	389.510	80.010	19.994	103.938	19.840	13.352	0.541
624.000	393.530	80.011	19.993	103.926	19.829	14.131	0.512
632.000	397.600	80.010	19.993	103.910	19.812	15.230	0.486
640.000	401.689	80.009	19.995	103.907	19.789	16.767	0.496
648.000	405.800	80.015	19.993	103.899	19.762	18.577	0.490
656.000	409.901	80.011	19.992	103.887	19.724	21.130	0.512
664.000	413.971	80.011	19.993	103.893	19.685	23.790	0.489
672.000	417.955	80.013	19.993	103.893	19.640	26.809	0.503
680.000	421.992	80.013	19.991	103.889	19.593	29.938	0.496
688.000	426.026	80.011	19.993	103.895	19.543	33.297	0.518
696.000	429.997	80.011	19.994	103.884	19.490	36.869	0.510
704.000	434.057	80.011	19.993	103.897	19.429	40.930	0.480
712.000	438.131	80.011	19.993	103.898	19.378	44.347	0.484
720.000	442.185	80.010	19.995	103.886	19.333	47.370	0.499
728.000	446.262	80.012	19.994	103.895	19.298	49.754	0.520
736.000	450.384	80.010	19.995	103.887	19.281	50.903	0.505
744.000	454.444	80.013	19.994	103.876	19.283	50.759	0.514
752.000	458.462	80.012	19.994	103.879	19.310	48.914	0.544
760.000	462.464	80.013	19.992	103.863	19.363	45.400	0.518
768.000	466.489	80.010	19.993	103.863	19.429	40.965	0.546
776.000	470.477	80.012	19.993	103.889	19.510	35.493	0.513
784.000	474.517	80.013	19.993	103.885	19.591	30.081	0.505
792.000	478.563	80.012	19.993	103.879	19.678	24.246	0.545
800.000	482.587	80.011	19.994	103.897	19.750	19.446	0.491
808.000	486.669	80.012	19.996	103.919	19.817	14.896	0.500
816.000	490.688	80.013	19.993	103.922	19.867	11.530	0.522
824.000	494.781	80.011	19.994	103.935	19.903	9.146	0.525
832.000	498.836	80.012	19.996	103.935	19.929	7.402	0.495
840.000	502.907	80.013	19.994	103.928	19.950	5.974	0.524
848.000	506.949	80.011	19.993	103.910	19.963	5.106	0.532
856.000	511.035	80.012	19.994	103.902	19.973	4.436	0.505
864.000	515.154	80.012	19.993	103.897	19.986	3.599	0.497
872.000	519.355	80.013	19.994	103.897	19.993	3.089	0.529
880.000	523.671	80.010	19.993	103.916	19.998	2.770	0.564
888.000	528.139	80.010	19.994	103.896	20.002	2.514	0.577
896.000	532.692	80.013	19.993	103.896	20.003	2.450	0.579
904.000	537.326	80.012	19.994	103.892	20.009	2.044	0.582
912.000	541.877	80.011	19.994	103.883	20.011	1.899	0.555
920.000	546.287	80.012	19.994	103.888	20.011	1.916	0.527
928.000	550.783	80.011	19.995	103.885	20.011	1.864	0.564
936.000	555.143	80.011	19.993	103.887	20.013	1.749	0.584
944.000	559.448	80.010	19.993	103.895	20.012	1.799	0.557
952.000	563.662	80.012	19.993	103.886	20.012	1.828	0.525
960.000	567.749	80.009	19.994	103.890	20.015	1.595	0.491
968.000	571.792	80.010	19.993	103.891	20.016	1.567	0.521
976.000	575.838	80.012	19.994	103.892	20.012	1.806	0.515
984.000	579.807	80.012	19.994	103.889	20.017	1.512	0.546
992.000	583.712	80.010	19.994	103.890	20.014	1.696	0.483
1000.000	587.663	80.012	19.994	103.884	20.015	1.637	0.488
1008.000	591.623	80.014	19.994	103.884	20.019	1.378	0.486
1016.000	595.741	80.010	19.993	103.880	20.018	1.415	0.524
1024.000	599.846	80.009	19.993	103.881	20.019	1.373	0.523
1032.000	604.124	80.010	19.993	103.893	20.018	1.444	0.536
1040.000	608.516	80.011	19.993	103.900	20.014	1.683	0.568
1048.000	612.912	80.009	19.994	103.882	20.013	1.734	0.550
1056.000	617.269	80.010	19.993	103.861	20.016	1.547	0.565
1064.000	621.324	80.012	19.993	103.862	20.022	1.165	0.506
1072.000	625.231	80.012	19.993	103.863	20.016	1.561	0.476
1080.000	629.222	80.011	19.993	103.864	20.013	1.795	0.510
1088.000	633.214	80.012	19.994	103.860	20.016	1.569	0.517
1096.000	637.373	80.010	19.993	103.859	20.017	1.482	0.500
1104.000	641.343	80.011	19.994	103.855	20.024	1.011	0.470
1112.001	645.215	80.010	19.994	103.856	20.025	0.976	0.497
1120.000	649.095	80.010	19.993	103.859	20.026	0.870	0.482
1128.000	652.971	80.010	19.994	103.858	20.023	1.073	0.507
1136.001	657.020	80.010	19.993	103.862	20.021	1.233	0.532
1144.000	661.007	80.012	19.994	103.850	20.017	1.497	0.516
1152.000	665.163	80.011	19.991	103.858	20.019	1.371	0.521
1160.000	669.351	80.011	19.994	103.865	20.019	1.378	0.510
1168.000	673.619	80.013	19.995	103.863	20.023	1.064	0.524
1176.000	677.825	80.011	19.992	103.859	20.024	1.031	0.666
1184.000	681.931	80.010	19.994	103.858	20.025	0.932	0.511
1192.001	686.202	80.011	19.994	103.860	20.021	1.242	0.535
1200.000	690.519	80.009	19.993	103.850	20.027	0.851	0.528
1208.000	694.760	80.012	19.993	103.858	20.018	1.407	0.515
1216.000	699.016	80.008	19.994	103.860	20.019	1.372	0.501
1224.000	703.136	80.012	19.993	103.856	20.019	1.354	0.511
1232.001	707.210	80.013	19.993	103.853	20.019	1.383	0.497
1240.000	711.303	80.012	19.996	103.863	20.015	1.620	0.506
1248.000	715.450	80.014	19.993	103.859	20.020	1.260	0.494
1256.000	719.585	80.014	19.992	103.858	20.019	1.341	0.501
1264.000	723.748	80.010	19.993	103.859	20.014	1.679	0.510
1272.001	727.808	80.012	19.994	103.856	20.020	1.306	0.509
1280.000	731.796	80.011	19.994	103.861	20.014	1.697	0.503
1288.000	735.703	80.010	19.996	103.859	20.011	1.870	0.480
1296.001	739.648	80.010	19.993	103.862	20.013	1.732	0.477
1304.001	743.654	80.011	19.993	103.861	20.014	1.715	0.497
1304.500	743.931	80.012	19.993	103.858	20.015	1.636	0.512