Folder: fsri_materials_database/01_Data/Overstuffed_Chair_Polyester_Batting/Cone

Note: 01_Data/README.md
# Materials and Products Database
## 01_Data

Raw data generated from each apparatus are included here in plain-text format. The data is organized first by material, next by the short name of test apparatus used, and where applicable additional filtering by test settings.

### material.json

Each material directory contains a json file of the same name as the material. This file links the data stored in the repository as well as data and graphs produced by the accompanying scripts (__02_Scripts__) to the respective landing page for the material on the front-end website.

File: Overstuffed_Chair_Polyester_Batting_Cone_HF25Scalar_210324_R1.csv
LABORATORY,FSRI
TEST IDENT,PEbat_H25_1
OPERATOR,Morrissey
MATERIAL,1.75'' PE Batting
ORIENTATION,Horizontal
HEAT FLUX,25
SURF AREA,0.01
C FACTOR,0.0386052
SPEC HOLDER DIFF,-98.3
SPECIMEN MASS,6.7
SCAN TIME,0.25
O2 DELAY TIME,11
CO DELAY TIME,11
CO2 DELAY TIME,8
FLOW FACTOR,1
SCAN COUNT,3129
TIME TO IGN,604.5
END OF TEST SCAN,2649
END OF TEST TIME,662.25
TEST STATUS,1
PRE TEST CMT,"Approximate thickness: 1.75 inches"
POST TEST CMT,"Two opposing corners of the foil pan lifted upwards in the last few seconds prior to flame extinguishment, causing the foil pan to partially fold in half. See test picture."

File: Overstuffed_Chair_Polyester_Batting_Cone_HF25Scalar_210324_R2.csv
LABORATORY,FSRI
TEST IDENT,PEbat_H25_2V2
OPERATOR,Morrissey
MATERIAL,1.75'' PE Batting
ORIENTATION,Horizontal
HEAT FLUX,25
SURF AREA,0.01
C FACTOR,0.0386052
SPEC HOLDER DIFF,-96.5
SPECIMEN MASS,6.1
SCAN TIME,0.25
O2 DELAY TIME,11
CO DELAY TIME,11
CO2 DELAY TIME,8
FLOW FACTOR,1
SCAN COUNT,4670
TIME TO IGN,994
END OF TEST SCAN,4190
END OF TEST TIME,1047.5
TEST STATUS,1
PRE TEST CMT,"Approximate thickness: 1.75 inches"
POST TEST CMT,"Two opposing corners of the foil pan lifted upwards in the last few seconds prior to flame extinguishment, causing the foil pan to partially fold in half and covering some remaining sample mass."

File: Overstuffed_Chair_Polyester_Batting_Cone_HF25Scalar_210324_R3.csv
LABORATORY,FSRI
TEST IDENT,PEbat_H25_3
OPERATOR,Morrissey
MATERIAL,1.75'' PE Batting
ORIENTATION,Horizontal
HEAT FLUX,25
SURF AREA,0.01
C FACTOR,0.0386052
SPEC HOLDER DIFF,-98.3
SPECIMEN MASS,6.9
SCAN TIME,0.25
O2 DELAY TIME,11
CO DELAY TIME,11
CO2 DELAY TIME,8
FLOW FACTOR,1
SCAN COUNT,2450
TIME TO IGN,453.75
END OF TEST SCAN,1970
END OF TEST TIME,492.5
TEST STATUS,1
PRE TEST CMT,"Approximate thickness: 1.75 inches"
POST TEST CMT,"Two opposing corners of the foil pan lifted upwards during the test causing the melted sample mass to pool in a smaller area off-center."

File: Overstuffed_Chair_Polyester_Batting_Cone_HF25Scan_210324_R3.csv
Names,Time,Stack TC,Smoke TC,Exh Press,Smoke Comp,Smoke Meas,CO Meter,CO2 Meter,O2 Meter,Sample Mass,Ext Coeff,Start Test,Flame Verif
Chan Gain,,500,500,1,1,1,1,1,1,1,1,1.0,1.0
Offset,,0,0,0.194005,0,0,0,0,0,0,0,0.0,0.0
Gain,,1,1,25.011,13.5067,16.616,1,1,1,1.00091,1.04608,1.0,1.0
Units,sec,C,C,Pa,%,%,%,%,%,g,/m,,
Baseline,,19.4932,21.0508,167.873,101.73,100.93,0.000301724,0.0923279,20.7951,-1.35102,0.072457,,
26,6.25,17.1943,18.8122,164.251,101.471,100.664,0.000380791,0.109462,20.7792,474.032,0.073257,0.0,0.0
52,12.75,18.2426,19.4366,167.019,101.446,100.665,0.000284763,0.10473,20.783,473.991,0.0708997,0.0,0.0
78,19.25,18.3206,19.8095,166.022,101.42,100.561,0.000300122,0.0975784,20.7932,474.011,0.0780316,0.0,0.0
104,25.75,18.2956,20.0383,164.118,101.43,100.654,0.000164114,0.0929058,20.7981,473.981,0.0704905,0.0,0.0
130,32.25,18.3934,19.9355,166.623,101.409,100.403,4.12084e-05,0.0912605,20.7973,473.991,0.0915003,0.0,0.0
156,38.75,18.0961,19.6793,165.681,101.395,100.385,0.000164426,0.0900948,20.8036,473.951,0.0918642,0.0,0.0
182,45.25,18.0748,20.2157,167.191,101.369,100.392,0.000264177,0.0885967,20.807,473.991,0.088827,0.0,0.0
208,51.75,18.1316,20.207,168.788,101.344,100.364,0.000576148,0.088194,20.806,473.951,0.0891834,0.0,0.0
234,58.25,18.4174,20.1249,167.386,101.316,100.221,0.000268007,0.088353,20.8043,473.981,0.0997287,0.0,0.0
260,64.75,18.2606,20.2858,170.49,101.287,100.252,0.000178644,0.0893142,20.8001,473.941,0.0943211,0.0,0.0
286,71.25,18.354,19.6511,167.633,101.264,100.329,0.000118808,0.0908832,20.7953,473.941,0.085131,0.0,0.0
312,77.75,18.1501,20.2468,161.346,101.25,100.186,0.000133259,0.0912008,20.7936,473.961,0.0969116,0.0,0.0
338,84.25,18.2814,19.9891,168.056,101.226,100.141,0.000172364,0.0912671,20.7966,473.951,0.0988413,0.0,0.0
364,90.75,18.1348,20.0508,168.952,101.228,100.032,6.25486e-05,0.0921258,20.7951,473.931,0.109098,0.0,0.0
390,97.25,18.7374,20.1193,164.55,101.195,100.128,0.000413162,0.0921271,20.7968,473.911,0.0972472,0.0,0.0
416,103.75,18.6051,20.9592,166.376,101.181,99.9732,0.000411763,0.0917886,20.7991,473.911,0.110198,0.0,0.0
442,110.25,18.8899,19.7686,172.713,101.188,100.193,0.000263225,0.0911783,20.7993,473.881,0.090702,0.0,0.0
468,116.75,18.8821,20.7575,166.521,101.258,100.051,0.00042632,0.0903338,20.7993,473.931,0.109983,0.0,0.0
494,123.25,18.8105,20.6345,166.959,101.299,99.8839,0.00055734,0.0905595,20.7971,473.891,0.129116,0.0,0.0
520,129.75,19.2124,20.9309,166.377,101.329,99.8647,0.000327898,0.0926643,20.7885,473.871,0.133537,0.0,0.0
546,136.25,19.2143,20.8098,165.06,101.392,99.9894,0.000391788,0.0941831,20.7889,473.871,0.127865,0.0,0.0
572,142.75,19.3832,20.5047,165.231,101.415,99.9569,0.000422985,0.0953534,20.7877,473.851,0.132895,0.0,0.0
598,149.25,19.2093,20.378,167.967,101.458,99.9696,0.000715801,0.0950319,20.7871,473.871,0.135647,0.0,0.0
624,155.75,18.5832,20.4516,168.153,101.483,99.6917,0.000417671,0.0929879,20.7921,473.851,0.163389,0.0,0.0
650,162.25,19.4767,21.1661,164.27,101.512,99.8915,0.000397057,0.090861,20.7969,473.851,0.1477,0.0,0.0
676,168.75,18.7937,20.8835,173.162,101.544,99.7465,0.000244439,0.0910251,20.7985,473.821,0.163901,0.0,0.0
702,175.25,19.5055,21.2116,167.746,101.568,99.7399,2.33427e-05,0.0917704,20.799,473.801,0.166667,0.0,0.0
728,181.75,19.2662,21.1427,166.15,101.635,99.8571,0.000300552,0.0910413,20.8032,473.771,0.161927,0.0,0.0
754,188.25,19.3725,20.8222,172.794,101.669,99.9067,0.000763247,0.0895923,20.8034,473.771,0.160414,0.0,0.0
780,194.75,19.544,21.329,166.809,101.693,99.6923,0.000344268,0.0895383,20.7995,473.771,0.182329,0.0,0.0
806,201.25,19.2359,20.874,167.068,101.729,99.5584,0.000311238,0.0896889,20.7977,473.791,0.197896,0.0,0.0
832,207.75,19.4582,21.2555,168.029,101.733,99.5579,4.49332e-05,0.0916359,20.7922,473.741,0.198313,0.0,0.0
858,214.25,19.566,21.36,170.293,101.764,99.2075,7.85115e-05,0.0932884,20.7902,473.721,0.233454,0.0,0.0
884,220.75,19.3362,21.1336,171.891,101.758,99.8464,0.000345371,0.0919926,20.7977,473.681,0.174027,0.0,0.0
910,227.25,19.8719,21.195,167.419,101.768,99.5011,0.000505881,0.0895611,20.8045,473.671,0.206746,0.0,0.0
936,233.75,19.136,21.2542,170.561,101.756,99.4828,0.000674999,0.0886405,20.8056,473.611,0.207278,0.0,0.0
962,240.25,19.2389,21.6118,161.439,101.738,99.4215,0.000807252,0.0881229,20.8074,473.601,0.211341,0.0,0.0
988,246.75,19.1509,21.4527,167.999,101.731,98.8125,0.000723782,0.0878387,20.8097,473.601,0.26709,0.0,0.0
1014,253.25,19.7092,21.6473,172.512,101.69,99.5751,0.000294685,0.0876899,20.8089,473.591,0.19282,0.0,0.0
1040,259.75,19.6203,21.4508,163.676,101.655,99.3561,0.000387407,0.0879071,20.809,473.531,0.209905,0.0,0.0
1066,266.25,19.8627,21.2921,168.508,101.629,99.6355,0.000463034,0.0874304,20.812,473.501,0.181829,0.0,0.0
1092,272.75,19.5355,21.404,167.809,101.587,97.7897,0.000439535,0.0869887,20.814,473.471,0.349617,0.0,0.0
1118,279.25,19.6058,21.632,169.527,101.558,99.2952,0.000623523,0.0869729,20.8162,473.471,0.206778,0.0,0.0
1144,285.75,19.6629,22.1002,166.185,101.517,99.4331,0.000678381,0.0870059,20.8166,473.441,0.190315,0.0,0.0
1170,292.25,19.6408,21.1479,165.327,101.497,99.1492,0.000586421,0.0872385,20.8148,473.411,0.214733,0.0,0.0
1196,298.75,19.609,21.0767,168.524,101.449,99.0427,0.000885573,0.0875347,20.8128,473.401,0.220232,0.0,0.0
1222,305.25,20.0093,21.2685,169.938,101.387,99.2896,0.000709813,0.087689,20.8119,473.351,0.191787,0.0,0.0
1248,311.75,19.5889,21.6668,166.86,101.378,98.9676,0.000588445,0.0876008,20.8102,473.321,0.220773,0.0,0.0
1274,318.25,19.4184,21.2963,169.226,101.438,99.2034,0.000557092,0.0879574,20.8118,473.341,0.204382,0.0,0.0
1300,324.75,19.9892,21.5065,163.363,101.533,99.0102,0.000832309,0.0874222,20.815,473.331,0.230879,0.0,0.0
1326,331.25,19.9374,22.0815,169.811,101.647,99.7749,0.000547333,0.087182,20.8134,473.261,0.170596,0.0,0.0
1352,337.75,19.8174,22.0345,162.29,101.736,99.8048,0.000294613,0.0888283,20.8076,473.261,0.175841,0.0,0.0
1378,344.25,19.8702,22.0432,165.55,101.747,99.2693,0.000535798,0.0901385,20.8017,473.231,0.22621,0.0,0.0
1404,350.75,20.0961,21.8955,161.318,101.601,99.1593,0.000527281,0.0914561,20.7991,473.221,0.22318,0.0,0.0
1430,357.25,20.514,21.9031,168.832,101.249,99.0508,0.00084378,0.0921323,20.7964,473.211,0.201456,0.0,0.0
1456,363.75,20.6171,22.0941,164.599,101.31,99.1385,0.000793827,0.093365,20.7912,473.121,0.198859,0.0,0.0
1482,370.25,20.1173,21.8589,165.873,101.581,99.0741,0.000854112,0.0935738,20.791,473.141,0.229281,0.0,0.0
1508,376.75,19.6588,22.2993,161.646,101.843,99.1791,0.000769784,0.0925027,20.7956,473.101,0.243177,0.0,0.0
1534,383.25,20.5787,22.1966,172.133,101.959,99.5523,0.000780894,0.0917772,20.7981,473.061,0.219179,0.0,0.0
1560,389.75,20.0134,22.4544,166.521,101.894,99.3596,0.000766086,0.0919246,20.8013,473.031,0.231094,0.0,0.0
1586,396.25,20.1948,22.7309,169.932,101.624,98.7501,0.00064487,0.0923004,20.7994,473.021,0.263248,0.0,0.0
1612,402.75,20.6407,22.5665,170.706,101.209,98.4175,0.000892174,0.0921791,20.8,472.991,0.256654,0.0,0.0
1638,409.25,20.4598,22.9408,166.207,100.7,98.1761,0.000752411,0.0917546,20.8008,472.951,0.232917,0.0,0.0
1664,415.75,20.224,22.7994,167.402,100.254,98.2537,0.000885879,0.0907066,20.8025,472.92,0.1849,0.0,0.0
1690,422.25,20.5406,22.7424,160.493,99.9927,97.7025,0.000763325,0.090867,20.8008,472.88,0.212609,0.0,0.0
1716,428.75,20.4362,22.7307,167.28,99.9947,97.7162,0.000623137,0.0905638,20.8015,472.83,0.211514,0.0,0.0
1742,435.25,20.3404,22.2044,162.991,100.299,97.7851,0.000729367,0.0906796,20.8031,472.81,0.23295,0.0,0.0
1768,441.75,20.1407,22.6678,162.065,100.763,98.3018,0.000880004,0.0917425,20.8008,472.75,0.226953,0.0,0.0
1794,448.25,20.3125,22.5996,160.392,101.192,98.7324,0.00104363,0.0915657,20.8016,472.75,0.225809,0.0,0.0
1820,454.75,20.7839,23.4656,154.157,101.333,89.8321,0.00349044,0.119423,20.7557,472.51,1.10545,0.0,1.0
1846,461.25,25.9414,30.9371,155.754,101.12,74.0559,0.0129908,0.356906,20.384,471.319,2.85822,0.0,0.0
1872,467.75,31.4942,39.6175,147.049,100.86,75.4939,0.0165079,0.521756,20.2335,470.318,2.65814,0.0,0.0
1898,474.25,36.6043,47.9814,146.33,101.446,69.8608,0.0208085,0.664154,20.0895,469.157,3.42294,0.0,0.0
1924,480.75,39.7593,52.3269,158.391,101.733,84.0945,0.0193576,0.690355,20.1267,468.146,1.74726,0.0,0.0
1950,487.25,37.0355,47.2563,158.915,101.186,98.6974,0.00929318,0.492942,20.4752,467.926,0.228464,0.0,0.0
1976,493.75,32.2165,39.2124,167.238,101.622,100.785,0.00342947,0.249587,20.7117,468.036,0.0759793,0.0,0.0
2002,500.25,28.5612,33.0482,170.092,101.949,101.228,0.00128448,0.150758,20.7809,468.026,0.0651102,0.0,0.0
2028,506.75,26.4574,29.0902,172.789,101.663,100.913,0.000694761,0.116576,20.8002,468.086,0.0679891,0.0,0.0
2054,513.25,24.9112,27.1709,166.659,100.788,100.159,0.000112369,0.100653,20.8122,468.066,0.0574845,0.0,0.0
2080,519.75,23.9595,25.6023,164.206,100.045,99.2998,-6.8161e-05,0.0940946,20.816,468.046,0.0686471,0.0,0.0
2106,526.25,23.0874,24.3536,163.358,100.173,99.4838,4.34871e-05,0.0909847,20.817,468.096,0.0633657,0.0,0.0
2132,532.75,22.5927,23.7172,162.687,100.883,100.019,0.000203803,0.0888057,20.8191,468.076,0.0789438,0.0,0.0
2158,539.25,22.1518,23.1284,164.232,101.321,100.406,-0.00011779,0.0872779,20.8203,468.076,0.0831995,0.0,0.0
2184,545.75,21.9485,22.8769,170.778,101.052,100.266,-2.72578e-05,0.0864668,20.8209,468.076,0.0716747,0.0,0.0
2210,552.25,21.8382,22.5849,167.037,100.959,100.147,0.000269762,0.0866201,20.8209,468.086,0.0741143,0.0,0.0
2236,558.75,21.3948,22.9898,166.298,101.71,100.962,0.000308004,0.0864761,20.8222,468.156,0.067722,0.0,0.0
2262,565.25,20.8994,22.5997,167.253,101.144,100.367,2.7542e-07,0.08641,20.824,468.106,0.0707781,0.0,0.0
2288,571.75,21.5798,22.4707,163.884,101.659,100.951,-3.18053e-05,0.0861038,20.8244,468.096,0.0641131,0.0,0.0
2314,578.25,21.101,22.6495,163.077,101.942,101.075,-0.000126013,0.0856816,20.8242,468.096,0.0783993,0.0,0.0
2340,584.75,20.7274,22.0824,166.038,101.491,100.866,7.39494e-05,0.0855188,20.8246,468.056,0.05663,0.0,0.0
2366,591.25,20.5346,22.4111,163.04,100.63,99.9387,-7.90764e-05,0.0847742,20.8284,468.096,0.0632853,0.0,0.0
2392,597.75,20.8742,22.4988,163.161,100.027,99.2764,0.000186289,0.0838391,20.8297,468.096,0.0691389,0.0,0.0
2418,604.25,20.5728,21.6857,164.963,100.221,99.5736,,0.0834025,,468.086,0.0594322,0.0,0.0
2444,610.75,21.0355,21.8434,163.113,100.875,100.322,,,,468.086,0.0504529,0.0,0.0
2450,612.25,20.3669,21.5223,164.628,101.011,100.151,,,,468.096,0.0784709,0.0,0.0

File: Overstuffed_Chair_Polyester_Batting_Cone_HF50Scalar_210326_R1.csv
LABORATORY,FSRI
TEST IDENT,PEbat_HF50_1
OPERATOR,Dow
MATERIAL,"PE batting, 1.75 inch thick"
ORIENTATION,Horizontal
HEAT FLUX,50
SURF AREA,0.01
C FACTOR,0.0386052
SPEC HOLDER DIFF,-98.37
SPECIMEN MASS,5.87
SCAN TIME,0.25
O2 DELAY TIME,11
CO DELAY TIME,11
CO2 DELAY TIME,8
FLOW FACTOR,1
SCAN COUNT,758
TIME TO IGN,36.75
END OF TEST SCAN,278
END OF TEST TIME,69.5
TEST STATUS,1
PRE TEST CMT,without frame or grid
POST TEST CMT,two opposing corners of foil collapsed towards center shortly before extinguishment

File: Overstuffed_Chair_Polyester_Batting_Cone_HF50Scalar_210326_R2.csv
LABORATORY,FSRI
TEST IDENT,PEbat_HF50_2
OPERATOR,Dow
MATERIAL,"PE batting, 1.75 inch thick"
ORIENTATION,Horizontal
HEAT FLUX,50
SURF AREA,0.01
C FACTOR,0.0386052
SPEC HOLDER DIFF,-96.46
SPECIMEN MASS,6.02
SCAN TIME,0.25
O2 DELAY TIME,11
CO DELAY TIME,11
CO2 DELAY TIME,8
FLOW FACTOR,1
SCAN COUNT,807
TIME TO IGN,48
END OF TEST SCAN,327
END OF TEST TIME,81.75
TEST STATUS,1
PRE TEST CMT,"Approximate thickness: 1.75 inches"
POST TEST CMT,"Two opposing corners of the foil pan lifted upwards in the last few seconds prior to flame extinguishment, causing the foil pan to partially fold in half. See post test picture."

File: Overstuffed_Chair_Polyester_Batting_Cone_HF50Scalar_210326_R3.csv
LABORATORY,FSRI
TEST IDENT,PEbat_HF50_3
OPERATOR,Dow
MATERIAL,"PE batting, 1.75 inch thick"
ORIENTATION,Horizontal
HEAT FLUX,50
SURF AREA,0.01
C FACTOR,0.0386052
SPEC HOLDER DIFF,-85.82
SPECIMEN MASS,6.41
SCAN TIME,0.25
O2 DELAY TIME,11
CO DELAY TIME,11
CO2 DELAY TIME,8
FLOW FACTOR,1
SCAN COUNT,815
TIME TO IGN,49.25
END OF TEST SCAN,335
END OF TEST TIME,83.75
TEST STATUS,1
PRE TEST CMT,"Approximate thickness: 1.75 inches"
POST TEST CMT,"Two opposing corners of the foil pan lifted upwards in the last few seconds prior to flame extinguishment, causing the foil pan to partially fold in half."

File: Overstuffed_Chair_Polyester_Batting_Cone_HF50Scan_210326_R2.csv
Names,Time,Stack TC,Smoke TC,Exh Press,Smoke Comp,Smoke Meas,CO Meter,CO2 Meter,O2 Meter,Sample Mass,Ext Coeff,Start Test,Flame Verif
Chan Gain,,500,500,1,1,1,1,1,1,1,1,1.0,1.0
Offset,,0,0,0.138348,0,0,0,0,0,0,0,0.0,0.0
Gain,,1,1,25.011,13.5067,16.616,1,1,1,1.00091,1.04608,1.0,1.0
Units,sec,C,C,Pa,%,%,%,%,%,g,/m,,
Baseline,,32.596,34.6865,162.683,102.482,99.6819,-0.00138179,0.0468852,20.9621,-0.00291932,0.254242,,
9,2,29.4867,31.6781,162.012,102.821,100.097,-0.00152125,0.049063,20.9563,476.364,0.246352,0.0,0.0
18,4.25,30.6019,32.6814,160.997,102.84,100.252,-0.00145755,0.0499141,20.9558,476.314,0.233923,0.0,0.0
27,6.5,30.2415,32.1699,159.947,102.829,100.069,-0.00146688,0.0503813,20.9556,476.314,0.249663,0.0,0.0
36,8.75,31.191,32.8775,161.342,102.833,100.348,-0.0015221,0.0504339,20.9556,476.304,0.224483,0.0,0.0
45,11,30.8425,32.5942,162.585,102.855,99.5873,-0.00153566,0.0505907,20.9556,476.294,0.296287,0.0,0.0
54,13.25,30.5909,32.8281,165.356,102.834,100.077,-0.00152311,0.0508565,20.9551,476.294,0.249434,0.0,0.0
63,15.5,31.37,33.2605,163.824,102.854,100.421,-0.00147299,0.0515639,20.9538,476.274,0.219601,0.0,0.0
72,17.75,31.0334,33.6917,162.198,102.863,99.6192,-0.00138032,0.0524643,20.952,476.264,0.294042,0.0,0.0
81,20,31.0302,33.2742,159.131,102.847,99.9874,-0.00123149,0.0532515,20.9514,476.264,0.258724,0.0,0.0
90,22.25,31.8938,33.7022,163.152,102.844,99.5609,-0.00101809,0.0541893,20.9516,476.244,0.297724,0.0,0.0
99,24.5,31.1241,33.7339,162.94,102.844,99.1659,-0.000841182,0.055367,20.951,476.233,0.334203,0.0,0.0
108,26.75,31.0563,33.9228,168.974,102.849,98.812,-0.00080115,0.0560574,20.95,476.224,0.367418,0.0,0.0
117,29,31.2559,34.5135,158.421,102.838,98.1974,-0.00079172,0.0563822,20.9496,476.193,0.423749,0.0,0.0
126,31.25,31.3409,33.9247,158.017,102.833,97.4003,-0.000584513,0.0568223,20.9488,476.193,0.498063,0.0,0.0
135,33.5,31.6726,34.3332,158.533,102.83,96.1777,-0.000292912,0.057724,20.9473,476.133,0.613676,0.0,0.0
144,35.75,31.7016,34.6156,163.047,102.815,95.594,-2.81179e-05,0.0592371,20.9448,476.103,0.66817,0.0,0.0
153,38,31.3756,34.9115,154.673,102.816,94.8654,0.000246245,0.0610816,20.9418,476.053,0.738531,0.0,0.0
162,40.25,31.6126,34.785,163.628,102.815,94.8025,0.000637657,0.0624015,20.9408,475.983,0.74454,0.0,0.0
171,42.5,32.0336,35.0025,159.581,102.81,92.8756,0.00110003,0.0628642,20.9408,475.953,0.932456,0.0,0.0
180,44.75,32.2637,35.6964,162.02,102.793,91.3513,0.00163144,0.0628777,20.9437,475.873,1.08283,0.0,0.0
189,47,32.7329,35.1621,158.57,102.793,90.1151,0.00250296,0.0632346,20.9413,475.763,1.20786,0.0,0.0
198,49.25,33.4058,37.0101,151.585,102.782,88.0781,0.00404362,0.0891654,20.8713,475.323,1.41666,0.0,1.0
207,51.5,35.5421,39.8617,149.992,102.758,84.5783,0.0062232,0.163805,20.7316,475.092,1.78663,0.0,1.0
216,53.75,35.7495,41.269,149.43,102.748,75.1547,0.0103886,0.255331,20.617,474.632,2.86963,0.0,0.0
225,56,38.5895,46.3291,140.158,102.752,60.6309,0.0167774,0.357085,20.4406,474.122,4.84055,0.0,0.0
234,58.25,42.4159,51.9234,136.981,102.737,57.9941,0.0223606,0.492448,20.2366,473.531,5.24722,0.0,0.0
243,60.5,45.4573,56.6839,139.945,102.719,62.8814,0.0252546,0.607834,20.125,473.001,4.50318,0.0,0.0
252,62.75,47.3009,59.2783,143.052,102.721,65.6475,0.0255269,0.675805,20.0923,472.54,4.10831,0.0,0.0
261,65,48.9883,61.9303,137.056,102.716,67.5014,0.0249365,0.70689,20.0991,472.12,3.85236,0.0,0.0
270,67.25,50.7476,63.894,136.182,102.707,65.4522,0.0250092,0.723688,20.105,471.669,4.13438,0.0,0.0
279,69.5,52.5659,66.5954,130.546,102.698,61.1679,0.0251178,0.740083,20.1073,471.299,4.75481,0.0,0.0
288,71.75,52.9962,68.1266,143.727,102.685,77.6221,0.0226991,0.739528,20.136,471.099,2.56757,0.0,0.0
297,74,53.1428,66.2412,147.71,102.683,86.9778,0.0179765,0.680603,20.2799,470.969,1.52315,0.0,0.0
306,76.25,52.1741,64.7758,155.685,102.665,93.3193,0.0128747,0.586887,20.4212,470.859,0.875838,0.0,0.0
315,78.5,50.5809,62.4576,159.172,102.658,96.343,0.0090131,0.489192,20.5612,470.819,0.582567,0.0,0.0
324,80.75,49.1009,60.4133,156.658,102.654,99.315,0.00666985,0.396542,20.6799,470.829,0.303412,0.0,0.0
333,83,47.2494,57.1977,156.36,102.648,100.172,0.00538678,0.318544,20.7602,470.829,0.224094,0.0,0.0
342,85.25,46.0148,54.7126,160.349,102.611,100.569,0.00468847,0.254482,20.8218,470.849,0.184396,0.0,0.0
351,87.5,44.8962,53.3211,162.348,102.601,101.013,0.00411795,0.206599,20.8609,470.859,0.143162,0.0,0.0
360,89.75,43.6538,51.2579,159.89,102.587,99.5974,0.00346751,0.171648,20.8827,470.849,0.271381,0.0,0.0
369,92,43.156,49.6122,157.857,102.57,100.053,0.00280844,0.145847,20.8982,470.849,0.227929,0.0,0.0
378,94.25,42.5832,48.5226,156.915,102.555,100.21,0.00220952,0.126448,20.9105,470.849,0.212243,0.0,0.0
387,96.5,40.8904,47.217,162.814,102.55,100.22,0.00189687,0.111201,20.9186,470.849,0.210918,0.0,0.0
396,98.75,40.0593,45.8786,160.487,102.538,100.062,0.00188379,0.100883,20.9249,470.829,0.224216,0.0,0.0
405,101,40.1086,45.0747,161.907,102.522,99.8418,0.00189033,0.0914907,20.9306,470.819,0.2431,0.0,0.0
414,103.25,39.178,43.6251,157.004,102.499,100.505,0.00172438,0.0840593,20.9347,470.809,0.180325,0.0,0.0
423,105.5,38.4482,43.5846,158.674,102.483,99.9874,0.00149895,0.0789347,20.9382,470.899,0.226194,0.0,0.0
432,107.75,38.1331,42.7374,159.252,102.465,99.3576,0.00145249,0.0744473,20.9389,470.859,0.282549,0.0,0.0
441,110,38.0264,41.7848,160.217,102.438,99.5868,0.00149505,0.0724237,20.9357,470.849,0.259044,0.0,0.0
450,112.25,37.7049,41.7322,160.147,102.426,99.7252,0.00159606,0.0721931,20.9317,470.839,0.245189,0.0,0.0
459,114.5,37.7607,41.3175,158.941,102.407,99.6664,0.00175807,0.0719583,20.9305,470.839,0.248904,0.0,0.0
468,116.75,36.9537,40.726,157.188,102.373,99.781,0.0018705,0.0706199,20.9313,470.839,0.235367,0.0,0.0
477,119,37.2762,40.0167,165.088,102.352,99.5188,0.00202902,0.0687024,20.9337,470.839,0.25755,0.0,0.0
486,121.25,36.5853,39.5821,156.533,102.347,99.8175,0.00217694,0.0669726,20.9358,470.849,0.229609,0.0,0.0
495,123.5,36.4257,39.0684,159.483,102.334,100.607,0.00231251,0.0654932,20.9371,470.839,0.156205,0.0,0.0
504,125.75,36.1589,39.5597,160.11,102.308,99.5493,0.00244339,0.0642071,20.9389,470.829,0.250789,0.0,0.0
513,128,35.7032,39.1586,159.465,102.269,100.054,0.00254981,0.0629845,20.9402,470.829,0.200961,0.0,0.0
522,130.25,35.7016,38.628,159.174,102.246,100.593,0.0027644,0.0617537,20.9422,470.819,0.149587,0.0,0.0
531,132.5,35.5108,38.6925,159.12,102.218,99.8038,0.00320239,0.0605004,20.943,470.829,0.219292,0.0,0.0
540,134.75,35.8693,38.8669,160.488,102.198,99.6999,0.00358526,0.0596808,20.943,470.819,0.227116,0.0,0.0
549,137,35.2651,38.2913,157.352,102.169,99.2993,0.00374542,0.0589749,20.9438,470.819,0.261469,0.0,0.0
558,139.25,35.6208,38.0192,157.266,102.162,99.42,0.0039263,0.0583829,20.9443,470.829,0.24962,0.0,0.0
567,141.5,35.8992,37.8327,159.336,102.115,99.0123,0.00438974,0.0579341,20.9433,470.819,0.283104,0.0,0.0
576,143.75,35.5131,37.8118,157.807,102.098,99.5269,0.0049238,0.0577406,20.9439,470.789,0.234009,0.0,0.0
585,146,35.3389,37.8603,158.038,102.061,99.3434,0.00528993,0.0575188,20.9443,470.789,0.247614,0.0,0.0
594,148.25,34.8337,37.7162,157.721,102.017,99.9184,0.00544591,0.0573405,20.9445,470.779,0.190687,0.0,0.0
603,150.5,35.5293,37.3903,155.223,101.986,99.994,0.00555625,0.0573153,20.9445,470.779,0.181006,0.0,0.0
612,152.75,34.8972,37.3076,162.306,101.952,98.8383,0.00578787,0.0572956,20.9445,470.789,0.284595,0.0,0.0
621,155,34.9476,36.9799,163.365,101.915,99.2825,0.00611065,0.0572154,20.9446,470.759,0.240108,0.0,0.0
630,157.25,35.0147,37.5101,159.12,101.876,100.215,0.00646104,0.0572727,20.9433,470.738,0.150917,0.0,0.0
639,159.5,34.3067,37.2384,160.491,101.843,99.0422,0.00685779,0.0572446,20.9409,470.749,0.255852,0.0,0.0
648,161.75,34.7736,37.3725,161.938,101.809,98.9068,0.00732115,0.0572341,20.9395,470.738,0.265396,0.0,0.0
657,164,34.8887,37.441,160.13,101.772,99.313,0.00774682,0.0572256,20.9389,470.719,0.22441,0.0,0.0
666,166.25,34.5711,37.2273,161.029,101.725,99.4727,0.00808251,0.0572403,20.9387,470.719,0.205463,0.0,0.0
675,168.5,34.5766,37.5897,164.288,101.69,98.9534,0.00839866,0.0574662,20.9386,470.698,0.250364,0.0,0.0
684,170.75,35.0685,36.7121,157.515,101.638,99.2901,0.00868355,0.057705,20.9386,470.698,0.214431,0.0,0.0
693,173,34.7132,36.8462,163.13,101.597,99.5411,0.00883465,0.0575847,20.9392,470.698,0.187616,0.0,0.0
702,175.25,34.8078,37.0331,164.38,101.568,99.6218,0.00887782,0.0574822,20.9402,470.698,0.17758,0.0,0.0
711,177.5,34.0525,37.4704,159.056,101.514,99.3378,0.00894346,0.0574373,20.9411,470.688,0.19882,0.0,0.0
720,179.75,34.6995,36.816,159.825,101.479,98.8596,0.0090474,0.0575327,20.941,470.688,0.239967,0.0,0.0
729,182,34.4846,37.6025,163.551,101.428,98.6289,0.00893607,0.0577046,20.94,470.678,0.256821,0.0,0.0
738,184.25,34.0001,36.7653,165.72,101.407,99.0914,0.0086839,0.0578045,20.9395,470.668,0.211995,0.0,0.0
747,186.5,33.9016,36.6891,157.218,101.377,98.4915,0.00847282,0.0583529,20.9382,470.648,0.26499,0.0,0.0
756,188.75,34.0531,36.8839,160.479,101.338,98.8606,0.00825662,0.0590108,20.9368,470.648,0.227153,0.0,0.0
765,191,34.4802,36.6614,156.402,101.313,99.4996,,0.0594326,,470.648,0.165764,0.0,0.0
774,193.25,34.1608,37.3827,162.403,101.285,98.5721,,0.0597546,,470.628,0.24912,0.0,0.0
783,195.5,34.318,37.287,160.237,101.264,99.1375,,,,470.618,0.194734,0.0,0.0
792,197.75,34.1941,37.138,160.755,101.247,98.6208,,,,470.618,0.241153,0.0,0.0
801,200,34.4336,36.9931,158.576,101.217,98.9768,,,,470.608,0.205365,0.0,0.0
807,201.5,34.4417,37.0131,157.821,101.23,98.6304,,,,470.618,0.238763,0.0,0.0