Folder: fsri_materials_database/01_Data/Overstuffed_Chair_Polyester_Batting/Cone (part 2)

File: Overstuffed_Chair_Polyester_Batting_Cone_HF50Scan_210326_R3.csv
Names,Time,Stack TC,Smoke TC,Exh Press,Smoke Comp,Smoke Meas,CO Meter,CO2 Meter,O2 Meter,Sample Mass,Ext Coeff,Start Test,Flame Verif
Chan Gain,,500,500,1,1,1,1,1,1,1,1,1.0,1.0
Offset,,0,0,0.138348,0,0,0,0,0,0,0,0.0,0.0
Gain,,1,1,25.011,13.5067,16.616,1,1,1,1.00091,1.04608,1.0,1.0
Units,sec,C,C,Pa,%,%,%,%,%,g,/m,,
Baseline,,32.8908,35.0408,162.304,102.46,99.5145,-0.00135926,0.0472212,20.9613,0.000792389,0.26771,,
9,2,30.7485,32.8474,159.861,102.455,99.6177,-0.00145769,0.0482555,20.9588,487.424,0.25767,0.0,0.0
18,4.25,30.8974,33.2798,162.452,102.441,99.2024,-0.00133615,0.04902,20.9578,487.404,0.294824,0.0,0.0
27,6.5,30.7451,32.9686,160.86,102.457,99.3094,-0.00124591,0.0501501,20.9524,487.374,0.286335,0.0,0.0
36,8.75,30.5409,32.9645,163.937,102.44,99.3556,-0.00113823,0.0513143,20.949,487.344,0.280559,0.0,0.0
45,11,30.9602,33.1698,159.952,102.439,99.7896,-0.00104182,0.0521427,20.9479,487.344,0.240485,0.0,0.0
54,13.25,31.2649,33.4061,159.302,102.418,100.245,-0.0010325,0.0527429,20.9482,487.334,0.196703,0.0,0.0
63,15.5,31.2416,33.5828,162.463,102.417,99.4073,-0.00109743,0.0533338,20.9483,487.314,0.273715,0.0,0.0
72,17.75,30.8884,34.0814,162.022,102.419,99.3424,-0.00114946,0.0539279,20.9484,487.314,0.279894,0.0,0.0
81,20,31.5416,33.9195,160.274,102.402,98.7521,-0.00123829,0.0547917,20.9463,487.314,0.333061,0.0,0.0
90,22.25,31.5417,33.6541,157.903,102.381,99.8936,-0.00131105,0.0559568,20.9457,487.324,0.225686,0.0,0.0
99,24.5,31.1386,34.2288,160.765,102.388,98.2324,-0.00122072,0.0574379,20.9436,487.314,0.38023,0.0,0.0
108,26.75,31.7781,33.848,162.699,102.369,97.6721,-0.00101531,0.0595008,20.943,487.294,0.430984,0.0,0.0
117,29,32.1876,34.6421,161.579,102.348,96.9373,-0.000797808,0.0611525,20.9435,487.264,0.498426,0.0,0.0
126,31.25,31.8587,34.3785,163.784,102.348,96.8009,-0.000494946,0.0617862,20.9445,487.224,0.511347,0.0,0.0
135,33.5,31.6758,34.6656,163.934,102.342,95.7102,-3.43047e-05,0.0618022,20.9448,487.203,0.614738,0.0,0.0
144,35.75,31.9377,34.9956,160.454,102.312,93.8527,0.000339425,0.0614304,20.9465,487.153,0.791869,0.0,0.0
153,38,32.0235,35.0378,161.098,102.292,92.8518,0.000720536,0.0607797,20.948,487.123,0.888523,0.0,0.0
162,40.25,32.0638,34.7916,162.674,102.287,92.2747,0.00106372,0.0603776,20.9485,487.053,0.945249,0.0,0.0
171,42.5,32.5961,35.9248,160.129,102.276,90.6571,0.00134216,0.06077,20.9488,487.003,1.10653,0.0,0.0
180,44.75,32.7467,36.0091,159.306,102.249,89.645,0.00179221,0.0611675,20.9497,486.913,1.20711,0.0,0.0
189,47,33.2692,35.9011,159.079,102.225,87.3555,0.00265307,0.0618106,20.9489,486.823,1.4424,0.0,0.0
198,49.25,33.4238,36.3937,160.382,102.233,87.6552,0.00433586,0.0705031,20.9252,486.643,1.41172,0.0,1.0
207,51.5,34.0215,38.9305,142.022,102.209,71.3389,0.00712942,0.131414,20.7939,486.092,3.29953,0.0,1.0
216,53.75,35.0588,40.6802,148.303,102.189,77.1602,0.0108487,0.230867,20.6274,485.772,2.57793,0.0,1.0
225,56,37.8412,44.5066,145.227,102.181,64.6151,0.0158992,0.339512,20.4653,485.242,4.20543,0.0,0.0
234,58.25,41.0822,49.9117,135.319,102.168,55.8152,0.0230875,0.476126,20.2878,484.651,5.54764,0.0,0.0
243,60.5,44.5763,55.2449,131.48,102.144,58.0453,0.0285965,0.612347,20.1055,484.061,5.18596,0.0,0.0
252,62.75,47.7696,59.5376,136.746,102.12,60.6304,0.0313223,0.723898,20.0069,483.54,4.78395,0.0,0.0
261,65,49.4821,62.5939,140.723,102.097,59.882,0.0317374,0.790919,19.9697,483.02,4.89589,0.0,0.0
270,67.25,51.2382,64.9189,143.733,102.089,60.2278,0.0311516,0.822619,19.967,482.529,4.84231,0.0,0.0
279,69.5,53.7409,68.4573,137.89,102.061,65.7144,0.02906,0.84034,19.9724,482.119,4.03985,0.0,0.0
288,71.75,53.7559,68.0325,143.05,102.057,77.5152,0.0245483,0.819332,20.045,481.889,2.52392,0.0,0.0
297,74,53.0767,67.6491,144.278,102.024,85.7466,0.0187801,0.742458,20.2013,481.779,1.59488,0.0,0.0
306,76.25,54.3433,66.4139,150.985,102.016,92.5445,0.0135236,0.628463,20.3866,481.638,0.894098,0.0,0.0
315,78.5,51.7101,64.1061,156.577,101.999,94.4704,0.00913612,0.515313,20.5207,481.568,0.703616,0.0,0.0
324,80.75,50.1694,61.7296,157.21,101.991,96.8871,0.00623612,0.415106,20.6346,481.558,0.471046,0.0,0.0
333,83,48.8765,59.2915,155.331,101.979,99.0376,0.00468561,0.332071,20.7362,481.558,0.26856,0.0,0.0
342,85.25,46.9007,56.7098,157.907,101.965,99.8839,0.00403549,0.264165,20.801,481.578,0.189182,0.0,0.0
351,87.5,45.7771,53.9567,160.372,101.956,100.271,0.00380833,0.213696,20.8462,481.588,0.152919,0.0,0.0
360,89.75,44.9195,52.5444,158.553,101.96,98.9727,0.00378065,0.174468,20.8742,481.578,0.272906,0.0,0.0
369,92,43.6414,50.7471,158.464,101.954,99.8449,0.00376793,0.148785,20.8915,481.588,0.191842,0.0,0.0
378,94.25,42.7564,49.6863,159.019,101.941,99.7597,0.00361901,0.12689,20.9048,481.578,0.19845,0.0,0.0
387,96.5,41.7693,48.1642,160.058,101.949,99.1963,0.00337572,0.111345,20.9142,481.578,0.251122,0.0,0.0
396,98.75,40.9956,46.5675,156.895,101.955,99.5371,0.0032104,0.0993935,20.9212,481.568,0.220247,0.0,0.0
405,101,40.6111,45.312,160.757,101.949,99.2506,0.00328225,0.0904161,20.9274,481.568,0.246104,0.0,0.0
414,103.25,39.8722,45.1377,161.574,101.946,100.011,0.00345195,0.0831616,20.9314,481.568,0.175837,0.0,0.0
423,105.5,39.5303,43.5083,162.913,101.965,99.9027,0.00354663,0.0779215,20.9342,481.558,0.187496,0.0,0.0
432,107.75,39.2124,43.2107,158.471,101.959,99.103,0.00365832,0.0738544,20.9361,481.568,0.260721,0.0,0.0
441,110,38.0003,42.8399,153.961,101.971,99.1492,0.00392136,0.0702888,20.9374,481.558,0.257488,0.0,0.0
450,112.25,38.3706,41.6489,155.276,101.998,99.1908,0.00427164,0.0675755,20.9394,481.548,0.256089,0.0,0.0
459,114.5,37.8196,41.089,158.519,102.017,99.533,0.00456903,0.065719,20.9393,481.538,0.226184,0.0,0.0
468,116.75,37.7837,41.0756,159.882,102.003,99.4174,0.00482601,0.064061,20.939,481.538,0.235589,0.0,0.0
477,119,36.9817,40.7361,161.625,102.024,99.1284,0.00514387,0.0628254,20.9389,481.538,0.264196,0.0,0.0
486,121.25,37.2811,40.0828,157.211,102.029,99.3038,0.00550442,0.0618579,20.9379,481.518,0.248414,0.0,0.0
495,123.5,36.7622,39.6546,157.175,102.037,99.9463,0.0057847,0.0610846,20.937,481.538,0.18998,0.0,0.0
504,125.75,36.5708,39.9854,159.9,102.028,99.6182,0.00594048,0.0605841,20.9378,481.548,0.219298,0.0,0.0
513,128,36.368,39.266,158.493,102.034,99.4565,0.00606477,0.0599988,20.9384,481.518,0.234767,0.0,0.0
522,130.25,35.3365,39.0621,160.755,102.047,99.5477,0.00636628,0.0592959,20.9386,481.498,0.227571,0.0,0.0
531,132.5,36.0841,38.4096,155.892,102.039,99.2871,0.00672687,0.0587295,20.9387,481.478,0.250887,0.0,0.0
540,134.75,35.7651,38.8869,159.609,102.046,99.6872,0.00693617,0.0584386,20.9388,481.248,0.214579,0.0,0.0
549,137,36.042,38.7216,157.028,102.054,99.7414,0.007032,0.058073,20.9393,481.418,0.210365,0.0,0.0
558,139.25,35.2615,38.1593,157.959,102.06,99.9696,0.00709627,0.0578685,20.9402,481.448,0.189915,0.0,0.0
567,141.5,35.215,38.3786,162.167,102.06,99.9686,0.00725129,0.057918,20.9392,481.538,0.190007,0.0,0.0
576,143.75,35.2679,37.5802,162.847,102.051,99.2562,0.0075668,0.0580933,20.9382,481.508,0.254822,0.0,0.0
585,146,35.5251,37.4698,160.378,102.065,99.6441,0.00786234,0.05827,20.9378,481.508,0.220289,0.0,0.0
594,148.25,35.3708,38.1758,160.341,102.061,99.2866,0.00799398,0.0584909,20.9377,481.488,0.252862,0.0,0.0
603,150.5,35.4955,37.8479,162.235,102.067,99.6755,0.00806739,0.0586098,20.938,481.478,0.217544,0.0,0.0
612,152.75,35.3493,38.1454,157.094,102.07,99.2333,0.00799367,0.0587077,20.9396,481.478,0.258599,0.0,0.0
621,155,35.413,37.8627,159.697,102.063,99.567,0.007795,0.0586577,20.9403,481.448,0.227167,0.0,0.0
630,157.25,35.6597,37.7237,161.948,102.057,99.9108,0.00762027,0.0586219,20.9406,481.458,0.195019,0.0,0.0
639,159.5,35.2985,38.0649,162.02,102.056,99.7643,0.00753769,0.0585612,20.9407,481.458,0.208376,0.0,0.0
648,161.75,34.779,38.1828,163.094,102.043,99.4793,0.00758742,0.0584666,20.9399,481.428,0.233477,0.0,0.0
657,164,35.2208,38.2576,153.927,102.034,100.036,0.00757081,0.0584017,20.938,481.428,0.181447,0.0,0.0
666,166.25,34.9114,37.3413,155.574,102.016,99.4276,0.00752826,0.0583195,20.9369,481.418,0.235801,0.0,0.0
675,168.5,34.8826,36.7087,157.092,102.024,99.1335,0.00757817,0.0582563,20.9365,481.398,0.263726,0.0,0.0
684,170.75,34.955,37.5177,160.035,102.026,99.5959,0.0075524,0.0582103,20.9369,481.388,0.221168,0.0,0.0
693,173,34.8251,37.4255,164.728,101.982,99.3297,0.00745387,0.0580416,20.9365,481.398,0.241798,0.0,0.0
702,175.25,34.8362,36.9836,159.738,101.973,99.3236,0.00729313,0.0583268,20.9363,481.388,0.241581,0.0,0.0
711,177.5,34.9155,37.3977,163.808,101.967,99.6755,0.00719041,0.0584516,20.9356,481.368,0.208534,0.0,0.0
720,179.75,34.6475,37.2389,157.415,101.959,99.456,0.00721714,0.0585322,20.9346,481.378,0.228064,0.0,0.0
729,182,35.1536,37.3903,158.665,101.94,99.9874,0.00726587,0.0587324,20.9342,481.348,0.177494,0.0,0.0
738,184.25,34.6917,36.5886,159.194,101.934,99.6993,0.0072605,0.0588325,20.9337,481.358,0.203372,0.0,0.0
747,186.5,35.3682,37.0309,158.807,101.934,98.9539,0.00727367,0.0589555,20.9358,481.348,0.272272,0.0,0.0
756,188.75,34.6273,37.4865,154.531,101.929,99.7267,0.00735292,0.0590838,20.9376,481.318,0.200407,0.0,0.0
765,191,34.628,37.55,157.317,101.901,99.3966,0.00737505,0.0591061,20.9382,481.328,0.228308,0.0,0.0
774,193.25,34.5558,36.9357,158.66,101.912,99.3403,,0.0588946,,481.308,0.234544,0.0,0.0
783,195.5,34.7699,37.3226,156.816,101.899,99.5229,,0.0585607,,481.318,0.21651,0.0,0.0
792,197.75,34.2976,37.0382,160,101.88,98.7197,,,,481.298,0.28916,0.0,0.0
801,200,34.4066,37.226,160.002,101.869,99.6857,,,,481.278,0.198767,0.0,0.0
810,202.25,34.4525,37.1434,159.835,101.876,99.1857,,,,481.298,0.245575,0.0,0.0
815,203.5,34.3997,37.1162,159.612,101.851,99.4605,,,,481.278,0.217919,0.0,0.0

File: Overstuffed_Chair_Polyester_Batting_Cone_HF75Scalar_210325_R1.csv
LABORATORY,FSRI
TEST IDENT,PEbat_HF75_1
OPERATOR,Morrissey
MATERIAL,1 3/4'' Inch PE Batting
ORIENTATION,Horizontal
HEAT FLUX,75
SURF AREA,0.01
C FACTOR,0.0386052
SPEC HOLDER DIFF,-96.26
SPECIMEN MASS,6.56
SCAN TIME,0.25
O2 DELAY TIME,11
CO DELAY TIME,11
CO2 DELAY TIME,8
FLOW FACTOR,1
SCAN COUNT,715
TIME TO IGN,15.75
END OF TEST SCAN,235
END OF TEST TIME,58.75
TEST STATUS,1
PRE TEST CMT,"Approximate thickness: 1.75 inches"
POST TEST CMT,"Two opposing corners of the foil pan lifted upwards in the last few seconds prior to flame extinguishment. See post test picture."

File: Overstuffed_Chair_Polyester_Batting_Cone_HF75Scalar_210325_R2.csv
LABORATORY,FSRI
TEST IDENT,PEbat_HF75_2
OPERATOR,Morrissey
MATERIAL,1 3/4'' Inch PE Batting
ORIENTATION,Horizontal
HEAT FLUX,75
SURF AREA,0.01
C FACTOR,0.0386052
SPEC HOLDER DIFF,-297.24
SPECIMEN MASS,6.89
SCAN TIME,0.25
O2 DELAY TIME,11
CO DELAY TIME,11
CO2 DELAY TIME,8
FLOW FACTOR,1
SCAN COUNT,743
TIME TO IGN,16.5
END OF TEST SCAN,263
END OF TEST TIME,65.75
TEST STATUS,1
PRE TEST CMT,"Approximate thickness: 1.75 inches"
POST TEST CMT,"Two opposing corners of the foil pan lifted upwards in the last few seconds prior to flame extinguishment."

File: Overstuffed_Chair_Polyester_Batting_Cone_HF75Scalar_210325_R3.csv
LABORATORY,FSRI
TEST IDENT,PEbat_HF75_3
OPERATOR,Morrissey
MATERIAL,1 3/4'' Inch PE Batting
ORIENTATION,Horizontal
HEAT FLUX,75
SURF AREA,0.01
C FACTOR,0.0386052
SPEC HOLDER DIFF,-85.69
SPECIMEN MASS,6.45
SCAN TIME,0.25
O2 DELAY TIME,11
CO DELAY TIME,11
CO2 DELAY TIME,8
FLOW FACTOR,1
SCAN COUNT,746
TIME TO IGN,18.5
END OF TEST SCAN,266
END OF TEST TIME,66.5
TEST STATUS,1
PRE TEST CMT,"Approximate thickness: 1.75 inches"
POST TEST CMT,"Two opposing corners of the foil pan lifted upwards in the last few seconds prior to flame extinguishment."

File: Overstuffed_Chair_Polyester_Batting_Cone_HF75Scan_210325_R2.csv
Names,Time,Stack TC,Smoke TC,Exh Press,Smoke Comp,Smoke Meas,CO Meter,CO2 Meter,O2 Meter,Sample Mass,Ext Coeff,Start Test,Flame Verif
Chan Gain,,500,500,1,1,1,1,1,1,1,1,1.0,1.0
Offset,,0,0,0.138348,0,0,0,0,0,0,0,0.0,0.0
Gain,,1,1,25.011,13.5067,16.616,1,1,1,1.00091,1.04608,1.0,1.0
Units,sec,C,C,Pa,%,%,%,%,%,g,/m,,
Baseline,,40.0449,43.8068,157.187,101.997,99.6599,-0.000398012,0.082564,20.8705,-1.97876,0.212725,,
8,1.75,35.0721,37.8496,156.649,101.57,98.8738,-0.000296299,0.0860023,20.8678,473.231,0.246844,0.0,0.0
16,3.75,36.0262,38.936,158.596,101.561,98.7714,-0.00037689,0.0869562,20.865,473.161,0.255574,0.0,0.0
24,5.75,36.0003,39.2239,155.473,101.556,99.0077,-0.00055692,0.0885811,20.862,473.151,0.233201,0.0,0.0
32,7.75,36.8261,40.4161,158.68,101.546,98.7623,-0.000613898,0.0902402,20.861,473.121,0.255044,0.0,0.0
40,9.75,37.2763,40.3635,152.151,101.539,98.5412,-0.000582041,0.0912245,20.8618,473.091,0.275012,0.0,0.0
48,11.75,37.2522,40.1468,158.229,101.533,98.3221,-0.000406084,0.0913625,20.863,473.081,0.294875,0.0,0.0
56,13.75,37.433,40.8094,159.198,101.517,95.2873,0.000243511,0.0912102,20.8636,473.041,0.581158,0.0,0.0
64,15.75,38.1888,41.2809,161.348,101.518,88.9802,0.00163475,0.0960751,20.8578,472.88,1.20963,0.0,0.0
72,17.75,38.9528,43.8274,142.556,101.512,77.3473,0.00390161,0.121167,20.7882,472.55,2.49476,0.0,1.0
80,19.75,40.9382,46.5205,145.44,101.511,80.3431,0.00686463,0.188612,20.6587,472.43,2.14595,0.0,1.0
88,21.75,41.232,47.5347,146.011,101.512,69.229,0.0112227,0.268182,20.5133,471.86,3.51223,0.0,0.0
96,23.75,43.1783,51.7685,131.881,101.536,58.9195,0.0166365,0.37467,20.3431,471.439,4.99404,0.0,0.0
104,25.75,46.4817,56.2299,138.853,101.565,57.3755,0.0220476,0.492434,20.1968,470.979,5.24029,0.0,0.0
112,27.75,49.2789,60.9011,130.847,101.583,51.2895,0.0278443,0.608,20.038,470.418,6.27089,0.0,0.0
120,29.75,52.1532,65.2932,138.287,101.614,51.6399,0.032069,0.713785,19.8935,469.908,6.21121,0.0,0.0
128,31.75,55.1684,69.9438,131.131,101.644,54.9709,0.0339106,0.827988,19.8209,469.477,5.64033,0.0,0.0
136,33.75,57.0646,71.7014,135.945,101.67,61.8023,0.0329336,0.897627,19.8121,469.087,4.56779,0.0,0.0
144,35.75,57.6356,73.9081,137.628,101.701,65.1161,0.0300124,0.915069,19.8584,468.777,4.09134,0.0,0.0
152,37.75,58.365,75.1665,136.482,101.723,65.2433,0.0264479,0.898459,19.9276,468.426,4.07543,0.0,0.0
160,39.75,59.3965,75.9172,141.248,101.755,71.4241,0.0228384,0.864525,19.9995,468.136,3.24774,0.0,0.0
168,41.75,59.8548,75.774,143.163,101.766,76.8565,0.0188268,0.818252,20.0852,467.866,2.57606,0.0,0.0
176,43.75,59.9239,75.4807,141.715,101.794,79.6226,0.0157247,0.75809,20.1918,467.676,2.2541,0.0,0.0
184,45.75,59.575,74.8441,143.297,101.831,81.1991,0.0131796,0.686576,20.2888,467.486,2.07757,0.0,0.0
192,47.75,59.059,73.5719,144.127,101.837,83.7857,0.0110637,0.622453,20.356,467.315,1.79035,0.0,0.0
200,49.75,58.1686,71.7506,144.243,101.853,87.5944,0.00933998,0.565533,20.416,467.115,1.38388,0.0,0.0
208,51.75,57.4631,71.2623,140.98,101.882,90.0461,0.00742828,0.504041,20.5001,467.025,1.13321,0.0,0.0
216,53.75,56.2616,68.4875,149.673,101.892,93.9998,0.0057466,0.447814,20.5746,466.985,0.739754,0.0,0.0
224,55.75,55.123,67.0049,153.786,101.91,98.0422,0.00431868,0.388392,20.6393,466.935,0.35502,0.0,0.0
232,57.75,54.4306,64.9636,157.174,101.918,100.004,0.00360989,0.334609,20.6989,466.955,0.174001,0.0,0.0
240,59.75,52.6052,63.1617,154.275,101.941,100.002,0.00338848,0.28394,20.7435,466.955,0.176182,0.0,0.0
248,61.75,52.031,61.2365,156.376,101.953,99.5766,0.00352478,0.242911,20.7712,466.985,0.216417,0.0,0.0
256,63.75,50.9907,59.545,152.314,101.96,99.7932,0.00380086,0.209998,20.7888,467.015,0.197079,0.0,0.0
264,65.75,49.4011,57.7003,153.216,101.974,100.352,0.00404591,0.187306,20.7991,467.025,0.147102,0.0,0.0
272,67.75,48.3875,56.3087,154.36,101.98,99.8697,0.00424667,0.169178,20.807,466.955,0.191896,0.0,0.0
280,69.75,47.5783,54.8883,153.529,101.984,99.891,0.00444434,0.155467,20.813,466.995,0.190273,0.0,0.0
288,71.75,46.9948,53.4331,152.264,102.002,99.9615,0.00452095,0.145866,20.8182,466.945,0.185432,0.0,0.0
296,73.75,46.5111,53.1316,152.623,102.004,100.137,0.00452084,0.138166,20.8222,466.925,0.169479,0.0,0.0
304,75.75,46.2423,52.4904,154.488,101.998,99.7572,0.0044877,0.132188,20.8244,466.875,0.20384,0.0,0.0
312,77.75,46.4837,51.9128,156.417,102.016,100.093,0.00436242,0.127924,20.8266,466.935,0.174561,0.0,0.0
320,79.75,45.6385,50.8845,151.8,102.003,100.159,0.00422168,0.124523,20.8276,466.905,0.167408,0.0,0.0
328,81.75,45.325,50.1848,155.397,102.012,99.9438,0.00416999,0.12198,20.8293,466.895,0.187988,0.0,0.0
336,83.75,44.8321,50.5706,154.929,102.016,100.121,0.00436237,0.120439,20.8301,466.895,0.172087,0.0,0.0
344,85.75,45.0232,49.4271,150.786,102.005,100.439,0.00461887,0.118879,20.8311,466.805,0.141957,0.0,0.0
352,87.75,44.2812,49.2099,153.541,102.006,100.484,0.00466143,0.117328,20.8322,466.845,0.137946,0.0,0.0
360,89.75,43.9249,49.5474,154.528,102.019,99.8728,0.0044145,0.11603,20.8334,466.825,0.195102,0.0,0.0
368,91.75,44.4522,48.8195,157.941,102.014,99.9585,0.00406399,0.114469,20.8339,466.845,0.186824,0.0,0.0
376,93.75,43.6392,48.5554,152.975,102.005,99.997,0.00387515,0.112932,20.8353,466.795,0.182396,0.0,0.0
384,95.75,43.4809,48.5073,154.774,102.007,99.8494,0.00390335,0.111767,20.836,466.805,0.196133,0.0,0.0
392,97.75,43.145,48.3933,153.45,101.994,99.8631,0.0040292,0.110591,20.8364,466.775,0.193725,0.0,0.0
400,99.75,43.627,47.9095,155.595,101.999,99.8353,0.00403146,0.109767,20.8365,466.765,0.196733,0.0,0.0
408,101.75,43.2256,47.699,149.463,102.004,99.8834,0.00405781,0.109276,20.837,466.815,0.192752,0.0,0.0
416,103.75,42.7945,47.3836,153.965,101.981,99.8155,0.0042258,0.10887,20.8381,466.825,0.196993,0.0,0.0
424,105.75,43.1471,47.2742,154.537,101.986,99.7227,0.00436861,0.10845,20.8385,466.805,0.205935,0.0,0.0
432,107.75,43.1793,47.007,157.669,101.992,100.02,0.0043916,0.108099,20.8388,466.805,0.179144,0.0,0.0
440,109.75,42.8221,46.6064,157.052,101.986,99.993,0.00431872,0.107906,20.8388,466.785,0.1811,0.0,0.0
448,111.75,42.6702,46.6892,150.79,101.993,99.8707,0.00414824,0.107873,20.8405,466.785,0.192915,0.0,0.0
456,113.75,42.7015,47.0391,152.071,101.987,100.09,0.00397435,0.107604,20.8414,466.845,0.172244,0.0,0.0
464,115.75,42.502,46.6698,156.279,101.999,99.993,0.00382087,0.107086,20.8418,466.765,0.182249,0.0,0.0
472,117.75,42.352,46.3438,158.788,101.989,100.206,0.00364097,0.10674,20.843,466.725,0.161873,0.0,0.0
480,119.75,42.3669,46.3661,151.624,101.985,100.142,0.00359617,0.106128,20.8437,466.725,0.167401,0.0,0.0
488,121.75,41.5645,46.1818,150.543,102.015,99.9062,0.00362725,0.105754,20.8433,466.775,0.191656,0.0,0.0
496,123.75,41.9345,46.2821,156.279,101.989,100.118,0.0037174,0.105739,20.8426,466.855,0.169957,0.0,0.0
504,125.75,42.2992,45.5407,151.099,101.999,99.818,0.00388519,0.105815,20.8423,466.785,0.198355,0.0,0.0
512,127.75,42.0374,46.2364,155.468,101.993,100.04,0.00395894,0.106084,20.8422,466.715,0.177442,0.0,0.0
520,129.75,42.3651,45.4284,156.655,101.993,99.9245,0.00395075,0.106285,20.8423,466.715,0.188052,0.0,0.0
528,131.75,41.6971,46.2785,154.008,101.988,99.8337,0.00393107,0.106337,20.8426,466.675,0.195872,0.0,0.0
536,133.75,42.1632,45.9629,153.187,101.999,100.335,0.00387072,0.105932,20.8433,466.685,0.15094,0.0,0.0
544,135.75,41.6624,45.8817,153.445,101.996,99.927,0.00366693,0.105453,20.8437,466.685,0.188078,0.0,0.0
552,137.75,41.9614,45.6074,153.932,102.015,100.068,0.00355853,0.105014,20.8439,466.705,0.176848,0.0,0.0
560,139.75,41.2742,45.2931,156.04,102.001,99.9042,0.0037209,0.104748,20.8444,466.645,0.190619,0.0,0.0
568,141.75,41.019,45.8847,153.193,102.016,100.091,0.00387241,0.104365,20.8455,466.625,0.174793,0.0,0.0
576,143.75,41.8324,45.1271,150.992,102.005,100.08,0.00385211,0.104054,20.8468,466.605,0.174816,0.0,0.0
584,145.75,41.6369,45.18,156.18,102.009,99.9529,0.00370026,0.103756,20.8474,466.585,0.186817,0.0,0.0
592,147.75,41.6418,45.9831,153.885,102.008,99.7901,0.00351455,0.103483,20.8476,466.635,0.201735,0.0,0.0
600,149.75,41.6773,45.6134,158.073,102.013,100.224,0.00340104,0.103292,20.8465,466.635,0.162399,0.0,0.0
608,151.75,42.2081,45.2451,157.436,102.015,99.7262,0.003338,0.102824,20.8459,466.625,0.208242,0.0,0.0
616,153.75,41.6885,45.5475,156.77,101.997,100.057,0.0033848,0.102539,20.8457,466.645,0.176204,0.0,0.0
624,155.75,41.1535,45.6092,151.958,102.001,99.9605,0.00351933,0.102444,20.8455,466.655,0.185451,0.0,0.0
632,157.75,41.1131,45.7989,160.21,102,99.9453,0.00362454,0.102179,20.8462,466.635,0.1867,0.0,0.0
640,159.75,41.4082,45.366,151.917,102.006,99.6512,0.00361169,0.101913,20.8468,466.575,0.214298,0.0,0.0
648,161.75,41.0419,45.2161,155.308,101.989,99.7146,0.00345666,0.101364,20.8471,466.635,0.20698,0.0,0.0
656,163.75,41.3973,45.4471,155.051,101.991,99.7201,0.00337502,0.100988,20.8472,466.525,0.206578,0.0,0.0
664,165.75,41.2193,44.7814,155.147,101.991,99.9544,0.00333856,0.10086,20.8473,466.535,0.18512,0.0,0.0
672,167.75,41.6096,44.6911,155.258,101.981,100.114,0.00330086,0.100679,20.8473,466.565,0.169541,0.0,0.0
680,169.75,41.0263,45.3682,154.29,101.988,100.242,0.00339052,0.100411,20.8481,466.545,0.158429,0.0,0.0
688,171.75,41.491,45.3536,155.484,101.983,100.207,0.00349462,0.100246,20.849,466.575,0.161178,0.0,0.0
696,173.75,41.3426,44.8584,157.243,101.985,99.8489,0.00338605,0.100029,20.8504,466.645,0.194251,0.0,0.0
704,175.75,40.7313,44.963,154.509,101.99,99.8408,,0.0999218,,466.505,0.195442,0.0,0.0
712,177.75,41.2008,45.3804,156.292,101.992,100.001,,,,466.505,0.180922,0.0,0.0
720,179.75,41.3537,45.5551,157.1,101.988,99.8996,,,,466.465,0.189853,0.0,0.0
728,181.75,41.6196,45.5278,156.271,101.984,99.6334,,,,466.515,0.214003,0.0,0.0
736,183.75,41.2958,44.9512,154.052,101.986,99.7536,,,,466.495,0.20309,0.0,0.0
743,185.5,41.3014,45.6601,157.846,101.986,99.8652,,,,466.495,0.192872,0.0,0.0