Folder: fsri_materials_database/01_Data/Overstuffed_Chair_Polyester_Batting/Cone (part 3)

File: Overstuffed_Chair_Polyester_Batting_Cone_HF75Scan_210325_R3.csv
Names,Time,Stack TC,Smoke TC,Exh Press,Smoke Comp,Smoke Meas,CO Meter,CO2 Meter,O2 Meter,Sample Mass,Ext Coeff,Start Test,Flame Verif
Chan Gain,,500,500,1,1,1,1,1,1,1,1,1.0,1.0
Offset,,0,0,0.138348,0,0,0,0,0,0,0,0.0,0.0
Gain,,1,1,25.011,13.5067,16.616,1,1,1,1.00091,1.04608,1.0,1.0
Units,sec,C,C,Pa,%,%,%,%,%,g,/m,,
Baseline,,40.3716,43.5907,157.713,101.976,99.5504,-0.00067669,0.0821546,20.8721,-1.99207,0.22091,,
8,1.75,35.7887,37.5148,156.196,101.909,99.1664,-0.000567507,0.0863804,20.869,485.302,0.250326,0.0,0.0
16,3.75,35.9994,37.8779,154.526,101.901,99.5558,-0.000445255,0.0862111,20.8707,485.302,0.21362,0.0,0.0
24,5.75,36.5579,39.1576,157.509,101.906,99.2633,-0.000287544,0.0855704,20.8724,485.252,0.241147,0.0,0.0
32,7.75,36.9773,39.5701,157.633,101.899,99.3358,-0.000232319,0.0847588,20.8736,485.232,0.233815,0.0,0.0
40,9.75,37.6018,40.2903,152.913,101.907,99.1745,-0.0002441,0.0843161,20.8742,485.212,0.249391,0.0,0.0
48,11.75,37.2333,40.4335,153.877,101.895,97.8703,-9.55473e-05,0.0841676,20.8744,485.172,0.369749,0.0,0.0
56,13.75,37.7294,41.07,154.637,101.894,95.2102,0.000386961,0.0842928,20.8743,485.122,0.622573,0.0,0.0
64,15.75,38.4725,41.4811,154.809,101.887,92.0257,0.00124441,0.0849143,20.8739,485.072,0.934065,0.0,0.0
72,17.75,37.704,42.3737,157.328,101.885,86.2612,0.0027474,0.0876123,20.8653,484.981,1.52754,0.0,0.0
80,19.75,39.7353,44.2627,141.98,101.878,80.4927,0.00471828,0.122232,20.7521,484.541,2.16194,0.0,1.0
88,21.75,41.3374,46.8509,147.632,101.876,73.42,0.00834663,0.19763,20.6096,484.211,3.00569,0.0,1.0
96,23.75,41.9871,48.7691,144.451,101.878,68.3543,0.0129675,0.288116,20.4785,483.79,3.66197,0.0,0.0
104,25.75,43.7152,51.9105,139.777,101.881,58.0175,0.0190554,0.405902,20.3046,483.49,5.16668,0.0,0.0
112,27.75,46.7712,56.6623,137.722,101.883,60.7937,0.0245946,0.517137,20.1586,482.98,4.73795,0.0,0.0
120,29.75,49.1384,60.6104,136.037,101.874,54.5668,0.0304958,0.625916,20.032,482.559,5.72875,0.0,0.0
128,31.75,51.9499,65.3573,131.643,101.882,51.8042,0.0350942,0.73902,19.9011,481.999,6.20622,0.0,0.0
136,33.75,54.6672,69.1204,141.468,101.885,57.3217,0.0377906,0.838976,19.8307,481.528,5.27782,0.0,0.0
144,35.75,56.4355,72.3804,136.089,101.883,59.2233,0.0371059,0.905567,19.8035,481.078,4.9781,0.0,0.0
152,37.75,58.5553,74.5037,139.99,101.89,70.9622,0.0328848,0.928059,19.8447,480.808,3.31939,0.0,0.0
160,39.75,58.5765,74.3079,136.365,101.882,74.8854,0.0276618,0.890835,19.9631,480.587,2.82494,0.0,0.0
168,41.75,58.6186,74.2383,141.731,101.885,77.7089,0.0214872,0.823552,20.0924,480.347,2.48555,0.0,0.0
176,43.75,58.8327,73.6174,140.707,101.883,82.3121,0.0167059,0.743261,20.2056,480.147,1.95729,0.0,0.0
184,45.75,58.1127,73.3078,147.623,101.882,82.3836,0.013239,0.666228,20.3015,479.977,1.94925,0.0,0.0
192,47.75,57.3889,72.313,147.61,101.881,84.3506,0.0106515,0.595293,20.3873,479.837,1.7327,0.0,0.0
200,49.75,57.1763,70.8532,144.513,101.884,88.4244,0.00859644,0.531621,20.4559,479.687,1.30015,0.0,0.0
208,51.75,56.7034,69.1749,147.522,101.892,91.4314,0.00693432,0.475048,20.5223,479.627,0.993999,0.0,0.0
216,53.75,55.8973,68.0659,148.085,101.892,94.6788,0.00564499,0.418502,20.5855,479.547,0.673785,0.0,0.0
224,55.75,55.105,66.881,154.906,101.877,96.8095,0.00469572,0.367211,20.6381,479.476,0.468193,0.0,0.0
232,57.75,54.1881,64.766,156.212,101.895,98.6228,0.00415959,0.324254,20.6854,479.476,0.299504,0.0,0.0
240,59.75,52.8221,62.363,153.616,101.876,99.8084,0.00405622,0.279835,20.7309,479.466,0.188184,0.0,0.0
248,61.75,52.3998,61.2826,153.545,101.877,100.177,0.00416995,0.241349,20.7569,479.466,0.154428,0.0,0.0
256,63.75,50.6579,59.7419,150.58,101.877,99.8211,0.00434424,0.210878,20.7767,479.486,0.187092,0.0,0.0
264,65.75,50.4884,58.0684,155.41,101.883,99.9098,0.00440474,0.19192,20.7893,479.456,0.179459,0.0,0.0
272,67.75,48.4142,55.4365,153.997,101.888,100.266,0.00453511,0.173227,20.7986,479.446,0.147222,0.0,0.0
280,69.75,47.8713,55.5137,152.416,101.886,99.784,0.00477338,0.159935,20.8061,479.436,0.191275,0.0,0.0
288,71.75,47.2394,53.5146,147.642,101.894,99.925,0.00490524,0.150219,20.8113,479.446,0.179026,0.0,0.0
296,73.75,46.8235,52.9662,151.762,101.898,100.302,0.00492343,0.142531,20.8143,479.416,0.144818,0.0,0.0
304,75.75,45.813,52.623,153.911,101.904,99.5995,0.00493802,0.136948,20.8173,479.416,0.209898,0.0,0.0
312,77.75,45.6205,51.492,153.899,101.892,99.8824,0.00491133,0.132281,20.8208,479.396,0.182753,0.0,0.0
320,79.75,45.4618,51.232,153.073,101.89,99.712,0.00484017,0.128185,20.8248,479.436,0.198234,0.0,0.0
328,81.75,44.9239,50.0753,152.256,101.904,99.8586,0.00483696,0.124045,20.8286,479.406,0.186019,0.0,0.0
336,83.75,44.3423,49.8331,155.28,101.922,99.8439,0.00481118,0.120603,20.8312,479.366,0.189041,0.0,0.0
344,85.75,44.1081,49.6295,153.237,101.92,99.8931,0.00479241,0.117466,20.8329,479.396,0.1843,0.0,0.0
352,87.75,44.5514,48.5544,156.315,101.928,99.9022,0.00483104,0.114963,20.8355,479.396,0.184203,0.0,0.0
360,89.75,43.4066,48.9605,154.974,101.937,100.102,0.00484674,0.112849,20.8381,479.396,0.166603,0.0,0.0
368,91.75,43.1872,48.6296,154.932,101.934,99.9529,0.00481405,0.111233,20.8393,479.376,0.180103,0.0,0.0
376,93.75,43.3552,47.587,156.522,101.936,99.7445,0.00482672,0.109926,20.8408,479.386,0.199404,0.0,0.0
384,95.75,43.6372,47.5971,159.706,101.95,100.255,0.00487608,0.108753,20.8418,479.376,0.153893,0.0,0.0
392,97.75,42.9552,47.504,155.546,101.95,99.9387,0.00496983,0.107851,20.8421,479.356,0.182817,0.0,0.0
400,99.75,42.9179,48.0252,154.503,101.963,100.002,0.00510414,0.107189,20.8419,479.316,0.178269,0.0,0.0
408,101.75,42.5522,46.9912,151.578,101.972,100.098,0.00515711,0.106686,20.8418,479.416,0.170128,0.0,0.0
416,103.75,42.5874,47.5494,156.815,101.963,99.7364,0.00503263,0.106135,20.8431,479.406,0.2026,0.0,0.0
424,105.75,42.3618,46.6176,150.832,101.967,99.7212,0.00480995,0.105604,20.8436,479.376,0.20437,0.0,0.0
432,107.75,41.8176,46.5602,154.605,101.972,100.002,0.00474485,0.105219,20.8438,479.356,0.179049,0.0,0.0
440,109.75,42.2241,46.2803,153.709,101.97,100.375,0.00479203,0.104735,20.8444,479.356,0.144681,0.0,0.0
448,111.75,42.4942,46.0838,158.625,101.983,99.8069,0.00490864,0.104552,20.8451,479.306,0.197934,0.0,0.0
456,113.75,41.9713,46.3412,154.863,101.986,99.7288,0.00505878,0.1045,20.8454,479.296,0.20534,0.0,0.0
464,115.75,42.1329,46.2042,156.844,101.991,99.7435,0.00514703,0.104412,20.8456,479.336,0.204431,0.0,0.0
472,117.75,42.0419,46.0408,154.664,101.99,100.087,0.00512535,0.104037,20.8464,479.296,0.172783,0.0,0.0
480,119.75,41.9194,46.721,153.09,101.995,99.8205,0.00494693,0.103708,20.8484,479.286,0.197714,0.0,0.0
488,121.75,41.2764,45.9603,153.12,101.999,100.564,0.00474146,0.103217,20.8497,479.256,0.129992,0.0,0.0
496,123.75,41.5112,46.0367,153.965,101.996,99.6593,0.00448165,0.102529,20.8513,479.246,0.212697,0.0,0.0
504,125.75,41.6571,45.2419,157.221,102.006,99.9387,0.00434668,0.101693,20.8521,479.236,0.187898,0.0,0.0
512,127.75,41.6907,45.4101,155.054,102.002,100.1,0.00437592,0.101099,20.8524,479.216,0.172696,0.0,0.0
520,129.75,42.1799,45.4546,156.089,102.013,100.009,0.00443862,0.100816,20.8525,479.226,0.182068,0.0,0.0
528,131.75,41.509,45.0286,155.475,102.018,100.003,0.00449259,0.100459,20.8525,479.196,0.183108,0.0,0.0
536,133.75,41.7463,45.4836,152.44,102.009,99.6923,0.00446581,0.100236,20.8523,479.176,0.210776,0.0,0.0
544,135.75,42.1761,44.9877,153.212,102.01,99.7998,0.00430321,0.100111,20.8521,479.206,0.200998,0.0,0.0
552,137.75,41.4678,45.16,154.88,102.027,100.072,0.00419632,0.0999304,20.852,479.166,0.177515,0.0,0.0
560,139.75,41.2916,45.5422,153.381,102.001,100.11,0.00425463,0.099747,20.852,479.186,0.171738,0.0,0.0
568,141.75,41.2401,45.2921,150.935,102.007,99.8489,0.00432944,0.0995537,20.8529,479.166,0.19618,0.0,0.0
576,143.75,41.553,45.2093,152.605,102.001,100.024,0.00412326,0.0993181,20.8537,479.206,0.17955,0.0,0.0
584,145.75,41.3905,45.8233,154.594,102.014,99.7551,0.00372219,0.0990168,20.854,479.186,0.205435,0.0,0.0
592,147.75,41.2425,44.9398,157.953,102.01,99.8951,0.00338186,0.0987751,20.8541,479.176,0.1922,0.0,0.0
600,149.75,41.3968,44.8353,152.279,101.99,99.8342,0.00339196,0.0984741,20.8542,479.206,0.196048,0.0,0.0
608,151.75,41.4883,45.2012,155.214,102,100.099,0.00359257,0.0983099,20.8542,479.186,0.172632,0.0,0.0
616,153.75,41.4814,45.2803,152.544,102,100.232,0.00376031,0.0980495,20.8542,479.156,0.160507,0.0,0.0
624,155.75,40.9731,45.5024,157.42,102.005,99.9214,0.00380094,0.0979687,20.8541,479.156,0.18937,0.0,0.0
632,157.75,41.2403,45.3695,156.434,102.002,99.7582,0.0037524,0.0978085,20.8539,479.126,0.204079,0.0,0.0
640,159.75,41.34,45.3754,155.295,102.012,99.785,0.00365776,0.0976035,20.8548,479.116,0.202498,0.0,0.0
648,161.75,41.1319,45.2733,157.075,101.999,99.9123,0.00353911,0.0973551,20.8552,479.146,0.189652,0.0,0.0
656,163.75,40.9521,44.8833,154.1,102,99.6831,0.00335606,0.0971206,20.8554,479.136,0.210801,0.0,0.0
664,165.75,40.8808,45.2784,153.67,101.998,99.9387,0.00317029,0.0969248,20.8555,479.086,0.187119,0.0,0.0
672,167.75,40.7846,44.7906,153.106,101.997,100.19,0.0030699,0.0968598,20.8555,479.106,0.164027,0.0,0.0
680,169.75,41.2969,45.2137,154.742,101.996,99.6978,0.00301726,0.096844,20.8555,479.086,0.209113,0.0,0.0
688,171.75,40.5539,45.2614,158.545,101.988,100.079,0.00298108,0.0966812,20.8555,479.086,0.173463,0.0,0.0
696,173.75,41.343,45.181,153.858,101.993,99.5944,0.00303367,0.0965097,20.8555,479.076,0.218379,0.0,0.0
704,175.75,41.1219,44.6429,152.343,101.995,99.9012,,0.0962786,,479.056,0.190306,0.0,0.0
712,177.75,40.8593,44.2771,157.25,101.996,99.8216,,0.0960834,,479.066,0.19777,0.0,0.0
720,179.75,41.0536,45.1568,157.979,101.981,99.9377,,,,479.046,0.185729,0.0,0.0
728,181.75,40.8385,45.018,157.723,101.985,99.8931,,,,479.046,0.190161,0.0,0.0
736,183.75,40.8141,44.4906,157.742,101.979,99.7125,,,,479.056,0.206203,0.0,0.0
744,185.75,41.0626,44.26,155.237,101.996,99.9417,,,,479.066,0.186691,0.0,0.0
746,186.25,40.6695,44.2838,155.197,101.99,99.9291,,,,479.076,0.1873,0.0,0.0