Folder: fsri_materials_database/01_Data/Feather_Pillow_Cover/MCC

Note: 01_Data/README.md
# Materials and Products Database
## 01_Data

Raw data generated from each apparatus are included here in plain-text format. The data is organized first by material, next by the short name of test apparatus used, and where applicable additional filtering by test settings.

### material.json

Each material directory contains a json file of the same name as the material. This file links the data stored in the repository as well as data and graphs produced by the accompanying scripts (__02_Scripts__) to the respective landing page for the material on the front-end website.

File: Feather_Pillow_Cover_MCC_30K_min_220106_R3.txt
Sample ID:	C:\MCC\MCC Cal\Test\Feather_PillowA_Cover_MCC_30K_min_220106_R3.txt
Sample Weight (mg):	4.55
Heating Rate (C/s):	0.5
Combustor Temp (C):	900
N2 Flow Rate (cc/min):	80
O2 Flow Rate (cc/min):	20
Calibration File:	C:\MCC\MCC Cal\Coeff1 JN10440_30_210304.txt.txt
T Correction Coefficients:	0	1.024463	0
Time Shift (s):	14
*
Time (s)	Temperature (C)	N2 flow rate (cc/min)	O2 flow rate (cc/min)	Flow Rate (cc/min)	Oxygen (%)	HRR (W/g)	Heating rate (C/s)
0.001	113.035	80.012	19.993	104.215	20.073	0.343	-0.020
8.000	112.974	80.010	19.994	104.221	20.081	-0.196	-0.020
16.000	113.043	80.011	19.992	104.280	20.067	0.810	0.029
24.000	113.313	80.010	19.994	104.352	20.062	1.148	0.048
32.001	114.056	80.010	19.993	104.374	20.052	1.892	0.125
40.000	115.070	80.007	19.995	104.423	20.042	2.571	0.152
48.001	116.540	80.011	19.995	104.448	20.041	2.682	0.228
56.000	118.347	80.010	19.993	104.456	20.041	2.643	0.235
64.001	120.539	80.010	19.994	104.460	20.036	3.054	0.279
72.001	123.053	80.014	19.994	104.481	20.030	3.427	0.316
80.000	125.841	80.011	19.994	104.492	20.030	3.431	0.364
88.001	128.902	80.013	19.993	104.494	20.026	3.712	0.392
96.000	132.161	80.011	19.994	104.494	20.028	3.568	0.415
104.000	135.689	80.010	19.993	104.495	20.024	3.849	0.451
112.000	139.425	80.009	19.993	104.496	20.032	3.276	0.470
120.000	143.305	80.009	19.993	104.497	20.028	3.629	0.496
128.000	147.239	80.008	19.994	104.496	20.032	3.277	0.458
136.000	151.220	80.009	19.994	104.489	20.027	3.662	0.480
144.000	155.274	80.012	19.995	104.469	20.031	3.390	0.499
152.000	159.339	80.009	19.995	104.479	20.036	3.025	0.527
160.000	163.395	80.011	19.996	104.456	20.030	3.414	0.507
168.000	167.506	80.010	19.994	104.455	20.034	3.170	0.497
176.000	171.591	80.009	19.993	104.456	20.038	2.858	0.516
184.000	175.602	80.008	19.994	104.457	20.043	2.505	0.495
192.000	179.603	80.009	19.993	104.442	20.040	2.762	0.494
200.000	183.556	80.006	19.994	104.446	20.041	2.661	0.482
208.000	187.516	80.009	19.993	104.451	20.040	2.728	0.471
216.001	191.427	80.008	19.994	104.422	20.039	2.792	0.469
224.000	195.367	80.012	19.994	104.418	20.038	2.910	0.476
232.000	199.249	80.010	19.994	104.419	20.037	2.916	0.481
240.000	203.174	80.011	19.993	104.418	20.035	3.122	0.485
248.001	207.115	80.011	19.993	104.420	20.036	2.983	0.498
256.000	211.015	80.009	19.994	104.418	20.037	2.926	0.483
264.000	214.985	80.009	19.994	104.416	20.034	3.177	0.503
272.000	218.961	80.010	19.994	104.415	20.034	3.173	0.523
280.000	222.820	80.010	19.995	104.415	20.031	3.361	0.483
288.000	226.782	80.009	19.995	104.413	20.032	3.281	0.468
296.000	230.778	80.010	19.994	104.415	20.029	3.487	0.506
304.000	234.754	80.011	19.994	104.418	20.030	3.414	0.514
312.000	238.715	80.010	19.992	104.416	20.028	3.618	0.460
320.000	242.711	80.012	19.993	104.404	20.028	3.618	0.494
328.001	246.715	80.012	19.993	104.410	20.029	3.542	0.497
336.000	250.697	80.009	19.994	104.409	20.023	3.924	0.496
344.000	254.757	80.009	19.994	104.411	20.023	3.950	0.520
352.000	258.735	80.009	19.996	104.408	20.018	4.342	0.483
360.001	262.759	80.010	19.992	104.409	20.011	4.805	0.516
368.000	266.716	80.008	19.994	104.409	20.011	4.792	0.477
376.000	270.751	80.010	19.993	104.412	20.003	5.398	0.501
384.000	274.743	80.009	19.993	104.406	20.003	5.379	0.509
392.001	278.767	80.010	19.994	104.414	19.996	5.867	0.512
400.000	282.764	80.012	19.993	104.414	19.981	6.974	0.511
408.000	286.716	80.010	19.993	104.416	19.979	7.096	0.490
416.000	290.714	80.011	19.994	104.415	19.965	8.083	0.515
424.000	294.688	80.010	19.994	104.419	19.953	8.974	0.504
432.000	298.722	80.010	19.994	104.432	19.941	9.849	0.516
440.000	302.718	80.007	19.995	104.432	19.921	11.223	0.482
448.000	306.762	80.007	19.994	104.453	19.899	12.797	0.476
456.000	310.798	80.011	19.995	104.459	19.871	14.809	0.496
464.000	314.897	80.010	19.992	104.469	19.834	17.499	0.550
472.000	318.861	80.011	19.995	104.492	19.801	19.883	0.523
480.000	322.842	80.011	19.994	104.497	19.743	24.057	0.493
488.000	326.851	80.011	19.994	104.532	19.680	28.521	0.483
496.000	330.904	80.012	19.994	104.574	19.597	34.499	0.517
504.000	334.994	80.011	19.993	104.614	19.494	41.938	0.530
512.000	339.096	80.011	19.994	104.690	19.357	51.846	0.545
520.000	343.196	80.011	19.995	104.762	19.181	64.537	0.491
528.000	347.252	80.009	19.994	104.835	18.962	80.323	0.472
536.000	351.385	80.010	19.995	104.924	18.718	98.012	0.502
544.000	355.422	80.011	19.995	105.024	18.438	118.208	0.459
552.001	359.461	80.011	19.993	105.109	18.168	137.737	0.516
560.000	363.447	80.010	19.993	105.154	17.933	154.632	0.503
568.000	367.432	80.012	19.992	105.135	17.818	162.698	0.521
576.000	371.709	80.011	19.992	105.031	17.878	158.075	0.582
584.000	375.561	80.010	19.992	104.854	18.199	134.701	0.527
592.000	379.772	80.012	19.994	104.621	18.716	97.538	0.582
600.000	383.861	80.010	19.994	104.437	19.275	57.478	0.494
608.000	388.156	80.011	19.995	104.390	19.683	28.285	0.541
616.000	392.268	80.008	19.993	104.336	19.901	12.677	0.524
624.000	396.390	80.010	19.994	104.337	19.992	6.157	0.530
632.000	400.378	80.012	19.994	104.338	20.020	4.162	0.476
640.000	404.457	80.009	19.995	104.338	20.031	3.387	0.518
648.000	408.443	80.012	19.992	104.353	20.039	2.822	0.510
656.000	412.401	80.012	19.993	104.339	20.041	2.651	0.481
664.000	416.345	80.009	19.994	104.348	20.040	2.746	0.503
672.000	420.395	80.011	19.995	104.354	20.045	2.392	0.502
680.000	424.441	80.010	19.994	104.351	20.041	2.641	0.484
688.000	428.538	80.009	19.994	104.347	20.045	2.357	0.505
696.000	432.579	80.010	19.995	104.358	20.050	2.047	0.498
704.000	436.688	80.011	19.993	104.348	20.042	2.592	0.537
712.000	440.730	80.011	19.993	104.342	20.047	2.220	0.517
720.000	444.804	80.011	19.994	104.333	20.046	2.304	0.513
728.000	448.879	80.012	19.994	104.337	20.048	2.155	0.511
736.001	452.965	80.011	19.994	104.334	20.049	2.051	0.543
744.000	457.028	80.011	19.994	104.335	20.052	1.847	0.475
752.000	461.097	80.012	19.994	104.338	20.054	1.718	0.461
760.000	465.144	80.011	19.995	104.338	20.056	1.596	0.473
768.000	469.235	80.008	19.995	104.339	20.060	1.296	0.514
776.000	473.258	80.009	19.993	104.342	20.059	1.337	0.517
784.000	477.369	80.012	19.993	104.333	20.065	0.937	0.498
792.000	481.375	80.011	19.993	104.335	20.063	1.067	0.507
800.000	485.394	80.011	19.993	104.333	20.063	1.102	0.486
808.000	489.371	80.011	19.994	104.338	20.064	0.992	0.502
816.000	493.418	80.012	19.994	104.332	20.060	1.325	0.536
824.000	497.443	80.010	19.995	104.334	20.062	1.182	0.510
832.000	501.504	80.009	19.993	104.338	20.061	1.192	0.512
840.000	505.492	80.010	19.994	104.339	20.069	0.675	0.510
848.000	509.562	80.009	19.995	104.333	20.068	0.735	0.510
856.000	513.547	80.009	19.993	104.336	20.067	0.816	0.517
864.000	517.627	80.010	19.994	104.336	20.071	0.543	0.511
872.000	521.698	80.011	19.992	104.337	20.066	0.853	0.513
880.000	525.724	80.009	19.995	104.330	20.068	0.702	0.482
888.000	529.817	80.012	19.993	104.331	20.071	0.520	0.517
896.000	533.996	80.011	19.993	104.334	20.069	0.661	0.541
904.000	538.200	80.008	19.993	104.338	20.075	0.257	0.548
912.000	542.453	80.008	19.995	104.334	20.069	0.651	0.557
920.000	546.557	80.009	19.993	104.325	20.069	0.673	0.515
928.000	550.669	80.009	19.993	104.328	20.067	0.776	0.508
936.000	554.771	80.008	19.993	104.327	20.066	0.847	0.481
944.000	558.827	80.010	19.993	104.328	20.067	0.784	0.499
952.000	562.924	80.012	19.993	104.336	20.067	0.804	0.488
960.000	566.968	80.010	19.994	104.329	20.071	0.502	0.508
968.000	571.083	80.010	19.993	104.333	20.071	0.502	0.521
976.000	575.234	80.012	19.994	104.329	20.070	0.561	0.505
984.001	579.349	80.009	19.994	104.328	20.074	0.276	0.496
992.000	583.457	80.009	19.994	104.331	20.076	0.173	0.506
1000.000	587.547	80.008	19.996	104.335	20.076	0.137	0.516
1008.000	591.645	80.008	19.995	104.336	20.076	0.145	0.514
1016.000	595.682	80.009	19.994	104.337	20.077	0.098	0.489
1024.000	599.780	80.009	19.993	104.333	20.078	0.029	0.513
1032.001	603.851	80.011	19.993	104.321	20.079	-0.049	0.485
1040.001	607.919	80.010	19.993	104.322	20.075	0.204	0.517
1048.000	612.013	80.010	19.993	104.317	20.075	0.229	0.496
1056.000	616.116	80.012	19.994	104.324	20.074	0.300	0.521
1064.000	620.215	80.009	19.994	104.321	20.079	-0.033	0.522
1072.000	624.227	80.009	19.994	104.315	20.078	-0.004	0.500
1080.000	628.313	80.008	19.994	104.328	20.078	0.022	0.462
1088.001	632.422	80.008	19.994	104.312	20.076	0.167	0.532
1096.000	636.534	80.008	19.993	104.319	20.076	0.133	0.506
1104.001	640.555	80.009	19.994	104.312	20.072	0.421	0.480
1112.000	644.590	80.011	19.993	104.316	20.077	0.090	0.499
1120.000	648.645	80.010	19.994	104.316	20.076	0.129	0.514
1128.000	652.740	80.010	19.993	104.306	20.077	0.094	0.534
1136.000	656.830	80.011	19.993	104.316	20.075	0.261	0.472
1144.000	660.896	80.009	19.993	104.310	20.074	0.276	0.479
1152.001	664.973	80.008	19.993	104.325	20.076	0.139	0.480
1160.001	668.996	80.009	19.994	104.320	20.080	-0.157	0.541
1168.000	673.113	80.009	19.994	104.325	20.080	-0.135	0.542
1176.001	677.263	80.008	19.994	104.306	20.076	0.151	0.508
1184.001	681.273	80.009	19.995	104.308	20.076	0.139	0.502
1192.000	685.342	80.010	19.994	104.309	20.084	-0.433	0.498
1200.000	689.452	80.010	19.993	104.302	20.077	0.096	0.502
1208.000	693.506	80.009	19.993	104.309	20.080	-0.133	0.497
1216.001	697.599	80.010	19.993	104.305	20.080	-0.129	0.540
1224.000	701.659	80.009	19.993	104.319	20.081	-0.178	0.519
1232.000	705.744	80.009	19.993	104.302	20.076	0.157	0.499
1240.000	709.769	80.010	19.993	104.307	20.080	-0.143	0.484
1248.000	713.814	80.009	19.994	104.307	20.076	0.182	0.490
1256.000	717.896	80.009	19.994	104.304	20.081	-0.169	0.505
1264.000	721.864	80.008	19.994	104.297	20.081	-0.229	0.494
1272.000	725.790	80.011	19.994	104.315	20.082	-0.292	0.487
1280.000	729.779	80.010	19.995	104.307	20.091	-0.888	0.517
1288.000	733.797	80.009	19.995	104.316	20.078	0.025	0.523
1296.000	737.761	80.013	19.993	104.303	20.080	-0.161	0.511
1304.000	741.832	80.011	19.993	104.300	20.078	0.039	0.525
1307.500	743.612	80.011	19.994	104.305	20.077	0.047	0.503