Folder: fsri_materials_database/01_Data/Countertop_Plastic_Laminate/Cone (part 2)

File: Countertop_Plastic_Laminate_Cone_HF75Scan_220504_R1.csv
Names,Time,Stack TC,Smoke TC,Exh Press,Smoke Comp,Smoke Meas,CO Meter,CO2 Meter,O2 Meter,Sample Mass,Ext Coeff,Start Test,Flame Verif
Chan Gain,,500,500,1,1,1,1,1,1,1,1,1.0,1.0
Offset,,0,0,0.138628,0,0,0,0,0,0,0,0.0,0.0
Gain,,1,1,25.011,13.1256,14.6231,1,1,1,1.001,0.958019,1.0,1.0
Units,sec,C,C,Pa,%,%,%,%,%,g,/m,,
Baseline,,47.6666,49.573,129.748,98.1625,101.56,0.00033567,0.042439,21.0037,-446.626,-0.285846,,
138,34.25,55.8554,55.7861,114.163,98.6012,102.746,0.00400254,0.307859,20.5581,738.16,-0.346059,0.0,0.0
276,68.75,60.6109,62.8945,124.897,98.8296,102.243,0.00280541,0.226633,20.8185,735.016,-0.285312,0.0,0.0
414,103.25,62.363,65.9442,118.525,99.0234,94.8265,0.00582312,0.266137,20.7061,732.294,0.363939,0.0,0.0
552,137.75,67.3763,70.8142,115.056,99.305,96.7762,0.00872748,0.360559,20.6117,728.18,0.216769,0.0,0.0
690,172.25,72.2572,75.6336,117.51,99.3815,99.4034,0.00973329,0.388618,20.6026,723.525,-0.00184852,0.0,0.0
828,206.75,73.7907,78.1755,115.425,99.3307,102.351,0.0073505,0.362177,20.6375,718.83,-0.251755,0.0,0.0
966,241.25,73.8921,78.6009,113.925,98.9902,102.524,0.00389311,0.333823,20.6696,714.676,-0.294742,0.0,0.0
1104,275.75,74.4044,78.7964,116.374,98.733,103.688,0.00293315,0.322191,20.6744,710.842,-0.411498,0.0,0.0
1242,310.25,74.0691,79.0917,120.821,99.4072,103.866,0.00243928,0.31019,20.6933,707.409,-0.368732,0.0,0.0
1380,344.75,74.2136,78.1643,116.105,99.5225,105.08,0.00186035,0.299073,20.7041,704.095,-0.456626,0.0,0.0
1518,379.25,72.9862,77.8288,113.57,99.2305,104.863,0.00164251,0.285796,20.72,701.002,-0.463957,0.0,0.0
1656,413.75,72.3834,77.0063,118.485,99.1732,105.266,0.0015234,0.271789,20.7366,698.079,-0.501077,0.0,0.0
1794,448.25,72.162,75.9594,118.723,99.3963,106.614,0.00142265,0.256364,20.7526,695.397,-0.589101,0.0,0.0
1932,482.75,70.8286,75.1136,119.079,99.6904,106.1,0.00140775,0.241314,20.7716,692.764,-0.523658,0.0,0.0
2070,517.25,70.4954,73.7892,118.737,99.9187,106.909,0.00151585,0.230102,20.7844,690.242,-0.568273,0.0,0.0
2208,551.75,69.8062,72.5503,120.15,99.9463,106.748,0.00122947,0.219407,20.7982,687.819,-0.553311,0.0,0.0
2346,586.25,68.2932,71.5312,117.684,99.4128,106.343,0.00120475,0.212655,20.8042,685.497,-0.566333,0.0,0.0
2484,620.75,68.4745,70.7644,120.889,98.6673,105.543,0.00132794,0.211553,20.8052,683.084,-0.56608,0.0,0.0
2622,655.25,68.3929,71.0615,122.177,98.2451,105.018,0.00126612,0.210514,20.8042,680.772,-0.560224,0.0,0.0
2760,689.75,67.7605,70.9724,118.363,98.4266,105.594,0.00120906,0.208466,20.8095,678.43,-0.590694,0.0,0.0
2898,724.25,67.5793,70.6329,122.559,98.5988,106.09,0.000999903,0.20771,20.8131,676.097,-0.615402,0.0,0.0
3036,758.75,67.7198,70.4461,123.201,98.8856,105.823,0.00141345,0.207347,20.8146,673.815,-0.569792,0.0,0.0
3174,793.25,67.2677,70.1379,117.404,99.2153,105.931,0.00111204,0.205157,20.815,671.523,-0.550429,0.0,0.0
3312,827.75,67.3663,69.9972,119.56,99.3807,106.345,0.000993429,0.204594,20.8176,669.231,-0.569148,0.0,0.0
3450,862.25,67.4171,70.1125,123.92,99.4865,106.054,0.00106542,0.203348,20.819,666.948,-0.537186,0.0,0.0
3588,896.75,66.6145,69.3354,121.27,99.4204,105.867,0.00116748,0.201949,20.8212,664.706,-0.527977,0.0,0.0
3726,931.25,67.0911,69.7177,120.14,99.2081,106.963,0.00112508,0.201991,20.82,662.464,-0.632495,0.0,0.0
3864,965.75,66.8535,68.8197,121.024,98.8904,105.72,0.00106058,0.200852,20.8221,660.201,-0.561193,0.0,0.0
4002,1000.25,66.4908,68.8315,122.218,98.9337,105.717,0.00121424,0.20038,20.8231,658.009,-0.55727,0.0,0.0
4140,1034.75,66.1164,69.1151,122.474,99.2706,106.175,0.00123317,0.200329,20.8227,655.807,-0.565056,0.0,0.0
4278,1069.25,66.0299,68.5676,119.514,99.563,106.881,0.000981597,0.1987,20.8248,653.585,-0.596068,0.0,0.0
4416,1103.75,66.1666,68.8263,120.034,99.6183,106.997,0.00103815,0.19906,20.8264,651.373,-0.600521,0.0,0.0
4554,1138.25,66.0795,68.9902,122.68,99.3727,105.247,0.00129032,0.200413,20.8225,649.2,-0.482659,0.0,0.0
4692,1172.75,66.0228,68.8279,121.535,99.2237,106.465,0.0013381,0.200042,20.8267,646.958,-0.591917,0.0,0.0
4830,1207.25,65.7726,69.2209,121.075,99.4909,106.396,0.00143356,0.20156,20.8225,644.776,-0.563893,0.0,0.0
4968,1241.75,65.9203,68.8986,122.313,99.8153,106.169,0.00139385,0.204382,20.8181,642.504,-0.518571,0.0,0.0
5106,1276.25,66.37,69.4023,120.546,100.07,107.288,0.00117363,0.209144,20.8118,640.281,-0.585278,0.0,0.0
5244,1310.75,66.9386,69.4773,119.643,99.9868,106.438,0.00116855,0.214979,20.8041,637.909,-0.525423,0.0,0.0
5382,1345.25,66.9649,70.3341,121.124,99.567,106.613,0.00154647,0.219703,20.7972,635.567,-0.574615,0.0,0.0
5520,1379.75,67.6709,70.8503,124.204,98.9553,106.826,0.00126209,0.226058,20.7874,633.064,-0.643197,0.0,0.0
5658,1414.25,68.5754,70.5642,119.678,98.6064,106.204,0.0012226,0.235068,20.781,630.562,-0.623727,0.0,0.0
5796,1448.75,69.1733,71.9468,121.133,98.4718,105.471,0.00123375,0.242614,20.7762,627.999,-0.577058,0.0,0.0
5934,1483.25,69.353,73.3542,116.723,98.4875,106.175,0.0010988,0.251314,20.7637,625.276,-0.631647,0.0,0.0
6072,1517.75,70.2752,73.6818,117.994,98.4342,105.004,0.0017166,0.260274,20.7508,622.474,-0.542925,0.0,0.0
6210,1552.25,71.2913,74.8528,119.9,98.4022,106.398,0.00146976,0.266948,20.7434,619.801,-0.656502,0.0,0.0
6348,1586.75,71.5216,75.517,118.664,98.3781,105.973,0.00144202,0.265363,20.7437,616.968,-0.624931,0.0,0.0
6486,1621.25,71.3316,75.4152,118.288,98.4791,106.108,0.00142413,0.259391,20.7541,614.235,-0.627029,0.0,0.0
6624,1655.75,71.5693,75.2363,122.293,98.7715,106.514,0.00124507,0.2502,20.761,611.683,-0.63418,0.0,0.0
6762,1690.25,71.0084,74.617,117.163,98.9557,107.316,0.00125717,0.255744,20.7528,609.09,-0.681551,0.0,0.0
6900,1724.75,72.145,75.9481,119.281,99.0531,106.815,0.00134685,0.26817,20.7392,606.378,-0.633988,0.0,0.0
7038,1759.25,72.1515,75.9355,118.507,99.134,106.588,0.00130283,0.276369,20.7302,603.555,-0.609272,0.0,0.0
7176,1793.75,72.6934,76.7148,120.244,99.3767,107.018,0.0014153,0.279806,20.727,600.742,-0.622569,0.0,0.0
7314,1828.25,73.4592,76.7984,113.226,99.5289,107.506,0.00142111,0.276717,20.7294,597.959,-0.647886,0.0,0.0
7452,1862.75,73.3506,76.7721,117.162,99.5894,106.591,0.00125198,0.274606,20.7333,595.206,-0.570963,0.0,0.0
7590,1897.25,73.2156,76.3159,118.47,99.6062,107.034,0.00149134,0.271685,20.7369,592.484,-0.604373,0.0,0.0
7728,1931.75,73.0162,76.514,113.054,99.611,107.451,0.00156428,0.270332,20.7373,589.861,-0.636699,0.0,0.0
7866,1966.25,73.257,76.5436,118.648,99.5906,107.689,0.00148937,0.271128,20.734,587.308,-0.657006,0.0,0.0
8004,2000.75,72.9788,76.371,118.687,99.5269,107.259,0.00128712,0.27151,20.7363,584.596,-0.628778,0.0,0.0
8142,2035.25,73.3594,76.6151,121.187,99.2197,107.121,0.00145366,0.274574,20.7338,581.953,-0.643913,0.0,0.0
8280,2069.75,73.3602,76.8389,118.642,98.9918,106.294,0.00175966,0.277731,20.7303,579.25,-0.598081,0.0,0.0
8418,2104.25,73.812,77.0852,117.106,98.9265,105.499,0.00133445,0.282667,20.7222,576.528,-0.540588,0.0,0.0
8556,2138.75,74.539,77.0056,116.678,99.3326,107.408,0.00159351,0.286884,20.7177,573.775,-0.656833,0.0,0.0
8694,2173.25,73.6713,77.663,119.106,99.4993,106.657,0.00155265,0.287026,20.7189,570.942,-0.583812,0.0,0.0
8832,2207.75,74.805,77.751,115.201,99.4524,106.078,0.00148254,0.288499,20.7185,568.129,-0.542007,0.0,0.0
8970,2242.25,74.89,78.0046,116.662,99.2581,106.059,0.00146153,0.290057,20.7166,565.316,-0.556919,0.0,0.0
9108,2276.75,74.5975,77.7181,118.374,99.3555,106.868,0.00158968,0.286964,20.7216,562.504,-0.612511,0.0,0.0
9246,2311.25,74.5179,77.744,118.218,99.3351,105.514,0.00126574,0.279861,20.7275,559.771,-0.507161,0.0,0.0
9384,2345.75,74.5702,77.3461,121.131,99.18,106.349,0.00177922,0.277986,20.7266,557.168,-0.586487,0.0,0.0
9522,2380.25,73.6519,77.3635,120.287,99.0178,105.427,0.00148983,0.276157,20.7284,554.556,-0.527037,0.0,0.0
9660,2414.75,72.9696,76.611,117.092,98.9389,105.983,0.00147577,0.256013,20.7462,552.223,-0.577943,0.0,0.0
9798,2449.25,70.9061,74.8123,118.906,98.9441,106.384,0.00147178,0.204979,20.8087,550.431,-0.609253,0.0,0.0
9936,2483.75,67.1201,70.6386,126.978,99.1893,107.016,0.00121168,0.141318,20.8777,549.46,-0.638261,0.0,0.0
10074,2518.25,63.7017,66.8286,124.025,99.6006,108.409,0.00195933,0.120261,20.9009,548.83,-0.712111,0.0,0.0
10212,2552.75,61.8443,64.4221,124.719,99.6599,107.412,0.00241088,0.113898,20.9094,548.319,-0.629471,0.0,0.0
10350,2587.25,60.9716,62.7077,126.003,99.591,107.253,0.00269309,0.111255,20.9135,547.889,-0.622879,0.0,0.0
10488,2621.75,59.7621,61.8803,126.345,99.6563,108.745,0.00285777,0.109491,20.9153,547.438,-0.733492,0.0,0.0
10626,2656.25,59.6587,60.7439,122.234,99.7024,106.778,0.00326353,0.106394,20.9187,547.108,-0.576166,0.0,0.0
10764,2690.75,58.6184,60.5125,125.976,99.5874,107.439,0.00325129,0.106243,20.9199,546.708,-0.637751,0.0,0.0
10902,2725.25,58.3048,60.2713,123.032,99.3479,106.701,0.00344016,0.105161,20.92,546.367,-0.60002,0.0,0.0
11040,2759.75,58.1659,59.9307,124.804,99.3903,107.91,0.00336074,0.104889,20.9224,546.027,-0.691108,0.0,0.0
11178,2794.25,57.6931,59.5451,123.302,99.4837,106.164,0.00351091,0.103532,20.923,545.687,-0.546153,0.0,0.0
11316,2828.75,57.5358,59.3601,123.517,99.5826,106.96,0.00395941,0.102574,20.9225,545.356,-0.600619,0.0,0.0
11454,2863.25,57.0507,59.173,124.519,99.5285,107.47,0.00371662,0.10146,20.9255,545.026,-0.645095,0.0,0.0
11592,2897.75,56.3317,59.2137,124.407,99.4636,106.596,0.00355683,0.100149,20.9278,544.756,-0.582005,0.0,0.0
11730,2932.25,56.6685,58.713,125.593,99.3983,107.016,0.00360773,0.100765,20.9242,544.425,-0.620564,0.0,0.0
11868,2966.75,57.0169,59.0375,127.769,99.1885,107.271,0.00394161,0.101222,20.9274,544.115,-0.658315,0.0,0.0
12006,3001.25,56.4745,58.3644,126.03,98.9381,107.096,0.00393364,0.101197,20.9254,543.845,-0.665837,0.0,0.0
12144,3035.75,56.2187,58.3063,132.729,98.9669,106.176,0.00372465,0.100759,20.9281,543.575,-0.59087,0.0,0.0
12282,3070.25,56.1346,58.4344,125.629,98.9617,105.789,0.00364401,0.100914,20.9278,543.244,-0.560633,0.0,0.0
12420,3104.75,55.9804,58.5251,126.164,99.0058,107.423,0.00351424,0.100143,20.9298,542.934,-0.685718,0.0,0.0
12558,3139.25,56.0014,57.9139,125.829,98.9938,106.21,0.00360916,0.0995543,20.93,542.554,-0.59131,0.0,0.0
12696,3173.75,54.5105,56.6292,123.482,99.0238,106.75,0.00362945,0.098885,20.9297,542.323,-0.631342,0.0,0.0
12834,3208.25,54.3504,56.1273,123.531,99.2842,105.698,0.00358579,0.0983394,20.9304,541.983,-0.526095,0.0,0.0
12972,3242.75,54.256,56.2379,127.124,99.5121,107.298,0.00361394,0.0969406,20.9331,541.723,-0.633071,0.0,0.0
13110,3277.25,54.0545,56.4774,124.316,99.6639,106.599,,0.0987792,,541.483,-0.565312,0.0,0.0
13146,3286.25,54.2047,55.8079,129.031,99.7072,107.391,,,,541.443,-0.623845,0.0,0.0