Folder: fsri_materials_database/01_Data/Eucalyptus_Flooring/Cone

Note: 01_Data/README.md
# Materials and Products Database
## 01_Data

Raw data generated from each apparatus are included here in plain-text format. The data is organized first by material, next by the short name of test apparatus used, and where applicable additional filtering by test settings.

### material.json

Each material directory contains a json file of the same name as the material. This file links the data stored in the repository as well as data and graphs produced by the accompanying scripts (__02_Scripts__) to the respective landing page for the material on the front-end website.

File: Eucalyptus_Flooring_Cone_HF25Scalar_220526_R1.csv
LABORATORY,FSRI
TEST IDENT,Oak_Flooring_25_1
OPERATOR,Dow
MATERIAL,Engineered Hardwood Floor
ORIENTATION,Horizontal
HEAT FLUX,25
SURF AREA,0.01
C FACTOR,0.0412233
SPEC HOLDER DIFF,-566
SPECIMEN MASS,161.8
SCAN TIME,0.25
O2 DELAY TIME,11
CO DELAY TIME,11
CO2 DELAY TIME,8
FLOW FACTOR,1
SCAN COUNT,8681
TIME TO IGN,187
END OF TEST SCAN,8201
END OF TEST TIME,2050.25
TEST STATUS,1
PRE TEST CMT,Dimensions: 100.25 x 100.13 x 14.22 mm; with tie wires

File: Eucalyptus_Flooring_Cone_HF25Scalar_220526_R3.csv
LABORATORY,FSRI
TEST IDENT,Oak_Flooring_25_3
OPERATOR,Dow
MATERIAL,Oak Flooring
ORIENTATION,Horizontal
HEAT FLUX,25
SURF AREA,0.01
C FACTOR,0.0411596
SPEC HOLDER DIFF,-566
SPECIMEN MASS,158.75
SCAN TIME,0.25
O2 DELAY TIME,11
CO DELAY TIME,11
CO2 DELAY TIME,8
FLOW FACTOR,1
SCAN COUNT,7963
TIME TO IGN,176.25
END OF TEST SCAN,7483
END OF TEST TIME,1870.75
TEST STATUS,1
PRE TEST CMT,Dimensions: 100.27 x 100.26 x 14.12 mm; with tie wires

File: Eucalyptus_Flooring_Cone_HF25Scan_220526_R1.csv
Names,Time,Stack TC,Smoke TC,Exh Press,Smoke Comp,Smoke Meas,CO Meter,CO2 Meter,O2 Meter,Sample Mass,Ext Coeff,Start Test,Flame Verif
Chan Gain,,500,500,1,1,1,1,1,1,1,1,1.0,1.0
Offset,,0,0,0.138596,0,0,0,0,0,0,0,0.0,0.0
Gain,,1,1,25.011,13.8491,15.2622,1,1,1,1.00087,1.03118,1.0,1.0
Units,sec,C,C,Pa,%,%,%,%,%,g,/m,,
Baseline,,27.0951,27.9137,140.433,105.407,109.758,0.000809672,0.0547066,20.9835,-452.881,-0.36588,,
91,22.5,24.7618,25.1022,141.064,104.917,108.922,0.000738105,0.0534294,20.988,209.152,-0.338856,0.0,0.0
182,45.25,25.2181,25.7285,140.927,104.895,108.931,0.000737884,0.0539757,20.9881,209.022,-0.341487,0.0,0.0
273,68,25.776,25.8702,141.85,104.78,109.083,0.000731085,0.0531975,20.9874,208.772,-0.36408,0.0,0.0
364,90.75,25.6996,26.6803,143.605,104.785,108.586,0.00033645,0.0547957,20.9874,208.411,-0.322299,0.0,0.0
455,113.5,25.0506,26.8332,141.673,105.349,109.653,0.00107669,0.0566729,20.9871,208.041,-0.362142,0.0,0.0
546,136.25,26.1799,27.2451,138.468,105.56,109.142,0.00141693,0.0589235,20.9843,207.591,-0.301805,0.0,0.0
637,159,26.3812,27.6054,137.175,105.434,108.524,0.00209928,0.0588934,20.9855,207.1,-0.26127,0.0,0.0
728,181.75,27.1437,27.4409,138.32,105.226,107.883,0.00306354,0.064205,20.9768,206.54,-0.225514,0.0,0.0
819,204.5,43.2987,39.6819,109.373,105.409,87.9327,0.0261897,0.760944,20.1133,202.867,1.63973,0.0,0.0
910,227.25,53.0424,52.804,123.78,105.496,109.746,0.00687075,0.453771,20.5159,198.933,-0.357277,0.0,0.0
1001,250,51.0828,53.3864,129.97,104.928,113.069,0.00346766,0.293965,20.7148,196.401,-0.675919,0.0,0.0
1092,272.75,46.2018,49.9558,131.383,104.853,112.204,0.00312222,0.2324,20.789,194.519,-0.612872,0.0,0.0
1183,295.5,41.9853,46.8748,132.136,105.31,111.251,0.00322752,0.205048,20.8212,192.918,-0.49643,0.0,0.0
1274,318.25,40.3394,44.0976,134.738,104.668,110.6,0.00376344,0.184926,20.8422,191.407,-0.498606,0.0,0.0
1365,341,38.2846,41.6748,134.455,104.256,110.232,0.00416265,0.172199,20.8552,190.015,-0.504108,0.0,0.0
1456,363.75,36.8473,40.2481,141.324,104.294,109.44,0.00432114,0.172579,20.8542,188.644,-0.435638,0.0,0.0
1547,386.5,37.5493,39.8803,137.194,104.367,110.121,0.00414414,0.171431,20.8575,187.323,-0.485443,0.0,0.0
1638,409.25,37.0878,39.5982,135.289,104.409,109.947,0.00477628,0.172375,20.8554,186.002,-0.467461,0.0,0.0
1729,432,36.1056,38.3538,133.093,104.497,109.975,0.00462151,0.174146,20.8539,184.671,-0.462185,0.0,0.0
1820,454.75,36.1276,38.0997,136.16,104.561,110.648,0.00539574,0.166985,20.8619,183.31,-0.511811,0.0,0.0
1911,477.5,35.6906,37.4459,136.806,104.748,110.87,0.0054258,0.167666,20.8646,181.868,-0.513774,0.0,0.0
2002,500.25,35.6779,37.3926,134.394,105.153,111.177,0.00505567,0.168266,20.8618,180.507,-0.503921,0.0,0.0
2093,523,35.8227,37.5704,137.392,105.354,111.788,0.00530092,0.166067,20.8621,179.146,-0.536141,0.0,0.0
2184,545.75,35.4203,37.6354,130.968,105.14,112.336,0.00511754,0.165398,20.8655,177.845,-0.59888,0.0,0.0
2275,568.5,35.3314,37.0242,139.563,104.9,111.284,0.00490379,0.167191,20.8628,176.504,-0.534437,0.0,0.0
2366,591.25,35.5941,37.0764,133.267,105.007,111.004,0.00544083,0.167258,20.8624,175.092,-0.502403,0.0,0.0
2457,614,34.8812,37.5486,135.264,105.16,111.04,0.00555628,0.168193,20.8611,173.691,-0.492153,0.0,0.0
2548,636.75,35.2323,37.0199,138.101,105.273,111.949,0.00557008,0.17103,20.8575,172.24,-0.55614,0.0,0.0
2639,659.5,35.139,36.664,136.824,105.259,111.925,0.00589026,0.171481,20.8604,170.809,-0.555382,0.0,0.0
2730,682.25,35.4472,36.8893,133.731,104.857,110.813,0.00634949,0.164352,20.8657,169.397,-0.499688,0.0,0.0
2821,705,35.0308,36.511,132.216,104.559,110.048,0.00513682,0.167212,20.8633,168.006,-0.46282,0.0,0.0
2912,727.75,35.2585,36.4335,136.445,104.671,109.893,0.00554302,0.160072,20.8715,166.665,-0.440341,0.0,0.0
3003,750.5,34.3845,36.3927,140.518,104.908,109.913,0.00526575,0.160354,20.8714,165.394,-0.421635,0.0,0.0
3094,773.25,34.6494,36.0069,135.66,105.018,110.777,0.00542836,0.15836,20.8732,164.123,-0.482916,0.0,0.0
3185,796,34.0139,35.6773,134.17,105.111,110.519,0.00553906,0.161572,20.8709,162.852,-0.453815,0.0,0.0
3276,818.75,34.3199,35.6657,140.613,105.168,110.86,0.00466303,0.163565,20.8659,161.601,-0.476807,0.0,0.0
3367,841.5,34.9637,36.795,130.452,105.257,111.432,0.00476508,0.166662,20.8643,160.31,-0.51565,0.0,0.0
3458,864.25,36.2454,37.6905,133.944,105.349,110.634,0.00478067,0.166926,20.8631,159.028,-0.442775,0.0,0.0
3549,887,35.1236,36.6064,134.284,104.943,111.512,0.00501571,0.16665,20.8638,157.667,-0.54914,0.0,0.0
3640,909.75,35.5816,36.5309,133.522,105.228,110.691,0.00472277,0.168167,20.8622,156.406,-0.457767,0.0,0.0
3731,932.5,35.7176,37.0733,132.403,105.514,112.564,0.00523861,0.17382,20.8567,155.075,-0.585079,0.0,0.0
3822,955.25,36.0042,37.1661,133.574,105.489,111.726,0.00502318,0.178983,20.8484,153.774,-0.519594,0.0,0.0
3913,978,36.1001,37.5214,135.249,105.433,111.057,0.00477049,0.180035,20.8481,152.333,-0.470103,0.0,0.0
4004,1000.75,36.3678,37.6417,134.304,104.812,110.579,0.00474487,0.185113,20.8435,151.082,-0.48452,0.0,0.0
4095,1023.5,36.5672,38.0991,134.297,105.085,110.468,0.00561884,0.184717,20.8425,149.76,-0.451916,0.0,0.0
4186,1046.25,36.5891,38.3084,136.45,105.239,111.599,0.00540696,0.186214,20.8405,148.399,-0.530812,0.0,0.0
4277,1069,36.8474,38.2485,136.095,104.608,110.292,0.00510806,0.186232,20.8406,147.008,-0.478655,0.0,0.0
4368,1091.75,37.2313,38.4324,135.76,104.219,110.312,0.00453916,0.192185,20.8356,145.667,-0.513943,0.0,0.0
4459,1114.5,37.7538,39.0369,132.245,104.22,110.145,0.00423996,0.198029,20.8284,144.196,-0.500114,0.0,0.0
4550,1137.25,37.9502,39.3843,132.245,104.301,110.178,0.00391949,0.204772,20.8212,142.774,-0.495787,0.0,0.0
4641,1160,38.5537,39.972,130.04,104.378,110.558,0.00436991,0.210685,20.8152,141.273,-0.520268,0.0,0.0
4732,1182.75,39.2957,40.728,133.816,104.505,110.918,0.00425197,0.221049,20.8052,139.692,-0.538696,0.0,0.0
4823,1205.5,40.0951,41.8758,129.342,104.854,111.212,0.00417472,0.232934,20.793,138.04,-0.532502,0.0,0.0
4914,1228.25,41.6837,43.0532,131.583,105.174,112.181,0.00366004,0.247611,20.7764,136.259,-0.583438,0.0,0.0
5005,1251,42.6403,44.5497,134.131,105.349,111.294,0.00436428,0.262447,20.7595,134.307,-0.4965,0.0,0.0
5096,1273.75,44.2744,45.8788,127.055,104.904,111.924,0.00389993,0.279833,20.7373,132.315,-0.585904,0.0,0.0
5187,1296.5,45.7536,47.6712,134.27,105.028,111.807,0.00361728,0.287535,20.7275,130.203,-0.565779,0.0,0.0
5278,1319.25,46.6669,48.7717,129.774,105.542,113.777,0.00367679,0.303048,20.7094,128.071,-0.679594,0.0,0.0
5369,1342,47.888,50.4608,125,105.304,111.723,0.00383356,0.327496,20.6813,125.719,-0.535219,0.0,0.0
5460,1364.75,50.6864,51.6188,124.754,105.793,112.673,0.00331675,0.361238,20.6402,123.267,-0.569952,0.0,0.0
5551,1387.5,53.5196,55.7909,126.219,105.897,112.929,0.003369,0.403945,20.5921,120.445,-0.581571,0.0,0.0
5642,1410.25,56.4911,58.9852,121.764,105.912,113.382,0.00343385,0.433771,20.554,117.382,-0.616461,0.0,0.0
5733,1433,59.2804,61.3952,123.272,105.735,112.405,0.00354835,0.456001,20.5268,114.209,-0.553342,0.0,0.0
5824,1455.75,60.7239,63.4332,129.14,105.225,111.707,0.00374477,0.461738,20.5168,110.907,-0.540728,0.0,0.0
5915,1478.5,60.6888,63.429,123.025,105.439,111.295,0.00336608,0.433515,20.5451,107.764,-0.488962,0.0,0.0
6006,1501.25,58.7481,62.5939,129.692,104.82,112.38,0.00282149,0.377868,20.6073,105.202,-0.629973,0.0,0.0
6097,1524,56.4579,60.5236,126.708,104.692,111.866,0.00295433,0.333343,20.6591,102.9,-0.599549,0.0,0.0
6188,1546.75,53.9543,57.8195,130.844,104.678,111.571,0.00317969,0.294007,20.7001,100.938,-0.576844,0.0,0.0
6279,1569.5,51.1959,55.4643,130.506,104.756,110.691,0.00301545,0.261026,20.7392,99.2764,-0.498475,0.0,0.0
6370,1592.25,48.5246,52.0802,129.166,104.855,111.613,0.0037284,0.229396,20.774,97.8652,-0.564952,0.0,0.0
6461,1615,45.7845,49.3803,134.662,104.844,110.805,0.00364786,0.200486,20.8069,96.6742,-0.500134,0.0,0.0
6552,1637.75,43.2283,46.3233,135.973,105.034,112.093,0.00462385,0.165503,20.8473,95.8034,-0.588414,0.0,0.0
6643,1660.5,39.9541,42.9073,137.468,105.419,111.335,0.00506614,0.134732,20.8814,95.1228,-0.493845,0.0,0.0
6734,1683.25,37.7248,39.758,136.943,105.556,110.693,0.00580756,0.122914,20.8987,94.6124,-0.429842,0.0,0.0
6825,1706,35.6929,37.5257,137.687,105.171,109.959,0.00536596,0.117213,20.9042,94.172,-0.402714,0.0,0.0
6916,1728.75,34.6602,35.9272,138.825,105.444,110.387,0.00545653,0.113234,20.9105,93.8217,-0.414407,0.0,0.0
7007,1751.5,33.5588,34.8723,137.352,105.938,111.052,0.00563572,0.111238,20.9133,93.4714,-0.426496,0.0,0.0
7098,1774.25,33.0029,33.9259,134.595,105.794,111.457,0.00588745,0.109297,20.9172,93.1911,-0.471608,0.0,0.0
7189,1797,32.5459,33.8968,137.533,105.383,110.182,0.0059907,0.106532,20.9211,92.9009,-0.402856,0.0,0.0
7280,1819.75,31.9198,32.5604,134.838,105.463,110.607,0.0060954,0.105389,20.9194,92.5105,-0.43077,0.0,0.0
7371,1842.5,30.4898,31.7422,140.361,105.611,110.539,0.00566218,0.105511,20.9204,92.2403,-0.412605,0.0,0.0
7462,1865.25,30.6873,30.9997,139.874,105.794,111.012,0.00643609,0.103544,20.9218,92.0101,-0.435475,0.0,0.0
7553,1888,30.1679,30.8594,135.664,105.883,111.112,0.00634489,0.101852,20.9258,91.6598,-0.436007,0.0,0.0
7644,1910.75,30.1044,30.7462,138.99,105.555,110.363,0.00601312,0.101988,20.9235,91.4296,-0.402892,0.0,0.0
7735,1933.5,29.4815,29.9786,139.767,105.188,108.613,0.00624074,0.104599,20.9208,91.1093,-0.28981,0.0,0.0
7826,1956.25,29.3368,29.8657,138.276,105.219,109.477,0.0060229,0.104171,20.9219,90.9191,-0.358828,0.0,0.0
7917,1979,29.0569,29.2686,138.562,105.318,109.536,0.0059996,0.101975,20.9247,90.6389,-0.355216,0.0,0.0
8008,2001.75,29.0628,29.1173,133.831,105.244,109.949,0.00599953,0.10482,20.9187,90.3887,-0.395622,0.0,0.0
8099,2024.5,28.6965,29.262,139.33,105.288,109.52,0.0056525,0.102565,20.9224,90.1685,-0.356485,0.0,0.0
8190,2047.25,28.804,29.6535,136.439,105.388,109.871,0.00593496,0.100343,20.926,89.9383,-0.376843,0.0,0.0
8281,2070,27.706,27.4203,140.335,105.529,109.554,0.00610604,0.0978631,20.9292,89.638,-0.338658,0.0,0.0
8372,2092.75,26.5327,27.4871,137.62,105.704,110.022,0.00608114,0.0972226,20.9312,89.3778,-0.362163,0.0,0.0
8463,2115.5,26.6868,27.9086,139.068,105.948,110.305,0.00603574,0.0969641,20.932,89.2177,-0.364498,0.0,0.0
8554,2138.25,26.8466,26.8617,141.872,105.332,110.077,0.00591453,0.0967115,20.9309,88.9775,-0.398604,0.0,0.0
8645,2161,26.5547,27.3034,140.374,104.506,108.721,,0.0967174,,88.8273,-0.357694,0.0,0.0
8681,2170,26.5079,27.5877,138.456,104.302,108.634,,,,88.7873,-0.368058,0.0,0.0

File: Eucalyptus_Flooring_Cone_HF25Scan_220526_R2.csv
Names,Time,Stack TC,Smoke TC,Exh Press,Smoke Comp,Smoke Meas,CO Meter,CO2 Meter,O2 Meter,Sample Mass,Ext Coeff,Start Test,Flame Verif
Chan Gain,,500,500,1,1,1,1,1,1,1,1,1.0,1.0
Offset,,0,0,0.138731,0,0,0,0,0,0,0,0.0,0.0
Gain,,1,1,25.011,13.8491,15.2622,1,1,1,1.00087,1.03118,1.0,1.0
Units,sec,C,C,Pa,%,%,%,%,%,g,/m,,
Baseline,,22.4162,22.9958,146.871,104.482,104.521,0.00110742,0.0470409,21.0024,-450.371,-0.00330719,,
81,20,21.1799,21.8078,147.762,105.021,105.044,0.0012399,0.0490132,21.002,209.122,-0.00201719,0.0,0.0
162,40.25,20.725,21.8639,147.965,105.008,105.019,0.00123493,0.0497599,20.9998,209.082,-0.000943566,0.0,0.0
243,60.5,21.5802,22.3812,146.335,104.926,105.281,0.000684107,0.0468651,21.0051,208.752,-0.0305671,0.0,0.0
324,80.75,21.8817,22.4789,147.664,104.772,105.168,0.00104632,0.0470229,21.0048,208.471,-0.0341453,0.0,0.0
405,101,21.8487,23.5471,142.337,104.6,105.137,0.00109814,0.0479744,21.0052,208.081,-0.0463249,0.0,0.0
486,121.25,22.9861,23.0423,145.502,105.089,105.02,0.00138192,0.0483697,21.0041,207.771,0.00596753,0.0,0.0
567,141.5,23.3436,23.8295,143.982,105.434,104.698,0.00183167,0.0495977,21.0018,207.351,0.0634037,0.0,0.0
648,161.75,23.3598,23.7226,144.883,105.414,104.159,0.00255462,0.0512206,21.0022,206.88,0.108417,0.0,0.0
729,182,31.0203,28.9511,126.534,105.366,90.5572,0.0161124,0.494987,20.4237,204.528,1.37003,0.0,0.0
810,202.25,46.8926,44.646,130.114,105.395,101.198,0.0124208,0.546897,20.4015,200.715,0.367529,0.0,0.0
891,222.5,47.4839,48.1129,135.806,105.327,109.144,0.00442804,0.317853,20.6956,198.213,-0.321975,0.0,0.0
972,242.75,44.4218,46.629,137.07,104.536,107.233,0.00349865,0.25136,20.773,196.271,-0.230435,0.0,0.0
1053,263,40.767,44.4474,138.61,104.818,107.21,0.0034594,0.203219,20.8307,194.71,-0.204071,0.0,0.0
1134,283.25,37.8468,41.6108,138.579,104.929,107.174,0.00436051,0.176306,20.8605,193.328,-0.191533,0.0,0.0
1215,303.5,35.2607,39.6514,142.592,104.861,106.818,0.00397149,0.162297,20.8761,192.127,-0.167281,0.0,0.0
1296,323.75,33.4902,36.8654,136.918,104.968,106.858,0.0041787,0.149707,20.8896,190.876,-0.161451,0.0,0.0
1377,344,32.2366,35.2123,141.568,104.979,107.135,0.00389389,0.14752,20.8927,189.875,-0.183933,0.0,0.0
1458,364.25,31.9062,34.4073,144.87,104.783,106.434,0.00401974,0.146525,20.8938,188.734,-0.141431,0.0,0.0
1539,384.5,31.5108,32.9411,142.468,104.573,106.053,0.00451746,0.145742,20.895,187.713,-0.127105,0.0,0.0
1620,404.75,30.8547,32.9174,137.146,105.301,107.202,0.00442777,0.147964,20.8916,186.572,-0.16185,0.0,0.0
1701,425,31.1752,33.1696,141.439,105.411,107.382,0.0044917,0.151029,20.8894,185.501,-0.167573,0.0,0.0
1782,445.25,31.6412,33.2278,140.471,105.045,107.165,0.00408088,0.156249,20.884,184.29,-0.180809,0.0,0.0
1863,465.5,31.4827,32.9657,140.685,105.007,106.645,0.0044954,0.160111,20.881,183.149,-0.140064,0.0,0.0
1944,485.75,31.8261,33.5987,141.133,105.395,106.948,0.00437659,0.163312,20.873,181.878,-0.13231,0.0,0.0
2025,506,32.5692,33.7084,139.311,105.722,107.88,0.00450796,0.165224,20.8717,180.647,-0.182839,0.0,0.0
2106,526.25,32.6016,33.4026,142.097,105.534,107.454,0.00486319,0.165588,20.8718,179.296,-0.163101,0.0,0.0
2187,546.5,32.7246,33.7254,145.183,104.769,106.027,0.00481617,0.165793,20.8723,177.985,-0.107896,0.0,0.0
2268,566.75,32.7597,34.2334,137.856,103.835,104.57,0.00465063,0.167544,20.8721,176.644,-0.0637845,0.0,0.0
2349,587,33.1751,34.159,140.748,103.707,105.2,0.00490019,0.163772,20.8752,175.293,-0.129329,0.0,0.0
2430,607.25,32.7636,34.254,143.965,104.365,106.135,0.00467806,0.162148,20.8758,174.001,-0.152098,0.0,0.0
2511,627.5,33.0587,34.4721,139.532,104.995,106.471,0.00486653,0.159497,20.8801,172.71,-0.126297,0.0,0.0
2592,647.75,32.7079,34.1579,139.95,104.783,105.673,0.0047214,0.170415,20.8673,171.419,-0.0765158,0.0,0.0
2673,668,32.6712,34.3299,134.386,104.933,107.412,0.00485499,0.165236,20.8727,170.098,-0.211271,0.0,0.0
2754,688.25,33.0663,33.9573,138.74,105.404,108.055,0.005116,0.16275,20.8763,168.837,-0.224667,0.0,0.0
2835,708.5,33.1957,34.6946,142.239,105.324,107.091,0.00528871,0.160724,20.8774,167.506,-0.150492,0.0,0.0
2916,728.75,33.112,34.4308,142.184,105.333,107.37,0.00554643,0.160398,20.8805,166.355,-0.173268,0.0,0.0
2997,749,32.8918,34.7995,143.77,105.362,107.635,0.00518969,0.157782,20.8814,164.994,-0.192984,0.0,0.0
3078,769.25,32.9874,34.2238,143.099,105.132,106.994,0.00509291,0.160417,20.8802,163.853,-0.158836,0.0,0.0
3159,789.5,33.0723,34.1676,141.927,104.506,105.821,0.00490228,0.160061,20.8791,162.612,-0.113118,0.0,0.0
3240,809.75,32.8683,33.9428,141.73,104.851,107.339,0.0048106,0.159542,20.881,161.441,-0.212069,0.0,0.0
3321,830,32.7778,34.1409,140.559,104.923,107.189,0.00493601,0.156535,20.8826,160.189,-0.193262,0.0,0.0
3402,850.25,32.576,33.9048,144.086,104.801,106.074,0.00507294,0.154497,20.8867,159.149,-0.109173,0.0,0.0
3483,870.5,31.9933,33.5887,140.453,104.892,106.965,0.0046853,0.153868,20.8871,157.9375,-0.17696,0.0,0.0
3564,890.75,32.3301,33.9595,143.54,105.007,106.484,0.00486041,0.152922,20.8881,156.947,-0.126346,0.0,0.0
3645,911,32.1684,33.4284,142.406,104.919,105.873,0.00468622,0.150151,20.8894,155.786,-0.0818628,0.0,0.0
3726,931.25,31.3461,32.8688,141.992,104.779,106.359,0.00487245,0.151252,20.8881,154.795,-0.135381,0.0,0.0
3807,951.5,31.9374,33.4519,141.762,104.633,105.597,0.00474922,0.15119,20.8885,153.674,-0.0829395,0.0,0.0
3888,971.75,31.5575,33.5355,140.609,104.523,105.822,0.00524119,0.154457,20.8871,152.673,-0.111731,0.0,0.0
3969,992,32.2294,33.5061,143.158,104.955,105.941,0.005361,0.156548,20.8829,151.552,-0.0845405,0.0,0.0
4050,1012.25,32.2022,34.0602,138.715,105.359,106.998,0.00492625,0.160263,20.8793,150.501,-0.139648,0.0,0.0
4131,1032.5,32.7924,34.1044,141.307,105.359,107.048,0.00513781,0.164919,20.8778,149.34,-0.143896,0.0,0.0
4212,1052.75,33.2084,34.1865,138.812,104.857,106.628,0.0047983,0.169062,20.8713,148.259,-0.151424,0.0,0.0
4293,1073,33.259,34.4443,136.616,105.266,107.188,0.0050934,0.178016,20.8611,147.068,-0.163721,0.0,0.0
4374,1093.25,33.8458,35.0605,137.91,105.675,107.797,0.00545382,0.181631,20.8545,145.877,-0.179785,0.0,0.0
4455,1113.5,34.887,36.1904,137.51,105.639,108.553,0.00504998,0.185324,20.8501,144.636,-0.24611,0.0,0.0
4536,1133.75,35.3902,36.4053,140.071,105.079,107.699,0.00534949,0.189546,20.8454,143.415,-0.222767,0.0,0.0
4617,1154,35.769,37.0669,137.043,104.294,106.467,0.00469558,0.193412,20.8408,142.124,-0.186589,0.0,0.0
4698,1174.25,36.1698,37.7352,138.058,103.799,105.924,0.00453866,0.198326,20.8391,140.883,-0.18332,0.0,0.0
4779,1194.5,37.0104,38.3128,136.153,103.67,106.406,0.00394757,0.205349,20.83,139.511,-0.235671,0.0,0.0
4860,1214.75,37.341,38.7641,140.875,103.664,107.007,0.00385544,0.209556,20.825,138.13,-0.287044,0.0,0.0
4941,1235,38.0467,39.161,136.629,103.748,107.595,0.00364925,0.219044,20.8145,136.679,-0.329335,0.0,0.0
5022,1255.25,39.0141,40.2589,135.446,103.928,107.426,0.00374915,0.222132,20.8101,135.248,-0.299465,0.0,0.0
5103,1275.5,39.4639,40.7813,135.849,104.398,107.542,0.00367007,0.229281,20.8028,133.736,-0.268413,0.0,0.0
5184,1295.75,39.9771,41.5821,137.317,105.104,108.312,0.00384277,0.239191,20.792,132.115,-0.271952,0.0,0.0
5265,1316,41.1437,42.8321,139.802,105.651,109.077,0.00390118,0.246754,20.7796,130.564,-0.288617,0.0,0.0
5346,1336.25,42.081,43.9288,134.841,105.48,108.083,0.00377051,0.261108,20.7659,128.762,-0.220483,0.0,0.0
5427,1356.5,42.6824,44.3818,132.756,105.499,108.839,0.003247,0.275677,20.7511,127.051,-0.281968,0.0,0.0
5508,1376.75,44.1256,45.8379,133.74,105.693,108.709,0.00375553,0.303553,20.7155,124.969,-0.254469,0.0,0.0
5589,1397,45.7991,47.3993,132.015,105.575,109.152,0.00293589,0.314982,20.7009,122.977,-0.301351,0.0,0.0
5670,1417.25,47.335,49.0739,133.013,105.144,108.88,0.00299959,0.329222,20.6862,120.715,-0.315867,0.0,0.0
5751,1437.5,48.8403,50.8795,132.146,104.67,108.82,0.00313191,0.357182,20.6554,118.453,-0.351686,0.0,0.0
5832,1457.75,52.1784,54.1773,125.77,104.287,108.487,0.00385735,0.409353,20.5909,115.821,-0.357113,0.0,0.0
5913,1478,55.4777,57.0538,130.458,104.042,107.373,0.00409866,0.451564,20.5374,112.938,-0.285065,0.0,0.0
5994,1498.25,57.2906,59.715,126.666,103.872,107.661,0.00419676,0.435875,20.5522,110.086,-0.324067,0.0,0.0
6075,1518.5,57.6795,60.4599,133.916,103.718,106.588,0.0036982,0.406172,20.5822,107.484,-0.246936,0.0,0.0
6156,1538.75,57.5267,60.1453,127.45,103.634,107.914,0.00305493,0.380996,20.6122,105.001,-0.366112,0.0,0.0
6237,1559,54.6051,58.7332,133.002,103.717,108.487,0.00252702,0.321694,20.6791,102.93,-0.406777,0.0,0.0
6318,1579.25,51.5974,55.6088,138.112,104.206,107.462,0.00259378,0.278103,20.7267,101.208,-0.278349,0.0,0.0
6399,1599.5,49.0326,52.8519,134.997,104.847,108.303,0.00249688,0.241858,20.7717,99.8169,-0.293355,0.0,0.0
6480,1619.75,46.4922,50.071,136.896,104.993,108.406,0.00364564,0.21312,20.8032,98.5858,-0.289377,0.0,0.0
6561,1640,44.0214,47.465,138.569,104.625,107.918,0.0042127,0.184902,20.8386,97.615,-0.280254,0.0,0.0
6642,1660.25,40.9699,44.1755,138.763,105.011,107.742,0.00518292,0.158497,20.87,96.8443,-0.232221,0.0,0.0
6723,1680.5,38.5072,41.4839,139.681,105.363,107.553,0.00594871,0.138484,20.892,96.1937,-0.186059,0.0,0.0
6804,1700.75,36.8232,38.9072,144.209,104.91,106.845,0.00667983,0.12598,20.9045,95.6833,-0.165298,0.0,0.0
6885,1721,34.9239,36.9564,145.715,105.357,107.338,0.00771999,0.115611,20.92,95.1428,-0.168488,0.0,0.0
6966,1741.25,33.275,34.8723,144.116,105.577,106.893,0.00804531,0.108566,20.9268,94.6924,-0.112041,0.0,0.0
7047,1761.5,31.6452,33.514,144.229,105.628,107.797,0.00834467,0.102373,20.9343,94.3321,-0.183841,0.0,0.0
7128,1781.75,30.8985,31.828,146.534,105.622,107.272,0.0082149,0.100144,20.9346,94.0319,-0.140225,0.0,0.0
7209,1802,30.2577,31.2767,144.424,105.482,107.341,0.00813224,0.0969085,20.9386,93.5915,-0.157989,0.0,0.0
7290,1822.25,27.8316,28.0127,146.364,105.205,106.356,0.00800431,0.0947916,20.9446,93.3813,-0.0984433,0.0,0.0
7371,1842.5,27.576,28.142,143.01,104.887,105.66,0.00756321,0.0938636,20.9453,93.001,-0.0663922,0.0,0.0
7452,1862.75,27.0458,27.2482,145.947,105.102,106.719,0.00739832,0.0944943,20.9429,92.7507,-0.13812,0.0,0.0
7533,1883,26.9315,27.1505,145.201,105.293,106.518,0.0072559,0.0942793,20.9456,92.4605,-0.104583,0.0,0.0
7614,1903.25,26.4676,26.7744,141.175,105.301,106.831,0.00737883,0.0933865,20.9464,92.2603,-0.130434,0.0,0.0
7695,1923.5,25.7579,26.7391,144.871,105.142,106.693,0.00753248,0.0954529,20.9414,91.93,-0.13245,0.0,0.0
7754,1938.25,26.0347,26.3795,146.158,104.936,106.015,,,,91.6898,-0.0925342,0.0,0.0