Folder: fsri_materials_database/01_Data/Eucalyptus_Flooring/Cone (part 2)

File: Eucalyptus_Flooring_Cone_HF25Scan_220526_R3.csv
Names,Time,Stack TC,Smoke TC,Exh Press,Smoke Comp,Smoke Meas,CO Meter,CO2 Meter,O2 Meter,Sample Mass,Ext Coeff,Start Test,Flame Verif
Chan Gain,,500,500,1,1,1,1,1,1,1,1,1.0,1.0
Offset,,0,0,0.138731,0,0,0,0,0,0,0,0.0,0.0
Gain,,1,1,25.011,13.8491,15.2622,1,1,1,1.00087,1.03118,1.0,1.0
Units,sec,C,C,Pa,%,%,%,%,%,g,/m,,
Baseline,,25.856,26.7095,146.347,104.869,105.995,0.0010802,0.047864,20.9938,-450.995,-0.0966004,,
84,20.75,23.3818,24.1476,148.007,104.974,105.853,0.000889069,0.0480346,20.999,208.451,-0.0754588,0.0,0.0
168,41.75,23.3743,24.1021,144.657,104.941,106.058,0.000869607,0.0478287,20.997,208.291,-0.0957555,0.0,0.0
252,62.75,24.3798,24.5727,145.438,104.894,105.735,0.000805621,0.047873,20.9952,208.061,-0.0721898,0.0,0.0
336,83.75,24.1806,25.0932,145.719,104.794,106.329,0.00116915,0.0482585,20.9955,207.751,-0.131572,0.0,0.0
420,104.75,24.5917,25.0077,146.494,104.719,106.101,0.00134856,0.0488994,20.9994,207.361,-0.118595,0.0,0.0
504,125.75,24.693,25.2001,147.705,104.633,105.462,0.00185784,0.0500898,20.9971,207.01,-0.0713616,0.0,0.0
588,146.75,24.9846,25.6813,147.279,104.448,105.444,0.00220228,0.0511017,20.9978,206.62,-0.0858608,0.0,0.0
672,167.75,25.8611,26.433,144.557,105.09,105.108,0.00243975,0.0523753,20.9965,206.119,-0.00154265,0.0,0.0
756,188.75,31.5895,29.6341,126.58,105.353,85.4208,0.0158651,0.462768,20.4674,204.308,1.89706,0.0,0.0
840,209.75,49.3455,47.0082,125.44,104.983,101.791,0.0169859,0.582719,20.3386,200.124,0.279323,0.0,0.0
924,230.75,51.7909,52.7344,132.318,105.688,108.652,0.00511541,0.364821,20.6273,197.152,-0.250213,0.0,0.0
1008,251.75,49.1928,51.7441,131.635,105.229,109.012,0.00381658,0.256734,20.7619,195.04,-0.319469,0.0,0.0
1092,272.75,44.9342,48.6858,139.709,104.191,109.03,0.00394054,0.206937,20.8225,193.448,-0.410644,0.0,0.0
1176,293.75,42.1031,45.7522,137.164,103.67,107.351,0.00381595,0.184562,20.8471,192.027,-0.315613,0.0,0.0
1260,314.75,39.858,43.4025,140.804,103.609,107.168,0.00387214,0.173052,20.8628,190.716,-0.305528,0.0,0.0
1344,335.75,38.8634,41.6674,136.263,103.586,106.775,0.00377159,0.167614,20.8659,189.405,-0.274316,0.0,0.0
1428,356.75,37.2105,39.6923,142.22,103.604,107.3,0.0048204,0.158634,20.8757,188.244,-0.317089,0.0,0.0
1512,377.75,36.2459,39.2259,138.421,103.939,106.489,0.00456691,0.172547,20.8609,186.963,-0.219219,0.0,0.0
1596,398.75,36.093,38.6539,136.553,104.868,109.104,0.00469183,0.168284,20.8649,185.652,-0.358271,0.0,0.0
1680,419.75,35.8547,38.0804,143.045,105.59,109.546,0.00514183,0.165363,20.868,184.381,-0.332679,0.0,0.0
1764,440.75,35.6947,37.7288,143.145,105.306,108.994,0.00521027,0.16649,20.8667,183.119,-0.31135,0.0,0.0
1848,461.75,36.0625,37.34,144.132,105.015,108.408,0.00512063,0.170109,20.8643,181.738,-0.287679,0.0,0.0
1932,482.75,35.5467,37.4776,143.807,105.222,108.487,0.00570698,0.164745,20.8684,180.377,-0.276462,0.0,0.0
2016,503.75,34.8944,36.96,139.97,105.166,107.736,0.00565349,0.162415,20.8707,179.036,-0.218402,0.0,0.0
2100,524.75,34.8267,36.7934,142.572,105.316,108.498,0.00520358,0.160352,20.8724,177.825,-0.269294,0.0,0.0
2184,545.75,34.5953,36.465,139.792,105.269,107.668,0.00585913,0.156759,20.8779,176.494,-0.203825,0.0,0.0
2268,566.75,34.7301,35.7839,141.959,105.152,107.361,0.00615589,0.152347,20.8848,175.223,-0.187991,0.0,0.0
2352,587.75,34.1253,35.6126,143.025,104.948,107.716,0.00632766,0.153526,20.8823,173.951,-0.2355,0.0,0.0
2436,608.75,34.3178,35.7449,143.41,104.816,107.311,0.00681216,0.149114,20.8858,172.69,-0.21274,0.0,0.0
2520,629.75,33.8297,35.6845,141.947,104.846,107.666,0.00710419,0.147955,20.891,171.419,-0.240018,0.0,0.0
2604,650.75,33.4745,35.0319,141.975,104.939,107.414,0.00702231,0.14659,20.8876,170.218,-0.210844,0.0,0.0
2688,671.75,33.9101,35.2654,142.129,105.133,108.565,0.0065349,0.148243,20.8878,169.027,-0.290579,0.0,0.0
2772,692.75,33.8396,35.0086,143.273,105.465,108.43,0.0058086,0.15047,20.8865,167.786,-0.250856,0.0,0.0
2856,713.75,34.0705,34.8769,142.715,105.67,109.184,0.00658376,0.154376,20.8821,166.535,-0.295867,0.0,0.0
2940,734.75,33.9659,35.7585,142.463,105.372,108.264,0.00610825,0.153606,20.8807,165.344,-0.244952,0.0,0.0
3024,755.75,34.4827,35.9755,139.878,104.59,106.941,0.00561146,0.154666,20.8815,164.103,-0.201088,0.0,0.0
3108,776.75,34.628,35.9178,143.161,103.798,106.03,0.00586712,0.154601,20.8793,162.822,-0.192458,0.0,0.0
3192,797.75,34.7386,35.881,135.988,103.74,106.363,0.00585563,0.152783,20.8829,161.681,-0.225905,0.0,0.0
3276,818.75,34.6398,36.0243,137.78,104.455,108.283,0.00526975,0.155167,20.8814,160.49,-0.325622,0.0,0.0
3360,839.75,34.9335,36.3792,140.65,104.912,108.554,0.00604292,0.15517,20.8787,159.309,-0.308685,0.0,0.0
3444,860.75,35.133,35.8695,141.982,104.965,108.255,0.00552841,0.156554,20.8778,158.058,-0.279144,0.0,0.0
3528,881.75,34.8527,36.2249,140.252,104.935,108.003,0.0057588,0.158509,20.8782,156.947,-0.260651,0.0,0.0
3612,902.75,35.1919,36.1552,142.091,104.93,107.667,0.00577482,0.161612,20.8722,155.776,-0.23288,0.0,0.0
3696,923.75,35.2872,36.3975,137.221,104.715,107.872,0.0056616,0.16706,20.8656,154.525,-0.268684,0.0,0.0
3780,944.75,35.135,36.7845,140.804,104.32,107.449,0.00534941,0.169412,20.8647,153.303,-0.267315,0.0,0.0
3864,965.75,35.4847,36.7058,142.41,103.773,106.786,0.00525882,0.168542,20.8635,152.182,-0.258889,0.0,0.0
3948,986.75,35.5275,37.0729,140.394,103.576,105.929,0.00544492,0.172377,20.8616,150.941,-0.203225,0.0,0.0
4032,1007.75,35.759,36.8568,139.81,103.932,106.571,0.00522345,0.175549,20.8568,149.65,-0.226842,0.0,0.0
4116,1028.75,36.1547,37.5822,140.317,104.326,107.541,0.00433427,0.180236,20.8517,148.489,-0.274559,0.0,0.0
4200,1049.75,35.9413,37.312,141.244,104.374,106.709,0.00446173,0.183792,20.8504,147.218,-0.200181,0.0,0.0
4284,1070.75,36.5806,38.084,143.308,104.28,107.426,0.00444451,0.185974,20.8469,145.887,-0.268911,0.0,0.0
4368,1091.75,36.6721,37.9579,141.558,104.159,107.084,0.00471326,0.187415,20.8437,144.666,-0.250492,0.0,0.0
4452,1112.75,36.8495,38.2025,140.763,104.057,107.434,0.00490853,0.190819,20.8406,143.385,-0.288883,0.0,0.0
4536,1133.75,37.24,38.5161,139.218,103.949,106.871,0.00447172,0.194827,20.836,142.064,-0.250756,0.0,0.0
4620,1154.75,37.5845,39.4983,143.313,103.969,107.613,0.00440487,0.199265,20.8297,140.662,-0.311611,0.0,0.0
4704,1175.75,38.2452,40.1415,138.947,104.029,108.18,0.00432814,0.204413,20.8265,139.351,-0.353911,0.0,0.0
4788,1196.75,38.7786,40.3641,138.485,103.972,106.675,0.00436252,0.20903,20.819,137.89,-0.232162,0.0,0.0
4872,1217.75,39.3672,41.3151,137.678,103.703,107.754,0.00400694,0.216388,20.8125,136.429,-0.346585,0.0,0.0
4956,1238.75,40.1339,42.0222,135.752,103.631,107.517,0.00419718,0.22721,20.8003,134.937,-0.332967,0.0,0.0
5040,1259.75,41.6753,42.7059,136.557,103.961,107.71,0.00406278,0.242806,20.784,133.356,-0.320525,0.0,0.0
5124,1280.75,42.5637,43.9111,134.152,104.51,108.915,0.00360418,0.253918,20.7685,131.605,-0.373471,0.0,0.0
5208,1301.75,43.7647,45.221,138.293,104.953,109.926,0.00382023,0.268612,20.753,129.733,-0.418771,0.0,0.0
5292,1322.75,45.038,46.4554,137.114,104.847,109.668,0.00391816,0.282309,20.7365,127.891,-0.406661,0.0,0.0
5376,1343.75,46.5678,48.2271,137.203,104.53,108.718,0.0037491,0.303033,20.7113,125.85,-0.355338,0.0,0.0
5460,1364.75,48.5601,50.1916,134.363,105.228,110.879,0.00386448,0.327091,20.682,123.618,-0.473203,0.0,0.0
5544,1385.75,50.7811,52.6542,134.304,105.269,111.041,0.00378376,0.366429,20.636,121.236,-0.482821,0.0,0.0
5628,1406.75,53.9113,55.7551,125.17,105.651,110.641,0.00410856,0.416564,20.5768,118.453,-0.417471,0.0,0.0
5712,1427.75,56.8681,58.9254,126.579,105.338,110.986,0.0038597,0.466553,20.5164,115.41,-0.472461,0.0,0.0
5796,1448.75,60.0602,62.7321,129.621,105.026,110.206,0.00376755,0.489222,20.4825,112.058,-0.435551,0.0,0.0
5880,1469.75,62.1911,64.8441,127.627,104.966,108.565,0.00482979,0.481075,20.4931,108.915,-0.30499,0.0,0.0
5964,1490.75,62.7725,66.1143,125.412,104.83,109.295,0.00413449,0.45466,20.5182,105.872,-0.377371,0.0,0.0
6048,1511.75,60.5096,64.8741,135.959,104.923,109.49,0.00310135,0.356161,20.6341,103.33,-0.385413,0.0,0.0
6132,1532.75,57.0147,62.3513,140.186,105.291,109.602,0.00234295,0.294633,20.7065,101.398,-0.363002,0.0,0.0
6216,1553.75,53.3358,57.7839,133.326,105.574,110.63,0.00295038,0.264791,20.7418,99.8369,-0.423184,0.0,0.0
6300,1574.75,49.7298,54.4198,133.672,105.382,110.516,0.00305618,0.231881,20.7762,98.4257,-0.43023,0.0,0.0
6384,1595.75,46.9639,50.9687,137.196,104.775,109.061,0.00401326,0.200606,20.8099,97.1746,-0.362627,0.0,0.0
6468,1616.75,43.6968,47.8426,140.029,104.847,108.113,0.00479599,0.173451,20.8438,96.2738,-0.27747,0.0,0.0
6552,1637.75,41.2712,43.8019,140.646,104.954,107.326,0.00552172,0.144262,20.8757,95.6132,-0.20219,0.0,0.0
6636,1658.75,38.1331,41.1703,144.56,104.755,107.765,0.00606841,0.124474,20.8996,95.0527,-0.256228,0.0,0.0
6720,1679.75,36.4245,38.4017,144.309,104.793,107.311,0.00644211,0.114703,20.9107,94.6224,-0.214783,0.0,0.0
6804,1700.75,34.3032,36.8698,140.43,104.844,107.335,0.0062525,0.1099,20.9149,94.2521,-0.212372,0.0,0.0
6888,1721.75,33.8511,35.1132,140.937,104.911,107.321,0.00710895,0.10529,20.9248,93.9218,-0.205398,0.0,0.0
6972,1742.75,32.4999,33.7214,142.879,104.974,106.854,0.00762614,0.10119,20.9267,93.5014,-0.160625,0.0,0.0
7056,1763.75,31.8628,32.4386,142.14,105.182,108.088,0.00694763,0.100194,20.9282,93.2912,-0.24646,0.0,0.0
7140,1784.75,31.1473,31.7613,143.189,105.414,107.642,0.00716821,0.0992634,20.9314,92.991,-0.189224,0.0,0.0
7224,1805.75,30.6856,31.2077,142.168,105.643,107.862,0.00736173,0.0990319,20.9326,92.6907,-0.188044,0.0,0.0
7308,1826.75,29.7251,30.4906,141.768,105.431,108.307,0.00717254,0.0982479,20.9332,92.3304,-0.243379,0.0,0.0
7392,1847.75,29.852,30.5752,142.165,104.477,106.118,0.00680792,0.0978235,20.9327,92.1702,-0.141007,0.0,0.0
7476,1868.75,29.0854,30.1382,145.215,103.722,105.938,0.00724542,0.0951479,20.9336,91.91,-0.191257,0.0,0.0
7560,1889.75,27.5795,28.2111,140.839,103.817,105.88,0.00705958,0.0936124,20.9386,91.6198,-0.177918,0.0,0.0
7644,1910.75,27.2728,27.5479,141.064,104.341,106.69,0.00688182,0.0938275,20.9392,91.4096,-0.201343,0.0,0.0
7728,1931.75,27.5851,27.8601,140.615,104.786,106.866,0.00651129,0.0928628,20.9382,91.1994,-0.177793,0.0,0.0
7812,1952.75,26.9402,27.4164,144.208,105.002,107.588,0.00650403,0.0929981,20.9379,90.9792,-0.220075,0.0,0.0
7896,1973.75,26.6083,27.0212,145.063,104.655,106.805,0.00667431,0.0930811,20.9377,90.6789,-0.183946,0.0,0.0
7963,1990.5,26.9011,27.1173,143.614,104.352,106.6,,,,90.5388,-0.19284,0.0,0.0

File: Eucalyptus_Flooring_Cone_HF50Scan_220526_R3.csv
Names,Time,Stack TC,Smoke TC,Exh Press,Smoke Comp,Smoke Meas,CO Meter,CO2 Meter,O2 Meter,Sample Mass,Ext Coeff,Start Test,Flame Verif
Chan Gain,,500,500,1,1,1,1,1,1,1,1,1.0,1.0
Offset,,0,0,0.138731,0,0,0,0,0,0,0,0.0,0.0
Gain,,1,1,25.011,13.8491,15.2622,1,1,1,1.00087,1.03118,1.0,1.0
Units,sec,C,C,Pa,%,%,%,%,%,g,/m,,
Baseline,,37.7058,39.1646,140.363,103.791,103.514,0.00110142,0.0469215,21.0021,-452.043,0.0241992,,
78,19.25,35.2337,35.9163,139.771,104.128,103.204,0.00115382,0.0472288,21.0002,208.061,0.0806418,0.0,0.0
156,38.75,36.5485,36.571,123.373,103.923,82.717,0.0155709,0.322741,20.6232,206.52,2.06443,0.0,1.0
234,58.25,62.1041,60.6392,115.497,103.868,89.0034,0.0210897,0.731177,20.1395,201.585,1.39707,0.0,0.0
312,77.75,67.6236,68.4093,127.16,103.91,102.398,0.00775075,0.480744,20.4904,198.082,0.132582,0.0,0.0
390,97.25,66.3096,69.9809,123.797,103.961,104.909,0.00593646,0.375581,20.6248,195.39,-0.0821762,0.0,0.0
468,116.75,63.6828,68.5937,128.248,104.026,104.992,0.00568068,0.328804,20.6772,192.968,-0.0835468,0.0,0.0
546,136.25,62.3397,67.5807,127.375,104.073,105.909,0.00554997,0.309804,20.6986,190.676,-0.158176,0.0,0.0
624,155.75,60.9425,66.3274,125.434,104.185,105.432,0.00482985,0.29725,20.7144,188.644,-0.107617,0.0,0.0
702,175.25,60.0136,64.5701,126.124,104.237,106.043,0.00448887,0.283136,20.7317,186.673,-0.155457,0.0,0.0
780,194.75,58.6852,63.3416,133.214,104.245,106.005,0.00497334,0.267758,20.7489,184.781,-0.151428,0.0,0.0
858,214.25,57.9127,62.4591,127.653,104.428,105.925,0.00426592,0.264409,20.7524,182.879,-0.128798,0.0,0.0
936,233.75,57.3221,61.961,131.707,104.555,106.7,0.00477899,0.259859,20.7571,181.018,-0.183688,0.0,0.0
1014,253.25,57.3374,60.8177,127.159,104.778,106.029,0.00432066,0.257713,20.7609,179.206,-0.107405,0.0,0.0
1092,272.75,57.1612,60.9614,131.451,104.938,106.519,0.0046253,0.253061,20.7673,177.394,-0.135289,0.0,0.0
1170,292.25,56.6557,60.1476,135.797,105.073,107.157,0.00440404,0.247659,20.7712,175.493,-0.177699,0.0,0.0
1248,311.75,56.1736,60.1689,126.908,105.276,106.957,0.00418035,0.242422,20.7787,173.701,-0.143293,0.0,0.0
1326,331.25,55.8004,59.3809,135.897,105.4,107.766,0.00470443,0.240762,20.78,172,-0.20079,0.0,0.0
1404,350.75,55.6363,59.6412,131.194,105.513,107.503,0.00523239,0.240438,20.7787,170.258,-0.168992,0.0,0.0
1482,370.25,55.7484,59.1474,130.105,105.499,107.06,0.00447519,0.243066,20.7791,168.457,-0.13284,0.0,0.0
1560,389.75,55.4988,58.8217,132.718,105.499,106.787,0.00469712,0.240637,20.7815,166.705,-0.109715,0.0,0.0
1638,409.25,55.3315,58.665,129.02,105.464,107.1,0.00450961,0.236904,20.7855,164.974,-0.139196,0.0,0.0
1716,428.75,55.3328,58.4008,131.32,105.348,107.294,0.00483996,0.231143,20.7933,163.262,-0.165596,0.0,0.0
1794,448.25,54.8728,58.0937,134.448,105.254,107.224,0.00457735,0.230047,20.7954,161.551,-0.167763,0.0,0.0
1872,467.75,54.7265,57.8591,130.331,105.306,106.629,0.00436071,0.230381,20.7953,159.799,-0.112942,0.0,0.0
1950,487.25,54.6313,57.7907,129.182,105.322,107.662,0.00433549,0.230372,20.7946,158.138,-0.198739,0.0,0.0
2028,506.75,54.8348,57.7858,134.107,105.261,106.855,0.00414807,0.231335,20.7919,156.476,-0.135937,0.0,0.0
2106,526.25,54.9397,57.4865,129.558,105.133,107.505,0.00417875,0.231575,20.7928,154.755,-0.201817,0.0,0.0
2184,545.75,54.4518,57.9965,132.263,104.979,107.221,0.00404275,0.23299,20.7902,153.043,-0.191168,0.0,0.0
2262,565.25,54.909,57.6106,130.918,104.886,107.197,0.0041177,0.235241,20.7893,151.382,-0.197139,0.0,0.0
2340,584.75,54.8503,58.0211,129.039,104.79,106.714,0.00401033,0.238811,20.783,149.7,-0.164606,0.0,0.0
2418,604.25,55.5863,58.0096,132.311,104.734,107.288,0.00437758,0.242721,20.7797,147.999,-0.217929,0.0,0.0
2496,623.75,55.5627,58.3267,129.989,104.648,106.978,0.00368922,0.243451,20.7792,146.247,-0.199154,0.0,0.0
2574,643.25,55.8603,58.6886,134.052,104.466,107.124,0.00338916,0.248128,20.7721,144.566,-0.227347,0.0,0.0
2652,662.75,56.202,58.8162,131.146,104.21,106.346,0.00330775,0.254995,20.766,142.924,-0.183556,0.0,0.0
2730,682.25,56.7586,59.5443,126.332,103.945,106.124,0.0032451,0.262555,20.7572,141.243,-0.18763,0.0,0.0
2808,701.75,57.155,60.4056,129.59,103.748,106.142,0.00292663,0.276949,20.7396,139.311,-0.206297,0.0,0.0
2886,721.25,58.1111,61.0994,131.512,103.594,106.326,0.00332694,0.288444,20.7281,137.42,-0.235461,0.0,0.0
2964,740.75,59.4993,62.0543,126.47,103.518,105.939,0.00307467,0.302265,20.7118,135.538,-0.209119,0.0,0.0
3042,760.25,59.898,62.9573,132.167,103.485,105.332,0.00318951,0.31719,20.6936,133.556,-0.160032,0.0,0.0
3120,779.75,61.5226,64.9722,130.158,103.474,105.374,0.00270793,0.336954,20.6702,131.374,-0.164552,0.0,0.0
3198,799.25,62.8801,66.3499,129.203,103.475,105.37,0.00277783,0.358936,20.6452,129.092,-0.164121,0.0,0.0
3276,818.75,64.9403,67.2664,125.756,103.53,104.656,0.00303095,0.381602,20.6204,126.79,-0.0978563,0.0,0.0
3354,838.25,66.7527,69.769,122.548,103.603,105.135,0.00305818,0.407246,20.5868,124.208,-0.13276,0.0,0.0
3432,857.75,68.3686,71.9631,119.859,103.589,104.762,0.00343357,0.428609,20.5618,121.546,-0.101782,0.0,0.0
3510,877.25,70.4189,73.6351,126.113,103.572,104.257,0.00377844,0.450858,20.5332,118.723,-0.0595954,0.0,0.0
3588,896.75,72.2885,75.6885,121.526,103.568,103.444,0.00386693,0.475006,20.5033,115.821,0.0107508,0.0,0.0
3666,916.25,74.1466,77.9566,122.405,103.564,102.484,0.00449749,0.491017,20.4807,112.818,0.0947903,0.0,0.0
3744,935.75,75.2529,79.966,122.332,103.536,102.286,0.00482136,0.512199,20.4543,109.706,0.109884,0.0,0.0
3822,955.25,77.5412,81.5136,118.705,103.545,101.34,0.00542413,0.542808,20.4151,106.393,0.194741,0.0,0.0
3900,974.75,79.3696,84.7916,121.573,103.548,100.63,0.00582531,0.548451,20.4044,103.14,0.258544,0.0,0.0
3978,994.25,80.6502,86.3224,121.881,103.613,100.572,0.00553725,0.536008,20.4107,100.067,0.26942,0.0,0.0
4056,1013.75,81.0921,86.7323,119.152,103.66,101.629,0.00618664,0.503743,20.4407,97.1346,0.178997,0.0,0.0
4134,1033.25,78.0447,84.7791,129.339,103.739,103.94,0.00374012,0.401152,20.5624,94.6624,-0.0174654,0.0,0.0
4212,1052.75,72.0644,78.8843,128.967,103.87,105.478,0.00305123,0.265048,20.7266,93.1711,-0.138911,0.0,0.0
4290,1072.25,65.9454,72.4129,131.108,104.08,106.421,0.00355862,0.183983,20.8234,92.3304,-0.201198,0.0,0.0
4368,1091.75,60.1668,66.2588,128.997,104.265,107.172,0.00401408,0.152177,20.8615,91.7299,-0.248759,0.0,0.0
4446,1111.25,55.4835,61.5026,137.599,104.483,107.252,0.00408154,0.136785,20.8795,91.1393,-0.23654,0.0,0.0
4524,1130.75,52.4174,56.5545,136.081,104.661,106.982,0.00428238,0.128972,20.8899,90.699,-0.198412,0.0,0.0
4602,1150.25,50.7734,54.8561,129.319,104.78,106.739,0.00427218,0.124033,20.896,90.4287,-0.167501,0.0,0.0
4680,1169.75,49.633,52.3873,133.641,104.817,106.712,0.00430741,0.12066,20.9028,90.0984,-0.162113,0.0,0.0
4758,1189.25,47.9396,51.0647,138.761,104.882,107.08,0.004449,0.116509,20.9073,89.6781,-0.187594,0.0,0.0
4836,1208.75,47.3995,49.7314,139.518,104.874,107.245,0.00475733,0.115323,20.9084,89.3478,-0.202205,0.0,0.0
4914,1228.25,46.8792,48.2711,136.122,104.848,106.552,0.00487963,0.113986,20.9116,89.0575,-0.145784,0.0,0.0
4992,1247.75,45.7957,47.8619,134.24,104.85,106.675,0.00481407,0.112316,20.9128,88.9174,-0.156034,0.0,0.0
5070,1267.25,45.4638,47.0818,145.476,104.846,106.634,0.00521172,0.110966,20.9158,88.6472,-0.152886,0.0,0.0
5148,1286.75,45.2004,46.6939,137.396,104.856,106.413,0.00512581,0.110048,20.9196,88.2268,-0.1333,0.0,0.0
5226,1306.25,44.8352,46.1878,137.519,104.864,106.312,0.00508757,0.109753,20.9184,87.9966,-0.124088,0.0,0.0
5304,1325.75,44.215,45.8242,136.036,104.873,106.559,0.00522994,0.108421,20.9217,87.8965,-0.144229,0.0,0.0
5382,1345.25,43.9191,45.2295,140.011,104.88,106.192,0.00560393,0.107513,20.922,87.6763,-0.112397,0.0,0.0
5460,1364.75,43.6101,44.9386,138.922,104.866,106.024,0.0052298,0.106067,20.9242,87.346,-0.0993056,0.0,0.0
5538,1384.25,42.9592,44.5429,139.031,104.849,106.551,0.00546551,0.106521,20.9234,87.1258,-0.145631,0.0,0.0
5616,1403.75,43.1406,44.5754,141.023,104.86,105.793,0.00569206,0.105661,20.9272,87.0258,-0.0801617,0.0,0.0
5694,1423.25,42.4962,44.0495,141.204,104.83,106.547,0.0060133,0.105592,20.9259,86.7655,-0.147033,0.0,0.0
5772,1442.75,42.5932,44.0332,136.171,104.813,106.191,0.0056163,0.104436,20.9259,86.5954,-0.11819,0.0,0.0
5850,1462.25,42.8126,44.215,138.492,104.765,106.388,0.00614511,0.104415,20.9271,86.2751,-0.139044,0.0,0.0
5928,1481.75,41.6616,43.3917,136.869,104.719,105.828,0.00611092,0.104608,20.9263,86.135,-0.0953322,0.0,0.0
6006,1501.25,41.4529,43.216,137.599,104.65,105.546,0.00631222,0.10421,20.9287,86.0249,-0.0771318,0.0,0.0
6084,1520.75,41.6605,43.1357,136.387,104.546,106.227,0.00625073,0.103607,20.9293,85.8147,-0.144254,0.0,0.0
6162,1540.25,41.1949,42.9912,138.743,104.312,105.025,0.00621899,0.1026,20.9287,85.5445,-0.0616259,0.0,0.0
6240,1559.75,41.2653,43.0555,137.257,104.163,105.367,0.00634999,0.103145,20.928,85.3443,-0.103932,0.0,0.0
6318,1579.25,41.1378,42.8164,138.515,104.063,105.499,0.00647785,0.102999,20.9284,85.2642,-0.123981,0.0,0.0
6396,1598.75,41.0139,42.7703,138.52,104.012,104.541,0.00679747,0.102945,20.9294,85.064,-0.0458691,0.0,0.0
6474,1618.25,40.9382,42.6455,135.429,103.891,104.82,0.00694638,0.102075,20.9313,84.7838,-0.0805354,0.0,0.0
6552,1637.75,40.9616,42.4915,139.448,103.814,105.638,0.00694629,0.101777,20.9299,84.6137,-0.157537,0.0,0.0
6630,1657.25,40.8241,42.3931,137.913,103.728,104.017,0.00691683,0.101544,20.9308,84.5636,-0.0251908,0.0,0.0
6708,1676.75,40.6981,42.4179,136.44,103.714,104.818,0.00723746,0.101213,20.9326,84.3735,-0.0958062,0.0,0.0
6786,1696.25,40.5002,42.4666,139.269,103.969,104.878,0.00739956,0.101103,20.9333,84.0432,-0.0787861,0.0,0.0
6864,1715.75,40.9434,42.3929,140.779,104.74,105.508,0.00741132,0.10183,20.9334,83.873,-0.0660799,0.0,0.0
6942,1735.25,40.8111,42.3607,133.278,104.814,105.325,0.00804826,0.100912,20.9331,83.823,-0.0439483,0.0,0.0
7020,1754.75,38.7114,40.4005,135.797,104.566,105.796,0.00769256,0.0998469,20.9362,83.6328,-0.105811,0.0,0.0
7098,1774.25,38.789,40.9272,135.797,105.301,106.51,0.00778022,0.10012,20.9345,83.3626,-0.103257,0.0,0.0
7176,1793.75,39.2552,39.999,137.081,105.518,106.782,0.00791299,0.0997724,20.9362,83.1524,-0.107726,0.0,0.0
7254,1813.25,39.0969,40.6243,137.922,104.787,105.594,0.0078477,0.0992617,20.9341,83.0223,-0.0694103,0.0,0.0
7332,1832.75,39.018,40.9706,138.279,103.707,104.182,0.00809491,0.0985388,20.9357,82.9422,-0.0412832,0.0,0.0
7410,1852.25,39.3438,41.0602,139.015,104.977,106.516,0.00839789,0.099011,20.936,82.7721,-0.131588,0.0,0.0
7467,1866.5,39.2214,40.7785,135.304,104.527,105.696,,,,82.6319,-0.100532,0.0,0.0

File: Eucalyptus_Flooring_Cone_HF75Scalar_220526_R2.csv
LABORATORY,FSRI
TEST IDENT,Oak_Flooring_75_2
OPERATOR,Dow
MATERIAL,Oak Flooring
ORIENTATION,Horizontal
HEAT FLUX,75
SURF AREA,0.01
C FACTOR,0.0414514
SPEC HOLDER DIFF,-566
SPECIMEN MASS,159.03
SCAN TIME,0.25
O2 DELAY TIME,11
CO DELAY TIME,11
CO2 DELAY TIME,8
FLOW FACTOR,1
SCAN COUNT,5301
TIME TO IGN,12.25
END OF TEST SCAN,4821
END OF TEST TIME,1205.25
TEST STATUS,1
PRE TEST CMT,Dimensions: 100.12 x 100.11 x 14.09 mm; with tie wires
POST TEST CMT,Test ended at 20 minutes according to average mass loss rate less than 150 g/m^2 over one minute. Small flames remained at end of test.