Folder: fsri_materials_database/01_Data/Eucalyptus_Flooring/HFM

Note: 01_Data/README.md
# Materials and Products Database
## 01_Data

Raw data generated from each apparatus are included here in plain-text format. The data is organized first by material, next by the short name of test apparatus used, and where applicable additional filtering by test settings.

### material.json

Each material directory contains a json file of the same name as the material. This file links the data stored in the repository as well as data and graphs produced by the accompanying scripts (__02_Scripts__) to the respective landing page for the material on the front-end website.

File: Eucalyptus_Flooring_Density_Dry_R1.csv
,Eucalyptus_Flooring_DRY_1
Sample Mass [g],550.5
Sample Volume [cm3],585.5
Sample Density [kg/m3],940

File: Eucalyptus_Flooring_Density_Dry_R2.csv
,Eucalyptus_Flooring_DRY_2
Sample Mass [g],544.6
Sample Volume [cm3],576.2
Sample Density [kg/m3],945

File: Eucalyptus_Flooring_Density_Dry_R3.csv
,Eucalyptus_Flooring_DRY_3
Sample Mass [g],552.5
Sample Volume [cm3],577.6
Sample Density [kg/m3],957

File: Eucalyptus_Flooring_Density_Wet_R1.csv
,Eucalyptus_Flooring_WET_1
Sample Mass [g],595.6
Sample Volume [cm3],585.5
Sample Density [kg/m3],1017

File: Eucalyptus_Flooring_Density_Wet_R2.csv
,Eucalyptus_Flooring_WET_2
Sample Mass [g],589.4
Sample Volume [cm3],576.2
Sample Density [kg/m3],1023

File: Eucalyptus_Flooring_Density_Wet_R3.csv
,Eucalyptus_Flooring_WET_3
Sample Mass [g],598.1
Sample Volume [cm3],577.6
Sample Density [kg/m3],1035