Folder: fsri_materials_database/01_Data/Eucalyptus_Flooring/MCC (part 2)

File: Eucalyptus_Flooring_30K_min_211026_R3.txt
Sample ID:	C:\MCC\MCC Cal\Test\Eucalyptus_Flooring_30K_min_211026_R3.txt
Sample Weight (mg):	4.48
Heating Rate (C/s):	0.5
Combustor Temp (C):	900
N2 Flow Rate (cc/min):	80
O2 Flow Rate (cc/min):	20
Calibration File:	C:\MCC\MCC Cal\Coeff1 JN10440_30_210304.txt.txt
T Correction Coefficients:	0	1.024463	0
Time Shift (s):	14
*
Time (s)	Temperature (C)	N2 flow rate (cc/min)	O2 flow rate (cc/min)	Flow Rate (cc/min)	Oxygen (%)	HRR (W/g)	Heating rate (C/s)
0.000	106.563	79.997	19.997	103.006	20.476	0.077	0.008
8.000	106.509	80.000	19.995	102.989	20.479	-0.081	-0.004
16.000	106.483	80.000	19.995	102.980	20.475	0.141	0.020
24.000	106.472	79.997	19.996	103.006	20.477	0.014	-0.028
32.000	106.554	79.998	19.995	103.052	20.469	0.583	0.012
40.000	106.882	80.000	19.995	103.111	20.458	1.372	0.050
48.000	107.484	79.997	19.996	103.088	20.446	2.279	0.084
56.001	108.467	79.995	19.996	103.207	20.445	2.336	0.149
64.000	109.874	79.998	19.995	103.232	20.432	3.248	0.202
72.000	111.653	79.999	19.995	103.244	20.431	3.357	0.197
80.000	113.857	79.998	19.997	103.254	20.434	3.110	0.305
88.000	116.355	79.999	19.996	103.229	20.429	3.512	0.302
96.000	119.139	80.001	19.996	103.235	20.429	3.446	0.367
104.000	122.034	79.997	19.995	103.251	20.425	3.803	0.354
112.000	125.187	79.998	19.995	103.242	20.427	3.655	0.383
120.000	128.450	79.999	19.996	103.238	20.429	3.501	0.430
128.000	131.869	79.998	19.996	103.271	20.425	3.761	0.436
136.000	135.429	79.996	19.995	103.244	20.427	3.616	0.453
144.000	139.083	79.998	19.996	103.243	20.427	3.620	0.442
152.000	142.899	79.998	19.996	103.270	20.429	3.477	0.492
160.000	146.701	79.997	19.997	103.244	20.427	3.652	0.455
168.000	150.590	79.999	19.996	103.265	20.424	3.860	0.454
176.000	154.516	80.000	19.996	103.237	20.425	3.801	0.467
184.000	158.396	79.998	19.997	103.245	20.425	3.762	0.477
192.000	162.380	79.998	19.995	103.267	20.419	4.186	0.500
200.000	166.369	79.998	19.996	103.240	20.420	4.129	0.518
208.000	170.347	79.997	19.995	103.263	20.422	3.956	0.488
216.000	174.310	79.995	19.996	103.223	20.418	4.279	0.494
224.000	178.257	80.000	19.996	103.203	20.418	4.288	0.497
232.000	182.229	79.999	19.996	103.239	20.414	4.579	0.485
240.000	186.186	79.998	19.995	103.233	20.418	4.247	0.464
248.000	190.190	79.999	19.996	103.225	20.410	4.819	0.505
256.000	194.170	80.000	19.996	103.230	20.410	4.870	0.489
264.000	198.155	79.997	19.997	103.217	20.407	5.045	0.566
272.000	202.056	79.997	19.996	103.215	20.404	5.273	0.496
280.000	206.004	79.997	19.996	103.227	20.402	5.417	0.503
288.000	209.996	79.998	19.995	103.208	20.397	5.810	0.529
296.000	213.961	79.998	19.995	103.216	20.392	6.167	0.472
304.000	217.926	79.998	19.996	103.213	20.387	6.496	0.501
312.000	221.917	80.000	19.995	103.204	20.378	7.127	0.530
320.000	225.894	79.999	19.994	103.238	20.374	7.424	0.515
328.000	229.840	79.999	19.996	103.226	20.365	8.112	0.475
336.000	233.768	80.000	19.995	103.205	20.355	8.764	0.477
344.000	237.670	79.998	19.995	103.205	20.355	8.835	0.467
352.000	241.595	79.997	19.995	103.236	20.343	9.692	0.482
360.000	245.588	79.997	19.995	103.220	20.333	10.354	0.519
368.000	249.617	79.997	19.996	103.233	20.322	11.155	0.511
376.000	253.561	79.997	19.996	103.228	20.312	11.862	0.504
384.000	257.503	79.997	19.995	103.239	20.295	13.089	0.488
392.000	261.486	79.997	19.995	103.246	20.276	14.508	0.468
400.000	265.452	79.998	19.995	103.244	20.263	15.428	0.497
408.000	269.445	79.998	19.995	103.258	20.237	17.263	0.526
416.000	273.481	79.999	19.994	103.254	20.213	19.003	0.488
424.000	277.510	79.996	19.996	103.278	20.183	21.155	0.488
432.000	281.513	79.998	19.996	103.277	20.148	23.700	0.521
440.000	285.521	79.996	19.995	103.300	20.108	26.577	0.548
448.000	289.551	79.995	19.996	103.313	20.065	29.685	0.505
456.000	293.560	79.995	19.996	103.317	20.021	32.823	0.490
464.000	297.586	79.997	19.995	103.353	19.977	35.992	0.501
472.000	301.642	79.999	19.995	103.361	19.925	39.793	0.488
480.000	305.604	79.998	19.995	103.357	19.875	43.389	0.502
488.000	309.650	79.999	19.995	103.406	19.816	47.608	0.548
496.000	313.849	80.001	19.994	103.428	19.756	51.965	0.547
504.000	318.007	79.999	19.995	103.433	19.700	55.980	0.532
512.000	322.326	79.998	19.995	103.471	19.647	59.847	0.528
520.000	326.680	79.998	19.996	103.468	19.608	62.644	0.561
528.000	331.023	79.996	19.995	103.438	19.596	63.490	0.569
536.000	335.414	79.998	19.996	103.405	19.607	62.612	0.546
544.000	339.693	79.997	19.996	103.360	19.673	57.890	0.515
552.000	343.921	79.998	19.997	103.310	19.769	50.927	0.512
560.000	348.170	79.999	19.996	103.249	19.890	42.243	0.526
568.000	352.361	79.998	19.995	103.205	20.004	33.997	0.525
576.000	356.567	80.000	19.996	103.197	20.109	26.507	0.542
584.000	360.674	80.000	19.996	103.196	20.181	21.263	0.529
592.000	364.673	79.997	19.995	103.165	20.232	17.608	0.525
600.000	368.673	79.998	19.994	103.166	20.268	15.064	0.507
608.000	372.653	79.998	19.997	103.163	20.287	13.672	0.531
616.000	376.637	79.997	19.997	103.158	20.307	12.241	0.491
624.000	380.696	79.997	19.997	103.155	20.315	11.641	0.500
632.000	384.730	79.999	19.997	103.138	20.323	11.120	0.525
640.000	388.806	79.998	19.997	103.157	20.331	10.514	0.515
648.000	392.887	80.000	19.996	103.152	20.333	10.366	0.520
656.000	396.995	80.000	19.995	103.169	20.341	9.800	0.508
664.000	401.074	79.999	19.995	103.121	20.337	10.059	0.526
672.000	405.110	79.996	19.996	103.159	20.343	9.645	0.501
680.000	409.157	80.000	19.996	103.146	20.350	9.150	0.510
688.000	413.237	79.999	19.995	103.125	20.352	9.009	0.513
696.000	417.245	79.998	19.995	103.133	20.350	9.139	0.499
704.000	421.336	79.997	19.997	103.140	20.353	8.906	0.523
712.000	425.354	80.000	19.996	103.122	20.351	9.054	0.509
720.000	429.367	79.999	19.995	103.133	20.347	9.341	0.483
728.000	433.480	79.998	19.996	103.126	20.357	8.617	0.516
736.000	437.178	79.999	19.995	103.123	20.361	8.330	0.176
744.000	441.479	80.000	19.995	103.117	20.363	8.188	0.539
752.000	445.428	79.998	19.995	103.131	20.368	7.854	0.468
760.000	449.389	79.996	19.995	103.138	20.377	7.226	0.482
768.000	453.279	79.998	19.996	103.120	20.375	7.380	0.512
776.000	457.213	79.998	19.995	103.122	20.371	7.625	0.478
784.000	461.058	79.997	19.995	103.130	20.378	7.126	0.481
792.000	464.949	79.998	19.995	103.118	20.379	7.051	0.485
800.000	468.824	80.000	19.996	103.123	20.382	6.863	0.496
808.000	472.765	79.999	19.996	103.106	20.386	6.577	0.506
816.000	476.778	79.999	19.996	103.133	20.380	6.973	0.511
824.000	480.780	80.000	19.996	103.110	20.387	6.498	0.470
832.000	484.751	79.997	19.996	103.126	20.386	6.537	0.509
840.000	488.734	79.997	19.995	103.121	20.392	6.163	0.497
848.000	492.695	79.999	19.994	103.127	20.388	6.403	0.497
856.000	496.791	79.997	19.995	103.115	20.388	6.411	0.495
864.000	500.852	79.998	19.995	103.113	20.385	6.647	0.542
872.000	504.932	80.000	19.995	103.114	20.393	6.090	0.485
880.000	509.006	80.000	19.995	103.119	20.392	6.137	0.505
888.000	513.074	79.999	19.996	103.122	20.394	6.005	0.542
896.000	517.141	79.999	19.995	103.135	20.395	5.898	0.507
904.000	521.263	80.001	19.995	103.134	20.396	5.835	0.506
912.000	525.280	79.998	19.997	103.105	20.392	6.135	0.488
920.000	529.345	79.999	19.996	103.107	20.389	6.358	0.517
928.000	533.358	79.999	19.996	103.118	20.390	6.248	0.506
936.000	537.349	79.998	19.996	103.121	20.392	6.158	0.501
944.000	541.521	79.998	19.995	103.118	20.392	6.136	0.539
952.000	545.633	80.000	19.996	103.113	20.391	6.174	0.523
960.000	549.753	79.999	19.995	103.139	20.397	5.781	0.522
968.000	553.939	79.998	19.995	103.093	20.398	5.667	0.516
976.000	558.093	79.999	19.995	103.086	20.400	5.541	0.561
984.000	562.155	80.000	19.995	103.092	20.395	5.890	0.497
992.000	566.131	79.998	19.996	103.087	20.396	5.882	0.475
1000.000	570.043	79.998	19.996	103.105	20.396	5.865	0.483
1008.000	574.078	79.997	19.997	103.106	20.394	5.994	0.506
1016.000	578.121	79.998	19.996	103.112	20.392	6.126	0.514
1024.000	582.180	79.998	19.996	103.120	20.397	5.742	0.478
1032.000	586.326	79.998	19.996	103.103	20.398	5.710	0.529
1040.000	590.522	80.000	19.996	103.116	20.398	5.704	0.540
1048.000	594.770	79.997	19.994	103.121	20.395	5.921	0.506
1056.000	598.966	80.001	19.995	103.083	20.393	6.073	0.510
1064.001	603.100	80.001	19.996	103.103	20.390	6.282	0.501
1072.000	607.272	79.998	19.996	103.099	20.393	6.081	0.530
1080.001	611.404	79.997	19.997	103.094	20.394	5.963	0.511
1088.000	615.507	79.997	19.997	103.102	20.398	5.703	0.523
1096.001	619.584	79.998	19.996	103.106	20.395	5.937	0.525
1104.000	623.678	79.997	19.997	103.092	20.392	6.112	0.505
1112.000	627.703	79.998	19.996	103.084	20.392	6.143	0.503
1120.000	631.727	80.001	19.995	103.084	20.394	5.963	0.520
1128.000	635.763	79.999	19.995	103.096	20.398	5.719	0.497
1136.000	639.875	80.001	19.996	103.085	20.395	5.914	0.509
1144.000	643.944	80.001	19.995	103.092	20.399	5.610	0.511
1152.000	648.027	79.999	19.994	103.086	20.397	5.798	0.485
1160.000	652.194	79.997	19.995	103.084	20.398	5.705	0.533
1168.000	656.371	79.997	19.997	103.095	20.395	5.902	0.554
1176.000	660.452	79.997	19.995	103.084	20.394	5.991	0.483
1184.000	664.485	79.998	19.996	103.079	20.395	5.947	0.511
1192.000	668.545	79.997	19.997	103.081	20.394	5.976	0.503
1200.000	672.536	79.999	19.997	103.080	20.390	6.249	0.503
1208.000	676.531	79.999	19.996	103.075	20.392	6.155	0.475
1216.000	680.522	79.999	19.995	103.046	20.392	6.100	0.513
1224.000	684.422	80.001	19.996	103.082	20.395	5.933	0.494
1232.000	688.318	79.999	19.996	103.077	20.395	5.916	0.456
1240.000	692.352	79.998	19.995	103.084	20.393	6.096	0.495
1248.001	696.403	79.999	19.995	103.071	20.389	6.323	0.510
1256.000	700.434	79.998	19.995	103.079	20.393	6.047	0.508
1264.000	704.369	79.997	19.998	103.080	20.394	5.987	0.452
1272.000	708.175	79.998	19.995	103.098	20.394	6.021	0.488
1280.000	711.989	79.998	19.996	103.066	20.397	5.761	0.490
1288.000	715.862	79.997	19.997	103.080	20.393	6.030	0.467
1296.000	719.686	79.997	19.996	103.071	20.391	6.217	0.471
1304.000	723.362	79.999	19.995	103.081	20.391	6.201	0.458
1312.000	727.086	80.000	19.995	103.070	20.391	6.223	0.456
1320.000	730.722	79.999	19.997	103.068	20.391	6.189	0.459
1328.000	734.379	79.998	19.996	103.079	20.392	6.155	0.470
1336.000	738.227	79.999	19.995	103.089	20.391	6.185	0.482
1344.000	742.445	79.997	19.995	103.079	20.384	6.698	0.538
1345.000	742.997	79.998	19.995	103.081	20.384	6.679	0.532

File: Eucalyptus_Flooring_30K_min_211028_R4.txt
Sample ID:	C:\MCC\MCC Cal\Test\Eucalyptus_Flooring\Eucalyptus_Flooring_30K_min_211028_R4.txt
Sample Weight (mg):	4.42
Heating Rate (C/s):	0.5
Combustor Temp (C):	900
N2 Flow Rate (cc/min):	80
O2 Flow Rate (cc/min):	20
Calibration File:	C:\MCC\MCC Cal\Coeff1 JN10440_30_210304.txt.txt
T Correction Coefficients:	0	1.024463	0
Time Shift (s):	14
*
Time (s)	Temperature (C)	N2 flow rate (cc/min)	O2 flow rate (cc/min)	Flow Rate (cc/min)	Oxygen (%)	HRR (W/g)	Heating rate (C/s)
-0.001	107.722	80.000	19.995	102.937	20.177	-0.124	-0.032
8.000	107.758	80.001	19.994	102.948	20.177	-0.150	0.017
16.000	107.736	80.001	19.995	102.931	20.179	-0.311	0.007
24.000	107.750	80.000	19.997	102.989	20.171	0.269	0.013
32.000	107.975	79.999	19.996	103.095	20.155	1.495	0.049
40.000	108.716	79.997	19.997	103.118	20.143	2.377	0.141
47.999	109.903	79.998	19.995	103.150	20.138	2.675	0.168
55.999	111.426	79.998	19.996	103.144	20.137	2.783	0.216
63.999	113.332	79.998	19.992	103.152	20.139	2.658	0.258
71.999	115.464	79.998	19.995	103.153	20.136	2.850	0.280
80.000	117.831	79.998	19.996	103.157	20.135	2.919	0.288
87.999	120.356	79.998	19.995	103.189	20.131	3.224	0.288
95.999	123.203	80.000	19.994	103.190	20.132	3.160	0.383
103.999	126.235	80.001	19.994	103.189	20.130	3.306	0.404
111.999	129.465	79.999	19.995	103.191	20.129	3.338	0.415
119.999	132.860	79.998	19.995	103.195	20.132	3.160	0.445
127.999	136.407	79.997	19.995	103.192	20.131	3.204	0.488
136.000	140.118	79.997	19.996	103.195	20.135	2.921	0.476
144.000	143.887	79.996	19.996	103.194	20.131	3.234	0.499
152.000	147.676	79.998	19.997	103.192	20.133	3.073	0.443
160.000	151.547	79.999	19.995	103.188	20.134	3.011	0.464
168.000	155.448	79.997	19.996	103.180	20.133	3.037	0.505
176.000	159.385	79.997	19.996	103.191	20.129	3.372	0.515
184.000	163.375	80.001	19.994	103.185	20.130	3.320	0.502
192.000	167.325	79.999	19.998	103.186	20.128	3.434	0.500
200.000	171.354	79.999	19.994	103.180	20.130	3.285	0.519
208.000	175.327	79.998	19.996	103.162	20.131	3.181	0.524
216.000	179.324	79.999	19.995	103.166	20.132	3.128	0.488
224.000	183.394	80.000	19.994	103.154	20.134	3.022	0.541
232.000	187.375	79.998	19.996	103.159	20.133	3.098	0.500
240.000	191.280	80.000	19.997	103.148	20.131	3.209	0.486
248.000	195.232	79.998	19.996	103.150	20.132	3.132	0.490
256.000	199.116	79.999	19.994	103.152	20.125	3.620	0.481
264.000	203.036	80.001	19.994	103.156	20.126	3.602	0.490
272.000	206.917	79.997	19.997	103.154	20.122	3.892	0.463
280.000	210.915	79.999	19.993	103.149	20.115	4.371	0.490
288.000	214.861	79.999	19.994	103.156	20.112	4.568	0.474
296.000	218.886	80.000	19.994	103.154	20.106	5.036	0.501
304.000	222.918	79.997	19.993	103.156	20.103	5.283	0.504
312.000	226.845	79.999	19.997	103.156	20.095	5.865	0.509
320.000	230.962	79.996	20.001	103.156	20.092	6.092	0.508
328.000	234.992	79.997	19.996	103.164	20.082	6.811	0.531
336.000	238.963	79.999	19.995	103.152	20.078	7.040	0.455
344.000	243.045	80.000	19.995	103.156	20.071	7.550	0.517
352.000	247.005	80.001	19.994	103.152	20.059	8.424	0.470
360.000	251.078	79.999	19.996	103.158	20.049	9.221	0.479
368.000	255.106	79.997	19.995	103.161	20.042	9.729	0.503
376.000	259.086	79.999	19.992	103.167	20.029	10.645	0.516
384.000	263.059	79.998	19.995	103.219	20.011	11.927	0.505
392.000	267.037	79.997	19.994	103.188	19.992	13.375	0.497
400.000	271.011	80.000	19.995	103.190	19.971	14.852	0.482
408.000	275.004	79.999	19.995	103.190	19.941	17.058	0.500
416.000	278.922	79.999	19.995	103.209	19.914	19.042	0.483
424.000	282.815	80.000	19.997	103.216	19.878	21.627	0.483
432.000	286.778	79.997	19.994	103.229	19.845	24.102	0.500
440.000	290.814	79.997	19.997	103.249	19.799	27.446	0.540
448.000	294.742	79.999	19.996	103.271	19.754	30.732	0.497
456.000	298.728	79.998	19.995	103.283	19.710	33.954	0.474
464.000	302.752	79.998	19.994	103.296	19.658	37.717	0.506
472.000	306.751	79.999	19.996	103.309	19.607	41.466	0.493
480.000	310.750	80.001	19.995	103.324	19.554	45.283	0.516
488.000	314.775	79.997	19.997	103.344	19.504	48.951	0.500
496.000	318.773	80.001	19.995	103.349	19.459	52.228	0.519
504.000	322.734	80.001	19.996	103.352	19.419	55.147	0.496
512.000	326.630	79.999	19.993	103.350	19.395	56.922	0.456
520.000	330.599	79.998	19.996	103.351	19.393	57.019	0.503
528.000	334.551	79.995	19.994	103.334	19.413	55.533	0.489
536.000	338.562	79.999	19.995	103.283	19.461	52.037	0.491
544.000	342.611	79.997	19.997	103.241	19.543	46.073	0.508
552.000	346.745	79.999	19.995	103.203	19.640	38.952	0.550
560.000	350.867	80.001	19.994	103.156	19.740	31.671	0.494
568.000	355.071	80.000	19.995	103.138	19.828	25.256	0.531
576.000	359.182	80.000	19.995	103.131	19.898	20.210	0.530
584.000	363.283	80.001	19.996	103.113	19.954	16.118	0.524
592.000	367.359	79.998	19.997	103.109	19.986	13.766	0.512
600.000	371.421	79.999	19.996	103.085	20.013	11.802	0.483
608.000	375.414	79.998	19.996	103.091	20.035	10.184	0.502
616.000	379.429	80.001	19.996	103.081	20.048	9.272	0.500
624.000	383.420	79.997	19.995	103.087	20.060	8.411	0.501
632.000	387.372	80.000	19.995	103.088	20.066	7.938	0.484
640.000	391.421	80.000	19.995	103.019	20.072	7.520	0.507
648.000	395.520	80.000	19.995	103.080	20.076	7.185	0.517
656.000	399.580	80.002	19.994	103.080	20.078	7.071	0.480
664.000	403.626	80.002	19.995	103.071	20.078	7.063	0.484
672.000	407.668	80.000	19.995	103.075	20.083	6.711	0.515
680.000	411.737	79.999	19.996	103.071	20.083	6.702	0.518
688.000	415.747	79.997	19.995	103.075	20.087	6.397	0.491
696.000	419.814	79.996	19.997	103.022	20.085	6.593	0.489
704.000	423.854	79.998	19.995	103.076	20.082	6.778	0.490
712.000	427.917	79.999	19.993	103.077	20.089	6.243	0.525
720.000	431.923	80.000	19.996	103.010	20.092	6.029	0.480
728.000	436.038	79.998	19.997	103.064	20.092	6.043	0.505
736.000	439.998	80.001	19.998	103.072	20.095	5.868	0.472
744.000	443.986	79.998	19.998	103.066	20.096	5.729	0.497
752.000	447.844	79.997	19.995	103.072	20.101	5.387	0.493
760.000	451.863	79.993	20.001	103.077	20.099	5.578	0.505
768.000	456.146	80.001	19.989	103.076	20.098	5.612	0.528
776.000	460.448	79.998	19.995	103.077	20.103	5.263	0.563
784.000	464.808	79.998	19.996	103.073	20.106	5.046	0.554
792.000	469.226	80.000	19.995	103.070	20.108	4.877	0.571
800.000	473.673	80.000	19.994	103.069	20.114	4.482	0.578
808.000	478.072	79.999	19.994	103.072	20.111	4.692	0.536
816.000	482.458	80.001	19.996	103.063	20.114	4.415	0.581
824.000	486.805	80.001	19.994	103.055	20.120	4.048	0.591
832.000	490.658	79.999	19.994	103.045	20.122	3.871	0.734
840.000	495.137	79.999	19.994	103.052	20.126	3.550	0.466
848.000	499.265	79.998	19.997	103.048	20.128	3.464	0.502
856.000	503.437	80.000	19.996	103.062	20.124	3.695	0.553
864.000	507.507	80.000	19.996	103.053	20.131	3.245	0.509
872.000	511.628	80.000	19.997	103.047	20.127	3.494	0.565
880.000	515.785	80.000	19.996	103.048	20.130	3.321	0.519
888.000	519.925	80.001	19.996	103.039	20.130	3.287	0.539
896.000	524.089	80.002	19.995	103.038	20.134	3.031	0.546
904.000	528.198	80.000	19.995	103.047	20.128	3.430	0.489
912.000	532.345	80.002	19.996	103.044	20.131	3.219	0.500
920.000	536.459	79.998	19.995	103.034	20.132	3.149	0.505
928.000	540.592	80.001	19.993	103.034	20.135	2.888	0.519
936.000	544.687	79.998	19.996	103.034	20.136	2.834	0.516
944.000	548.768	79.996	19.995	103.034	20.137	2.760	0.511
952.000	552.826	80.001	19.995	103.034	20.136	2.822	0.502
960.000	556.950	79.998	19.995	103.035	20.135	2.934	0.504
968.000	560.960	80.000	19.995	103.033	20.135	2.892	0.504
976.000	564.973	80.003	19.994	103.031	20.141	2.509	0.519
984.000	568.988	80.000	19.993	103.032	20.141	2.491	0.466
992.000	573.108	79.999	19.996	103.029	20.142	2.385	0.499
1000.000	577.216	79.999	19.994	103.029	20.140	2.529	0.501
1008.000	581.331	80.001	19.994	103.035	20.137	2.784	0.522
1016.000	585.369	79.999	19.992	103.030	20.143	2.361	0.512
1024.000	589.444	79.997	19.997	103.030	20.141	2.481	0.519
1031.999	593.483	79.999	19.995	103.032	20.143	2.352	0.497
1039.999	597.549	80.001	19.995	103.020	20.144	2.234	0.499
1047.999	601.596	80.000	19.992	103.028	20.144	2.244	0.513
1055.999	605.503	80.001	20.000	103.017	20.141	2.513	0.480
1063.999	609.456	80.003	19.993	103.024	20.143	2.342	0.523
1071.999	613.388	79.998	19.997	103.027	20.144	2.238	0.479
1079.999	617.378	79.996	19.997	103.029	20.139	2.635	0.497
1087.999	621.355	79.995	19.995	103.031	20.140	2.539	0.494
1096.000	625.365	79.999	19.995	103.009	20.139	2.653	0.522
1104.000	629.416	80.003	19.992	103.028	20.137	2.763	0.514
1111.999	633.372	80.000	19.994	103.029	20.137	2.768	0.487
1119.999	637.443	80.002	19.992	103.024	20.137	2.773	0.508
1127.999	641.445	80.001	19.995	103.031	20.138	2.739	0.487
1135.999	645.503	80.002	19.995	103.034	20.140	2.587	0.514
1143.999	649.501	79.998	19.996	103.023	20.132	3.111	0.516
1151.999	653.555	79.999	19.995	103.033	20.130	3.248	0.458
1160.000	657.613	79.998	19.994	103.021	20.137	2.749	0.515
1167.999	661.637	80.000	19.994	103.027	20.137	2.759	0.534
1175.999	665.699	79.999	19.996	103.023	20.136	2.823	0.528
1183.999	669.741	79.999	19.994	103.011	20.133	3.052	0.513
1191.999	673.789	80.002	19.994	103.023	20.137	2.769	0.508
1199.999	677.810	80.000	19.995	103.024	20.136	2.817	0.476
1207.999	681.801	79.998	19.995	103.009	20.141	2.510	0.509
1215.999	685.756	80.001	19.994	102.998	20.139	2.622	0.523
1223.999	689.735	79.998	19.995	103.006	20.138	2.705	0.494
1231.999	693.759	79.999	19.995	102.995	20.139	2.650	0.486
1239.999	697.810	79.999	19.996	102.996	20.142	2.420	0.525
1247.999	701.894	80.000	19.994	103.001	20.137	2.777	0.478
1255.999	706.134	80.001	19.994	103.006	20.139	2.605	0.535
1263.999	710.319	79.997	19.996	103.014	20.142	2.420	0.495
1272.000	714.535	79.998	20.000	103.000	20.141	2.500	0.538
1279.999	718.669	79.998	19.991	103.004	20.142	2.400	0.511
1287.999	722.606	80.000	19.994	103.000	20.143	2.354	0.495
1295.999	726.532	80.001	19.994	103.001	20.143	2.354	0.477
1303.999	730.525	80.000	19.992	102.998	20.141	2.454	0.495
1311.999	734.442	79.999	19.995	102.999	20.141	2.520	0.466
1319.999	738.412	79.994	19.999	102.997	20.141	2.460	0.499
1327.999	742.528	79.999	19.996	103.012	20.145	2.168	0.511
1329.999	743.483	79.998	19.997	103.004	20.144	2.240	0.481