Folder: fsri_materials_database/01_Data/Rug_Pad/Cone

Note: 01_Data/README.md
# Materials and Products Database
## 01_Data

Raw data generated from each apparatus are included here in plain-text format. The data is organized first by material, next by the short name of test apparatus used, and where applicable additional filtering by test settings.

### material.json

Each material directory contains a json file of the same name as the material. This file links the data stored in the repository as well as data and graphs produced by the accompanying scripts (__02_Scripts__) to the respective landing page for the material on the front-end website.

File: Rug_Pad_Cone_HF25Scalar_220920_R1.csv
LABORATORY,FSRI
TEST IDENT,Rug_Pad_HF25_1
OPERATOR,Dow
MATERIAL,Rug Pad
ORIENTATION,Horizontal
HEAT FLUX,25
SURF AREA,0.01
C FACTOR,0.0391624
SPEC HOLDER DIFF,-566
SPECIMEN MASS,7.21
SCAN TIME,0.25
O2 DELAY TIME,11
CO DELAY TIME,11
CO2 DELAY TIME,8
FLOW FACTOR,1
SCAN COUNT,924
TIME TO IGN,35.75
END OF TEST SCAN,444
END OF TEST TIME,111
TEST STATUS,1
PRE TEST CMT,Dimensions: 102.5 x 101.5 x 4.4 mm; with frame and grid; with calcium silicate substrate

File: Rug_Pad_Cone_HF25Scalar_220920_R2.csv
LABORATORY,FSRI
TEST IDENT,Rug_Pad_HF25_2
OPERATOR,Dow
MATERIAL,Rug Pad
ORIENTATION,Horizontal
HEAT FLUX,25
SURF AREA,0.01
C FACTOR,0.0391624
SPEC HOLDER DIFF,-566
SPECIMEN MASS,7.19
SCAN TIME,0.25
O2 DELAY TIME,11
CO DELAY TIME,11
CO2 DELAY TIME,8
FLOW FACTOR,1
SCAN COUNT,929
TIME TO IGN,34.75
END OF TEST SCAN,449
END OF TEST TIME,112.25
TEST STATUS,1
PRE TEST CMT,Dimensions: 102.5 x 104 x 4.5 mm; with frame and grid; with calcium silicate substrate

File: Rug_Pad_Cone_HF25Scalar_220920_R3.csv
LABORATORY,FSRI
TEST IDENT,Rug_Pad_HF25_3
OPERATOR,Dow
MATERIAL,Rug Pad
ORIENTATION,Horizontal
HEAT FLUX,25
SURF AREA,0.01
C FACTOR,0.0391624
SPEC HOLDER DIFF,-566
SPECIMEN MASS,7.02
SCAN TIME,0.25
O2 DELAY TIME,11
CO DELAY TIME,11
CO2 DELAY TIME,8
FLOW FACTOR,1
SCAN COUNT,948
TIME TO IGN,36
END OF TEST SCAN,468
END OF TEST TIME,117
TEST STATUS,1
PRE TEST CMT,Dimensions: 102 x 101 x 4.9 mm; with frame and grid; with calcium silicate substrate

File: Rug_Pad_Cone_HF25Scan_220920_R1.csv
Names,Time,Stack TC,Smoke TC,Exh Press,Smoke Comp,Smoke Meas,CO Meter,CO2 Meter,O2 Meter,Sample Mass,Ext Coeff,Start Test,Flame Verif
Chan Gain,,500,500,1,1,1,1,1,1,1,1,1.0,1.0
Offset,,0,0,0.143022,0,0,0,0,0,0,0,0.0,0.0
Gain,,1,1,25.011,14.5176,16.5692,1,1,1,1.00088,1.03055,1.0,1.0
Units,sec,C,C,Pa,%,%,%,%,%,g,/m,,
Baseline,,37.243,38.0296,161.218,110.188,114.283,-0.000893014,0.0448981,20.9483,-447.153,-0.329895,,
10,2.25,35.7566,36.5165,160.667,110.235,114.063,-0.000836824,0.0492508,20.9465,600.9,-0.30859,0.0,0.0
20,4.75,35.5527,36.7366,163.889,110.292,114.627,-0.00073615,0.0489502,20.9479,600.88,-0.348481,0.0,0.0
30,7.25,36.0318,36.4253,157.215,110.337,114.296,-0.00067919,0.0481536,20.9484,600.88,-0.318656,0.0,0.0
40,9.75,36.2334,36.8016,159.821,110.389,115.079,-0.000708356,0.0473884,20.9486,600.83,-0.376073,0.0,0.0
50,12.25,36.0859,37.248,161.822,110.437,114.47,-0.000899649,0.0465702,20.9478,600.81,-0.324204,0.0,0.0
60,14.75,36.0953,36.5162,159.313,110.494,113.882,-0.0010196,0.0458331,20.9476,600.82,-0.273006,0.0,0.0
70,17.25,35.8801,36.9331,162.422,110.558,113.797,-0.000991927,0.0453509,20.9475,600.8,-0.261043,0.0,0.0
80,19.75,35.8626,36.8153,158.209,110.627,113.821,-0.000994057,0.0449863,20.9475,600.779,-0.257321,0.0,0.0
90,22.25,36.1482,36.6709,156.114,110.691,113.774,-0.000963339,0.0447944,20.9475,600.779,-0.248337,0.0,0.0
100,24.75,35.8517,36.3988,162.924,110.758,114.035,-0.000837712,0.0448476,20.9469,600.779,-0.263619,0.0,0.0
110,27.25,36.5635,37.0177,157.988,110.817,113.654,-0.000827181,0.0447697,20.9467,600.8,-0.228536,0.0,0.0
120,29.75,36.2421,37.1369,163.412,110.882,113.229,-0.000957029,0.0449393,20.9458,600.759,-0.189374,0.0,0.0
130,32.25,36.4053,37.057,169.228,110.938,113.455,-0.00091565,0.0448632,20.9457,600.729,-0.202779,0.0,0.0
140,34.75,35.9221,36.6211,160.586,110.993,113.796,-0.000583849,0.0449969,20.947,600.74,-0.225494,0.0,0.0
150,37.25,36.1699,36.9934,161.909,111.045,113.725,-0.000138731,0.0483146,20.941,600.679,-0.215608,0.0,1.0
160,39.75,35.4179,36.3643,153.964,111.054,110.752,0.000417954,0.0661631,20.9012,600.769,0.0246347,0.0,1.0
170,42.25,35.6993,35.9073,151.846,111.097,105.606,0.00116708,0.0986396,20.8351,600.549,0.458273,0.0,1.0
180,44.75,36.8118,37.1788,154.462,111.106,101.81,0.0025074,0.143075,20.7657,600.429,0.789911,0.0,0.0
190,47.25,38.1684,37.885,152.829,111.138,99.5712,0.00384623,0.181245,20.7004,600.309,0.993486,0.0,0.0
200,49.75,39.317,38.6917,147.841,111.144,95.3248,0.0049872,0.213314,20.6501,600.109,1.38795,0.0,0.0
210,52.25,40.6279,39.6992,149.444,111.161,95.1771,0.0059675,0.238181,20.613,600.009,1.40336,0.0,0.0
220,54.75,42.1543,41.1997,144.216,111.158,95.9786,0.00684656,0.261528,20.5807,599.829,1.32734,0.0,0.0
230,57.25,43.3953,42.2213,149.64,111.182,95.972,0.00742576,0.280372,20.5602,599.699,1.32987,0.0,0.0
240,59.75,44.7629,43.7142,145.513,111.163,93.5889,0.0078778,0.295115,20.5453,599.528,1.55567,0.0,0.0
250,62.25,46.2223,45.1298,150.214,111.16,95.6256,0.00805045,0.306034,20.5389,599.328,1.36076,0.0,0.0
260,64.75,46.716,45.4705,150.982,111.149,97.9835,0.00788928,0.308498,20.5436,599.228,1.1397,0.0,0.0
270,67.25,47.4985,46.5502,146.328,111.136,98.158,0.0072805,0.303071,20.563,599.058,1.12257,0.0,0.0
280,69.75,47.9697,47.5116,152.497,111.119,98.0841,0.0066266,0.293903,20.587,598.918,1.128,0.0,0.0
290,72.25,47.8616,47.1856,151.603,111.12,100.451,0.00611063,0.280381,20.6115,598.828,0.912481,0.0,0.0
300,74.75,48.3934,48.4324,151.512,111.107,100.756,0.00540073,0.265588,20.6395,598.678,0.884038,0.0,0.0
310,77.25,48.5897,48.5642,153.153,111.078,105.125,0.00447201,0.249267,20.6675,598.648,0.49798,0.0,0.0
320,79.75,48.5237,48.8178,152.536,111.065,107.416,0.00342857,0.232418,20.6912,598.578,0.301955,0.0,0.0
330,82.25,48.3467,49.1375,154.993,111.034,111.276,0.00236514,0.215628,20.7186,598.528,-0.019683,0.0,0.0
340,84.75,48.2386,48.9469,159.413,111.021,114.587,0.00172625,0.198466,20.747,598.457,-0.285791,0.0,0.0
350,87.25,47.6726,48.8105,157.291,111.003,115.802,0.0012665,0.182206,20.7707,598.387,-0.382661,0.0,0.0
360,89.75,47.4526,48.8653,156.589,110.979,116.218,0.00113027,0.166743,20.7998,598.327,-0.417037,0.0,0.0
370,92.25,47.2919,48.7393,156.052,110.948,115.557,0.00116535,0.150946,20.8215,598.327,-0.367975,0.0,0.0
380,94.75,46.7416,48.1987,161.265,110.923,115.959,0.00111292,0.13795,20.8388,598.297,-0.401426,0.0,0.0
390,97.25,46.4345,48.0017,158.499,110.905,116.05,0.00107328,0.126666,20.8541,598.287,-0.409999,0.0,0.0
400,99.75,45.56,47.7235,156.876,110.876,115.387,0.00129591,0.115269,20.8685,598.217,-0.360484,0.0,0.0
410,102.25,45.331,47.2471,161.083,110.861,114.479,0.00142281,0.105373,20.8805,598.207,-0.290323,0.0,0.0
420,104.75,44.2953,47.1768,161.884,110.839,115.172,0.00143601,0.0968892,20.8931,598.197,-0.346664,0.0,0.0
430,107.25,44.1375,46.5941,159.442,110.827,115.102,0.0013321,0.0893174,20.9023,598.167,-0.3422,0.0,0.0
440,109.75,43.6717,46.2045,160.522,110.797,114.288,0.00128853,0.0839757,20.9091,598.127,-0.280421,0.0,0.0
450,112.25,41.2632,44.0135,162.275,110.79,114.013,0.0012959,0.0798553,20.9122,598.127,-0.259215,0.0,0.0
460,114.75,41.3806,44.3096,161.921,110.779,113.905,0.00123318,0.0766962,20.9155,598.107,-0.251612,0.0,0.0
470,117.25,40.4122,43.6661,161.473,110.769,114.107,0.0011954,0.0741747,20.9187,598.117,-0.268368,0.0,0.0
480,119.75,40.0453,43.0023,162.321,110.712,114.308,0.00114643,0.0723527,20.9208,598.087,-0.288963,0.0,0.0
490,122.25,40.0482,42.6134,162.895,110.692,114.197,0.00113157,0.070545,20.9217,598.057,-0.281786,0.0,0.0
500,124.75,39.9387,42.4679,158.475,110.656,115.012,0.0011026,0.0686901,20.9235,598.057,-0.349088,0.0,0.0
510,127.25,39.3421,42.4864,159.389,110.639,114.94,0.00104689,0.0673225,20.9232,598.037,-0.344819,0.0,0.0
520,129.75,39.404,41.8364,161.165,110.584,114.345,0.000991517,0.0663393,20.9236,598.047,-0.302303,0.0,0.0
530,132.25,39.0454,41.5527,157.788,110.586,114.804,0.000865094,0.0651129,20.9255,598.027,-0.338423,0.0,0.0
540,134.75,38.7129,41.0699,163.843,110.567,114.385,0.000617685,0.063787,20.9268,598.027,-0.306909,0.0,0.0
550,137.25,38.477,40.6729,161.595,110.558,113.982,0.00046743,0.0627025,20.9276,597.987,-0.275732,0.0,0.0
560,139.75,38.2967,40.5459,159.362,110.525,114.992,0.000396565,0.0615483,20.929,597.967,-0.358146,0.0,0.0
570,142.25,37.9534,40.3438,166.096,110.509,115.075,0.000223045,0.0604711,20.9303,597.937,-0.365968,0.0,0.0
580,144.75,37.7845,40.16,162.838,110.519,114.086,-6.6352e-05,0.0594172,20.9315,597.927,-0.287174,0.0,0.0
590,147.25,37.8118,40.1857,157.176,110.475,114.321,-0.000149573,0.0583903,20.9319,597.917,-0.309337,0.0,0.0
600,149.75,37.8204,40.0632,160.066,110.458,114.342,-0.000105021,0.0574032,20.9328,597.937,-0.312391,0.0,0.0
610,152.25,37.3098,39.3556,160.848,110.43,114.055,-0.000113678,0.0565087,20.9351,597.917,-0.29198,0.0,0.0
620,154.75,36.7762,39.8043,161.484,110.431,114.741,-0.000102051,0.0554129,20.9362,597.907,-0.346166,0.0,0.0
630,157.25,36.8489,39.1058,161.282,110.427,114.134,-0.000125186,0.0544151,20.9375,597.887,-0.298524,0.0,0.0
640,159.75,37.1202,39.4144,160.288,110.435,114.567,-0.000178206,0.0533798,20.9382,597.887,-0.332125,0.0,0.0
650,162.25,36.7116,38.937,160.768,110.417,114.88,-0.000313641,0.0527728,20.9393,597.867,-0.358203,0.0,0.0
660,164.75,36.5282,38.881,160.271,110.416,114.584,-0.000419239,0.0520993,20.9401,597.857,-0.334889,0.0,0.0
670,167.25,36.6772,38.635,163.015,110.404,114.636,-0.000528896,0.0513842,20.9413,597.777,-0.340048,0.0,0.0
680,169.75,36.4886,39.0184,159.236,110.385,114.064,-0.000617974,0.050811,20.9412,597.807,-0.296365,0.0,0.0
690,172.25,35.8947,38.3562,161.875,110.372,115.082,-0.000578576,0.0502877,20.9426,597.857,-0.377802,0.0,0.0
700,174.75,36.4038,38.2757,161.555,110.358,114.226,-0.000492418,0.0498131,20.9437,597.827,-0.311354,0.0,0.0
710,177.25,36.358,38.1286,163.829,110.355,114.37,-0.000461776,0.0491317,20.9442,597.827,-0.323045,0.0,0.0
720,179.75,36.3975,38.2256,160.485,110.353,114.484,-0.000512684,0.048591,20.9443,597.827,-0.332291,0.0,0.0
730,182.25,36.2969,37.7755,159.952,110.361,114.605,-0.000485339,0.0480991,20.9451,597.807,-0.341099,0.0,0.0
740,184.75,36.0008,37.9112,163.865,110.336,114.279,-0.000548525,0.047693,20.9462,597.807,-0.317445,0.0,0.0
750,187.25,36.0278,38.1471,160.284,110.34,114.179,-0.000567796,0.0471753,20.9465,597.787,-0.309159,0.0,0.0
760,189.75,35.7604,37.3911,161.337,110.334,114.285,-0.000580954,0.0468625,20.9453,597.737,-0.31807,0.0,0.0
770,192.25,36.0235,37.2359,163.314,110.33,114.882,-0.00058733,0.0465634,20.9443,597.757,-0.365474,0.0,0.0
780,194.75,35.7121,37.5898,158.645,110.319,115.111,-0.000682682,0.0460836,20.9448,597.807,-0.384425,0.0,0.0
790,197.25,35.7183,37.3369,159.383,110.313,113.786,-0.000787944,0.0459738,20.9478,597.677,-0.28025,0.0,0.0
800,199.75,35.4254,36.9505,159.289,110.29,114.164,-0.000818844,0.0456363,20.949,597.757,-0.31206,0.0,0.0
810,202.25,35.5757,37.1825,160.309,110.274,114.316,-0.000904432,0.045351,20.9495,597.757,-0.325412,0.0,0.0
820,204.75,35.3678,36.9839,157.932,110.263,114.416,-0.000991727,0.0452085,20.9496,597.727,-0.33427,0.0,0.0
830,207.25,35.2597,36.7032,161.696,110.278,114.562,-0.000944657,0.0451367,20.9506,597.757,-0.344573,0.0,0.0
840,209.75,35.8981,36.4576,158.977,110.285,114.691,-0.000695264,0.0449539,20.9515,597.737,-0.354085,0.0,0.0
850,212.25,35.037,37.2762,157.186,110.301,114.201,-0.000580794,0.045042,20.9517,597.737,-0.314152,0.0,0.0
860,214.75,35.3129,36.5184,161.944,110.326,114.475,-0.000576667,0.0449945,20.9513,597.717,-0.33375,0.0,0.0
870,217.25,35.2862,36.7783,162.353,110.318,113.999,-0.000597468,0.0448988,20.9506,597.717,-0.296711,0.0,0.0
880,219.75,35.2451,36.5781,159.497,110.359,115.259,-0.000725626,0.0448685,20.9506,597.677,-0.392745,0.0,0.0
890,222.25,35.282,36.5589,161.044,110.382,114.155,,0.044622,,597.687,-0.30383,0.0,0.0
900,224.75,35.2117,36.2324,161.309,110.441,114.57,,,,597.677,-0.33182,0.0,0.0
910,227.25,35.0505,36.2351,162.002,110.49,114.682,,,,597.677,-0.33657,0.0,0.0
920,229.75,34.9013,36.7424,158.688,110.518,114.194,,,,597.677,-0.295816,0.0,0.0
924,230.75,35.0254,36.3859,163.685,110.516,114.138,,,,597.657,-0.291517,0.0,0.0

File: Rug_Pad_Cone_HF25Scan_220920_R2.csv
Names,Time,Stack TC,Smoke TC,Exh Press,Smoke Comp,Smoke Meas,CO Meter,CO2 Meter,O2 Meter,Sample Mass,Ext Coeff,Start Test,Flame Verif
Chan Gain,,500,500,1,1,1,1,1,1,1,1,1.0,1.0
Offset,,0,0,0.143022,0,0,0,0,0,0,0,0.0,0.0
Gain,,1,1,25.011,14.5176,16.5692,1,1,1,1.00088,1.03055,1.0,1.0
Units,sec,C,C,Pa,%,%,%,%,%,g,/m,,
Baseline,,37.4396,38.2411,161.712,110.142,114.04,-0.000973659,0.0435256,20.9544,-447.134,-0.314379,,
10,2.25,35.2854,36.1946,164.44,109.806,113.29,-0.000847465,0.0445032,20.9544,592.182,-0.282385,0.0,0.0
20,4.75,34.9066,36.3648,156.115,109.749,113.807,-0.000851127,0.0444566,20.9557,592.262,-0.328196,0.0,0.0
30,7.25,35.5915,36.4472,163.351,109.653,113.291,-0.000917271,0.0442085,20.9551,592.222,-0.295094,0.0,0.0
40,9.75,35.2425,36.4146,158.979,109.565,112.665,-0.000922299,0.0439231,20.9546,592.212,-0.252199,0.0,0.0
50,12.25,35.1141,36.5492,158.789,109.489,112.293,-0.000817742,0.044044,20.9544,592.192,-0.228659,0.0,0.0
60,14.75,35.34,36.1564,159.848,109.438,112.671,-0.000668278,0.0440183,20.9543,592.172,-0.263188,0.0,0.0
70,17.25,35.6142,36.1782,160.962,109.373,112.087,-0.0005594,0.0439537,20.9543,592.232,-0.221552,0.0,0.0
80,19.75,35.6613,36.245,160.941,109.309,111.849,-0.000432481,0.0438162,20.9537,592.172,-0.207635,0.0,0.0
90,22.25,35.5911,36.7172,163.012,109.25,112.069,-0.000525839,0.0439285,20.9527,592.192,-0.230269,0.0,0.0
100,24.75,35.6413,36.4469,160.532,109.192,110.851,-0.000708884,0.0440827,20.9522,592.152,-0.136314,0.0,0.0
110,27.25,35.3808,36.033,162.801,109.132,111.291,-0.000664733,0.0443921,20.9515,592.172,-0.177035,0.0,0.0
120,29.75,35.5535,36.9456,161.596,109.089,110.261,-0.000647809,0.0444928,20.9512,592.182,-0.0966137,0.0,0.0
130,32.25,35.8328,36.5425,163.361,109.073,110.93,-0.000612033,0.0445947,20.951,592.112,-0.152621,0.0,0.0
140,34.75,36.0872,36.0674,163.285,109.012,111.166,-0.000360652,0.0458061,20.9465,592.132,-0.176835,0.0,1.0
150,37.25,36.1394,36.8961,156.272,108.996,108.654,0.000140583,0.0582478,20.9152,592.092,0.0283492,0.0,1.0
160,39.75,35.3172,35.6043,155.312,108.977,102.745,0.00119454,0.0952712,20.8517,591.942,0.53235,0.0,1.0
170,42.25,36.5491,35.8919,150.79,108.981,97.0349,0.00266932,0.147274,20.7596,591.792,1.04959,0.0,0.0
180,44.75,37.6557,36.7533,146.63,108.995,94.2007,0.00408052,0.191377,20.6937,591.661,1.3187,0.0,0.0
190,47.25,38.8379,38.3426,146.963,109.035,97.9041,0.00516697,0.222665,20.6471,591.571,0.973381,0.0,0.0
200,49.75,40.3274,39.0244,148.733,109.07,94.1947,0.0059051,0.248797,20.6118,591.371,1.32552,0.0,0.0
210,52.25,41.41,40.2021,151.066,109.14,89.1098,0.00660224,0.269048,20.5862,591.251,1.83295,0.0,0.0
220,54.75,42.7804,41.222,145.971,109.198,90.8735,0.00729557,0.287573,20.5588,591.121,1.66061,0.0,0.0
230,57.25,44.4849,43.5776,148.554,109.268,95.1766,0.00787231,0.303096,20.5374,590.891,1.2481,0.0,0.0
240,59.75,45.7014,44.3613,147.144,109.353,92.4663,0.00810251,0.312555,20.5301,590.741,1.51633,0.0,0.0
250,62.25,46.4467,45.7262,148.571,109.408,91.0394,0.00807675,0.313052,20.5384,590.601,1.66142,0.0,0.0
260,64.75,46.9841,46.3391,152.719,109.499,93.5778,0.00783471,0.307695,20.5524,590.46,1.42036,0.0,0.0
270,67.25,47.6564,47.4235,151.373,109.574,97.272,0.00706989,0.297176,20.581,590.3,1.07652,0.0,0.0
280,69.75,48.1741,47.668,150.235,109.659,98.1266,0.00618926,0.28126,20.6119,590.17,1.00447,0.0,0.0
290,72.25,48.053,47.8713,150.906,109.746,99.818,0.00514153,0.262827,20.6416,590.08,0.857132,0.0,0.0
300,74.75,48.0306,48.7316,152.422,109.843,103.108,0.00374661,0.244657,20.6709,589.99,0.571947,0.0,0.0
310,77.25,47.8871,48.3871,154.694,109.922,108.388,0.00244583,0.225324,20.7064,589.95,0.127057,0.0,0.0
320,79.75,48.1805,48.7959,152.836,110.022,111.511,0.00151552,0.206177,20.7384,589.89,-0.121528,0.0,0.0
330,82.25,47.7364,48.0923,155.583,110.089,112.895,0.000994771,0.187809,20.766,589.84,-0.227537,0.0,0.0
340,84.75,47.1701,48.5968,153.501,110.176,114.634,0.000850011,0.17152,20.7948,589.79,-0.358558,0.0,0.0
350,87.25,46.6881,47.9833,157.375,110.271,114.682,0.00102246,0.155526,20.8179,589.71,-0.354606,0.0,0.0
360,89.75,46.2897,47.7386,158.51,110.357,114.539,0.00119693,0.142696,20.8378,589.75,-0.336163,0.0,0.0
370,92.25,46.4708,47.5965,155.044,110.433,114.596,0.00131609,0.130736,20.854,589.66,-0.334508,0.0,0.0
380,94.75,45.8932,47.2931,158.012,110.532,114.286,0.00155761,0.119881,20.8653,589.66,-0.301899,0.0,0.0
390,97.25,45.0174,46.6846,162.806,110.621,114.715,0.00170834,0.11109,20.8765,589.63,-0.328516,0.0,0.0
400,99.75,44.8654,46.8411,158.217,110.685,114.079,0.00163454,0.102759,20.8879,589.59,-0.273074,0.0,0.0
410,102.25,44.3972,46.3437,162.309,110.773,113.502,0.00142065,0.0954719,20.8988,589.57,-0.219965,0.0,0.0
420,104.75,43.7441,45.481,155.119,110.811,113.339,0.0013349,0.0889232,20.906,589.56,-0.203875,0.0,0.0
430,107.25,42.4197,45.8695,159.377,110.872,113.615,0.00119648,0.0829925,20.9129,589.55,-0.220958,0.0,0.0
440,109.75,42.5845,44.8851,158.226,110.889,113.377,0.0010504,0.0790904,20.917,589.51,-0.20058,0.0,0.0
450,112.25,41.6805,43.3999,160.729,110.923,113.306,0.000885414,0.0758844,20.9213,589.48,-0.19219,0.0,0.0
460,114.75,39.8753,42.8868,162.67,110.94,113.975,0.000839063,0.0734986,20.9237,589.5,-0.243921,0.0,0.0
470,117.25,39.8767,42.1511,157.988,110.96,113.599,0.000858375,0.071478,20.926,589.46,-0.212449,0.0,0.0
480,119.75,39.4739,42.0074,160.622,110.966,114.132,0.000802588,0.069521,20.925,589.419,-0.254292,0.0,0.0
490,122.25,39.3748,41.2883,159.931,110.979,113.743,0.000721383,0.0676287,20.9268,589.389,-0.222394,0.0,0.0
500,124.75,38.8401,41.2858,159.629,110.977,113.276,0.00063723,0.0659724,20.928,589.399,-0.185364,0.0,0.0
510,127.25,38.3748,40.8457,163.19,110.977,113.787,0.000442051,0.064519,20.928,589.399,-0.226029,0.0,0.0
520,129.75,38.0951,40.8294,159.516,110.962,113.184,0.000301514,0.0634443,20.9291,589.369,-0.179209,0.0,0.0
530,132.25,38.1295,39.9849,160.887,110.952,114.071,0.000414826,0.0624602,20.9311,589.329,-0.250599,0.0,0.0
540,134.75,37.7977,40.0677,159.342,110.938,114.152,0.000520889,0.06127,20.932,589.329,-0.258168,0.0,0.0
550,137.25,37.1566,39.8948,160.849,110.921,113.852,0.000432387,0.0601671,20.9338,589.329,-0.235723,0.0,0.0
560,139.75,37.3001,39.6875,160.289,110.887,113.679,0.000291466,0.0593117,20.9344,589.339,-0.224799,0.0,0.0
570,142.25,37.1043,39.2079,160.737,110.862,113.664,0.000127663,0.0583162,20.9358,589.329,-0.225615,0.0,0.0
580,144.75,36.7407,39.2578,166.551,110.831,113.918,-8.06905e-05,0.0571753,20.9368,589.299,-0.248346,0.0,0.0
590,147.25,36.31,38.8793,159.351,110.801,113.869,-0.000227288,0.0559696,20.9383,589.279,-0.246878,0.0,0.0
600,149.75,35.8412,38.7868,162.28,110.761,113.452,-0.000239125,0.0546126,20.9392,589.289,-0.216954,0.0,0.0
610,152.25,35.9335,38.8531,157.369,110.703,113.387,-0.0001474,0.0535439,20.9395,589.269,-0.216533,0.0,0.0
620,154.75,36.4117,38.4257,159.194,110.661,113.853,-0.000202507,0.0526252,20.9411,589.269,-0.257023,0.0,0.0
630,157.25,36.2483,38.1416,157.57,110.598,113.513,-0.000247227,0.051697,20.9432,589.259,-0.235176,0.0,0.0
640,159.75,36.089,37.8599,159.114,110.545,113.843,-0.000122077,0.0508479,20.9439,589.229,-0.265783,0.0,0.0
650,162.25,35.8048,38.1528,161.109,110.457,113.181,-7.4769e-05,0.0497058,20.945,589.229,-0.220243,0.0,0.0
660,164.75,35.4186,37.9628,160.917,110.38,113.393,-0.000159237,0.0490547,20.9452,589.239,-0.243461,0.0,0.0
670,167.25,35.659,37.8726,159.183,110.3,113.305,-0.000210171,0.0484526,20.9466,589.219,-0.242978,0.0,0.0
680,169.75,35.5032,37.3659,164.778,110.217,113.657,-0.000267932,0.0477631,20.9476,589.209,-0.277882,0.0,0.0
690,172.25,35.5107,37.4249,161.088,110.12,112.787,-0.000366038,0.047282,20.9479,589.209,-0.216402,0.0,0.0
700,174.75,35.3298,37.4321,159.592,109.993,113.366,-0.000441275,0.0469185,20.949,589.179,-0.273059,0.0,0.0
710,177.25,35.5641,36.9784,163.685,109.898,113.281,-0.000409074,0.0465777,20.9487,589.189,-0.274079,0.0,0.0
720,179.75,35.4742,36.9204,158.059,109.796,112.925,-0.000308328,0.046497,20.9483,589.189,-0.254086,0.0,0.0
730,182.25,35.1237,37.3656,159.503,109.718,113.019,-0.000400211,0.0463118,20.9495,589.179,-0.267953,0.0,0.0
740,184.75,35.2175,37.3775,158.046,109.64,112.84,-0.000567982,0.0461269,20.9501,589.169,-0.260051,0.0,0.0
750,187.25,34.9228,36.797,160.497,109.527,112.594,-0.000748267,0.0457198,20.9503,589.149,-0.249661,0.0,0.0
760,189.75,34.7309,37.0599,159.712,109.446,112.49,-0.000785952,0.0455734,20.9517,589.159,-0.247952,0.0,0.0
770,192.25,35.1172,36.2425,157.363,109.386,112.679,-0.000837816,0.0453934,20.9522,589.159,-0.268079,0.0,0.0
780,194.75,35.0258,36.4604,161.544,109.301,112.747,-0.000805061,0.0454484,20.9523,589.149,-0.280663,0.0,0.0
790,197.25,35.1782,36.2959,162.002,109.253,112.07,-0.000711853,0.0451536,20.9529,589.129,-0.230172,0.0,0.0
800,199.75,34.7844,36.3543,158.699,109.167,112.351,-0.000669873,0.0450071,20.9538,589.139,-0.259818,0.0,0.0
810,202.25,34.6125,36.0795,160.858,109.121,111.584,-0.000788722,0.045121,20.9536,589.139,-0.201784,0.0,0.0
820,204.75,35.0284,36.316,156.736,109.088,111.765,-0.000859036,0.0449136,20.9533,589.119,-0.219109,0.0,0.0
830,207.25,34.8242,36.2621,160.988,109.053,111.81,-0.000916892,0.0450042,20.9544,589.119,-0.225686,0.0,0.0
840,209.75,34.4505,36.2816,161.252,109.044,112.176,-0.00105083,0.0448462,20.9541,589.109,-0.255975,0.0,0.0
850,212.25,34.9407,36.2526,163.833,109.018,112.318,-0.0010527,0.0446401,20.9526,589.109,-0.269622,0.0,0.0
860,214.75,34.6235,36.0084,157.498,109.021,112.323,-0.000893647,0.0446233,20.9521,589.099,-0.269735,0.0,0.0
870,217.25,35.3366,35.9205,161.297,109.028,112.218,-0.000856959,0.0444791,20.9524,589.089,-0.260638,0.0,0.0
880,219.75,34.5153,36.5492,159.624,109.075,112.088,-0.000839718,0.044506,20.9516,589.069,-0.24627,0.0,0.0
890,222.25,34.7857,35.9447,160.206,109.079,112.224,,0.0445194,,589.089,-0.256903,0.0,0.0
900,224.75,35.0746,36.0165,159.425,109.129,112.364,,,,589.059,-0.264031,0.0,0.0
910,227.25,34.5491,35.6158,163.705,109.158,112.535,,,,589.059,-0.275422,0.0,0.0
920,229.75,34.7743,36.0879,157.551,109.228,112.603,,,,589.059,-0.275072,0.0,0.0
929,232,34.562,35.6954,160.282,109.271,113.112,,,,589.049,-0.312303,0.0,0.0