Folder: fsri_materials_database/01_Data/Rug_Pad/Cone (part 3)

File: Rug_Pad_Cone_HF50Scan_220920_R2.csv
Names,Time,Stack TC,Smoke TC,Exh Press,Smoke Comp,Smoke Meas,CO Meter,CO2 Meter,O2 Meter,Sample Mass,Ext Coeff,Start Test,Flame Verif
Chan Gain,,500,500,1,1,1,1,1,1,1,1,1.0,1.0
Offset,,0,0,0.143022,0,0,0,0,0,0,0,0.0,0.0
Gain,,1,1,25.011,14.5176,16.5692,1,1,1,1.00088,1.03055,1.0,1.0
Units,sec,C,C,Pa,%,%,%,%,%,g,/m,,
Baseline,,48.6301,50.1428,155.581,110.513,115.465,-0.000930378,0.0434181,20.9515,-447.457,-0.39618,,
13,3,46.4829,48.1283,155.364,109.746,114.257,-0.000630891,0.0433992,20.9529,591.041,-0.364168,0.0,0.0
26,6.25,46.5586,48.1842,155.72,109.789,111.41,-0.000254557,0.04544,20.9522,590.971,-0.132498,0.0,1.0
39,9.5,47.2506,48.6061,148.662,109.824,102.922,0.00140921,0.0799541,20.8895,590.871,0.586708,0.0,1.0
52,12.75,48.0206,48.4307,146.427,109.884,94.0677,0.00419175,0.18118,20.7052,590.671,1.40492,0.0,0.0
65,16,50.491,50.4025,134.441,109.896,89.7783,0.00764015,0.278754,20.5477,590.42,1.82781,0.0,0.0
78,19.25,53.9364,53.1503,128.457,109.936,79.9869,0.0112504,0.379501,20.3814,590.1,2.87499,0.0,0.0
91,22.5,57.6816,56.111,130.666,109.967,78.0583,0.0143157,0.470386,20.2424,589.74,3.0982,0.0,0.0
104,25.75,61.6314,59.7375,135.772,110.006,82.2795,0.0156993,0.524593,20.1824,589.339,2.62532,0.0,0.0
117,29,63.9023,62.6377,137.909,110.052,81.9741,0.0151287,0.511798,20.2096,588.949,2.66272,0.0,0.0
130,32.25,64.5368,64.5783,147.212,110.074,91.3099,0.0124069,0.446449,20.3532,588.809,1.68953,0.0,0.0
143,35.5,64.7855,65.391,145.824,110.113,100.127,0.00901357,0.362848,20.5041,588.639,0.859389,0.0,0.0
156,38.75,64.138,65.7119,144.259,110.153,107.253,0.00547786,0.287588,20.6221,588.549,0.241234,0.0,0.0
169,42,63.2251,64.6623,148.286,110.171,113.931,0.0031194,0.230335,20.7124,588.449,-0.303321,0.0,0.0
182,45.25,62.2496,64.83,150.741,110.182,115.514,0.00189446,0.188206,20.7738,588.359,-0.427206,0.0,0.0
195,48.5,61.5029,63.9974,150.039,110.223,115.942,0.00142594,0.158911,20.8134,588.349,-0.457275,0.0,0.0
208,51.75,60.4784,63.3708,153.862,110.23,115.111,0.0015371,0.140571,20.836,588.289,-0.391689,0.0,0.0
221,55,60.0444,62.8472,150.76,110.245,115.391,0.00172345,0.128565,20.8524,588.238,-0.412346,0.0,0.0
234,58.25,58.9023,61.9791,150.304,110.26,115.175,0.0018136,0.119102,20.8631,588.178,-0.394216,0.0,0.0
247,61.5,58.1856,61.5628,151.688,110.266,115.825,0.00191447,0.113804,20.8673,588.148,-0.444679,0.0,0.0
260,64.75,57.6598,60.6123,152.152,110.272,115.075,0.00166051,0.108706,20.8722,588.078,-0.385338,0.0,0.0
273,68,56.6602,60.0963,159.468,110.272,115.816,0.00131565,0.10357,20.8788,588.108,-0.443384,0.0,0.0
286,71.25,56.1779,59.2424,151.401,110.294,114.88,0.00104841,0.100628,20.8825,588.018,-0.368252,0.0,0.0
299,74.5,55.8682,59.1374,152.11,110.301,115.409,0.000696641,0.0989864,20.8843,587.958,-0.409236,0.0,0.0
312,77.75,55.2486,59.0774,153.987,110.291,114.925,0.000711358,0.0973496,20.8857,587.928,-0.372087,0.0,0.0
325,81,54.7989,58.3629,152.013,110.299,116.109,0.000810634,0.0953125,20.8884,587.898,-0.464028,0.0,0.0
338,84.25,54.6015,58.1065,151.899,110.331,115.382,0.000613457,0.092499,20.89,587.898,-0.404704,0.0,0.0
351,87.5,54.3002,58.0131,153.414,110.326,114.852,0.00014295,0.0900775,20.8925,587.868,-0.36341,0.0,0.0
364,90.75,53.9353,57.4738,152.811,110.327,114.983,1.97938e-05,0.0879091,20.8941,587.838,-0.373678,0.0,0.0
377,94,53.8803,57.3385,156.045,110.341,114.483,5.49477e-05,0.086277,20.896,587.788,-0.333154,0.0,0.0
390,97.25,53.3113,56.4789,150.14,110.32,114.361,7.81889e-05,0.0847389,20.8976,587.758,-0.325153,0.0,0.0
403,100.5,52.9767,56.5806,153.615,110.302,115.816,0.000132169,0.0843214,20.8997,587.728,-0.440987,0.0,0.0
416,103.75,53.184,56.3478,153.323,110.31,114.591,4.22083e-05,0.0835891,20.9007,587.708,-0.344233,0.0,0.0
429,107,52.7693,56.0578,151.25,110.31,114.368,-0.000116019,0.0831273,20.9021,587.628,-0.326624,0.0,0.0
442,110.25,52.1707,55.8444,151.539,110.278,115.789,-6.26477e-06,0.0832102,20.9006,587.658,-0.440856,0.0,0.0
455,113.5,52.431,55.2999,151.952,110.252,115.484,0.000270119,0.0826196,20.9009,587.598,-0.419123,0.0,0.0
468,116.75,52.3492,55.4884,152.042,110.242,115.946,0.000447366,0.0813111,20.9029,587.618,-0.455992,0.0,0.0
481,120,52.0592,55.0649,147.359,110.203,115.578,0.000291853,0.0803467,20.9036,587.578,-0.430519,0.0,0.0
494,123.25,51.619,55.0185,156.11,110.119,115.37,0.000297154,0.0796865,20.903,587.568,-0.421081,0.0,0.0
507,126.5,51.5181,54.9986,151.196,110.075,114.742,0.00057991,0.0785181,20.906,587.538,-0.375379,0.0,0.0
520,129.75,51.7573,54.7774,151.456,110.023,114.634,0.000573405,0.0770047,20.9086,587.518,-0.371108,0.0,0.0
533,133,51.7192,54.7588,153.611,109.918,116.055,0.000294791,0.0749954,20.9107,587.488,-0.491175,0.0,0.0
546,136.25,51.7659,53.9957,154.151,109.854,115.052,0.000330804,0.0732199,20.913,587.438,-0.41794,0.0,0.0
559,139.5,51.4273,54.1554,152.727,109.769,114.549,0.000536308,0.0717492,20.9153,587.458,-0.385322,0.0,0.0
572,142.75,51.2416,53.9657,154.741,109.68,114.729,0.000419587,0.0698778,20.9172,587.458,-0.406817,0.0,0.0
585,146,51.1283,53.7526,154.235,109.6,114.254,0.000279691,0.0683768,20.919,587.428,-0.37598,0.0,0.0
598,149.25,50.7769,53.6606,155.241,109.548,114.684,0.000206228,0.0665654,20.9221,587.368,-0.414159,0.0,0.0
611,152.5,50.9958,53.5234,162.229,109.453,114.798,0.000404931,0.0649246,20.9233,587.388,-0.430989,0.0,0.0
624,155.75,50.2549,53.463,156.125,109.392,114.19,0.000381278,0.0635601,20.9251,587.348,-0.388052,0.0,0.0
637,159,50.4252,53.114,151.801,109.333,114.261,0.000207937,0.0621434,20.9274,587.328,-0.398602,0.0,0.0
650,162.25,50.5759,53.1059,160.155,109.293,113.798,5.35142e-06,0.061277,20.9284,587.318,-0.365139,0.0,0.0
663,165.5,50.5501,52.9336,151.023,109.222,114.049,-0.000247536,0.0604095,20.9301,587.288,-0.390909,0.0,0.0
676,168.75,50.7987,53.0351,155.064,109.182,114.629,-0.00026284,0.0598805,20.9321,587.258,-0.440065,0.0,0.0
689,172,50.3875,52.481,153.838,109.164,113.786,8.82779e-05,0.0587083,20.9351,587.258,-0.374849,0.0,0.0
702,175.25,49.9536,52.7662,151.045,109.121,114.334,0.000211568,0.0574753,20.9367,587.248,-0.421887,0.0,0.0
715,178.5,48.9719,51.1685,153.8,109.064,114.406,0.000178385,0.0556105,20.9402,587.208,-0.432259,0.0,0.0
728,181.75,48.4921,50.6014,154.54,109.03,114.072,-5.05774e-07,0.0536803,20.9432,587.198,-0.408681,0.0,0.0
741,185,47.8337,50.5567,153.356,109.013,112.968,-0.000270543,0.052827,20.9442,587.158,-0.322172,0.0,0.0
754,188.25,48.0798,50.437,149.55,108.969,113.82,-0.000422647,0.0524447,20.9445,587.1875,-0.393811,0.0,0.0
767,191.5,48.2226,50.2726,153.761,108.951,112.847,-0.000535034,0.0519083,20.9439,587.168,-0.317604,0.0,0.0
780,194.75,48.1088,50.5123,151.665,108.942,113.405,-0.000447784,0.05133,20.9437,587.158,-0.362985,0.0,0.0
793,198,47.7464,50.3664,154.995,108.912,113.887,-0.000173706,0.050962,20.9448,587.158,-0.40378,0.0,0.0
806,201.25,47.8641,50.6784,155.029,108.91,113.762,-0.00013034,0.0506695,20.9457,587.097,-0.394004,0.0,0.0
819,204.5,47.9763,50.3111,152.05,108.922,114.122,-0.000298449,0.0503728,20.9459,587.097,-0.421538,0.0,0.0
832,207.75,47.8816,49.8829,151.281,108.935,114.213,-0.000532599,0.0501526,20.9445,587.047,-0.427755,0.0,0.0
845,211,47.9573,50.0947,154.416,108.94,114.354,-0.000619825,0.050071,20.9439,587.057,-0.43847,0.0,0.0
858,214.25,47.6828,49.4821,154.686,108.979,113.011,-0.000355452,0.049785,20.9442,587.047,-0.32848,0.0,0.0
871,217.5,47.9138,49.7817,156.731,108.985,113.052,-0.000326972,0.0494564,20.945,587.067,-0.331241,0.0,0.0
884,220.75,47.7513,49.9251,153.335,108.994,113.828,-0.000518314,0.0491289,20.9473,586.987,-0.392282,0.0,0.0
897,224,47.5848,49.6811,155.126,109.023,113.682,-0.000483017,0.0489665,20.9463,586.997,-0.378244,0.0,0.0
910,227.25,47.868,49.5983,157.179,109.089,112.546,-0.000453129,0.048563,20.9463,586.977,-0.281968,0.0,0.0
923,230.5,48.1664,49.4872,153.258,109.152,113.996,-0.000500519,0.0482088,20.947,586.967,-0.392536,0.0,0.0
936,233.75,47.5387,49.6514,153.103,109.186,113.237,-0.000607027,0.0481456,20.9486,586.927,-0.329396,0.0,0.0
949,237,47.6983,49.5201,152.288,109.243,113.801,-0.000497938,0.0478931,20.9478,586.917,-0.369526,0.0,0.0
962,240.25,48.0865,49.794,152.046,109.305,114.092,-0.000363274,0.0475664,20.9471,586.927,-0.387458,0.0,0.0
975,243.5,47.5202,49.6736,149.337,109.37,113.664,-0.000343464,0.0475411,20.9469,586.897,-0.348078,0.0,0.0
988,246.75,47.444,49.0445,150.129,109.435,113.938,-0.00041811,0.0472649,20.9468,586.927,-0.364508,0.0,0.0
1001,250,47.7216,49.6049,152.596,109.543,113.889,-0.000666711,0.0473221,20.9474,586.897,-0.351723,0.0,0.0
1014,253.25,47.385,49.7872,152.79,109.618,114.831,-0.000640267,0.0470787,20.9476,586.867,-0.419939,0.0,0.0
1027,256.5,47.4081,49.4073,152.574,109.704,114.581,-0.000519934,0.0469606,20.9477,586.887,-0.393241,0.0,0.0
1040,259.75,47.761,49.463,154.154,109.791,114.753,-0.000554674,0.0468718,20.9487,586.877,-0.399608,0.0,0.0
1053,263,47.6802,49.2564,156.531,109.871,113.811,-0.000647708,0.046702,20.9488,586.847,-0.318528,0.0,0.0
1066,266.25,47.6675,49.01,156.802,109.931,114.373,-0.00061756,0.0465724,20.9471,586.827,-0.35808,0.0,0.0
1079,269.5,47.2786,49.5059,153.242,110.021,115.03,-0.000719192,0.0466295,20.9484,586.807,-0.402458,0.0,0.0
1092,272.75,46.7469,48.9032,154.58,110.093,114.645,-0.000894431,0.0465974,20.9493,586.807,-0.366272,0.0,0.0
1105,276,47.3285,49.124,153.887,110.186,115.414,-0.0010723,0.046672,20.951,586.797,-0.419077,0.0,0.0
1118,279.25,47.334,49.0696,154.944,110.285,115.457,-0.00109803,0.0466814,20.95,586.787,-0.414305,0.0,0.0
1131,282.5,47.5156,49.0591,150.948,110.352,115.72,-0.000917765,0.0466746,20.95,586.747,-0.429384,0.0,0.0
1144,285.75,47.0227,49.3719,149.152,110.442,116.075,-0.000719575,0.046649,20.95,586.777,-0.449745,0.0,0.0
1157,289,47.325,49.2405,156.132,110.526,115.283,,0.0465437,,586.747,-0.380938,0.0,0.0
1170,292.25,47.907,49.3031,153.35,110.644,115.288,,,,586.767,-0.371704,0.0,0.0
1183,295.5,47.1039,49.3766,156.306,110.744,115.3,,,,586.737,-0.364399,0.0,0.0
1189,297,47.5929,49.2532,153.133,110.779,116.349,,,,586.727,-0.443473,0.0,0.0

File: Rug_Pad_Cone_HF50Scan_220920_R3.csv
Names,Time,Stack TC,Smoke TC,Exh Press,Smoke Comp,Smoke Meas,CO Meter,CO2 Meter,O2 Meter,Sample Mass,Ext Coeff,Start Test,Flame Verif
Chan Gain,,500,500,1,1,1,1,1,1,1,1,1.0,1.0
Offset,,0,0,0.143022,0,0,0,0,0,0,0,0.0,0.0
Gain,,1,1,25.011,14.5176,16.5692,1,1,1,1.00088,1.03055,1.0,1.0
Units,sec,C,C,Pa,%,%,%,%,%,g,/m,,
Baseline,,48.8448,50.2906,155.807,109.896,114.201,-0.00102285,0.0433136,20.9532,-447.535,-0.347357,,
17,4,47.1489,48.3122,155.593,110.229,112.92,-0.000697244,0.043655,20.9521,591.722,-0.218113,0.0,0.0
34,8.25,47.8,48.8198,146.558,110.25,102.454,0.000983365,0.0764335,20.8743,591.591,0.662942,0.0,1.0
51,12.5,48.7154,48.8295,142.378,110.292,92.7404,0.00497701,0.188675,20.6868,591.301,1.56689,0.0,0.0
68,16.75,51.6932,51.9148,141.093,110.29,84.9064,0.00893971,0.307769,20.5112,590.901,2.36453,0.0,0.0
85,21,55.8592,55.1952,135.94,110.292,79.2137,0.0126761,0.401343,20.3493,590.48,2.99203,0.0,0.0
102,25.25,60.3611,58.9962,135.28,110.287,78.4199,0.0152655,0.479941,20.2492,589.98,3.08265,0.0,0.0
119,29.5,63.3079,62.1999,136.827,110.266,81.4052,0.0149196,0.479651,20.2726,589.61,2.74323,0.0,0.0
136,33.75,64.1263,64.5204,147.304,110.239,87.2,0.0116349,0.405331,20.4095,589.339,2.11939,0.0,0.0
153,38,64.4579,65.3316,143.337,110.23,96.7851,0.00744934,0.319493,20.5488,589.119,1.1759,0.0,0.0
170,42.25,64.0782,65.2601,150.365,110.182,108.425,0.00422202,0.249501,20.6697,588.969,0.145341,0.0,0.0
187,46.5,62.5092,64.7874,147.791,110.139,113.685,0.002203,0.202127,20.7413,588.889,-0.286455,0.0,0.0
204,50.75,62.3012,63.9811,149.48,110.112,114.976,0.00194012,0.168387,20.7896,588.769,-0.39071,0.0,0.0
221,55,61.1584,63.4152,151.61,110.071,115.05,0.00172363,0.151309,20.8137,588.689,-0.399896,0.0,0.0
238,59.25,60.2106,62.7984,148.973,110.034,114.625,0.00150856,0.141148,20.8274,588.639,-0.369593,0.0,0.0
255,63.5,59.2223,62.4827,149.971,110.009,114.396,0.00115974,0.134146,20.8372,588.599,-0.353508,0.0,0.0
272,67.75,58.3878,61.2185,151.814,109.965,114.387,0.00110499,0.127965,20.8447,588.509,-0.356394,0.0,0.0
289,72,57.999,61.2152,151.011,109.926,114.542,0.000892498,0.123147,20.8498,588.429,-0.37186,0.0,0.0
306,76.25,57.247,61.0356,150.126,109.892,114.425,0.000613688,0.118046,20.8563,588.369,-0.365405,0.0,0.0
323,80.5,56.26,60.3923,154.025,109.857,114.937,0.000586141,0.113264,20.8609,588.268,-0.408699,0.0,0.0
340,84.75,56.7318,60.0539,150.956,109.8125,113.474,0.000727137,0.108525,20.867,588.258,-0.296473,0.0,0.0
357,89,55.6078,59.2427,150.438,109.75,114.561,0.000706475,0.103445,20.8738,588.218,-0.387812,0.0,0.0
374,93.25,55.3889,59.0498,155.44,109.707,114.122,0.000297194,0.0986559,20.8794,588.198,-0.356656,0.0,0.0
391,97.5,55.0327,58.0635,153.004,109.646,113.858,-3.89977e-06,0.0921966,20.8881,588.108,-0.340762,0.0,0.0
408,101.75,54.6138,58.152,155.54,109.583,113.748,2.18166e-06,0.0864357,20.8949,588.088,-0.337268,0.0,0.0
425,106,54.1026,57.4473,152.299,109.522,113.795,0.000216152,0.0815902,20.9006,588.028,-0.345972,0.0,0.0
442,110.25,53.6287,57.0403,150.508,109.497,114.278,0.000416639,0.0781397,20.9086,587.978,-0.386301,0.0,0.0
459,114.5,53.0288,56.9685,153.507,109.364,113.763,0.00043243,0.0749899,20.9129,587.968,-0.356546,0.0,0.0
476,118.75,53.0434,56.2407,150.815,109.328,114.005,0.000443975,0.0720574,20.9165,587.918,-0.378699,0.0,0.0
493,123,52.664,55.9548,155.103,109.269,113.806,8.8411e-05,0.0701674,20.9188,587.828,-0.367761,0.0,0.0
510,127.25,52.2256,55.2821,154.165,109.217,113.987,-0.000213528,0.0689912,20.9225,587.828,-0.386454,0.0,0.0
527,131.5,52.1877,55.183,150.666,109.168,113.805,-0.000156199,0.067753,20.9243,587.758,-0.376082,0.0,0.0
544,135.75,51.548,55.0588,152.883,109.111,113.84,-3.28594e-05,0.0663747,20.9257,587.748,-0.383546,0.0,0.0
561,140,51.802,54.2741,155.561,109.045,113.761,-8.38916e-05,0.0650027,20.9269,587.718,-0.382755,0.0,0.0
578,144.25,51.149,54.643,155.344,108.973,114.291,-0.00015953,0.0640978,20.9253,587.698,-0.430719,0.0,0.0
595,148.5,51.1665,54.2274,152.5,108.95,113.806,-0.000276851,0.0637762,20.9258,587.648,-0.39419,0.0,0.0
612,152.75,51.3975,53.905,156.941,108.918,112.718,-0.000546804,0.0631702,20.9268,587.638,-0.309986,0.0,0.0
629,157,51.2182,53.4346,155.785,108.883,113.627,-0.000390254,0.0627543,20.9277,587.648,-0.385512,0.0,0.0
646,161.25,51.0326,53.5036,157.066,108.883,112.869,-0.000447995,0.0619899,20.929,587.618,-0.325008,0.0,0.0
663,165.5,50.9088,52.9479,153.184,108.875,112.914,-0.000390077,0.0612485,20.9299,587.608,-0.329278,0.0,0.0
680,169.75,50.4547,53.6011,157.606,108.87,114.025,-0.000236501,0.060391,20.9313,587.538,-0.418224,0.0,0.0
697,174,50.7821,52.9783,153.376,108.892,113.416,-0.000289749,0.0595953,20.9316,587.518,-0.36799,0.0,0.0
714,178.25,50.4135,52.6943,153.607,108.899,112.941,-0.000436024,0.058689,20.9333,587.418,-0.32947,0.0,0.0
731,182.5,50.6127,52.8348,155.097,108.903,113.168,-0.00061147,0.0576638,20.9341,587.448,-0.347297,0.0,0.0
748,186.75,50.572,52.6969,152.676,108.914,113.51,-0.000685543,0.0572451,20.9359,587.448,-0.373638,0.0,0.0
765,191,50.4005,52.8818,154.326,108.956,114.24,-0.000645374,0.0566002,20.9372,587.398,-0.428072,0.0,0.0
782,195.25,50.34,52.5806,153.527,108.976,113.446,-0.000511542,0.0557888,20.9375,587.358,-0.363382,0.0,0.0
799,199.5,50.6888,52.2344,151.797,108.992,113.571,-0.000543815,0.0546658,20.9393,587.358,-0.372006,0.0,0.0
816,203.75,50.416,52.3093,152.326,109.043,113.82,-0.000558881,0.0536551,20.9414,587.358,-0.387598,0.0,0.0
833,208,50.1405,52.4953,155.665,109.095,113.49,-0.000474459,0.0531104,20.9421,587.298,-0.357043,0.0,0.0
850,212.25,49.7522,52.0914,157.279,109.128,113.941,-0.000615455,0.0524042,20.9421,587.298,-0.390142,0.0,0.0
867,216.5,50.0231,51.8183,151.933,109.185,114.308,-0.0010121,0.0519499,20.9423,587.308,-0.414565,0.0,0.0
884,220.75,49.8867,51.6671,157.238,109.242,113.963,-0.00108489,0.0514121,20.9439,587.268,-0.382443,0.0,0.0
901,225,49.363,51.5128,156.391,109.311,113.24,-0.00104643,0.0508998,20.9447,587.238,-0.319224,0.0,0.0
918,229.25,49.7788,51.6763,157.034,109.409,114.364,-0.000682608,0.0503711,20.9462,587.258,-0.400421,0.0,0.0
935,233.5,49.7017,51.7071,151.787,109.463,113.691,-0.000604811,0.0502785,20.947,587.208,-0.342595,0.0,0.0
952,237.75,49.6727,51.8535,153.964,109.498,113.504,-0.000663837,0.0500069,20.9453,587.177,-0.324861,0.0,0.0
969,242,49.5855,51.9761,153.497,109.546,113.494,-0.000689688,0.0496241,20.9459,587.198,-0.32007,0.0,0.0
986,246.25,49.3202,51.8025,152.302,109.615,114.017,-0.000744411,0.0492898,20.9451,587.177,-0.355914,0.0,0.0
1003,250.5,49.6193,51.3733,156.948,109.632,114.464,-0.000714799,0.0492461,20.9461,587.127,-0.389901,0.0,0.0
1020,254.75,49.0341,51.3764,152.59,109.669,113.984,-0.000801534,0.0487691,20.9462,587.087,-0.348815,0.0,0.0
1037,259,49.6127,51.3308,151.148,109.657,114.189,-0.000790058,0.0484249,20.947,587.137,-0.366028,0.0,0.0
1054,263.25,49.6106,51.1698,156.321,109.656,114.709,-0.00046046,0.0482938,20.9475,587.057,-0.407235,0.0,0.0
1071,267.5,49.4748,51.8821,156.267,109.64,113.543,-0.000463577,0.0477935,20.9476,587.067,-0.316224,0.0,0.0
1088,271.75,47.6733,49.5539,153.576,109.642,114.517,-0.000544957,0.0477482,20.9487,587.017,-0.393212,0.0,0.0
1105,276,47.6048,49.8839,149.701,109.653,113.493,-0.000506835,0.0476868,20.9495,586.997,-0.311146,0.0,0.0
1122,280.25,47.7808,49.3105,152.316,109.664,114.212,-0.000395867,0.047315,20.9478,586.947,-0.367361,0.0,0.0
1139,284.5,47.6945,49.7443,155.355,109.654,114.313,-0.000545552,0.0468611,20.9487,586.987,-0.376125,0.0,0.0
1156,288.75,47.4956,49.4828,155.199,109.65,114.1,-0.000565385,0.0466334,20.9488,586.957,-0.35964,0.0,0.0
1173,293,47.4478,49.7888,154.073,109.608,114.352,-0.000951806,0.0466185,20.9485,586.947,-0.383039,0.0,0.0
1190,297.25,47.8125,49.4846,152.43,109.615,114.029,-0.00101649,0.0464406,20.9484,586.967,-0.356876,0.0,0.0
1207,301.5,47.815,49.1874,154.714,109.62,113.992,-0.000843668,0.0463844,20.9484,586.947,-0.35355,0.0,0.0
1224,305.75,47.297,49.3909,156.297,109.589,114.381,-0.000757999,0.0463372,20.9481,586.907,-0.386889,0.0,0.0
1241,310,47.4099,49.1171,156.227,109.572,114.533,-0.000845111,0.0463387,20.9499,586.907,-0.400262,0.0,0.0
1258,314.25,47.089,49.4023,153.914,109.595,113.59,-0.000929206,0.0463728,20.9491,586.857,-0.323695,0.0,0.0
1275,318.5,47.3348,49.7824,151.268,109.608,114.196,-0.000705971,0.04626,20.9506,586.867,-0.370643,0.0,0.0
1292,322.75,47.8385,49.7248,154.689,109.61,113.627,-0.000635702,0.0459585,20.9498,586.857,-0.325316,0.0,0.0
1309,327,47.9622,49.2894,153.418,109.619,114.731,-0.000722325,0.0459868,20.949,586.807,-0.412021,0.0,0.0
1326,331.25,47.7514,49.6559,154.181,109.655,114.51,-0.000902624,0.046029,20.949,586.757,-0.391593,0.0,0.0
1343,335.5,47.339,49.3971,152.35,109.712,114.043,-0.000690329,0.046095,20.9509,586.797,-0.35004,0.0,0.0
1360,339.75,48.0499,49.972,153.655,109.789,114.322,-0.000742935,0.045944,20.9508,586.787,-0.365749,0.0,0.0
1377,344,47.9456,49.5712,154.764,109.833,113.821,-0.000784681,0.045876,20.9499,586.797,-0.322427,0.0,0.0
1394,348.25,47.6236,49.6856,154.17,109.862,114.022,-0.000829983,0.0456176,20.9503,586.747,-0.336026,0.0,0.0
1411,352.5,48.0702,49.4153,154.692,109.855,113.177,-0.000906008,0.0456292,20.9513,586.717,-0.269298,0.0,0.0
1428,356.75,47.7643,49.6088,152.064,109.909,113.831,-0.00101303,0.0454545,20.9517,586.727,-0.316956,0.0,0.0
1445,361,47.769,50.0015,153.376,109.914,114.719,-0.00115161,0.0454419,20.9517,586.727,-0.386837,0.0,0.0
1462,365.25,47.6096,49.3736,154.073,109.885,114.547,-0.00116159,0.0451302,20.9502,586.707,-0.375611,0.0,0.0
1479,369.5,47.7799,49.3877,156.558,109.958,114.834,-0.00108864,0.0452824,20.9508,586.707,-0.392198,0.0,0.0
1496,373.75,47.8731,49.4853,154.797,109.982,114.971,-0.000791781,0.0453982,20.9514,586.687,-0.401048,0.0,0.0
1513,378,47.9226,49.3999,154.331,109.959,114.905,-0.000792266,0.0453026,20.9519,586.687,-0.397733,0.0,0.0
1530,382.25,47.5997,49.6918,153.532,109.968,114.081,,,,586.667,-0.331933,0.0,0.0
1547,386.5,47.5687,49.6114,155.397,109.991,114.154,,,,586.627,-0.335805,0.0,0.0
1561,390,47.9274,49.5634,152.231,110.006,114.551,,,,586.627,-0.365946,0.0,0.0

File: Rug_Pad_Cone_HF75Scalar_220920_R1.csv
LABORATORY,FSRI
TEST IDENT,Rug_Pad_HF75_1
OPERATOR,Dow
MATERIAL,Rug Pad
ORIENTATION,Horizontal
HEAT FLUX,75
SURF AREA,0.01
C FACTOR,0.0391624
SPEC HOLDER DIFF,-566
SPECIMEN MASS,7.02
SCAN TIME,0.25
O2 DELAY TIME,11
CO DELAY TIME,11
CO2 DELAY TIME,8
FLOW FACTOR,1
SCAN COUNT,1009
TIME TO IGN,3.25
END OF TEST SCAN,529
END OF TEST TIME,132.25
TEST STATUS,1
PRE TEST CMT,Dimensions: 101.5 x 103 x 4.7 mm; with frame and grid; with calcium silicate substrate

File: Rug_Pad_Cone_HF75Scalar_220920_R2.csv
LABORATORY,FSRI
TEST IDENT,Rug_Pad_HF75_2
OPERATOR,Dow
MATERIAL,Rug Pad
ORIENTATION,Horizontal
HEAT FLUX,75
SURF AREA,0.01
C FACTOR,0.0391624
SPEC HOLDER DIFF,-566
SPECIMEN MASS,7.33
SCAN TIME,0.25
O2 DELAY TIME,11
CO DELAY TIME,11
CO2 DELAY TIME,8
FLOW FACTOR,1
SCAN COUNT,1052
TIME TO IGN,3.25
END OF TEST SCAN,572
END OF TEST TIME,143
TEST STATUS,1
PRE TEST CMT,Dimensions: 102.5 x 101.5 x 4.8 mm; with frame and grid; with calcium silicate substrate

File: Rug_Pad_Cone_HF75Scalar_220920_R3.csv
LABORATORY,FSRI
TEST IDENT,Rug_Pad_HF75_3
OPERATOR,Dow
MATERIAL,Rug Pad
ORIENTATION,Horizontal
HEAT FLUX,75
SURF AREA,0.01
C FACTOR,0.0391624
SPEC HOLDER DIFF,-566
SPECIMEN MASS,7.22
SCAN TIME,0.25
O2 DELAY TIME,11
CO DELAY TIME,11
CO2 DELAY TIME,8
FLOW FACTOR,1
SCAN COUNT,945
TIME TO IGN,3.75
END OF TEST SCAN,465
END OF TEST TIME,116.25
TEST STATUS,1
PRE TEST CMT,Dimensions: 103 x 103 x 4.9 mm; with frame and grid; with calcium silicate substrate