Folder: fsri_materials_database/01_Data/Rug_Pad/Cone (part 5)

File: Rug_Pad_Cone_HF75Scan_220920_R3.csv
Names,Time,Stack TC,Smoke TC,Exh Press,Smoke Comp,Smoke Meas,CO Meter,CO2 Meter,O2 Meter,Sample Mass,Ext Coeff,Start Test,Flame Verif
Chan Gain,,500,500,1,1,1,1,1,1,1,1,1.0,1.0
Offset,,0,0,0.143022,0,0,0,0,0,0,0,0.0,0.0
Gain,,1,1,25.011,14.5176,16.5692,1,1,1,1.00088,1.03055,1.0,1.0
Units,sec,C,C,Pa,%,%,%,%,%,g,/m,,
Baseline,,58.8523,60.9562,151.075,110.704,115.587,-0.000928744,0.0450158,20.953,-448.383,-0.390055,,
10,2.25,57.1311,59.0852,149.131,110.951,115.776,-0.000345312,0.0461407,20.9502,590.931,-0.384794,0.0,0.0
20,4.75,57.1659,59.7517,141.615,110.936,100.997,0.00155686,0.0719647,20.8868,590.711,0.848534,0.0,1.0
30,7.25,59.2074,59.8406,132.916,110.957,91.9784,0.00467433,0.170883,20.7033,590.57,1.69578,0.0,1.0
40,9.75,59.6155,60.7458,139.751,110.943,81.7278,0.00882559,0.280229,20.5411,590.26,2.76281,0.0,0.0
50,12.25,62.3211,62.9029,132.647,110.948,76.4084,0.0123809,0.394538,20.3724,589.92,3.37157,0.0,0.0
60,14.75,65.8121,65.6625,126.665,110.948,68.7063,0.0169563,0.498607,20.2053,589.71,4.33211,0.0,0.0
70,17.25,69.7215,69.3123,124.204,110.951,65.3129,0.0206088,0.60798,20.0587,589.319,4.79025,0.0,0.0
80,19.75,72.666,72.3062,129.98,110.95,66.7353,0.0218935,0.657244,19.9977,588.919,4.59542,0.0,0.0
90,22.25,75.8272,75.3149,129.168,110.948,70.4574,0.0203821,0.63047,20.0601,588.659,4.10461,0.0,0.0
100,24.75,76.7087,76.978,135.098,110.944,79.0545,0.0169437,0.550643,20.1882,588.459,3.06353,0.0,0.0
110,27.25,77.0528,77.6074,142.129,110.939,92.0947,0.0123666,0.453662,20.3664,588.359,1.68291,0.0,0.0
120,29.75,76.245,77.8781,142.667,110.958,104.431,0.00804235,0.357363,20.5157,588.158,0.548022,0.0,0.0
130,32.25,75.9354,78.532,148.147,110.948,110.431,0.00500448,0.28461,20.6327,588.088,0.0422567,0.0,0.0
140,34.75,75.2766,77.8945,141.744,110.95,112.743,0.00376232,0.235417,20.7007,588.058,-0.144975,0.0,0.0
150,37.25,74.8153,77.0115,144.991,110.945,111.929,0.0031508,0.209344,20.7408,588.028,-0.0798596,0.0,0.0
160,39.75,73.8151,77.4721,146.835,110.948,112.894,0.00264711,0.191392,20.7672,587.958,-0.157229,0.0,0.0
170,42.25,73.4638,76.7079,144.178,110.934,113.192,0.00212779,0.180546,20.7811,587.748,-0.182206,0.0,0.0
180,44.75,72.2658,76.6407,145.48,110.945,113.735,0.00178083,0.174827,20.7877,587.718,-0.224453,0.0,0.0
190,47.25,72.2802,75.8014,141.413,110.925,112.224,0.00160492,0.171803,20.7913,587.658,-0.105262,0.0,0.0
200,49.75,72.2402,75.6232,148.752,110.936,111.738,0.00153545,0.170374,20.7917,587.648,-0.0651671,0.0,0.0
210,52.25,71.4433,75.5227,147.997,110.913,111.084,0.00165104,0.169879,20.7897,587.558,-0.0138815,0.0,0.0
220,54.75,70.9514,74.9068,148.334,110.914,111.911,0.00171269,0.166353,20.7942,587.538,-0.0808751,0.0,0.0
230,57.25,70.7806,74.8482,145.075,110.9,110.575,0.00165273,0.162553,20.7966,587.458,0.0265324,0.0,0.0
240,59.75,70.8881,74.6374,147.53,110.907,109.995,0.00131806,0.160105,20.7984,587.468,0.0746506,0.0,0.0
250,62.25,70.1442,74.5182,142.033,110.907,110.63,0.000787968,0.157331,20.8019,587.368,0.0226,0.0,0.0
260,64.75,69.7966,74.1273,144.282,110.894,111.56,0.000540695,0.15284,20.8074,587.298,-0.0541506,0.0,0.0
270,67.25,69.4221,74.3474,140.985,110.888,112.942,0.000545769,0.147117,20.8151,587.1875,-0.165913,0.0,0.0
280,69.75,69.1702,73.9813,145.797,110.863,112.379,0.000597118,0.142189,20.8238,587.148,-0.12285,0.0,0.0
290,72.25,69.4621,73.4046,145.297,110.858,114.614,0.000601338,0.136833,20.8323,587.107,-0.301267,0.0,0.0
300,74.75,68.7127,73.3807,148.517,110.842,113.838,0.000609355,0.131215,20.8401,587.027,-0.241064,0.0,0.0
310,77.25,68.7022,72.7673,144.385,110.812,114.897,0.000660154,0.125599,20.8482,586.987,-0.327215,0.0,0.0
320,79.75,67.9746,72.7435,147.979,110.782,115.229,0.000701006,0.119376,20.8561,586.977,-0.355773,0.0,0.0
330,82.25,67.9529,72.7101,147.787,110.77,115.476,0.000693189,0.113365,20.864,586.907,-0.376091,0.0,0.0
340,84.75,67.6449,72.2347,142.365,110.741,116.495,0.000633853,0.107771,20.8728,586.937,-0.457891,0.0,0.0
350,87.25,67.1111,71.2643,145.819,110.725,115.921,0.000507662,0.102286,20.8806,586.927,-0.414587,0.0,0.0
360,89.75,67.0609,71.6157,144.398,110.694,116.48,0.000468151,0.0977547,20.8871,586.847,-0.460587,0.0,0.0
370,92.25,66.3458,70.8597,150.414,110.672,115.303,0.000634249,0.0939882,20.892,586.867,-0.370537,0.0,0.0
380,94.75,66.1646,71.0392,149.327,110.656,116.19,0.000660513,0.0898966,20.8981,586.827,-0.441145,0.0,0.0
390,97.25,66.431,70.8858,145.417,110.637,117.021,0.000549904,0.0856647,20.9031,586.787,-0.507145,0.0,0.0
400,99.75,65.4056,70.3197,143.54,110.612,115.679,0.000417574,0.081409,20.9079,586.757,-0.404867,0.0,0.0
410,102.25,65.2014,70.0909,150.172,110.595,116.043,0.000303511,0.0774764,20.9137,586.767,-0.434685,0.0,0.0
420,104.75,65.0187,69.0788,147.999,110.581,114.98,0.00025728,0.0741199,20.9177,586.757,-0.352667,0.0,0.0
430,107.25,64.7546,68.8997,149.817,110.567,115.065,0.000238585,0.0718324,20.92,586.717,-0.360539,0.0,0.0
440,109.75,64.2729,69.0121,145.855,110.573,115.953,6.72782e-05,0.0697826,20.9224,586.707,-0.429446,0.0,0.0
450,112.25,63.9454,68.2215,151.375,110.555,116.023,-7.06171e-05,0.0679447,20.9241,586.727,-0.436405,0.0,0.0
460,114.75,63.9452,68.2746,150.932,110.544,115.825,-7.49735e-05,0.0667313,20.9253,586.637,-0.421861,0.0,0.0
470,117.25,62.3362,66.475,148.204,110.495,114.987,-0.000148321,0.0655255,20.9279,586.657,-0.360213,0.0,0.0
480,119.75,61.7491,66.3053,155.033,110.5,116.065,-0.000267818,0.0643732,20.9297,586.617,-0.444133,0.0,0.0
490,122.25,61.5973,65.3522,150.517,110.484,115.948,-0.000172679,0.0635453,20.9318,586.647,-0.436376,0.0,0.0
500,124.75,61.7761,65.5705,146.784,110.484,116.232,-7.51071e-05,0.0627333,20.9331,586.627,-0.458501,0.0,0.0
510,127.25,61.1813,65.2303,149.206,110.477,115.943,-9.56756e-05,0.0621862,20.9336,586.557,-0.436561,0.0,0.0
520,129.75,61.4822,65.2715,148.04,110.486,115.171,-0.000160144,0.0618225,20.933,586.517,-0.375432,0.0,0.0
530,132.25,60.877,65.1106,148.544,110.476,116.086,-0.000203031,0.0610811,20.9323,586.537,-0.447744,0.0,0.0
540,134.75,60.6358,64.5194,144.981,110.472,116.084,-0.00026003,0.0603078,20.9331,586.507,-0.447989,0.0,0.0
550,137.25,60.5724,64.3051,150.417,110.452,115.754,-0.000475512,0.0595978,20.934,586.527,-0.423834,0.0,0.0
560,139.75,60.3093,64.4561,149.838,110.46,116.073,-0.00064726,0.0590933,20.9356,586.547,-0.448101,0.0,0.0
570,142.25,60.4206,64.4486,149.421,110.489,115.43,-0.000611647,0.0586407,20.9361,586.527,-0.395553,0.0,0.0
580,144.75,60.4246,63.8483,152.189,110.466,115.178,-0.00050273,0.0579982,20.9371,586.477,-0.377619,0.0,0.0
590,147.25,60.358,63.6515,152.278,110.47,116.201,-0.000530401,0.0574746,20.9376,586.497,-0.457225,0.0,0.0
600,149.75,59.7634,63.626,148.62,110.488,116.072,-0.000662236,0.0569876,20.9368,586.437,-0.445662,0.0,0.0
610,152.25,59.5065,63.5951,148.212,110.52,116.66,-0.000708228,0.0568292,20.9382,586.427,-0.488774,0.0,0.0
620,154.75,59.4803,62.9553,150.43,110.512,115.132,-0.000476586,0.056268,20.9401,586.397,-0.370237,0.0,0.0
630,157.25,59.6353,62.9763,148.038,110.544,116.522,-0.000118854,0.0559298,20.9408,586.407,-0.476081,0.0,0.0
640,159.75,59.8508,62.7585,147.271,110.554,115.776,-7.87025e-06,0.0557156,20.941,586.397,-0.417235,0.0,0.0
650,162.25,59.6549,63.1693,151.584,110.571,116.566,-6.37691e-05,0.0552891,20.9423,586.327,-0.477356,0.0,0.0
660,164.75,59.0706,63.0374,150.987,110.577,116.07,-0.000183296,0.0549262,20.9426,586.337,-0.438258,0.0,0.0
670,167.25,59.2031,62.4149,149.374,110.566,116.428,-0.000384431,0.054616,20.9426,586.267,-0.466968,0.0,0.0
680,169.75,59.2582,62.5811,152.8,110.569,115.698,-0.000437524,0.0544784,20.9426,586.197,-0.409918,0.0,0.0
690,172.25,58.9262,62.6861,147.595,110.594,115.874,-0.000441998,0.0544651,20.9426,586.327,-0.421592,0.0,0.0
700,174.75,58.9648,62.1787,149.55,110.606,116.414,-0.00060852,0.0543173,20.9431,586.297,-0.462723,0.0,0.0
710,177.25,59.3854,62.5168,143.696,110.626,115.857,-0.000742531,0.0544351,20.9436,586.287,-0.417608,0.0,0.0
720,179.75,59.1719,62.5189,145.945,110.649,115.508,-0.000692946,0.0543935,20.9438,586.257,-0.388461,0.0,0.0
730,182.25,59.4061,62.2126,147.671,110.67,117.236,-0.000613015,0.0540757,20.9439,586.247,-0.52098,0.0,0.0
740,184.75,58.515,61.8844,146.559,110.673,115.86,-0.000648406,0.0536368,20.9451,586.247,-0.414008,0.0,0.0
750,187.25,59.092,61.9541,148.308,110.663,116.899,-0.000758738,0.0535421,20.9459,586.197,-0.495555,0.0,0.0
760,189.75,58.9332,61.8892,148.463,110.687,115.417,-0.000704733,0.0536502,20.9452,586.197,-0.378258,0.0,0.0
770,192.25,58.8096,61.6931,149.993,110.68,115.993,-0.000568911,0.0536072,20.9451,586.217,-0.423874,0.0,0.0
780,194.75,58.7242,62.2103,148.044,110.703,116.356,-0.000603255,0.0535755,20.9453,586.157,-0.450241,0.0,0.0
790,197.25,58.6886,61.8068,147.814,110.695,116.35,-0.00057675,0.0533743,20.9459,586.177,-0.450424,0.0,0.0
800,199.75,58.9985,61.9676,149.283,110.68,116.649,-0.000390544,0.0531521,20.9439,586.107,-0.474879,0.0,0.0
810,202.25,58.923,62.0986,147.538,110.702,115.835,-0.00038046,0.0529679,20.9431,586.127,-0.409759,0.0,0.0
820,204.75,58.9615,62.1651,149.728,110.7,115.408,-0.000447051,0.0527782,20.9443,586.037,-0.376536,0.0,0.0
830,207.25,58.8804,62.0413,147.185,110.701,116.495,-0.000428791,0.0525725,20.9447,586.067,-0.461146,0.0,0.0
840,209.75,58.8864,61.8306,146.973,110.702,116.717,-0.000448011,0.0525508,20.9449,586.087,-0.478358,0.0,0.0
850,212.25,58.8107,61.5281,147.983,110.694,115.601,-0.000450081,0.0527086,20.9449,586.016,-0.39216,0.0,0.0
860,214.75,58.7723,61.65,148.954,110.691,115.423,-0.000546536,0.0525392,20.9449,586.026,-0.378408,0.0,0.0
870,217.25,59.0031,61.4857,150.507,110.722,116.505,-0.000666579,0.0523686,20.9449,585.996,-0.460306,0.0,0.0
880,219.75,59.2735,61.4942,151.761,110.694,115.89,-0.000729349,0.0520829,20.9449,585.996,-0.414673,0.0,0.0
890,222.25,59.2124,62.0847,147.231,110.678,116.386,-0.000782876,0.0518786,20.9452,586.047,-0.454624,0.0,0.0
900,224.75,58.9628,61.9676,147.873,110.681,115.721,-0.00073782,0.0518714,20.9447,585.977,-0.402536,0.0,0.0
910,227.25,59.547,61.7124,151.643,110.703,116.334,,0.0519347,,585.946,-0.448552,0.0,0.0
920,229.75,59.3355,61.4671,147.573,110.685,116.509,,,,585.966,-0.463508,0.0,0.0
930,232.25,58.971,61.9179,148.305,110.694,116.592,,,,585.946,-0.469294,0.0,0.0
940,234.75,58.8689,61.6291,150.319,110.687,115.175,,,,585.956,-0.359268,0.0,0.0
945,236,58.8354,61.8198,149.537,110.685,115.286,,,,585.966,-0.368176,0.0,0.0