Folder: fsri_materials_database/01_Data/Rug_Pad/Cone (part 4)

File: Rug_Pad_Cone_HF75Scan_220920_R1.csv
Names,Time,Stack TC,Smoke TC,Exh Press,Smoke Comp,Smoke Meas,CO Meter,CO2 Meter,O2 Meter,Sample Mass,Ext Coeff,Start Test,Flame Verif
Chan Gain,,500,500,1,1,1,1,1,1,1,1,1.0,1.0
Offset,,0,0,0.143022,0,0,0,0,0,0,0,0.0,0.0
Gain,,1,1,25.011,14.5176,16.5692,1,1,1,1.00088,1.03055,1.0,1.0
Units,sec,C,C,Pa,%,%,%,%,%,g,/m,,
Baseline,,55.4068,57.4821,152.189,108.892,113.587,-0.000861286,0.043806,20.9477,-447.909,-0.38148,,
11,2.5,54.2661,56.5245,149.269,109.044,112.645,-0.000349111,0.0451751,20.944,598.718,-0.293707,0.0,0.0
22,5.25,55.2711,56.0123,140.846,109.082,96.4413,0.00144386,0.0910608,20.8767,598.477,1.11344,0.0,1.0
33,8,55.355,56.2354,137.784,109.061,89.258,0.00483595,0.182865,20.7163,598.227,1.81136,0.0,0.0
44,10.75,58.3485,58.7385,132.328,109.08,79.998,0.00949455,0.301919,20.4785,597.957,2.80307,0.0,0.0
55,13.5,61.4391,61.4733,131.282,109.098,71.3165,0.0150775,0.44235,20.2646,597.597,3.84307,0.0,0.0
66,16.25,66.3342,65.3854,118.001,109.111,65.5,0.0202784,0.587217,20.0428,597.156,4.61322,0.0,0.0
77,19,71.2364,70.0884,117.585,109.127,66.4703,0.0224062,0.685266,19.9211,596.746,4.48157,0.0,0.0
88,21.75,74.5828,73.7271,132.474,109.134,74.5066,0.0209527,0.67596,19.9455,596.436,3.45041,0.0,0.0
99,24.5,75.5385,75.5267,137.272,109.146,87.7051,0.0167367,0.574559,20.1281,596.165,1.97706,0.0,0.0
110,27.25,75.452,75.9583,145.765,109.162,96.2248,0.0118922,0.447659,20.3494,596.015,1.14032,0.0,0.0
121,30,74.5403,76.5627,148.994,109.192,106.123,0.00720961,0.346501,20.5326,595.955,0.257663,0.0,0.0
132,32.75,73.5327,76.0637,144.481,109.202,110.424,0.00438087,0.269341,20.6583,595.895,-0.100564,0.0,0.0
143,35.5,72.5252,75.3549,145.855,109.213,112.873,0.00292534,0.220781,20.7261,595.805,-0.298007,0.0,0.0
154,38.25,71.6763,74.8916,147.295,109.218,113.427,0.0022608,0.188767,20.7725,595.725,-0.341803,0.0,0.0
165,41,71.1842,74.4886,146.516,109.224,112.441,0.00198542,0.167118,20.8017,595.675,-0.262403,0.0,0.0
176,43.75,70.0484,73.542,148.364,109.24,113.654,0.00186278,0.153326,20.8188,595.645,-0.358083,0.0,0.0
187,46.5,69.3575,73.3315,145.211,109.233,114.233,0.00187889,0.144698,20.8263,595.585,-0.40457,0.0,0.0
198,49.25,68.7103,72.3231,147.687,109.26,114.041,0.00188909,0.138316,20.8344,595.565,-0.387229,0.0,0.0
209,52,67.9716,72.4545,147.957,109.272,113.253,0.00190439,0.133188,20.8405,595.495,-0.323457,0.0,0.0
220,54.75,67.0433,71.6011,142.166,109.298,114.265,0.00190876,0.130068,20.844,595.445,-0.401776,0.0,0.0
231,57.5,67.1098,71.2484,150.687,109.302,113.297,0.00188631,0.127526,20.8451,595.385,-0.324512,0.0,0.0
242,60.25,66.4832,70.8597,148.832,109.307,113.231,0.00189962,0.125453,20.8462,595.335,-0.318826,0.0,0.0
253,63,66.144,70.4166,149.818,109.307,112.568,0.00188591,0.124292,20.8455,595.295,-0.26571,0.0,0.0
264,65.75,65.3967,69.8044,149.103,109.334,113.848,0.00176532,0.122467,20.8474,595.245,-0.365749,0.0,0.0
275,68.5,65.502,69.9077,151.36,109.328,112.758,0.00172715,0.120261,20.8494,595.195,-0.279203,0.0,0.0
286,71.25,65.1576,69.3546,148.701,109.34,113.68,0.00158907,0.118231,20.8528,595.155,-0.351896,0.0,0.0
297,74,64.8896,68.8777,149.304,109.361,112.489,0.00135903,0.116466,20.8545,595.084,-0.254937,0.0,0.0
308,76.75,64.4277,68.7775,150.104,109.382,112.21,0.00134409,0.11451,20.8562,595.055,-0.230765,0.0,0.0
319,79.5,64.0279,68.5711,143.201,109.39,113.648,0.00117987,0.112909,20.8583,594.974,-0.345143,0.0,0.0
330,82.25,64.0523,68.5245,148.828,109.4,113.468,0.00106572,0.110983,20.8611,594.944,-0.330007,0.0,0.0
341,85,63.8674,68.42,149.367,109.379,114.142,0.00110492,0.108725,20.8637,594.954,-0.38527,0.0,0.0
352,87.75,63.3965,67.7584,147.303,109.403,114.089,0.000992737,0.106886,20.8663,594.914,-0.379167,0.0,0.0
363,90.5,63.3947,67.9546,149.1,109.405,114.701,0.00101256,0.104539,20.8709,594.864,-0.42733,0.0,0.0
374,93.25,63.087,67.6526,149.009,109.432,113.422,0.000963022,0.10169,20.8758,594.814,-0.323705,0.0,0.0
385,96,62.9187,67.3518,149.469,109.428,115.045,0.000877291,0.0986518,20.8801,594.744,-0.452449,0.0,0.0
396,98.75,62.4474,66.898,148.277,109.418,114.153,0.000902728,0.096242,20.8846,594.714,-0.382969,0.0,0.0
407,101.5,62.4769,67.1921,148.04,109.418,113.831,0.000899059,0.0934565,20.8886,594.684,-0.357386,0.0,0.0
418,104.25,62.2463,66.3603,147.438,109.42,114.559,0.000900039,0.0902731,20.8931,594.654,-0.414957,0.0,0.0
429,107,61.3148,66.5329,149.356,109.422,114.977,0.00089018,0.0866523,20.8999,594.634,-0.447675,0.0,0.0
440,109.75,62.0574,65.9545,151.996,109.4,114.637,0.000845748,0.0834882,20.9024,594.594,-0.422709,0.0,0.0
451,112.5,61.6339,65.8518,148.182,109.399,115.352,0.000854845,0.0805304,20.9073,594.564,-0.478987,0.0,0.0
462,115.25,61.9553,65.5742,148.705,109.376,113.759,0.000947446,0.0777194,20.9089,594.544,-0.35516,0.0,0.0
473,118,61.1641,65.4844,150.296,109.359,114.419,0.000998474,0.0753471,20.9116,594.504,-0.408877,0.0,0.0
484,120.75,61.751,64.9129,150.824,109.366,113.217,0.000875202,0.0728967,20.9158,594.484,-0.312787,0.0,0.0
495,123.5,60.8072,65.1761,149.202,109.306,114.321,0.000770285,0.0705699,20.9185,594.404,-0.405519,0.0,0.0
506,126.25,60.7881,64.8357,149.674,109.282,113.959,0.000946049,0.0682825,20.9217,594.414,-0.37882,0.0,0.0
517,129,60.604,64.6417,154.089,109.274,114.593,0.00114746,0.0663127,20.9244,594.364,-0.42964,0.0,0.0
528,131.75,60.2926,64.2869,149.353,109.248,114.162,0.00112325,0.0644623,20.9262,594.364,-0.397756,0.0,0.0
539,134.5,58.5992,62.7169,147.574,109.229,113.756,0.00113952,0.0628432,20.9286,594.384,-0.367083,0.0,0.0
550,137.25,58.5496,62.0761,148.567,109.212,114.207,0.00104332,0.0612674,20.9302,594.324,-0.404289,0.0,0.0
561,140,58.396,62.006,144.736,109.213,114.275,0.000892011,0.0600418,20.9314,594.284,-0.409614,0.0,0.0
572,142.75,58.2943,61.6301,147.526,109.185,114.16,0.000793444,0.0592532,20.9318,594.264,-0.402803,0.0,0.0
583,145.5,57.9612,61.3082,149.192,109.19,113.735,0.000968838,0.0589101,20.9327,594.254,-0.368663,0.0,0.0
594,148.25,57.4386,61.4118,150.327,109.161,115.176,0.00114217,0.0583508,20.9338,594.224,-0.48487,0.0,0.0
605,151,58.0833,61.0666,150.22,109.189,113.941,0.00100609,0.0576485,20.9341,594.164,-0.385156,0.0,0.0
616,153.75,57.2968,60.8224,149.647,109.199,114.435,0.000798074,0.0573101,20.9342,594.194,-0.423346,0.0,0.0
627,156.5,57.778,61.0352,150.308,109.216,114.637,0.000598116,0.0567474,20.9342,594.214,-0.437876,0.0,0.0
638,159.25,57.6704,60.3325,147.791,109.216,115.023,0.000518938,0.0563002,20.9343,594.184,-0.468365,0.0,0.0
649,162,57.3272,60.9744,149.858,109.21,114.279,0.000544248,0.0559074,20.9365,594.154,-0.410117,0.0,0.0
660,164.75,57.1755,60.6822,152.036,109.203,112.936,0.000623801,0.0553953,20.9369,594.094,-0.303834,0.0,0.0
671,167.5,56.9719,60.2387,148.302,109.2,113.782,0.000775158,0.0550082,20.937,594.094,-0.371552,0.0,0.0
682,170.25,56.7446,60.6264,146.216,109.229,113.729,0.000875298,0.0547725,20.937,594.104,-0.364957,0.0,0.0
693,173,56.9164,60.0956,146.938,109.252,114.528,0.000899546,0.0543878,20.9379,594.034,-0.426329,0.0,0.0
704,175.75,56.8165,60.3628,147.769,109.276,115.291,0.000930039,0.053881,20.9395,594.044,-0.484413,0.0,0.0
715,178.5,56.3721,60.1959,148.291,109.261,114.43,0.00082237,0.053418,20.94,594.024,-0.417849,0.0,0.0
726,181.25,56.5499,59.7449,152.484,109.27,114.389,0.000685984,0.0532406,20.9402,594.004,-0.41392,0.0,0.0
737,184,57.0573,59.541,147.393,109.294,113.884,0.000540568,0.0532739,20.9407,594.024,-0.371892,0.0,0.0
748,186.75,56.4261,59.9468,147.286,109.253,114.205,0.000345537,0.0530168,20.9407,593.943,-0.400756,0.0,0.0
759,189.5,56.2833,59.7822,147.075,109.238,113.826,0.000239438,0.0527879,20.9407,593.883,-0.371857,0.0,0.0
770,192.25,56.8802,59.2975,145.752,109.254,113.23,0.000415971,0.0526594,20.9409,593.883,-0.323147,0.0,0.0
781,195,56.541,59.6307,148.591,109.24,115.053,0.000545255,0.0525286,20.9425,593.843,-0.468653,0.0,0.0
792,197.75,56.4528,59.4269,148.692,109.238,113.701,0.000380634,0.052455,20.9435,593.803,-0.361932,0.0,0.0
803,200.5,56.3428,59.981,147.661,109.222,114.558,0.000279248,0.0523323,20.9438,593.773,-0.431217,0.0,0.0
814,203.25,56.6339,59.7278,146.999,109.231,114.023,0.000402213,0.0521183,20.9439,593.763,-0.388168,0.0,0.0
825,206,56.3602,59.37,149.661,109.233,114.038,0.000480789,0.0520012,20.9439,593.773,-0.389184,0.0,0.0
836,208.75,56.7547,59.6655,147.85,109.239,114.477,0.000571995,0.0521077,20.9435,593.673,-0.423437,0.0,0.0
847,211.5,57.0158,59.1237,154.61,109.224,113.699,0.000542695,0.0518791,20.9433,593.683,-0.362981,0.0,0.0
858,214.25,56.6759,59.4635,148.354,109.198,114.316,0.000439775,0.0516984,20.9433,593.713,-0.414024,0.0,0.0
869,217,56.4364,58.862,149.559,109.198,114.378,0.000431754,0.0515793,20.9432,593.703,-0.418981,0.0,0.0
880,219.75,56.7554,59.0555,148.458,109.2,113.695,0.000386372,0.0515091,20.9432,593.673,-0.364644,0.0,0.0
891,222.5,56.7837,59.4315,148.658,109.197,114.698,0.000308094,0.0514686,20.9432,593.653,-0.444313,0.0,0.0
902,225.25,56.9706,59.4144,149.476,109.178,113.993,0.000299801,0.0514186,20.9432,593.653,-0.390128,0.0,0.0
913,228,56.7864,59.2753,151.827,109.171,114.092,0.000283198,0.0514303,20.9432,593.633,-0.398607,0.0,0.0
924,230.75,56.875,59.2893,151.472,109.151,113.947,0.00025486,0.0514431,20.9445,593.553,-0.388752,0.0,0.0
935,233.5,56.8709,59.1976,150.769,109.167,114.375,0.000285609,0.0511844,20.9454,593.613,-0.421269,0.0,0.0
946,236.25,56.5635,58.6662,148.812,109.208,112.872,0.000310067,0.0511804,20.9457,593.573,-0.298333,0.0,0.0
957,239,56.12,59.1246,149.52,109.189,115.062,0.000288472,0.05116,20.9452,593.533,-0.473585,0.0,0.0
968,241.75,56.6048,59.1283,151.475,109.21,113.999,,0.0509736,,593.533,-0.388008,0.0,0.0
979,244.5,56.4474,59.411,147.096,109.194,114.057,,,,593.513,-0.393898,0.0,0.0
990,247.25,56.6188,59.1821,151.561,109.198,114.821,,,,593.483,-0.453846,0.0,0.0
1001,250,56.5814,59.1539,149.838,109.223,114.143,,,,593.453,-0.398248,0.0,0.0
1009,252,56.9355,59.0123,148.522,109.244,113.989,,,,593.443,-0.384382,0.0,0.0

File: Rug_Pad_Cone_HF75Scan_220920_R2.csv
Names,Time,Stack TC,Smoke TC,Exh Press,Smoke Comp,Smoke Meas,CO Meter,CO2 Meter,O2 Meter,Sample Mass,Ext Coeff,Start Test,Flame Verif
Chan Gain,,500,500,1,1,1,1,1,1,1,1,1.0,1.0
Offset,,0,0,0.143022,0,0,0,0,0,0,0,0.0,0.0
Gain,,1,1,25.011,14.5176,16.5692,1,1,1,1.00088,1.03055,1.0,1.0
Units,sec,C,C,Pa,%,%,%,%,%,g,/m,,
Baseline,,57.5973,59.6691,151.482,109.347,113.961,-0.00102751,0.0434148,20.9502,-448.099,-0.373539,,
11,2.5,56.2454,58.2052,146.981,109.243,111.807,-0.000599971,0.0455974,20.9501,590.07,-0.209781,0.0,0.0
22,5.25,56.9622,58.0425,140.469,109.237,95.0275,0.00139084,0.0854775,20.9022,589.94,1.25978,0.0,1.0
33,8,56.9057,58.2857,134.791,109.232,92.2246,0.00477153,0.182264,20.7101,589.74,1.52999,0.0,0.0
44,10.75,60.0151,60.3645,131.723,109.247,81.6186,0.00933618,0.306284,20.5213,589.44,2.63564,0.0,0.0
55,13.5,63.6215,63.1499,120.098,109.279,67.469,0.0148026,0.447313,20.2655,589.109,4.35934,0.0,0.0
66,16.25,69.0729,67.2193,118.229,109.293,65.6694,0.0192395,0.602482,20.0116,588.609,4.60491,0.0,0.0
77,19,73.5246,72.3838,120.224,109.286,64.3188,0.0220473,0.708159,19.8892,588.228,4.79222,0.0,0.0
88,21.75,76.7403,75.6572,121.701,109.283,67.5474,0.0217174,0.72117,19.9022,587.828,4.34921,0.0,0.0
99,24.5,78.7329,78.6903,134.695,109.289,79.0246,0.0187177,0.637776,20.0521,587.668,2.93105,0.0,0.0
110,27.25,78.5546,79.5321,137.63,109.305,91.7377,0.0144,0.502102,20.2456,587.478,1.58385,0.0,0.0
121,30,77.7767,79.7129,148.285,109.313,103.054,0.00909586,0.388857,20.4442,587.358,0.533015,0.0,0.0
132,32.75,76.6901,79.0945,144.14,109.313,111.273,0.00538418,0.292773,20.602,587.268,-0.160673,0.0,0.0
143,35.5,75.6114,78.6403,145.365,109.315,112.654,0.00341878,0.23116,20.7069,587.228,-0.271991,0.0,0.0
154,38.25,74.6537,78.2485,143.601,109.33,113.624,0.00269685,0.190041,20.7715,587.117,-0.348311,0.0,0.0
165,41,74.0082,77.2555,146.992,109.306,114.321,0.0026626,0.165273,20.806,587.087,-0.405555,0.0,0.0
176,43.75,72.7021,76.4782,152.581,109.3,114.285,0.00261591,0.148952,20.826,587.007,-0.403115,0.0,0.0
187,46.5,71.8075,75.6796,148.267,109.304,113.865,0.00254072,0.137524,20.8388,586.967,-0.369604,0.0,0.0
198,49.25,71.0193,75.2492,147.758,109.314,113.516,0.00255724,0.13087,20.8464,586.897,-0.340979,0.0,0.0
209,52,70.0956,74.7607,148.091,109.321,113.213,0.00243503,0.12839,20.8485,586.857,-0.316237,0.0,0.0
220,54.75,69.0653,74.2087,146.397,109.334,113.579,0.00217261,0.125805,20.8494,586.847,-0.344399,0.0,0.0
231,57.5,68.9345,73.8223,147.902,109.321,113.105,0.00216613,0.123429,20.8502,586.807,-0.307596,0.0,0.0
242,60.25,68.6859,73.1985,146.128,109.307,112.857,0.00199188,0.121809,20.8504,586.697,-0.288867,0.0,0.0
253,63,68.2605,72.8816,148.378,109.303,112.761,0.0014204,0.120809,20.8505,586.717,-0.281575,0.0,0.0
264,65.75,67.6679,72.372,147.503,109.319,112.728,0.000982581,0.119544,20.8505,586.647,-0.277584,0.0,0.0
275,68.5,67.1629,71.9007,147.3,109.334,112.77,0.000906739,0.11851,20.8505,586.577,-0.279777,0.0,0.0
286,71.25,66.656,71.5681,146.725,109.36,113.101,0.000792282,0.117733,20.8508,586.587,-0.304086,0.0,0.0
297,74,66.4545,70.9289,145.715,109.375,112.657,0.00062807,0.115827,20.8522,586.497,-0.267286,0.0,0.0
308,76.75,65.872,70.7024,146.603,109.435,113.45,0.000584276,0.113203,20.8566,586.457,-0.325706,0.0,0.0
319,79.5,66.0277,70.7292,147.533,109.48,112.775,0.000367819,0.111469,20.8613,586.437,-0.268066,0.0,0.0
330,82.25,65.654,70.3125,147.541,109.508,112.836,-1.44375e-05,0.110093,20.8628,586.327,-0.270663,0.0,0.0
341,85,65.8418,70.0789,147.49,109.55,113.145,-1.50782e-05,0.108333,20.8641,586.327,-0.291945,0.0,0.0
352,87.75,65.2636,69.5038,146.761,109.606,113.603,0.000241248,0.106716,20.8668,586.237,-0.323714,0.0,0.0
363,90.5,64.8574,69.5094,146.31,109.654,113.821,0.000438298,0.104564,20.8707,586.217,-0.33717,0.0,0.0
374,93.25,65.1742,69.2566,143.088,109.686,113.121,0.000499271,0.101842,20.8747,586.167,-0.278711,0.0,0.0
385,96,64.8214,68.9077,151.346,109.727,113.933,0.000486351,0.0990808,20.8782,586.157,-0.340094,0.0,0.0
396,98.75,64.5921,69.0145,148.837,109.773,113.958,0.000558949,0.0969387,20.881,586.087,-0.338227,0.0,0.0
407,101.5,64.2048,68.4849,147.928,109.83,114.32,0.000587481,0.0940516,20.886,586.026,-0.362233,0.0,0.0
418,104.25,63.8626,68.2473,145.701,109.886,113.95,0.000607075,0.0913152,20.8914,586.067,-0.328286,0.0,0.0
429,107,63.7841,67.5186,150.514,109.919,114.738,0.000608826,0.089151,20.8942,585.996,-0.387877,0.0,0.0
440,109.75,63.2052,67.3583,150.881,109.952,114.068,0.00063315,0.0866593,20.8986,585.966,-0.3322,0.0,0.0
451,112.5,63.3269,67.3125,148.137,109.975,114.79,0.000864462,0.0843423,20.9022,585.977,-0.38735,0.0,0.0
462,115.25,63.1022,66.8252,154.694,110.019,115.393,0.0010307,0.0818935,20.9048,585.966,-0.431127,0.0,0.0
473,118,62.669,66.9807,148.875,110.035,113.974,0.000884608,0.0785559,20.9098,585.896,-0.317974,0.0,0.0
484,120.75,62.6964,66.3186,150.419,110.041,115.047,0.00074899,0.0757721,20.9136,585.896,-0.402168,0.0,0.0
495,123.5,62.1726,66.0417,149.107,110.077,114.913,0.000802043,0.0734827,20.9168,585.856,-0.388612,0.0,0.0
506,126.25,61.8889,66.2342,147.8,110.085,116.117,0.000908052,0.0712533,20.9198,585.836,-0.482177,0.0,0.0
517,129,61.67,65.7968,147.523,110.103,116.135,0.00104091,0.0696169,20.9221,585.776,-0.482139,0.0,0.0
528,131.75,61.5465,65.6248,148.95,110.101,115.355,0.00119815,0.0674211,20.9256,585.726,-0.421423,0.0,0.0
539,134.5,61.5126,65.2846,147.84,110.108,115.3,0.00126706,0.0650341,20.9288,585.726,-0.416558,0.0,0.0
550,137.25,61.386,65.2812,145.189,110.122,115.794,0.00133999,0.0632159,20.9309,585.736,-0.454004,0.0,0.0
561,140,61.4164,64.6715,148.428,110.139,115.176,0.00128471,0.0619852,20.933,585.756,-0.404181,0.0,0.0
572,142.75,61.1037,64.8945,146.305,110.151,115.401,0.00098865,0.060898,20.9345,585.696,-0.420916,0.0,0.0
583,145.5,59.7869,63.0231,149.22,110.157,115.322,0.000750224,0.0600277,20.9345,585.616,-0.414226,0.0,0.0
594,148.25,58.8955,62.5446,151.619,110.143,114.961,0.000732674,0.0596819,20.9345,585.646,-0.387048,0.0,0.0
605,151,59.3391,62.7469,143.798,110.157,114.513,0.000809056,0.0593002,20.9345,585.656,-0.350546,0.0,0.0
616,153.75,59.3487,62.7032,147.864,110.164,114.928,0.000810987,0.0586544,20.9345,585.616,-0.382717,0.0,0.0
627,156.5,58.9859,62.4214,147.213,110.171,114.649,0.00066501,0.0580479,20.9352,585.596,-0.360151,0.0,0.0
638,159.25,59.0862,62.6815,150.639,110.19,114.753,0.000534893,0.0574963,20.9363,585.546,-0.366761,0.0,0.0
649,162,58.9157,62.1127,152.518,110.173,114.75,0.000581451,0.0570256,20.9367,585.536,-0.367976,0.0,0.0
660,164.75,58.5055,62.0743,149.319,110.19,115.578,0.000691591,0.0566282,20.9368,585.506,-0.431536,0.0,0.0
671,167.5,58.3043,61.9002,151.867,110.194,115.032,0.000797924,0.056137,20.9376,585.486,-0.388468,0.0,0.0
682,170.25,58.7139,61.4692,151.778,110.198,116.034,0.00064275,0.0557155,20.9385,585.446,-0.466486,0.0,0.0
693,173,58.6442,61.379,149.463,110.201,114.798,0.000451255,0.0553169,20.9395,585.416,-0.369472,0.0,0.0
704,175.75,58.0971,61.437,151.517,110.226,114.712,0.000474672,0.0552842,20.9406,585.446,-0.360629,0.0,0.0
715,178.5,57.9967,61.4496,150.635,110.22,115.259,0.00044436,0.0551185,20.941,585.436,-0.404112,0.0,0.0
726,181.25,58.4206,61.3486,148.08,110.24,115.221,0.000488887,0.0546113,20.9419,585.376,-0.399501,0.0,0.0
737,184,57.9884,61.296,150.974,110.225,114.797,0.000714913,0.0543216,20.943,585.346,-0.367395,0.0,0.0
748,186.75,58.0035,61.1449,151.57,110.221,115.021,0.000720711,0.0541614,20.9425,585.346,-0.385304,0.0,0.0
759,189.5,58.2066,61.1664,149.575,110.21,115.064,0.000583842,0.0538262,20.9424,585.316,-0.38959,0.0,0.0
770,192.25,58.3181,60.9437,149.532,110.226,115.154,0.000375926,0.053456,20.9418,585.286,-0.39535,0.0,0.0
781,195,58.1576,60.503,150.037,110.254,115.051,0.000263481,0.0534284,20.9414,585.236,-0.385036,0.0,0.0
792,197.75,57.9867,60.843,149.179,110.21,115.16,0.00038162,0.0533103,20.9419,585.226,-0.397211,0.0,0.0
803,200.5,57.9724,61.0055,151.347,110.215,115.049,0.000398592,0.053165,20.9421,585.186,-0.388074,0.0,0.0
814,203.25,57.7457,60.8328,148.579,110.219,115.285,0.000418872,0.053196,20.9421,585.186,-0.406243,0.0,0.0
825,206,57.9586,60.6487,150.114,110.231,114.813,0.000552757,0.0530473,20.9422,585.196,-0.368117,0.0,0.0
836,208.75,57.6959,61.0131,154.087,110.24,115.673,0.000613532,0.0528624,20.9422,585.146,-0.434896,0.0,0.0
847,211.5,57.6452,60.8498,149.736,110.213,114.912,0.000550295,0.0527721,20.9422,585.076,-0.377409,0.0,0.0
858,214.25,58.0628,60.4825,145.545,110.231,114.477,0.000472541,0.0526411,20.9429,585.006,-0.341682,0.0,0.0
869,217,57.5686,60.4676,146.019,110.219,115.117,0.000473683,0.0524642,20.9433,585.066,-0.393073,0.0,0.0
880,219.75,57.8611,60.7876,148.787,110.238,115.048,0.000434307,0.0524042,20.9434,585.066,-0.38603,0.0,0.0
891,222.5,58.3011,60.2631,149.433,110.216,114.507,0.000367071,0.0523466,20.9435,585.026,-0.345233,0.0,0.0
902,225.25,57.8031,60.0437,147.679,110.188,115.947,0.000319223,0.0522796,20.9435,585.026,-0.46058,0.0,0.0
913,228,57.9381,60.4072,150.508,110.175,116.205,0.000374254,0.0520544,20.9435,585.026,-0.481643,0.0,0.0
924,230.75,57.8592,60.71,148.775,110.17,115.32,0.000429335,0.0517921,20.9435,584.996,-0.41298,0.0,0.0
935,233.5,57.6753,60.1642,151.436,110.183,115.056,0.000329823,0.0517803,20.9435,584.996,-0.391247,0.0,0.0
946,236.25,57.9925,60.6471,146.473,110.178,114.807,0.000156993,0.0518853,20.9447,584.966,-0.372003,0.0,0.0
957,239,57.7506,60.376,142.454,110.156,114.724,8.4624e-05,0.0518656,20.9459,584.946,-0.367286,0.0,0.0
968,241.75,57.6181,60.3121,153.216,110.154,115.449,0.00036521,0.0518103,20.9463,584.956,-0.424427,0.0,0.0
979,244.5,57.902,60.3578,148.396,110.16,115.738,0.000512574,0.0517758,20.9464,584.956,-0.446534,0.0,0.0
990,247.25,57.7668,60.1575,149.263,110.155,114.936,0.000225953,0.0513755,20.9465,584.875,-0.384041,0.0,0.0
1001,250,58.2848,60.4754,147.909,110.147,113.633,3.85096e-05,0.0513758,20.9465,584.856,-0.281658,0.0,0.0
1012,252.75,57.7436,59.8387,147.145,110.159,115.146,,0.0514783,,584.865,-0.400243,0.0,0.0
1023,255.5,57.9314,60.0425,148.745,110.145,115.093,,,,584.815,-0.397273,0.0,0.0
1034,258.25,58.1921,60.3265,148.373,110.146,115.382,,,,584.815,-0.419814,0.0,0.0
1045,261,57.8827,60.2597,147.555,110.135,113.967,,,,584.775,-0.30915,0.0,0.0
1052,262.75,57.2686,60.4015,147.967,110.136,114.942,,,,584.745,-0.386078,0.0,0.0