Folder: fsri_materials_database/01_Data/Rug_Pad/Cone (part 2)

File: Rug_Pad_Cone_HF25Scan_220920_R3.csv
Names,Time,Stack TC,Smoke TC,Exh Press,Smoke Comp,Smoke Meas,CO Meter,CO2 Meter,O2 Meter,Sample Mass,Ext Coeff,Start Test,Flame Verif
Chan Gain,,500,500,1,1,1,1,1,1,1,1,1.0,1.0
Offset,,0,0,0.143022,0,0,0,0,0,0,0,0.0,0.0
Gain,,1,1,25.011,14.5176,16.5692,1,1,1,1.00088,1.03055,1.0,1.0
Units,sec,C,C,Pa,%,%,%,%,%,g,/m,,
Baseline,,37.8322,38.648,161.393,110.194,114.216,-0.000947646,0.0436411,20.9527,-447.122,-0.324072,,
10,2.25,36.1723,37.1475,164.986,110.28,114.77,-0.00109023,0.044231,20.9534,592.392,-0.36074,0.0,0.0
20,4.75,35.9711,36.509,160.487,110.313,114.147,-0.00107465,0.0442604,20.9534,592.412,-0.308851,0.0,0.0
30,7.25,36.0489,36.6627,158.503,110.359,113.879,-0.000985327,0.0442079,20.9534,592.382,-0.283823,0.0,0.0
40,9.75,36.071,36.3764,164.111,110.369,113.845,-0.000952479,0.0443811,20.9534,592.402,-0.280303,0.0,0.0
50,12.25,36.2008,37.0757,163.074,110.414,113.924,-0.000933319,0.0443903,20.9534,592.352,-0.2829,0.0,0.0
60,14.75,36.2617,37.0759,161.912,110.389,114.007,-0.000994937,0.0442348,20.9532,592.322,-0.291505,0.0,0.0
70,17.25,36.2459,37.0024,160.851,110.411,114.093,-0.000964167,0.0440847,20.9531,592.282,-0.296541,0.0,0.0
80,19.75,36.2387,37.1865,164.898,110.385,113.894,-0.000714255,0.0440607,20.9531,592.342,-0.28289,0.0,0.0
90,22.25,36.1502,36.9569,160.469,110.386,113.908,-0.000583461,0.0440416,20.9534,592.322,-0.283941,0.0,0.0
100,24.75,35.7075,36.8015,160.85,110.37,113.18,-0.000647806,0.0441438,20.9526,592.292,-0.227272,0.0,0.0
110,27.25,36.6335,36.8826,165.779,110.357,112.953,-0.000642188,0.0439244,20.9519,592.302,-0.210209,0.0,0.0
120,29.75,36.2986,36.8212,160.806,110.335,112.109,-0.000488344,0.0439568,20.9517,592.272,-0.144155,0.0,0.0
130,32.25,36.1487,36.8733,162.562,110.317,112.878,-0.000241474,0.0442825,20.9508,592.262,-0.207485,0.0,0.0
140,34.75,36.1502,36.6425,156.943,110.297,112.46,8.56116e-05,0.0445254,20.9486,592.242,-0.17553,0.0,0.0
150,37.25,36.4863,36.9602,155.428,110.273,113.648,0.000507198,0.0523278,20.9318,592.192,-0.272468,0.0,1.0
160,39.75,36.954,37.3959,153.263,110.237,105.285,0.00114611,0.0859645,20.8606,592.042,0.415475,0.0,1.0
170,42.25,36.4423,36.2132,150.524,110.208,101.792,0.00195109,0.133748,20.7882,592.002,0.718082,0.0,0.0
180,44.75,37.9927,37.0316,151.103,110.184,100.545,0.00308698,0.176992,20.7263,591.872,0.827585,0.0,0.0
190,47.25,39.0874,38.6438,149.353,110.142,98.8492,0.00423832,0.21342,20.6639,591.742,0.977905,0.0,0.0
200,49.75,40.2429,39.2458,148.713,110.106,96.3487,0.00522465,0.242738,20.6206,591.611,1.20653,0.0,0.0
210,52.25,41.6786,40.5195,149.14,110.052,94.764,0.00624565,0.268972,20.5817,591.491,1.35202,0.0,0.0
220,54.75,43.2436,42.0364,149.754,110.025,94.3453,0.00742974,0.292156,20.5484,591.251,1.38982,0.0,0.0
230,57.25,44.2826,43.4731,148.353,109.994,88.8418,0.00831232,0.308445,20.5288,591.121,1.93061,0.0,0.0
240,59.75,45.4198,44.5345,146.255,109.968,89.4334,0.00869616,0.320481,20.513,590.951,1.86854,0.0,0.0
250,62.25,46.9011,45.9343,143.398,109.95,97.5921,0.00866538,0.32984,20.5073,590.761,1.07784,0.0,0.0
260,64.75,47.8876,46.8179,144.631,109.924,97.0076,0.00849529,0.329756,20.5145,590.611,1.12997,0.0,0.0
270,67.25,48.5485,47.8775,145.744,109.895,98.7637,0.00781784,0.319965,20.5439,590.47,0.96541,0.0,0.0
280,69.75,49.2378,48.4937,145.726,109.876,101.314,0.00674527,0.301017,20.5854,590.3,0.733356,0.0,0.0
290,72.25,49.316,48.6815,152.201,109.848,100.475,0.00537606,0.27718,20.6222,590.18,0.806222,0.0,0.0
300,74.75,48.9226,49.0411,154.852,109.844,101.682,0.00412766,0.253297,20.6615,590.14,0.697909,0.0,0.0
310,77.25,48.7746,49.427,151.384,109.821,104.846,0.00292454,0.23251,20.6941,590.1,0.419139,0.0,0.0
320,79.75,48.7266,49.4886,154.448,109.814,109.169,0.00211461,0.213261,20.7211,590.01,0.0532754,0.0,0.0
330,82.25,48.6397,49.709,156.333,109.789,111.168,0.00159626,0.193525,20.7563,589.94,-0.112865,0.0,0.0
340,84.75,48.3764,49.3546,156.604,109.77,113.788,0.00121054,0.174055,20.7834,589.9,-0.324996,0.0,0.0
350,87.25,47.6707,49.2855,153.87,109.765,114.29,0.00102784,0.158588,20.8078,589.86,-0.365159,0.0,0.0
360,89.75,47.4244,48.4981,154.47,109.744,114.183,0.00112769,0.144055,20.829,589.83,-0.358468,0.0,0.0
370,92.25,47.0521,48.791,157.405,109.745,114.435,0.00128808,0.131845,20.8435,589.79,-0.378349,0.0,0.0
380,94.75,46.9353,48.0589,158.237,109.731,115.133,0.00136248,0.120772,20.8597,589.8,-0.434397,0.0,0.0
390,97.25,45.8908,47.7397,159.683,109.719,113.652,0.00141299,0.109742,20.8736,589.74,-0.318343,0.0,0.0
400,99.75,45.1756,47.5664,160.863,109.711,113.954,0.00147647,0.100946,20.8832,589.71,-0.343056,0.0,0.0
410,102.25,45.0316,47.187,159.612,109.727,114.326,0.00145921,0.0940994,20.8927,589.69,-0.371174,0.0,0.0
420,104.75,44.1731,46.9994,159.458,109.754,113.782,0.0012793,0.0889072,20.9002,589.69,-0.325823,0.0,0.0
430,107.25,44.1925,46.0729,160.43,109.775,114.024,0.00116604,0.0839316,20.9066,589.68,-0.343259,0.0,0.0
440,109.75,42.9743,45.6517,163.169,109.791,113.687,0.00106651,0.0793221,20.9129,589.62,-0.315206,0.0,0.0
450,112.25,43.0303,45.0859,161.339,109.793,114.008,0.000987869,0.0761805,20.9158,589.63,-0.340556,0.0,0.0
460,114.75,42.3926,45.0774,159.664,109.792,113.181,0.000988029,0.0737331,20.9184,589.61,-0.274837,0.0,0.0
470,117.25,41.1217,43.302,158.321,109.814,113.635,0.000983397,0.0715726,20.9205,589.61,-0.309168,0.0,0.0
480,119.75,40.266,42.514,162.161,109.855,113.73,0.000868635,0.069527,20.9227,589.59,-0.313412,0.0,0.0
490,122.25,39.4798,42.7952,158.583,109.835,113.232,0.000721654,0.0676613,20.9252,589.58,-0.275373,0.0,0.0
500,124.75,39.4998,42.1113,155.486,109.848,113.879,0.000558168,0.0660846,20.9262,589.56,-0.325763,0.0,0.0
510,127.25,39.5027,41.6995,159.412,109.849,114.451,0.000586784,0.064879,20.929,589.55,-0.371015,0.0,0.0
520,129.75,39.423,41.5643,159.766,109.907,113.581,0.000583175,0.0635049,20.932,589.51,-0.297247,0.0,0.0
530,132.25,38.8443,41.4424,159.159,109.914,113.918,0.000504984,0.0624576,20.9331,589.5,-0.32346,0.0,0.0
540,134.75,38.5724,41.0791,160.387,109.926,114.232,0.000444698,0.0615334,20.9348,589.48,-0.347287,0.0,0.0
550,137.25,38.0741,40.1892,160.6,109.908,114.179,0.000391109,0.0603923,20.9364,589.47,-0.344695,0.0,0.0
560,139.75,38.1006,40.249,158.307,109.896,113.936,0.000351421,0.0596168,20.9372,589.49,-0.326402,0.0,0.0
570,142.25,37.5963,40.3137,158.849,109.9,113.931,0.000299847,0.0588516,20.9374,589.46,-0.325636,0.0,0.0
580,144.75,37.6505,40.2936,161.886,109.897,113.71,0.000258016,0.0580778,20.9381,589.419,-0.308338,0.0,0.0
590,147.25,37.0648,39.6974,158.319,109.868,113.743,0.000355336,0.0571557,20.9393,589.45,-0.313359,0.0,0.0
600,149.75,37.151,39.7305,160.281,109.838,113.709,0.000208794,0.0562865,20.9391,589.47,-0.313069,0.0,0.0
610,152.25,37.505,39.8359,159.985,109.845,113.488,-9.06425e-05,0.0555847,20.94,589.43,-0.294978,0.0,0.0
620,154.75,36.7651,39.2579,157.998,109.802,113.308,-0.000234358,0.0544989,20.9404,589.399,-0.284165,0.0,0.0
630,157.25,36.8525,38.9716,157.016,109.82,113.357,-0.000343222,0.0536931,20.942,589.379,-0.286582,0.0,0.0
640,159.75,36.7792,38.9197,158.707,109.793,113.711,-0.000591115,0.0526863,20.9426,589.389,-0.316954,0.0,0.0
650,162.25,36.9512,38.9128,165.034,109.806,113.705,-0.00076214,0.0521077,20.9437,589.409,-0.31545,0.0,0.0
660,164.75,36.4938,39.208,161.093,109.754,113.032,-0.00060542,0.0514644,20.9447,589.359,-0.265975,0.0,0.0
670,167.25,36.5569,38.4663,159.059,109.765,113.863,-0.000374713,0.0508106,20.945,589.379,-0.331377,0.0,0.0
680,169.75,36.6254,37.9052,159.694,109.759,113.173,-0.000278736,0.0502871,20.9451,589.399,-0.276887,0.0,0.0
690,172.25,36.1166,38.3974,155.788,109.753,113.685,-0.000251511,0.0497009,20.9459,589.359,-0.31822,0.0,0.0
700,174.75,35.7271,38.0709,159.21,109.757,113.12,-0.000226981,0.0491116,20.9467,589.349,-0.272831,0.0,0.0
710,177.25,36.5017,37.665,165.426,109.745,113.578,-0.000314007,0.0486116,20.947,589.329,-0.310353,0.0,0.0
720,179.75,36.5621,37.9358,160.659,109.738,113.55,-0.000515285,0.048292,20.9484,589.329,-0.308759,0.0,0.0
730,182.25,35.7402,37.9553,161.55,109.741,113.702,-0.000527597,0.0478089,20.9491,589.329,-0.320572,0.0,0.0
740,184.75,36.2765,37.5733,158.787,109.735,113.326,-0.000439095,0.0473761,20.9494,589.299,-0.291123,0.0,0.0
750,187.25,35.3953,37.2461,161.007,109.704,113.5,-0.000419298,0.0470378,20.9495,589.329,-0.30751,0.0,0.0
760,189.75,35.4256,37.4627,161.187,109.717,113.743,-0.000429724,0.0466485,20.9495,589.299,-0.325799,0.0,0.0
770,192.25,35.8658,37.4873,159.652,109.712,113.481,-0.00042681,0.046279,20.9495,589.279,-0.305282,0.0,0.0
780,194.75,35.3398,37.6814,161.801,109.715,113.42,-0.000552688,0.0459752,20.9495,589.289,-0.300188,0.0,0.0
790,197.25,35.6042,37.0261,164.286,109.707,113.396,-0.000751229,0.0458359,20.9502,589.249,-0.299027,0.0,0.0
800,199.75,34.7407,37.0577,161.843,109.736,113.357,-0.000841919,0.0457446,20.9504,589.269,-0.293437,0.0,0.0
810,202.25,35.7089,36.5397,163.902,109.72,114.325,-0.000885346,0.045567,20.9505,589.269,-0.371682,0.0,0.0
820,204.75,35.2562,36.977,162.598,109.741,113.738,-0.000943774,0.0453274,20.9505,589.269,-0.323385,0.0,0.0
830,207.25,35.3348,37.0146,159.16,109.736,113.605,-0.000951133,0.0452503,20.9505,589.249,-0.313215,0.0,0.0
840,209.75,35.1317,36.8026,163.935,109.759,113.544,-0.000922679,0.0452163,20.9505,589.279,-0.306487,0.0,0.0
850,212.25,35.2556,36.9248,162.747,109.755,113.54,-0.000897637,0.0451718,20.9505,589.239,-0.30653,0.0,0.0
860,214.75,34.634,36.2587,162.418,109.759,113.7,-0.000785089,0.045001,20.9505,589.219,-0.318875,0.0,0.0
870,217.25,35.0636,36.624,163.403,109.764,113.985,-0.000633598,0.0450145,20.9505,589.229,-0.341124,0.0,0.0
880,219.75,35.1416,36.5943,160.187,109.756,113.455,-0.000605305,0.0449031,20.9505,589.219,-0.299614,0.0,0.0
890,222.25,35.1726,36.4131,156.501,109.759,113.823,-0.000764606,0.0447249,20.9505,589.249,-0.328679,0.0,0.0
900,224.75,35.0005,35.9911,159.291,109.764,112.879,-0.000867767,0.0444892,20.9505,589.229,-0.252988,0.0,0.0
910,227.25,34.8988,36.4928,156.173,109.766,114.151,,0.0446607,,589.229,-0.354121,0.0,0.0
920,229.75,34.8018,36.5929,153.613,109.766,113.965,,,,589.189,-0.339332,0.0,0.0
930,232.25,35.0592,36.1467,161.542,109.773,113.391,,,,589.189,-0.293187,0.0,0.0
940,234.75,35.0419,36.4918,161.103,109.757,113.527,,,,589.229,-0.305298,0.0,0.0
948,236.75,35.1458,35.6616,164,109.761,113.338,,,,589.209,-0.289861,0.0,0.0

File: Rug_Pad_Cone_HF50Scalar_220920_R1.csv
LABORATORY,FSRI
TEST IDENT,Rug_Pad_HF50_1
OPERATOR,Dow
MATERIAL,Rug Pad
ORIENTATION,Horizontal
HEAT FLUX,50
SURF AREA,0.01
C FACTOR,0.0391624
SPEC HOLDER DIFF,-566
SPECIMEN MASS,7.16
SCAN TIME,0.25
O2 DELAY TIME,11
CO DELAY TIME,11
CO2 DELAY TIME,8
FLOW FACTOR,1
SCAN COUNT,1255
TIME TO IGN,6.25
END OF TEST SCAN,775
END OF TEST TIME,193.75
TEST STATUS,1
PRE TEST CMT,Dimensions: 101.5 x 102.5 x 4.6 mm; with frame and grid; with calcium silicate substrate

File: Rug_Pad_Cone_HF50Scalar_220920_R2.csv
LABORATORY,FSRI
TEST IDENT,Rug_Pad_HF50_2
OPERATOR,Dow
MATERIAL,Rug Pad
ORIENTATION,Horizontal
HEAT FLUX,50
SURF AREA,0.01
C FACTOR,0.0391624
SPEC HOLDER DIFF,-566
SPECIMEN MASS,6.87
SCAN TIME,0.25
O2 DELAY TIME,11
CO DELAY TIME,11
CO2 DELAY TIME,8
FLOW FACTOR,1
SCAN COUNT,1189
TIME TO IGN,6.5
END OF TEST SCAN,709
END OF TEST TIME,177.25
TEST STATUS,1
PRE TEST CMT,Dimensions: 103 x 101.5 x 4.5 mm; with frame and grid; with calcium silicate board

File: Rug_Pad_Cone_HF50Scalar_220920_R3.csv
LABORATORY,FSRI
TEST IDENT,Rug_Pad_HF50_3
OPERATOR,Dow
MATERIAL,Rug Pad
ORIENTATION,Horizontal
HEAT FLUX,50
SURF AREA,0.01
C FACTOR,0.0391624
SPEC HOLDER DIFF,-566
SPECIMEN MASS,7.47
SCAN TIME,0.25
O2 DELAY TIME,11
CO DELAY TIME,11
CO2 DELAY TIME,8
FLOW FACTOR,1
SCAN COUNT,1561
TIME TO IGN,5.75
END OF TEST SCAN,1081
END OF TEST TIME,270.25
TEST STATUS,1
PRE TEST CMT,Dimensions: 102.5 x 104 x 4.8 mm; with frame and grid; with calcium silicate substrate

File: Rug_Pad_Cone_HF50Scan_220920_R1.csv
Names,Time,Stack TC,Smoke TC,Exh Press,Smoke Comp,Smoke Meas,CO Meter,CO2 Meter,O2 Meter,Sample Mass,Ext Coeff,Start Test,Flame Verif
Chan Gain,,500,500,1,1,1,1,1,1,1,1,1.0,1.0
Offset,,0,0,0.143022,0,0,0,0,0,0,0,0.0,0.0
Gain,,1,1,25.011,14.5176,16.5692,1,1,1,1.00088,1.03055,1.0,1.0
Units,sec,C,C,Pa,%,%,%,%,%,g,/m,,
Baseline,,46.5423,48.0289,156.403,109.662,114.645,-0.000670506,0.0440522,20.9506,-447.355,-0.401623,,
14,3.25,45.005,46.5012,151.835,109.805,114.12,-0.000971215,0.0442842,20.9501,600.049,-0.348428,0.0,0.0
28,6.75,44.9089,46.6221,152.119,109.74,113.496,-0.000190449,0.0502187,20.9356,599.979,-0.304231,0.0,1.0
42,10.25,45.0816,46.6186,146.168,109.811,99.5601,0.00203803,0.107551,20.8196,599.819,0.885881,0.0,1.0
56,13.75,47.3261,47.2074,139.032,110.089,91.3681,0.00537777,0.206556,20.6649,599.548,1.68497,0.0,0.0
70,17.25,50.8017,50.1321,133.662,110.321,84.5484,0.0092857,0.313118,20.4899,599.228,2.40523,0.0,0.0
84,20.75,54.4923,53.2737,132.303,110.474,76.6117,0.0130491,0.423788,20.3089,598.868,3.30892,0.0,0.0
98,24.25,58.6412,56.8939,132.327,110.588,78.7116,0.0160637,0.514199,20.1788,598.447,3.07378,0.0,0.0
112,27.75,61.9538,60.7695,133.82,110.637,81.783,0.0162702,0.540799,20.1629,598.107,2.7317,0.0,0.0
126,31.25,63.4469,63.4365,139.383,110.669,86.7449,0.01348,0.488138,20.2978,597.757,2.2019,0.0,0.0
140,34.75,63.9826,64.4284,148.389,110.655,96.2552,0.0102124,0.390506,20.4626,597.617,1.26031,0.0,0.0
154,38.25,63.4965,64.363,144.733,110.629,105.964,0.00631354,0.307895,20.5918,597.507,0.389414,0.0,0.0
168,41.75,62.2203,64.3587,151.691,110.556,113.218,0.00337268,0.243453,20.692,597.386,-0.215077,0.0,0.0
182,45.25,61.7573,63.6579,152.609,110.493,114.612,0.002116,0.201244,20.7553,597.306,-0.330813,0.0,0.0
196,48.75,60.9329,63.4112,156.269,110.388,115.273,0.00151441,0.171572,20.7935,597.246,-0.391497,0.0,0.0
210,52.25,59.8773,62.4007,151.084,110.278,115.407,0.0012582,0.152087,20.8204,597.166,-0.410925,0.0,0.0
224,55.75,58.7404,62.1103,149.663,110.133,116.109,0.00134172,0.13871,20.8339,597.136,-0.477658,0.0,0.0
238,59.25,57.8853,61.0141,148.27,110.155,115.577,0.00172978,0.129458,20.8452,597.086,-0.434366,0.0,0.0
252,62.75,57.8551,60.6366,150.634,110.201,116.511,0.00178457,0.122559,20.853,597.046,-0.5033,0.0,0.0
266,66.25,57.3094,60.4932,153.941,110.238,115.714,0.00146328,0.116276,20.8607,596.996,-0.438205,0.0,0.0
280,69.75,56.4266,59.9189,151.159,110.318,115.728,0.00136724,0.112183,20.8659,596.916,-0.432774,0.0,0.0
294,73.25,55.7394,59.2884,153.398,110.364,116.473,0.00150032,0.108489,20.8711,596.896,-0.486994,0.0,0.0
308,76.75,54.794,58.8309,152.393,110.443,115.466,0.00145807,0.104597,20.876,596.866,-0.402095,0.0,0.0
322,80.25,55.1378,58.2724,151.503,110.474,115.456,0.00135888,0.0998165,20.8817,596.836,-0.398765,0.0,0.0
336,83.75,54.4672,57.9013,151.813,110.552,115.858,0.00130806,0.0958376,20.8877,596.796,-0.42381,0.0,0.0
350,87.25,53.8835,57.4891,154.746,110.599,116.483,0.00123886,0.0921061,20.8917,596.726,-0.468568,0.0,0.0
364,90.75,53.3705,57.2504,150.53,110.667,115.855,0.00122102,0.0896006,20.8939,596.766,-0.41416,0.0,0.0
378,94.25,52.7565,56.7964,156.389,110.737,116.192,0.00110756,0.0870715,20.8956,596.716,-0.434682,0.0,0.0
392,97.75,52.989,55.9373,157.445,110.777,116.262,0.000933281,0.0848202,20.8971,596.676,-0.436891,0.0,0.0
406,101.25,52.2287,56.2645,152.668,110.831,116.546,0.000703175,0.0830028,20.9007,596.676,-0.45459,0.0,0.0
420,104.75,51.7247,55.81,150.502,110.895,116.761,0.000644929,0.0816773,20.9012,596.606,-0.465965,0.0,0.0
434,108.25,51.7132,55.3409,155.497,110.955,117.095,0.000554018,0.0803883,20.9016,596.596,-0.486892,0.0,0.0
448,111.75,51.5351,55.0381,152.659,110.977,117.193,0.000516524,0.0790184,20.9021,596.596,-0.492661,0.0,0.0
462,115.25,51.0425,54.7618,156.496,111.026,116.493,0.000422939,0.0778191,20.9041,596.506,-0.434512,0.0,0.0
476,118.75,50.9834,54.0835,156.682,111.045,116.622,0.00040805,0.076138,20.9072,596.466,-0.442994,0.0,0.0
490,122.25,50.597,54.1462,149.936,111.073,116.552,0.000332495,0.0747237,20.9087,596.426,-0.43524,0.0,0.0
504,125.75,50.9719,53.7644,154.317,111.056,116.644,0.000371847,0.0737185,20.9091,596.446,-0.443778,0.0,0.0
518,129.25,50.9122,53.7079,152.955,111.096,115.955,0.000393512,0.0724305,20.9113,596.406,-0.38704,0.0,0.0
532,132.75,50.3768,53.537,157.944,111.082,116.972,0.000461133,0.0712185,20.9131,596.376,-0.467048,0.0,0.0
546,136.25,50.0527,53.5426,155.264,111.061,116.535,0.000462055,0.0701057,20.9148,596.326,-0.434916,0.0,0.0
560,139.75,50.2221,52.8611,153.623,111.057,115.906,0.000389469,0.0687884,20.916,596.316,-0.386316,0.0,0.0
574,143.25,49.8364,53.1418,157.029,111.033,116.823,0.000306167,0.0671883,20.9168,596.255,-0.459554,0.0,0.0
588,146.75,50.0207,52.7305,155.995,111.024,116.562,0.000303503,0.0659128,20.9191,596.266,-0.440024,0.0,0.0
602,150.25,49.3988,52.7279,156.447,110.983,116.32,0.0002982,0.0650948,20.9209,596.266,-0.424542,0.0,0.0
616,153.75,49.7377,52.2043,152.617,110.976,116.474,0.000127849,0.0643433,20.9239,596.236,-0.437059,0.0,0.0
630,157.25,49.4475,52.3307,151.903,110.943,115.543,-4.13628e-05,0.0634127,20.9259,596.205,-0.367301,0.0,0.0
644,160.75,49.2808,52.0044,154.806,110.917,116.045,9.78003e-05,0.0625655,20.9274,596.216,-0.40859,0.0,0.0
658,164.25,49.246,51.9502,154.344,110.885,116.969,0.000312232,0.0617637,20.9285,596.185,-0.482836,0.0,0.0
672,167.75,49.3669,51.5815,154.815,110.874,116.68,0.000330609,0.0609426,20.9294,596.155,-0.461361,0.0,0.0
686,171.25,48.8522,51.8193,157.178,110.872,116.189,0.000381081,0.0603051,20.9307,596.065,-0.423461,0.0,0.0
700,174.75,48.9765,51.3418,151.722,110.795,115.999,0.000145584,0.0596088,20.9324,596.065,-0.41494,0.0,0.0
714,178.25,48.9982,51.1791,156.751,110.793,115.989,-5.76606e-05,0.0589152,20.9327,596.085,-0.414261,0.0,0.0
728,181.75,48.6734,51.3506,150.86,110.743,115.878,-8.56335e-05,0.0582336,20.9328,596.075,-0.409787,0.0,0.0
742,185.25,49.1254,51.2714,149.04,110.733,116.536,-4.21059e-05,0.0573908,20.9344,596.055,-0.461755,0.0,0.0
756,188.75,48.9565,50.6747,153.657,110.698,116.659,-9.71867e-05,0.0564491,20.9363,596.045,-0.474104,0.0,0.0
770,192.25,48.6597,51.1723,151.648,110.703,115.593,-0.000209423,0.0556855,20.9388,596.035,-0.390731,0.0,0.0
784,195.75,47.7294,49.3843,155.078,110.658,115.989,-0.000306371,0.0543278,20.9401,596.005,-0.425294,0.0,0.0
798,199.25,46.8601,49.4303,153.889,110.614,115.661,-0.00032979,0.0523798,20.9413,596.005,-0.403303,0.0,0.0
812,202.75,46.8898,48.8788,152.12,110.585,116.204,-0.000486067,0.05146,20.9417,595.975,-0.448076,0.0,0.0
826,206.25,46.8241,48.9765,155.705,110.547,115.456,-0.00024527,0.0507701,20.9418,595.945,-0.392749,0.0,0.0
840,209.75,46.8239,49.0347,154.108,110.51,115.892,-0.000122703,0.0503324,20.9418,595.945,-0.429895,0.0,0.0
854,213.25,46.3493,48.8521,158.736,110.483,115.893,-0.00016248,0.0500594,20.9418,595.905,-0.432146,0.0,0.0
868,216.75,46.8407,48.7233,157.684,110.473,116.106,-0.000299332,0.0497016,20.9432,595.925,-0.449533,0.0,0.0
882,220.25,46.2384,49.2251,151.166,110.462,115.601,-0.000363703,0.0496777,20.9432,595.905,-0.411067,0.0,0.0
896,223.75,46.6595,48.9051,153.173,110.48,116.38,-0.000654239,0.0494008,20.945,595.865,-0.470306,0.0,0.0
910,227.25,46.847,48.6517,157.006,110.48,116.022,-0.000656317,0.0490022,20.9459,595.845,-0.442455,0.0,0.0
924,230.75,46.285,47.9482,155.708,110.495,115.64,-0.000516578,0.0486811,20.9461,595.815,-0.411425,0.0,0.0
938,234.25,46.6998,49.2346,150.882,110.494,115.911,-0.000482691,0.048488,20.9461,595.805,-0.432659,0.0,0.0
952,237.75,46.4889,48.3257,153.474,110.524,116.077,-0.00043214,0.0483962,20.9461,595.765,-0.443121,0.0,0.0
966,241.25,46.2501,48.3093,153.953,110.56,116.318,-0.000517144,0.0480418,20.9476,595.745,-0.458951,0.0,0.0
980,244.75,46.262,48.4292,153.097,110.546,116.387,-0.00043138,0.0478114,20.9483,595.735,-0.465453,0.0,0.0
994,248.25,46.1219,48.0524,151.146,110.561,116.735,-0.000563642,0.0475896,20.9467,595.725,-0.491166,0.0,0.0
1008,251.75,46.4184,48.4143,154.288,110.564,116.953,-0.000698435,0.0477182,20.9462,595.685,-0.507887,0.0,0.0
1022,255.25,46.7378,48.3613,154.533,110.588,116.372,-0.000685236,0.0475879,20.9461,595.675,-0.460836,0.0,0.0
1036,258.75,45.9313,48.2956,155.442,110.582,115.463,-0.000755283,0.0475527,20.9461,595.715,-0.390481,0.0,0.0
1050,262.25,46.2889,48.0106,153.396,110.607,116.644,-0.000761472,0.0472591,20.9469,595.685,-0.480384,0.0,0.0
1064,265.75,46.3301,48.4073,153.373,110.642,115.581,-0.000665129,0.0471626,20.9479,595.685,-0.394813,0.0,0.0
1078,269.25,46.3661,48.3952,158.123,110.686,116.119,-0.000699448,0.0469619,20.9475,595.615,-0.433176,0.0,0.0
1092,272.75,46.4309,47.887,156.842,110.713,115.267,-0.000731334,0.0469356,20.9491,595.575,-0.364393,0.0,0.0
1106,276.25,46.3399,48.3631,156.008,110.704,116.933,-0.00066601,0.046797,20.9496,595.625,-0.494885,0.0,0.0
1120,279.75,46.0343,47.941,157.936,110.743,116.01,-0.000572075,0.0467616,20.95,595.625,-0.420078,0.0,0.0
1134,283.25,46.4354,48.4479,155.175,110.744,115.553,-0.00044401,0.0465833,20.9505,595.625,-0.384275,0.0,0.0
1148,286.75,46.2245,48.2974,156.655,110.77,116.238,-0.000571465,0.0464696,20.9506,595.555,-0.435584,0.0,0.0
1162,290.25,46.4166,48.0437,153.729,110.785,116.393,-0.000658826,0.04638,20.9496,595.575,-0.446381,0.0,0.0
1176,293.75,46.0628,48.1014,151.596,110.83,116.697,-0.00061043,0.04622,20.9487,595.585,-0.466303,0.0,0.0
1190,297.25,46.3841,48.3037,155.408,110.86,116.357,-0.00067221,0.0461725,20.9479,595.555,-0.437524,0.0,0.0
1204,300.75,46.5642,47.738,156.553,110.893,116.155,-0.000780048,0.0461961,20.9465,595.485,-0.419084,0.0,0.0
1218,304.25,46.49,48.2085,155.661,110.907,115.602,,0.0460541,,595.535,-0.374777,0.0,0.0
1232,307.75,46.3104,48.3682,152.716,110.944,115.799,,,,595.525,-0.387188,0.0,0.0
1246,311.25,46.5737,48.361,153.523,110.935,117.192,,,,595.565,-0.496012,0.0,0.0
1255,313.5,46.3816,48.2878,155.19,110.964,116.151,,,,595.515,-0.41296,0.0,0.0