Folder: fsri_materials_database/01_Data/Rug_Pad/MCC (part 2)

File: Rug_Pad_MCC_30K_min_211013_R3.txt
Sample ID:	C:\MCC\MCC Cal\Test\Rug_pad_MCC_30K_min_211013_R3.txt
Sample Weight (mg):	4.1
Heating Rate (C/s):	0.5
Combustor Temp (C):	900
N2 Flow Rate (cc/min):	80
O2 Flow Rate (cc/min):	20
Calibration File:	C:\MCC\MCC Cal\Coeff1 JN10440_30_210304.txt.txt
T Correction Coefficients:	0	1.024463	0
Time Shift (s):	14
*
Time (s)	Temperature (C)	N2 flow rate (cc/min)	O2 flow rate (cc/min)	Flow Rate (cc/min)	Oxygen (%)	HRR (W/g)	Heating rate (C/s)
0.000	108.931	79.991	19.995	103.299	20.077	-0.385	-0.001
8.000	108.893	79.992	19.996	103.289	20.072	0.006	0.006
16.000	108.923	79.989	19.997	103.331	20.065	0.584	0.013
24.000	109.149	79.990	19.997	103.415	20.053	1.512	0.058
32.001	109.792	79.990	19.998	103.470	20.044	2.213	0.084
40.001	110.842	79.990	19.997	103.450	20.038	2.727	0.154
48.000	112.196	79.991	19.996	103.508	20.035	2.956	0.161
56.000	113.982	79.992	19.995	103.508	20.032	3.210	0.232
64.000	115.984	79.991	19.998	103.506	20.036	2.840	0.260
72.000	118.277	79.990	19.997	103.506	20.034	3.002	0.276
80.000	120.733	79.990	19.998	103.504	20.037	2.757	0.301
88.000	123.385	79.991	19.996	103.515	20.037	2.810	0.360
96.000	126.147	79.990	19.999	103.514	20.033	3.101	0.355
104.001	129.048	79.989	19.997	103.513	20.031	3.245	0.390
112.000	131.996	79.992	19.995	103.511	20.031	3.225	0.358
120.000	135.096	79.990	19.998	103.518	20.034	3.030	0.407
128.001	138.305	79.993	19.998	103.522	20.036	2.829	0.435
136.000	141.654	79.994	19.999	103.516	20.030	3.351	0.425
144.000	145.040	79.990	19.997	103.532	20.031	3.250	0.445
152.000	148.476	79.991	19.996	103.515	20.031	3.232	0.447
160.000	152.110	79.990	19.996	103.528	20.028	3.479	0.430
168.000	155.801	79.990	19.996	103.528	20.030	3.349	0.464
176.000	159.568	79.989	19.999	103.527	20.029	3.426	0.482
184.000	163.436	79.991	19.998	103.515	20.034	3.043	0.479
192.000	167.386	79.989	19.997	103.508	20.030	3.344	0.488
200.000	171.365	79.990	19.997	103.507	20.030	3.309	0.466
208.000	175.366	79.991	19.998	103.506	20.026	3.633	0.498
216.000	179.389	79.991	19.997	103.493	20.030	3.352	0.529
224.001	183.435	79.988	19.998	103.494	20.026	3.620	0.526
232.000	187.549	79.989	19.998	103.488	20.032	3.207	0.514
240.000	191.602	79.991	19.995	103.480	20.032	3.196	0.515
248.000	195.595	79.989	19.998	103.474	20.026	3.669	0.469
256.000	199.652	79.988	19.997	103.469	20.025	3.732	0.492
264.000	203.606	79.989	19.998	103.472	20.022	3.983	0.489
272.000	207.593	79.992	19.997	103.458	20.020	4.087	0.484
280.000	211.555	79.989	19.996	103.452	20.018	4.316	0.525
288.001	215.492	79.989	19.996	103.467	20.019	4.216	0.473
296.000	219.413	79.991	19.996	103.462	20.013	4.705	0.503
304.000	223.330	79.990	19.997	103.451	20.013	4.664	0.595
312.000	227.278	79.989	19.998	103.464	20.009	4.993	0.498
320.000	231.320	79.990	19.998	103.459	20.005	5.330	0.474
328.000	235.267	79.990	19.997	103.460	20.001	5.591	0.481
336.000	239.232	79.990	19.997	103.455	19.999	5.812	0.470
344.000	243.271	79.990	19.996	103.437	19.995	6.088	0.485
352.000	247.337	79.990	19.997	103.444	19.993	6.216	0.478
360.000	251.381	79.992	19.996	103.439	19.992	6.361	0.516
368.000	255.475	79.990	19.996	103.435	19.982	7.135	0.548
376.000	259.501	79.992	19.996	103.430	19.983	7.011	0.509
384.000	263.464	79.991	19.998	103.428	19.978	7.448	0.496
392.000	267.477	79.988	19.996	103.429	19.974	7.736	0.520
400.000	271.497	79.991	19.998	103.424	19.970	8.042	0.504
408.000	275.530	79.989	19.997	103.423	19.967	8.259	0.526
416.000	279.506	79.989	19.997	103.428	19.969	8.127	0.470
424.000	283.491	79.990	19.996	103.424	19.970	8.025	0.521
432.000	287.503	79.989	19.996	103.414	19.974	7.763	0.488
440.000	291.517	79.991	19.997	103.426	19.971	7.988	0.492
448.000	295.524	79.991	19.996	103.417	19.973	7.832	0.483
456.000	299.523	79.992	19.996	103.417	19.970	8.066	0.485
464.000	303.566	79.990	19.998	103.412	19.974	7.775	0.492
472.000	307.578	79.991	19.997	103.417	19.971	7.952	0.520
480.000	311.647	79.990	19.997	103.402	19.964	8.538	0.515
488.000	315.693	79.991	19.997	103.399	19.955	9.207	0.494
496.000	319.739	79.989	19.998	103.392	19.948	9.800	0.508
504.000	323.710	79.991	19.996	103.397	19.932	11.075	0.496
512.000	327.718	79.991	19.997	103.393	19.912	12.629	0.475
520.000	331.699	79.991	19.996	103.389	19.882	14.981	0.490
528.000	335.698	79.990	19.997	103.386	19.845	17.865	0.460
536.000	339.774	79.992	19.996	103.389	19.799	21.538	0.505
544.000	343.799	79.991	19.995	103.389	19.728	27.087	0.506
552.000	347.731	79.989	19.996	103.385	19.647	33.488	0.498
560.000	351.753	79.989	19.997	103.385	19.547	41.353	0.521
568.000	355.737	79.989	19.997	103.386	19.425	50.890	0.520
576.000	359.772	79.990	19.997	103.364	19.283	62.095	0.495
584.000	363.758	79.988	19.998	103.396	19.140	73.294	0.501
592.000	367.785	79.991	19.998	103.325	18.986	85.441	0.496
600.000	371.820	79.993	19.997	103.312	18.863	95.082	0.503
608.000	375.870	79.991	19.996	103.314	18.780	101.616	0.515
616.000	379.888	79.993	19.996	103.294	18.762	102.947	0.512
624.000	383.906	79.992	19.996	103.281	18.814	98.872	0.500
632.000	387.951	79.992	19.996	103.281	18.922	90.407	0.510
640.000	391.951	79.990	19.996	103.291	19.062	79.449	0.503
648.001	396.049	79.990	19.996	103.311	19.198	68.774	0.506
656.000	400.089	79.990	19.998	103.311	19.324	58.868	0.518
664.000	404.054	79.989	19.997	103.332	19.419	51.379	0.508
672.000	408.063	79.991	19.998	103.347	19.485	46.174	0.469
680.000	412.109	79.991	19.997	103.352	19.536	42.215	0.528
688.000	416.023	79.990	19.997	103.357	19.571	39.471	0.507
696.000	420.044	79.992	19.997	103.355	19.595	37.536	0.499
704.000	424.053	79.993	19.996	103.360	19.619	35.622	0.507
712.000	428.072	79.990	19.997	103.360	19.641	33.919	0.527
720.000	432.152	79.991	19.997	103.352	19.671	31.533	0.536
728.000	436.198	79.991	19.996	103.352	19.708	28.693	0.515
736.000	440.318	79.990	19.997	103.355	19.745	25.752	0.519
744.000	444.356	79.990	19.998	103.354	19.780	23.019	0.488
752.000	448.416	79.991	19.997	103.353	19.819	19.957	0.508
760.000	452.484	79.991	19.996	103.349	19.852	17.330	0.508
768.000	456.622	79.990	19.999	103.334	19.886	14.622	0.527
776.000	460.674	79.994	19.997	103.348	19.924	11.671	0.496
784.000	464.684	79.992	19.996	103.344	19.957	9.076	0.504
792.000	468.768	79.990	19.997	103.331	19.983	6.995	0.495
800.000	472.859	79.990	19.996	103.349	20.012	4.728	0.528
808.000	476.932	79.990	19.997	103.349	20.027	3.602	0.515
816.000	480.993	79.989	19.996	103.338	20.035	2.917	0.507
824.000	485.037	79.989	19.996	103.348	20.044	2.256	0.523
832.000	489.110	79.991	19.997	103.323	20.051	1.655	0.528
840.000	493.174	79.991	19.996	103.339	20.050	1.756	0.499
848.000	497.289	79.990	19.996	103.330	20.057	1.232	0.511
856.000	501.339	79.992	19.996	103.328	20.058	1.167	0.517
864.000	505.376	79.992	19.997	103.326	20.060	0.966	0.548
872.000	509.440	79.989	19.996	103.334	20.061	0.888	0.501
880.000	513.476	79.990	19.997	103.334	20.055	1.353	0.491
888.000	517.621	79.991	19.996	103.326	20.053	1.489	0.530
896.000	521.737	79.990	19.995	103.336	20.051	1.683	0.498
904.000	525.882	79.990	19.997	103.333	20.049	1.839	0.521
912.000	529.982	79.991	19.997	103.342	20.043	2.306	0.516
920.001	534.151	79.989	19.997	103.340	20.041	2.470	0.526
928.000	538.297	79.991	19.997	103.328	20.035	2.964	0.522
936.000	542.395	79.990	19.997	103.325	20.035	2.934	0.508
944.000	546.371	79.992	19.996	103.338	20.022	3.948	0.517
952.000	550.391	79.989	19.997	103.350	20.014	4.585	0.503
960.000	554.313	79.988	19.997	103.336	20.008	5.048	0.498
968.000	558.290	79.990	19.997	103.347	20.000	5.722	0.504
976.000	562.309	79.990	19.997	103.356	19.989	6.569	0.511
984.000	566.336	79.990	19.997	103.350	19.980	7.257	0.493
992.000	570.375	79.991	19.998	103.353	19.973	7.784	0.497
1000.000	574.567	79.991	19.996	103.352	19.975	7.678	0.547
1008.000	578.827	79.991	19.996	103.355	19.977	7.486	0.547
1016.000	582.994	79.991	19.997	103.353	19.988	6.647	0.521
1024.000	587.247	79.992	19.996	103.346	20.002	5.560	0.555
1032.000	591.473	79.988	19.997	103.338	20.016	4.451	0.526
1040.001	595.658	79.990	19.998	103.325	20.041	2.463	0.527
1048.000	599.799	79.989	19.998	103.331	20.059	1.037	0.514
1056.001	603.929	79.992	19.997	103.322	20.070	0.171	0.518
1064.000	608.031	79.990	19.997	103.327	20.078	-0.445	0.532
1072.000	612.092	79.989	19.997	103.337	20.080	-0.566	0.496
1080.001	616.227	79.992	19.995	103.349	20.075	-0.194	0.512
1088.000	620.273	79.993	19.997	103.347	20.074	-0.127	0.477
1096.000	624.333	79.992	19.996	103.352	20.070	0.175	0.535
1104.000	628.319	79.994	19.997	103.351	20.076	-0.272	0.494
1112.000	632.352	79.990	19.997	103.355	20.073	-0.028	0.511
1120.000	636.438	79.991	19.996	103.362	20.072	0.024	0.538
1128.000	640.430	79.990	19.998	103.376	20.071	0.125	0.472
1136.000	644.493	79.989	19.997	103.378	20.066	0.469	0.516
1144.000	648.472	79.988	19.997	103.388	20.067	0.458	0.457
1152.000	652.435	79.990	19.996	103.380	20.065	0.562	0.479
1160.001	656.464	79.992	19.996	103.396	20.068	0.346	0.517
1168.000	660.454	79.990	19.997	103.392	20.063	0.761	0.487
1176.000	664.462	79.993	19.995	103.411	20.062	0.787	0.500
1184.001	668.443	79.992	19.995	103.430	20.059	1.068	0.473
1192.000	672.491	79.990	19.996	103.432	20.058	1.144	0.493
1200.001	676.584	79.990	19.996	103.437	20.058	1.146	0.510
1208.000	680.642	79.990	19.996	103.440	20.058	1.107	0.513
1216.000	684.707	79.990	19.997	103.431	20.056	1.276	0.528
1224.001	688.811	79.989	19.998	103.440	20.050	1.786	0.480
1232.000	692.852	79.991	19.996	103.480	20.049	1.811	0.460
1240.001	696.937	79.992	19.996	103.463	20.044	2.251	0.497
1248.000	701.008	79.991	19.996	103.480	20.042	2.396	0.515
1256.000	705.074	79.992	19.996	103.506	20.043	2.333	0.522
1264.000	709.163	79.994	19.996	103.513	20.043	2.317	0.505
1272.000	713.277	79.991	19.996	103.545	20.036	2.892	0.528
1280.001	717.422	79.991	19.996	103.547	20.034	3.053	0.515
1288.000	721.465	79.993	19.997	103.551	20.029	3.417	0.506
1296.000	725.534	79.992	19.997	103.594	20.030	3.374	0.504
1304.000	729.507	79.990	19.996	103.545	20.027	3.587	0.496
1312.000	733.517	79.990	19.998	103.544	20.030	3.334	0.513
1320.001	737.497	79.991	19.996	103.512	20.033	3.076	0.492
1328.000	741.570	79.991	19.997	103.469	20.042	2.427	0.519
1331.500	743.399	79.991	19.996	103.446	20.045	2.133	0.541