Folder: fsri_materials_database/01_Data/PE_Batting_82B/MCC

Note: 01_Data/README.md
# Materials and Products Database
## 01_Data

Raw data generated from each apparatus are included here in plain-text format. The data is organized first by material, next by the short name of test apparatus used, and where applicable additional filtering by test settings.

### material.json

Each material directory contains a json file of the same name as the material. This file links the data stored in the repository as well as data and graphs produced by the accompanying scripts (__02_Scripts__) to the respective landing page for the material on the front-end website.

File: PE_Batting_82B_MCC_30K_min_220309_R1.txt
Sample ID:	C:\MCC\MCC Cal\Test\PE_batting_82B_MCC_30K_min_220309_R1.txt
Sample Weight (mg):	4.13
Heating Rate (C/s):	0.5
Combustor Temp (C):	900
N2 Flow Rate (cc/min):	80
O2 Flow Rate (cc/min):	20
Calibration File:	C:\MCC\MCC Cal\Coeff1 JN10440_30_210304.txt.txt
T Correction Coefficients:	0	1.024463	0
Time Shift (s):	14
*
Time (s)	Temperature (C)	N2 flow rate (cc/min)	O2 flow rate (cc/min)	Flow Rate (cc/min)	Oxygen (%)	HRR (W/g)	Heating rate (C/s)
0.000	108.117	80.004	19.993	103.688	20.079	-0.266	0.010
8.000	108.149	80.003	19.993	103.691	20.082	-0.519	-0.019
15.999	108.098	80.005	19.993	103.718	20.074	0.128	-0.012
24.000	108.394	80.007	19.993	103.841	20.052	1.884	0.038
31.999	109.045	80.004	19.992	103.882	20.043	2.542	0.131
40.000	110.217	80.005	19.994	103.871	20.045	2.392	0.146
48.000	111.681	80.007	19.993	103.901	20.044	2.469	0.157
55.999	113.504	80.004	19.993	103.883	20.043	2.541	0.245
63.999	115.495	80.005	19.994	103.897	20.040	2.784	0.246
72.000	117.764	80.004	19.993	103.926	20.036	3.165	0.296
79.999	120.306	80.006	19.993	103.943	20.033	3.360	0.343
87.999	123.132	80.005	19.994	103.943	20.034	3.274	0.374
95.999	126.183	80.005	19.995	103.952	20.031	3.516	0.393
103.999	129.453	80.006	19.994	103.951	20.031	3.542	0.433
112.000	132.914	80.006	19.993	103.951	20.033	3.402	0.456
119.999	136.478	80.005	19.993	103.969	20.031	3.514	0.430
127.999	140.304	80.008	19.994	103.954	20.031	3.553	0.477
136.000	144.200	80.006	19.993	103.947	20.031	3.507	0.491
144.000	148.162	80.004	19.994	103.948	20.032	3.458	0.491
152.000	152.270	80.005	19.993	103.947	20.032	3.408	0.533
160.000	156.303	80.004	19.995	103.948	20.034	3.269	0.512
168.000	160.421	80.005	19.994	103.926	20.035	3.225	0.554
176.000	164.500	80.005	19.995	103.924	20.037	3.034	0.526
184.000	168.567	80.005	19.993	103.920	20.033	3.329	0.495
192.000	172.624	80.006	19.992	103.909	20.035	3.186	0.532
200.000	176.661	80.006	19.994	103.911	20.035	3.179	0.498
208.000	180.657	80.007	19.993	103.908	20.035	3.236	0.500
216.000	184.636	80.007	19.994	103.905	20.034	3.259	0.504
224.000	188.687	80.004	19.994	103.908	20.036	3.123	0.510
232.000	192.673	80.004	19.993	103.901	20.030	3.560	0.453
240.000	196.604	80.004	19.994	103.902	20.029	3.701	0.458
248.000	200.516	80.002	19.994	103.893	20.024	4.088	0.418
256.000	204.494	80.003	19.995	103.877	20.017	4.594	0.467
264.000	208.489	80.004	19.994	103.885	20.010	5.157	0.524
272.000	212.436	80.005	19.992	103.894	20.002	5.789	0.498
280.000	216.367	80.006	19.994	103.896	19.991	6.653	0.490
288.000	220.339	80.007	19.993	103.898	19.974	7.994	0.490
296.000	224.338	80.007	19.994	103.882	19.950	9.876	0.486
304.000	228.288	80.005	19.993	103.897	19.923	11.977	0.516
312.000	232.281	80.005	19.994	103.904	19.890	14.565	0.479
320.000	236.241	80.004	19.993	103.913	19.854	17.380	0.469
328.000	240.216	80.004	19.995	103.927	19.812	20.719	0.503
336.000	244.165	80.003	19.995	103.932	19.766	24.351	0.488
344.000	248.177	80.004	19.995	103.949	19.721	27.825	0.461
352.000	252.204	80.005	19.995	103.938	19.668	32.058	0.510
360.000	256.230	80.004	19.993	103.960	19.608	36.785	0.493
368.000	260.159	80.005	19.994	103.974	19.535	42.454	0.484
376.000	264.162	80.005	19.993	103.979	19.455	48.811	0.490
384.000	268.161	80.004	19.997	103.997	19.366	55.745	0.507
392.000	272.212	80.004	19.992	104.027	19.272	63.189	0.499
400.000	276.244	80.006	19.993	104.033	19.184	70.108	0.480
408.000	280.281	80.005	19.995	104.052	19.099	76.830	0.518
416.000	284.330	80.004	19.994	104.057	19.048	80.768	0.498
424.000	288.357	80.006	19.994	104.041	19.061	79.746	0.503
432.000	292.425	80.005	19.994	104.005	19.189	69.693	0.517
440.000	296.495	80.004	19.994	103.990	19.398	53.215	0.532
448.000	300.546	80.005	19.994	103.960	19.571	39.646	0.499
456.000	304.630	80.007	19.993	103.938	19.655	33.004	0.528
464.000	308.673	80.005	19.993	103.904	19.706	29.025	0.518
472.000	312.806	80.004	19.993	103.893	19.743	26.082	0.528
480.000	316.893	80.004	19.993	103.879	19.780	23.191	0.496
488.000	320.961	80.004	19.994	103.873	19.822	19.881	0.513
496.000	324.926	80.004	19.994	103.870	19.857	17.167	0.522
504.000	329.010	80.005	19.993	103.872	19.885	14.957	0.562
512.000	332.985	80.006	19.993	103.855	19.903	13.560	0.496
520.000	336.981	80.006	19.994	103.845	19.916	12.570	0.492
528.000	340.917	80.005	19.994	103.834	19.914	12.660	0.491
536.000	344.941	80.006	19.994	103.831	19.910	12.987	0.489
544.000	348.919	80.006	19.995	103.830	19.893	14.305	0.496
552.000	352.985	80.005	19.994	103.840	19.868	16.318	0.491
560.000	357.048	80.006	19.993	103.837	19.821	19.976	0.504
568.000	361.096	80.005	19.994	103.842	19.758	24.973	0.525
576.000	365.155	80.005	19.994	103.853	19.651	33.345	0.518
584.000	369.196	80.005	19.995	103.872	19.502	45.073	0.487
592.000	373.255	80.006	19.995	103.888	19.284	62.165	0.500
600.000	377.307	80.006	19.995	103.905	18.986	85.587	0.510
608.000	381.320	80.007	19.993	103.946	18.580	117.435	0.467
616.000	385.291	80.006	19.993	103.912	18.136	152.307	0.498
624.000	389.314	80.005	19.993	103.913	17.701	186.307	0.537
632.000	393.285	80.003	19.994	103.828	17.392	210.416	0.516
640.000	397.321	80.005	19.994	103.794	17.308	216.960	0.535
648.000	401.368	80.005	19.994	103.755	17.456	205.465	0.514
656.000	405.376	80.005	19.994	103.783	17.735	183.534	0.504
664.000	409.434	80.007	19.994	103.777	18.043	159.363	0.479
672.000	413.555	80.007	19.994	103.772	18.389	132.247	0.547
680.000	417.561	80.006	19.993	103.796	18.716	106.624	0.498
688.000	421.675	80.006	19.995	103.805	19.003	84.165	0.478
696.000	425.743	80.005	19.994	103.835	19.231	66.237	0.513
704.000	429.816	80.007	19.994	103.830	19.427	50.911	0.531
712.000	433.848	80.005	19.994	103.829	19.606	36.818	0.495
720.000	437.942	80.006	19.994	103.806	19.755	25.168	0.508
728.000	442.048	80.006	19.994	103.801	19.877	15.627	0.501
736.000	446.089	80.005	19.993	103.800	19.967	8.570	0.519
744.000	450.106	80.004	19.993	103.798	20.015	4.772	0.513
752.000	454.191	80.005	19.992	103.797	20.040	2.836	0.516
760.000	458.241	80.006	19.994	103.802	20.054	1.712	0.508
768.000	462.375	80.005	19.994	103.795	20.063	1.003	0.505
776.000	466.387	80.007	19.992	103.787	20.069	0.508	0.515
784.000	470.477	80.006	19.994	103.789	20.071	0.398	0.512
792.000	474.664	80.005	19.994	103.793	20.075	0.065	0.565
800.000	478.703	80.004	19.994	103.795	20.078	-0.132	0.503
808.000	482.797	80.003	19.994	103.794	20.076	0.015	0.512
816.000	486.931	80.004	19.995	103.799	20.075	0.093	0.498
824.000	490.994	80.004	19.994	103.796	20.072	0.268	0.487
832.000	495.125	80.008	19.993	103.797	20.076	0.019	0.512
840.000	499.164	80.005	19.994	103.795	20.075	0.030	0.500
848.000	503.245	80.006	19.993	103.790	20.074	0.143	0.517
856.000	507.327	80.007	19.993	103.788	20.077	-0.117	0.538
864.000	511.412	80.007	19.994	103.789	20.075	0.093	0.529
872.000	515.509	80.004	19.992	103.790	20.075	0.052	0.509
880.000	519.589	80.004	19.994	103.792	20.080	-0.324	0.505
888.000	523.702	80.002	19.995	103.799	20.078	-0.143	0.541
896.000	527.784	80.005	19.993	103.794	20.080	-0.301	0.514
904.000	531.891	80.003	19.994	103.793	20.080	-0.348	0.541
912.000	536.039	80.006	19.994	103.795	20.079	-0.285	0.531
920.000	540.139	80.006	19.994	103.787	20.081	-0.413	0.559
928.000	544.186	80.006	19.993	103.793	20.080	-0.331	0.518
936.000	548.177	80.008	19.993	103.859	20.078	-0.138	0.498
944.000	552.214	80.007	19.994	103.792	20.077	-0.123	0.483
952.000	556.288	80.004	19.993	103.795	20.080	-0.337	0.519
960.000	560.282	80.006	19.992	103.797	20.080	-0.320	0.490
968.000	564.302	80.005	19.994	103.794	20.082	-0.480	0.516
976.000	568.280	80.005	19.994	103.791	20.086	-0.798	0.467
984.000	572.158	80.004	19.995	103.798	20.080	-0.320	0.502
992.000	576.519	80.004	19.991	103.795	20.081	-0.370	0.451
1000.000	580.683	80.005	19.994	103.796	20.082	-0.502	0.494
1008.000	584.951	80.005	19.994	103.797	20.080	-0.311	0.557
1016.000	589.253	80.005	19.993	103.800	20.081	-0.393	0.546
1024.000	593.532	80.007	19.993	103.796	20.081	-0.389	0.564
1031.999	597.806	80.006	19.994	103.800	20.080	-0.305	0.517
1039.999	602.022	80.005	19.994	103.795	20.079	-0.218	0.514
1048.000	606.059	80.005	19.995	103.795	20.078	-0.145	0.513
1055.999	610.024	80.006	19.994	103.794	20.077	-0.123	0.505
1063.999	613.855	80.004	19.992	103.798	20.078	-0.199	0.488
1071.999	617.726	80.007	19.994	103.801	20.080	-0.342	0.481
1079.999	621.755	80.006	19.993	103.803	20.078	-0.151	0.522
1087.999	625.928	80.006	19.994	103.801	20.077	-0.093	0.537
1096.001	630.171	80.005	19.995	103.794	20.076	-0.041	0.526
1103.999	634.462	80.006	19.995	103.824	20.076	0.011	0.551
1111.999	638.678	80.006	19.994	103.802	20.076	-0.024	0.513
1119.999	642.769	80.005	19.993	103.813	20.079	-0.223	0.485
1128.000	646.812	80.005	19.993	103.804	20.077	-0.123	0.510
1135.999	650.844	80.006	19.994	103.807	20.075	0.030	0.509
1143.999	654.876	80.005	19.993	103.820	20.078	-0.205	0.495
1151.999	658.964	80.005	19.993	103.830	20.077	-0.054	0.540
1160.001	663.048	80.007	19.994	103.812	20.079	-0.218	0.512
1167.999	667.004	80.006	19.993	103.818	20.074	0.117	0.284
1175.999	670.974	80.006	19.994	103.823	20.075	0.056	0.174
1184.000	675.318	80.008	19.994	103.803	20.073	0.227	0.483
1191.999	679.537	80.007	19.993	103.805	20.071	0.357	0.545
1199.999	683.707	80.005	19.994	103.799	20.072	0.322	0.515
1208.000	687.976	80.006	19.993	103.796	20.074	0.171	0.515
1215.999	692.167	80.006	19.993	103.797	20.073	0.249	0.527
1224.000	696.373	80.005	19.994	103.791	20.075	0.056	0.514
1231.999	700.494	80.005	19.992	103.788	20.076	0.013	0.540
1240.000	704.424	80.007	19.994	103.789	20.074	0.123	0.516
1247.999	708.422	80.008	19.993	103.785	20.078	-0.166	0.492
1255.999	712.479	80.005	19.993	103.791	20.075	0.056	0.540
1263.999	716.519	80.006	19.994	103.783	20.073	0.184	0.520
1272.000	720.587	80.008	19.994	103.770	20.074	0.153	0.508
1279.999	724.600	80.004	19.993	103.775	20.069	0.517	0.496
1287.999	728.733	80.006	19.995	103.787	20.065	0.858	0.501
1295.999	732.786	80.004	19.994	103.789	20.071	0.413	0.503
1303.999	736.876	80.007	19.994	103.792	20.067	0.653	0.526
1311.999	740.928	80.006	19.993	103.783	20.067	0.659	0.502
1316.999	743.521	80.006	19.993	103.789	20.068	0.586	0.532

File: PE_Batting_82B_MCC_30K_min_220309_R3.txt
Sample ID:	C:\MCC\MCC Cal\Test\PE_batting_82B_MCC_30K_min_220309_R3.txt
Sample Weight (mg):	4.1
Heating Rate (C/s):	0.5
Combustor Temp (C):	900
N2 Flow Rate (cc/min):	80
O2 Flow Rate (cc/min):	20
Calibration File:	C:\MCC\MCC Cal\Coeff1 JN10440_30_210304.txt.txt
T Correction Coefficients:	0	1.024463	0
Time Shift (s):	14
*
Time (s)	Temperature (C)	N2 flow rate (cc/min)	O2 flow rate (cc/min)	Flow Rate (cc/min)	Oxygen (%)	HRR (W/g)	Heating rate (C/s)
0.000	106.988	80.007	19.993	103.710	19.985	0.281	0.007
8.002	106.996	80.008	19.994	103.708	19.985	0.253	0.020
16.000	106.970	80.009	19.993	103.738	19.978	0.806	0.003
24.000	107.091	80.008	19.992	103.778	19.971	1.345	0.035
32.000	107.527	80.009	19.992	103.836	19.963	2.012	0.085
40.000	108.343	80.008	19.994	103.906	19.949	3.097	0.131
48.000	109.644	80.007	19.994	103.941	19.941	3.738	0.176
56.000	111.349	80.006	19.994	103.930	19.941	3.760	0.252
64.000	113.383	80.007	19.995	103.945	19.939	3.888	0.279
72.002	115.836	80.007	19.995	103.944	19.936	4.161	0.350
80.001	118.450	80.007	19.994	103.944	19.937	4.061	0.370
88.000	121.266	80.006	19.993	103.947	19.937	4.020	0.346
96.001	124.399	80.009	19.993	103.964	19.938	3.992	0.440
104.000	127.607	80.007	19.992	103.962	19.935	4.173	0.378
112.000	131.007	80.008	19.993	103.966	19.934	4.300	0.380
120.001	134.610	80.009	19.992	103.981	19.931	4.538	0.464
128.000	138.260	80.009	19.993	103.967	19.929	4.690	0.466
136.000	142.066	80.008	19.994	103.967	19.928	4.742	0.455
144.000	145.978	80.008	19.994	103.961	19.929	4.685	0.468
152.000	149.945	80.007	19.993	103.958	19.928	4.754	0.510
160.000	153.878	80.007	19.994	103.948	19.932	4.486	0.480
168.000	157.926	80.006	19.994	103.948	19.931	4.556	0.509
176.000	161.947	80.006	19.994	103.948	19.932	4.447	0.471
184.000	165.969	80.008	19.992	103.943	19.934	4.296	0.535
192.000	170.006	80.007	19.994	103.943	19.931	4.521	0.495
200.000	174.013	80.010	19.994	103.943	19.930	4.607	0.505
208.000	178.044	80.010	19.993	103.931	19.930	4.625	0.504
216.000	182.010	80.008	19.994	103.922	19.935	4.245	0.497
224.000	186.008	80.009	19.993	103.919	19.927	4.845	0.519
232.000	189.981	80.009	19.993	103.918	19.921	5.306	0.488
240.000	193.901	80.008	19.994	103.909	19.923	5.120	0.502
248.001	197.833	80.006	19.993	103.913	19.919	5.466	0.495
256.000	201.778	80.008	19.993	103.912	19.913	5.941	0.506
264.000	205.717	80.008	19.994	103.909	19.907	6.460	0.493
272.000	209.702	80.009	19.994	103.907	19.894	7.446	0.514
280.000	213.659	80.009	19.993	103.908	19.884	8.213	0.488
288.000	217.606	80.010	19.992	103.910	19.869	9.461	0.494
296.000	221.574	80.008	19.993	103.923	19.849	10.982	0.485
304.000	225.555	80.008	19.993	103.914	19.827	12.762	0.522
312.000	229.613	80.007	19.993	103.925	19.799	14.993	0.518
320.000	233.552	80.007	19.993	103.929	19.764	17.756	0.474
328.000	237.549	80.006	19.993	103.936	19.727	20.634	0.515
336.000	241.499	80.006	19.993	103.945	19.688	23.713	0.460
344.000	245.553	80.010	19.993	103.951	19.641	27.488	0.495
352.000	249.562	80.009	19.994	103.972	19.588	31.644	0.519
360.001	253.523	80.009	19.993	103.982	19.533	35.987	0.483
368.000	257.491	80.009	19.993	103.996	19.464	41.479	0.502
376.000	261.429	80.008	19.993	104.006	19.389	47.470	0.458
384.000	265.456	80.007	19.994	104.028	19.304	54.199	0.504
392.000	269.443	80.008	19.993	104.037	19.213	61.387	0.476
400.000	273.557	80.007	19.993	104.063	19.111	69.435	0.527
408.000	277.504	80.008	19.993	104.069	19.012	77.322	0.475
416.000	281.588	80.008	19.993	104.100	18.930	83.799	0.493
424.000	285.684	80.011	19.994	104.096	18.885	87.350	0.515
432.000	289.687	80.007	19.993	104.063	18.952	82.040	0.501
440.000	293.793	80.009	19.993	104.030	19.191	63.052	0.496
448.000	297.822	80.009	19.994	104.021	19.404	46.238	0.518
456.001	301.867	80.005	19.996	103.969	19.504	38.280	0.474
464.000	305.905	80.006	19.994	103.947	19.556	34.215	0.490
472.000	309.970	80.006	19.994	103.942	19.598	30.820	0.513
480.000	314.095	80.006	19.994	103.925	19.647	26.998	0.524
488.000	318.163	80.007	19.993	103.906	19.696	23.119	0.476
496.000	322.286	80.007	19.993	103.908	19.733	20.176	0.544
504.000	326.298	80.009	19.992	103.896	19.758	18.218	0.480
512.000	330.292	80.007	19.993	103.895	19.779	16.500	0.508
520.000	334.323	80.005	19.994	103.890	19.794	15.390	0.498
528.000	338.340	80.008	19.993	103.869	19.797	15.091	0.539
536.000	342.330	80.009	19.993	103.868	19.794	15.325	0.476
544.000	346.323	80.006	19.994	103.869	19.780	16.456	0.511
552.000	350.303	80.005	19.995	103.867	19.753	18.557	0.481
560.000	354.364	80.008	19.993	103.868	19.724	20.869	0.509
568.000	358.265	80.008	19.992	103.866	19.664	25.624	0.481
576.000	362.324	80.008	19.993	103.877	19.579	32.363	0.505
584.000	366.298	80.007	19.994	103.900	19.451	42.488	0.515
592.000	370.182	80.009	19.993	103.909	19.275	56.446	0.475
600.000	374.187	80.009	19.994	103.943	19.022	76.433	0.497
608.000	378.156	80.008	19.994	103.948	18.686	103.028	0.484
616.000	382.077	80.009	19.993	103.950	18.274	135.557	0.501
624.001	386.054	80.007	19.993	103.944	17.847	169.276	0.476
632.000	389.977	80.007	19.993	103.936	17.478	198.442	0.474
640.000	393.981	80.006	19.994	103.870	17.265	215.135	0.522
648.000	398.021	80.007	19.993	103.824	17.273	214.502	0.492
656.000	402.081	80.007	19.993	103.799	17.469	198.997	0.503
664.000	406.262	80.008	19.993	103.820	17.747	177.028	0.526
672.000	410.399	80.010	19.993	103.787	18.070	151.545	0.478
680.000	414.510	80.008	19.993	103.815	18.422	123.743	0.486
688.001	418.593	80.009	19.992	103.829	18.733	99.190	0.499
696.000	422.707	80.010	19.993	103.847	18.996	78.400	0.527
704.000	426.850	80.009	19.992	103.843	19.223	60.481	0.502
712.000	430.867	80.006	19.995	103.859	19.416	45.256	0.483
720.000	435.042	80.008	19.994	103.864	19.575	32.653	0.619
728.000	439.094	80.010	19.994	103.863	19.700	22.740	0.246
736.000	443.157	80.007	19.996	103.844	19.800	14.833	0.530
744.000	447.121	80.008	19.995	103.846	19.871	9.250	0.481
752.000	451.236	80.009	19.993	103.832	19.908	6.313	0.513
760.000	455.333	80.009	19.992	103.833	19.925	5.030	0.555
768.000	459.414	80.007	19.994	103.835	19.936	4.100	0.540
776.000	463.543	80.009	19.993	103.833	19.937	4.042	0.527
784.000	467.699	80.010	19.991	103.832	19.940	3.804	0.546
792.000	471.798	80.007	19.992	103.828	19.942	3.618	0.516
800.000	475.999	80.008	19.992	103.830	19.943	3.560	0.506
808.000	480.158	80.008	19.995	103.827	19.945	3.403	0.510
816.000	484.336	80.008	19.995	103.828	19.945	3.436	0.502
824.000	488.489	80.006	19.995	103.832	19.945	3.394	0.501
832.000	492.685	80.007	19.993	103.829	19.948	3.163	0.546
840.000	496.825	80.008	19.993	103.822	19.947	3.222	0.534
848.000	500.947	80.008	19.995	103.828	19.951	2.910	0.515
856.000	504.962	80.010	19.992	103.832	19.950	3.048	0.491
864.000	509.067	80.011	19.994	103.827	19.950	3.019	0.512
872.000	513.131	80.008	19.994	103.832	19.948	3.146	0.509
880.000	517.236	80.009	19.993	103.830	19.949	3.074	0.494
888.000	521.323	80.009	19.992	103.831	19.947	3.237	0.480
896.000	525.359	80.009	19.993	103.830	19.949	3.100	0.521
904.000	529.319	80.007	19.994	103.832	19.951	2.972	0.471
912.000	533.374	80.008	19.994	103.836	19.944	3.468	0.532
920.000	537.497	80.011	19.993	103.827	19.949	3.076	0.492
928.000	541.714	80.008	19.993	103.828	19.946	3.353	0.561
936.000	545.875	80.009	19.995	103.830	19.948	3.183	0.491
944.000	550.102	80.011	19.994	103.826	19.947	3.228	0.549
952.000	554.265	80.008	19.992	103.829	19.948	3.215	0.535
960.000	558.480	80.006	19.993	103.828	19.951	2.954	0.531
968.000	562.675	80.005	19.992	103.830	19.953	2.777	0.490
976.000	566.833	80.007	19.993	103.825	19.951	2.906	0.494
984.001	570.943	80.008	19.993	103.805	19.951	2.950	0.514
992.000	575.036	80.007	19.994	103.823	19.946	3.313	0.514
1000.000	579.080	80.010	19.995	103.824	19.946	3.355	0.509
1008.000	583.085	80.010	19.994	103.827	19.948	3.182	0.505
1016.000	587.082	80.008	19.993	103.829	19.945	3.398	0.510
1024.000	591.107	80.009	19.993	103.828	19.949	3.075	0.496
1032.000	595.133	80.008	19.994	103.826	19.946	3.363	0.480
1040.000	599.211	80.006	19.994	103.829	19.951	2.921	0.501
1048.001	603.255	80.008	19.993	103.826	19.950	3.011	0.551
1056.000	607.303	80.008	19.993	103.825	19.951	2.947	0.502
1064.000	611.384	80.009	19.994	103.804	19.947	3.233	0.549
1072.001	615.493	80.007	19.992	103.810	19.946	3.320	0.530
1080.000	619.553	80.009	19.993	103.823	19.945	3.438	0.500
1088.001	623.666	80.008	19.993	103.826	19.950	2.991	0.543
1096.000	627.731	80.008	19.993	103.813	19.946	3.374	0.516
1104.001	631.824	80.008	19.992	103.824	19.947	3.248	0.514
1112.000	635.932	80.011	19.994	103.828	19.950	3.026	0.525
1120.000	639.913	80.007	19.994	103.822	19.950	2.993	0.458
1128.000	644.008	80.009	19.994	103.821	19.947	3.257	0.498
1136.000	648.193	80.007	19.994	103.822	19.943	3.540	0.530
1144.000	652.425	80.008	19.993	103.826	19.944	3.486	0.560
1152.000	656.646	80.007	19.993	103.823	19.945	3.438	0.520
1160.000	660.976	80.007	19.994	103.828	19.944	3.529	0.479
1168.001	665.195	80.010	19.993	103.822	19.945	3.427	0.531
1176.000	669.429	80.010	19.993	103.832	19.948	3.163	0.501
1184.000	673.611	80.010	19.993	103.826	19.943	3.577	0.533
1192.000	677.844	80.009	19.993	103.824	19.945	3.389	0.518
1200.000	681.901	80.009	19.994	103.816	19.943	3.541	0.498
1208.001	685.991	80.007	19.993	103.810	19.944	3.454	0.500
1216.001	689.943	80.008	19.994	103.796	19.947	3.295	0.485
1224.001	693.892	80.009	19.994	103.792	19.948	3.204	0.468
1232.001	697.793	80.009	19.993	103.792	19.947	3.269	0.464
1240.000	701.708	80.007	19.993	103.804	19.949	3.134	0.465
1248.000	705.709	80.010	19.994	103.802	19.947	3.278	0.492
1256.001	709.817	80.010	19.993	103.792	19.943	3.536	0.548
1264.001	713.966	80.010	19.994	103.797	19.939	3.920	0.487
1272.000	718.032	80.007	19.993	103.788	19.941	3.735	0.485
1280.000	722.221	80.010	19.992	103.797	19.944	3.511	0.513
1288.000	726.459	80.009	19.994	103.797	19.942	3.646	0.529
1296.001	730.655	80.007	19.993	103.795	19.940	3.824	0.523
1304.001	734.808	80.008	19.994	103.793	19.940	3.772	0.516
1312.000	738.910	80.006	19.993	103.791	19.940	3.822	0.498
1320.000	743.001	80.008	19.994	103.790	19.946	3.323	0.495
1321.001	743.475	80.008	19.994	103.790	19.942	3.630	0.507