Folder: fsri_materials_database/01_Data/PLA_3D_Printer_Filament/MCC (part 2)

File: PLA_3D_Printer_Filament_MCC_30K_min_220217_R3.txt
Sample ID:	C:\MCC\MCC Cal\Test\PLA_3D_Printer_Filament_MCC_30K_min_220217_R3.txt
Sample Weight (mg):	4.45
Heating Rate (C/s):	0.5
Combustor Temp (C):	900
N2 Flow Rate (cc/min):	80
O2 Flow Rate (cc/min):	20
Calibration File:	C:\MCC\MCC Cal\Coeff1 JN10440_30_210304.txt.txt
T Correction Coefficients:	0	1.024463	0
Time Shift (s):	14
*
Time (s)	Temperature (C)	N2 flow rate (cc/min)	O2 flow rate (cc/min)	Flow Rate (cc/min)	Oxygen (%)	HRR (W/g)	Heating rate (C/s)
0.000	112.725	80.005	19.994	103.700	19.980	-0.109	0.031
7.499	112.692	80.004	19.994	103.715	19.975	0.227	-0.020
14.999	112.895	80.006	19.994	103.836	19.960	1.326	0.038
22.499	113.453	80.007	19.993	103.891	19.946	2.377	0.077
29.999	114.421	80.006	19.994	103.885	19.944	2.478	0.129
37.499	115.745	80.005	19.994	103.922	19.938	2.959	0.151
45.000	117.503	80.005	19.994	103.921	19.936	3.076	0.249
52.499	119.539	80.004	19.994	103.922	19.936	3.103	0.286
59.999	121.890	80.005	19.993	103.928	19.933	3.304	0.314
67.499	124.390	80.004	19.995	103.949	19.931	3.475	0.342
74.999	127.128	80.005	19.994	103.950	19.929	3.586	0.375
82.499	130.026	80.006	19.994	103.952	19.932	3.365	0.436
89.999	133.049	80.006	19.994	103.952	19.928	3.655	0.386
97.499	136.296	80.007	19.994	103.962	19.927	3.713	0.454
104.999	139.611	80.008	19.996	103.961	19.932	3.395	0.392
112.499	143.139	80.005	19.993	103.954	19.927	3.712	0.514
119.999	146.653	80.005	19.993	103.942	19.928	3.669	0.514
127.499	150.228	80.006	19.994	103.953	19.931	3.483	0.484
135.000	153.941	80.005	19.994	103.949	19.932	3.387	0.498
142.500	157.625	80.005	19.994	103.948	19.928	3.644	0.490
150.000	161.335	80.006	19.994	103.943	19.928	3.649	0.519
157.500	165.026	80.005	19.994	103.918	19.932	3.348	0.489
165.000	168.748	80.006	19.994	103.918	19.930	3.491	0.491
172.500	172.486	80.007	19.995	103.925	19.928	3.660	0.490
180.000	176.223	80.008	19.993	103.939	19.928	3.681	0.490
187.500	179.954	80.005	19.994	103.914	19.930	3.490	0.514
195.000	183.665	80.005	19.994	103.912	19.933	3.333	0.517
202.500	187.411	80.006	19.995	103.912	19.935	3.188	0.500
210.000	191.172	80.004	19.993	103.903	19.934	3.249	0.526
217.500	194.936	80.005	19.994	103.908	19.932	3.347	0.504
225.000	198.640	80.004	19.993	103.911	19.935	3.167	0.531
232.500	202.334	80.005	19.994	103.898	19.935	3.121	0.512
240.000	206.102	80.006	19.994	103.905	19.938	2.918	0.496
247.500	209.849	80.004	19.994	103.893	19.937	3.027	0.513
255.000	213.540	80.006	19.996	103.892	19.933	3.276	0.489
262.500	217.238	80.007	19.994	103.897	19.936	3.083	0.470
270.000	220.967	80.006	19.994	103.890	19.939	2.893	0.489
277.500	224.702	80.004	19.994	103.889	19.939	2.882	0.489
285.000	228.419	80.003	19.994	103.878	19.935	3.183	0.494
292.500	232.157	80.003	19.995	103.891	19.941	2.702	0.480
300.000	235.911	80.006	19.994	103.877	19.937	3.008	0.503
307.500	239.598	80.005	19.994	103.874	19.938	2.968	0.471
315.000	243.357	80.005	19.994	103.877	19.939	2.891	0.513
322.500	247.088	80.007	19.995	103.874	19.939	2.887	0.479
330.000	250.900	80.007	19.992	103.874	19.940	2.813	0.511
337.500	254.622	80.005	19.992	103.875	19.940	2.783	0.535
345.000	258.433	80.007	19.994	103.870	19.935	3.122	0.501
352.500	262.194	80.005	19.994	103.871	19.935	3.163	0.506
360.000	265.904	80.005	19.994	103.869	19.937	2.974	0.495
367.500	269.736	80.005	19.993	103.855	19.934	3.219	0.539
375.000	273.485	80.005	19.995	103.868	19.925	3.889	0.493
382.500	277.272	80.004	19.995	103.874	19.928	3.690	0.512
390.000	281.015	80.003	19.995	103.868	19.925	3.877	0.542
397.500	284.766	80.005	19.994	103.861	19.921	4.141	0.539
405.000	288.527	80.006	19.994	103.871	19.919	4.287	0.499
412.500	292.297	80.005	19.995	103.870	19.912	4.837	0.501
420.000	295.967	80.007	19.993	103.872	19.903	5.483	0.479
427.500	299.651	80.010	19.994	103.868	19.896	5.982	0.467
435.000	303.399	80.007	19.994	103.866	19.883	6.925	0.506
442.500	307.172	80.003	19.994	103.878	19.864	8.353	0.491
450.000	310.912	80.005	19.995	103.890	19.841	10.013	0.513
457.500	314.706	80.005	19.994	103.913	19.810	12.238	0.526
465.000	318.495	80.004	19.994	103.905	19.778	14.593	0.486
472.500	322.352	80.004	19.996	103.926	19.727	18.287	0.523
480.000	326.168	80.005	19.995	103.944	19.669	22.562	0.501
487.500	329.952	80.006	19.993	104.011	19.574	29.484	0.482
495.000	333.733	80.005	19.994	104.001	19.457	38.039	0.504
502.500	337.523	80.007	19.995	104.110	19.299	49.605	0.503
510.000	341.342	80.007	19.994	104.147	19.129	62.107	0.526
517.500	345.111	80.005	19.995	104.256	18.915	77.851	0.484
525.000	348.925	80.004	19.994	104.337	18.637	98.326	0.538
532.500	352.732	80.006	19.994	104.478	18.321	121.600	0.493
540.000	356.534	80.006	19.995	104.592	17.951	148.883	0.487
547.500	360.257	80.005	19.994	104.678	17.577	176.519	0.490
555.000	363.967	80.006	19.993	104.834	17.218	202.958	0.480
562.500	367.733	80.007	19.994	104.854	16.922	224.520	0.492
570.000	371.568	80.006	19.995	104.817	16.804	232.966	0.545
577.500	375.441	80.004	19.994	104.718	16.942	222.450	0.532
585.000	379.388	80.005	19.994	104.582	17.334	193.055	0.551
592.500	383.386	80.007	19.995	104.378	17.907	151.025	0.549
600.000	387.431	80.006	19.994	103.877	18.877	80.238	0.536
607.500	391.488	80.006	19.996	103.977	19.494	35.285	0.532
615.000	395.481	80.005	19.995	103.847	19.727	18.297	0.536
622.500	399.416	80.006	19.994	103.809	19.809	12.356	0.525
630.000	403.218	80.004	19.995	103.796	19.845	9.724	0.527
637.500	406.950	80.004	19.994	103.794	19.858	8.772	0.515
645.000	410.624	80.006	19.994	103.814	19.863	8.421	0.505
652.500	414.248	80.006	19.994	103.807	19.865	8.251	0.453
660.000	417.907	80.005	19.995	103.825	19.861	8.515	0.496
667.500	421.544	80.006	19.995	103.831	19.862	8.443	0.476
675.000	425.318	80.007	19.994	103.825	19.867	8.105	0.496
682.500	429.123	80.005	19.994	103.819	19.860	8.583	0.502
690.000	432.974	80.005	19.994	103.809	19.855	8.981	0.519
697.500	436.892	80.005	19.995	103.820	19.854	9.070	0.524
705.000	440.790	80.006	19.993	103.819	19.848	9.519	0.519
712.500	444.669	80.007	19.993	103.802	19.841	10.023	0.527
720.000	448.532	80.006	19.994	103.802	19.835	10.464	0.516
727.500	452.412	80.008	19.994	103.821	19.827	11.016	0.513
735.000	456.292	80.006	19.994	103.798	19.816	11.788	0.512
742.500	460.097	80.006	19.995	103.798	19.809	12.312	0.484
750.000	463.903	80.007	19.995	103.799	19.807	12.454	0.508
757.500	467.695	80.007	19.995	103.789	19.802	12.809	0.528
765.000	471.526	80.006	19.994	103.796	19.797	13.180	0.519
772.500	475.311	80.005	19.993	103.734	19.804	12.713	0.500
780.000	479.179	80.004	19.994	103.803	19.818	11.681	0.536
787.500	482.954	80.005	19.994	103.802	19.834	10.489	0.536
795.000	486.722	80.004	19.994	103.797	19.861	8.527	0.486
802.500	490.540	80.006	19.994	103.803	19.884	6.832	0.491
810.000	494.492	80.006	19.993	103.806	19.903	5.467	0.531
817.500	498.301	80.006	19.993	103.800	19.921	4.200	0.506
825.000	502.142	80.006	19.994	103.804	19.927	3.758	0.512
832.500	505.926	80.007	19.993	103.798	19.933	3.305	0.484
840.000	509.753	80.007	19.994	103.799	19.932	3.354	0.508
847.500	513.565	80.005	19.995	103.803	19.933	3.281	0.506
855.000	517.424	80.004	19.994	103.798	19.939	2.856	0.534
862.500	521.306	80.006	19.993	103.797	19.940	2.805	0.521
870.000	525.151	80.005	19.994	103.796	19.941	2.696	0.534
877.500	529.016	80.005	19.996	103.799	19.945	2.457	0.521
885.000	532.883	80.006	19.994	103.799	19.943	2.569	0.521
892.500	536.735	80.008	19.994	103.802	19.946	2.328	0.490
900.000	540.586	80.006	19.995	103.798	19.942	2.652	0.524
907.500	544.343	80.005	19.994	103.806	19.943	2.537	0.510
915.000	548.167	80.008	19.994	103.808	19.943	2.587	0.511
922.500	552.038	80.007	19.994	103.802	19.943	2.602	0.524
930.000	555.896	80.004	19.995	103.796	19.942	2.620	0.496
937.500	559.696	80.005	19.994	103.801	19.938	2.947	0.501
945.000	563.578	80.004	19.995	103.794	19.930	3.490	0.483
952.500	567.266	80.004	19.995	103.797	19.943	2.582	0.443
960.000	570.702	80.003	19.995	103.800	19.943	2.604	0.236
967.500	575.173	80.006	19.994	103.798	19.940	2.772	0.508
975.000	579.037	80.006	19.994	103.797	19.942	2.642	0.584
982.500	582.826	80.006	19.994	103.797	19.940	2.823	0.530
990.000	586.663	80.006	19.995	103.793	19.937	3.022	0.480
997.500	590.530	80.009	19.993	103.783	19.938	2.913	0.510
1005.000	594.376	80.007	19.993	103.794	19.936	3.106	0.518
1012.500	598.252	80.006	19.994	103.794	19.937	2.984	0.511
1020.000	602.071	80.006	19.993	103.799	19.936	3.044	0.493
1027.499	605.841	80.007	19.994	103.797	19.936	3.060	0.493
1034.999	609.729	80.004	19.996	103.796	19.938	2.899	0.525
1042.499	613.505	80.003	19.996	103.791	19.940	2.821	0.478
1049.999	617.266	80.006	19.993	103.801	19.938	2.913	0.502
1057.499	621.066	80.007	19.993	103.793	19.937	3.018	0.534
1064.999	624.869	80.006	19.994	103.794	19.935	3.164	0.496
1072.499	628.693	80.007	19.994	103.795	19.936	3.074	0.498
1079.999	632.575	80.009	19.994	103.794	19.937	2.997	0.498
1087.500	636.477	80.006	19.994	103.794	19.937	3.034	0.533
1094.999	640.257	80.006	19.994	103.782	19.934	3.203	0.505
1102.499	643.980	80.004	19.994	103.775	19.934	3.199	0.492
1109.999	647.799	80.006	19.994	103.796	19.936	3.068	0.527
1117.499	651.644	80.005	19.994	103.796	19.933	3.265	0.537
1125.000	655.481	80.005	19.995	103.793	19.932	3.353	0.526
1132.499	659.274	80.007	19.994	103.792	19.927	3.764	0.517
1139.999	663.146	80.007	19.994	103.792	19.935	3.120	0.545
1147.499	667.012	80.006	19.994	103.789	19.934	3.253	1.052
1154.999	670.845	80.006	19.994	103.798	19.934	3.229	0.506
1162.500	674.814	80.009	19.995	103.796	19.936	3.064	0.531
1169.999	678.755	80.005	19.994	103.789	19.934	3.221	0.522
1177.499	682.574	80.004	19.993	103.799	19.935	3.177	0.523
1184.999	686.508	80.006	19.994	103.793	19.937	2.994	0.502
1192.499	690.394	80.006	19.995	103.783	19.936	3.068	0.519
1199.999	694.194	80.005	19.995	103.778	19.936	3.062	0.522
1207.499	698.001	80.005	19.995	103.789	19.936	3.076	0.501
1215.000	701.815	80.005	19.994	103.795	19.934	3.193	0.502
1222.499	705.638	80.005	19.995	103.795	19.934	3.217	0.499
1229.999	709.421	80.005	19.994	103.796	19.933	3.293	0.521
1237.499	713.240	80.007	19.992	103.803	19.930	3.504	0.512
1244.999	717.039	80.007	19.992	103.800	19.935	3.180	0.500
1252.499	720.865	80.005	19.994	103.793	19.929	3.565	0.515
1259.999	724.700	80.005	19.995	103.793	19.929	3.564	0.495
1267.499	728.550	80.007	19.993	103.794	19.929	3.611	0.496
1274.999	732.327	80.006	19.994	103.796	19.927	3.770	0.487
1282.499	736.098	80.004	19.995	103.793	19.924	3.965	0.459
1289.999	739.987	80.004	19.994	103.796	19.929	3.619	0.512
1297.499	743.858	80.008	19.995	103.798	19.927	3.734	0.504
1299.999	745.125	80.007	19.995	103.798	19.926	3.772	0.513