Folder: fsri_materials_database/01_Data/PLA_3D_Printer_Filament/MCC

Note: 01_Data/README.md
# Materials and Products Database
## 01_Data

Raw data generated from each apparatus are included here in plain-text format. The data is organized first by material, next by the short name of test apparatus used, and where applicable additional filtering by test settings.

### material.json

Each material directory contains a json file of the same name as the material. This file links the data stored in the repository as well as data and graphs produced by the accompanying scripts (__02_Scripts__) to the respective landing page for the material on the front-end website.

File: PLA_3D_Printer_Filament_MCC_30K_min_220216_R1.txt
Sample ID:	C:\MCC\MCC Cal\Test\PLA_3D_Printer_Filament_MCC_30K_min_220216_R1.txt
Sample Weight (mg):	4.6
Heating Rate (C/s):	0.5
Combustor Temp (C):	900
N2 Flow Rate (cc/min):	80
O2 Flow Rate (cc/min):	20
Calibration File:	C:\MCC\MCC Cal\Coeff1 JN10440_30_210304.txt.txt
T Correction Coefficients:	0	1.024463	0
Time Shift (s):	14
*
Time (s)	Temperature (C)	N2 flow rate (cc/min)	O2 flow rate (cc/min)	Flow Rate (cc/min)	Oxygen (%)	HRR (W/g)	Heating rate (C/s)
-0.001	115.024	80.014	19.993	103.667	20.087	-0.450	-0.025
7.498	114.991	80.003	19.994	103.664	20.087	-0.433	-0.050
14.999	114.969	80.004	19.992	103.674	20.086	-0.350	-0.010
22.500	114.947	79.993	19.994	103.709	20.082	-0.074	-0.017
29.998	115.184	80.001	19.992	103.843	20.061	1.370	0.046
37.499	115.886	79.999	19.994	103.889	20.048	2.338	0.140
44.998	117.061	80.007	19.994	103.909	20.042	2.716	0.192
52.500	118.737	80.009	19.989	103.940	20.040	2.890	0.261
59.999	120.824	80.010	19.992	103.949	20.034	3.289	0.310
67.499	123.333	80.003	19.997	103.967	20.032	3.414	0.346
74.999	126.131	80.002	19.993	103.967	20.031	3.530	0.377
82.500	129.229	80.013	19.993	103.966	20.029	3.629	0.426
89.999	132.606	80.014	19.994	103.970	20.032	3.409	0.473
97.498	136.103	80.004	19.995	103.982	20.029	3.636	0.486
104.999	139.815	80.002	19.994	103.972	20.033	3.390	0.512
112.500	143.673	80.002	19.994	103.957	20.036	3.131	0.516
119.999	147.606	80.013	19.992	103.941	20.036	3.157	0.548
127.498	151.600	80.011	19.991	103.942	20.036	3.142	0.538
134.999	155.517	80.014	19.993	103.942	20.044	2.595	0.476
142.499	159.421	80.011	19.993	103.929	20.045	2.500	0.511
150.000	163.305	80.009	19.993	103.922	20.046	2.465	0.485
157.499	167.190	80.007	19.992	103.903	20.048	2.332	0.525
165.000	170.994	80.002	19.996	103.895	20.050	2.170	0.493
172.500	174.736	80.007	19.992	103.887	20.053	1.936	0.495
179.999	178.453	79.999	19.994	103.890	20.056	1.715	0.466
187.499	182.131	80.006	19.994	103.889	20.056	1.766	0.535
194.998	185.768	80.017	19.993	103.890	20.056	1.721	0.446
202.500	189.468	80.006	19.993	103.875	20.056	1.736	0.476
209.998	193.063	80.018	19.990	103.879	20.058	1.621	0.444
217.500	196.705	80.019	19.992	103.885	20.058	1.625	0.446
224.999	200.360	80.013	19.991	103.887	20.058	1.640	0.499
232.500	204.027	80.018	19.990	103.864	20.059	1.509	0.509
240.000	207.636	79.994	19.995	103.880	20.062	1.321	0.460
247.499	211.421	80.012	19.993	103.864	20.060	1.456	0.501
254.999	215.082	80.009	19.995	103.861	20.066	1.064	0.474
262.499	218.846	80.019	19.990	103.857	20.063	1.279	0.502
270.000	222.581	80.018	19.993	103.867	20.064	1.189	0.518
277.499	226.297	80.003	19.992	103.871	20.065	1.115	0.508
285.000	230.116	80.007	19.995	103.859	20.066	1.022	0.500
292.499	233.856	80.014	19.992	103.860	20.062	1.326	0.504
299.999	237.614	80.009	19.992	103.862	20.061	1.416	0.524
307.498	241.327	80.010	19.992	103.853	20.059	1.564	0.491
314.999	245.138	80.007	19.993	103.860	20.061	1.389	0.521
322.498	248.896	79.999	19.994	103.855	20.066	1.060	0.515
329.999	252.697	80.009	19.993	103.859	20.064	1.185	0.512
337.500	256.494	80.003	19.995	103.861	20.062	1.345	0.471
344.998	260.259	80.000	19.994	103.860	20.059	1.531	0.516
352.500	263.993	80.012	19.993	103.855	20.059	1.549	0.493
359.999	267.726	80.001	19.995	103.848	20.056	1.741	0.506
367.499	271.488	80.011	19.993	103.842	20.059	1.520	0.506
375.000	275.249	80.005	19.995	103.852	20.053	1.950	0.479
382.499	278.939	79.999	19.995	103.837	20.050	2.173	0.499
389.999	282.698	80.011	19.994	103.853	20.045	2.521	0.508
397.499	286.440	80.009	19.994	103.858	20.042	2.749	0.491
404.998	290.233	80.019	19.990	103.841	20.038	3.004	0.513
412.500	294.028	80.006	19.991	103.858	20.029	3.659	0.504
419.998	297.792	80.009	19.993	103.855	20.020	4.257	0.511
427.499	301.509	80.005	19.993	103.861	20.003	5.495	0.508
434.998	305.223	80.008	19.994	103.861	19.981	7.007	0.451
442.500	309.018	80.007	19.994	103.869	19.953	9.038	0.483
449.998	312.851	80.003	19.995	103.873	19.928	10.742	0.502
457.499	316.634	80.004	19.994	103.877	19.908	12.198	0.504
464.999	320.402	80.009	19.993	103.902	19.868	14.968	0.499
472.500	324.161	80.003	19.994	103.916	19.814	18.815	0.503
479.999	327.966	80.006	19.993	103.957	19.748	23.457	0.486
487.499	331.854	80.009	19.993	103.981	19.674	28.715	0.499
494.999	335.706	80.012	19.992	104.004	19.569	36.119	0.496
502.499	339.571	80.006	19.994	104.031	19.450	44.562	0.527
509.999	343.348	80.007	19.994	104.110	19.291	55.837	0.482
517.500	347.124	80.004	19.993	104.227	19.085	70.517	0.517
524.999	350.889	80.006	19.992	104.310	18.821	89.317	0.502
532.499	354.592	80.005	19.994	104.441	18.482	113.440	0.460
540.000	358.304	80.005	19.993	104.556	18.098	140.866	0.480
547.500	361.927	80.011	19.994	104.686	17.693	169.776	0.479
554.999	365.504	80.011	19.994	104.801	17.303	197.484	0.505
562.499	369.157	80.007	19.994	104.816	17.004	218.593	0.501
569.999	372.861	80.010	19.992	104.830	16.866	228.257	0.459
577.498	376.748	80.006	19.992	104.724	16.948	222.044	0.531
585.000	380.669	80.003	19.993	104.590	17.296	196.900	0.541
592.499	384.646	80.016	19.991	104.383	17.886	154.780	0.542
599.999	388.790	80.005	19.993	104.073	18.682	98.653	0.557
607.499	392.984	80.008	19.994	103.973	19.402	47.845	0.573
614.999	397.201	80.007	19.992	103.898	19.748	23.415	0.530
622.498	401.306	80.009	19.994	103.820	19.887	13.661	0.543
629.999	405.306	80.015	19.995	103.779	19.946	9.498	0.507
637.499	409.240	80.004	19.997	103.772	19.972	7.674	0.515
644.999	413.061	80.008	19.992	103.783	19.982	6.923	0.498
652.499	416.794	80.014	19.994	103.785	19.985	6.726	0.520
660.000	420.535	79.999	19.992	103.786	19.988	6.514	0.495
667.499	424.221	80.005	19.993	103.786	19.984	6.822	0.488
675.000	427.988	80.009	19.992	103.791	19.980	7.088	0.506
682.499	431.676	79.999	19.995	103.782	19.978	7.241	0.500
689.999	435.430	80.012	19.994	103.784	19.972	7.651	0.451
697.499	439.275	80.005	19.997	103.789	19.969	7.885	0.517
704.999	443.005	80.011	19.992	103.779	19.966	8.085	0.503
712.498	446.769	79.995	19.996	103.785	19.952	9.090	0.529
719.999	450.580	80.031	19.992	103.787	19.950	9.226	0.515
727.500	454.369	80.014	19.993	103.786	19.941	9.814	0.491
734.998	458.169	80.006	19.994	103.786	19.937	10.117	0.500
742.499	461.978	80.006	19.996	103.781	19.933	10.440	0.512
749.999	465.721	80.017	19.993	103.781	19.923	11.130	0.530
757.500	469.570	80.007	19.992	103.778	19.923	11.076	0.536
764.999	473.387	80.008	19.994	103.768	19.929	10.710	0.538
772.499	477.217	80.013	19.993	103.779	19.938	10.055	0.545
780.000	481.024	80.008	19.994	103.778	19.949	9.248	0.511
787.500	484.889	80.008	19.993	103.766	19.976	7.352	0.528
794.999	488.685	80.006	19.993	103.774	19.999	5.793	0.523
802.499	492.497	80.008	19.993	103.786	20.021	4.234	0.472
809.999	496.374	80.019	19.993	103.781	20.037	3.088	0.506
817.498	500.235	80.009	19.993	103.782	20.051	2.088	0.481
824.999	504.072	80.008	19.994	103.778	20.062	1.321	0.507
832.499	507.907	80.008	19.995	103.782	20.064	1.181	0.477
839.999	511.833	80.006	19.996	103.785	20.069	0.808	0.496
847.500	515.666	80.005	19.995	103.783	20.073	0.563	0.495
854.999	519.544	80.005	19.993	103.785	20.074	0.489	0.490
862.499	523.401	80.006	19.994	103.787	20.071	0.717	0.521
869.999	527.231	80.009	19.993	103.780	20.074	0.492	0.515
877.499	531.038	80.008	19.993	103.774	20.077	0.268	0.537
884.999	534.982	80.008	19.994	103.784	20.069	0.816	0.516
892.499	538.861	80.008	19.995	103.768	20.072	0.608	0.518
900.000	542.674	80.003	19.993	103.783	20.071	0.683	0.522
907.500	546.557	80.012	19.984	103.775	20.071	0.682	0.526
915.000	550.459	80.009	19.993	103.771	20.073	0.534	0.547
922.499	554.355	80.006	19.997	103.772	20.072	0.643	0.536
929.999	558.296	80.005	19.995	103.773	20.071	0.721	0.572
937.498	562.219	80.004	19.993	103.780	20.068	0.918	0.521
945.000	566.110	80.010	19.992	103.779	20.070	0.738	0.491
952.499	570.065	80.010	19.992	103.780	20.070	0.768	0.513
960.000	574.014	80.009	19.994	103.775	20.070	0.776	0.491
967.499	578.047	80.009	19.994	103.761	20.072	0.641	0.515
974.999	581.930	80.008	19.992	103.764	20.070	0.797	0.538
982.498	585.779	80.008	19.993	103.765	20.069	0.819	0.521
989.998	589.586	80.010	19.992	103.763	20.068	0.886	0.489
997.499	593.350	80.002	19.998	103.772	20.069	0.800	0.478
1004.998	597.162	80.007	19.992	103.775	20.072	0.639	0.498
1012.499	600.945	80.009	19.995	103.760	20.070	0.738	0.501
1019.999	604.712	80.007	19.994	103.761	20.071	0.660	0.477
1027.499	608.449	80.010	19.994	103.769	20.069	0.840	0.491
1034.999	612.326	80.007	19.993	103.777	20.070	0.791	0.488
1042.499	616.246	80.006	19.994	103.779	20.066	1.021	0.522
1049.999	620.218	80.008	19.993	103.780	20.066	1.030	0.496
1057.499	624.153	80.007	19.994	103.774	20.064	1.203	0.514
1064.999	628.090	80.012	19.994	103.746	20.070	0.779	0.510
1072.499	632.000	80.010	19.993	103.779	20.064	1.205	0.481
1080.000	636.022	80.006	19.992	103.758	20.061	1.416	0.542
1087.499	639.815	80.008	19.994	103.768	20.060	1.435	0.472
1094.999	643.786	80.005	19.994	103.770	20.064	1.160	0.506
1102.500	647.541	80.006	19.993	103.776	20.065	1.118	0.583
1110.000	651.447	80.010	19.992	103.753	20.063	1.274	0.499
1117.500	655.316	80.004	19.993	103.747	20.061	1.418	0.477
1125.000	659.056	80.012	19.993	103.768	20.061	1.372	0.497
1132.498	662.779	80.007	19.994	103.766	20.063	1.245	0.494
1139.999	666.552	80.011	19.992	103.765	20.061	1.374	0.524
1147.500	670.267	80.009	19.993	103.769	20.059	1.570	0.492
1154.999	673.946	80.009	19.994	103.758	20.061	1.416	0.515
1162.498	677.714	80.004	19.991	103.769	20.056	1.779	0.485
1169.999	681.502	80.004	19.995	103.769	20.059	1.536	0.502
1177.498	685.214	80.005	19.995	103.755	20.060	1.450	0.511
1185.000	689.073	80.007	19.993	103.764	20.056	1.734	0.538
1192.499	692.861	80.012	19.992	103.752	20.058	1.633	0.503
1199.999	696.781	80.010	19.994	103.750	20.054	1.899	0.514
1207.499	700.709	80.009	19.994	103.751	20.056	1.753	0.524
1215.000	704.575	80.015	19.993	103.751	20.056	1.764	0.526
1222.499	708.461	80.008	19.993	103.750	20.057	1.665	0.515
1230.000	712.293	80.004	19.993	103.749	20.057	1.696	0.475
1237.500	716.194	80.006	19.992	103.766	20.050	2.135	0.514
1244.999	720.018	80.009	19.994	103.754	20.055	1.813	0.484
1252.500	723.810	80.011	19.992	103.752	20.050	2.156	0.463
1260.000	727.582	80.005	19.995	103.749	20.049	2.268	0.486
1267.500	731.288	80.008	19.993	103.764	20.051	2.098	0.504
1275.000	735.070	80.009	19.993	103.755	20.049	2.205	0.516
1282.499	738.774	80.007	19.992	103.756	20.050	2.199	0.466
1289.998	742.550	80.006	19.993	103.752	20.050	2.176	0.531
1291.999	743.552	80.009	19.993	103.754	20.047	2.395	0.480

File: PLA_3D_Printer_Filament_MCC_30K_min_220217_R2.txt
Sample ID:	C:\MCC\MCC Cal\Test\PLA_3D_Printer_Filament_MCC_30K_min_220217_R2.txt
Sample Weight (mg):	4.39
Heating Rate (C/s):	0.5
Combustor Temp (C):	900
N2 Flow Rate (cc/min):	80
O2 Flow Rate (cc/min):	20
Calibration File:	C:\MCC\MCC Cal\Coeff1 JN10440_30_210304.txt.txt
T Correction Coefficients:	0	1.024463	0
Time Shift (s):	14
*
Time (s)	Temperature (C)	N2 flow rate (cc/min)	O2 flow rate (cc/min)	Flow Rate (cc/min)	Oxygen (%)	HRR (W/g)	Heating rate (C/s)
0.000	113.945	80.006	19.994	103.707	19.867	0.036	0.029
7.500	113.893	80.005	19.997	103.702	19.868	-0.022	-0.002
15.000	113.857	80.005	19.993	103.711	19.867	0.053	-0.020
22.500	113.893	80.003	19.995	103.724	19.853	1.040	-0.014
30.000	114.123	80.005	19.994	103.811	19.844	1.709	0.062
37.500	114.575	80.001	19.995	103.908	19.835	2.372	0.119
45.000	115.569	80.004	19.993	103.990	19.817	3.728	0.191
52.500	117.234	80.005	19.993	103.992	19.816	3.775	0.255
60.001	119.327	80.004	19.992	103.992	19.814	3.935	0.310
67.500	121.751	80.005	19.994	103.987	19.812	4.051	0.354
75.000	124.540	80.003	19.992	103.986	19.808	4.370	0.384
82.500	127.537	80.006	19.995	103.989	19.815	3.858	0.394
90.000	130.726	80.006	19.993	103.991	19.808	4.345	0.426
97.500	134.178	80.002	19.994	103.995	19.807	4.480	0.475
105.000	137.682	80.005	19.994	103.991	19.808	4.368	0.475
112.500	141.354	80.007	19.994	103.991	19.805	4.609	0.510
120.001	145.183	80.002	19.995	103.995	19.810	4.223	0.501
127.500	149.016	80.004	19.993	103.984	19.811	4.190	0.531
135.000	152.937	80.005	19.995	103.972	19.812	4.090	0.510
142.500	156.805	80.007	19.995	103.975	19.814	3.943	0.502
150.000	160.644	80.004	19.991	103.956	19.812	4.052	0.513
157.500	164.469	80.005	19.991	103.953	19.816	3.765	0.498
165.000	168.301	80.007	19.993	103.942	19.817	3.726	0.489
172.500	172.048	80.002	19.994	103.947	19.816	3.801	0.496
180.000	175.772	80.004	19.994	103.946	19.815	3.870	0.477
187.500	179.479	79.995	19.993	103.927	19.819	3.543	0.497
195.000	183.130	80.003	19.995	103.932	19.820	3.453	0.461
202.500	186.788	80.005	19.998	103.912	19.820	3.519	0.498
210.000	190.446	80.004	19.992	103.922	19.823	3.265	0.500
217.500	194.114	80.002	19.995	103.918	19.820	3.461	0.498
225.000	197.756	80.003	19.995	103.927	19.822	3.313	0.492
232.500	201.393	80.010	19.997	103.935	19.819	3.553	0.494
240.000	205.040	79.999	19.995	103.930	19.823	3.252	0.499
247.500	208.773	80.002	19.996	103.913	19.821	3.427	0.505
255.000	212.514	80.014	19.995	103.912	19.818	3.670	0.501
262.500	216.253	80.014	19.990	103.913	19.820	3.478	0.499
270.000	220.000	80.017	19.986	103.890	19.822	3.362	0.515
277.500	223.768	80.008	19.991	103.919	19.824	3.188	0.485
285.000	227.566	80.004	19.991	103.906	19.821	3.449	0.499
292.500	231.385	79.991	19.995	103.912	19.827	3.005	0.477
300.000	235.146	80.010	19.993	103.904	19.823	3.246	0.538
307.500	238.859	80.015	19.993	103.897	19.823	3.277	0.476
315.000	242.561	80.008	19.996	103.925	19.822	3.333	0.487
322.500	246.329	80.009	19.994	103.892	19.823	3.241	0.529
330.000	250.090	79.999	19.994	103.882	19.822	3.331	0.515
337.500	253.849	80.013	19.993	103.871	19.819	3.552	0.491
345.001	257.566	80.002	19.995	103.898	19.823	3.268	0.496
352.500	261.226	80.008	19.991	103.879	19.824	3.199	0.442
360.000	265.023	80.001	19.993	103.889	19.822	3.367	0.515
367.500	268.698	79.999	19.993	103.899	19.818	3.633	0.521
375.000	272.434	80.003	19.993	103.891	19.819	3.536	0.480
382.500	276.196	79.999	19.994	103.878	19.816	3.765	0.489
390.000	279.968	80.011	19.995	103.887	19.812	4.104	0.500
397.500	283.735	80.016	19.992	103.904	19.815	3.852	0.514
405.000	287.471	80.012	19.992	103.909	19.807	4.440	0.529
412.500	291.250	80.008	19.995	103.890	19.801	4.860	0.496
420.000	295.060	80.014	19.993	103.897	19.802	4.840	0.518
427.500	298.839	80.003	19.996	103.897	19.791	5.638	0.533
435.000	302.615	80.004	19.994	103.912	19.781	6.345	0.485
442.500	306.415	80.007	19.995	103.908	19.765	7.578	0.526
450.000	310.232	80.005	19.994	103.916	19.734	9.841	0.494
457.500	314.064	80.004	19.994	103.909	19.710	11.648	0.499
465.000	317.848	80.000	19.994	103.923	19.682	13.723	0.490
472.500	321.729	80.007	19.995	103.942	19.647	16.287	0.516
480.000	325.539	80.001	19.995	103.939	19.592	20.366	0.520
487.500	329.365	80.006	19.995	103.977	19.520	25.654	0.515
495.000	333.217	80.005	19.993	104.031	19.426	32.653	0.535
502.500	337.033	80.010	19.993	104.080	19.286	43.053	0.541
510.000	340.876	80.005	19.995	104.134	19.120	55.381	0.518
517.500	344.618	80.004	19.995	104.206	18.921	70.211	0.527
525.000	348.393	80.004	19.995	104.325	18.662	89.529	0.483
532.500	352.112	80.014	19.992	104.433	18.330	114.355	0.488
540.000	355.792	80.004	19.994	104.556	17.959	142.074	0.488
547.500	359.460	80.006	19.994	104.704	17.565	171.533	0.481
555.000	363.094	80.008	19.994	104.815	17.171	200.998	0.521
562.500	366.686	80.013	19.991	104.880	16.845	225.312	0.496
570.000	370.372	80.007	19.994	104.853	16.668	238.046	0.457
577.500	374.181	80.010	19.990	104.783	16.710	234.639	0.516
585.000	377.990	80.007	19.993	104.716	17.040	209.519	0.543
592.500	381.964	80.005	19.994	104.448	17.646	164.142	0.544
600.000	386.018	80.003	19.993	104.029	18.573	95.540	0.557
607.500	390.186	80.003	19.996	104.015	19.285	42.953	0.554
615.000	394.294	80.006	19.996	103.892	19.576	21.517	0.568
622.500	398.341	80.006	19.991	103.833	19.681	13.742	0.520
630.000	402.287	80.004	19.994	103.802	19.720	10.841	0.505
637.500	406.204	80.007	19.995	103.811	19.737	9.603	0.536
645.000	410.015	80.005	19.994	103.836	19.742	9.261	0.499
652.500	413.775	80.006	19.994	103.845	19.747	8.893	0.504
660.000	417.449	80.008	19.993	103.836	19.747	8.867	0.510
667.500	421.147	80.010	19.993	103.830	19.749	8.752	0.487
675.000	424.837	80.007	19.994	103.832	19.747	8.840	0.484
682.500	428.530	80.006	19.994	103.832	19.746	8.928	0.492
690.000	432.258	80.005	19.994	103.835	19.743	9.145	0.487
697.500	436.099	80.006	19.994	103.839	19.737	9.616	0.535
705.000	439.859	80.006	19.995	103.833	19.735	9.727	0.507
712.500	443.660	80.006	19.995	103.830	19.727	10.348	0.511
720.000	447.454	80.007	19.994	103.862	19.724	10.539	0.526
727.500	451.237	80.006	19.994	103.823	19.717	11.089	0.484
735.000	455.135	80.007	19.993	103.818	19.712	11.440	0.488
742.500	458.943	80.008	19.993	103.813	19.705	11.939	0.519
750.000	462.781	80.010	19.994	103.829	19.702	12.206	0.521
757.500	466.654	80.008	19.993	103.822	19.697	12.534	0.531
765.000	470.535	80.006	19.994	103.823	19.691	13.002	0.492
772.500	474.435	80.007	19.994	103.812	19.695	12.684	0.496
780.000	478.276	80.007	19.993	103.826	19.705	11.976	0.486
787.500	482.200	80.006	19.994	103.819	19.719	10.926	0.515
795.000	486.024	80.005	19.994	103.823	19.743	9.181	0.489
802.500	489.917	80.006	19.994	103.820	19.768	7.321	0.521
810.000	493.810	80.007	19.994	103.804	19.786	5.992	0.536
817.500	497.729	80.007	19.994	103.828	19.797	5.158	0.545
825.000	501.545	80.007	19.993	103.834	19.814	3.941	0.477
832.500	505.379	80.008	19.993	103.832	19.817	3.680	0.484
840.000	509.219	80.007	19.993	103.833	19.813	3.999	0.481
847.500	512.926	80.005	19.994	103.819	19.826	3.041	0.469
855.000	517.149	80.007	19.993	103.804	19.823	3.285	0.960
862.500	520.445	80.004	19.994	103.830	19.826	3.018	0.561
870.000	524.514	80.005	19.994	103.830	19.824	3.214	0.524
877.500	528.252	80.007	19.994	103.805	19.826	3.077	0.468
885.000	532.070	80.007	19.994	103.827	19.828	2.881	0.505
892.500	535.917	80.006	19.995	103.820	19.825	3.088	0.489
900.000	539.719	80.006	19.995	103.821	19.829	2.836	0.493
907.500	543.502	80.007	19.993	103.825	19.828	2.864	0.482
915.000	547.303	80.007	19.993	103.826	19.829	2.854	0.530
922.500	551.157	80.005	19.994	103.813	19.825	3.149	0.492
930.000	554.924	80.006	19.995	103.798	19.821	3.381	0.484
937.500	558.781	80.006	19.995	103.817	19.826	3.030	0.498
945.000	562.652	80.007	19.994	103.816	19.826	3.030	0.525
952.500	566.459	80.004	19.994	103.826	19.828	2.900	0.522
960.000	570.348	80.005	19.994	103.800	19.824	3.184	0.529
967.500	574.243	80.007	19.995	103.806	19.827	2.970	0.558
975.000	578.094	80.006	19.994	103.814	19.825	3.148	0.510
982.500	581.907	80.006	19.995	103.831	19.828	2.883	0.511
990.000	585.693	80.007	19.995	103.806	19.828	2.879	0.496
997.500	589.491	80.009	19.993	103.820	19.826	3.067	0.512
1005.000	593.367	80.007	19.993	103.805	19.826	3.079	0.487
1012.500	597.186	80.006	19.993	103.813	19.826	3.022	0.485
1020.000	601.065	80.006	19.994	103.811	19.828	2.925	0.505
1027.501	604.908	80.007	19.993	103.803	19.824	3.191	0.501
1035.000	608.708	80.006	19.994	103.800	19.820	3.477	0.501
1042.500	612.501	80.005	19.993	103.814	19.822	3.321	0.467
1050.000	616.345	80.006	19.993	103.824	19.825	3.146	0.513
1057.500	620.194	80.008	19.993	103.795	19.826	3.051	0.488
1065.001	624.068	80.008	19.995	103.830	19.825	3.122	0.522
1072.501	627.912	80.009	19.994	103.815	19.822	3.319	0.500
1080.000	631.781	80.008	19.994	103.812	19.826	3.022	0.527
1087.500	635.660	80.005	19.994	103.812	19.823	3.247	0.536
1095.000	639.546	80.006	19.994	103.806	19.822	3.339	0.517
1102.500	643.304	80.006	19.995	103.833	19.825	3.118	0.500
1110.000	647.064	80.007	19.994	103.802	19.827	2.968	0.531
1117.500	650.801	80.004	19.995	103.830	19.827	3.002	0.463
1125.000	654.624	80.005	19.993	103.820	19.827	2.974	0.510
1132.500	658.304	80.006	19.994	103.818	19.825	3.087	0.506
1140.000	662.021	80.009	19.993	103.810	19.825	3.120	0.484
1147.500	665.660	80.006	19.994	103.786	19.826	3.061	0.473
1155.000	669.388	80.005	19.995	103.827	19.826	3.026	0.495
1162.500	673.175	80.009	19.994	103.829	19.824	3.183	0.522
1170.000	677.058	80.004	19.994	103.813	19.821	3.449	0.524
1177.501	680.912	80.005	19.994	103.755	19.825	3.132	0.513
1185.000	684.833	80.003	19.995	103.802	19.822	3.306	0.520
1192.500	688.838	80.006	19.994	103.814	19.823	3.251	0.548
1200.000	692.760	80.006	19.994	103.813	19.821	3.436	0.499
1207.500	696.750	80.004	19.994	103.816	19.826	3.047	0.552
1215.000	700.673	80.006	19.994	103.814	19.823	3.261	0.504
1222.501	704.511	80.008	19.994	103.809	19.818	3.599	0.535
1230.000	708.356	80.006	19.994	103.821	19.819	3.570	0.516
1237.500	712.098	80.007	19.993	103.815	19.821	3.388	0.507
1245.000	715.855	80.009	19.994	103.826	19.816	3.803	0.502
1252.500	719.634	80.006	19.995	103.870	19.817	3.740	0.509
1260.000	723.432	80.006	19.994	103.818	19.818	3.622	0.534
1267.500	727.181	80.008	19.994	103.805	19.820	3.493	0.543
1275.000	730.979	80.006	19.995	103.814	19.818	3.651	0.486
1282.500	734.781	80.003	19.996	103.814	19.814	3.963	0.530
1290.000	738.496	80.005	19.995	103.863	19.816	3.792	0.496
1297.500	742.298	80.007	19.995	103.802	19.816	3.784	0.511
1300.000	743.595	80.006	19.994	103.812	19.816	3.766	0.501