Folder: fsri_materials_database/01_Data/Pine_Lap_Siding/MCC

Note: 01_Data/README.md
# Materials and Products Database
## 01_Data

Raw data generated from each apparatus are included here in plain-text format. The data is organized first by material, next by the short name of test apparatus used, and where applicable additional filtering by test settings.

### material.json

Each material directory contains a json file of the same name as the material. This file links the data stored in the repository as well as data and graphs produced by the accompanying scripts (__02_Scripts__) to the respective landing page for the material on the front-end website.

File: Pine_Lap_Siding_MCC_30K_min_211123_R1.txt
Sample ID:	C:\MCC\MCC Cal\Test\PineLap_SidingC_MCC_30K_min_211123_R1.txt
Sample Weight (mg):	4.42
Heating Rate (C/s):	0.5
Combustor Temp (C):	900
N2 Flow Rate (cc/min):	80
O2 Flow Rate (cc/min):	20
Calibration File:	C:\MCC\MCC Cal\Coeff1 JN10440_30_210304.txt.txt
T Correction Coefficients:	0	1.024463	0
Time Shift (s):	14
*
Time (s)	Temperature (C)	N2 flow rate (cc/min)	O2 flow rate (cc/min)	Flow Rate (cc/min)	Oxygen (%)	HRR (W/g)	Heating rate (C/s)
0.000	108.510	80.002	19.997	103.044	20.004	0.312	-0.028
8.000	108.467	80.003	19.996	103.049	20.001	0.565	0.004
16.000	108.418	80.004	19.993	103.115	19.999	0.655	0.008
24.000	108.729	80.002	19.994	103.220	19.976	2.388	0.052
32.000	109.463	80.002	19.996	103.249	19.963	3.343	0.126
40.000	110.664	80.007	19.996	103.266	19.958	3.692	0.175
48.000	112.349	80.003	19.995	103.287	19.957	3.725	0.233
56.000	114.436	80.005	19.992	103.306	19.951	4.197	0.288
64.000	116.771	80.006	19.995	103.290	19.955	3.870	0.270
72.001	119.376	80.004	19.993	103.296	19.953	4.010	0.322
80.000	122.159	80.003	19.989	103.299	19.954	3.994	0.339
88.000	125.107	80.004	19.995	103.308	19.951	4.174	0.370
96.000	128.229	80.005	19.994	103.302	19.951	4.218	0.397
104.000	131.498	80.000	19.997	103.321	19.951	4.192	0.402
112.000	134.955	80.004	19.996	103.324	19.952	4.140	0.415
120.000	138.517	80.006	19.993	103.324	19.952	4.091	0.463
128.000	142.135	80.002	19.994	103.325	19.950	4.281	0.448
136.000	145.883	79.996	19.995	103.327	19.949	4.331	0.450
144.000	149.679	80.006	19.994	103.325	19.948	4.389	0.438
152.000	153.542	80.004	19.996	103.307	19.947	4.503	0.472
160.000	157.362	80.005	19.994	103.316	19.950	4.252	0.477
168.000	161.357	80.006	19.995	103.304	19.945	4.618	0.513
176.000	165.290	80.005	19.991	103.290	19.945	4.647	0.515
184.000	169.296	80.004	19.994	103.289	19.944	4.682	0.518
192.000	173.300	80.000	19.998	103.288	19.950	4.291	0.517
200.000	177.322	80.006	19.994	103.287	19.956	3.856	0.501
208.000	181.315	80.003	19.994	103.289	19.954	3.956	0.512
216.000	185.325	80.002	19.993	103.283	19.950	4.259	0.490
224.000	189.302	80.002	19.991	103.279	19.952	4.079	0.505
232.000	193.243	80.006	19.994	103.277	19.950	4.263	0.515
240.000	197.181	80.004	19.996	103.273	19.950	4.271	0.529
248.000	201.115	80.004	19.997	103.271	19.947	4.481	0.512
256.000	205.033	80.007	19.996	103.265	19.951	4.161	0.465
264.000	209.047	80.002	19.995	103.264	19.947	4.491	0.481
272.000	213.063	80.006	19.996	103.258	19.945	4.607	0.495
280.000	217.014	80.004	19.993	103.264	19.943	4.769	0.472
288.000	220.962	80.003	19.994	103.258	19.941	4.911	0.509
296.000	224.930	80.002	19.995	103.254	19.937	5.188	0.503
304.000	228.982	80.006	19.991	103.272	19.934	5.447	0.498
312.000	232.934	80.007	19.994	103.249	19.927	5.907	0.504
320.000	236.943	80.005	19.994	103.247	19.923	6.230	0.525
328.000	240.877	80.001	19.992	103.257	19.914	6.851	0.492
336.000	244.913	80.007	19.992	103.252	19.903	7.673	0.495
344.000	248.854	80.003	19.993	103.256	19.899	8.010	0.496
352.000	252.888	80.001	19.989	103.258	19.887	8.869	0.490
360.000	256.848	80.007	19.991	103.260	19.879	9.409	0.500
368.000	260.767	80.006	19.995	103.262	19.866	10.383	0.506
376.000	264.699	80.003	19.993	103.264	19.851	11.442	0.506
384.000	268.674	80.002	19.996	103.273	19.836	12.592	0.493
392.000	272.683	80.002	19.995	103.281	19.821	13.645	0.477
400.000	276.694	80.001	19.994	103.287	19.799	15.294	0.509
408.000	280.680	80.011	19.991	103.285	19.781	16.568	0.458
416.000	284.703	80.002	19.998	103.288	19.758	18.275	0.505
424.001	288.727	80.004	19.993	103.293	19.740	19.598	0.493
432.000	292.742	80.001	19.995	103.297	19.714	21.483	0.489
440.000	296.790	80.006	19.993	103.311	19.691	23.164	0.504
448.000	300.744	80.003	19.992	103.323	19.662	25.262	0.471
456.000	304.694	80.009	19.992	103.327	19.632	27.475	0.470
464.000	308.685	80.002	19.995	103.329	19.597	30.046	0.490
472.000	312.716	80.004	19.996	103.347	19.562	32.571	0.507
480.000	316.766	80.003	19.995	103.363	19.523	35.423	0.524
488.000	320.798	80.006	19.994	103.377	19.482	38.416	0.523
496.000	324.847	80.007	19.996	103.390	19.441	41.404	0.478
504.000	328.870	80.004	19.994	103.392	19.397	44.593	0.481
512.000	332.979	80.005	19.995	103.404	19.362	47.186	0.532
520.000	337.041	80.004	19.994	103.406	19.333	49.313	0.515
528.000	341.082	80.005	19.993	103.405	19.306	51.241	0.485
536.000	345.059	80.002	19.992	103.408	19.286	52.742	0.484
544.000	349.071	80.003	19.997	103.411	19.258	54.771	0.470
552.000	353.078	80.007	19.993	103.433	19.228	56.957	0.507
560.000	357.066	80.001	19.992	103.444	19.193	59.536	0.507
568.000	360.987	80.000	19.997	103.462	19.146	62.995	0.484
576.000	364.970	80.002	19.996	103.483	19.089	67.144	0.492
584.000	368.999	80.004	19.993	103.484	19.038	70.858	0.502
592.000	373.038	80.003	19.993	103.485	19.007	73.132	0.530
600.000	377.064	80.000	19.997	103.476	19.009	72.943	0.526
608.000	381.180	80.000	19.998	103.429	19.066	68.719	0.530
616.000	385.324	80.001	19.995	103.368	19.178	60.510	0.522
624.000	389.545	80.002	19.995	103.299	19.340	48.721	0.544
632.000	393.782	80.002	19.995	103.245	19.513	36.057	0.575
640.000	397.944	80.003	19.999	103.198	19.658	25.500	0.472
648.000	402.053	79.998	20.001	103.181	19.757	18.278	0.502
656.000	406.027	80.014	19.992	103.180	19.810	14.426	0.418
664.000	410.087	79.996	20.002	103.171	19.834	12.686	0.515
672.000	414.097	80.005	19.996	103.169	19.842	12.154	0.541
680.000	418.028	80.001	20.001	103.173	19.851	11.491	0.520
688.000	421.994	80.012	20.001	103.206	19.855	11.166	0.515
696.000	426.015	80.005	19.994	103.170	19.861	10.748	0.503
704.000	429.998	80.001	19.998	103.171	19.866	10.348	0.484
712.000	434.061	80.003	19.994	103.184	19.873	9.837	0.530
720.000	438.101	80.006	19.997	103.173	19.878	9.528	0.529
728.000	442.084	80.002	19.996	103.178	19.878	9.512	0.477
736.000	446.161	80.005	19.996	103.173	19.884	9.083	0.521
744.000	450.172	80.000	19.991	103.169	19.886	8.892	0.512
752.000	454.246	79.999	19.995	103.166	19.895	8.273	0.517
760.000	458.307	79.996	20.003	103.170	19.895	8.226	0.512
768.000	462.378	80.005	19.997	103.170	19.902	7.751	0.504
776.000	466.593	80.001	19.995	103.173	19.906	7.493	0.646
784.000	470.498	80.003	19.994	103.171	19.908	7.289	0.504
792.000	474.556	80.004	19.995	103.175	19.914	6.898	0.497
800.000	478.665	80.010	19.991	103.168	19.917	6.620	0.532
808.000	482.782	80.009	19.999	103.168	19.914	6.841	0.510
816.000	486.832	80.006	19.989	103.157	19.922	6.325	0.524
824.000	490.916	80.001	19.996	103.166	19.924	6.171	0.523
832.000	495.064	80.003	19.991	103.158	19.924	6.162	0.520
840.000	499.086	80.004	19.995	103.166	19.927	5.928	0.513
848.000	503.074	79.999	20.003	103.164	19.927	5.901	0.469
856.000	507.110	80.005	19.994	103.154	19.928	5.859	0.517
864.001	511.063	80.006	19.986	103.167	19.927	5.947	0.493
872.000	515.102	80.004	19.996	103.169	19.931	5.666	0.501
880.000	519.139	80.007	19.995	103.162	19.939	5.025	0.502
888.000	523.195	80.005	19.995	103.163	19.933	5.524	0.513
896.000	527.228	80.003	19.996	103.141	19.934	5.391	0.554
904.000	531.352	80.005	19.995	103.157	19.931	5.634	0.499
912.000	535.393	80.007	19.992	103.147	19.928	5.821	0.523
920.000	539.463	80.003	19.996	103.171	19.932	5.594	0.519
928.000	543.633	80.003	19.994	103.170	19.928	5.830	0.517
936.000	547.843	80.003	19.995	103.166	19.927	5.929	0.506
944.001	552.121	80.002	19.996	103.165	19.930	5.693	0.460
952.000	556.344	80.006	19.993	103.156	19.931	5.658	0.527
960.000	560.687	80.005	19.994	103.166	19.930	5.710	0.545
968.000	564.939	80.003	19.993	103.159	19.931	5.602	0.475
976.000	569.165	80.007	19.995	103.159	19.929	5.770	0.513
984.000	573.346	80.004	19.996	103.164	19.930	5.742	0.536
992.000	577.627	80.006	19.993	103.162	19.930	5.701	0.515
1000.000	581.780	80.003	19.991	103.161	19.928	5.890	0.512
1008.000	585.462	80.006	19.995	103.148	19.931	5.665	0.467
1016.000	590.079	79.997	19.998	103.158	19.931	5.614	0.438
1024.000	594.103	79.998	20.001	103.156	19.931	5.649	0.517
1032.000	598.077	80.002	19.996	103.150	19.932	5.570	0.510
1040.000	602.150	80.006	19.995	103.151	19.929	5.765	0.488
1048.000	606.132	80.006	19.993	103.149	19.927	5.923	0.497
1056.001	610.239	80.008	19.991	103.152	19.925	6.099	0.487
1064.001	614.321	80.004	19.994	103.149	19.926	6.032	0.507
1072.000	618.345	80.001	19.995	103.156	19.925	6.069	0.500
1080.001	622.435	80.003	19.993	103.149	19.925	6.090	0.493
1088.001	626.509	80.006	19.996	103.142	19.923	6.208	0.489
1096.000	630.635	80.002	19.992	103.164	19.927	5.899	0.518
1104.001	634.741	79.999	19.994	103.163	19.925	6.054	0.560
1112.000	638.746	80.002	19.997	103.170	19.924	6.151	0.517
1120.000	642.815	80.003	19.997	103.156	19.925	6.049	0.497
1128.000	646.783	80.004	19.995	103.166	19.922	6.272	0.503
1136.000	651.561	80.013	19.996	103.169	19.921	6.347	1.051
1144.000	654.812	80.005	19.996	103.170	19.925	6.097	0.488
1152.001	658.792	80.001	19.994	103.173	19.927	5.956	0.457
1160.001	662.880	80.004	19.993	103.178	19.921	6.337	0.534
1168.000	666.943	80.009	19.991	103.176	19.918	6.563	0.534
1176.000	670.946	80.006	19.994	103.180	19.919	6.507	0.503
1184.000	675.007	80.008	19.993	103.175	19.919	6.513	0.483
1192.000	679.039	80.006	19.992	103.172	19.921	6.355	0.525
1200.000	683.036	80.002	19.997	103.178	19.922	6.317	0.477
1208.000	687.044	80.005	19.996	103.169	19.921	6.329	0.502
1216.000	690.977	80.006	19.997	103.174	19.922	6.304	0.474
1224.001	694.958	80.008	19.992	103.171	19.916	6.742	0.499
1232.001	698.994	80.003	19.992	103.169	19.917	6.619	0.502
1240.000	702.910	80.000	19.994	103.153	19.915	6.820	0.466
1248.000	706.886	80.010	19.992	103.137	19.915	6.792	0.502
1256.000	710.943	80.004	19.996	103.133	19.918	6.597	0.522
1264.000	715.003	80.003	19.993	103.135	19.914	6.860	0.520
1272.000	719.102	79.996	19.998	103.125	19.917	6.620	0.496
1280.001	723.134	80.006	19.994	103.131	19.917	6.675	0.484
1288.001	727.245	80.000	19.998	103.133	19.915	6.802	0.516
1296.000	731.431	80.007	19.992	103.133	19.918	6.569	0.521
1304.000	735.485	80.005	19.994	103.134	19.914	6.876	0.485
1312.000	739.593	80.003	19.995	103.132	19.913	6.960	0.527
1320.000	743.578	80.007	19.993	103.131	19.912	7.013	0.519
1323.000	745.136	80.004	19.993	103.133	19.916	6.753	0.507