Folder: fsri_materials_database/01_Data/CPVC_Pipe/MCC

Note: 01_Data/README.md
# Materials and Products Database
## 01_Data

Raw data generated from each apparatus are included here in plain-text format. The data is organized first by material, next by the short name of test apparatus used, and where applicable additional filtering by test settings.

### material.json

Each material directory contains a json file of the same name as the material. This file links the data stored in the repository as well as data and graphs produced by the accompanying scripts (__02_Scripts__) to the respective landing page for the material on the front-end website.

File: CPVC_Pipe_MCC_30K_min_211119_R1.txt
Sample ID:	C:\MCC\MCC Cal\Test\CPVC_Pipe_MCC_30K_min_211119_R1.txt
Sample Weight (mg):	4.3
Heating Rate (C/s):	0.5
Combustor Temp (C):	900
N2 Flow Rate (cc/min):	80
O2 Flow Rate (cc/min):	20
Calibration File:	C:\MCC\MCC Cal\Coeff1 JN10440_30_210304.txt.txt
T Correction Coefficients:	0	1.024463	0
Time Shift (s):	14
*
Time (s)	Temperature (C)	N2 flow rate (cc/min)	O2 flow rate (cc/min)	Flow Rate (cc/min)	Oxygen (%)	HRR (W/g)	Heating rate (C/s)
0.000	107.534	80.004	19.996	102.970	20.318	-0.014	-0.014
8.000	107.494	80.003	19.997	102.968	20.317	0.059	-0.024
16.000	107.505	80.003	19.995	103.001	20.315	0.264	0.027
24.000	107.483	80.004	19.994	103.008	20.313	0.353	-0.011
32.000	107.564	80.004	19.995	103.047	20.309	0.650	0.008
39.999	107.861	80.005	19.995	103.077	20.299	1.453	0.043
47.999	108.361	80.004	19.994	103.144	20.288	2.262	0.063
55.999	109.299	80.005	19.996	103.165	20.280	2.865	0.100
63.999	110.579	80.003	19.996	103.214	20.274	3.296	0.159
71.999	112.281	80.003	19.994	103.221	20.271	3.524	0.186
80.000	114.373	80.005	19.994	103.233	20.267	3.838	0.290
87.999	116.740	80.004	19.995	103.205	20.265	3.947	0.287
95.999	119.356	80.002	19.995	103.223	20.264	4.088	0.335
103.999	122.112	80.004	19.996	103.222	20.262	4.238	0.360
111.999	125.088	80.005	19.994	103.240	20.265	4.016	0.410
119.999	128.203	80.004	19.996	103.244	20.262	4.197	0.392
127.999	131.531	80.004	19.995	103.227	20.260	4.370	0.452
136.000	135.010	80.007	19.994	103.261	20.263	4.110	0.467
144.000	138.557	80.003	19.994	103.262	20.260	4.346	0.464
152.000	142.166	80.003	19.995	103.242	20.258	4.531	0.461
160.000	146.000	80.002	19.995	103.254	20.254	4.781	0.465
168.000	149.835	80.003	19.994	103.259	20.257	4.598	0.497
176.000	153.779	80.002	19.995	103.262	20.257	4.556	0.486
184.000	157.724	80.002	19.994	103.229	20.260	4.376	0.515
192.000	161.708	80.004	19.994	103.229	20.256	4.657	0.467
200.000	165.797	80.004	19.994	103.242	20.257	4.566	0.537
208.000	169.775	80.005	19.995	103.221	20.260	4.327	0.495
216.000	173.773	80.005	19.996	103.212	20.256	4.660	0.489
224.000	177.810	80.003	19.994	103.236	20.255	4.764	0.490
232.000	181.856	80.002	19.995	103.220	20.257	4.587	0.499
240.000	185.909	80.005	19.994	103.226	20.258	4.515	0.535
248.000	189.924	80.003	19.996	103.219	20.257	4.606	0.469
256.000	193.939	80.003	19.994	103.217	20.254	4.783	0.495
264.000	197.869	80.004	19.994	103.220	20.254	4.794	0.488
272.000	201.786	80.007	19.994	103.215	20.252	4.956	0.484
280.000	205.762	80.005	19.995	103.213	20.252	4.958	0.532
288.000	209.744	80.005	19.994	103.219	20.250	5.072	0.513
296.000	213.700	80.007	19.994	103.199	20.249	5.190	0.512
304.000	217.545	80.005	19.996	103.185	20.242	5.729	0.499
312.000	221.366	80.002	19.996	103.216	20.239	5.897	0.490
320.000	225.235	80.003	19.995	103.196	20.231	6.495	0.473
328.000	229.220	80.004	19.995	103.201	20.223	7.135	0.517
336.000	233.121	80.004	19.994	103.180	20.215	7.735	0.476
344.000	237.104	80.002	19.995	103.195	20.203	8.607	0.526
352.000	241.029	80.006	19.995	103.208	20.200	8.833	0.472
360.000	245.012	80.005	19.995	103.187	20.210	8.082	0.443
368.000	249.048	80.005	19.996	103.220	20.224	7.044	0.509
376.000	253.056	80.007	19.995	103.220	20.231	6.491	0.487
384.000	257.101	80.007	19.996	103.218	20.238	5.983	0.486
392.000	261.045	80.004	19.994	103.205	20.240	5.838	0.492
400.000	265.062	80.003	19.997	103.220	20.240	5.836	0.494
408.000	269.100	80.005	19.997	103.222	20.241	5.746	0.546
416.000	273.022	80.005	19.995	103.226	20.235	6.254	0.483
424.000	276.900	80.004	19.994	103.221	20.229	6.664	0.483
432.000	280.890	80.005	19.994	103.250	20.224	7.043	0.511
440.000	284.856	80.005	19.995	103.257	20.216	7.665	0.508
448.000	288.772	80.005	19.995	103.272	20.205	8.486	0.489
456.000	292.827	80.007	19.994	103.287	20.198	8.985	0.494
464.000	296.745	80.006	19.994	103.330	20.185	10.002	0.486
472.000	300.761	80.004	19.994	103.334	20.162	11.745	0.490
480.000	304.633	80.004	19.995	103.377	20.152	12.451	0.450
488.000	308.814	80.004	19.995	103.377	20.132	13.953	0.487
496.000	312.972	80.002	19.995	103.376	20.121	14.782	0.493
504.000	317.155	80.003	19.995	103.377	20.112	15.404	0.542
512.000	321.325	80.006	19.995	103.254	20.110	15.529	0.541
520.000	325.476	80.006	19.994	103.076	20.132	13.877	0.549
528.000	329.567	80.007	19.996	102.977	20.152	12.457	0.551
536.000	333.623	80.006	19.994	103.033	20.149	12.686	0.496
544.000	337.729	80.007	19.994	103.150	20.137	13.569	0.518
552.000	341.712	80.005	19.994	103.252	20.134	13.796	0.482
560.000	345.675	80.004	19.994	103.314	20.141	13.273	0.472
568.000	349.652	80.005	19.994	103.359	20.151	12.537	0.509
576.000	353.760	80.003	19.995	103.355	20.159	11.900	0.525
584.000	357.741	80.004	19.995	103.381	20.168	11.279	0.511
592.000	361.680	80.003	19.996	103.362	20.165	11.506	0.514
600.000	365.598	80.005	19.995	103.357	20.172	10.961	0.467
608.000	369.589	80.004	19.994	103.354	20.175	10.754	0.476
616.000	373.705	80.005	19.994	103.328	20.173	10.916	0.479
624.000	377.790	80.006	19.995	103.327	20.172	10.960	0.532
632.000	381.859	80.005	19.993	103.327	20.171	11.002	0.497
640.000	385.925	80.005	19.994	103.304	20.173	10.856	0.530
648.000	390.023	80.004	19.994	103.297	20.175	10.732	0.521
656.000	394.219	80.004	19.995	103.293	20.177	10.587	0.544
664.000	398.268	80.003	19.995	103.279	20.171	11.048	0.515
672.000	402.398	80.003	19.994	103.278	20.170	11.113	0.547
680.000	406.422	80.006	19.994	103.284	20.174	10.781	0.537
688.000	410.542	80.006	19.995	103.259	20.174	10.797	0.559
696.000	414.467	80.006	19.995	103.259	20.174	10.796	0.473
704.000	418.581	80.008	19.992	103.269	20.171	11.028	0.512
712.000	422.632	80.007	19.993	103.232	20.165	11.470	0.523
720.000	426.611	80.005	19.994	103.260	20.162	11.687	0.468
728.000	430.697	80.005	19.994	103.252	20.153	12.395	0.509
736.000	434.771	80.006	19.995	103.254	20.144	13.067	0.477
744.000	438.816	80.005	19.994	103.256	20.139	13.455	0.501
752.000	442.942	80.003	19.996	103.253	20.124	14.523	0.519
760.000	447.020	80.004	19.995	103.240	20.116	15.151	0.514
768.000	451.091	80.006	19.994	103.219	20.102	16.219	0.472
776.000	455.134	80.005	19.996	103.221	20.093	16.904	0.524
784.000	459.185	80.004	19.995	103.234	20.088	17.270	0.507
792.000	463.248	80.005	19.996	103.214	20.080	17.854	0.498
800.000	467.290	80.005	19.994	103.232	20.074	18.255	0.498
808.000	471.305	80.000	19.995	103.239	20.081	17.779	0.491
816.000	475.412	80.008	19.994	103.242	20.088	17.214	0.528
824.000	479.470	80.002	19.994	103.207	20.100	16.359	0.509
832.000	483.585	80.004	19.994	103.219	20.111	15.475	0.508
840.000	487.625	80.005	19.995	103.217	20.122	14.698	0.515
848.000	491.655	80.004	19.994	103.219	20.132	13.912	0.489
856.000	495.767	80.006	19.995	103.194	20.138	13.513	0.493
864.000	499.846	80.005	19.994	103.195	20.150	12.555	0.536
872.000	503.916	80.007	19.995	103.206	20.151	12.490	0.482
880.000	508.067	80.006	19.994	103.198	20.157	12.068	0.514
888.000	512.123	80.005	19.994	103.187	20.158	12.002	0.509
896.000	516.281	80.002	19.995	103.181	20.157	12.064	0.515
904.000	520.395	80.003	19.995	103.187	20.161	11.740	0.513
912.000	524.588	80.007	19.995	103.197	20.160	11.874	0.532
920.000	528.678	80.005	19.995	103.190	20.159	11.934	0.513
928.000	532.836	80.005	19.996	103.179	20.160	11.855	0.554
936.000	537.001	80.007	19.994	103.193	20.159	11.920	0.518
944.000	541.050	80.008	19.994	103.207	20.162	11.724	0.484
952.000	545.107	80.004	19.994	103.211	20.158	12.025	0.521
960.000	549.143	80.007	19.994	103.177	20.165	11.468	0.509
968.000	553.124	80.007	19.994	103.189	20.162	11.667	0.538
976.000	557.213	80.005	19.994	103.184	20.161	11.782	0.503
984.000	561.265	80.003	19.995	103.174	20.158	11.975	0.503
992.000	565.305	80.004	19.996	103.175	20.159	11.897	0.506
1000.000	569.443	80.006	19.995	103.175	20.158	12.023	0.508
1008.000	573.686	80.003	19.994	103.178	20.155	12.203	0.549
1016.000	577.880	80.005	19.995	103.178	20.157	12.053	0.537
1024.000	582.048	80.005	19.994	103.178	20.152	12.443	0.515
1031.999	586.238	80.006	19.993	103.180	20.158	11.993	0.527
1040.000	590.366	80.007	19.993	103.180	20.161	11.767	0.507
1048.000	594.556	80.008	19.995	103.172	20.156	12.133	0.535
1056.000	598.690	80.005	19.995	103.176	20.153	12.361	0.529
1063.999	602.802	80.005	19.995	103.174	20.148	12.726	0.517
1071.999	606.928	80.004	19.995	103.166	20.157	12.037	0.497
1079.999	610.986	80.003	19.994	103.158	20.156	12.150	0.504
1087.999	614.996	80.004	19.996	103.163	20.154	12.320	0.489
1095.999	619.033	80.004	19.994	103.171	20.155	12.178	0.469
1103.999	622.994	80.005	19.994	103.168	20.158	11.956	0.493
1112.000	626.875	80.006	19.995	103.163	20.153	12.399	0.477
1119.999	630.814	80.008	19.995	103.153	20.156	12.152	0.493
1127.999	634.812	80.009	19.993	103.168	20.156	12.172	0.500
1135.999	638.815	80.009	19.993	103.172	20.154	12.322	0.504
1144.000	642.851	80.004	19.994	103.165	20.146	12.878	0.491
1152.000	646.827	80.004	19.994	103.170	20.142	13.209	0.507
1160.000	650.759	80.005	19.995	103.166	20.149	12.667	0.451
1167.999	654.868	80.006	19.994	103.171	20.148	12.725	0.514
1175.999	658.957	80.004	19.994	103.161	20.148	12.702	0.483
1183.999	663.136	80.007	19.994	103.162	20.145	12.965	0.534
1191.999	667.324	80.007	19.993	103.153	20.148	12.726	0.546
1199.999	671.508	80.006	19.994	103.173	20.145	12.974	0.490
1208.000	675.790	80.007	19.994	103.173	20.143	13.119	0.511
1216.000	679.959	80.008	19.994	103.174	20.141	13.266	0.558
1224.000	684.114	80.006	19.994	103.175	20.144	13.058	0.528
1231.999	688.235	80.006	19.995	103.169	20.144	13.031	0.515
1239.999	692.372	80.006	19.994	103.174	20.142	13.211	0.539
1247.999	696.454	80.005	19.995	103.163	20.140	13.368	0.490
1255.999	700.573	80.006	19.994	103.176	20.140	13.331	0.510
1263.999	704.664	80.006	19.993	103.149	20.135	13.699	0.518
1271.999	708.731	80.007	19.996	103.161	20.131	13.974	0.490
1280.000	712.806	80.007	19.995	103.162	20.127	14.329	0.499
1288.000	716.875	80.005	19.994	103.146	20.129	14.149	0.511
1295.999	720.918	80.007	19.993	103.168	20.128	14.193	0.500
1303.999	724.996	80.007	19.993	103.139	20.123	14.620	0.503
1311.999	728.924	80.006	19.995	103.136	20.122	14.695	0.455
1319.999	732.930	80.006	19.994	103.139	20.121	14.746	0.504
1327.999	736.941	80.007	19.994	103.139	20.125	14.456	0.466
1336.000	740.980	80.007	19.995	103.147	20.123	14.602	0.507
1341.499	743.785	80.005	19.995	103.176	20.122	14.647	0.511

File: CPVC_Pipe_MCC_30K_min_211119_R2.txt
Sample ID:	C:\MCC\MCC Cal\Test\CPVC_Pipe_MCC_30K_min_211119_R2.txt
Sample Weight (mg):	4.59
Heating Rate (C/s):	0.5
Combustor Temp (C):	900
N2 Flow Rate (cc/min):	80
O2 Flow Rate (cc/min):	20
Calibration File:	C:\MCC\MCC Cal\Coeff1 JN10440_30_210304.txt.txt
T Correction Coefficients:	0	1.024463	0
Time Shift (s):	14
*
Time (s)	Temperature (C)	N2 flow rate (cc/min)	O2 flow rate (cc/min)	Flow Rate (cc/min)	Oxygen (%)	HRR (W/g)	Heating rate (C/s)
0.000	107.968	80.005	19.995	103.013	20.300	-0.274	-0.004
8.000	107.935	80.008	19.994	103.021	20.300	-0.255	0.020
16.000	108.009	80.006	19.993	103.067	20.293	0.196	0.036
24.000	108.238	80.004	19.995	103.081	20.288	0.580	0.047
32.000	108.685	80.006	19.994	103.110	20.284	0.846	0.033
40.000	109.468	80.006	19.994	103.195	20.266	2.096	0.125
48.000	110.689	80.006	19.994	103.262	20.263	2.331	0.198
56.001	112.383	80.005	19.994	103.270	20.255	2.928	0.258
64.000	114.557	80.007	19.994	103.302	20.251	3.176	0.292
72.000	117.118	80.006	19.993	103.307	20.248	3.393	0.360
80.000	119.975	80.006	19.994	103.308	20.246	3.522	0.389
88.000	123.214	80.006	19.995	103.302	20.250	3.263	0.421
96.001	126.625	80.007	19.994	103.309	20.244	3.680	0.460
104.000	130.322	80.004	19.994	103.305	20.246	3.502	0.487
112.000	134.013	80.004	19.993	103.293	20.246	3.509	0.473
120.000	137.911	80.006	19.996	103.295	20.248	3.414	0.503
128.001	141.800	80.004	19.995	103.258	20.245	3.601	0.472
136.000	145.866	80.003	19.993	103.289	20.249	3.321	0.527
144.000	149.888	80.007	19.995	103.274	20.251	3.153	0.541
152.000	153.934	80.005	19.994	103.256	20.258	2.721	0.536
160.000	157.953	80.006	19.994	103.258	20.256	2.824	0.498
168.000	162.016	80.008	19.994	103.289	20.259	2.631	0.499
176.000	166.054	80.007	19.994	103.278	20.256	2.840	0.500
184.000	170.031	80.006	19.994	103.246	20.253	3.050	0.473
192.000	173.940	80.004	19.995	103.250	20.255	2.887	0.474
200.000	177.871	80.006	19.995	103.227	20.253	3.012	0.465
208.000	181.811	80.004	19.994	103.236	20.250	3.257	0.528
216.000	185.717	80.005	19.997	103.237	20.256	2.818	0.524
224.000	189.617	80.008	19.994	103.234	20.250	3.248	0.496
232.000	193.502	80.006	19.993	103.242	20.249	3.336	0.463
240.001	197.378	80.007	19.994	103.222	20.245	3.567	0.495
248.001	201.242	80.009	19.993	103.233	20.247	3.440	0.469
256.000	205.178	80.007	19.992	103.238	20.243	3.768	0.510
264.000	209.230	80.006	19.995	103.239	20.239	4.027	0.505
272.000	213.184	80.005	19.994	103.228	20.247	3.472	0.522
280.000	217.137	80.005	19.994	103.234	20.239	4.001	0.484
288.000	221.151	80.007	19.994	103.226	20.234	4.397	0.489
296.000	225.186	80.005	19.995	103.219	20.225	5.018	0.525
304.000	229.130	80.006	19.996	103.215	20.220	5.353	0.505
312.000	233.167	80.007	19.993	103.207	20.212	5.925	0.506
320.000	237.128	80.006	19.993	103.217	20.207	6.283	0.514
328.000	241.108	80.008	19.993	103.216	20.198	6.890	0.515
336.000	244.980	80.007	19.993	103.221	20.210	6.049	0.478
344.000	248.998	80.005	19.993	103.238	20.227	4.876	0.474
352.000	253.020	80.004	19.993	103.247	20.238	4.076	0.479
360.000	256.995	80.006	19.993	103.221	20.246	3.495	0.452
368.000	260.953	80.004	19.994	103.217	20.247	3.455	0.470
376.000	264.969	80.005	19.995	103.220	20.249	3.334	0.504
384.000	268.936	80.008	19.994	103.238	20.244	3.645	0.494
392.000	273.014	80.005	19.994	103.235	20.247	3.454	0.494
400.001	277.011	80.005	19.995	103.261	20.245	3.601	0.466
408.000	281.064	80.005	19.993	103.275	20.236	4.263	0.532
416.000	285.043	80.006	19.994	103.280	20.230	4.661	0.478
424.000	289.099	80.005	19.994	103.299	20.219	5.441	0.491
432.000	293.142	80.006	19.994	103.326	20.208	6.199	0.519
440.000	297.167	80.006	19.994	103.337	20.195	7.089	0.528
448.000	301.143	80.003	19.993	103.370	20.178	8.309	0.502
456.000	305.140	80.005	19.996	103.402	20.159	9.622	0.504
464.000	309.190	80.005	19.993	103.405	20.135	11.312	0.493
472.000	313.224	80.006	19.993	103.391	20.133	11.505	0.491
480.000	317.186	80.004	19.994	103.346	20.124	12.060	0.500
488.000	321.240	80.007	19.996	103.282	20.128	11.814	0.470
496.000	325.216	80.007	19.994	103.053	20.151	10.186	0.463
504.000	329.203	80.007	19.994	102.982	20.168	8.985	0.481
512.000	333.207	80.007	19.994	103.075	20.159	9.657	0.488
520.000	337.174	80.005	19.994	103.231	20.146	10.555	0.463
528.000	341.177	80.006	19.993	103.335	20.150	10.311	0.486
536.000	345.185	80.006	19.993	103.393	20.154	9.978	0.508
544.000	349.150	80.007	19.994	103.409	20.162	9.442	0.499
552.000	353.182	80.006	19.995	103.405	20.174	8.569	0.491
560.000	357.212	80.003	19.994	103.396	20.184	7.905	0.515
568.000	361.172	80.006	19.995	103.380	20.193	7.290	0.500
576.001	365.226	80.005	19.994	103.370	20.196	7.054	0.536
584.000	369.234	80.004	19.995	103.366	20.202	6.651	0.471
592.000	373.259	80.000	19.994	103.357	20.200	6.755	0.495
600.000	377.268	80.005	19.994	103.335	20.207	6.280	0.530
608.000	381.336	80.006	19.995	103.330	20.204	6.488	0.597
616.000	385.230	80.006	19.994	103.330	20.208	6.207	0.476
624.000	389.211	80.008	19.994	103.327	20.211	5.956	0.468
632.000	393.225	80.005	19.994	103.305	20.211	6.021	0.563
640.000	397.225	80.005	19.994	103.301	20.214	5.770	0.484
648.000	401.249	80.007	19.993	103.304	20.214	5.767	0.488
656.000	405.238	80.008	19.994	103.295	20.217	5.578	0.529
664.000	409.253	80.005	19.995	103.303	20.216	5.614	0.518
672.000	413.316	80.005	19.995	103.292	20.215	5.674	0.472
680.000	417.392	80.005	19.995	103.277	20.216	5.662	0.545
688.000	421.403	80.007	19.993	103.257	20.211	5.963	0.514
696.000	425.396	80.003	19.994	103.253	20.207	6.251	0.481
704.001	429.476	80.007	19.995	103.255	20.206	6.360	0.531
712.000	433.541	80.006	19.994	103.256	20.198	6.893	0.533
720.000	437.628	80.005	19.994	103.255	20.190	7.488	0.525
728.000	441.673	80.009	19.993	103.256	20.177	8.390	0.518
736.000	445.682	80.008	19.995	103.244	20.169	8.958	0.494
744.000	449.707	80.005	19.995	103.250	20.156	9.824	0.505
752.000	453.775	80.004	19.994	103.235	20.146	10.519	0.487
760.000	457.845	80.006	19.995	103.225	20.134	11.393	0.496
768.000	461.992	80.004	19.995	103.249	20.128	11.787	0.536
776.000	466.029	80.004	19.995	103.230	20.125	12.013	0.529
784.000	470.077	80.008	19.994	103.222	20.122	12.209	0.515
792.000	474.158	80.003	19.993	103.216	20.136	11.255	0.520
800.000	478.141	80.005	19.994	103.205	20.146	10.511	0.501
808.000	482.131	80.006	19.994	103.247	20.168	8.987	0.485
816.000	486.123	80.009	19.996	103.203	20.178	8.326	0.493
824.000	490.035	80.005	19.995	103.215	20.196	7.024	0.505
832.000	493.992	80.004	19.995	103.214	20.204	6.450	0.497
840.000	498.044	80.003	19.995	103.215	20.206	6.336	0.485
848.000	502.069	80.002	19.995	103.217	20.217	5.550	0.498
856.000	506.140	80.004	19.995	103.224	20.221	5.273	0.531
864.000	510.383	80.005	19.995	103.189	20.221	5.264	0.495
872.000	514.703	80.006	19.993	103.189	20.226	4.951	0.563
880.000	519.134	80.006	19.995	103.211	20.225	5.027	0.546
888.000	523.589	80.007	19.995	103.208	20.230	4.653	0.527
896.000	528.061	80.007	19.993	103.207	20.236	4.199	0.587
904.000	532.469	80.006	19.994	103.203	20.243	3.717	0.531
912.000	536.922	80.004	19.994	103.197	20.241	3.858	0.529
920.000	541.268	80.004	19.995	103.207	20.239	4.001	0.500
928.000	545.572	80.004	19.994	103.183	20.240	3.937	0.525
936.000	549.872	80.003	19.995	103.184	20.241	3.865	0.538
944.000	554.143	80.005	19.995	103.183	20.243	3.716	0.546
952.000	558.393	80.007	19.994	103.201	20.245	3.575	0.506
960.000	562.525	80.005	19.993	103.173	20.245	3.575	0.498
968.000	566.658	80.007	19.993	103.163	20.246	3.520	0.508
976.000	570.649	80.005	19.993	103.177	20.247	3.489	0.503
984.000	574.645	80.004	19.993	103.184	20.245	3.596	0.496
992.000	578.623	80.004	19.994	103.173	20.249	3.299	0.495
1000.000	582.657	80.006	19.995	103.178	20.252	3.138	0.517
1008.000	586.697	80.005	19.994	103.205	20.250	3.227	0.510
1016.000	590.659	80.005	19.995	103.164	20.254	2.964	0.480
1024.000	594.651	80.005	19.994	103.188	20.254	2.987	0.511
1032.000	598.584	80.005	19.995	103.157	20.253	3.008	0.491
1040.000	602.507	80.003	19.995	103.187	20.258	2.696	0.460
1048.000	606.513	80.006	19.994	103.168	20.261	2.482	0.491
1056.000	610.369	80.008	19.994	103.161	20.261	2.486	0.495
1064.000	614.319	80.005	19.993	103.175	20.261	2.452	0.496
1072.000	618.278	80.005	19.994	103.179	20.264	2.250	0.514
1080.000	622.217	80.005	19.995	103.172	20.270	1.860	0.487
1088.000	626.154	80.004	19.993	103.172	20.261	2.443	0.498
1096.000	630.142	80.004	19.994	103.178	20.266	2.099	0.485
1104.000	634.256	80.005	19.995	103.177	20.264	2.263	0.509
1112.000	638.446	80.007	19.995	103.165	20.264	2.252	0.514
1120.000	642.637	80.005	19.993	103.145	20.266	2.105	0.532
1128.001	646.780	80.005	19.995	103.164	20.271	1.753	0.521
1136.000	650.963	80.005	19.996	103.181	20.271	1.787	0.535
1144.000	655.191	80.004	19.994	103.168	20.273	1.603	0.521
1152.001	659.301	80.005	19.993	103.179	20.270	1.854	0.534
1160.000	663.439	80.005	19.994	103.172	20.276	1.448	0.504
1168.000	667.476	80.004	19.994	103.161	20.272	1.685	0.503
1176.000	671.541	80.003	19.994	103.175	20.278	1.288	0.517
1184.000	675.609	80.006	19.994	103.152	20.273	1.614	0.467
1192.000	679.694	80.007	19.995	103.149	20.273	1.647	0.539
1200.000	683.694	80.006	19.995	103.147	20.273	1.637	0.502
1208.001	687.730	80.006	19.994	103.149	20.274	1.583	0.470
1216.000	691.714	80.007	19.995	103.138	20.273	1.633	0.510
1224.000	695.799	80.003	19.995	103.152	20.272	1.709	0.506
1232.001	699.912	80.006	19.995	103.144	20.275	1.521	0.515
1240.000	703.966	80.005	19.994	103.158	20.277	1.372	0.511
1248.000	707.984	80.004	19.994	103.173	20.275	1.467	0.510
1256.000	712.018	80.004	19.995	103.150	20.274	1.570	0.497
1264.000	716.041	80.004	19.994	103.143	20.275	1.459	0.508
1272.000	720.001	80.007	19.994	103.140	20.273	1.612	0.517
1280.000	723.863	80.006	19.994	103.127	20.270	1.835	0.476
1288.000	727.823	80.005	19.995	103.155	20.276	1.439	0.505
1296.000	731.757	80.006	19.994	103.143	20.272	1.686	0.512
1304.001	735.755	80.005	19.995	103.140	20.281	1.102	0.519
1312.000	739.730	80.004	19.994	103.168	20.272	1.677	0.519
1320.001	743.719	80.003	19.995	103.135	20.277	1.368	0.502