Folder: fsri_materials_database/01_Data/CPVC_Pipe/MCC (part 2)

File: CPVC_Pipe_MCC_30K_min_211119_R3.txt
Sample ID:	C:\MCC\MCC Cal\Test\CPVC_Pipe_MCC_30K_min_211119_R3.txt
Sample Weight (mg):	4.3
Heating Rate (C/s):	0.5
Combustor Temp (C):	900
N2 Flow Rate (cc/min):	80
O2 Flow Rate (cc/min):	20
Calibration File:	C:\MCC\MCC Cal\Coeff1 JN10440_30_210304.txt.txt
T Correction Coefficients:	0	1.024463	0
Time Shift (s):	14
*
Time (s)	Temperature (C)	N2 flow rate (cc/min)	O2 flow rate (cc/min)	Flow Rate (cc/min)	Oxygen (%)	HRR (W/g)	Heating rate (C/s)
-0.001	107.319	80.007	19.992	103.035	20.233	0.087	-0.031
7.999	107.373	80.006	19.995	103.043	20.232	0.142	-0.008
15.999	107.355	80.006	19.993	103.107	20.228	0.459	0.001
23.999	107.541	80.005	19.996	103.115	20.221	0.966	0.048
32.000	107.971	80.005	19.996	103.192	20.206	2.088	0.058
39.999	108.849	80.006	19.993	103.243	20.196	2.794	0.139
47.999	110.157	80.006	19.996	103.251	20.188	3.403	0.210
55.999	111.865	80.007	19.994	103.287	20.182	3.913	0.237
63.999	114.022	80.005	19.994	103.291	20.176	4.291	0.265
71.999	116.548	80.007	19.995	103.316	20.180	4.032	0.374
80.000	119.334	80.006	19.995	103.302	20.181	3.920	0.366
87.999	122.377	80.006	19.993	103.297	20.177	4.269	0.422
95.999	125.574	80.004	19.996	103.296	20.175	4.380	0.410
104.000	128.894	80.005	19.993	103.298	20.177	4.283	0.436
111.999	132.290	80.005	19.994	103.302	20.176	4.318	0.403
119.999	135.914	80.005	19.991	103.313	20.174	4.444	0.445
127.999	139.603	80.007	19.995	103.311	20.173	4.537	0.441
136.000	143.451	80.008	19.994	103.299	20.174	4.507	0.471
144.000	147.334	80.007	19.992	103.297	20.172	4.636	0.511
152.000	151.314	80.006	19.995	103.292	20.172	4.602	0.503
160.000	155.261	80.008	19.993	103.290	20.172	4.634	0.497
168.000	159.243	80.007	19.993	103.289	20.174	4.508	0.504
176.000	163.288	80.006	19.994	103.287	20.170	4.757	0.490
184.000	167.319	80.007	19.994	103.281	20.171	4.696	0.500
192.000	171.267	80.007	19.995	103.266	20.173	4.578	0.483
200.000	175.242	80.005	19.994	103.262	20.178	4.155	0.478
208.000	179.220	80.004	19.994	103.259	20.170	4.810	0.493
216.000	183.213	80.004	19.995	103.262	20.174	4.511	0.468
224.000	187.121	80.006	19.994	103.261	20.169	4.826	0.485
232.000	191.066	80.006	19.995	103.258	20.170	4.783	0.477
240.000	195.031	80.008	19.994	103.252	20.170	4.762	0.495
248.000	198.866	80.007	19.994	103.251	20.166	5.055	0.466
256.000	202.823	80.005	19.996	103.241	20.165	5.112	0.485
264.000	206.696	80.004	19.993	103.250	20.162	5.356	0.474
272.000	210.616	80.006	19.993	103.246	20.161	5.456	0.493
280.000	214.533	80.006	19.994	103.234	20.160	5.531	0.492
288.000	218.469	80.004	19.994	103.247	20.154	5.982	0.477
296.000	222.423	80.008	19.995	103.247	20.152	6.094	0.518
304.000	226.403	80.006	19.993	103.251	20.143	6.830	0.482
312.000	230.437	80.008	19.995	103.225	20.133	7.551	0.516
320.000	234.472	80.007	19.995	103.225	20.126	8.069	0.534
328.000	238.444	80.009	19.994	103.229	20.118	8.646	0.486
336.000	242.457	80.006	19.996	103.216	20.115	8.887	0.500
344.000	246.373	80.005	19.995	103.215	20.126	8.104	0.464
352.000	250.398	80.006	19.995	103.247	20.139	7.087	0.490
360.000	254.376	80.004	19.994	103.249	20.146	6.586	0.487
368.000	258.408	80.006	19.994	103.249	20.146	6.588	0.478
376.000	262.381	80.005	19.994	103.250	20.152	6.104	0.475
384.000	266.430	80.007	19.993	103.250	20.153	6.084	0.502
392.000	270.484	80.007	19.995	103.251	20.148	6.438	0.515
400.000	274.493	80.007	19.994	103.261	20.149	6.356	0.478
408.000	278.490	80.009	19.995	103.267	20.142	6.846	0.500
416.000	282.546	80.006	19.995	103.282	20.136	7.314	0.510
424.000	286.523	80.005	19.994	103.299	20.130	7.754	0.491
432.000	290.502	80.006	19.995	103.323	20.118	8.703	0.504
440.000	294.509	80.005	19.995	103.331	20.104	9.725	0.486
448.000	298.544	80.005	19.994	103.343	20.090	10.745	0.507
456.000	302.455	80.005	19.994	103.376	20.076	11.845	0.480
464.000	306.415	80.007	19.995	103.391	20.062	12.873	0.512
472.000	310.333	80.006	19.994	103.408	20.047	14.042	0.501
480.000	314.298	80.005	19.994	103.406	20.033	15.016	0.494
488.000	318.357	80.008	19.992	103.365	20.028	15.367	0.465
496.000	322.493	80.006	19.993	103.225	20.040	14.498	0.486
504.000	326.770	80.005	19.994	103.031	20.055	13.358	0.542
512.000	331.016	80.006	19.995	103.069	20.059	13.123	0.532
520.000	335.268	80.006	19.995	103.201	20.042	14.378	0.520
528.000	339.531	80.006	19.994	103.310	20.035	14.904	0.523
536.000	343.755	80.004	19.996	103.393	20.041	14.463	0.544
544.000	347.902	80.006	19.995	103.420	20.052	13.671	0.520
552.000	352.125	80.006	19.993	103.438	20.065	12.625	0.521
560.000	356.283	80.005	19.995	103.413	20.072	12.107	0.538
568.000	360.405	80.008	19.994	103.408	20.085	11.179	0.522
576.000	364.468	80.009	19.994	103.391	20.095	10.438	0.477
584.000	368.720	80.007	19.996	103.373	20.094	10.460	0.631
592.000	372.547	80.006	19.994	103.365	20.095	10.395	0.635
600.000	376.593	80.005	19.995	103.355	20.096	10.292	0.479
608.000	380.595	80.005	19.995	103.352	20.100	10.003	0.530
616.000	384.581	80.004	19.994	103.339	20.104	9.724	0.526
624.000	388.524	80.005	19.995	103.333	20.102	9.870	0.489
632.000	392.464	80.006	19.995	103.322	20.101	9.927	0.528
640.000	396.505	80.006	19.995	103.321	20.102	9.895	0.512
648.000	400.501	80.007	19.994	103.318	20.102	9.846	0.511
656.000	404.478	80.010	19.994	103.312	20.105	9.665	0.479
664.000	408.538	80.005	19.993	103.295	20.103	9.816	0.467
672.000	412.588	80.004	19.994	103.292	20.102	9.905	0.525
680.000	416.573	80.005	19.993	103.288	20.102	9.862	0.496
688.000	420.660	80.005	19.994	103.290	20.099	10.092	0.532
696.000	424.707	80.005	19.994	103.279	20.095	10.386	0.509
704.000	428.802	80.004	19.995	103.281	20.089	10.809	0.543
712.000	432.928	80.008	19.995	103.264	20.085	11.154	0.536
720.000	437.060	80.006	19.997	103.256	20.077	11.727	0.514
728.000	441.142	80.006	19.994	103.255	20.069	12.335	0.501
736.000	445.218	80.008	19.994	103.259	20.061	12.927	0.508
744.000	449.309	80.008	19.994	103.250	20.050	13.728	0.526
752.000	453.311	80.005	19.994	103.253	20.040	14.548	0.487
760.000	457.314	80.006	19.994	103.249	20.029	15.373	0.515
768.000	461.393	80.006	19.994	103.245	20.025	15.600	0.500
776.000	465.410	80.005	19.994	103.246	20.021	15.913	0.535
784.000	469.428	80.005	19.994	103.243	20.027	15.514	0.522
792.000	473.521	80.006	19.995	103.228	20.031	15.209	0.524
800.000	477.609	80.006	19.993	103.227	20.038	14.629	0.515
808.000	481.684	80.005	19.994	103.214	20.049	13.820	0.511
816.000	485.770	80.006	19.996	103.236	20.065	12.656	0.520
824.000	489.896	80.007	19.995	103.221	20.073	12.015	0.521
832.000	493.980	80.004	19.993	103.213	20.082	11.366	0.510
840.000	498.095	80.005	19.993	103.225	20.092	10.607	0.503
848.000	502.188	80.006	19.994	103.222	20.101	9.943	0.495
856.000	506.304	80.005	19.994	103.213	20.108	9.451	0.508
864.000	510.468	80.006	19.994	103.216	20.110	9.247	0.527
872.000	514.570	80.007	19.994	103.211	20.114	8.958	0.539
880.000	518.710	80.006	19.994	103.212	20.114	8.933	0.508
888.000	522.851	80.007	19.993	103.211	20.116	8.826	0.520
896.000	526.949	80.007	19.994	103.210	20.119	8.626	0.495
904.000	531.055	80.007	19.993	103.206	20.118	8.675	0.500
912.000	535.174	80.006	19.994	103.206	20.125	8.116	0.537
920.000	539.283	80.007	19.994	103.204	20.123	8.287	0.515
928.000	543.306	80.006	19.994	103.194	20.126	8.041	0.496
936.000	547.311	80.007	19.994	103.208	20.123	8.264	0.514
944.000	551.363	80.004	19.994	103.211	20.122	8.348	0.515
952.000	555.399	80.004	19.994	103.212	20.125	8.106	0.512
960.000	559.435	80.006	19.993	103.202	20.130	7.770	0.523
968.000	563.470	80.005	19.993	103.186	20.132	7.611	0.524
976.000	567.478	80.006	19.994	103.188	20.131	7.663	0.486
984.000	571.493	80.008	19.994	103.180	20.127	7.978	0.460
992.000	575.657	80.006	19.996	103.173	20.129	7.834	0.533
1000.000	579.672	80.006	19.994	103.181	20.133	7.527	0.509
1008.000	583.664	80.005	19.996	103.181	20.130	7.758	0.481
1016.000	587.728	80.005	19.994	103.190	20.133	7.569	0.509
1024.000	591.700	80.005	19.994	103.175	20.133	7.522	0.484
1031.999	595.821	80.006	19.995	103.173	20.137	7.228	0.524
1039.999	599.874	80.005	19.994	103.173	20.131	7.675	0.495
1047.999	603.941	80.007	19.994	103.173	20.134	7.488	0.520
1056.001	607.977	80.007	19.994	103.172	20.135	7.419	0.458
1063.999	611.996	80.008	19.993	103.174	20.139	7.111	0.499
1071.999	616.029	80.009	19.994	103.170	20.131	7.675	0.516
1080.000	620.081	80.007	19.995	103.174	20.136	7.354	0.494
1087.999	624.277	80.008	19.995	103.171	20.138	7.136	0.507
1095.999	628.403	80.006	19.995	103.171	20.144	6.742	0.530
1103.999	632.481	80.005	19.995	103.177	20.138	7.195	0.506
1111.999	636.615	80.004	19.995	103.172	20.143	6.781	0.530
1119.999	640.579	80.006	19.994	103.171	20.149	6.314	0.505
1127.999	644.632	80.008	19.992	103.168	20.148	6.383	0.533
1135.999	648.661	80.006	19.994	103.173	20.145	6.679	0.491
1143.999	652.767	80.006	19.993	103.172	20.146	6.535	0.488
1152.000	656.908	80.009	19.993	103.161	20.145	6.679	0.502
1159.999	661.033	80.007	19.994	103.167	20.148	6.382	0.516
1168.000	665.144	80.005	19.995	103.169	20.143	6.807	0.516
1175.999	669.285	80.007	19.996	103.169	20.143	6.815	0.546
1183.999	673.345	80.007	19.994	103.155	20.142	6.890	0.505
1191.999	677.412	80.006	19.995	103.154	20.145	6.613	0.524
1199.999	681.454	80.005	19.995	103.165	20.149	6.329	0.527
1207.999	685.438	80.005	19.994	103.162	20.145	6.623	0.490
1215.999	689.443	80.008	19.995	103.156	20.146	6.532	0.508
1223.999	693.421	80.006	19.993	103.153	20.144	6.751	0.501
1232.000	697.410	80.009	19.994	103.153	20.144	6.692	0.499
1240.000	701.371	80.005	19.993	103.160	20.146	6.570	0.491
1247.999	705.366	80.008	19.994	103.158	20.143	6.791	0.498
1255.999	709.425	80.007	19.994	103.156	20.142	6.859	0.531
1264.000	713.384	80.006	19.994	103.170	20.139	7.094	0.476
1271.999	717.413	80.006	19.995	103.155	20.147	6.483	0.502
1280.000	721.483	80.005	19.995	103.165	20.147	6.509	0.523
1287.999	725.505	80.009	19.995	103.162	20.143	6.818	0.485
1295.999	729.544	80.007	19.994	103.161	20.145	6.638	0.472
1304.001	733.568	80.007	19.996	103.144	20.150	6.300	0.507
1311.999	737.623	80.009	19.994	103.148	20.148	6.421	0.498
1319.999	741.672	80.008	19.995	103.156	20.147	6.496	0.517
1323.999	743.696	80.006	19.993	103.145	20.141	6.913	0.484