Folder: fsri_materials_database/01_Data/Fiberglass_Insulation_R30_Paper_Faced/Cone

Note: 01_Data/README.md
# Materials and Products Database
## 01_Data

Raw data generated from each apparatus are included here in plain-text format. The data is organized first by material, next by the short name of test apparatus used, and where applicable additional filtering by test settings.

### material.json

Each material directory contains a json file of the same name as the material. This file links the data stored in the repository as well as data and graphs produced by the accompanying scripts (__02_Scripts__) to the respective landing page for the material on the front-end website.

File: Fiberglass_Insulation_3_Cone_HF25Scalar_220506_R2.csv
LABORATORY,FSRI
TEST IDENT,Insulation3_HF25_2
OPERATOR,Dow
MATERIAL,fiberglass insulation 3 (saint gobain)
ORIENTATION,Horizontal
HEAT FLUX,25
SURF AREA,0.01
C FACTOR,0.042088
SPEC HOLDER DIFF,-566
SPECIMEN MASS,7.8
SCAN TIME,0.25
O2 DELAY TIME,11
CO DELAY TIME,11
CO2 DELAY TIME,8
FLOW FACTOR,1
SCAN COUNT,541
TIME TO IGN,7.25
END OF TEST SCAN,61
END OF TEST TIME,15.25
TEST STATUS,1
PRE TEST CMT,Dimensions: 100 x 102 x 46 mm; with frame compressed to about 40 mm

File: Fiberglass_Insulation_3_Cone_HF50Scalar_220509_R1.csv
LABORATORY,FSRI
TEST IDENT,Insulation3_HF50_1
OPERATOR,Dow
MATERIAL,fiberglass insulation 3 (saint gobain)
ORIENTATION,Horizontal
HEAT FLUX,50
SURF AREA,0.01
C FACTOR,0.042088
SPEC HOLDER DIFF,-566
SPECIMEN MASS,7.28
SCAN TIME,0.25
O2 DELAY TIME,11
CO DELAY TIME,11
CO2 DELAY TIME,8
FLOW FACTOR,1
SCAN COUNT,538
TIME TO IGN,2.75
END OF TEST SCAN,58
END OF TEST TIME,14.5
TEST STATUS,1
PRE TEST CMT,Dimensions: 100 x 98 x 56 mm; with frame compressed to about 40 mm
POST TEST CMT,After ignition the paper layer lifts away from the insulation.

File: Fiberglass_Insulation_3_Cone_HF75Scalar_220509_R3.csv
LABORATORY,FSRI
TEST IDENT,Insulation3_HF75_3
OPERATOR,Dow
MATERIAL,fiberglass insulation 3 (saint gobain)
ORIENTATION,Horizontal
HEAT FLUX,75
SURF AREA,0.01
C FACTOR,0.042088
SPEC HOLDER DIFF,-566
SPECIMEN MASS,9.18
SCAN TIME,0.25
O2 DELAY TIME,11
CO DELAY TIME,11
CO2 DELAY TIME,8
FLOW FACTOR,1
SCAN COUNT,608
TIME TO IGN,1.5
END OF TEST SCAN,128
END OF TEST TIME,32
TEST STATUS,1
PRE TEST CMT,Dimensions: 98 x 108 x 54 mm; with frame compressed to about 40 mm

File: Fiberglass_Insulation_3_Cone_HF75Scan_220509_R2.csv
Names,Time,Stack TC,Smoke TC,Exh Press,Smoke Comp,Smoke Meas,CO Meter,CO2 Meter,O2 Meter,Sample Mass,Ext Coeff,Start Test,Flame Verif
Chan Gain,,500,500,1,1,1,1,1,1,1,1,1.0,1.0
Offset,,0,0,0.134207,0,0,0,0,0,0,0,0.0,0.0
Gain,,1,1,25.011,13.8443,15.4071,1,1,1,1.00079,1.02936,1.0,1.0
Units,sec,C,C,Pa,%,%,%,%,%,g,/m,,
Baseline,,42.8775,44.3903,133.206,104.692,106.698,0.000256913,0.0419559,21.005,-447.875,-0.171359,,
6,1.25,40.8077,42.0939,97.7361,104.629,105.098,0.00201515,0.135528,20.9038,440.738,-0.0404212,0.0,1.0
12,2.75,41.8436,42.8829,117.451,104.623,92.0478,0.00301297,0.217383,20.7844,440.548,1.15627,0.0,1.0
18,4.25,45.0124,44.7449,122.907,104.626,107.59,0.00436774,0.269299,20.7038,440.457,-0.252239,0.0,1.0
24,5.75,45.5364,46.0844,129.116,104.621,107.91,0.00567508,0.272803,20.7261,440.508,-0.279543,0.0,1.0
30,7.25,44.1917,44.4709,130.809,104.627,107.512,0.00674732,0.252057,20.763,440.447,-0.245613,0.0,0.0
36,8.75,44.0012,45.5836,126.577,104.635,106.874,0.00754873,0.225224,20.8032,440.357,-0.191175,0.0,0.0
42,10.25,43.7861,44.8773,133.443,104.635,107.738,0.00784318,0.197071,20.839,440.317,-0.263892,0.0,0.0
48,11.75,44.0245,44.8439,129.973,104.637,107.666,0.00768481,0.173394,20.8682,440.297,-0.257642,0.0,0.0
54,13.25,43.7158,45.0326,131.032,104.64,106.786,0.00727777,0.15517,20.8895,440.287,-0.183266,0.0,0.0
60,14.75,43.6437,45.198,129.078,104.639,107.224,0.00666156,0.139084,20.9062,440.217,-0.22039,0.0,0.0
66,16.25,44.0602,44.8054,128.539,104.655,106.833,0.00590556,0.126315,20.9221,440.217,-0.186002,0.0,0.0
72,17.75,43.3029,44.8037,130.48,104.642,106.671,0.00521289,0.114468,20.9365,440.217,-0.173374,0.0,0.0
78,19.25,43.1646,45.0756,134.302,104.66,106.835,0.00473534,0.104848,20.9486,440.177,-0.185723,0.0,0.0
84,20.75,43.6317,44.7661,135.298,104.663,107.203,0.00440537,0.0960776,20.9572,440.187,-0.21653,0.0,0.0
90,22.25,43.6035,44.5226,133.581,104.675,106.797,0.00412754,0.0888805,20.9629,440.137,-0.181194,0.0,0.0
96,23.75,43.1685,44.612,133.706,104.675,107.33,0.00380473,0.0827603,20.9681,440.117,-0.226199,0.0,0.0
102,25.25,42.9556,45.0404,134.422,104.681,106.962,0.00349524,0.0782882,20.9724,440.117,-0.19466,0.0,0.0
108,26.75,43.5497,44.7466,133.326,104.679,106.786,0.00327589,0.0742976,20.977,440.087,-0.179949,0.0,0.0
114,28.25,43.1541,44.813,133.03,104.699,106.924,0.00308961,0.0705064,20.9799,440.117,-0.189917,0.0,0.0
120,29.75,42.5607,44.4178,133.103,104.699,106.526,0.00288384,0.0674202,20.9829,440.057,-0.156187,0.0,0.0
126,31.25,42.4444,45.0067,135.824,104.704,107.024,0.00272144,0.0647251,20.9858,440.097,-0.197934,0.0,0.0
132,32.75,43.4738,44.8162,130.844,104.711,107.347,0.00264564,0.0625563,20.9874,440.077,-0.224562,0.0,0.0
138,34.25,42.9625,44.4879,128.937,104.739,107.021,0.00263147,0.060962,20.9881,440.037,-0.194556,0.0,0.0
144,35.75,42.674,44.5399,132.989,104.724,107.592,0.00262527,0.0596347,20.9886,440.037,-0.243975,0.0,0.0
150,37.25,42.7499,44.7805,136.446,104.733,107.049,0.00258421,0.0586852,20.9889,439.997,-0.197482,0.0,0.0
156,38.75,42.6491,44.1098,133.965,104.754,106.453,0.0025274,0.0576009,20.9894,440.057,-0.145308,0.0,0.0
162,40.25,42.5315,43.8569,128.172,104.77,106.741,0.00249417,0.0566101,20.9904,439.997,-0.168299,0.0,0.0
168,41.75,42.2542,44.4192,132.024,104.761,107.483,0.00246389,0.0557815,20.992,440.047,-0.23165,0.0,0.0
174,43.25,42.5847,44.6023,129.521,104.776,107.308,0.00238569,0.0549965,20.9932,440.007,-0.215631,0.0,0.0
180,44.75,42.2506,43.9907,132.404,104.765,107.134,0.00229997,0.0543466,20.9946,440.037,-0.20193,0.0,0.0
186,46.25,42.4397,44.2436,129.755,104.789,108.045,0.00220203,0.0535371,20.9953,440.057,-0.276326,0.0,0.0
192,47.75,42.289,44.2193,130.355,104.796,107.609,0.00209399,0.0526362,20.9959,440.047,-0.239132,0.0,0.0
198,49.25,42.3486,43.4484,131.974,104.815,107.059,0.00191575,0.0516277,20.997,439.967,-0.191214,0.0,0.0
204,50.75,42.482,44.0378,131.036,104.828,107.12,0.00164409,0.0506738,20.9983,440.027,-0.195353,0.0,0.0
210,52.25,42.0332,44.2803,130.052,104.831,107.709,0.00132146,0.0497583,20.9996,440.007,-0.24455,0.0,0.0
216,53.75,42.3724,43.401,132.519,104.844,107.483,0.00105082,0.0489335,21.0012,440.037,-0.224515,0.0,0.0
222,55.25,42.0023,43.9359,134.752,104.851,107.096,0.00085709,0.0482575,21.002,440.007,-0.191291,0.0,0.0
228,56.75,42.4779,43.762,131.891,104.852,107.837,0.000723634,0.0475925,21.0025,439.967,-0.253482,0.0,0.0
234,58.25,42.018,43.8537,132.668,104.869,107.156,0.000623008,0.0470125,21.0027,440.007,-0.1948,0.0,0.0
240,59.75,42.2499,43.9575,133.18,104.877,106.815,0.000538738,0.046507,21.002,439.967,-0.165301,0.0,0.0
246,61.25,41.5695,43.6701,135.53,104.888,106.288,0.000484658,0.0460056,21.0014,439.957,-0.119766,0.0,0.0
252,62.75,41.9652,43.9228,131.138,104.912,107.882,0.000500818,0.0457622,21.0013,439.957,-0.252096,0.0,0.0
258,64.25,42.3595,44.0492,132.883,104.91,107.484,0.000534781,0.0456083,21.002,439.787,-0.218884,0.0,0.0
264,65.75,41.9444,43.7993,135.23,104.926,107.052,0.000542272,0.0454507,21.0025,440.027,-0.181169,0.0,0.0
270,67.25,42.2259,43.4016,138.449,104.926,107.577,0.000529872,0.045353,21.0027,440.007,-0.225244,0.0,0.0
276,68.75,41.8093,43.4224,133.292,104.953,108.06,0.000544122,0.0452002,21.0028,439.987,-0.263433,0.0,0.0
282,70.25,41.6181,43.4769,133.058,104.949,107.508,0.000573776,0.0449029,21.0029,439.957,-0.217478,0.0,0.0
288,71.75,42.4588,44.0682,133.218,104.971,108.682,0.000605205,0.0446452,21.0029,439.967,-0.313697,0.0,0.0
294,73.25,41.5656,42.3197,130.923,104.971,107.541,0.000621724,0.0445041,21.0038,439.987,-0.218388,0.0,0.0
300,74.75,41.9163,43.8901,131.546,104.974,107.633,0.000586925,0.044444,21.0044,439.977,-0.225868,0.0,0.0
306,76.25,41.7996,43.7189,128.505,104.98,107.57,0.000536939,0.044323,21.0044,439.927,-0.219999,0.0,0.0
312,77.75,42.2373,43.7296,130.489,104.993,108.227,0.000484402,0.0441241,21.0044,440.007,-0.273917,0.0,0.0
318,79.25,42.2275,43.8787,132.258,104.994,107.711,0.000433555,0.0440497,21.0044,439.987,-0.230705,0.0,0.0
324,80.75,41.8682,43.6608,131.891,105.002,107.156,0.000431392,0.0439182,21.0044,439.977,-0.183423,0.0,0.0
330,82.25,41.995,43.636,133.875,105.011,107.46,0.000464548,0.0438619,21.0044,439.987,-0.208145,0.0,0.0
336,83.75,41.9303,43.6442,133.879,105.016,107.844,0.000483942,0.0438028,21.0044,440.037,-0.240004,0.0,0.0
342,85.25,42.0383,44.042,133.725,105.031,107.511,0.000505585,0.0437536,21.0045,439.947,-0.210741,0.0,0.0
348,86.75,42.1045,43.5093,132.087,105.024,107.677,0.000539673,0.0437468,21.0049,439.977,-0.22529,0.0,0.0
354,88.25,42.2095,43.6321,133.18,105.038,106.825,0.000563411,0.0437586,21.0051,439.957,-0.152327,0.0,0.0
360,89.75,41.6701,43.5373,130.269,105.04,106.874,0.000562122,0.0437511,21.0052,439.967,-0.156274,0.0,0.0
366,91.25,41.7326,43.6947,132.521,105.045,107.304,0.000544376,0.0437352,21.0052,439.937,-0.192111,0.0,0.0
372,92.75,41.9714,43.3824,130.646,105.055,107.588,0.000505936,0.0437863,21.0053,439.947,-0.215106,0.0,0.0
378,94.25,41.4886,43.9611,129.965,105.056,107.462,0.000473026,0.0437658,21.0053,439.977,-0.204454,0.0,0.0
384,95.75,41.9426,43.7695,131.476,105.047,107.607,0.000396575,0.0437023,21.0046,439.957,-0.217453,0.0,0.0
390,97.25,42.0157,43.6926,132.059,105.059,107.717,0.000357329,0.0437072,21.0041,439.917,-0.225627,0.0,0.0
396,98.75,42.0264,44.2113,131.121,105.066,107.25,0.000394493,0.0437626,21.0039,439.907,-0.185823,0.0,0.0
402,100.25,42.1972,43.4415,134.976,105.062,107.53,0.000450358,0.0436548,21.0038,439.907,-0.209632,0.0,0.0
408,101.75,41.7034,43.4104,131.667,105.066,108.137,0.000440697,0.0435359,21.0037,439.907,-0.260174,0.0,0.0
414,103.25,41.6585,43.5972,129.533,105.084,107.039,0.000401823,0.0435044,21.0037,439.957,-0.166507,0.0,0.0
420,104.75,42.2575,43.6874,133.983,105.075,107.591,0.000344309,0.0435014,21.0037,439.937,-0.213639,0.0,0.0
426,106.25,41.5355,43.5637,133.003,105.094,107.353,0.000233164,0.043354,21.0036,439.907,-0.192016,0.0,0.0
432,107.75,41.632,43.9331,129.926,105.078,107.568,0.000109277,0.0431669,21.0036,439.907,-0.211526,0.0,0.0
438,109.25,41.9732,43.1627,130.931,105.101,108.036,-9.78707e-06,0.0431479,21.0046,439.937,-0.248716,0.0,0.0
444,110.75,41.7055,43.5536,131.032,105.103,107.894,-6.4877e-05,0.0431299,21.0052,439.917,-0.236695,0.0,0.0
450,112.25,42.0815,43.4744,131.701,105.113,108.136,-2.33116e-05,0.0430144,21.0056,439.957,-0.25603,0.0,0.0
456,113.75,41.8862,43.6362,133.055,105.108,107.332,0.000129681,0.0429275,21.0057,439.947,-0.189114,0.0,0.0
462,115.25,42.3171,43.6905,127.986,105.102,108.17,0.000287777,0.0429017,21.0058,439.857,-0.259797,0.0,0.0
468,116.75,41.8105,44.135,133.509,105.108,107.296,0.000462242,0.042784,21.0059,439.867,-0.186068,0.0,0.0
474,118.25,41.5438,43.4896,130.524,105.115,107.772,,0.04287,,439.887,-0.22537,0.0,0.0
480,119.75,41.7485,43.6113,131.902,105.115,107.776,,0.0429923,,439.917,-0.225721,0.0,0.0
486,121.25,41.8126,43.8521,132.622,105.106,107.606,,,,439.907,-0.212291,0.0,0.0
492,122.75,41.7308,43.7644,132.303,105.127,107.589,,,,439.937,-0.209056,0.0,0.0
498,124.25,41.9033,43.8566,130.642,105.111,108.318,,,,439.887,-0.271429,0.0,0.0
504,125.75,41.2878,43.3307,130.868,105.098,108.609,,,,439.957,-0.296744,0.0,0.0
510,127.25,41.7781,43.5427,131.307,105.096,108.261,,,,439.947,-0.26788,0.0,0.0
515,128.5,41.742,43.8368,130.583,105.103,107.344,,,,439.937,-0.190426,0.0,0.0

File: Fiberglass_Insulation_3_Cone_HF75Scan_220509_R3.csv
Names,Time,Stack TC,Smoke TC,Exh Press,Smoke Comp,Smoke Meas,CO Meter,CO2 Meter,O2 Meter,Sample Mass,Ext Coeff,Start Test,Flame Verif
Chan Gain,,500,500,1,1,1,1,1,1,1,1,1.0,1.0
Offset,,0,0,0.134207,0,0,0,0,0,0,0,0.0,0.0
Gain,,1,1,25.011,13.8443,15.4071,1,1,1,1.00079,1.02936,1.0,1.0
Units,sec,C,C,Pa,%,%,%,%,%,g,/m,,
Baseline,,42.6558,44.12,133.367,105.238,107.341,0.000124151,0.0414501,21.0068,-447.96,-0.178598,,
7,1.5,40.2662,41.9343,116.234,104.867,105.031,0.00312415,0.13288,20.8052,438.186,-0.0141377,0.0,1.0
14,3.25,42.8385,42.9337,111.842,104.846,84.2742,0.00469811,0.263857,20.6383,438.016,1.97216,0.0,1.0
21,5,45.9905,45.5198,127.602,104.815,109.149,0.00538806,0.314857,20.5814,437.976,-0.365825,0.0,1.0
28,6.75,45.219,45.5514,126.849,104.803,108.388,0.0057471,0.306468,20.6408,437.935,-0.303725,0.0,1.0
35,8.5,45.6269,46.6205,129.249,104.788,108.35,0.00635127,0.273491,20.7297,437.865,-0.301865,0.0,0.0
42,10.25,45.6616,46.3719,128.474,104.774,107.431,0.00707491,0.236086,20.7912,437.815,-0.226139,0.0,0.0
49,12,45.8678,46.8227,132.465,104.747,107.25,0.00763292,0.204975,20.8324,437.745,-0.213202,0.0,0.0
56,13.75,45.6546,46.6956,129.678,104.727,106.74,0.00767906,0.181307,20.8607,437.695,-0.171861,0.0,0.0
63,15.5,44.969,46.8318,128.272,104.696,107.04,0.00734531,0.160787,20.8846,437.675,-0.199898,0.0,0.0
70,17.25,45.4608,46.7215,130.004,104.692,108.49,0.00687523,0.145769,20.9021,437.635,-0.321763,0.0,0.0
77,19,45.6134,46.724,132.204,104.661,107.287,0.00649248,0.133826,20.9124,437.615,-0.223758,0.0,0.0
84,20.75,44.9698,46.7276,134.243,104.619,106.956,0.00624841,0.124725,20.9182,437.585,-0.199466,0.0,0.0
91,22.5,45.2125,46.8098,130.948,104.589,106.825,0.00611868,0.115002,20.9275,437.565,-0.190977,0.0,0.0
98,24.25,45.0308,46.8536,132.368,104.585,106.994,0.00606081,0.107339,20.935,437.525,-0.205602,0.0,0.0
105,26,44.7951,46.4507,133.776,104.556,107.195,0.00605531,0.100748,20.9418,437.465,-0.225123,0.0,0.0
112,27.75,45.1547,46.2924,129.92,104.522,106.579,0.0060407,0.0953106,20.9483,437.465,-0.176046,0.0,0.0
119,29.5,45.0865,46.5552,133.917,104.497,107.663,0.00596859,0.0900356,20.9546,437.415,-0.269478,0.0,0.0
126,31.25,44.9726,46.6294,130.569,104.479,107.012,0.00581779,0.0856831,20.9586,437.395,-0.216343,0.0,0.0
133,33,44.5259,45.3805,133.411,104.452,107.488,0.00566442,0.0816146,20.9632,437.375,-0.25874,0.0,0.0
140,34.75,43.9476,46.136,129.935,104.42,107.372,0.00549003,0.0780195,20.9667,437.355,-0.251682,0.0,0.0
147,36.5,44.0752,45.5176,134.241,104.398,107.798,0.00523376,0.0749004,20.9691,437.295,-0.289335,0.0,0.0
154,38.25,44.5344,45.7985,133.708,104.37,106.757,0.0049013,0.0719582,20.9718,437.275,-0.2042,0.0,0.0
161,40,43.8559,45.6147,131.138,104.346,106.657,0.00449787,0.0696591,20.9739,437.285,-0.197772,0.0,0.0
168,41.75,43.874,45.5792,133.17,104.296,106.545,0.00421609,0.0676124,20.9762,437.275,-0.192649,0.0,0.0
175,43.5,44.0722,45.6068,130.155,104.281,106.037,0.00401772,0.0656036,20.9784,437.255,-0.15079,0.0,0.0
182,45.25,43.771,45.4156,133.596,104.249,106.586,0.00386999,0.06354,20.9804,437.265,-0.200176,0.0,0.0
189,47,43.5498,45.5611,133.644,104.196,106.58,0.00365982,0.06216,20.9831,437.235,-0.204269,0.0,0.0
196,48.75,43.4856,44.9524,133.619,104.165,106.74,0.00343149,0.0607441,20.9856,437.225,-0.220553,0.0,0.0
203,50.5,43.4304,45.2044,131.319,104.127,106.811,0.00318919,0.0593303,20.9879,437.225,-0.22978,0.0,0.0
210,52.25,43.8704,45.4869,132.87,104.07,106.232,0.00296307,0.0580272,20.9899,437.215,-0.185697,0.0,0.0
217,54,43.944,44.8272,130.758,104.019,106.166,0.00274988,0.0569177,20.9915,437.185,-0.184464,0.0,0.0
224,55.75,43.5761,45.2004,129.43,103.999,106.297,0.00259776,0.0559859,20.9922,437.205,-0.197371,0.0,0.0
231,57.5,43.2127,44.8001,128.777,103.958,106.574,0.00247408,0.0550922,20.993,437.205,-0.224388,0.0,0.0
238,59.25,42.969,45.306,130.205,103.897,106.601,0.00237342,0.0543473,20.9941,437.185,-0.231944,0.0,0.0
245,61,42.9237,45.4155,132.619,103.868,106.353,0.00233511,0.0534818,20.9947,437.145,-0.213469,0.0,0.0
252,62.75,42.6427,44.8571,130.713,103.83,106.726,0.00234183,0.0526696,20.9949,437.165,-0.248376,0.0,0.0
259,64.5,43.1589,44.6217,130.274,103.807,107.08,0.00227525,0.0518901,20.9957,437.145,-0.280298,0.0,0.0
266,66.25,42.5379,44.5419,133.189,103.772,105.853,0.00211862,0.0511619,20.9952,437.215,-0.179309,0.0,0.0
273,68,42.4165,44.2128,129.643,103.725,107.139,0.00189402,0.0505389,20.9949,437.215,-0.292385,0.0,0.0
280,69.75,42.3818,44.8104,132.934,103.695,106.192,0.00177751,0.050221,20.9948,437.185,-0.214834,0.0,0.0
287,71.5,42.6192,44.6736,131.246,103.667,105.877,0.00168485,0.0497045,20.9959,437.175,-0.190436,0.0,0.0
294,73.25,42.0429,44.4128,128.904,103.635,105.942,0.00153515,0.0492542,20.9965,437.205,-0.198769,0.0,0.0
301,75,42.5596,44.8989,133.718,103.601,105.773,0.00132431,0.0488788,20.9967,437.155,-0.187349,0.0,0.0
308,76.75,42.3836,44.7575,128.546,103.587,105.603,0.00116786,0.0483731,20.9975,437.145,-0.174102,0.0,0.0
315,78.5,42.5792,44.9588,130.586,103.565,105.721,0.00105849,0.0479425,20.9984,437.165,-0.186026,0.0,0.0
322,80.25,42.4619,43.9032,130.067,103.546,106.091,0.000968587,0.047501,20.9989,437.165,-0.21927,0.0,0.0
329,82,42.5261,44.1399,131.8,103.521,106.963,0.00093291,0.0471658,20.9991,437.135,-0.295337,0.0,0.0
336,83.75,42.2516,44.6973,134.767,103.514,105.844,0.000954098,0.0468214,20.9992,437.155,-0.200959,0.0,0.0
343,85.5,42.3427,44.1895,131.355,103.514,106.123,0.00102081,0.0462874,20.9992,437.135,-0.224794,0.0,0.0
350,87.25,41.9431,44.1944,133.095,103.499,106,0.00105711,0.045984,20.9997,437.145,-0.215557,0.0,0.0
357,89,42.0571,44.1446,129.544,103.492,105.962,0.000941773,0.0459398,21.0007,437.105,-0.213016,0.0,0.0
364,90.75,42.1464,44.0841,132.189,103.499,106.23,0.000775515,0.0457512,21.0012,437.135,-0.235198,0.0,0.0
371,92.5,42.1436,44.649,130.712,103.502,106.157,0.00064803,0.0453788,21.0014,437.135,-0.228703,0.0,0.0
378,94.25,41.8195,44.0933,129.044,103.515,105.598,0.00061964,0.0452232,21.0015,437.085,-0.179887,0.0,0.0
385,96,41.8793,43.6051,135.922,103.514,106.101,0.000665065,0.0449478,21.0015,437.135,-0.222874,0.0,0.0
392,97.75,42.0706,44.3049,131.526,103.531,106.21,0.000695758,0.0447081,21.0029,437.095,-0.230642,0.0,0.0
399,99.5,42.6424,43.7138,129.638,103.549,105.729,0.000672268,0.0446145,21.0038,437.095,-0.188186,0.0,0.0
406,101.25,42.0394,43.2911,130.304,103.563,106.326,0.000594625,0.044471,21.0043,437.085,-0.237746,0.0,0.0
413,103,42.2484,43.9365,131.903,103.588,106.416,0.000549874,0.0442587,21.0045,437.085,-0.243197,0.0,0.0
420,104.75,42.0657,43.8641,137.38,103.599,105.69,0.000621515,0.0440612,21.0047,437.095,-0.180392,0.0,0.0
427,106.5,42.0395,43.9892,132.653,103.629,105.611,0.00061858,0.0438191,21.0047,437.065,-0.171068,0.0,0.0
434,108.25,42.4099,43.973,132.802,103.663,105.783,0.000478368,0.0436583,21.0059,437.095,-0.182861,0.0,0.0
441,110,42.1375,44.2327,128.645,103.691,106.519,0.000284181,0.0435095,21.0065,437.095,-0.242952,0.0,0.0
448,111.75,42.5195,43.8821,129.388,103.717,105.94,0.00012398,0.0433742,21.0067,437.015,-0.19143,0.0,0.0
455,113.5,42.2345,44.0863,128.555,103.752,105.985,5.94012e-05,0.0431544,21.0068,437.055,-0.19226,0.0,0.0
462,115.25,42.4277,43.9554,136.637,103.773,107.948,5.27213e-05,0.0429271,21.0068,437.105,-0.356137,0.0,0.0
469,117,41.7167,44.3025,132.421,103.817,107.072,0.000126142,0.0429397,21.0068,437.095,-0.278745,0.0,0.0
476,118.75,41.9202,44.3354,131.893,103.838,106.955,0.000249811,0.0429742,21.0055,437.105,-0.267103,0.0,0.0
483,120.5,42.2195,43.765,132.161,103.864,106.761,0.000418076,0.043039,21.0046,437.095,-0.248456,0.0,0.0
490,122.25,42.319,44.3099,131.264,103.893,106.674,0.000522464,0.0429581,21.0041,437.085,-0.238485,0.0,0.0
497,124,41.8158,44.1105,132.716,103.925,106.057,0.0004854,0.0428368,21.0039,437.075,-0.183364,0.0,0.0
504,125.75,42.1922,44.2439,131.677,103.968,106.779,0.000419755,0.0428113,21.0038,437.045,-0.240859,0.0,0.0
511,127.5,42.6025,44.2919,131.74,103.995,106.39,0.00040089,0.0427801,21.0037,437.015,-0.20561,0.0,0.0
518,129.25,41.8543,44.033,134.47,104.018,106.843,0.000407788,0.042777,21.0037,436.985,-0.241973,0.0,0.0
525,131,41.7596,43.7129,130.07,104.058,106.806,0.000429374,0.0428047,21.0037,437.075,-0.235313,0.0,0.0
532,132.75,42.4381,44.5149,130.446,104.101,107.181,0.000459088,0.0427144,21.0037,437.095,-0.26324,0.0,0.0
539,134.5,42.1413,44.0479,131.635,104.129,106.647,0.000457042,0.042664,21.0043,437.105,-0.215711,0.0,0.0
546,136.25,42.2023,43.8934,127.285,104.144,107.018,0.000396247,0.0426312,21.0051,437.035,-0.245784,0.0,0.0
553,138,42.0551,44.3019,131.135,104.18,106.599,0.000320048,0.0426813,21.0055,437.035,-0.207294,0.0,0.0
560,139.75,42.081,43.9463,135.783,104.217,105.921,0.000217924,0.0427808,21.0057,436.995,-0.146381,0.0,0.0
567,141.5,41.9947,44.096,134.282,104.242,106.77,,0.0430243,,437.045,-0.216322,0.0,0.0
574,143.25,42.1096,43.8025,132.828,104.269,107.077,,0.0431849,,437.025,-0.239981,0.0,0.0
581,145,42.132,44.3091,127.949,104.295,107.725,,,,437.045,-0.292149,0.0,0.0
588,146.75,42.0032,44.6765,132.358,104.324,106.654,,,,436.985,-0.199438,0.0,0.0
595,148.5,41.9924,43.6303,129.894,104.362,107.474,,,,436.955,-0.265305,0.0,0.0
602,150.25,42.3399,44.2108,129.798,104.381,107.808,,,,437.005,-0.291736,0.0,0.0
608,151.75,42.8688,43.539,128.441,104.415,107.374,,,,436.975,-0.252279,0.0,0.0