Folder: fsri_materials_database/01_Data/Fiberglass_Insulation_R30_Paper_Faced/Cone (part 3)

File: Fiberglass_Insulation_R30_Paper_Faced_Cone_HF75Scan_220509_R1.csv
Names,Time,Stack TC,Smoke TC,Exh Press,Smoke Comp,Smoke Meas,CO Meter,CO2 Meter,O2 Meter,Sample Mass,Ext Coeff,Start Test,Flame Verif
Chan Gain,,500,500,1,1,1,1,1,1,1,1,1.0,1.0
Offset,,0,0,0.134207,0,0,0,0,0,0,0,0.0,0.0
Gain,,1,1,25.011,13.8443,15.4071,1,1,1,1.00079,1.02936,1.0,1.0
Units,sec,C,C,Pa,%,%,%,%,%,g,/m,,
Baseline,,42.7356,44.3096,132.942,104.814,106.837,0.00051114,0.0431875,20.9977,-447.756,-0.172545,,
6,1.25,39.9333,41.603,110.732,104.724,107.373,0.0020095,0.101923,20.9538,438.566,-0.225608,0.0,1.0
12,2.75,41.1537,41.9581,111.893,104.727,82.4687,0.00347311,0.171098,20.8022,437.375,2.15748,0.0,1.0
18,4.25,43.6252,43.5419,124.403,104.728,106.078,0.00499159,0.236819,20.7217,437.205,-0.115652,0.0,1.0
24,5.75,44.4686,44.993,131.899,104.723,107.612,0.00655649,0.25887,20.7189,436.905,-0.245669,0.0,1.0
30,7.25,44.7057,44.7087,130.312,104.733,108.186,0.00770494,0.249186,20.7483,437.055,-0.292914,0.0,1.0
36,8.75,44.0285,45.378,130.713,104.722,107.872,0.00835613,0.231047,20.7858,436.985,-0.267611,0.0,0.0
42,10.25,44.5786,45.3756,130.911,104.714,107.71,0.00838938,0.207574,20.8168,436.865,-0.254715,0.0,0.0
48,11.75,44.1209,45.2832,131.11,104.71,106.875,0.00812956,0.183131,20.8545,436.845,-0.1848,0.0,0.0
54,13.25,44.0591,45.428,131.168,104.711,107.307,0.00772979,0.164225,20.8822,436.845,-0.221126,0.0,0.0
60,14.75,44.4252,45.4968,131.004,104.697,106.896,0.00724309,0.145634,20.9024,436.865,-0.187684,0.0,0.0
66,16.25,44.4284,45.5919,136.218,104.701,106.696,0.00667147,0.130083,20.9182,436.785,-0.17042,0.0,0.0
72,17.75,43.6206,45.1466,130.69,104.697,106.619,0.00619016,0.116629,20.9331,436.715,-0.164296,0.0,0.0
78,19.25,43.6072,45.1913,135.969,104.7,107.48,0.00572057,0.105584,20.9453,436.715,-0.236656,0.0,0.0
84,20.75,43.2602,44.9378,129.728,104.692,106.65,0.00537081,0.0967203,20.9532,436.745,-0.167245,0.0,0.0
90,22.25,43.2476,44.7354,131.352,104.693,107.075,0.00499784,0.0895591,20.9585,436.715,-0.203127,0.0,0.0
96,23.75,43.1478,44.7306,135.585,104.68,106.962,0.00476317,0.0849444,20.9625,436.695,-0.194733,0.0,0.0
102,25.25,43.2696,44.8185,128.37,104.7,106.737,0.00458869,0.0803368,20.9662,436.695,-0.173994,0.0,0.0
108,26.75,43.0451,44.7083,136.746,104.684,107.257,0.00443814,0.0766174,20.9695,436.614,-0.219185,0.0,0.0
114,28.25,42.8215,44.6244,135.86,104.686,106.601,0.00431215,0.0732865,20.9726,436.614,-0.163687,0.0,0.0
120,29.75,42.8688,44.2979,129.043,104.664,107.512,0.00416196,0.070731,20.9744,436.594,-0.242439,0.0,0.0
126,31.25,42.7416,44.8462,130.052,104.669,106.867,0.00398071,0.0688697,20.9763,436.584,-0.187663,0.0,0.0
132,32.75,43.0595,44.3398,132.013,104.667,106.317,0.00375851,0.0672539,20.9782,436.634,-0.141207,0.0,0.0
138,34.25,42.4526,43.7037,132.303,104.658,107.004,0.00356661,0.0656807,20.9794,436.574,-0.20016,0.0,0.0
144,35.75,43.2987,44.3844,134.237,104.654,106.621,0.00341539,0.0643972,20.9806,436.574,-0.168097,0.0,0.0
150,37.25,42.9181,44.6099,129.749,104.651,108.06,0.00322567,0.0631473,20.9817,436.594,-0.28942,0.0,0.0
156,38.75,42.031,44.0327,127.494,104.653,107.319,0.00303008,0.0618267,20.9829,436.564,-0.227182,0.0,0.0
162,40.25,43.127,44.492,132.947,104.651,106.607,0.00283201,0.0604733,20.985,436.534,-0.167157,0.0,0.0
168,41.75,42.3596,44.2659,134.611,104.643,106.25,0.00264306,0.0593113,20.9862,436.494,-0.137649,0.0,0.0
174,43.25,42.3418,44.2598,133.701,104.643,106.876,0.00247417,0.058359,20.9875,436.454,-0.190601,0.0,0.0
180,44.75,42.8546,44.8167,131.292,104.651,106.06,0.00237022,0.0575774,20.9886,436.564,-0.120795,0.0,0.0
186,46.25,42.8811,44.245,130.579,104.648,106.799,0.00229741,0.0566426,20.99,436.474,-0.183722,0.0,0.0
192,47.75,42.1447,44.3867,130.454,104.64,106.287,0.00223748,0.0557121,20.9901,436.524,-0.14098,0.0,0.0
198,49.25,42.4729,44.2083,131.968,104.642,106.148,0.00220562,0.0549596,20.9908,436.464,-0.129007,0.0,0.0
204,50.75,41.6826,43.5262,133.776,104.632,106.714,0.00215347,0.0542401,20.9911,436.494,-0.177949,0.0,0.0
210,52.25,42.0894,43.7983,134.329,104.634,106.601,0.00203373,0.053484,20.9921,436.484,-0.168171,0.0,0.0
216,53.75,42.4476,44.0984,132.372,104.63,106.911,0.00188675,0.0527503,20.9929,436.464,-0.19471,0.0,0.0
222,55.25,42.0202,43.9104,133.93,104.647,107.049,0.00175858,0.052206,20.9934,436.454,-0.204879,0.0,0.0
228,56.75,42.0647,43.533,135.817,104.629,107.212,0.00162073,0.0515243,20.9936,436.434,-0.220275,0.0,0.0
234,58.25,42.2832,44.4229,131.005,104.622,107.2,0.00151257,0.0509912,20.9937,436.424,-0.219789,0.0,0.0
240,59.75,41.6599,43.7112,131.773,104.621,107.266,0.00146687,0.0504899,20.9938,436.454,-0.225481,0.0,0.0
246,61.25,42.1632,43.8828,130.168,104.632,106.762,0.00142886,0.0501228,20.9938,436.474,-0.181967,0.0,0.0
252,62.75,41.7972,44.0818,133.17,104.624,107.569,0.00138177,0.0496755,20.9938,436.514,-0.250682,0.0,0.0
258,64.25,41.6533,43.4817,132.604,104.626,106.911,0.00130789,0.0492792,20.9938,436.414,-0.195111,0.0,0.0
264,65.75,42.3076,44.1398,133.776,104.632,106.566,0.00120407,0.048837,20.9938,436.364,-0.165333,0.0,0.0
270,67.25,41.8119,43.5943,135.511,104.625,107.045,0.00116084,0.0483506,20.9938,436.434,-0.206458,0.0,0.0
276,68.75,41.9742,43.8798,134.446,104.631,107.727,0.00116897,0.0480126,20.9938,436.394,-0.263238,0.0,0.0
282,70.25,41.3878,43.5781,131.432,104.619,106.995,0.00117379,0.047658,20.9965,436.404,-0.2028,0.0,0.0
288,71.75,41.8322,43.512,132.825,104.62,106.932,0.00114126,0.0473432,20.9986,436.504,-0.197372,0.0,0.0
294,73.25,41.9628,43.8935,130.947,104.624,106.44,0.00109463,0.0469799,21.0005,436.484,-0.155382,0.0,0.0
300,74.75,41.6636,43.6363,131.338,104.63,106.883,0.00106939,0.0466273,21.0015,436.444,-0.192403,0.0,0.0
306,76.25,41.6577,43.9322,130.603,104.607,107.079,0.00108818,0.0463357,21.0023,436.474,-0.210957,0.0,0.0
312,77.75,41.2614,43.5005,130.233,104.613,107.26,0.00111939,0.0461981,21.0034,436.394,-0.225626,0.0,0.0
318,79.25,41.9063,43.6589,133.005,104.621,107.186,0.00108609,0.0460246,21.0037,436.424,-0.21875,0.0,0.0
324,80.75,42.1398,43.3514,131.763,104.616,106.58,0.00101863,0.0457977,21.0039,436.464,-0.167953,0.0,0.0
330,82.25,41.9858,43.8215,129.864,104.617,107.255,0.000967564,0.0456906,21.004,436.434,-0.224862,0.0,0.0
336,83.75,42.1222,43.6028,132.248,104.636,106.855,0.000932276,0.0456688,21.0041,436.434,-0.189509,0.0,0.0
342,85.25,42.3587,44.1226,129.804,104.626,106.824,0.000883036,0.0455145,21.0041,436.414,-0.187685,0.0,0.0
348,86.75,42.264,44.2047,134.336,104.631,108.141,0.000837626,0.0452715,21.0041,436.364,-0.297928,0.0,0.0
354,88.25,41.9598,43.5514,128.624,104.637,107.897,0.000788996,0.0450446,21.0042,436.384,-0.277022,0.0,0.0
360,89.75,42.3002,43.602,130.297,104.642,106.796,0.000718251,0.0448233,21.0042,436.384,-0.184031,0.0,0.0
366,91.25,41.4211,43.5916,134.559,104.654,106.821,0.00063522,0.0446574,21.0042,436.404,-0.185041,0.0,0.0
372,92.75,41.6489,42.9217,128.19,104.646,106.832,0.000583568,0.0445123,21.0039,436.374,-0.18669,0.0,0.0
378,94.25,41.781,43.8617,131.654,104.656,107.517,0.000554398,0.0442911,21.0027,436.434,-0.243526,0.0,0.0
384,95.75,41.764,43.8809,131.079,104.637,106.855,0.000500803,0.0441959,21.0021,436.374,-0.18944,0.0,0.0
390,97.25,42.0606,43.9884,132.802,104.64,107.384,0.000437801,0.0441553,21.0018,436.424,-0.233736,0.0,0.0
396,98.75,41.8882,43.4746,131.958,104.629,106.161,0.000444864,0.0441698,21.0018,436.444,-0.131221,0.0,0.0
402,100.25,41.8633,44.0334,131.044,104.625,106.934,0.000512777,0.0441105,21.002,436.444,-0.197093,0.0,0.0
408,101.75,41.9196,43.9739,130.561,104.607,107.32,0.000555042,0.043905,21.0021,436.374,-0.231198,0.0,0.0
414,103.25,42.3916,43.8436,129.761,104.616,106.71,0.000532984,0.043676,21.0022,436.414,-0.178901,0.0,0.0
420,104.75,41.6145,44.3243,130.149,104.608,107.699,0.000521503,0.0435788,21.0029,436.434,-0.262954,0.0,0.0
426,106.25,41.8601,43.5162,134.304,104.622,106.567,0.000598785,0.0435004,21.0037,436.374,-0.166288,0.0,0.0
432,107.75,42.3021,43.3575,135.456,104.609,107.218,0.000657247,0.0433544,21.0041,436.404,-0.222428,0.0,0.0
438,109.25,42.2934,44.3069,131.474,104.62,107.52,0.000609864,0.0433552,21.0043,436.394,-0.246865,0.0,0.0
444,110.75,41.6634,43.5648,132.392,104.623,106.933,0.000522985,0.0434364,21.0034,436.414,-0.19716,0.0,0.0
450,112.25,41.5959,44.0692,132.109,104.608,107.497,0.000451574,0.0433303,21.0028,436.354,-0.246027,0.0,0.0
456,113.75,41.831,43.4962,130.68,104.615,106.599,0.000432654,0.0431647,21.0026,436.344,-0.169653,0.0,0.0
462,115.25,42.5118,43.7691,129.929,104.616,108.156,0.000433332,0.0431654,21.0029,436.384,-0.300458,0.0,0.0
468,116.75,41.6606,43.2336,134.012,104.618,107.071,0.000427281,0.0431087,21.0027,436.334,-0.20926,0.0,0.0
474,118.25,41.5431,43.4804,131.79,104.621,107.407,0.0004348,0.0430237,21.0023,436.434,-0.237346,0.0,0.0
480,119.75,41.8987,43.2233,133.661,104.622,107.178,0.000489566,0.042854,21.002,436.394,-0.217967,0.0,0.0
486,121.25,42.0603,43.6241,133.24,104.631,107.652,0.000559138,0.0427498,21.0019,436.414,-0.257003,0.0,0.0
492,122.75,41.4552,43.2082,128.717,104.629,106.844,0.000605889,0.0426944,21.0018,436.354,-0.189215,0.0,0.0
498,124.25,41.9489,43.5662,134.495,104.621,106.561,0.000641983,0.0426179,21.0018,436.344,-0.165879,0.0,0.0
504,125.75,41.8689,43.6097,134.137,104.629,107.809,,0.042631,,436.414,-0.270311,0.0,0.0
510,127.25,41.9312,43.9617,128.513,104.624,107.689,,0.0426718,,436.344,-0.260701,0.0,0.0
516,128.75,41.7152,43.6637,132.197,104.652,108.28,,,,436.354,-0.307755,0.0,0.0
522,130.25,42.1767,43.8901,129.665,104.633,107.45,,,,436.394,-0.239925,0.0,0.0
528,131.75,42.2349,43.9486,134.533,104.637,107.099,,,,436.374,-0.210034,0.0,0.0
534,133.25,41.9439,43.8986,129.127,104.638,107.865,,,,436.324,-0.274194,0.0,0.0
540,134.75,41.9596,43.776,130.984,104.642,107.237,,,,436.374,-0.221206,0.0,0.0
546,136.25,41.737,44.0053,129.508,104.648,106.725,,,,436.264,-0.177516,0.0,0.0