Folder: fsri_materials_database/01_Data/Fiberglass_Insulation_R30_Paper_Faced/Cone (part 2)

File: Fiberglass_Insulation_R30_Paper_Faced_Cone_HF25Scan_220506_R3.csv
Names,Time,Stack TC,Smoke TC,Exh Press,Smoke Comp,Smoke Meas,CO Meter,CO2 Meter,O2 Meter,Sample Mass,Ext Coeff,Start Test,Flame Verif
Chan Gain,,500,500,1,1,1,1,1,1,1,1,1.0,1.0
Offset,,0,0,0.134207,0,0,0,0,0,0,0,0.0,0.0
Gain,,1,1,25.011,13.8443,15.4071,1,1,1,1.00079,1.02936,1.0,1.0
Units,sec,C,C,Pa,%,%,%,%,%,g,/m,,
Baseline,,19.0707,19.5403,144.22,104.832,104.095,0.000348015,0.041063,21.0076,-444.24,0.0636706,,
6,1.25,17.3254,18.6484,141.955,105.232,104.5,0.000352244,0.0466045,21.0013,440.988,0.0630263,0.0,0.0
12,2.75,17.2156,17.9729,142.846,105.287,104.66,0.000315057,0.0467117,21.0006,440.998,0.0539756,0.0,0.0
18,4.25,17.6245,18.5732,138.32,105.323,104.423,0.000328774,0.0467183,21.0013,441.108,0.0774866,0.0,0.0
24,5.75,17.4594,18.3186,148.933,105.362,104.052,0.000513012,0.0472078,21.0027,441.038,0.112913,0.0,0.0
30,7.25,17.7096,18.149,139.684,105.362,104.789,0.00113615,0.0631898,20.987,440.918,0.0491616,0.0,1.0
36,8.75,18.016,18.8885,127.826,105.347,105.569,0.00213959,0.100785,20.8963,440.528,-0.0190308,0.0,1.0
42,10.25,19.9213,19.3669,126.741,105.316,85.2094,0.00317113,0.148451,20.8074,440.387,1.91295,0.0,1.0
48,11.75,21.1813,20.4789,127.869,105.267,90.878,0.00391114,0.186035,20.7601,440.287,1.32712,0.0,1.0
54,13.25,21.591,20.9788,132.63,105.189,102.415,0.00442213,0.19972,20.7468,440.277,0.241295,0.0,0.0
60,14.75,22.2848,21.2805,140.114,105.095,105.201,0.00498658,0.196933,20.776,440.237,-0.0091319,0.0,0.0
66,16.25,22.3262,22.2535,146.019,104.967,104.603,0.00573046,0.185719,20.8213,440.237,0.0313021,0.0,0.0
72,17.75,22.6039,21.942,145.976,104.835,104.165,0.00638222,0.16886,20.8612,440.207,0.0579026,0.0,0.0
78,19.25,21.7085,21.8857,143.021,104.858,104.304,0.00679844,0.153392,20.8917,440.197,0.0478072,0.0,0.0
84,20.75,20.9763,20.9672,140.888,104.915,104.238,0.00678213,0.138807,20.9127,440.177,0.0584181,0.0,0.0
90,22.25,21.6577,21.7895,142.817,104.967,104.641,0.00646057,0.127152,20.9312,440.167,0.0280556,0.0,0.0
96,23.75,21.566,21.5251,143.572,105.032,104.621,0.00600306,0.116048,20.946,440.187,0.0353966,0.0,0.0
102,25.25,21.2188,21.3764,142.435,105.107,104.715,0.00544806,0.106666,20.9573,440.057,0.0337057,0.0,0.0
108,26.75,21.0615,21.407,140.683,105.175,104.639,0.00498054,0.098654,20.9662,440.087,0.0460768,0.0,0.0
114,28.25,21.5901,21.2825,145.952,105.277,104.58,0.00442362,0.0917829,20.9712,440.077,0.0599281,0.0,0.0
120,29.75,21.0264,21.4809,145.709,105.351,104.853,0.00393223,0.0865728,20.9758,440.097,0.0427478,0.0,0.0
126,31.25,21.158,20.8806,145.717,105.443,104.901,0.00348718,0.0812393,20.9803,440.077,0.0465501,0.0,0.0
132,32.75,20.5193,20.9545,143.121,105.497,104.943,0.00307112,0.0767054,20.9847,440.047,0.0475781,0.0,0.0
138,34.25,20.6925,20.9956,143.691,105.564,104.981,0.00270921,0.0724869,20.9887,440.057,0.0500137,0.0,0.0
144,35.75,20.9482,20.6011,141.882,105.62,105.481,0.00236771,0.0692993,20.9915,440.017,0.0118552,0.0,0.0
150,37.25,20.2626,20.8448,146.195,105.664,105.355,0.00215059,0.0663478,20.9932,439.907,0.026477,0.0,0.0
156,38.75,20.4939,21.1062,142.237,105.693,105.243,0.00197713,0.0635192,20.996,440.007,0.0385312,0.0,0.0
162,40.25,20.6114,20.8813,144.237,105.706,105.028,0.00186666,0.0615582,20.9982,440.037,0.0581005,0.0,0.0
168,41.75,20.4235,21.171,146.419,105.696,105.445,0.00169358,0.0595606,21,440.087,0.0214905,0.0,0.0
174,43.25,20.33,20.6665,144.426,105.681,105.204,0.00148002,0.0578544,21.0008,440.107,0.0408331,0.0,0.0
180,44.75,20.1397,20.5431,144.104,105.643,105.405,0.00133577,0.0562366,21.0021,440.077,0.0203639,0.0,0.0
186,46.25,20.1067,20.924,142.044,105.591,105.171,0.00120465,0.0547097,21.003,439.917,0.0359981,0.0,0.0
192,47.75,20.2769,20.8347,141.377,105.526,105.232,0.00112319,0.0533852,21.0034,439.977,0.0251504,0.0,0.0
198,49.25,20.1851,20.7324,141.958,105.432,105.272,0.00105966,0.0520987,21.0037,440.047,0.0136975,0.0,0.0
204,50.75,20.2146,20.7272,143.391,105.319,105.159,0.00100336,0.0510769,21.0044,439.937,0.0137555,0.0,0.0
210,52.25,20.7528,20.2646,142.374,105.224,104.889,0.000939166,0.0502576,21.0049,439.877,0.0288057,0.0,0.0
216,53.75,19.6135,20.7236,140.652,105.098,104.656,0.000848093,0.0494705,21.0059,439.947,0.0379759,0.0,0.0
222,55.25,19.1216,20.6248,140.244,104.945,104.588,0.000762437,0.048576,21.006,439.877,0.0307883,0.0,0.0
228,56.75,19.7108,19.9125,144.429,104.789,104.944,0.000620419,0.0478384,21.0058,439.957,-0.0133534,0.0,0.0
234,58.25,19.9432,20.286,136.235,104.642,104.045,0.000476381,0.0471678,21.0057,440.007,0.0516888,0.0,0.0
240,59.75,19.6872,20.7687,141.52,104.464,104.134,0.000389512,0.0466465,21.0057,440.007,0.028546,0.0,0.0
246,61.25,19.7694,20.6158,143.713,104.318,103.972,0.000376105,0.0462418,21.0056,439.967,0.0300105,0.0,0.0
252,62.75,19.2552,20.4295,144.012,104.184,103.56,0.000397165,0.0457948,21.0057,439.907,0.0542196,0.0,0.0
258,64.25,19.2708,20.6953,143.954,104.045,103.709,0.000406984,0.0454582,21.0061,440.007,0.0292145,0.0,0.0
264,65.75,19.6343,20.2214,144.121,103.942,103.345,0.000392955,0.0451476,21.0062,440.007,0.0520452,0.0,0.0
270,67.25,19.0566,19.9004,139.701,103.829,103.91,0.00038703,0.0448539,21.0063,440.017,-0.00708222,0.0,0.0
276,68.75,19.0527,20.2892,142.226,103.759,104.055,0.000415112,0.0446287,21.0064,439.977,-0.0257183,0.0,0.0
282,70.25,19.7907,20.2048,142.887,103.702,103.22,0.000452188,0.0444882,21.0064,439.957,0.0421049,0.0,0.0
288,71.75,19.4233,20.1698,142.359,103.667,103.452,0.000469201,0.0442381,21.0064,439.947,0.0186809,0.0,0.0
294,73.25,19.2742,20.9216,143.285,103.661,103.829,0.000469009,0.0440668,21.0067,439.947,-0.0146093,0.0,0.0
300,74.75,19.1579,20.1624,139.783,103.697,103.233,0.000465261,0.0438452,21.0079,439.887,0.0405117,0.0,0.0
306,76.25,19.476,20.0722,144.787,103.709,103.026,0.000477704,0.043553,21.0085,439.917,0.0596554,0.0,0.0
312,77.75,19.0821,20.0486,140.487,103.77,103.473,0.000503457,0.0433427,21.0088,439.857,0.0258502,0.0,0.0
318,79.25,19.4486,20.3255,138.535,103.849,103.523,0.000520441,0.0432153,21.009,439.977,0.0284473,0.0,0.0
324,80.75,18.8684,20.1714,143.884,103.946,103.706,0.000519232,0.0430315,21.0091,439.957,0.0208397,0.0,0.0
330,82.25,18.9542,19.446,145.646,104.037,103.84,0.000541777,0.0428457,21.0091,439.937,0.0171404,0.0,0.0
336,83.75,18.7745,20.3877,141.664,104.149,103.85,0.000604572,0.0427506,21.0092,440.007,0.0259984,0.0,0.0
342,85.25,19.3091,19.8463,142.964,104.256,104.133,0.000680081,0.0426172,21.0092,439.887,0.0106833,0.0,0.0
348,86.75,18.9343,19.813,142.553,104.364,104.09,0.000706322,0.0425394,21.0092,439.917,0.0236787,0.0,0.0
354,88.25,19.3159,20.0746,142.036,104.475,104.197,0.00064252,0.0425349,21.0092,439.857,0.0240705,0.0,0.0
360,89.75,19.6856,20.165,141.128,104.59,104.629,0.000580192,0.0424555,21.0092,439.847,-0.00336651,0.0,0.0
366,91.25,18.7592,20.1692,147.58,104.684,104.382,0.000582375,0.0424497,21.0092,439.957,0.0260917,0.0,0.0
372,92.75,19.5038,20.0364,143.505,104.779,104.253,0.000612203,0.0423768,21.0092,439.997,0.0454438,0.0,0.0
378,94.25,19.1265,20.1478,142.814,104.845,104.734,0.000636797,0.042267,21.0092,439.897,0.00958881,0.0,0.0
384,95.75,18.954,19.3457,140.067,104.923,104.872,0.000647454,0.042181,21.0095,439.927,0.00441214,0.0,0.0
390,97.25,18.965,20.1653,142.791,104.97,105.048,0.000649311,0.0420734,21.0093,439.987,-0.00672082,0.0,0.0
396,98.75,18.6612,19.9361,143.059,104.986,104.75,0.000586071,0.0420234,21.0091,439.907,0.0203242,0.0,0.0
402,100.25,19.6345,20.4688,144.925,105.004,104.776,0.000510251,0.0419694,21.009,439.927,0.0196121,0.0,0.0
408,101.75,18.9623,19.6772,144.791,105.009,104.988,0.000445794,0.0419347,21.0089,439.917,0.00183291,0.0,0.0
414,103.25,19.0241,20.0059,140.866,104.99,104.879,0.00043905,0.041918,21.0089,439.897,0.00958451,0.0,0.0
420,104.75,18.887,20.2178,147.505,104.948,104.542,0.000532976,0.0417915,21.0093,439.807,0.0349849,0.0,0.0
426,106.25,18.9342,20.2985,141.794,104.911,104.736,0.000721875,0.0417405,21.0102,439.837,0.0150656,0.0,0.0
432,107.75,19.1736,19.7821,138.999,104.844,105.096,0.000856533,0.0417432,21.0106,439.937,-0.0216388,0.0,0.0
438,109.25,19.1268,20.0587,141.918,104.777,104.738,0.000907043,0.0418234,21.0109,439.917,0.00340507,0.0,0.0
444,110.75,19.0328,19.4517,139.358,104.708,104.661,0.000900712,0.0418415,21.011,439.957,0.00411842,0.0,0.0
450,112.25,18.8631,19.4369,141.178,104.659,104.892,0.000844684,0.0417818,21.0111,439.847,-0.0201176,0.0,0.0
456,113.75,18.6293,19.8982,141.048,104.602,104.646,0.00075064,0.0416968,21.0111,439.907,-0.00376978,0.0,0.0
462,115.25,18.6756,19.1706,145.533,104.547,104.214,0.000632884,0.041709,21.0108,439.897,0.0287327,0.0,0.0
468,116.75,18.8323,19.438,142.145,104.482,104.568,0.000548607,0.0417718,21.0106,439.837,-0.0073957,0.0,0.0
474,118.25,18.2759,19.1745,142.434,104.449,104.668,0.000498434,0.0417429,21.0104,439.927,-0.0189245,0.0,0.0
480,119.75,19.0785,19.625,143.64,104.396,104.526,0.00047732,0.0416879,21.0094,439.957,-0.0111971,0.0,0.0
486,121.25,19.1431,19.7184,141.218,104.514,104.94,0.00050602,0.0416294,21.0087,439.837,-0.0367566,0.0,0.0
492,122.75,18.2077,19.5486,145.8,104.699,104.621,0.00054421,0.0415361,21.0083,439.917,0.00668839,0.0,0.0
498,124.25,18.7502,19.8659,142.788,104.855,104.726,0.000541994,0.0416114,21.0081,439.967,0.0111919,0.0,0.0
504,125.75,19.1402,19.6456,144.573,104.984,105.257,0.000505916,0.0415533,21.008,439.807,-0.0234533,0.0,0.0
510,127.25,19.4648,19.5133,144.425,105.104,105.114,0.00046265,0.0415452,21.0079,439.847,-0.000864386,0.0,0.0
516,128.75,19.0536,19.4998,139.566,105.211,105.257,,0.0415494,,439.877,-0.00392,0.0,0.0
522,130.25,18.3498,19.6626,140.865,105.27,105.354,,0.0415787,,439.797,-0.00722711,0.0,0.0
528,131.75,18.5327,19.5439,142.417,105.316,105.544,,,,439.937,-0.0195437,0.0,0.0
534,133.25,19.2334,19.5051,144.893,105.328,105.459,,,,439.837,-0.0112499,0.0,0.0
540,134.75,18.8648,19.6283,142.637,105.328,105.507,,,,439.947,-0.0153107,0.0,0.0
546,136.25,18.6485,19.57,140.877,105.296,105.362,,,,439.957,-0.00566146,0.0,0.0
552,137.75,18.7866,19.4925,146.732,105.247,105.354,,,,439.987,-0.00918362,0.0,0.0
554,138.25,18.7887,19.9057,142.931,105.216,105.117,,,,439.947,0.00854253,0.0,0.0

File: Fiberglass_Insulation_R30_Paper_Faced_Cone_HF50Scalar_220509_R3.csv
LABORATORY,FSRI
TEST IDENT,Insulation3_HF50_3
OPERATOR,Dow
MATERIAL,fiberglass insulation 3 (saint gobain)
ORIENTATION,Horizontal
HEAT FLUX,50
SURF AREA,0.01
C FACTOR,0.042088
SPEC HOLDER DIFF,-566
SPECIMEN MASS,6.82
SCAN TIME,0.25
O2 DELAY TIME,11
CO DELAY TIME,11
CO2 DELAY TIME,8
FLOW FACTOR,1
SCAN COUNT,526
TIME TO IGN,1.75
END OF TEST SCAN,46
END OF TEST TIME,11.5
TEST STATUS,1
PRE TEST CMT,Dimensions: 100 x 95 x 56 mm; with frame compressed to about 40 mm

File: Fiberglass_Insulation_R30_Paper_Faced_Cone_HF50Scan_220509_R3.csv
Names,Time,Stack TC,Smoke TC,Exh Press,Smoke Comp,Smoke Meas,CO Meter,CO2 Meter,O2 Meter,Sample Mass,Ext Coeff,Start Test,Flame Verif
Chan Gain,,500,500,1,1,1,1,1,1,1,1,1.0,1.0
Offset,,0,0,0.134207,0,0,0,0,0,0,0,0.0,0.0
Gain,,1,1,25.011,13.8443,15.4071,1,1,1,1.00079,1.02936,1.0,1.0
Units,sec,C,C,Pa,%,%,%,%,%,g,/m,,
Baseline,,31.0505,32.0022,138.056,103.875,104.104,0.000314975,0.041263,21.0076,-445.664,-0.0198737,,
6,1.25,28.9195,29.9716,139.367,104.131,103.749,0.00106472,0.0587279,20.9833,439.006,0.0331351,0.0,0.0
12,2.75,29.6259,30.4097,114.947,104.157,105.381,0.00207939,0.119291,20.8575,438.346,-0.105445,0.0,1.0
18,4.25,30.4729,30.7435,118.36,104.158,84.4491,0.00307164,0.180703,20.7669,438.006,1.894,0.0,1.0
24,5.75,32.9316,32.564,128.095,104.176,106.242,0.00426474,0.220478,20.7188,437.955,-0.177304,0.0,1.0
30,7.25,32.6634,33.3862,135.778,104.21,105.62,0.00514398,0.225072,20.7262,437.875,-0.121355,0.0,0.0
36,8.75,33.4206,33.3037,134.422,104.205,104.859,0.00627681,0.211209,20.7689,437.875,-0.0564803,0.0,0.0
42,10.25,32.9164,33.4516,133.763,104.218,104.971,0.00699651,0.190287,20.8162,437.835,-0.0650169,0.0,0.0
48,11.75,33.7132,33.7701,136.575,104.257,105.025,0.00728871,0.16739,20.8605,437.815,-0.0662556,0.0,0.0
54,13.25,32.3293,32.9365,137.639,104.259,104.736,0.00712023,0.147296,20.8928,437.825,-0.0412224,0.0,0.0
60,14.75,32.8201,33.0749,139.951,104.293,104.958,0.00673911,0.131418,20.9158,437.855,-0.0574043,0.0,0.0
66,16.25,32.3898,33.024,133.751,104.31,104.846,0.00622798,0.118299,20.9304,437.775,-0.0462731,0.0,0.0
72,17.75,32.2595,33.0675,133.439,104.349,105.254,0.00556443,0.107591,20.9439,437.725,-0.077988,0.0,0.0
78,19.25,32.9527,33.1416,137.25,104.345,104.738,0.00489868,0.100483,20.9527,437.775,-0.0339232,0.0,0.0
84,20.75,32.0605,32.8808,138.732,104.377,104.656,0.00423613,0.0936546,20.9595,437.745,-0.0240857,0.0,0.0
90,22.25,32.3917,33.041,135.219,104.381,104.651,0.00367253,0.0878711,20.9664,437.625,-0.0233141,0.0,0.0
96,23.75,31.7654,33.2455,138.082,104.418,104.752,0.00333762,0.0824321,20.9716,437.705,-0.0288126,0.0,0.0
102,25.25,32.0463,32.7211,137.928,104.411,104.882,0.00314776,0.0773684,20.9764,437.755,-0.0406531,0.0,0.0
108,26.75,31.545,32.7254,136.684,104.463,104.925,0.00296374,0.072922,20.9808,437.725,-0.0398839,0.0,0.0
114,28.25,31.6144,33.0018,138.217,104.455,105.32,0.00280823,0.0697393,20.9844,437.695,-0.0744253,0.0,0.0
120,29.75,31.5821,31.9947,136.814,104.479,104.854,0.00265081,0.0663897,20.9874,437.675,-0.0323843,0.0,0.0
126,31.25,31.341,32.721,136.456,104.497,105.511,0.00240679,0.0632738,20.9896,437.705,-0.0871981,0.0,0.0
132,32.75,31.6402,32.4624,136.714,104.528,105.027,0.00209053,0.0607722,20.9911,437.725,-0.0430739,0.0,0.0
138,34.25,31.5651,33.0216,135.828,104.526,104.915,0.00176007,0.0585325,20.9922,437.725,-0.033517,0.0,0.0
144,35.75,31.3448,32.8195,137.399,104.547,105.112,0.00158491,0.0564424,20.9944,437.685,-0.0486726,0.0,0.0
150,37.25,31.7857,32.7082,136.781,104.561,104.894,0.00152205,0.054779,20.9969,437.675,-0.0287434,0.0,0.0
156,38.75,31.2418,32.4946,136.569,104.569,104.829,0.00147445,0.0533018,20.9983,437.685,-0.0224637,0.0,0.0
162,40.25,31.0571,32.6791,137.313,104.58,104.907,0.00140611,0.0520272,20.9993,437.615,-0.0282721,0.0,0.0
168,41.75,31.1621,32.6657,137.111,104.595,104.945,0.00134713,0.0510817,21.0005,437.665,-0.0301959,0.0,0.0
174,43.25,31.5554,32.2906,138.328,104.603,105.32,0.00127631,0.0501657,21.0015,437.655,-0.0617286,0.0,0.0
180,44.75,31.328,32.6078,139.654,104.607,105.399,0.00114898,0.0493749,21.0021,437.685,-0.0680568,0.0,0.0
186,46.25,31.6486,32.7257,136.833,104.624,105.334,0.000969704,0.0487455,21.0024,437.705,-0.061074,0.0,0.0
192,47.75,30.8663,32.5801,134.895,104.63,104.668,0.000757626,0.0481289,21.0025,437.605,-0.00326906,0.0,0.0
198,49.25,31.2226,32.2355,141.253,104.642,104.702,0.000630773,0.0475644,21.0026,437.595,-0.0051364,0.0,0.0
204,50.75,31.0389,32.5351,137.745,104.642,105.277,0.000600859,0.0471665,21.0027,437.595,-0.0545514,0.0,0.0
210,52.25,31.1889,32.6159,135.868,104.654,105,0.000655493,0.0466762,21.0027,437.645,-0.0297461,0.0,0.0
216,53.75,30.8835,31.8667,134.766,104.646,105.136,0.000747121,0.0463034,21.0027,437.615,-0.0421568,0.0,0.0
222,55.25,31.3041,32.1249,137.078,104.66,105.134,0.00091524,0.0461194,21.003,437.605,-0.0408294,0.0,0.0
228,56.75,31.1595,31.6144,139.975,104.657,105.376,0.0010445,0.0458475,21.0032,437.615,-0.0618576,0.0,0.0
234,58.25,31.0645,32.1768,137.629,104.673,104.893,0.00104661,0.0454875,21.0033,437.655,-0.019,0.0,0.0
240,59.75,30.7948,31.8247,136.7,104.678,104.643,0.000983502,0.0451568,21.0033,437.645,0.0029596,0.0,0.0
246,61.25,30.8193,32.2859,139.593,104.672,105.201,0.000870259,0.0448923,21.0033,437.585,-0.0455044,0.0,0.0
252,62.75,30.5916,31.4926,138.32,104.674,105.537,0.000659903,0.0447339,21.0044,437.605,-0.0741676,0.0,0.0
258,64.25,30.9802,32.2333,137.035,104.684,104.966,0.000418794,0.0445471,21.005,437.625,-0.0243237,0.0,0.0
264,65.75,30.6617,31.4711,135.904,104.689,105.142,0.000271661,0.044239,21.0053,437.535,-0.0389606,0.0,0.0
270,67.25,30.4592,31.998,136.501,104.681,104.576,0.000182859,0.0440474,21.0055,437.625,0.00905439,0.0,0.0
276,68.75,30.4892,31.8765,141.053,104.693,105.218,7.3071e-05,0.0440314,21.0056,437.595,-0.0452118,0.0,0.0
282,70.25,30.3037,32.146,138.223,104.696,105.151,1.0088e-05,0.0439107,21.0065,437.565,-0.0391487,0.0,0.0
288,71.75,30.0735,31.9925,136.103,104.697,104.896,7.53247e-05,0.0437888,21.0061,437.625,-0.0170889,0.0,0.0
294,73.25,30.4152,31.723,138.706,104.686,105.475,0.000191961,0.0436882,21.0059,437.575,-0.0677998,0.0,0.0
300,74.75,30.7841,32.1024,137.436,104.699,105.098,0.000241951,0.0435344,21.0058,437.585,-0.0343662,0.0,0.0
306,76.25,30.9524,32.5119,139.528,104.692,105.32,0.000225682,0.0434103,21.0057,437.615,-0.0539965,0.0,0.0
312,77.75,30.4242,31.8387,139.955,104.703,105.189,0.000214323,0.043237,21.0058,437.575,-0.0417588,0.0,0.0
318,79.25,30.4549,31.8921,136.762,104.698,105.827,0.000238159,0.0431543,21.0065,437.575,-0.0968408,0.0,0.0
324,80.75,30.8128,31.7618,136.807,104.708,104.846,0.000262191,0.0432998,21.0069,437.545,-0.0118907,0.0,0.0
330,82.25,30.6412,32.1771,137.423,104.701,105.188,0.000246849,0.0433396,21.0071,437.525,-0.0419005,0.0,0.0
336,83.75,30.1397,31.5905,138.082,104.7,105.321,0.000183194,0.0432327,21.0075,437.505,-0.0533885,0.0,0.0
342,85.25,30.1414,31.8351,137.619,104.693,105.022,0.000183292,0.0431306,21.0078,437.505,-0.0283704,0.0,0.0
348,86.75,30.6827,32.061,136.497,104.691,105.162,0.00032302,0.0430097,21.008,437.585,-0.0405548,0.0,0.0
354,88.25,30.0476,32.3477,139.746,104.678,105.812,0.000419842,0.042846,21.0081,437.525,-0.0973059,0.0,0.0
360,89.75,30.2533,31.5222,141.494,104.684,105.431,0.0005054,0.0428005,21.0081,437.515,-0.0642005,0.0,0.0
366,91.25,30.8694,31.7898,140.584,104.676,104.95,0.000536325,0.0426807,21.0074,437.575,-0.0236411,0.0,0.0
372,92.75,30.1027,31.5344,136.788,104.676,105.412,0.000525697,0.042582,21.0068,437.585,-0.0632422,0.0,0.0
378,94.25,30.1047,31.7613,139.259,104.66,105.157,0.000473735,0.0426302,21.0059,437.555,-0.0427672,0.0,0.0
384,95.75,31.2576,31.9196,139.277,104.678,105.632,0.000388908,0.0426011,21.0055,437.585,-0.0819219,0.0,0.0
390,97.25,30.2771,31.647,136.797,104.654,105.084,0.000244455,0.0425259,21.0062,437.565,-0.0370582,0.0,0.0
396,98.75,30.6167,31.5222,138.232,104.672,104.915,0.000140021,0.04242,21.0069,437.605,-0.0208571,0.0,0.0
402,100.25,30.6596,31.8308,134.459,104.654,105.52,0.000115425,0.0424327,21.0079,437.595,-0.0744329,0.0,0.0
408,101.75,30.5059,32.0645,138.469,104.643,104.828,0.000149819,0.0424572,21.0084,437.565,-0.0159603,0.0,0.0
414,103.25,30.2537,31.7359,138.567,104.637,105.358,0.000223489,0.0424368,21.0077,437.545,-0.0620402,0.0,0.0
420,104.75,31.2295,32.1376,137.186,104.631,105.528,0.000300352,0.0424066,21.0072,437.545,-0.0770852,0.0,0.0
426,106.25,31.1234,31.6577,135.664,104.631,105.246,0.000389177,0.0423572,21.007,437.495,-0.0528379,0.0,0.0
432,107.75,30.4841,31.7843,138.825,104.619,104.88,0.000497731,0.0422584,21.0073,437.505,-0.0224557,0.0,0.0
438,109.25,30.4266,31.5756,135.705,104.621,105.001,0.000598817,0.0421839,21.0081,437.535,-0.0327073,0.0,0.0
444,110.75,30.8176,31.4303,138.385,104.618,105.057,0.000682476,0.0421245,21.0085,437.495,-0.0378537,0.0,0.0
450,112.25,30.2611,31.6156,134.179,104.621,105.03,0.000714894,0.0420858,21.0087,437.535,-0.0352907,0.0,0.0
456,113.75,30.0817,31.5897,137.498,104.604,105.009,0.000731472,0.0420389,21.0088,437.485,-0.0348898,0.0,0.0
462,115.25,30.7454,32.3337,136.687,104.608,105.429,0.000747821,0.0420876,21.0089,437.475,-0.0705614,0.0,0.0
468,116.75,30.2042,31.8053,137.12,104.593,105.225,0.000728041,0.0421045,21.0089,437.555,-0.0543435,0.0,0.0
474,118.25,30.7267,31.1458,142.133,104.595,105.262,0.000665335,0.0419956,21.0085,437.565,-0.0574216,0.0,0.0
480,119.75,30.4307,31.4191,135.842,104.592,105.818,0.000535949,0.0419382,21.0077,437.545,-0.105229,0.0,0.0
486,121.25,30.6636,32.1169,134.411,104.6,105.285,,0.0419592,,437.505,-0.0589605,0.0,0.0
492,122.75,30.8684,31.8369,135.478,104.588,105.455,,0.0419857,,437.475,-0.0745664,0.0,0.0
498,124.25,30.9928,31.8892,140.585,104.586,104.877,,,,437.515,-0.0250987,0.0,0.0
504,125.75,30.2706,31.7709,142.847,104.584,105.628,,,,437.525,-0.0897346,0.0,0.0
510,127.25,30.2919,31.7998,139.552,104.596,105.091,,,,437.535,-0.0426596,0.0,0.0
516,128.75,30.7576,32.1688,138.684,104.575,105.325,,,,437.505,-0.0645431,0.0,0.0
522,130.25,30.7254,32.027,136.582,104.576,105.23,,,,437.505,-0.0562837,0.0,0.0
526,131.25,30.6348,31.7805,135.697,104.579,104.97,,,,437.505,-0.0337298,0.0,0.0

File: Fiberglass_Insulation_R30_Paper_Faced_Cone_HF75Scalar_220509_R1.csv
LABORATORY,FSRI
TEST IDENT,Insulation3_HF75_1
OPERATOR,Dow
MATERIAL,fiberglass insulation 3 (saint gobain)
ORIENTATION,Horizontal
HEAT FLUX,75
SURF AREA,0.01
C FACTOR,0.042088
SPEC HOLDER DIFF,-566
SPECIMEN MASS,9.29
SCAN TIME,0.25
O2 DELAY TIME,11
CO DELAY TIME,11
CO2 DELAY TIME,8
FLOW FACTOR,1
SCAN COUNT,546
TIME TO IGN,1.25
END OF TEST SCAN,66
END OF TEST TIME,16.5
TEST STATUS,1
PRE TEST CMT,Dimensions: 101 x 97 x 50 mm; with frame compressed to about 40 mm