Folder: fsri_materials_database/01_Data/PC/Cone (part 5)

File: PC_Cone_HF75Scan_220216_R3.csv
Names,Time,Stack TC,Smoke TC,Exh Press,Smoke Comp,Smoke Meas,CO Meter,CO2 Meter,O2 Meter,Sample Mass,Ext Coeff,Start Test,Flame Verif
Chan Gain,,500,500,1,1,1,1,1,1,1,1,1.0,1.0
Offset,,0,0,0.140898,0,0,0,0,0,0,0,0.0,0.0
Gain,,1,1,25.011,12.9668,12.6588,1,1,1,1.00088,1.01977,1.0,1.0
Units,sec,C,C,Pa,%,%,%,%,%,g,/m,,
Baseline,,52.8947,55.3235,149.387,98.0133,97.4744,-0.00323831,0.0644696,20.9647,-873.527,0.0494235,,
32,7.75,49.9464,51.9997,148.571,97.8777,96.6349,-0.00326972,0.0689854,20.9632,59.4522,0.114309,0.0,0.0
64,15.75,50.0452,52.0968,147.769,97.8476,96.4,-0.00323475,0.0653956,20.9679,59.3922,0.133329,0.0,0.0
96,23.75,49.8816,52.9163,152.56,97.8203,96.4456,-0.00321955,0.0644291,20.9665,59.3521,0.126603,0.0,0.0
128,31.75,50.6385,52.9865,150.946,97.8124,96.9934,-0.00322901,0.0651389,20.9645,59.3922,0.0752158,0.0,0.0
160,39.75,51.0119,53.5175,150.864,97.8302,96.3486,-0.0035518,0.0664101,20.9603,59.3221,0.136506,0.0,0.0
192,47.75,51.3732,53.9477,147.972,97.8452,95.7058,-0.00344516,0.0680955,20.9582,59.2921,0.197763,0.0,0.0
224,55.75,52.0348,55.6854,145.072,97.8591,81.9077,-0.0002545,0.147564,20.8347,59.152,1.59169,0.0,1.0
256,63.75,54.9925,60.199,133.865,97.907,52.8698,0.0112545,0.406787,20.43,58.2712,5.51198,0.0,0.0
288,71.75,62.1636,71.1197,127.847,97.9576,39.8104,0.0272858,0.758681,19.9771,56.8299,8.05445,0.0,0.0
320,79.75,69.976,81.9405,131.228,97.9912,44.2318,0.0302763,0.862436,19.8564,55.2785,7.11544,0.0,0.0
352,87.75,74.9636,88.8546,126.945,98.0502,42.552,0.0306007,0.85426,19.8648,53.7472,7.46713,0.0,0.0
384,95.75,79.4126,94.562,119.795,98.1187,39.6427,0.0339733,0.874464,19.8321,52.1958,8.1069,0.0,0.0
416,103.75,84.1348,100.573,115.257,98.1804,40.1152,0.0395445,0.943655,19.7239,50.4443,8.00654,0.0,0.0
448,111.75,88.292,105.967,124.89,98.2366,38.753,0.041135,0.990756,19.6623,48.7528,8.32069,0.0,0.0
480,119.75,92.1041,110.793,125.395,98.2805,36.0357,0.0420832,1.00199,19.6454,46.9012,8.97501,0.0,0.0
512,127.75,95.316,114.903,123.48,98.3414,40.7642,0.0412375,0.995185,19.6611,45.1196,7.87764,0.0,0.0
544,135.75,96.7569,115.408,126.965,98.3739,43.8327,0.0353176,0.883878,19.8211,43.6083,7.23137,0.0,0.0
576,143.75,97.3538,115.493,122.767,98.3854,41.577,0.0322728,0.857847,19.8423,42.107,7.70502,0.0,0.0
608,151.75,96.7907,115.261,124.55,98.3703,48.2591,0.0266945,0.774577,19.965,40.8559,6.37046,0.0,0.0
640,159.75,96.3285,112.44,127.726,98.3668,55.0011,0.0209301,0.680274,20.0958,39.6748,5.20037,0.0,0.0
672,167.75,94.4116,109.485,126.24,98.3157,57.4797,0.0161973,0.597497,20.2188,38.754,4.80142,0.0,0.0
704,175.75,92.9241,106.744,127.623,98.2674,57.0169,0.0133682,0.552961,20.2776,37.7932,4.86935,0.0,0.0
736,183.75,91.7865,104.752,130.779,98.1986,60.1113,0.0132429,0.53122,20.3038,36.9324,4.39032,0.0,0.0
768,191.75,90.3098,102.373,133.228,98.1084,66.3492,0.0118738,0.499256,20.3503,36.1517,3.49889,0.0,0.0
800,199.75,89.144,99.7355,130.383,98.0083,66.4817,0.0112614,0.481892,20.3726,35.3711,3.47191,0.0,0.0
832,207.75,88.0592,99.2619,134.171,97.8567,64.9492,0.0112026,0.485184,20.3645,34.6404,3.66669,0.0,0.0
864,215.75,87.8648,98.0987,133.056,97.681,66.8931,0.0111491,0.488587,20.3659,33.8798,3.3868,0.0,0.0
896,223.75,87.5991,97.3866,129.991,97.4962,63.6932,0.0113893,0.474822,20.3838,33.1791,3.80834,0.0,0.0
928,231.75,86.8966,96.1582,133.756,97.3233,66.9545,0.0115622,0.475499,20.3852,32.3784,3.34577,0.0,0.0
960,239.75,86.2696,95.2447,133.063,97.1962,68.015,0.0115887,0.470671,20.3948,31.6778,3.19352,0.0,0.0
992,247.75,85.5534,94.9875,135.168,97.1306,67.3138,0.0113242,0.45923,20.4089,30.9972,3.28017,0.0,0.0
1024,255.75,85.6291,94.1266,134.235,97.1215,71.5818,0.0103606,0.430841,20.4479,30.3667,2.72941,0.0,0.0
1056,263.75,84.7352,92.3933,130.071,97.1721,71.0518,0.00965024,0.415933,20.4714,29.7161,2.80056,0.0,0.0
1088,271.75,83.8333,91.4849,132.215,97.258,74.7674,0.00940896,0.400633,20.4928,29.1256,2.35249,0.0,0.0
1120,279.75,83.2957,90.9191,130.873,97.387,73.938,0.00857182,0.38671,20.5102,28.5651,2.46413,0.0,0.0
1152,287.75,82.3781,90.1142,134.762,97.5116,73.7193,0.00824686,0.379868,20.5181,28.0346,2.50207,0.0,0.0
1184,295.75,82.3419,89.1694,135.514,97.6165,75.5516,0.00808826,0.377206,20.5215,27.5142,2.29206,0.0,0.0
1216,303.75,81.6384,88.8204,138.609,97.7324,74.1308,0.00809807,0.370349,20.5336,27.0137,2.47252,0.0,0.0
1248,311.75,80.9859,88.2652,138.938,97.8789,74.0744,0.00769698,0.363869,20.5435,26.4833,2.49272,0.0,0.0
1280,319.75,80.7472,87.2386,134.746,98.0253,75.1989,0.00735844,0.361839,20.5447,25.9728,2.3713,0.0,0.0
1312,327.75,80.4707,86.8764,131.656,98.1867,76.0133,0.00772608,0.365631,20.5406,25.4423,2.28967,0.0,0.0
1344,335.75,79.9452,87.2154,136.028,98.3035,74.1933,0.00803921,0.380756,20.519,24.9119,2.51708,0.0,0.0
1376,343.75,80.6864,86.7267,133.665,98.4443,73.4872,0.00794702,0.387174,20.5092,24.3013,2.61544,0.0,0.0
1408,351.75,80.4657,87.462,137.754,98.603,70.4055,0.00840361,0.404076,20.4865,23.7208,3.01306,0.0,0.0
1440,359.75,81.0943,88.7368,133.453,98.717,70.3387,0.00953136,0.439528,20.4376,23.0102,3.03189,0.0,0.0
1472,367.75,81.5842,89.0277,134.187,98.8195,69.8875,0.00945837,0.439886,20.4353,22.3696,3.09874,0.0,0.0
1504,375.75,81.9952,90.0202,133.485,98.8832,70.9448,0.00951427,0.443192,20.4343,21.6991,2.97018,0.0,0.0
1536,383.75,82.9365,89.6841,130.557,98.9267,70.2456,0.00929878,0.440414,20.4374,21.0185,3.06272,0.0,0.0
1568,391.75,82.2206,90.4005,133.769,98.9615,73.2708,0.0090575,0.428102,20.4534,45.2998,2.68869,0.0,0.0
1600,399.75,82.4632,90.076,136.956,98.9817,73.3624,0.00850101,0.419711,20.4673,60.313,2.67934,0.0,0.0
1632,407.75,82.3794,90.0524,129.099,98.9873,73.5532,0.00804867,0.413644,20.4746,78.4789,2.6566,0.0,0.0
1664,415.75,82.6397,89.6074,136.569,98.9702,76.7291,0.00766891,0.404514,20.4871,88.848,2.27693,0.0,0.0
1696,423.75,81.4404,89.4923,135.182,98.9568,76.0681,0.00747241,0.397774,20.4968,95.0034,2.3531,0.0,0.0
1728,431.75,81.6648,88.9865,137.258,98.9445,76.0716,0.00672514,0.398867,20.4967,101.379,2.35159,0.0,0.0
1760,439.75,81.7517,88.6502,134.458,98.8954,74.9753,0.00695965,0.402105,20.4934,109.216,2.47701,0.0,0.0
1792,447.75,81.4712,88.9145,135.604,98.8499,76.694,0.00617765,0.397554,20.5038,121.857,2.27015,0.0,0.0
1824,455.75,81.5159,88.5125,134.022,98.7937,77.0706,0.0057922,0.386401,20.5197,111.348,2.22123,0.0,0.0
1856,463.75,81.2192,88.0787,135.768,98.751,79.9174,0.00525666,0.366309,20.5448,114.08,1.8929,0.0,0.0
1888,471.75,80.7714,87.2275,132.705,98.7027,80.1133,0.00446609,0.35426,20.5622,130.595,1.86663,0.0,0.0
1920,479.75,80.1802,86.7516,137.305,98.6521,81.198,0.00467229,0.34853,20.5694,143.576,1.74173,0.0,0.0
1952,487.75,79.8776,86.2209,134.378,98.6196,82.0008,0.00445453,0.341387,20.5806,147.65,1.65078,0.0,0.0
1984,495.75,79.3158,85.4529,135.585,98.6121,82.4756,0.00417537,0.337494,20.585,151.563,1.59846,0.0,0.0
2016,503.75,79.1261,84.7299,138.438,98.6038,83.2784,0.00386346,0.328222,20.5958,160.701,1.51106,0.0,0.0
2048,511.75,78.4936,84.4962,140.315,98.5888,82.5046,0.00410442,0.323378,20.6006,154.576,1.5932,0.0,0.0
2080,519.75,78.382,83.4891,133.643,98.5567,85.2269,0.00369705,0.317011,20.6103,152.304,1.29989,0.0,0.0
2112,527.75,77.9081,82.8885,136.535,98.5539,84.9588,0.00330121,0.308584,20.6223,141.304,1.32782,0.0,0.0
2144,535.75,77.0865,82.4847,135.768,98.5417,87.5908,0.00346766,0.302608,20.6324,136.2,1.05379,0.0,0.0
2176,543.75,76.7871,81.7786,138.104,98.5045,86.292,0.00336999,0.294293,20.6452,135.459,1.18405,0.0,0.0
2208,551.75,76.3246,81.1647,140.16,98.4756,87.5796,0.00302583,0.287478,20.656,128.773,1.04893,0.0,0.0
2240,559.75,75.9692,80.7344,135.431,98.434,87.5916,0.00302305,0.276723,20.6674,121.857,1.04394,0.0,0.0
2272,567.75,75.0443,79.7856,140.776,98.3968,89.8345,0.00309509,0.263045,20.6906,102.23,0.814375,0.0,0.0
2304,575.75,74.7438,78.8984,140.007,98.3581,91.7843,0.00269185,0.247931,20.7139,92.3311,0.618779,0.0,0.0
2336,583.75,73.5017,78.4818,140.684,98.3327,92.8061,0.00299815,0.234776,20.7292,90.0191,0.51744,0.0,0.0
2368,591.75,73.1147,77.4523,140.021,98.3074,94.8397,0.00392331,0.217252,20.7527,83.0229,0.321242,0.0,0.0
2400,599.75,72.3987,76.1761,138.735,98.2841,94.6766,0.00500633,0.205318,20.7689,83.0229,0.334507,0.0,0.0
2432,607.75,71.3484,75.645,137.552,98.2524,95.6668,0.00534346,0.199723,20.7746,75.6164,0.23856,0.0,0.0
2464,615.75,70.7204,74.9819,140.395,98.2065,94.7357,0.00553199,0.196528,20.7772,66.9988,0.321863,0.0,0.0
2496,623.75,70.4101,74.0807,141.254,98.1681,95.1406,0.00574801,0.196569,20.7748,60.8635,0.280219,0.0,0.0
2528,631.75,69.8134,73.7643,145.001,98.2322,95.1947,0.00566632,0.193779,20.781,55.3086,0.280974,0.0,0.0
2560,639.75,69.4281,72.9552,141.941,98.3149,95.8704,0.00552537,0.191912,20.7848,47.792,0.225234,0.0,0.0
2592,647.75,68.7315,71.838,138.996,98.3933,95.3508,0.00605783,0.194882,20.7821,40.5256,0.280974,0.0,0.0
2624,655.75,68.097,71.4602,143.616,98.4621,96.2293,0.00610538,0.192509,20.7879,35.241,0.205194,0.0,0.0
2656,663.75,68.1157,70.9026,141.588,98.4958,95.6795,0.00645916,0.19354,20.7869,30.9772,0.259498,0.0,0.0
2688,671.75,67.5595,70.5578,143.681,98.5452,95.9766,0.00608434,0.193299,20.786,26.7835,0.236257,0.0,0.0
2720,679.75,67.2824,70.6974,140.541,98.5682,95.5899,0.00608201,0.193893,20.7865,22.5198,0.274456,0.0,0.0
2752,687.75,66.512,70.1562,143.455,98.59,95.1874,0.00595888,0.192235,20.7904,19.0868,0.31418,0.0,0.0
2784,695.75,67.1752,69.9464,139.105,98.6125,95.5999,0.00636521,0.19174,20.7916,16.8648,0.277537,0.0,0.0
2816,703.75,66.7145,69.7059,139.538,98.6303,95.6386,0.00660234,0.1911,20.7935,14.1724,0.275539,0.0,0.0
2848,711.75,66.8362,69.8818,141.444,98.6469,95.9461,0.00693202,0.191568,20.7945,11.33,0.24833,0.0,0.0
2880,719.75,65.6803,69.5039,141.51,98.6687,95.6981,0.00647232,0.189585,20.7948,9.63846,0.273456,0.0,0.0
2912,727.75,65.9268,69.4378,138.839,98.6731,96.0705,0.0068089,0.190535,20.7935,7.27639,0.239108,0.0,0.0
2944,735.75,66.5075,69.4726,139.849,98.6786,96.2482,0.0064775,0.189635,20.7942,7.12626,0.223078,0.0,0.0
2976,743.75,65.8851,69.4372,140.579,98.662,95.79,0.00633547,0.189664,20.7958,6.99614,0.264256,0.0,0.0
3008,751.75,65.3141,69.3785,141.437,98.6339,95.8901,0.00669258,0.190076,20.7974,6.90607,0.25237,0.0,0.0
3040,759.75,65.4679,68.9381,144.656,98.5852,96.1014,,0.188915,,6.75593,0.228263,0.0,0.0
3072,767.75,65.8937,69.4986,143.449,98.5448,95.819,,,,6.66585,0.250924,0.0,0.0
3076,768.75,65.0355,69.3994,138.954,98.5389,95.9503,,,,6.65585,0.238132,0.0,0.0