Folder: fsri_materials_database/01_Data/PC/Cone

Note: 01_Data/README.md
# Materials and Products Database
## 01_Data

Raw data generated from each apparatus are included here in plain-text format. The data is organized first by material, next by the short name of test apparatus used, and where applicable additional filtering by test settings.

### material.json

Each material directory contains a json file of the same name as the material. This file links the data stored in the repository as well as data and graphs produced by the accompanying scripts (__02_Scripts__) to the respective landing page for the material on the front-end website.

File: PC_Cone_HF25Scalar_220216_R1.csv
LABORATORY,FSRI
TEST IDENT,PC_HF25_1
OPERATOR,Dow
MATERIAL,Polycarbonate
ORIENTATION,Horizontal
HEAT FLUX,25
SURF AREA,0.01
C FACTOR,0.0393671
SPEC HOLDER DIFF,301.2
SPECIMEN MASS,64.3
SCAN TIME,0.25
O2 DELAY TIME,11
CO DELAY TIME,11
CO2 DELAY TIME,8
FLOW FACTOR,1
SCAN COUNT,5406
TIME TO IGN,0
END OF TEST SCAN,4926
END OF TEST TIME,1231.5
TEST STATUS,1
PRE TEST CMT,Dimensions: 98.70 x 98.35 x 5.40 mm; 60 mm spacing
POST TEST CMT,no ignition

File: PC_Cone_HF25Scalar_220216_R2.csv
LABORATORY,FSRI
TEST IDENT,PC_HF25_2
OPERATOR,Dow
MATERIAL,Polycarbonate
ORIENTATION,Horizontal
HEAT FLUX,25
SURF AREA,0.01
C FACTOR,0.0393671
SPEC HOLDER DIFF,302.15
SPECIMEN MASS,64.7
SCAN TIME,0.25
O2 DELAY TIME,11
CO DELAY TIME,11
CO2 DELAY TIME,8
FLOW FACTOR,1
SCAN COUNT,3256
TIME TO IGN,0
END OF TEST SCAN,2776
END OF TEST TIME,694
TEST STATUS,1
PRE TEST CMT,Dimensions: 98.85 x 99.06  x 5.40 mm
POST TEST CMT,no ignition

File: PC_Cone_HF25Scalar_220216_R3.csv
LABORATORY,FSRI
TEST IDENT,PC_HF25_3
OPERATOR,Dow
MATERIAL,Polycarbonate
ORIENTATION,Horizontal
HEAT FLUX,25
SURF AREA,0.01
C FACTOR,0.0393671
SPEC HOLDER DIFF,301.25
SPECIMEN MASS,64.9
SCAN TIME,0.25
O2 DELAY TIME,11
CO DELAY TIME,11
CO2 DELAY TIME,8
FLOW FACTOR,1
SCAN COUNT,2995
TIME TO IGN,0
END OF TEST SCAN,2515
END OF TEST TIME,628.75
TEST STATUS,1
PRE TEST CMT,Dimensions: 98.45 x 98.66 x 5.48 mm; 60 mm spacing
POST TEST CMT,no ignition

File: PC_Cone_HF25Scan_220216_R1.csv
Names,Time,Stack TC,Smoke TC,Exh Press,Smoke Comp,Smoke Meas,CO Meter,CO2 Meter,O2 Meter,Sample Mass,Ext Coeff,Start Test,Flame Verif
Chan Gain,,500,500,1,1,1,1,1,1,1,1,1.0,1.0
Offset,,0,0,0.140898,0,0,0,0,0,0,0,0.0,0.0
Gain,,1,1,25.011,12.9668,12.6588,1,1,1,1.00088,1.01977,1.0,1.0
Units,sec,C,C,Pa,%,%,%,%,%,g,/m,,
Baseline,,21.5881,22.7172,157.469,97.8289,99.0087,-0.0024965,0.0638354,20.9823,-873.374,-0.10721,,
58,14.25,20.4345,21.3562,161.67,98.7463,99.6343,-0.0026246,0.0698373,20.9732,59.172,-0.0800828,0.0,0.0
116,28.75,20.2145,21.288,152.754,98.2667,99.5311,-0.00253785,0.0678449,20.9712,59.152,-0.11437,0.0,0.0
174,43.25,20.4216,21.9752,156.771,98.7011,100.107,-0.00274405,0.0677807,20.9742,59.1119,-0.126523,0.0,0.0
232,57.75,20.9337,21.949,162.507,97.9829,99.71,-0.00274914,0.0672653,20.9733,59.1419,-0.156297,0.0,0.0
290,72.25,20.9904,22.1888,158.283,98.2556,100.538,-0.00304141,0.0674724,20.9736,59.1119,-0.205439,0.0,0.0
348,86.75,20.9576,22.5361,153.077,98.1626,99.7382,-0.00265009,0.0669331,20.9728,59.1019,-0.14244,0.0,0.0
406,101.25,20.5633,22.104,155.158,97.4147,99.5535,-0.00303174,0.0663827,20.975,59.1119,-0.194278,0.0,0.0
464,115.75,21.7009,22.8622,153.427,96.9568,99.2271,-0.00260426,0.0659367,20.978,59.0719,-0.20704,0.0,0.0
522,130.25,21.3387,22.9409,159.389,97.5666,100.14,-0.00267142,0.068406,20.9663,59.0719,-0.232909,0.0,0.0
580,144.75,21.6594,22.9873,156.168,98.5619,100.216,-0.00308342,0.0685,20.966,59.0619,-0.14892,0.0,0.0
638,159.25,22.2801,22.9734,152.479,98.9671,100.771,-0.00275633,0.0682713,20.9705,59.0619,-0.1616,0.0,0.0
696,173.75,21.9844,23.2105,159.41,98.7898,100.573,-0.00294195,0.0677571,20.9722,59.0619,-0.160029,0.0,0.0
754,188.25,22.1109,23.1295,157.182,98.328,100.756,-0.00281878,0.0668501,20.9727,59.0218,-0.218215,0.0,0.0
812,202.75,21.7428,23.4924,157.259,98.6264,100.6,-0.00311049,0.0668274,20.9753,59.0419,-0.17721,0.0,0.0
870,217.25,22.2578,23.4427,154.849,98.6936,100.933,-0.00286569,0.0660657,20.9776,58.9918,-0.20074,0.0,0.0
928,231.75,22.0717,23.5622,160.523,97.994,100.422,-0.00310122,0.0663871,20.9739,58.9618,-0.218967,0.0,0.0
986,246.25,21.8367,23.5176,154.991,98.1369,100.676,-0.00343161,0.0686952,20.9669,58.9718,-0.228516,0.0,0.0
1044,260.75,22.2662,24.0044,156.351,98.231,100.24,-0.00288331,0.0709821,20.9627,58.9718,-0.181133,0.0,0.0
1102,275.25,22.4223,23.8504,160.684,98.2453,100.534,-0.00278116,0.0711986,20.9628,58.9618,-0.205998,0.0,0.0
1160,289.75,22.5837,24.1642,155.12,98.2409,100.247,-0.00325713,0.0681445,20.9756,58.9518,-0.180818,0.0,0.0
1218,304.25,22.9608,23.977,155.797,98.2591,100.478,-0.00304427,0.0653528,20.9799,58.9618,-0.199718,0.0,0.0
1276,318.75,23.0467,24.5343,157.876,98.2033,100.192,-0.00269314,0.0650972,20.9772,58.9418,-0.179346,0.0,0.0
1334,333.25,23.4027,24.4457,158.23,98.0193,99.7324,-0.00311723,0.064608,20.9787,58.9217,-0.154983,0.0,0.0
1392,347.75,22.9821,24.3349,157.207,98.4226,100.221,-0.00306605,0.0640061,20.9816,58.9518,-0.161985,0.0,0.0
1450,362.25,23.2795,24.504,154.805,98.7399,100.321,-0.00302032,0.0629378,20.9867,58.9518,-0.142079,0.0,0.0
1508,376.75,23.3912,24.667,155.12,98.2963,99.9221,-0.0030753,0.0619255,20.9885,58.9418,-0.146737,0.0,0.0
1566,391.25,23.4797,25.2944,158.384,98.8954,100.588,-0.00310359,0.0613345,20.99,58.9117,-0.151772,0.0,0.0
1624,405.75,23.4204,24.9288,156.532,98.6268,100.433,-0.00275125,0.0605381,20.9909,58.8917,-0.162356,0.0,0.0
1682,420.25,23.5322,25.1854,158.057,97.2861,98.7276,-0.00313112,0.0604549,20.9927,58.8817,-0.131572,0.0,0.0
1740,434.75,24.0386,25.442,154.353,97.148,98.3625,-0.00298642,0.0598799,20.99,58.8817,-0.111139,0.0,0.0
1798,449.25,24.0536,25.3437,152.898,98.2057,99.7683,-0.00306002,0.059795,20.9891,58.8817,-0.141212,0.0,0.0
1856,463.75,23.5829,25.1379,159.108,98.0549,99.7405,-0.00300664,0.0598817,20.9938,58.8617,-0.152461,0.0,0.0
1914,478.25,23.8104,25.7123,158.023,98.7336,99.8861,-0.00311371,0.0600296,20.9933,58.8617,-0.103816,0.0,0.0
1972,492.75,24.5576,25.8638,153.832,98.5935,99.3047,-0.00308644,0.059786,20.9927,58.8417,-0.0642963,0.0,0.0
2030,507.25,24.2365,25.8978,154.935,98.6509,99.5253,-0.00304796,0.0596649,20.9954,58.8517,-0.0789402,0.0,0.0
2088,521.75,24.6751,25.6824,156.217,97.002,97.8271,-0.00314145,0.0601855,20.991,58.8517,-0.0757687,0.0,0.0
2146,536.25,24.38,25.6003,155.524,97.9457,98.6441,-0.00321443,0.0605358,20.9896,58.8517,-0.0635568,0.0,0.0
2204,550.75,24.4089,26.0397,153.489,98.0154,98.4224,-0.00308596,0.059975,20.9928,58.8317,-0.0370684,0.0,0.0
2262,565.25,24.5862,25.8607,153.082,98.5171,98.167,-0.00288556,0.0600769,20.9918,58.8217,0.0318479,0.0,0.0
2320,579.75,24.7997,26.4028,155.784,98.9584,99.3457,-0.00292167,0.0599696,20.9911,58.7916,-0.0349421,0.0,0.0
2378,594.25,24.6348,26.4026,157.115,97.3818,97.4083,-0.00283568,0.0596522,20.9921,58.8317,-0.00243005,0.0,0.0
2436,608.75,24.6819,26.5114,149.323,97.5508,96.5584,-0.00352503,0.0594736,20.9925,58.7916,0.0914697,0.0,0.0
2494,623.25,24.515,26.1729,156.873,98.2829,97.9306,-0.00295518,0.0590352,20.9933,58.8117,0.032121,0.0,0.0
2552,637.75,24.9596,26.4916,154.842,97.8389,97.4106,-0.00296505,0.0625807,20.991,58.7816,0.0392425,0.0,0.0
2610,652.25,24.7266,26.2046,154.248,98.6766,98.4367,-0.00316866,0.0609318,20.9922,58.7816,0.0217785,0.0,0.0
2668,666.75,24.8344,26.7933,156.149,98.33,98.0109,-0.00282688,0.0607038,20.9899,58.7916,0.0290699,0.0,0.0
2726,681.25,24.8185,26.0986,154.211,98.2932,98.2678,-0.00301116,0.0610912,20.9897,58.7816,0.00230519,0.0,0.0
2784,695.75,24.846,26.6631,153.501,98.4669,98.381,-0.00297247,0.0610906,20.989,58.7716,0.0078024,0.0,0.0
2842,710.25,24.8893,26.115,153.669,98.5346,98.6847,-0.00306502,0.0618166,20.9874,58.7416,-0.0136193,0.0,0.0
2900,724.75,24.8253,26.3784,156.312,98.51,98.6086,-0.00323208,0.0618343,20.9874,58.7616,-0.00894596,0.0,0.0
2958,739.25,24.7738,26.1988,156.587,98.4182,98.7963,-0.00294246,0.0618408,20.9895,58.7316,-0.0343019,0.0,0.0
3016,753.75,25.1085,26.7095,151.977,98.2979,98.7496,-0.00304451,0.0626572,20.9862,58.7316,-0.0410093,0.0,0.0
3074,768.25,24.8946,26.0041,153.834,98.1895,97.6652,-0.00301428,0.0628414,20.9864,58.7416,0.0478933,0.0,0.0
3132,782.75,24.8411,26.741,154.405,98.2508,99.0644,-0.00298109,0.0632672,20.9859,58.7416,-0.0737713,0.0,0.0
3190,797.25,24.3785,25.4942,158.653,98.5484,98.9327,-0.00309602,0.0635556,20.9845,58.7116,-0.0348152,0.0,0.0
3248,811.75,24.5744,26.0268,155.714,98.664,99.2259,-0.00318368,0.0630286,20.9856,58.7316,-0.050805,0.0,0.0
3306,826.25,24.9695,26.3128,154.802,98.6675,99.3847,-0.00298307,0.0641347,20.9796,58.7316,-0.0647855,0.0,0.0
3364,840.75,24.7784,25.9001,158.085,98.4898,99.4612,-0.00278898,0.0638544,20.9825,58.7116,-0.0877899,0.0,0.0
3422,855.25,24.7922,26.1749,159.666,98.0601,98.7847,-0.00299361,0.0644585,20.9777,58.6915,-0.0658624,0.0,0.0
3480,869.75,24.7728,26.4768,156.046,97.8816,98.7249,-0.00304105,0.0655385,20.9759,58.6915,-0.0767329,0.0,0.0
3538,884.25,24.7118,26.4672,156.387,98.0304,99.3403,-0.0031104,0.065821,20.9763,58.6715,-0.118733,0.0,0.0
3596,898.75,24.2215,25.8653,156.262,98.1788,98.6936,-0.00297237,0.0662668,20.9788,58.7016,-0.0467794,0.0,0.0
3654,913.25,24.6052,26.1917,152.914,98.2896,99.4492,-0.00297505,0.0653119,20.9808,58.6815,-0.104917,0.0,0.0
3712,927.75,23.9406,25.6271,155.304,98.0894,99.0359,-0.00317628,0.0643642,20.9828,58.6915,-0.0859013,0.0,0.0
3770,942.25,24.4055,25.8625,149.627,97.5472,98.835,-0.00343243,0.0643485,20.9823,58.6715,-0.117314,0.0,0.0
3828,956.75,24.8245,26.7228,155.664,97.0344,97.9059,-0.00283313,0.0640132,20.984,58.6815,-0.0799795,0.0,0.0
3886,971.25,24.8112,26.3491,151.25,97.1555,98.0747,-0.00305474,0.0709944,20.9692,58.6715,-0.0842353,0.0,0.0
3944,985.75,24.8035,26.729,159.395,98.0684,99.0629,-0.00276363,0.0674928,20.9755,58.6515,-0.0902553,0.0,0.0
4002,1000.25,25.0019,26.25,154.114,98.8112,100.517,-0.003297,0.0662342,20.9771,58.6415,-0.15311,0.0,0.0
4060,1014.75,24.6678,26.5649,153.694,98.8974,100.314,-0.0031836,0.0660643,20.9746,58.6315,-0.127236,0.0,0.0
4118,1029.25,24.3784,26.1939,153.357,98.3699,99.8626,-0.00295993,0.0659878,20.9771,58.6315,-0.134714,0.0,0.0
4176,1043.75,24.8821,26.3791,157.239,98.491,100.045,-0.00338448,0.0650646,20.9803,58.6415,-0.139993,0.0,0.0
4234,1058.25,25.041,26.4655,155.581,98.6687,100.14,-0.00299534,0.0644171,20.9822,58.6115,-0.132364,0.0,0.0
4292,1072.75,24.6197,26.2689,153.956,97.8816,99.6026,-0.00306242,0.0661849,20.9798,58.6415,-0.15591,0.0,0.0
4350,1087.25,24.8176,26.5636,157.977,98.0629,99.4264,-0.00298971,0.0718926,20.9703,58.6315,-0.123527,0.0,0.0
4408,1101.75,25.3759,26.7291,153.113,98.2789,99.9607,-0.00310846,0.0693957,20.9729,58.6215,-0.151779,0.0,0.0
4466,1116.25,25.2031,26.374,156.022,97.8789,99.6574,-0.00275838,0.070527,20.97,58.6215,-0.161089,0.0,0.0
4524,1130.75,25.0931,26.5974,151.376,97.2295,99.0737,-0.00297975,0.0692651,20.9716,58.6115,-0.168084,0.0,0.0
4582,1145.25,24.7513,26.2998,157.711,96.9655,99.1011,-0.00286899,0.068819,20.9695,58.5714,-0.194876,0.0,0.0
4640,1159.75,24.7149,26.167,158.978,97.2604,99.1896,-0.00299593,0.0696046,20.9682,58.5714,-0.175702,0.0,0.0
4698,1174.25,24.7743,26.1729,155.368,97.9236,99.8691,-0.00301765,0.0717546,20.966,58.5915,-0.175985,0.0,0.0
4756,1188.75,25.1816,26.5787,155.629,98.6256,100.936,-0.00299505,0.0687229,20.9752,58.5714,-0.207118,0.0,0.0
4814,1203.25,25.1372,26.3458,154.03,98.9639,100.902,-0.00295714,0.067594,20.9711,58.5815,-0.173504,0.0,0.0
4872,1217.75,24.9718,26.6135,151.31,98.5745,100.237,-0.00315998,0.0677041,20.9736,58.5714,-0.149632,0.0,0.0
4930,1232.25,24.4356,25.9342,154.788,98.3213,100.785,-0.00307312,0.0702944,20.9681,58.5614,-0.221364,0.0,0.0
4988,1246.75,24.6674,25.9817,154.207,98.7336,100.776,-0.00303913,0.0697783,20.9704,58.5915,-0.183174,0.0,0.0
5046,1261.25,24.9695,26.0392,158.694,98.6584,100.543,-0.00302488,0.0661545,20.979,58.5915,-0.169287,0.0,0.0
5104,1275.75,24.9381,26.1089,153.027,98.6074,99.89,-0.00300004,0.0636253,20.9848,58.5614,-0.115605,0.0,0.0
5162,1290.25,24.7066,26.4385,149.611,98.6992,100.92,-0.0032707,0.0631111,20.9852,58.5614,-0.199075,0.0,0.0
5220,1304.75,24.6989,26.0101,156.652,98.7526,100.622,-0.00312745,0.0634163,20.9825,58.5714,-0.167794,0.0,0.0
5278,1319.25,24.8155,26.199,156.197,98.4657,100.473,-0.0030611,0.0631366,20.9816,58.5815,-0.180519,0.0,0.0
5336,1333.75,24.7833,26.1924,155.771,98.3616,100.514,-0.00294093,0.0625145,20.9852,58.5514,-0.193623,0.0,0.0
5394,1348.25,24.8357,25.5055,155.093,98.8741,101.18,,,,58.5815,-0.206252,0.0,0.0
5406,1351.25,24.8708,26.2301,158.815,98.9239,100.874,,,,58.5815,-0.174583,0.0,0.0

File: PC_Cone_HF25Scan_220216_R2.csv
Names,Time,Stack TC,Smoke TC,Exh Press,Smoke Comp,Smoke Meas,CO Meter,CO2 Meter,O2 Meter,Sample Mass,Ext Coeff,Start Test,Flame Verif
Chan Gain,,500,500,1,1,1,1,1,1,1,1,1.0,1.0
Offset,,0,0,0.140898,0,0,0,0,0,0,0,0.0,0.0
Gain,,1,1,25.011,12.9668,12.6588,1,1,1,1.00088,1.01977,1.0,1.0
Units,sec,C,C,Pa,%,%,%,%,%,g,/m,,
Baseline,,16.4607,17.6533,163.553,98.9648,100.742,-0.00278771,0.0692296,20.9591,-873.037,-0.159195,,
35,8.5,16.5273,17.5034,163.413,98.7075,100.898,-0.00281187,0.0785164,20.9563,60.7433,-0.196301,0.0,0.0
70,17.25,16.7294,16.769,164.322,98.3149,100.499,-0.00302029,0.0713357,20.9638,60.7734,-0.196565,0.0,0.0
105,26,17.0684,18.0851,164.687,97.6133,100.041,-0.00283098,0.0683361,20.9673,60.7534,-0.219756,0.0,0.0
140,34.75,16.023,18.0566,162.314,97.3573,99.1599,-0.00290291,0.0669981,20.9675,60.7433,-0.164107,0.0,0.0
175,43.5,16.8685,17.9188,162.495,98.0071,100.39,-0.00310211,0.0659466,20.971,60.7634,-0.214919,0.0,0.0
210,52.25,17.2631,18.3237,167.373,98.935,101.111,-0.00321066,0.0659537,20.9706,60.7534,-0.194624,0.0,0.0
245,61,17.5595,18.6548,167.499,99.303,101.667,-0.00292724,0.0651741,20.9739,60.7534,-0.210492,0.0,0.0
280,69.75,17.2749,18.9657,165.5,98.9908,101.414,-0.00298817,0.0650742,20.9696,60.7333,-0.216336,0.0,0.0
315,78.5,17.0102,18.4716,161.681,98.5243,101.022,-0.00276495,0.066015,20.9668,60.7333,-0.223976,0.0,0.0
350,87.25,17.6181,19.026,159.869,99.0597,101.585,-0.00291175,0.0659938,20.965,60.7233,-0.225165,0.0,0.0
385,96,17.6251,18.9588,162.95,98.569,100.954,-0.0029285,0.0652341,20.9692,60.7233,-0.213826,0.0,0.0
420,104.75,17.9584,19.1505,163.371,98.3407,100.662,-0.00305768,0.0645629,20.9701,60.7033,-0.208724,0.0,0.0
455,113.5,17.808,19.1409,163.606,98.516,100.567,-0.00279099,0.0643535,20.9734,60.6933,-0.184309,0.0,0.0
490,122.25,18.033,19.6013,160.084,98.4942,100.699,-0.00333137,0.0645803,20.9722,60.6733,-0.198063,0.0,0.0
525,131,18.3844,19.661,160.878,98.064,100.374,-0.0031991,0.065003,20.9713,60.6733,-0.208239,0.0,0.0
560,139.75,17.9221,19.7895,162.716,97.4455,99.8622,-0.00296353,0.0648146,20.9713,60.6833,-0.219137,0.0,0.0
595,148.5,18.8576,19.8956,160.875,97.1962,99.7753,-0.00285687,0.0644436,20.9722,60.6733,-0.234262,0.0,0.0
630,157.25,18.1018,19.6534,162.694,97.6169,100.225,-0.00305963,0.0645082,20.9707,60.6633,-0.235891,0.0,0.0
665,166,18.6014,20.028,166.299,98.4257,101.093,-0.00273757,0.0648329,20.9688,60.6533,-0.239184,0.0,0.0
700,174.75,18.7834,20.3825,161.626,99.0387,101.426,-0.00319071,0.06443,20.9704,60.6533,-0.213066,0.0,0.0
735,183.5,18.574,20.4737,162.318,99.1408,101.45,-0.00339009,0.0639881,20.9742,60.6333,-0.205929,0.0,0.0
770,192.25,18.8037,20.3619,162.625,98.8052,101.643,-0.002988,0.0637726,20.9747,60.6333,-0.253273,0.0,0.0
805,201,19.0031,20.5959,157.968,98.4063,101.105,-0.00308695,0.063506,20.9737,60.6232,-0.242041,0.0,0.0
840,209.75,19.1418,20.6223,164.771,98.8733,101.265,-0.00321392,0.0636241,20.9726,60.6032,-0.2138,0.0,0.0
875,218.5,19.18,20.5967,163.017,98.8179,101.473,-0.00309755,0.064136,20.9724,60.6032,-0.237154,0.0,0.0
910,227.25,19.0521,20.9298,159.145,98.1202,100.52,-0.00279223,0.0636568,20.9752,60.5932,-0.216154,0.0,0.0
945,236,19.7105,20.6098,164.699,98.2888,100.967,-0.00303901,0.0636151,20.9744,60.5932,-0.24052,0.0,0.0
980,244.75,19.4253,21.013,160.327,98.3846,101.117,-0.00316922,0.0641427,20.9721,60.5932,-0.245011,0.0,0.0
1015,253.5,19.4822,21.191,159.042,98.3751,100.904,-0.00297813,0.0644515,20.9742,60.6032,-0.227092,0.0,0.0
1050,262.25,20.1482,21.7016,164.336,98.0894,101.019,-0.00314081,0.0649361,20.9725,60.5832,-0.263275,0.0,0.0
1085,271,20.0596,21.2466,161.753,97.6687,100.61,-0.00296909,0.065505,20.9689,60.5732,-0.265452,0.0,0.0
1120,279.75,19.9805,21.5326,162.151,97.3399,100.13,-0.0031204,0.0662379,20.9682,60.5732,-0.252825,0.0,0.0
1155,288.5,20.0348,21.5853,164.869,97.0878,99.6868,-0.00298253,0.0674877,20.964,60.5832,-0.236311,0.0,0.0
1190,297.25,20.1217,21.4797,164.849,97.0114,99.7123,-0.00292966,0.0682901,20.9624,60.5632,-0.245639,0.0,0.0
1225,306,19.9278,21.9297,158.996,97.0708,99.6995,-0.00330181,0.0672545,20.9681,60.5732,-0.239023,0.0,0.0
1260,314.75,20.2168,21.2324,158.193,97.2378,99.725,-0.00317748,0.0665732,20.9684,60.5832,-0.225935,0.0,0.0
1295,323.5,20.9283,22.2127,160.118,97.5255,100.064,-0.00307409,0.0663377,20.9707,60.5432,-0.229882,0.0,0.0
1330,332.25,20.3835,22.0698,159.941,97.7946,100.382,-0.00322789,0.0656571,20.9718,60.5732,-0.233613,0.0,0.0
1365,341,20.8408,22.3085,160.871,97.9576,100.146,-0.00325483,0.0645499,20.9729,60.5332,-0.197618,0.0,0.0
1400,349.75,20.6944,22.1441,160.508,98.0732,100.514,-0.00306809,0.0641266,20.9729,60.5432,-0.219897,0.0,0.0
1435,358.5,20.4243,22.7689,164.457,98.1468,100.398,-0.00319264,0.063635,20.9764,60.5332,-0.202867,0.0,0.0
1470,367.25,21.695,22.7743,161.519,98.1958,100.639,-0.00308153,0.0628829,20.9787,60.5131,-0.219814,0.0,0.0
1505,376,21.2048,22.725,160.908,98.2002,100.227,-0.00306907,0.062292,20.9802,60.5532,-0.182772,0.0,0.0
1540,384.75,21.11,22.5888,161.612,98.1681,100.202,-0.00306829,0.0616252,20.9817,60.5131,-0.183417,0.0,0.0
1575,393.5,21.4277,22.6011,157.523,98.1305,100.446,-0.00315073,0.0616932,20.9811,60.4931,-0.208646,0.0,0.0
1610,402.25,21.5939,22.687,159.594,98.1206,100.386,-0.00335191,0.0615492,20.9833,60.5131,-0.20418,0.0,0.0
1645,411,21.194,23.0909,159.313,98.0633,99.9676,-0.00310083,0.0619467,20.9824,60.4931,-0.172053,0.0,0.0
1680,419.75,21.1316,22.9968,160.479,98.0237,100.046,-0.00313626,0.0620265,20.9818,60.4831,-0.182712,0.0,0.0
1715,428.5,20.7982,22.3144,162.285,97.9659,100.488,-0.00302506,0.0618474,20.9816,60.5232,-0.227415,0.0,0.0
1750,437.25,21.62,22.9157,166.099,97.8488,100.033,-0.00302645,0.0615604,20.9805,60.4731,-0.197445,0.0,0.0
1785,446,21.4342,23.2535,160.739,97.7514,99.5956,-0.00304593,0.0611543,20.9803,60.4631,-0.167191,0.0,0.0
1820,454.75,21.3693,22.7228,158.069,97.6177,99.3719,-0.00321644,0.0610484,20.9803,60.4531,-0.159327,0.0,0.0
1855,463.5,21.3009,23.3065,161.535,97.4994,99.331,-0.00336888,0.0610353,20.9822,60.4631,-0.166489,0.0,0.0
1890,472.25,21.2104,23.3265,158.522,97.4111,99.3577,-0.00321738,0.061059,20.9802,60.4531,-0.176989,0.0,0.0
1925,481,21.6291,23.2727,153.151,97.3078,99.443,-0.00358907,0.0613885,20.9819,60.4531,-0.194161,0.0,0.0
1960,489.75,21.2036,23.0453,161.024,97.258,99.2927,-0.00310408,0.0612087,20.982,60.4631,-0.185218,0.0,0.0
1995,498.5,21.3789,23.4296,154.997,97.1741,98.8118,-0.00309963,0.0613042,20.9824,60.4331,-0.149502,0.0,0.0
2030,507.25,21.954,23.1238,165.058,97.1286,98.9856,-0.0034705,0.0612147,20.981,60.4631,-0.169416,0.0,0.0
2065,516,21.7756,23.6714,160.902,97.1029,98.869,-0.00313816,0.0609136,20.9818,60.4231,-0.161235,0.0,0.0
2100,524.75,21.2495,23.0214,158.732,97.1033,98.8218,-0.00315232,0.0610011,20.9838,60.4331,-0.156933,0.0,0.0
2135,533.5,21.8062,23.5614,159.631,97.1171,98.7392,-0.00360916,0.0608262,20.9837,60.4331,-0.148172,0.0,0.0
2170,542.25,22.309,23.4255,160.671,97.1713,99.0803,-0.00316222,0.0607442,20.9833,60.4331,-0.17403,0.0,0.0
2205,551,21.9581,23.5316,159.502,97.271,98.9026,-0.00313867,0.0612516,20.9835,60.4131,-0.148796,0.0,0.0
2240,559.75,21.3921,23.1609,162.119,97.4669,99.2031,-0.00303465,0.061857,20.9811,60.4131,-0.157943,0.0,0.0
2275,568.5,21.8246,23.2819,160.112,97.7206,99.02,-0.00315643,0.061707,20.9824,60.393,-0.118167,0.0,0.0
2310,577.25,21.9548,23.4936,156.364,98.0557,100.16,-0.00290625,0.06201,20.9808,60.383,-0.189903,0.0,0.0
2345,586,21.8601,23.2548,164.604,98.398,100.031,-0.00333569,0.062459,20.9773,60.383,-0.147269,0.0,0.0
2380,594.75,21.9264,23.7237,160.188,98.6742,100.016,-0.00286358,0.0632428,20.9762,60.383,-0.120777,0.0,0.0
2415,603.5,22.1846,23.3163,164.066,98.9235,100.691,-0.00334161,0.0633098,20.9762,60.393,-0.1584,0.0,0.0
2450,612.25,22.0631,23.7423,159.702,99.0011,100.784,-0.00323795,0.0632248,20.976,60.373,-0.159656,0.0,0.0
2485,621,22.0777,23.5739,159.892,98.9936,100.823,-0.00308385,0.0643218,20.972,60.393,-0.163763,0.0,0.0
2520,629.75,22.4984,23.8353,156.223,98.9152,100.973,-0.0029232,0.0654439,20.9703,60.363,-0.18417,0.0,0.0
2555,638.5,22.4055,23.286,160.209,98.749,100.165,-0.00272769,0.0696936,20.964,60.383,-0.127396,0.0,0.0
2590,647.25,22.4653,23.822,162.549,98.5072,100.401,-0.00331842,0.0711517,20.965,60.383,-0.170346,0.0,0.0
2625,656,22.3686,23.7632,159.459,98.2955,100.205,-0.00298226,0.0683166,20.9677,60.363,-0.172089,0.0,0.0
2660,664.75,22.2007,24.0988,161.168,98.3094,100.42,-0.00335462,0.0674009,20.9689,60.343,-0.189982,0.0,0.0
2695,673.5,22.1998,23.5825,160.824,98.6825,100.874,-0.00322187,0.0671811,20.969,60.333,-0.196471,0.0,0.0
2730,682.25,22.1069,23.7498,157.9,98.8179,100.491,-0.00303388,0.0674777,20.9673,60.313,-0.150197,0.0,0.0
2765,691,22.2999,23.7203,161.782,98.7724,100.94,-0.00327872,0.0685341,20.9643,60.343,-0.194223,0.0,0.0
2800,699.75,22.0654,23.3222,162.527,98.5607,100.47,-0.0028459,0.0704496,20.9599,60.353,-0.171655,0.0,0.0
2835,708.5,21.1522,22.6786,164.04,98.142,100.384,-0.00341044,0.0705749,20.9611,60.313,-0.20206,0.0,0.0
2870,717.25,22.17,23.7547,158.062,98.0158,99.8386,-0.00309759,0.0687656,20.9662,60.323,-0.164833,0.0,0.0
2905,726,22.4417,23.2628,161.855,98.1341,100.151,-0.00298017,0.067924,20.9681,60.333,-0.181965,0.0,0.0
2940,734.75,21.811,23.128,162.633,98.2231,100.462,-0.003036,0.0671356,20.968,60.323,-0.201586,0.0,0.0
2975,743.5,22.7307,24.011,160.234,98.2706,101.08,-0.00310946,0.0663263,20.9702,60.333,-0.252165,0.0,0.0
3010,752.25,22.5889,23.4522,158.524,98.2532,100.829,-0.00312153,0.0656841,20.9716,60.313,-0.231501,0.0,0.0
3045,761,22.3095,23.4663,158.544,98.2227,100.557,-0.00310307,0.06482,20.9752,60.323,-0.21008,0.0,0.0
3080,769.75,22.6311,24.1472,157.647,98.163,100.274,-0.00333631,0.0640041,20.9774,60.333,-0.190297,0.0,0.0
3115,778.5,22.7449,23.859,161.443,97.9995,100.311,-0.0034465,0.0632993,20.9799,60.303,-0.20851,0.0,0.0
3150,787.25,22.4643,23.4804,158.677,97.8136,100.41,-0.00325772,0.0638378,20.9759,60.303,-0.234388,0.0,0.0
3185,796,22.2369,23.7233,160.308,97.5908,100.351,-0.0028077,0.0646408,20.9728,60.293,-0.249518,0.0,0.0
3220,804.75,22.1076,23.8496,155.219,97.3624,100.041,,0.065577,,60.293,-0.24281,0.0,0.0
3255,813.5,22.5924,23.9907,161.298,97.2061,99.5918,,,,60.303,-0.216884,0.0,0.0
3256,813.75,22.3783,24.002,161.816,97.1919,99.4851,,,,60.303,-0.208613,0.0,0.0