Folder: fsri_materials_database/01_Data/PC/Cone (part 3)

File: PC_Cone_HF50Scan_220216_R2.csv
Names,Time,Stack TC,Smoke TC,Exh Press,Smoke Comp,Smoke Meas,CO Meter,CO2 Meter,O2 Meter,Sample Mass,Ext Coeff,Start Test,Flame Verif
Chan Gain,,500,500,1,1,1,1,1,1,1,1,1.0,1.0
Offset,,0,0,0.140898,0,0,0,0,0,0,0,0.0,0.0
Gain,,1,1,25.011,12.9668,12.6588,1,1,1,1.00088,1.01977,1.0,1.0
Units,sec,C,C,Pa,%,%,%,%,%,g,/m,,
Baseline,,36.7706,38.6198,153.538,98.284,99.0449,-0.00283172,0.0710775,20.953,-873.158,-0.0689065,,
33,8,35.6257,36.8427,152.313,97.8361,97.5253,-0.0028154,0.0722748,20.9591,60.1929,0.0284597,0.0,0.0
66,16.25,36.0212,37.5142,152.891,97.7946,97.7761,-0.00260061,0.0684567,20.9651,60.0928,0.00169216,0.0,0.0
99,24.5,35.9023,37.8835,152.28,98.2267,98.9694,-0.00295699,0.0656074,20.9713,60.1028,-0.0673831,0.0,0.0
132,32.75,35.5502,37.8769,151.811,98.5496,99.2846,-0.00279196,0.0622152,20.9774,60.0728,-0.0664726,0.0,0.0
165,41,36.2027,38.4164,154.032,98.639,98.3011,-0.00277691,0.0608522,20.9791,60.0828,0.0307002,0.0,0.0
198,49.25,36.5743,38.4351,156.591,98.4384,98.7225,-0.00273698,0.0605027,20.9831,60.0427,-0.025784,0.0,0.0
231,57.5,36.5869,38.6969,154.704,98.161,98.4243,-0.00277094,0.0598781,20.9836,60.0527,-0.0239635,0.0,0.0
264,65.75,37.07,39.3536,154.839,98.453,99.0258,-0.00293154,0.0595705,20.9831,60.0427,-0.0518904,0.0,0.0
297,74,37.6419,39.3803,148.404,98.7372,98.5367,-0.00285141,0.059624,20.9831,60.0327,0.0181769,0.0,0.0
330,82.25,37.0016,40.0634,150.819,98.9006,98.9362,-0.00330077,0.0598791,20.983,60.0427,-0.00321834,0.0,0.0
363,90.5,37.6156,40.077,152.592,98.7585,98.6495,-0.00305669,0.0593649,20.9851,59.9827,0.0098787,0.0,0.0
396,98.75,37.627,40.4415,152.918,98.2215,96.3216,-0.00297738,0.0590259,20.9865,59.9627,0.17473,0.0,0.0
429,107,37.7512,40.7634,152.746,97.5041,96.0794,-0.00284319,0.058825,20.9865,59.9627,0.131676,0.0,0.0
462,115.25,37.7938,40.6511,147.961,97.036,94.7922,-0.00272316,0.0592182,20.9874,59.9226,0.209278,0.0,0.0
495,123.5,38.551,40.9717,152.657,97.0775,94.7408,-0.00282854,0.0594206,20.9879,59.9026,0.217958,0.0,0.0
528,131.75,38.2968,41.4297,150.616,97.6185,93.5602,-0.00258343,0.0600318,20.9863,59.8225,0.379835,0.0,0.0
561,140,38.5221,41.4148,155.6,98.178,94.4252,-0.00259177,0.060506,20.985,59.7625,0.348643,0.0,0.0
594,148.25,39.3276,41.8196,153.366,98.1618,93.807,-0.00188629,0.0664835,20.9804,59.7024,0.405913,0.0,0.0
627,156.5,38.977,42.3788,152.673,97.7962,93.3388,-0.00250991,0.0629512,20.9842,59.6824,0.417291,0.0,0.0
660,164.75,39.1117,42.0088,148.301,98.4807,93.6011,-0.00254426,0.0612986,20.986,59.6023,0.454588,0.0,0.0
693,173,39.6674,42.749,147.038,98.3917,89.2972,-0.000894711,0.093329,20.925,59.5223,0.867577,0.0,1.0
726,181.25,42.2032,46.3923,137.287,98.4344,57.9684,0.00950598,0.309765,20.6121,58.8317,4.73649,0.0,0.0
759,189.5,50.8055,58.1128,130.451,98.8749,39.46,0.0301014,0.694465,20.001,57.2303,8.2169,0.0,0.0
792,197.75,59.7353,70.6657,124.07,98.531,44.5717,0.0361437,0.921547,19.7579,55.4787,7.09608,0.0,0.0
825,206,66.8269,79.5251,126.275,97.5421,42.4431,0.0351892,0.935939,19.7805,53.7972,7.44359,0.0,0.0
858,214.25,71.3791,85.2531,130.42,96.9845,48.3147,0.0313729,0.852219,19.9233,52.2559,6.23324,0.0,0.0
891,222.5,73.7458,87.847,121.529,97.493,44.5837,0.0283611,0.792469,20.0005,50.7145,6.99895,0.0,0.0
924,230.75,75.7907,90.0586,124.339,98.1942,48.4461,0.0279348,0.780079,20.0044,49.3133,6.31984,0.0,0.0
957,239,77.2385,91.6742,126.844,98.0656,48.5044,0.0268186,0.770036,20.0198,47.9521,6.29736,0.0,0.0
990,247.25,78.6412,92.8549,132.592,98.03,50.0972,0.0248191,0.737884,20.0763,46.5509,6.00508,0.0,0.0
1023,255.5,79.152,92.9451,130.88,98.5156,51.5729,0.0226109,0.695253,20.1304,45.3598,5.78958,0.0,0.0
1056,263.75,78.0741,91.5098,129.102,98.415,50.9386,0.0210815,0.670553,20.1593,44.1288,5.89115,0.0,0.0
1089,272,79.39,92.3744,125.046,98.9026,49.9597,0.0227104,0.688711,20.121,42.8677,6.10894,0.0,0.0
1122,280.25,81.0534,94.2911,136.242,98.7526,51.4686,0.025319,0.753222,20.0255,41.4564,5.82919,0.0,0.0
1155,288.5,82.1524,94.9422,126.762,98.2006,52.1265,0.0242408,0.749097,20.0472,40.0852,5.66542,0.0,0.0
1188,296.75,82.0887,95.0107,130.892,97.6026,57.0382,0.020079,0.700411,20.1205,38.8441,4.80529,0.0,0.0
1221,305,81.9166,94.4464,131.202,97.1697,60.1612,0.0166876,0.652287,20.194,37.7331,4.28868,0.0,0.0
1254,313.25,81.0729,93.4213,134.888,97.055,64.44,0.0140363,0.612568,20.2449,36.7223,3.6635,0.0,0.0
1287,321.5,80.2476,91.8163,132.335,97.2315,66.795,0.0126424,0.576894,20.2969,35.8115,3.35867,0.0,0.0
1320,329.75,79.8491,90.4473,134.186,97.5425,69.0685,0.0122208,0.530293,20.3668,34.9307,3.08784,0.0,0.0
1353,338,79.0172,88.7093,133.661,97.8231,69.449,0.0103989,0.508891,20.3874,34.0899,3.06439,0.0,0.0
1386,346.25,77.7624,87.3315,136.257,98.0708,63.9339,0.010667,0.522162,20.3618,33.1992,3.82717,0.0,0.0
1419,354.5,77.5847,86.8714,137.611,98.233,72.1961,0.00859252,0.504211,20.3984,32.3985,2.75478,0.0,0.0
1452,362.75,76.3412,85.3352,135.1,98.3248,72.499,0.00708175,0.47124,20.4433,31.6878,2.72568,0.0,0.0
1485,371,75.6292,83.9895,135.679,98.3335,74.543,0.00557842,0.450925,20.4691,31.0273,2.47776,0.0,0.0
1518,379.25,74.4161,81.6658,137.029,98.3264,77.6976,0.00455318,0.419564,20.5146,30.3967,2.10634,0.0,0.0
1551,387.5,73.4161,80.391,138.359,98.3264,78.2539,0.00423801,0.398846,20.5391,29.8162,2.04252,0.0,0.0
1584,395.75,72.2598,79.0231,140.021,98.3003,81.72,0.00287298,0.374024,20.5786,29.3057,1.65246,0.0,0.0
1617,404,70.8176,77.3711,136.284,98.2975,83.4866,0.00278777,0.353417,20.6045,28.8453,1.46089,0.0,0.0
1650,412.25,70.2721,76.1041,144.787,98.2884,84.9557,0.00253152,0.333036,20.6287,28.3949,1.30401,0.0,0.0
1683,420.5,68.6602,74.1877,141.298,98.2773,85.0964,0.00222513,0.316925,20.6524,27.9846,1.28821,0.0,0.0
1716,428.75,68.6688,73.2271,141.527,98.2833,87.5228,0.00208144,0.295768,20.6803,27.6243,1.03725,0.0,0.0
1749,437,67.3308,72.1596,139.532,98.2936,88.2642,0.00249817,0.283535,20.6936,27.274,0.962736,0.0,0.0
1782,445.25,66.4043,70.8582,140.333,98.294,87.8342,0.00264244,0.278916,20.7,26.9036,1.00645,0.0,0.0
1815,453.5,65.5562,70.6429,142.6,98.3252,87.8574,0.00266831,0.272992,20.7109,26.5833,1.00694,0.0,0.0
1848,461.75,65.0728,69.1244,141.585,98.3213,90.2579,0.00268303,0.265468,20.7166,26.2631,0.765441,0.0,0.0
1881,470,64.0346,67.883,140.996,98.3209,90.8699,0.00251882,0.254847,20.7313,25.9628,0.704961,0.0,0.0
1914,478.25,63.292,67.2304,141.275,98.2995,88.3036,0.00292151,0.258114,20.7225,25.6425,0.959283,0.0,0.0
1947,486.5,63.3493,67.2763,144.919,98.2223,90.7521,0.00267631,0.258081,20.7226,25.3523,0.707599,0.0,0.0
1980,494.75,62.8593,65.8356,140.546,98.1444,90.4716,0.00298942,0.247344,20.7385,25.042,0.728184,0.0,0.0
2013,503,62.4003,66.5542,142.881,98.0015,90.6242,0.00297652,0.238626,20.7478,24.8018,0.700079,0.0,0.0
2046,511.25,61.8006,65.274,138.63,97.8005,89.9956,0.0030442,0.239333,20.7443,24.5215,0.743969,0.0,0.0
2079,519.5,60.9211,64.322,141.084,97.5805,91.4679,0.00306613,0.234926,20.7526,24.2613,0.578669,0.0,0.0
2112,527.75,60.8477,64.2767,144.565,97.3577,90.6002,0.0037052,0.228974,20.7599,23.9911,0.643483,0.0,0.0
2145,536,60.5379,63.7279,142.949,97.2137,89.9477,0.00340418,0.227707,20.7603,23.7609,0.694896,0.0,0.0
2178,544.25,60.4752,63.0997,141.018,97.1021,89.9176,0.00367515,0.225211,20.7627,23.4406,0.687618,0.0,0.0
2211,552.5,59.9044,62.9246,141.326,97.0791,90.5724,0.0042823,0.221257,20.769,23.2504,0.620597,0.0,0.0
2244,560.75,59.6754,62.7267,142.511,97.1701,92.8185,0.00459607,0.213146,20.7786,23.0102,0.409856,0.0,0.0
2277,569,59.3244,61.7795,142.65,97.3913,92.3464,0.00468576,0.208295,20.7852,22.8,0.475809,0.0,0.0
2310,577.25,58.5081,61.4565,144.934,97.6881,93.5401,0.00523049,0.202271,20.7907,22.5698,0.388135,0.0,0.0
2343,585.5,58.2673,61.2174,141.654,98.0043,93.0383,0.00549746,0.199871,20.7938,22.4097,0.46516,0.0,0.0
2376,593.75,57.9175,60.5446,145.502,98.3664,93.695,0.00581754,0.19417,20.7997,22.1795,0.435226,0.0,0.0
2409,602,57.4,60.1512,146.331,98.6224,93.7267,0.00611961,0.191107,20.8068,21.9993,0.455456,0.0,0.0
2442,610.25,56.7375,59.6895,144.791,98.8274,95.2967,0.00667905,0.187648,20.8111,21.8092,0.325429,0.0,0.0
2475,618.5,56.7948,59.8217,143.934,98.9271,94.9969,0.00664417,0.184427,20.8147,21.659,0.362634,0.0,0.0
2508,626.75,56.1786,58.6973,141.917,98.941,95.2221,0.00730025,0.181407,20.814,21.4689,0.342704,0.0,0.0
2541,635,55.7241,58.3301,146.573,98.8721,95.8228,0.00737603,0.180045,20.8147,21.2787,0.280222,0.0,0.0
2574,643.25,55.6505,58.3185,140.437,98.694,95.1472,0.00832342,0.178279,20.8151,21.0885,0.327394,0.0,0.0
2607,651.5,55.4539,58.0368,143.935,98.4752,95.8905,0.00878488,0.176396,20.8166,20.9284,0.23793,0.0,0.0
2640,659.75,54.5394,57.5307,144.721,98.2667,95.1785,0.00955117,0.171912,20.8195,20.7782,0.285634,0.0,0.0
2673,668,54.8793,57.2509,140.245,98.2097,95.2936,0.00976173,0.171524,20.8205,20.6381,0.269632,0.0,0.0
2706,676.25,54.6222,56.5744,148.342,98.5187,94.9366,0.00965312,0.167232,20.8257,20.478,0.331307,0.0,0.0
2739,684.5,53.399,56.0724,148.485,98.6426,94.6032,0.0100307,0.168258,20.8245,20.3779,0.374016,0.0,0.0
2772,692.75,53.3804,55.9109,144.98,98.4827,94.2467,0.0104906,0.16769,20.8256,20.2077,0.393286,0.0,0.0
2805,701,53.2072,55.3917,149.302,98.0728,94.0879,0.0104265,0.160659,20.8369,20.0776,0.371054,0.0,0.0
2838,709.25,52.6582,54.4347,146.933,97.8017,94.5225,0.0107301,0.159539,20.838,19.9375,0.30507,0.0,0.0
2871,717.5,52.2861,54.2383,143.548,97.9821,93.9141,0.0107457,0.154453,20.8469,19.7974,0.379328,0.0,0.0
2904,725.75,52.6417,54.1445,148.327,98.1792,94.03,0.0108844,0.152891,20.8503,19.7273,0.386269,0.0,0.0
2937,734,51.9497,54.7047,145.138,98.3122,94.2196,0.0121921,0.154048,20.8486,19.5472,0.380348,0.0,0.0
2970,742.25,52.1104,54.7133,146.619,98.2758,95.095,0.0116019,0.153631,20.8501,19.4271,0.294308,0.0,0.0
3003,750.5,51.4544,53.7856,142.61,98.1246,96.1644,0.0112019,0.150099,20.8542,19.2869,0.180511,0.0,0.0
3036,758.75,51.1196,53.9673,149.28,97.8393,94.764,0.0115537,0.149755,20.8529,19.1768,0.285687,0.0,0.0
3069,767,51.1022,53.4781,146.669,97.5219,94.9281,0.011765,0.150552,20.8508,19.0367,0.241139,0.0,0.0
3102,775.25,50.7287,53.083,145.87,97.2548,95.525,0.0118503,0.150861,20.8487,18.9366,0.160537,0.0,0.0
3135,783.5,50.6738,53.096,150.759,97.0752,95.2441,0.0120781,0.149329,20.8488,18.7965,0.170337,0.0,0.0
3168,791.75,50.0379,52.7768,144.87,97.0744,95.3554,,,,18.6864,0.15982,0.0,0.0
3190,797.25,50.4973,51.9946,151.428,97.1658,95.2229,,,,18.5663,0.180679,0.0,0.0

File: PC_Cone_HF50Scan_220216_R3.csv
Names,Time,Stack TC,Smoke TC,Exh Press,Smoke Comp,Smoke Meas,CO Meter,CO2 Meter,O2 Meter,Sample Mass,Ext Coeff,Start Test,Flame Verif
Chan Gain,,500,500,1,1,1,1,1,1,1,1,1.0,1.0
Offset,,0,0,0.140898,0,0,0,0,0,0,0,0.0,0.0
Gain,,1,1,25.011,12.9668,12.6588,1,1,1,1.00088,1.01977,1.0,1.0
Units,sec,C,C,Pa,%,%,%,%,%,g,/m,,
Baseline,,38.3314,40.3557,153.04,98.0849,96.4092,-0.00292597,0.0608688,20.9819,-873.134,0.154241,,
41,10,36.27,38.0805,151.052,97.8907,96.3629,-0.00307805,0.0703402,20.9688,60.1428,0.140713,0.0,0.0
82,20.25,36.6768,38.2837,151.018,97.9635,96.1578,-0.00295405,0.0652346,20.9728,60.0828,0.166427,0.0,0.0
123,30.5,36.8662,39.0695,151.239,98.0486,96.8528,-0.00295633,0.0645518,20.9773,60.1328,0.109773,0.0,0.0
164,40.75,36.8664,39.2725,155.704,98.1859,96.6936,-0.00299289,0.0641465,20.9786,60.1028,0.137004,0.0,0.0
205,51,37.3678,39.6863,157.208,98.2801,97.756,-0.00299893,0.0621795,20.9807,60.0628,0.0478328,0.0,0.0
246,61.25,36.9817,39.9733,153.078,98.3007,96.791,-0.00281702,0.0614378,20.9812,60.0728,0.138451,0.0,0.0
287,71.5,37.9707,40.1839,153.328,98.2255,96.6156,-0.00295856,0.0641598,20.9759,60.0427,0.147831,0.0,0.0
328,81.75,38.3111,40.3715,153.372,98.0257,95.5408,-0.00284113,0.0644984,20.9738,60.0327,0.229676,0.0,0.0
369,92,38.4089,40.977,157.712,97.7241,96.0191,-0.00272151,0.0659887,20.9689,60.0127,0.15745,0.0,0.0
410,102.25,38.5221,40.9947,150.891,97.408,94.5202,-0.00268957,0.0668307,20.9696,59.9727,0.269204,0.0,0.0
451,112.5,38.483,41.2474,150.235,97.161,93.7823,-0.0026899,0.0684475,20.965,59.9226,0.316605,0.0,0.0
492,122.75,39.0361,41.1698,149.152,97.0502,93.9303,-0.00278142,0.0697426,20.9656,59.9326,0.292296,0.0,0.0
533,133,39.708,42.3461,153.107,97.1515,93.9905,-0.00245965,0.0690645,20.9676,59.8626,0.295891,0.0,0.0
574,143.25,39.7284,42.4214,154.185,97.5215,92.8787,-0.0022764,0.069769,20.9647,59.7825,0.43634,0.0,0.0
615,153.5,40.6761,44.0374,147.959,98.1333,77.6215,0.00201442,0.187269,20.758,59.4222,2.09752,0.0,1.0
656,163.75,46.8963,53.1271,127.165,98.5994,48.4538,0.0193791,0.51276,20.2839,58.2011,6.35526,0.0,0.0
697,174,57.8642,68.0406,124.124,98.8717,48.3568,0.0337593,0.869205,19.8167,56.1894,6.39784,0.0,0.0
738,184.25,65.5182,78.1365,122.434,98.9006,47.1496,0.0327033,0.876096,19.8514,54.0975,6.62661,0.0,0.0
779,194.5,71.3319,85.5363,120.053,98.6881,45.3563,0.0345949,0.913791,19.8032,52.0457,6.95424,0.0,0.0
820,204.75,75.5955,90.619,128.175,98.4356,44.071,0.0344773,0.858745,19.8817,50.094,7.18847,0.0,0.0
861,215,77.8123,92.2515,123.247,98.1843,45.5989,0.03198,0.806302,19.9599,48.2524,6.86074,0.0,0.0
902,225.25,78.2521,92.8619,132.116,98.3189,48.4245,0.0291524,0.775168,19.9933,46.4908,6.33519,0.0,0.0
943,235.5,80.4541,94.8181,127.513,98.535,49.8716,0.0281857,0.812616,19.9512,44.6392,6.09141,0.0,0.0
984,245.75,79.9301,93.2346,135.549,98.626,57.5342,0.0184296,0.655494,20.1848,43.218,4.82114,0.0,0.0
1025,256,78.5207,90.5111,133.908,98.5619,63.7976,0.0128025,0.550212,20.3231,42.0669,3.89095,0.0,0.0
1066,266.25,75.8961,86.7136,137.139,98.2663,67.0619,0.01144,0.508153,20.3725,41.016,3.41769,0.0,0.0
1107,276.5,74.7025,84.5431,137.35,97.7408,69.6016,0.00949914,0.472441,20.4167,40.0652,3.03722,0.0,0.0
1148,286.75,73.5637,82.358,137.341,97.8705,69.4053,0.00849605,0.458004,20.4385,39.1244,3.07435,0.0,0.0
1189,297,72.4151,80.8346,136.619,98.032,73.581,0.00741537,0.445916,20.456,38.2636,2.56648,0.0,0.0
1230,307.25,71.0909,79.0303,137.918,98.2243,75.6644,0.0067923,0.426073,20.4797,37.4929,2.33425,0.0,0.0
1271,317.5,70.2367,77.6085,137.448,98.3058,77.2205,0.00614098,0.40512,20.5152,36.7122,2.15957,0.0,0.0
1312,327.75,68.6523,75.7268,137.307,98.2758,73.287,0.0054253,0.393635,20.5259,36.0016,2.6245,0.0,0.0
1353,338,68.8781,75.5185,138.08,98.1828,73.0282,0.00586106,0.412623,20.4985,35.2009,2.64768,0.0,0.0
1394,348.25,68.5759,75.2223,139.724,97.9853,72.7512,0.00563117,0.416975,20.4962,34.4102,2.66367,0.0,0.0
1435,358.5,67.8909,74.5478,135.857,97.7514,73.6973,0.00557347,0.411584,20.5068,33.6195,2.52671,0.0,0.0
1476,368.75,67.5819,73.8931,138.003,97.4847,77.8444,0.00478613,0.380577,20.553,32.9389,2.01255,0.0,0.0
1517,379,66.7566,72.8322,143.695,97.2295,80.4474,0.00428115,0.34407,20.6026,32.2984,1.69487,0.0,0.0
1558,389.25,65.8629,71.4289,137.854,97.0728,79.9116,0.00329513,0.318869,20.6358,32.1482,1.74023,0.0,0.0
1599,399.5,65.025,70.1488,136.291,97.0447,81.3468,0.00294195,0.30231,20.6552,31.2675,1.57841,0.0,0.0
1640,409.75,64.5005,69.0748,141.971,97.1496,82.9017,0.00291852,0.290832,20.6712,30.767,1.41869,0.0,0.0
1681,420,63.1134,67.6799,147.625,97.3502,85.5016,0.00266046,0.281934,20.6806,30.3767,1.16092,0.0,0.0
1722,430.25,62.7638,67.0405,142.337,97.5817,86.7139,0.00206094,0.273235,20.6952,30.1064,1.05623,0.0,0.0
1763,440.5,62.1428,66.4306,144.629,97.8606,87.653,0.00239793,0.266187,20.7037,29.4959,0.985405,0.0,0.0
1804,450.75,61.9771,65.926,143.349,98.2006,88.8641,0.00269811,0.257305,20.7154,29.0255,0.89367,0.0,0.0
1845,461,61.3892,65.4591,145.409,98.4637,88.8946,0.00249142,0.253842,20.7203,28.6251,0.914539,0.0,0.0
1886,471.25,60.5927,64.6739,138.272,98.7201,89.0256,0.00228803,0.248757,20.7265,28.2548,0.924636,0.0,0.0
1927,481.5,60.7003,64.4686,143.142,98.8397,89.5031,0.00262951,0.248084,20.7248,27.8545,0.887607,0.0,0.0
1968,491.75,59.6959,63.6427,143.614,98.9394,90.5338,0.0029219,0.250188,20.7228,27.4941,0.794204,0.0,0.0
2009,502,60.1275,64.0785,142.067,98.9315,89.8867,0.00268537,0.249732,20.7251,27.1138,0.857654,0.0,0.0
2050,512.25,59.9624,63.8359,145.638,98.8222,89.8736,0.00248042,0.248488,20.7299,26.7035,0.849081,0.0,0.0
2091,522.5,59.7356,63.5932,143.999,98.6525,89.7724,0.00267761,0.244063,20.7352,26.3732,0.84378,0.0,0.0
2132,532.75,59.7188,63.6117,143.649,98.4396,90.0938,0.0024923,0.236569,20.7447,25.9928,0.792486,0.0,0.0
2173,543,59.0535,62.846,141.734,98.2485,90.2116,0.0034259,0.229403,20.7534,25.6625,0.763408,0.0,0.0
2214,553.25,58.5293,62.2264,144.431,98.1907,91.1708,0.00347803,0.225511,20.7577,25.3322,0.663532,0.0,0.0
2255,563.5,58.374,62.0587,140.486,98.5104,91.8511,0.00357669,0.221249,20.7623,25.012,0.626113,0.0,0.0
2296,573.75,57.6066,61.3879,142.284,98.6556,91.6278,0.00360572,0.214008,20.7731,24.7317,0.661063,0.0,0.0
2337,584,57.9052,60.9851,145.778,98.5876,94.4885,0.00374199,0.208223,20.7815,24.4415,0.379882,0.0,0.0
2378,594.25,57.589,60.7516,143.708,98.3367,93.3153,0.00330539,0.204719,20.7863,24.1712,0.468857,0.0,0.0
2419,604.5,56.8381,60.3207,149.073,97.8694,93.039,0.00371115,0.202001,20.7898,23.871,0.452761,0.0,0.0
2460,614.75,56.8107,59.989,149.186,97.814,93.5277,0.00394903,0.199272,20.7936,23.6408,0.400834,0.0,0.0
2501,625,56.1326,59.4677,146.27,97.9552,94.2177,0.00416724,0.194319,20.7999,23.4106,0.347996,0.0,0.0
2542,635.25,55.8212,58.9449,145.377,98.0747,93.3199,0.00457545,0.187751,20.8077,23.1503,0.444551,0.0,0.0
2583,645.5,55.5374,58.8072,143.405,98.2338,93.651,0.00548465,0.185067,20.8095,22.8401,0.427369,0.0,0.0
2624,655.75,55.2564,58.2972,148.378,98.2971,95.299,0.00586336,0.180852,20.8098,22.6799,0.277086,0.0,0.0
2665,666,54.742,57.6731,145.898,98.2152,94.4031,0.00619962,0.176078,20.8165,22.4597,0.354118,0.0,0.0
2706,676.25,54.4295,57.2845,146.215,98.0015,94.5171,0.00675892,0.173492,20.8152,22.2195,0.323842,0.0,0.0
2747,686.5,54.3937,57.0544,143.671,97.6758,94.9563,0.00670455,0.172393,20.8164,22.0293,0.252592,0.0,0.0
2788,696.75,53.8727,56.5548,148.113,97.3359,94.8555,0.00763642,0.170624,20.821,21.8092,0.23091,0.0,0.0
2829,707,53.4006,56.4618,144.389,97.1005,93.8716,0.00747639,0.167863,20.8278,21.589,0.302521,0.0,0.0
2870,717.25,53.1282,55.8392,147.061,97.0134,94.7412,0.00760507,0.166178,20.8279,21.3988,0.212012,0.0,0.0
2911,727.5,53.3085,55.872,144.719,97.017,95.2917,0.00811609,0.166766,20.8223,21.1986,0.160513,0.0,0.0
2952,737.75,53.1734,56.1333,149.089,97.0427,94.4854,0.00827783,0.163719,20.8265,21.0185,0.238891,0.0,0.0
2993,748,52.9696,55.9917,145.681,97.0324,95.2082,0.00840751,0.16195,20.83,20.7983,0.169772,0.0,0.0
3034,758.25,52.7005,55.3813,147.084,97.0391,94.6067,0.00876797,0.160171,20.8322,20.6481,0.227086,0.0,0.0
3075,768.5,52.6519,55.4271,146.32,97.0142,94.9204,0.00919663,0.156712,20.8365,20.508,0.195177,0.0,0.0
3116,778.75,52.7815,55.4003,145.228,96.998,93.7703,0.00940688,0.154155,20.8427,20.3078,0.302724,0.0,0.0
3157,789,51.9963,55.1615,148.895,97.0308,95.0027,0.0095053,0.151111,20.8473,20.1377,0.188957,0.0,0.0
3198,799.25,52.1384,55.019,146.248,97.1638,94.5851,0.0097898,0.146668,20.8573,19.9876,0.240614,0.0,0.0
3239,809.5,51.5319,54.5226,145.51,97.4574,95.3129,0.0103949,0.143985,20.8597,19.8474,0.199036,0.0,0.0
3280,819.75,51.6485,54.3927,147.125,97.9018,96.3011,0.01059,0.143244,20.8648,19.6873,0.147465,0.0,0.0
3321,830,51.426,54.1616,145.202,98.2417,96.4174,0.0105562,0.140161,20.87,19.5272,0.167676,0.0,0.0
3362,840.25,51.0741,54.1157,146.661,98.2334,96.3088,0.0111064,0.138606,20.8662,19.367,0.176996,0.0,0.0
3403,850.5,50.9095,53.5798,149.465,97.9196,95.9612,0.0111049,0.136376,20.8703,19.2069,0.180726,0.0,0.0
3444,860.75,51.0222,53.508,145.222,98.1464,97.5659,0.0112718,0.135408,20.8728,19.0667,0.0530604,0.0,0.0
3485,871,49.6406,52.4813,145.754,98.6545,97.236,0.0113282,0.134492,20.8728,18.9466,0.129551,0.0,0.0
3526,881.25,50.276,52.6516,144.361,98.176,96.8875,0.0113489,0.132877,20.8769,18.7565,0.118179,0.0,0.0
3567,891.5,49.4017,53.1405,144.953,98.7858,98.3892,0.0113915,0.131993,20.8785,18.5763,0.0359931,0.0,0.0
3608,901.75,49.9279,53.0004,145.875,98.8218,96.7612,0.0118601,0.13167,20.8772,18.4362,0.1885,0.0,0.0
3649,912,49.1651,52.1313,143.762,97.9105,96.57,0.0115163,0.130858,20.8787,18.3161,0.12332,0.0,0.0
3690,922.25,49.5833,52.0027,149.801,97.0953,95.3175,0.0115688,0.131579,20.8767,18.206,0.165305,0.0,0.0
3731,932.5,49.2363,51.9367,148.662,97.3727,95.4574,0.0114913,0.13018,20.8809,18.0559,0.177711,0.0,0.0
3772,942.75,49.5478,51.6439,144.12,98.1899,96.5491,0.0120297,0.130923,20.8804,17.9157,0.150741,0.0,0.0
3813,953,48.5593,51.6129,146.889,98.1353,97.0247,0.0116682,0.130658,20.8804,17.7956,0.101811,0.0,0.0
3854,963.25,49.5145,51.6136,147.808,97.9699,95.9924,0.0115662,0.129403,20.8843,17.6455,0.1824,0.0,0.0
3895,973.5,49.442,52.0255,149.874,98.5472,96.181,0.0115428,0.129648,20.8849,17.4653,0.217411,0.0,0.0
3936,983.75,48.726,52.211,146.766,98.5179,96.1937,,,,17.3853,0.213567,0.0,0.0
3955,988.5,49.1678,52.3436,147.305,98.844,96.7693,,,,17.3252,0.189756,0.0,0.0

File: PC_Cone_HF75Scalar_220216_R1.csv
LABORATORY,FSRI
TEST IDENT,PC_HF75_1
OPERATOR,Dow
MATERIAL,Polycarbonate
ORIENTATION,Horizontal
HEAT FLUX,75
SURF AREA,0.01
C FACTOR,0.0393671
SPEC HOLDER DIFF,301.22
SPECIMEN MASS,64.5
SCAN TIME,0.25
O2 DELAY TIME,11
CO DELAY TIME,11
CO2 DELAY TIME,8
FLOW FACTOR,1
SCAN COUNT,3344
TIME TO IGN,53.5
END OF TEST SCAN,2864
END OF TEST TIME,716
TEST STATUS,1
PRE TEST CMT,Dimensions: 98.86 x 97.77 x 5.45 mm; 60 mm spacing
POST TEST CMT,"Sample expanded vertically after ignition, affecting incident heat flux. Likely extended test duration by maintaining combustion at elevated areas. See post test pictures."

File: PC_Cone_HF75Scalar_220216_R2.csv
LABORATORY,FSRI
TEST IDENT,PC_HF75_2
OPERATOR,Dow
MATERIAL,Polycarbonate
ORIENTATION,Horizontal
HEAT FLUX,75
SURF AREA,0.01
C FACTOR,0.0393671
SPEC HOLDER DIFF,301.22
SPECIMEN MASS,64.5
SCAN TIME,0.25
O2 DELAY TIME,11
CO DELAY TIME,11
CO2 DELAY TIME,8
FLOW FACTOR,1
SCAN COUNT,3301
TIME TO IGN,59
END OF TEST SCAN,2821
END OF TEST TIME,705.25
TEST STATUS,1
PRE TEST CMT,Dimensions: 98.40 x 98.71 x 5.40 mm
POST TEST CMT,"Sample expanded vertically after ignition, affecting incident heat flux. Likely extended test duration by maintaining combustion at elevated areas. See post test pictures."

File: PC_Cone_HF75Scalar_220216_R3.csv
LABORATORY,FSRI
TEST IDENT,PC_HF75_3
OPERATOR,Dow
MATERIAL,Polycarbonate
ORIENTATION,Horizontal
HEAT FLUX,75
SURF AREA,0.01
C FACTOR,0.0393671
SPEC HOLDER DIFF,301.13
SPECIMEN MASS,64.9
SCAN TIME,0.25
O2 DELAY TIME,11
CO DELAY TIME,11
CO2 DELAY TIME,8
FLOW FACTOR,1
SCAN COUNT,3076
TIME TO IGN,52.5
END OF TEST SCAN,2596
END OF TEST TIME,649
TEST STATUS,1
PRE TEST CMT,Dimensions: 98.88 x 99.05 x 5.40 mm
POST TEST CMT,"Sample expanded vertically after ignition, affecting incident heat flux. Likely extended test duration by maintaining combustion at elevated areas. See post test pictures. Sample also touched against heating coil, affecting mass data. "