Folder: fsri_materials_database/01_Data/PC/Cone (part 2)

File: PC_Cone_HF25Scan_220216_R3.csv
Names,Time,Stack TC,Smoke TC,Exh Press,Smoke Comp,Smoke Meas,CO Meter,CO2 Meter,O2 Meter,Sample Mass,Ext Coeff,Start Test,Flame Verif
Chan Gain,,500,500,1,1,1,1,1,1,1,1,1.0,1.0
Offset,,0,0,0.140898,0,0,0,0,0,0,0,0.0,0.0
Gain,,1,1,25.011,12.9668,12.6588,1,1,1,1.00088,1.01977,1.0,1.0
Units,sec,C,C,Pa,%,%,%,%,%,g,/m,,
Baseline,,21.4637,22.6278,160.909,98.1535,100.184,-0.00285997,0.060626,20.9851,-873.01,-0.183042,,
32,7.75,20.3263,21.1963,166.933,96.8856,97.3782,-0.00290015,0.0712188,20.9738,60.0828,-0.0453608,0.0,0.0
64,15.75,21.2118,21.6859,161.911,97.0257,98.031,-0.00286315,0.066299,20.9835,60.0728,-0.0922111,0.0,0.0
96,23.75,20.7569,21.9642,161.873,97.6956,98.4401,-0.00310641,0.0618521,20.9887,60.0728,-0.0679112,0.0,0.0
128,31.75,21.3465,22.2913,163.272,98.1222,99.3202,-0.00309561,0.0607902,20.9903,60.0728,-0.108551,0.0,0.0
160,39.75,21.1472,22.3405,163.171,98.0451,99.0266,-0.00308882,0.0605634,20.9904,60.0728,-0.089106,0.0,0.0
192,47.75,21.216,22.4531,160.907,97.8563,99.2047,-0.00291875,0.0607644,20.9889,60.0427,-0.122417,0.0,0.0
224,55.75,21.4398,22.1106,160.422,97.8535,99.1332,-0.00312158,0.0608555,20.9893,60.0327,-0.116223,0.0,0.0
256,63.75,21.3456,22.4449,159.136,98.4705,99.7482,-0.0031945,0.0607064,20.9894,60.0127,-0.115329,0.0,0.0
288,71.75,21.278,22.5755,165.394,98.5623,99.7733,-0.00308001,0.0606034,20.9878,60.0227,-0.109245,0.0,0.0
320,79.75,21.2784,22.3973,159.373,98.3739,99.7061,-0.00276125,0.0606762,20.9877,59.9927,-0.120328,0.0,0.0
352,87.75,21.7393,22.4871,161.467,98.0688,99.4817,-0.00323132,0.0606787,20.9877,60.0027,-0.127955,0.0,0.0
384,95.75,20.8326,22.3713,161.843,98.0914,98.8968,-0.00304378,0.0605693,20.9888,60.0027,-0.0731493,0.0,0.0
416,103.75,21.8631,22.4338,160.835,98.1721,99.4743,-0.00305512,0.0604973,20.9879,60.0027,-0.117879,0.0,0.0
448,111.75,21.351,22.7937,158.508,98.2769,99.776,-0.00286129,0.0606874,20.988,59.9827,-0.135419,0.0,0.0
480,119.75,21.4861,22.8046,159.312,98.3957,99.7266,-0.00292063,0.0608472,20.9888,59.9727,-0.120186,0.0,0.0
512,127.75,21.5372,22.5985,162.652,98.5187,99.6416,-0.00306943,0.0610341,20.9873,59.9627,-0.101378,0.0,0.0
544,135.75,21.5113,23.2004,159.849,98.6157,99.5214,-0.00292455,0.0612488,20.9868,59.9727,-0.0817867,0.0,0.0
576,143.75,21.8191,22.8983,157.079,98.6592,99.606,-0.00292016,0.0614741,20.9836,59.9627,-0.0854405,0.0,0.0
608,151.75,21.9471,23.3709,162.717,98.7031,100.039,-0.00307838,0.0615969,20.9832,59.9527,-0.120301,0.0,0.0
640,159.75,21.83,23.7453,160.645,98.7534,100.104,-0.00297275,0.0621314,20.9816,59.9527,-0.121549,0.0,0.0
672,167.75,21.6895,23.3072,158.496,98.7811,100.427,-0.00305697,0.0619258,20.9835,59.9426,-0.147853,0.0,0.0
704,175.75,22.1836,23.4197,162.01,98.7945,100.126,-0.00302568,0.0621697,20.9828,59.9527,-0.119789,0.0,0.0
736,183.75,21.8819,23.2811,163.007,98.7989,100.282,-0.00329969,0.0623595,20.9813,59.9527,-0.133328,0.0,0.0
768,191.75,22.1765,23.5729,161.533,98.7953,100.175,-0.00308205,0.062215,20.982,59.9226,-0.124066,0.0,0.0
800,199.75,22.6545,24.0502,158.409,98.804,99.9251,-0.0031305,0.062652,20.981,59.9326,-0.100929,0.0,0.0
832,207.75,22.2375,23.7532,158.86,98.7926,100.689,-0.00286269,0.0627916,20.981,59.9326,-0.170046,0.0,0.0
864,215.75,21.9007,23.3649,161.28,98.7779,99.8726,-0.00307264,0.0626743,20.9834,59.9126,-0.0985906,0.0,0.0
896,223.75,22.5555,24.2838,159.67,98.7467,100.013,-0.00274944,0.0628511,20.9835,59.9026,-0.114007,0.0,0.0
928,231.75,22.5497,23.938,163.229,98.698,100.013,-0.00272973,0.0628824,20.9856,59.9026,-0.118383,0.0,0.0
960,239.75,21.9891,23.2949,161.195,98.677,100.245,-0.00341215,0.0628859,20.9838,59.9026,-0.140992,0.0,0.0
992,247.75,22.1418,23.777,161.973,98.6299,99.4631,-0.00307709,0.063384,20.9831,59.8726,-0.0752498,0.0,0.0
1024,255.75,22.2377,23.9816,159.221,98.5678,100.005,-0.00290902,0.063514,20.9825,59.8726,-0.129465,0.0,0.0
1056,263.75,22.8034,23.9284,160.068,98.493,99.829,-0.00284425,0.063741,20.9811,59.8626,-0.120519,0.0,0.0
1088,271.75,22.8481,24.363,162.638,98.4333,100.155,-0.00329042,0.0639944,20.98,59.8426,-0.155081,0.0,0.0
1120,279.75,22.2547,24.0167,156.369,98.3537,99.6281,-0.00314587,0.0642154,20.9786,59.8426,-0.115159,0.0,0.0
1152,287.75,22.814,24.2353,159.561,98.2611,98.8211,-0.00326418,0.0644897,20.9774,59.8326,-0.0508296,0.0,0.0
1184,295.75,22.7812,24.2432,157.307,98.1931,99.7482,-0.00314839,0.0643383,20.9771,59.8225,-0.140564,0.0,0.0
1216,303.75,22.7288,24.5716,159.012,98.1044,99.749,-0.00320306,0.0645576,20.977,59.8326,-0.148713,0.0,0.0
1248,311.75,23.2312,24.4646,168.078,98.0015,99.6663,-0.00297672,0.0649456,20.9738,59.8225,-0.150681,0.0,0.0
1280,319.75,22.6269,24.6844,161.455,98.3126,99.8954,-0.00319453,0.0652397,20.9735,59.8125,-0.142874,0.0,0.0
1312,327.75,22.6917,24.2536,159.303,98.51,99.9487,-0.00322373,0.0654927,20.9734,59.8025,-0.129698,0.0,0.0
1344,335.75,23.0086,24.4628,160.164,98.5666,100.067,-0.00319244,0.0654579,20.9734,59.8125,-0.135169,0.0,0.0
1376,343.75,23.1801,25.0237,158.33,98.4914,100.223,-0.00275234,0.0653027,20.9734,59.7925,-0.155867,0.0,0.0
1408,351.75,23.1188,24.7873,163.794,98.311,99.4314,-0.00303575,0.0650668,20.9765,59.8025,-0.101374,0.0,0.0
1440,359.75,22.8079,24.0775,162.033,98.0126,99.6412,-0.00323911,0.0649886,20.9769,59.7925,-0.147417,0.0,0.0
1472,367.75,23.4752,24.7762,157.749,97.7186,99.2105,-0.00317062,0.0657093,20.9748,59.8125,-0.135537,0.0,0.0
1504,375.75,23.0465,24.9311,159.29,97.7843,99.5284,-0.00323195,0.0659547,20.9711,59.7925,-0.158147,0.0,0.0
1536,383.75,23.4152,24.7027,157.902,97.8777,99.0555,-0.00314057,0.0657663,20.9712,59.8025,-0.107008,0.0,0.0
1568,391.75,22.971,24.4896,162.568,97.9992,99.7467,-0.00361515,0.0657336,20.9713,59.7525,-0.158108,0.0,0.0
1600,399.75,22.5698,23.9741,156.958,98.0981,99.6435,-0.0036071,0.0655343,20.9742,59.7625,-0.139827,0.0,0.0
1632,407.75,23.0434,24.8661,156.412,98.1432,99.4979,-0.0031794,0.0651678,20.9746,59.7525,-0.12263,0.0,0.0
1664,415.75,23.18,25.1036,162.927,98.0506,99.7304,-0.00317419,0.0649226,20.9754,59.7825,-0.151957,0.0,0.0
1696,423.75,23.4061,24.9504,161.021,97.8401,98.4479,-0.00340695,0.0647773,20.9741,59.7825,-0.0553983,0.0,0.0
1728,431.75,23.1616,24.9266,159.679,97.5033,99.6756,-0.00309904,0.0662148,20.9693,59.7925,-0.197105,0.0,0.0
1760,439.75,23.4324,24.5809,157.089,97.1507,98.213,-0.00297911,0.0675912,20.9658,59.8025,-0.0972775,0.0,0.0
1792,447.75,23.3273,24.7811,158.535,96.8785,98.3212,-0.00294638,0.0688896,20.9628,59.7825,-0.132228,0.0,0.0
1824,455.75,23.1607,24.4455,161.298,96.8084,98.4034,-0.00301929,0.0693997,20.9621,59.7725,-0.14618,0.0,0.0
1856,463.75,23.3482,24.8095,161.919,97.0075,98.6132,-0.0029678,0.0689989,20.9626,59.7525,-0.146856,0.0,0.0
1888,471.75,23.5109,24.9071,160.041,97.3846,98.5518,-0.00303206,0.0683742,20.9648,59.7825,-0.106575,0.0,0.0
1920,479.75,23.3579,24.576,160.742,97.8591,99.7644,-0.00327052,0.0676277,20.9652,59.7625,-0.172497,0.0,0.0
1952,487.75,22.998,25.0232,155.755,98.3525,99.5806,-0.0031472,0.066862,20.9668,59.7525,-0.111,0.0,0.0
1984,495.75,23.5771,25.1437,158.598,98.6782,100.009,-0.00274587,0.0667522,20.9655,59.7425,-0.119831,0.0,0.0
2016,503.75,23.3232,24.8389,161.835,98.8151,100.935,-0.00308498,0.0670221,20.9641,59.7225,-0.189839,0.0,0.0
2048,511.75,23.4608,25.088,161.183,98.7035,100.68,-0.00316517,0.0669943,20.9661,59.7325,-0.177357,0.0,0.0
2080,519.75,23.9732,25.1394,160.404,98.4566,100.327,-0.00326667,0.0668272,20.9659,59.7225,-0.168336,0.0,0.0
2112,527.75,23.3998,24.7553,158.141,98.1654,99.9731,-0.00318467,0.0665153,20.9671,59.7024,-0.163229,0.0,0.0
2144,535.75,23.801,25.6134,166.326,98.0379,99.6122,-0.00336018,0.0661111,20.9695,59.6924,-0.142503,0.0,0.0
2176,543.75,23.4646,24.7989,159.924,98.4333,100.577,-0.00325239,0.0659771,20.9697,59.6824,-0.192715,0.0,0.0
2208,551.75,24.0553,25.1911,157.8,98.59,100.658,-0.00336562,0.0656287,20.9697,59.6924,-0.185733,0.0,0.0
2240,559.75,23.7076,24.6807,158.919,98.5373,100.094,-0.00357388,0.0649763,20.971,59.6924,-0.140244,0.0,0.0
2272,567.75,23.7564,25.2972,163.561,98.2682,100.632,-0.0030896,0.0642836,20.9748,59.6924,-0.212601,0.0,0.0
2304,575.75,23.5142,24.8213,163.089,97.8634,99.8174,-0.0029721,0.0638736,20.9756,59.6824,-0.176844,0.0,0.0
2336,583.75,23.769,25.512,157.967,97.8005,99.9773,-0.00321361,0.0640873,20.9768,59.6724,-0.196918,0.0,0.0
2368,591.75,23.5624,25.0612,166.722,97.8935,99.6192,-0.00333468,0.0642087,20.9763,59.6624,-0.156317,0.0,0.0
2400,599.75,23.7863,25.2561,158.908,97.9786,99.6281,-0.00319225,0.0643814,20.9761,59.6824,-0.149344,0.0,0.0
2432,607.75,23.7164,25.1198,159.816,98.0454,100.281,-0.00302037,0.0644405,20.9733,59.6724,-0.201703,0.0,0.0
2464,615.75,23.8773,25.0753,158.003,98.1052,100.398,-0.00299507,0.0640734,20.9737,59.6724,-0.20662,0.0,0.0
2496,623.75,23.2788,25.0362,157.589,98.1293,99.7169,-0.00324382,0.064042,20.9755,59.6624,-0.143564,0.0,0.0
2528,631.75,23.1421,24.5367,160.372,98.0826,100.129,-0.00311197,0.063925,20.9768,59.6624,-0.184688,0.0,0.0
2560,639.75,22.8777,24.6017,161.907,97.92,100.027,-0.00315235,0.0637366,20.9793,59.6524,-0.190417,0.0,0.0
2592,647.75,23.1878,24.4177,158.836,97.6952,99.4658,-0.0031805,0.0640504,20.9772,59.6624,-0.160669,0.0,0.0
2624,655.75,23.5286,24.6872,158.059,97.4127,99.9476,-0.00302039,0.0650316,20.9757,59.6424,-0.229797,0.0,0.0
2656,663.75,23.1338,24.8726,157.868,97.091,99.173,-0.00329643,0.0646173,20.9739,59.6324,-0.189795,0.0,0.0
2688,671.75,23.1728,24.2139,162.472,96.8579,98.7233,-0.00341736,0.064356,20.9744,59.6524,-0.170642,0.0,0.0
2720,679.75,23.1897,24.7155,161.724,96.7673,98.937,-0.00345303,0.0639255,20.9767,59.6324,-0.198352,0.0,0.0
2752,687.75,23.1006,24.5888,157.697,96.831,99.0513,-0.00326053,0.0639745,20.9765,59.6324,-0.202797,0.0,0.0
2784,695.75,22.9999,24.437,156.67,97.0368,99.637,-0.00304989,0.0634367,20.9773,59.6224,-0.236543,0.0,0.0
2816,703.75,23.3631,24.5098,162.888,97.3181,99.8734,-0.00301014,0.0631673,20.9775,59.6224,-0.231845,0.0,0.0
2848,711.75,23.1125,24.8919,157.215,97.666,99.377,-0.00300476,0.0634207,20.9783,59.6224,-0.155356,0.0,0.0
2880,719.75,23.354,24.9854,167.455,97.96,99.9101,-0.00343348,0.0632012,20.9761,59.6023,-0.176327,0.0,0.0
2912,727.75,23.7444,24.5677,159.849,98.2378,100.13,-0.00307132,0.063284,20.9757,59.6124,-0.170689,0.0,0.0
2944,735.75,22.7973,24.4799,157.302,98.5199,100.563,-0.00321324,0.063386,20.9765,59.6124,-0.183571,0.0,0.0
2976,743.75,22.9879,24.4967,159.524,98.73,100.947,,,,59.6124,-0.198606,0.0,0.0
2995,748.5,23.8315,24.8041,156.68,98.768,101.137,,,,59.5923,-0.21206,0.0,0.0

File: PC_Cone_HF50Scalar_220216_R1.csv
LABORATORY,FSRI
TEST IDENT,PC_HF50_1
OPERATOR,Dow
MATERIAL,Polycarbonate
ORIENTATION,Horizontal
HEAT FLUX,50
SURF AREA,0.01
C FACTOR,0.0393671
SPEC HOLDER DIFF,301.97
SPECIMEN MASS,65
SCAN TIME,0.25
O2 DELAY TIME,11
CO DELAY TIME,11
CO2 DELAY TIME,8
FLOW FACTOR,1
SCAN COUNT,2958
TIME TO IGN,128.5
END OF TEST SCAN,2478
END OF TEST TIME,619.5
TEST STATUS,1
PRE TEST CMT,Dimensions: 98.81 x 99.06 x 5.50 mm; 60 mm spacing
POST TEST CMT,"Sample expanded vertically after ignition, affecting incident heat flux. Likely extended test duration by maintaining combustion at elevated areas. See post test pictures."

File: PC_Cone_HF50Scalar_220216_R2.csv
LABORATORY,FSRI
TEST IDENT,PC_HF50_2
OPERATOR,Dow
MATERIAL,Polycarbonate
ORIENTATION,Horizontal
HEAT FLUX,50
SURF AREA,0.01
C FACTOR,0.0393671
SPEC HOLDER DIFF,301.11
SPECIMEN MASS,65.2
SCAN TIME,0.25
O2 DELAY TIME,11
CO DELAY TIME,11
CO2 DELAY TIME,8
FLOW FACTOR,1
SCAN COUNT,3190
TIME TO IGN,171
END OF TEST SCAN,2710
END OF TEST TIME,677.5
TEST STATUS,1
PRE TEST CMT,Dimensions: 99.03 x 98.74 x 5.47 mm; 60 mm spacing
POST TEST CMT,"Sample expanded vertically after ignition, affecting incident heat flux. Likely extended test duration by maintaining combustion at elevated areas. See post test pictures."

File: PC_Cone_HF50Scalar_220216_R3.csv
LABORATORY,FSRI
TEST IDENT,PC_HF50_3
OPERATOR,Dow
MATERIAL,Polycarbonate
ORIENTATION,Horizontal
HEAT FLUX,50
SURF AREA,0.01
C FACTOR,0.0393671
SPEC HOLDER DIFF,302.05
SPECIMEN MASS,64.2
SCAN TIME,0.25
O2 DELAY TIME,11
CO DELAY TIME,11
CO2 DELAY TIME,8
FLOW FACTOR,1
SCAN COUNT,3955
TIME TO IGN,148.25
END OF TEST SCAN,3475
END OF TEST TIME,868.75
TEST STATUS,1
PRE TEST CMT,Dimensions: 98.38 x 98.85 x 5.40 mm; 60 mm spacing
POST TEST CMT,"Bubble formed prior to ignition. Ignition occurred when gases released from bubble. Sample expanded vertically after ignition, affecting incident heat flux. Likely extended test duration by maintaining combustion at elevated areas. See post test pictures."

File: PC_Cone_HF50Scan_220216_R1.csv
Names,Time,Stack TC,Smoke TC,Exh Press,Smoke Comp,Smoke Meas,CO Meter,CO2 Meter,O2 Meter,Sample Mass,Ext Coeff,Start Test,Flame Verif
Chan Gain,,500,500,1,1,1,1,1,1,1,1,1.0,1.0
Offset,,0,0,0.140898,0,0,0,0,0,0,0,0.0,0.0
Gain,,1,1,25.011,12.9668,12.6588,1,1,1,1.00088,1.01977,1.0,1.0
Units,sec,C,C,Pa,%,%,%,%,%,g,/m,,
Baseline,,32.8547,35.3797,154.212,98.2182,98.3328,-0.00282968,0.0649554,20.9714,-873.209,-0.0103595,,
31,7.5,32.1867,34.0124,155.321,97.8733,98.1836,-0.00267428,0.0763172,20.9599,60.7934,-0.0283174,0.0,0.0
62,15.25,31.7964,33.9268,151.299,97.5773,98.354,-0.00280022,0.0754677,20.9614,60.8134,-0.0709198,0.0,0.0
93,23,32.4061,34.4021,157.387,97.2279,97.6331,-0.00305634,0.0713315,20.9673,60.8134,-0.037205,0.0,0.0
124,30.75,32.5272,34.8478,152.467,96.9675,97.4044,-0.00295133,0.0683518,20.9688,60.8034,-0.0402145,0.0,0.0
155,38.5,32.6156,34.6576,157.609,96.8642,98.174,-0.00320019,0.0675746,20.9693,60.7734,-0.120142,0.0,0.0
186,46.25,32.9242,35.1647,154.44,96.9869,96.9895,-0.00311098,0.0661475,20.9706,60.7734,-0.000240469,0.0,0.0
217,54,33.2735,35.5747,149.311,97.2354,97.2986,-0.00273149,0.0666573,20.9699,60.7333,-0.00580826,0.0,0.0
248,61.75,33.2633,36.1685,150.585,97.6303,96.5155,-0.00262558,0.067199,20.9701,60.7634,0.102733,0.0,0.0
279,69.5,33.6502,36.0701,153.595,98.0878,98.3158,-0.00322939,0.0666647,20.9706,60.7534,-0.0207649,0.0,0.0
310,77.25,33.2678,35.916,151.39,98.4558,99.1239,-0.00296839,0.0663652,20.971,60.7133,-0.0604981,0.0,0.0
341,85,33.5038,36.1469,152.683,98.7324,98.8883,-0.00276461,0.0659395,20.972,60.6833,-0.0141101,0.0,0.0
372,92.75,33.838,36.8463,152.911,98.8408,98.3327,-0.0030794,0.0658859,20.9703,60.6533,0.0461016,0.0,0.0
403,100.5,34.2813,36.7521,153.237,98.7676,97.9766,-0.00309157,0.0663553,20.9697,60.6533,0.0719351,0.0,0.0
434,108.25,34.4047,37.0785,151.682,98.5868,97.0602,-0.0027914,0.0662963,20.9697,60.6232,0.139597,0.0,0.0
465,116,34.6299,37.557,149.329,98.3478,96.1164,-0.00287527,0.0667101,20.9697,60.5932,0.205291,0.0,0.0
496,123.75,35.1445,37.839,155.512,98.1246,95.2824,-0.00260145,0.0668611,20.9703,60.5632,0.262931,0.0,0.0
527,131.5,35.9397,38.7336,139.241,98.3288,73,0.000918701,0.124424,20.829,60.303,2.66443,0.0,1.0
558,139.25,38.2325,41.6829,142.059,98.5686,63.7323,0.00595059,0.249293,20.6693,59.8526,3.90072,0.0,0.0
589,147,43.4451,49.1063,139.099,98.5674,53.7155,0.0181828,0.476489,20.3344,58.8317,5.43018,0.0,0.0
620,154.75,50.4222,59.0925,131.573,98.3288,51.0881,0.0265459,0.701249,20.0168,57.4304,5.85709,0.0,0.0
651,162.5,56.5937,67.1351,127.995,97.8409,50.9405,0.029648,0.780826,19.9643,56.0692,5.83847,0.0,0.0
682,170.25,62.5027,74.6961,132.363,97.8053,48.1741,0.0324451,0.853401,19.8643,54.5279,6.3347,0.0,0.0
713,178,67.7054,81.5404,126.766,97.9046,47.3532,0.0338754,0.90815,19.8087,52.9665,6.49753,0.0,0.0
744,185.75,71.619,86.1391,127.682,97.9932,42.4817,0.0338956,0.891195,19.848,51.4252,7.47673,0.0,0.0
775,193.5,74.0079,88.4038,130.962,98.0862,47.7183,0.031842,0.846266,19.922,49.9339,6.44541,0.0,0.0
806,201.25,75.2107,90.4922,130.876,98.163,46.5485,0.0306296,0.836351,19.9189,48.5126,6.67442,0.0,0.0
837,209,76.0317,90.8671,133.059,98.1547,52.305,0.0272786,0.783389,20.0185,47.2015,5.63066,0.0,0.0
868,216.75,76.5019,90.5576,131.258,98.0823,49.68,0.0244802,0.733076,20.0724,45.9704,6.08466,0.0,0.0
899,224.5,76.7576,90.923,129.973,97.9623,48.7022,0.0230685,0.718407,20.0864,44.7393,6.25153,0.0,0.0
930,232.25,77.3279,90.6448,135.458,97.7574,58.0978,0.0200649,0.701648,20.1213,43.6083,4.6548,0.0,0.0
961,240,76.6825,89.7195,132.717,97.531,58.663,0.0179278,0.650803,20.1859,42.5574,4.54746,0.0,0.0
992,247.75,76.4472,89.5688,127.877,97.2975,56.4965,0.0179968,0.654541,20.1687,41.4964,4.86263,0.0,0.0
1023,255.5,77.097,89.1427,133.804,97.0882,57.353,0.0173977,0.662892,20.1583,40.4255,4.70878,0.0,0.0
1054,263.25,76.7947,88.9292,131.052,96.9129,62.3597,0.0150606,0.623781,20.2248,39.4246,3.94395,0.0,0.0
1085,271,76.4804,88.2334,130.636,96.835,62.2125,0.012827,0.58919,20.2746,38.5438,3.95788,0.0,0.0
1116,278.75,75.4136,87.1451,136.744,96.8623,63.9235,0.0124771,0.563462,20.3114,37.7031,3.71771,0.0,0.0
1147,286.5,74.8321,85.3367,132.45,96.939,65.9084,0.0106465,0.532416,20.3554,36.8724,3.45126,0.0,0.0
1178,294.25,74.114,83.6953,132.602,97.0874,66.8147,0.00912346,0.502072,20.397,36.0817,3.34277,0.0,0.0
1209,302,73.3933,83.3637,132.96,97.2615,68.7892,0.00882767,0.488225,20.409,35.3711,3.09828,0.0,0.0
1240,309.75,73.3581,82.1073,134.624,97.5322,70.1123,0.00851456,0.480119,20.4199,34.6504,2.95272,0.0,0.0
1271,317.5,72.022,81.3777,133.35,97.7791,73.6537,0.00702173,0.46069,20.4513,33.9698,2.53455,0.0,0.0
1302,325.25,70.7253,79.523,139.084,97.9912,77.0865,0.00583355,0.436512,20.4847,33.4193,2.14644,0.0,0.0
1333,333,70.5612,78.3803,139.756,98.2097,78.6638,0.00438171,0.412707,20.5154,32.8989,1.98516,0.0,0.0
1364,340.75,69.544,76.9408,138.07,98.33,81.645,0.00389792,0.392089,20.5431,32.3284,1.66337,0.0,0.0
1395,348.5,68.6854,75.4518,138.682,98.4036,84.0637,0.00272389,0.370632,20.5742,31.858,1.40891,0.0,0.0
1426,356.25,67.5802,74.2591,135.758,98.4218,85.8984,0.00269952,0.34647,20.6057,31.4576,1.21744,0.0,0.0
1457,364,65.8943,72.439,141.178,98.4012,87.585,0.00215866,0.325464,20.637,31.0373,1.04162,0.0,0.0
1488,371.75,65.2129,71.3685,141.846,98.3842,87.7635,0.00213263,0.306518,20.6601,30.6769,1.02187,0.0,0.0
1519,379.5,65.2788,69.6891,141.119,98.3224,87.9598,0.00219583,0.297042,20.6742,30.3567,0.996269,0.0,0.0
1550,387.25,63.8329,69.2067,141.19,98.165,89.2562,0.00176474,0.290682,20.6828,30.0164,0.851041,0.0,0.0
1581,395,62.5833,68.2263,143.851,97.9212,89.6603,0.00210193,0.285943,20.6891,29.6661,0.788395,0.0,0.0
1612,402.75,63.0181,67.6241,145.833,97.5928,89.9195,0.0023001,0.279503,20.6965,29.3258,0.732515,0.0,0.0
1643,410.5,61.9005,67.0639,138.937,97.1658,89.4849,0.00238929,0.270601,20.7095,29.0355,0.736634,0.0,0.0
1674,418.25,61.6548,65.9792,142.363,96.882,90.3553,0.00254188,0.263051,20.7188,28.7753,0.623889,0.0,0.0
1705,426,61.1185,65.0472,145.319,96.8912,91.6815,0.0024793,0.255744,20.7312,28.445,0.494384,0.0,0.0
1736,433.75,60.3753,63.654,145.882,97.2386,91.6247,0.00287335,0.245502,20.7463,28.2148,0.531946,0.0,0.0
1767,441.5,59.7268,63.8862,145.847,97.7467,93.8264,0.00294344,0.238086,20.7568,27.8845,0.366163,0.0,0.0
1798,449.25,59.5074,63.8448,138.958,98.146,92.0122,0.00305356,0.233205,20.7644,27.6543,0.577282,0.0,0.0
1829,457,58.6308,63.6656,138.985,98.1012,93.3431,0.00294203,0.231335,20.7651,27.3941,0.444748,0.0,0.0
1860,464.75,58.8482,62.7356,140.837,97.8492,92.3448,0.00286993,0.227548,20.7696,27.1839,0.517913,0.0,0.0
1891,472.5,57.6319,61.9524,143.126,98.2251,94.1586,0.00293834,0.223376,20.7729,26.9437,0.37822,0.0,0.0
1922,480.25,58.1926,61.8327,144.631,98.5737,94.3363,0.00308507,0.220325,20.7754,26.7135,0.393046,0.0,0.0
1953,488,57.7282,61.4762,145.618,98.1127,94.3421,0.0033112,0.219769,20.7769,26.5033,0.350564,0.0,0.0
1984,495.75,57.7077,61.0693,144.12,98.662,94.9077,0.00344725,0.218682,20.7791,26.243,0.347035,0.0,0.0
2015,503.5,57.1343,60.9434,143.394,98.8108,94.2428,0.00340765,0.218487,20.7777,26.0128,0.423401,0.0,0.0
2046,511.25,57.1019,60.87,143.939,98.1048,93.6498,0.00322511,0.220077,20.7776,25.7526,0.415724,0.0,0.0
2077,519,56.9107,60.5718,148.693,97.1262,93.2357,0.0029597,0.219356,20.7802,25.5524,0.365692,0.0,0.0
2108,526.75,56.528,60.4484,146.95,96.9319,94.0187,0.0033201,0.215296,20.7841,25.2922,0.272963,0.0,0.0
2139,534.5,56.1146,60.4708,142.805,97.6228,92.7748,0.00327191,0.211741,20.7892,25.082,0.455642,0.0,0.0
2170,542.25,56.271,59.7463,144.147,98.1598,95.671,0.0032318,0.211383,20.7876,24.8718,0.229728,0.0,0.0
2201,550,56.0839,59.7668,145.114,97.9738,94.6438,0.0032154,0.211396,20.7861,24.6717,0.309329,0.0,0.0
2232,557.75,55.3828,59.8022,141.62,97.8662,94.8462,0.00364736,0.209166,20.7898,24.4415,0.280383,0.0,0.0
2263,565.5,55.6505,59.1989,141.952,98.5745,95.2731,0.00389582,0.209243,20.7904,24.2113,0.304724,0.0,0.0
2294,573.25,54.7697,59.1687,140.03,98.1349,94.21,0.00376002,0.210366,20.7895,29.636,0.36512,0.0,0.0
2325,581,55.6706,59.2895,144.271,98.7273,94.4379,0.00345622,0.210273,20.7888,23.8009,0.39734,0.0,0.0
2356,588.75,55.909,59.0951,142.49,98.5935,93.578,0.00374644,0.207543,20.7939,23.5907,0.467041,0.0,0.0
2387,596.5,55.3764,59.4723,146.549,97.5243,94.3552,0.00344598,0.202016,20.8034,23.3705,0.295507,0.0,0.0
2418,604.25,55.3222,59.305,140.458,96.8931,93.5042,0.00377185,0.199677,20.805,23.1904,0.318477,0.0,0.0
2449,612,54.5688,58.4624,144.842,97.5271,93.5969,0.00378082,0.19727,20.8054,22.9602,0.367946,0.0,0.0
2480,619.75,54.4151,58.187,141.31,98.1638,94.2115,0.00427648,0.198099,20.8043,22.78,0.367606,0.0,0.0
2511,627.5,54.9156,57.8217,147.72,97.8606,95.1503,0.00457249,0.194585,20.8106,22.5998,0.251249,0.0,0.0
2542,635.25,54.7523,57.8984,146.3,98.2722,94.3398,0.0045629,0.19139,20.8141,22.4097,0.365312,0.0,0.0
2573,643,54.031,57.3156,143.814,98.2097,94.5399,0.00484707,0.187598,20.8202,22.1995,0.340664,0.0,0.0
2604,650.75,54.3333,57.2828,142.753,98.5136,94.9652,0.00460962,0.185407,20.8228,22.0494,0.328148,0.0,0.0
2635,658.5,54.3664,57.4792,142.962,98.8313,94.818,0.00514773,0.183047,20.8254,21.8792,0.37083,0.0,0.0
2666,666.25,53.5284,57.3137,146.796,98.4835,95.1082,0.00540563,0.180617,20.8305,21.7191,0.311963,0.0,0.0
2697,674,53.5425,56.6963,147.891,97.7099,95.1545,0.00583119,0.177511,20.8333,21.5389,0.237057,0.0,0.0
2728,681.75,53.1432,56.6907,150.247,97.1092,93.8125,0.00587711,0.174246,20.8359,21.3788,0.308958,0.0,0.0
2759,689.5,53.4352,56.0224,148.053,96.9402,94.4931,0.00611568,0.170366,20.8406,21.1886,0.228708,0.0,0.0
2790,697.25,53.0848,55.7004,142.517,97.1571,93.3836,0.00714945,0.167187,20.843,21.0785,0.354349,0.0,0.0
2821,705,51.6808,55.6245,142.836,97.569,94.2826,0.00737351,0.164077,20.8462,20.9184,0.306497,0.0,0.0
2852,712.75,51.9929,55.0591,148.013,97.9113,94.4074,0.00761886,0.160442,20.8514,20.7482,0.325992,0.0,0.0
2883,720.5,52.19,54.7848,144.533,98.1238,95.4528,0.0079657,0.158878,20.8529,20.6481,0.246878,0.0,0.0
2914,728.25,51.2405,54.3953,147.634,98.2263,93.9983,0.00800226,0.157417,20.856,20.488,0.393573,0.0,0.0
2945,736,52.0463,54.3068,145.686,98.2223,96.3815,,,,20.3579,0.169243,0.0,0.0
2958,739.25,50.9093,53.8701,143.226,98.2152,96.0825,,,,20.2778,0.196389,0.0,0.0