Folder: fsri_materials_database/01_Data/PC/MCC

Note: 01_Data/README.md
# Materials and Products Database
## 01_Data

Raw data generated from each apparatus are included here in plain-text format. The data is organized first by material, next by the short name of test apparatus used, and where applicable additional filtering by test settings.

### material.json

Each material directory contains a json file of the same name as the material. This file links the data stored in the repository as well as data and graphs produced by the accompanying scripts (__02_Scripts__) to the respective landing page for the material on the front-end website.

File: PC_MCC_30K_min_210921_R1.txt
Sample ID:	C:\MCC\MCC Cal\Test\PC_MCC_30K_min_210921_R1.txt
Sample Weight (mg):	4.34
Heating Rate (C/s):	0.5
Combustor Temp (C):	900
N2 Flow Rate (cc/min):	80
O2 Flow Rate (cc/min):	20
Calibration File:	C:\MCC\MCC Cal\Coeff1 JN10440_30_210304.txt.txt
T Correction Coefficients:	0	1.024463	0
Time Shift (s):	14
*
Time (s)	Temperature (C)	N2 flow rate (cc/min)	O2 flow rate (cc/min)	Flow Rate (cc/min)	Oxygen (%)	HRR (W/g)	Heating rate (C/s)
0.000	106.785	79.994	19.995	99.866	20.008	0.008	0.020
8.000	106.787	79.994	19.994	99.864	20.007	0.017	0.018
16.000	106.814	79.996	19.994	99.892	20.000	0.521	0.057
24.000	106.890	79.996	19.996	99.949	19.991	1.227	0.032
32.000	107.288	79.995	19.995	100.041	19.978	2.108	0.082
40.000	108.184	79.996	19.994	100.112	19.964	3.146	0.129
48.000	109.640	79.997	19.995	100.120	19.956	3.756	0.189
56.001	111.548	79.996	19.996	100.129	19.949	4.241	0.253
64.000	113.869	79.996	19.996	100.157	19.949	4.204	0.303
72.000	116.512	79.997	19.995	100.146	19.949	4.217	0.311
80.000	119.541	79.996	19.996	100.144	19.949	4.253	0.375
88.000	122.743	79.995	19.995	100.153	19.945	4.497	0.397
96.000	126.106	79.996	19.995	100.155	19.952	3.992	0.439
104.000	129.664	79.996	19.995	100.151	19.951	4.086	0.448
112.000	133.333	79.996	19.994	100.162	19.953	3.942	0.495
120.000	137.009	79.996	19.995	100.147	19.951	4.095	0.469
128.000	140.828	79.997	19.995	100.152	19.948	4.283	0.477
136.000	144.691	79.997	19.995	100.129	19.950	4.118	0.476
144.000	148.531	79.997	19.996	100.140	19.951	4.108	0.489
152.000	152.407	79.997	19.996	100.133	19.949	4.222	0.478
160.000	156.269	79.998	19.995	100.126	19.952	4.036	0.497
168.000	160.229	79.995	19.994	100.120	19.952	4.011	0.515
176.000	164.246	79.996	19.996	100.135	19.953	3.935	0.522
184.000	168.259	79.996	19.995	100.125	19.954	3.898	0.504
192.000	172.252	79.995	19.994	100.124	19.953	3.947	0.487
200.000	176.214	79.996	19.995	100.120	19.954	3.873	0.485
208.000	180.190	79.998	19.996	100.118	19.954	3.883	0.499
216.000	184.146	79.996	19.996	100.116	19.955	3.782	0.458
224.000	188.117	79.996	19.995	100.114	19.957	3.617	0.507
232.000	192.085	79.998	19.996	100.116	19.957	3.677	0.486
240.000	196.061	79.997	19.996	100.116	19.959	3.504	0.508
248.000	199.976	79.995	19.996	100.118	19.959	3.503	0.474
256.000	203.885	79.995	19.994	100.120	19.956	3.720	0.461
264.000	207.892	79.997	19.995	100.120	19.956	3.693	0.495
272.000	211.837	79.996	19.995	100.115	19.958	3.555	0.501
280.000	215.822	79.996	19.996	100.118	19.960	3.452	0.484
288.000	219.785	79.998	19.994	100.115	19.958	3.598	0.499
296.000	223.772	79.997	19.996	100.117	19.957	3.673	0.494
304.000	227.703	79.997	19.994	100.115	19.956	3.690	0.478
312.000	231.738	79.997	19.995	100.118	19.959	3.530	0.508
320.000	235.675	79.996	19.995	100.114	19.956	3.704	0.505
328.000	239.650	79.996	19.995	100.107	19.956	3.698	0.470
336.000	243.611	79.995	19.997	100.111	19.955	3.758	0.480
344.000	247.539	79.996	19.995	100.110	19.952	4.042	0.486
352.000	251.604	79.997	19.995	100.116	19.952	4.007	0.507
360.000	255.526	79.996	19.995	100.113	19.957	3.665	0.514
368.000	259.529	79.997	19.995	100.114	19.957	3.654	0.497
376.000	263.531	79.996	19.994	100.114	19.954	3.830	0.516
384.000	267.493	79.997	19.995	100.116	19.950	4.125	0.517
392.000	271.497	79.997	19.994	100.108	19.950	4.169	0.521
400.000	275.487	79.998	19.995	100.102	19.954	3.882	0.520
408.000	279.475	79.996	19.995	100.114	19.949	4.214	0.485
416.000	283.514	79.996	19.996	100.104	19.948	4.270	0.551
424.000	287.540	79.995	19.997	100.113	19.951	4.069	0.515
432.000	291.569	79.995	19.996	100.116	19.951	4.051	0.510
440.000	295.590	79.994	19.995	100.118	19.951	4.076	0.515
448.000	299.617	79.997	19.995	100.118	19.951	4.094	0.459
456.000	303.663	79.998	19.996	100.110	19.948	4.309	0.460
464.000	307.680	79.997	19.995	100.112	19.948	4.292	0.483
472.000	311.675	79.999	19.995	100.108	19.947	4.395	0.492
480.000	315.749	79.997	19.996	100.116	19.948	4.284	0.487
488.000	319.747	79.995	19.995	100.115	19.946	4.412	0.469
496.000	324.065	79.997	19.995	100.120	19.949	4.237	0.677
504.000	327.783	79.996	19.998	100.118	19.950	4.154	0.475
512.000	331.797	79.995	19.997	100.113	19.946	4.445	0.503
520.000	335.732	79.994	19.996	100.112	19.951	4.076	0.466
528.000	339.630	79.998	19.995	100.114	19.947	4.393	0.479
536.000	343.457	79.998	19.995	100.117	19.946	4.418	0.464
544.000	347.451	79.997	19.995	100.116	19.946	4.430	0.494
552.000	351.476	79.999	19.995	100.119	19.950	4.123	0.561
560.000	355.488	79.999	19.995	100.120	19.946	4.422	0.468
568.000	359.521	79.996	19.995	100.124	19.946	4.465	0.518
576.000	363.538	79.995	19.995	100.125	19.942	4.734	0.528
584.000	367.531	79.997	19.996	100.118	19.943	4.633	0.482
592.000	371.523	79.997	19.995	100.119	19.942	4.744	0.503
600.000	375.581	79.995	19.996	100.118	19.939	4.946	0.489
608.000	379.638	79.997	19.996	100.120	19.935	5.202	0.505
616.000	383.714	79.998	19.995	100.127	19.939	4.973	0.522
624.000	387.712	79.996	19.994	100.133	19.939	4.917	0.498
632.000	391.802	79.998	19.996	100.128	19.935	5.206	0.495
640.000	395.961	79.999	19.995	100.080	19.930	5.574	0.544
648.000	399.969	79.996	19.996	100.120	19.930	5.613	0.512
656.000	403.976	79.997	19.996	100.119	19.927	5.836	0.502
664.000	408.025	79.996	19.995	100.122	19.929	5.650	0.513
672.000	412.032	79.997	19.996	100.128	19.924	6.026	0.490
680.000	416.035	79.996	19.995	100.125	19.921	6.209	0.496
688.000	420.003	79.997	19.996	100.135	19.909	7.081	0.486
696.000	424.026	79.998	19.996	100.149	19.894	8.199	0.527
704.000	428.035	79.996	19.997	100.156	19.881	9.121	0.493
712.000	432.032	80.000	19.996	100.155	19.862	10.456	0.493
720.000	436.151	80.000	19.994	100.160	19.832	12.621	0.523
728.000	440.159	79.997	19.994	100.166	19.781	16.349	0.482
736.000	444.257	79.998	19.996	100.182	19.720	20.710	0.505
744.000	448.335	79.997	19.995	100.165	19.713	21.202	0.522
752.000	452.422	79.996	19.995	100.163	19.726	20.310	0.547
760.000	456.507	79.995	19.997	100.219	19.550	32.930	0.487
768.000	460.611	79.997	19.995	100.182	19.450	40.179	0.532
776.000	464.733	79.998	19.996	100.346	19.324	49.255	0.502
784.000	468.821	79.998	19.996	100.124	19.289	51.908	0.505
792.000	472.928	79.998	19.997	100.340	19.090	66.116	0.518
800.000	477.057	79.999	19.997	100.056	18.872	81.845	0.501
808.000	481.197	79.997	19.997	100.538	18.582	102.745	0.547
816.000	485.340	79.996	19.995	100.174	18.672	96.477	0.520
824.000	489.400	79.996	19.995	100.466	18.716	93.176	0.504
832.000	493.493	79.996	19.995	100.209	18.562	104.305	0.508
840.000	497.637	79.997	19.995	100.418	18.361	119.012	0.517
848.000	501.757	79.996	19.996	100.448	18.262	125.934	0.498
856.000	505.756	79.997	19.996	100.391	17.903	152.047	0.517
864.000	509.818	79.997	19.996	100.508	17.745	163.442	0.530
872.000	513.792	79.998	19.997	100.497	17.552	177.422	0.503
880.000	517.898	79.998	19.995	100.511	17.438	185.601	0.504
888.000	521.930	79.999	19.996	100.490	17.429	186.207	0.497
896.000	526.038	79.997	19.995	100.467	17.585	174.864	0.551
904.000	530.118	79.998	19.996	100.398	17.928	149.987	0.537
912.000	534.184	79.997	19.996	100.351	18.395	116.234	0.511
920.000	538.282	79.997	19.996	100.278	18.847	83.594	0.513
928.000	542.384	79.998	19.995	100.230	19.194	58.627	0.508
936.000	546.440	79.999	19.995	100.185	19.427	41.824	0.524
944.000	550.485	79.997	19.996	100.159	19.575	31.129	0.528
952.000	554.618	79.997	19.995	100.155	19.666	24.587	0.490
960.000	558.773	79.998	19.995	100.153	19.724	20.397	0.507
968.000	562.926	79.998	19.995	100.131	19.760	17.858	0.506
976.000	567.081	79.996	19.997	100.127	19.790	15.694	0.488
984.000	571.235	79.997	19.996	100.122	19.803	14.706	0.523
992.000	575.390	79.996	19.995	100.134	19.814	13.926	0.515
1000.000	579.372	79.997	19.996	100.122	19.823	13.309	0.483
1008.000	583.423	79.995	19.995	100.141	19.831	12.725	0.510
1016.000	587.441	79.999	19.997	100.147	19.838	12.199	0.500
1024.000	591.514	79.999	19.995	100.128	19.842	11.920	0.502
1032.000	595.614	79.998	19.996	100.137	19.845	11.729	0.537
1040.000	599.661	79.999	19.996	100.122	19.851	11.275	0.534
1048.000	603.677	80.000	19.996	100.123	19.860	10.634	0.491
1056.000	607.773	79.997	19.997	100.130	19.860	10.645	0.523
1064.000	611.873	79.996	19.998	100.148	19.867	10.154	0.547
1072.000	615.907	79.996	19.997	100.143	19.868	10.032	0.506
1080.000	619.844	79.996	19.996	100.141	19.874	9.595	0.502
1088.000	623.839	79.996	19.996	100.143	19.874	9.638	0.514
1096.000	627.854	79.997	19.996	100.151	19.880	9.180	0.481
1104.000	631.826	79.998	19.996	100.155	19.877	9.417	0.499
1112.000	635.983	79.997	19.996	100.147	19.882	9.019	0.508
1120.000	640.131	79.999	19.996	100.147	19.891	8.427	0.527
1128.000	644.256	80.000	19.995	100.152	19.898	7.886	0.531
1136.000	648.435	79.994	19.996	100.156	19.893	8.228	0.526
1144.000	652.635	79.996	19.996	100.156	19.900	7.728	0.513
1152.000	656.760	79.998	19.995	100.156	19.896	8.005	0.505
1160.000	660.825	79.995	19.997	100.158	19.898	7.902	0.472
1168.000	664.759	79.994	19.995	100.157	19.898	7.873	0.499
1176.000	668.736	79.998	19.994	100.157	19.897	7.939	0.497
1184.000	672.701	79.998	19.995	100.155	19.897	7.955	0.507
1192.000	676.675	79.997	19.996	100.156	19.897	7.968	0.492
1200.000	680.590	79.999	19.995	100.161	19.901	7.681	0.503
1208.000	684.472	79.998	19.995	100.161	19.895	8.118	0.512
1216.000	688.446	79.994	19.996	100.161	19.897	7.937	0.538
1224.000	692.460	79.994	19.994	100.166	19.897	7.978	0.521
1232.000	696.496	79.996	19.994	100.158	19.899	7.848	0.526
1240.000	700.546	79.996	19.995	100.166	19.893	8.262	0.483
1248.000	704.631	79.998	19.996	100.166	19.895	8.081	0.518
1256.000	708.701	79.994	19.996	100.160	19.894	8.164	0.497
1264.000	712.880	79.998	19.996	100.179	19.890	8.492	0.554
1272.000	717.020	79.997	19.995	100.177	19.892	8.320	0.546
1280.000	721.030	79.995	19.994	100.167	19.894	8.205	0.516
1288.000	725.170	80.000	19.995	100.172	19.890	8.497	0.528
1296.000	729.156	79.997	19.994	100.177	19.889	8.567	0.482
1304.000	733.215	79.996	19.995	100.176	19.889	8.577	0.506
1312.000	737.222	79.996	19.995	100.184	19.885	8.853	0.504
1320.000	741.282	79.997	19.996	100.174	19.888	8.595	0.514
1328.000	745.293	79.994	19.995	100.169	19.888	8.614	0.485

File: PC_MCC_30K_min_210921_R2.txt
Sample ID:	C:\MCC\MCC Cal\Test\PC_MCC_30K_min_210921_R2.txt
Sample Weight (mg):	4.36
Heating Rate (C/s):	0.5
Combustor Temp (C):	900
N2 Flow Rate (cc/min):	80
O2 Flow Rate (cc/min):	20
Calibration File:	C:\MCC\MCC Cal\Coeff1 JN10440_30_210304.txt.txt
T Correction Coefficients:	0	1.024463	0
Time Shift (s):	14
*
Time (s)	Temperature (C)	N2 flow rate (cc/min)	O2 flow rate (cc/min)	Flow Rate (cc/min)	Oxygen (%)	HRR (W/g)	Heating rate (C/s)
0.000	107.454	79.997	19.996	100.111	19.986	-0.098	0.001
8.001	107.459	80.000	19.994	100.110	19.985	-0.025	-0.005
16.000	107.461	79.995	19.996	100.146	19.979	0.379	-0.009
24.000	107.659	79.996	19.997	100.251	19.958	1.902	0.051
32.001	108.362	79.997	19.994	100.315	19.947	2.711	0.093
40.000	109.572	79.996	19.995	100.340	19.937	3.448	0.164
48.001	111.372	79.995	19.994	100.355	19.939	3.257	0.220
56.000	113.492	79.996	19.996	100.357	19.936	3.494	0.287
64.001	115.967	79.998	19.994	100.362	19.930	3.953	0.317
72.000	118.709	79.998	19.995	100.389	19.933	3.717	0.355
80.000	121.752	79.998	19.995	100.385	19.929	3.970	0.375
88.000	125.012	80.001	19.994	100.389	19.927	4.129	0.401
96.000	128.465	79.998	19.995	100.391	19.932	3.792	0.437
104.000	132.054	79.997	19.996	100.389	19.929	3.984	0.474
112.000	135.750	79.996	19.995	100.389	19.927	4.165	0.467
120.000	139.495	79.998	19.995	100.392	19.931	3.836	0.467
128.000	143.357	79.996	19.994	100.379	19.927	4.111	0.489
136.000	147.297	79.999	19.994	100.387	19.930	3.936	0.477
144.000	151.276	79.999	19.994	100.382	19.931	3.863	0.498
152.000	155.185	79.997	19.995	100.362	19.936	3.464	0.497
160.000	159.121	79.998	19.994	100.362	19.938	3.375	0.515
168.000	163.013	79.999	19.995	100.357	19.933	3.721	0.465
176.000	167.008	79.997	19.996	100.353	19.935	3.557	0.499
184.000	170.877	79.997	19.995	100.351	19.933	3.744	0.506
192.000	174.768	79.998	19.997	100.362	19.935	3.576	0.504
200.000	178.626	79.996	19.995	100.351	19.935	3.543	0.500
208.000	182.496	79.997	19.995	100.348	19.937	3.416	0.505
216.000	186.393	79.997	19.996	100.339	19.938	3.378	0.505
224.000	190.215	79.998	19.996	100.341	19.941	3.142	0.482
232.000	194.050	79.998	19.996	100.322	19.942	3.082	0.505
240.000	197.821	79.998	19.995	100.343	19.946	2.770	0.488
248.000	201.594	80.000	19.994	100.336	19.943	2.977	0.479
256.000	205.431	79.998	19.994	100.337	19.945	2.881	0.479
264.000	209.314	79.995	19.997	100.327	19.942	3.037	0.502
272.000	213.149	79.996	19.996	100.322	19.944	2.905	0.493
280.000	217.008	79.997	19.995	100.317	19.944	2.931	0.493
288.000	220.809	79.996	19.997	100.330	19.939	3.298	0.460
296.000	224.660	79.996	19.997	100.321	19.943	2.985	0.452
304.000	228.591	79.996	19.995	100.315	19.945	2.816	0.511
312.000	232.514	79.997	19.995	100.324	19.946	2.772	0.493
320.000	236.474	79.997	19.994	100.318	19.945	2.865	0.469
328.000	240.420	79.999	19.995	100.315	19.948	2.665	0.483
336.000	244.355	79.999	19.994	100.313	19.947	2.696	0.492
344.000	248.305	79.998	19.995	100.312	19.946	2.810	0.499
352.000	252.269	79.995	19.996	100.310	19.946	2.758	0.477
360.000	256.222	79.996	19.997	100.312	19.948	2.665	0.529
368.000	260.165	79.996	19.995	100.314	19.949	2.553	0.484
376.000	264.181	79.997	19.996	100.313	19.952	2.381	0.497
384.000	268.258	79.997	19.997	100.314	19.947	2.696	0.474
392.000	272.376	79.996	19.995	100.312	19.945	2.822	0.489
400.000	276.479	79.998	19.994	100.307	19.945	2.874	0.482
408.000	280.608	79.999	19.994	100.309	19.946	2.764	0.532
416.000	284.686	79.998	19.995	100.305	19.949	2.597	0.499
424.000	288.764	79.997	19.995	100.302	19.947	2.690	0.520
432.000	292.861	79.997	19.994	100.302	19.948	2.653	0.528
440.000	296.931	79.997	19.994	100.299	19.948	2.636	0.485
448.000	301.012	79.995	19.996	100.308	19.950	2.462	0.518
456.000	305.104	79.996	19.996	100.290	19.951	2.396	0.520
464.000	309.130	79.997	19.995	100.293	19.945	2.835	0.496
472.000	313.271	79.998	19.995	100.276	19.948	2.632	0.512
480.000	317.315	79.997	19.996	100.294	19.949	2.529	0.495
488.000	321.447	79.998	19.995	100.280	19.953	2.307	0.534
496.000	325.511	79.998	19.995	100.286	19.949	2.588	0.535
504.000	329.737	79.996	19.996	100.302	19.949	2.543	0.517
512.000	333.962	79.996	19.995	100.298	19.949	2.537	0.527
520.000	338.196	79.998	19.995	100.299	19.949	2.583	0.505
528.000	342.458	79.996	19.995	100.289	19.950	2.487	0.543
536.000	346.556	79.996	19.996	100.277	19.951	2.425	0.532
544.000	350.750	79.998	19.996	100.277	19.949	2.579	0.534
552.000	354.853	79.998	19.995	100.271	19.954	2.173	0.516
560.000	358.929	79.996	19.997	100.275	19.955	2.140	0.533
568.000	362.935	79.997	19.996	100.273	19.952	2.314	0.507
576.000	366.938	79.997	19.996	100.274	19.950	2.502	0.452
584.000	370.881	79.997	19.996	100.273	19.949	2.560	0.528
592.000	374.844	79.996	19.996	100.272	19.953	2.293	0.495
600.000	378.796	79.995	19.994	100.272	19.948	2.628	0.517
608.000	382.771	79.996	19.995	100.271	19.945	2.883	0.496
616.000	386.742	79.996	19.995	100.271	19.944	2.941	0.517
624.000	390.799	79.997	19.995	100.275	19.946	2.782	0.521
632.000	394.910	79.996	19.996	100.273	19.945	2.825	0.510
640.000	399.002	79.997	19.995	100.274	19.946	2.761	0.487
648.000	403.098	79.999	19.996	100.273	19.946	2.800	0.505
656.000	407.193	79.998	19.996	100.270	19.943	2.964	0.502
664.000	411.300	79.998	19.996	100.265	19.939	3.256	0.531
672.000	415.285	79.997	19.996	100.273	19.939	3.299	0.484
680.000	419.376	79.997	19.995	100.267	19.929	3.971	0.513
688.000	423.349	79.995	19.995	100.273	19.920	4.652	0.476
696.000	427.383	79.996	19.995	100.272	19.908	5.532	0.498
704.000	431.372	79.997	19.995	100.278	19.885	7.172	0.489
712.000	435.427	80.000	19.994	100.280	19.859	9.052	0.544
720.000	439.410	79.997	19.997	100.283	19.820	11.803	0.496
728.000	443.497	79.998	19.995	100.304	19.766	15.734	0.518
736.000	447.593	80.000	19.995	100.310	19.703	20.199	0.503
744.000	451.664	79.997	19.996	100.320	19.624	25.849	0.510
752.000	455.743	79.996	19.997	100.300	19.625	25.855	0.516
760.000	459.882	79.997	19.994	100.398	19.633	25.256	0.497
768.000	463.981	79.997	19.994	100.377	19.364	44.658	0.511
776.000	468.141	79.998	19.995	100.323	19.359	44.931	0.554
784.000	472.273	80.000	19.996	100.407	19.034	68.438	0.533
792.000	476.420	79.998	19.995	100.443	19.005	70.278	0.532
800.000	480.508	79.999	19.996	100.363	18.780	86.796	0.489
808.000	484.547	80.000	19.995	100.596	18.745	88.984	0.486
816.000	488.586	79.999	19.995	100.307	18.643	96.620	0.514
824.000	492.597	79.996	19.994	100.612	18.668	94.663	0.484
832.000	496.681	79.996	19.996	100.489	18.387	114.929	0.527
840.000	500.833	79.996	19.995	100.427	18.345	118.170	0.503
848.000	504.941	79.997	19.995	100.585	18.129	133.543	0.522
856.000	508.960	79.996	19.995	100.521	17.697	164.759	0.528
864.000	512.946	79.997	19.995	100.627	17.481	180.340	0.484
872.000	517.022	79.999	19.995	100.639	17.352	189.611	0.508
880.000	521.146	79.997	19.995	100.637	17.327	191.246	0.501
888.000	525.330	79.999	19.993	100.593	17.479	180.225	0.559
896.000	529.518	79.999	19.995	100.539	17.827	155.061	0.538
904.000	533.720	79.997	19.995	100.460	18.298	121.116	0.535
912.000	537.933	79.997	19.995	100.385	18.790	85.766	0.514
920.000	542.155	79.996	19.996	100.316	19.168	58.579	0.567
928.000	546.199	79.997	19.996	100.278	19.423	40.258	0.502
936.000	550.271	79.996	19.996	100.261	19.588	28.488	0.512
944.000	554.341	79.997	19.995	100.238	19.682	21.682	0.530
952.000	558.388	79.999	19.994	100.237	19.749	16.900	0.542
960.000	562.459	79.998	19.994	100.237	19.787	14.206	0.491
968.000	566.549	79.999	19.995	100.232	19.811	12.446	0.506
976.000	570.625	80.001	19.994	100.222	19.825	11.466	0.559
984.000	574.750	79.997	19.997	100.216	19.839	10.485	0.571
992.000	578.753	79.998	19.996	100.215	19.848	9.780	0.521
1000.000	582.663	79.998	19.996	100.208	19.858	9.053	0.463
1008.000	586.574	79.997	19.996	100.220	19.867	8.465	0.487
1016.000	590.423	79.996	19.996	100.223	19.869	8.300	0.476
1024.000	594.266	79.996	19.995	100.220	19.875	7.840	0.527
1032.001	598.244	79.998	19.996	100.221	19.882	7.345	0.525
1040.000	602.224	79.997	19.994	100.204	19.889	6.847	0.511
1048.000	606.315	79.998	19.995	100.278	19.890	6.808	0.520
1056.000	610.608	80.001	19.994	100.210	19.892	6.676	0.551
1064.000	614.948	79.997	19.995	100.214	19.898	6.238	0.567
1072.000	619.289	79.999	19.995	100.220	19.894	6.525	0.527
1080.000	623.597	79.997	19.996	100.224	19.906	5.621	0.539
1088.000	627.813	79.998	19.995	100.203	19.904	5.780	0.542
1096.000	632.028	79.997	19.995	100.266	19.909	5.448	0.500
1104.000	636.179	79.999	19.997	100.203	19.909	5.459	0.524
1112.000	640.219	80.000	19.996	100.212	19.912	5.184	0.488
1120.000	644.245	79.997	19.995	100.205	19.917	4.878	0.514
1128.000	648.225	79.999	19.994	100.212	19.919	4.746	0.493
1136.000	652.242	80.001	19.995	100.213	19.926	4.230	0.495
1144.000	656.259	79.997	19.994	100.215	19.928	4.039	0.524
1152.000	660.278	79.999	19.996	100.198	19.929	4.004	0.495
1160.000	664.282	79.998	19.994	100.216	19.931	3.849	0.527
1168.000	668.266	79.997	19.996	100.225	19.926	4.186	0.511
1176.000	672.259	79.998	19.996	100.214	19.929	3.964	0.492
1184.000	676.387	79.999	19.995	100.214	19.932	3.801	0.498
1192.000	680.397	79.999	19.996	100.214	19.932	3.803	0.482
1200.000	684.340	79.997	19.997	100.229	19.929	3.972	0.507
1208.000	688.338	79.998	19.995	100.230	19.932	3.757	0.509
1216.000	692.408	80.000	19.995	100.236	19.930	3.945	0.521
1224.000	696.447	79.998	19.995	100.223	19.931	3.877	0.496
1232.000	700.493	79.996	19.994	100.228	19.930	3.918	0.510
1240.001	704.612	79.999	19.996	100.230	19.927	4.134	0.529
1248.000	708.758	79.996	19.995	100.233	19.924	4.351	0.495
1256.000	712.913	79.996	19.995	100.235	19.931	3.881	0.535
1264.000	716.954	79.998	19.997	100.235	19.929	3.999	0.499
1272.000	721.024	79.999	19.995	100.232	19.923	4.412	0.530
1280.000	725.006	79.999	19.994	100.240	19.926	4.227	0.490
1288.000	728.971	79.999	19.995	100.231	19.923	4.391	0.500
1296.000	733.015	80.001	19.994	100.232	19.926	4.210	0.519
1304.000	737.039	79.998	19.994	100.235	19.926	4.241	0.484
1312.001	741.191	79.999	19.995	100.236	19.922	4.508	0.522
1316.500	743.503	79.999	19.995	100.237	19.917	4.828	0.504