Folder: fsri_materials_database/01_Data/PUF_Mattress_Pad/MCC

Note: 01_Data/README.md
# Materials and Products Database
## 01_Data

Raw data generated from each apparatus are included here in plain-text format. The data is organized first by material, next by the short name of test apparatus used, and where applicable additional filtering by test settings.

### material.json

Each material directory contains a json file of the same name as the material. This file links the data stored in the repository as well as data and graphs produced by the accompanying scripts (__02_Scripts__) to the respective landing page for the material on the front-end website.

File: PUF_Mattress_Pad_MCC_30K_min_210110_R1.txt
Sample ID:	C:\MCC\MCC Cal\Test\PUF_Mattress_Pad_MCC_30K_min_211219_R1.txt
Sample Weight (mg):	4.45
Heating Rate (C/s):	0.5
Combustor Temp (C):	900
N2 Flow Rate (cc/min):	80
O2 Flow Rate (cc/min):	20
Calibration File:	C:\MCC\MCC Cal\Coeff1 JN10440_30_210304.txt.txt
T Correction Coefficients:	0	1.024463	0
Time Shift (s):	14
*
Time (s)	Temperature (C)	N2 flow rate (cc/min)	O2 flow rate (cc/min)	Flow Rate (cc/min)	Oxygen (%)	HRR (W/g)	Heating rate (C/s)
0.000	110.619	80.003	19.992	104.030	19.980	-0.066	-0.012
8.001	110.656	80.001	19.994	104.027	19.979	-0.042	0.024
16.000	110.651	80.001	19.995	104.037	19.976	0.170	-0.010
24.000	110.740	80.002	19.993	104.145	19.961	1.294	0.027
32.000	111.316	80.004	19.994	104.189	19.946	2.413	0.125
40.001	112.289	80.002	19.993	104.228	19.947	2.345	0.162
48.001	113.775	80.002	19.995	104.246	19.936	3.089	0.216
56.001	115.486	80.003	19.993	104.231	19.932	3.371	0.254
64.001	117.612	80.001	19.994	104.266	19.939	2.928	0.305
72.001	119.975	79.999	19.994	104.284	19.931	3.483	0.318
80.000	122.662	80.001	19.995	104.289	19.926	3.866	0.371
88.000	125.609	80.001	19.994	104.303	19.920	4.317	0.370
96.000	128.838	80.000	19.994	104.304	19.923	4.103	0.428
104.001	132.173	80.001	19.994	104.375	19.926	3.824	0.431
112.000	135.762	80.004	19.994	104.305	19.925	3.884	0.461
120.000	139.536	80.003	19.993	104.304	19.918	4.461	0.487
128.001	143.419	80.002	19.994	104.312	19.917	4.481	0.497
136.001	147.350	80.002	19.994	104.296	19.926	3.865	0.483
144.001	151.433	80.001	19.993	104.276	19.918	4.403	0.519
152.001	155.427	79.999	19.993	104.278	19.925	3.883	0.484
160.000	159.499	80.001	19.995	104.275	19.929	3.597	0.506
168.001	163.628	80.002	19.995	104.271	19.921	4.191	0.502
176.001	167.645	80.001	19.993	104.262	19.923	4.077	0.522
184.001	171.583	80.001	19.993	104.265	19.918	4.398	0.450
192.000	175.595	80.002	19.992	104.270	19.918	4.402	0.492
200.001	179.557	80.002	19.993	104.267	19.916	4.578	0.519
208.001	183.545	80.001	19.993	104.266	19.916	4.585	0.499
216.001	187.519	80.004	19.993	104.259	19.920	4.263	0.482
224.000	191.509	80.003	19.995	104.259	19.913	4.811	0.495
232.000	195.433	80.001	19.993	104.250	19.906	5.337	0.452
240.000	199.403	80.003	19.993	104.248	19.901	5.680	0.496
248.001	203.379	80.002	19.994	104.242	19.892	6.329	0.503
256.000	207.384	80.000	19.995	104.249	19.885	6.833	0.522
264.000	211.305	80.001	19.994	104.254	19.868	8.097	0.487
272.001	215.333	80.001	19.993	104.250	19.857	8.921	0.518
280.000	219.244	80.002	19.993	104.251	19.840	10.129	0.505
288.000	223.260	80.003	19.995	104.265	19.823	11.358	0.511
296.000	227.204	80.003	19.994	104.263	19.795	13.403	0.498
304.000	231.200	80.002	19.994	104.266	19.771	15.169	0.500
312.001	235.189	80.002	19.993	104.265	19.742	17.323	0.473
320.001	239.093	80.002	19.994	104.284	19.708	19.779	0.497
328.001	243.002	80.001	19.995	104.302	19.664	23.005	0.480
336.001	246.925	80.001	19.994	104.303	19.623	26.013	0.513
344.001	250.869	80.000	19.993	104.306	19.569	29.935	0.469
352.000	254.830	80.000	19.995	104.308	19.509	34.356	0.517
360.000	258.774	80.002	19.995	104.336	19.429	40.185	0.489
368.001	262.750	80.003	19.994	104.362	19.344	46.434	0.503
376.000	266.786	80.002	19.995	104.381	19.223	55.323	0.509
384.001	270.793	80.005	19.993	104.420	19.064	67.002	0.505
392.000	274.854	80.003	19.993	104.458	18.839	83.526	0.523
400.001	278.827	80.002	19.993	104.490	18.606	100.590	0.491
408.001	282.822	80.002	19.997	104.506	18.470	110.488	0.493
416.000	286.828	80.002	19.992	104.449	18.607	100.496	0.501
424.001	290.848	80.000	19.994	104.465	18.991	72.224	0.487
432.000	294.828	80.002	19.994	104.389	19.225	55.122	0.485
440.001	298.932	80.004	19.995	104.386	19.269	51.915	0.529
448.000	303.064	80.002	19.995	104.276	19.300	49.630	0.524
456.000	307.263	80.002	19.997	104.306	19.406	41.858	0.522
464.000	311.478	80.002	19.993	104.300	19.507	34.474	0.528
472.000	315.642	80.004	19.992	104.257	19.576	29.451	0.521
480.001	319.737	80.003	19.993	104.253	19.636	25.014	0.527
488.000	323.715	80.002	19.995	104.238	19.673	22.296	0.508
496.000	327.678	80.003	19.993	104.221	19.684	21.554	0.467
504.000	331.675	80.001	19.993	104.220	19.695	20.731	0.499
512.001	335.623	80.002	19.994	104.220	19.682	21.674	0.502
520.000	339.574	80.002	19.994	104.224	19.662	23.115	0.480
528.000	343.467	80.004	19.993	104.215	19.633	25.258	0.470
536.000	347.421	80.003	19.993	104.225	19.577	29.353	0.472
544.001	351.376	80.003	19.994	104.223	19.488	35.876	0.504
552.001	355.454	80.003	19.995	104.222	19.366	44.798	0.492
560.000	359.403	80.004	19.992	104.223	19.190	57.686	0.506
568.001	363.451	80.002	19.993	104.245	18.955	74.804	0.519
576.001	367.454	80.003	19.993	104.249	18.655	96.804	0.475
584.001	371.452	80.001	19.994	104.302	18.263	125.449	0.476
592.000	375.518	80.001	19.993	104.258	17.840	156.330	0.522
600.000	379.543	80.002	19.992	104.266	17.424	186.452	0.494
608.001	383.519	80.003	19.993	104.145	17.088	210.930	0.486
616.000	387.484	80.004	19.994	104.164	16.911	223.851	0.509
624.001	391.429	80.004	19.993	104.105	16.944	221.420	0.491
632.000	395.451	80.004	19.993	104.048	17.212	201.908	0.498
640.000	399.485	80.005	19.995	104.060	17.654	169.626	0.480
648.000	403.435	80.000	19.995	104.072	18.142	134.008	0.508
656.000	407.481	80.002	19.994	104.071	18.625	98.779	0.524
664.000	411.493	80.004	19.993	104.100	19.023	69.726	0.506
672.001	415.498	80.002	19.993	104.113	19.321	48.009	0.477
680.000	419.515	80.002	19.995	104.130	19.536	32.287	0.490
688.000	423.549	80.004	19.995	104.138	19.674	22.256	0.523
696.000	427.661	80.005	19.993	104.136	19.763	15.757	0.515
704.000	431.800	80.002	19.993	104.137	19.812	12.142	0.532
712.000	436.016	80.002	19.993	104.118	19.839	10.181	0.523
720.000	440.216	80.003	19.992	104.133	19.859	8.712	0.566
728.000	444.403	80.003	19.993	104.144	19.866	8.244	0.523
736.000	448.551	80.001	19.994	104.164	19.876	7.478	0.516
744.001	452.663	80.002	19.993	104.147	19.880	7.175	0.511
752.001	456.835	80.003	19.994	104.165	19.883	6.969	0.546
760.000	460.956	80.002	19.993	104.150	19.879	7.264	0.483
768.000	465.029	80.002	19.994	104.153	19.880	7.237	0.515
776.001	469.131	80.005	19.993	104.153	19.886	6.749	0.497
784.000	473.190	80.005	19.994	104.150	19.885	6.837	0.520
792.001	477.285	80.004	19.993	104.161	19.883	6.990	0.522
800.000	481.306	80.004	19.992	104.154	19.885	6.808	0.521
808.000	485.343	80.005	19.994	104.149	19.884	6.872	0.529
816.001	489.386	80.002	19.994	104.141	19.882	7.045	0.517
824.000	493.431	80.001	19.994	104.158	19.882	7.087	0.471
832.000	497.494	80.000	19.995	104.168	19.881	7.156	0.490
840.001	501.457	80.002	19.993	104.165	19.881	7.127	0.476
848.000	505.535	80.002	19.996	104.154	19.878	7.333	0.544
856.000	509.609	80.002	19.993	104.166	19.877	7.388	0.570
864.001	513.638	80.006	19.994	104.158	19.877	7.428	0.607
872.001	517.820	80.003	19.993	104.159	19.876	7.487	0.514
880.000	522.040	80.003	19.993	104.147	19.877	7.425	0.513
888.000	526.324	80.006	19.995	104.157	19.875	7.597	0.552
896.000	530.467	80.005	19.994	104.151	19.873	7.681	0.503
904.000	534.637	80.002	19.994	104.152	19.875	7.553	0.535
912.000	538.711	80.000	19.994	104.142	19.876	7.497	0.521
920.001	542.805	80.003	19.995	104.150	19.876	7.483	0.517
928.001	546.897	80.002	19.995	104.156	19.877	7.413	0.517
936.000	551.063	79.999	19.994	104.163	19.875	7.589	0.554
944.000	555.211	80.001	19.993	104.148	19.876	7.496	0.500
952.000	559.259	80.005	19.993	104.146	19.873	7.695	0.504
960.000	563.313	80.005	19.993	104.147	19.873	7.693	0.547
968.001	567.284	80.005	19.993	104.144	19.871	7.839	0.519
976.000	571.298	80.004	19.994	104.145	19.871	7.863	0.484
984.000	575.296	80.004	19.993	104.155	19.869	8.018	0.484
992.000	579.343	79.997	19.995	104.170	19.866	8.226	0.532
1000.000	583.458	80.002	19.994	104.165	19.865	8.270	0.513
1008.000	587.572	80.000	19.994	104.162	19.866	8.196	0.498
1016.000	591.744	80.002	19.994	104.154	19.866	8.245	0.514
1024.000	595.938	80.001	19.994	104.160	19.865	8.304	0.523
1032.000	600.132	80.001	19.994	104.143	19.866	8.198	0.520
1040.000	604.329	79.989	19.994	104.169	19.864	8.404	0.503
1048.000	608.516	79.987	19.996	104.161	19.861	8.564	0.474
1056.000	612.760	79.999	19.993	104.158	19.864	8.377	0.493
1064.001	616.948	79.997	19.994	104.160	19.864	8.349	0.509
1072.000	621.108	80.005	19.993	104.150	19.861	8.597	0.498
1080.000	625.235	80.017	19.993	104.150	19.860	8.648	0.551
1088.000	629.338	80.000	19.995	104.163	19.863	8.459	0.508
1096.000	633.650	80.013	19.992	104.151	19.859	8.744	0.579
1104.000	637.978	80.002	19.995	104.158	19.856	8.934	0.523
1112.000	642.233	80.002	19.993	104.157	19.862	8.491	0.544
1120.000	646.466	79.999	19.994	104.145	19.857	8.908	0.540
1128.001	650.744	80.009	19.994	104.156	19.856	8.961	0.481
1136.000	654.963	80.008	19.992	104.150	19.859	8.762	0.560
1144.000	659.090	80.008	19.993	104.152	19.854	9.067	0.471
1152.000	663.253	80.005	19.994	104.149	19.854	9.134	0.532
1160.001	667.294	80.003	19.993	104.149	19.853	9.139	0.488
1168.000	671.218	80.002	19.993	104.151	19.853	9.190	0.484
1176.000	675.183	80.002	19.993	104.150	19.852	9.210	0.517
1184.000	678.980	80.004	19.992	104.149	19.852	9.242	0.457
1192.000	682.879	80.001	19.994	104.150	19.850	9.417	0.484
1200.000	686.834	80.004	19.994	104.153	19.850	9.420	0.504
1208.001	690.884	80.005	19.994	104.164	19.851	9.322	0.502
1216.001	695.050	80.003	19.995	104.150	19.850	9.420	0.521
1224.001	699.258	80.006	19.994	104.148	19.849	9.457	0.533
1232.000	703.357	80.005	19.994	104.146	19.853	9.184	0.497
1240.000	707.376	80.003	19.994	104.164	19.854	9.070	0.486
1248.000	711.335	80.002	19.994	104.145	19.856	8.970	0.473
1256.001	715.084	80.002	19.993	104.148	19.850	9.386	0.483
1264.000	718.844	80.002	19.994	104.148	19.851	9.329	0.454
1272.001	722.543	80.004	19.994	104.162	19.851	9.307	0.479
1280.000	726.231	80.005	19.993	104.148	19.847	9.605	0.453
1288.000	730.135	80.000	19.998	104.146	19.850	9.359	0.497
1296.001	734.058	80.006	19.992	104.144	19.845	9.790	0.530
1304.000	737.943	80.004	19.993	104.153	19.845	9.775	0.496
1312.000	741.857	80.006	19.994	104.157	19.844	9.847	0.499
1315.500	743.607	80.004	19.990	104.149	19.841	10.034	0.534

File: PUF_Mattress_Pad_MCC_30K_min_220110_R2.txt
Sample ID:	C:\MCC\MCC Cal\Test\PUF_Mattress_Pad_MCC_30K_min_220110_R2.txt
Sample Weight (mg):	4.25
Heating Rate (C/s):	0.5
Combustor Temp (C):	900
N2 Flow Rate (cc/min):	80
O2 Flow Rate (cc/min):	20
Calibration File:	C:\MCC\MCC Cal\Coeff1 JN10440_30_210304.txt.txt
T Correction Coefficients:	0	1.024463	0
Time Shift (s):	14
*
Time (s)	Temperature (C)	N2 flow rate (cc/min)	O2 flow rate (cc/min)	Flow Rate (cc/min)	Oxygen (%)	HRR (W/g)	Heating rate (C/s)
0.000	110.936	80.011	19.990	104.074	20.052	-0.212	0.003
8.000	110.931	79.997	19.993	104.074	20.051	-0.101	0.016
16.000	111.013	80.014	19.992	104.116	20.039	0.789	0.029
24.000	111.317	80.001	19.994	104.196	20.024	1.943	0.090
32.001	112.087	80.003	19.993	104.268	20.014	2.711	0.135
40.001	113.367	80.003	19.993	104.280	20.007	3.270	0.195
48.000	115.133	80.002	19.995	104.300	20.004	3.466	0.260
56.000	117.189	80.003	19.994	104.327	19.998	3.973	0.269
64.000	119.615	80.005	19.993	104.312	20.001	3.731	0.326
72.001	122.409	80.005	19.993	104.328	20.001	3.684	0.366
80.000	125.508	80.008	19.992	104.371	19.998	3.955	0.393
88.000	128.739	80.004	19.996	104.327	20.001	3.759	0.404
96.000	132.119	80.002	19.996	104.324	20.001	3.721	0.455
104.000	135.625	80.002	19.997	104.317	20.002	3.636	0.420
112.000	139.242	80.004	19.993	104.318	20.002	3.650	0.436
120.000	142.977	80.003	19.994	104.332	20.003	3.601	0.533
128.000	146.657	80.005	19.994	104.325	20.001	3.747	0.440
136.000	150.488	80.004	19.994	104.320	19.998	3.940	0.496
144.000	154.301	80.004	19.994	104.312	19.995	4.145	0.509
152.000	158.164	80.004	19.994	104.307	19.995	4.182	0.456
160.001	162.126	80.005	19.994	104.303	20.002	3.631	0.516
168.000	166.164	80.007	19.993	104.304	19.998	3.964	0.514
176.001	170.122	80.004	19.992	104.306	19.995	4.168	0.501
184.000	174.132	80.004	19.992	104.303	19.993	4.352	0.496
192.000	178.069	80.004	19.992	104.301	19.998	3.968	0.504
200.001	182.077	80.006	19.993	104.296	19.994	4.253	0.483
208.000	186.106	80.003	19.993	104.289	19.990	4.532	0.517
216.000	190.085	80.004	19.995	104.296	19.988	4.742	0.503
224.000	193.974	80.006	19.993	104.278	19.985	4.954	0.505
232.001	197.901	80.005	19.996	104.287	19.978	5.495	0.470
240.000	201.898	80.004	19.994	104.270	19.972	5.938	0.486
248.000	205.845	80.005	19.993	104.282	19.966	6.416	0.483
256.001	209.797	80.005	19.993	104.272	19.955	7.271	0.464
264.000	213.773	80.003	19.993	104.296	19.940	8.393	0.508
272.001	217.765	80.004	19.992	104.289	19.924	9.604	0.497
280.000	221.750	80.004	19.993	104.295	19.906	11.004	0.519
288.000	225.727	80.005	19.993	104.300	19.882	12.801	0.483
296.001	229.724	80.004	19.993	104.294	19.862	14.350	0.512
304.001	233.725	80.006	19.994	104.298	19.832	16.664	0.495
312.000	237.776	80.007	19.993	104.309	19.798	19.249	0.496
320.000	241.743	80.005	19.993	104.310	19.757	22.396	0.504
328.000	245.783	80.006	19.993	104.341	19.717	25.487	0.493
336.000	249.822	80.006	19.994	104.346	19.661	29.810	0.538
344.000	253.895	80.003	19.994	104.344	19.600	34.478	0.511
352.001	257.921	80.004	19.994	104.378	19.528	39.945	0.521
360.000	261.916	80.005	19.993	104.377	19.446	46.290	0.526
368.000	265.881	80.006	19.994	104.405	19.350	53.613	0.467
376.000	269.850	80.004	19.993	104.420	19.233	62.606	0.499
384.000	273.832	80.005	19.994	104.472	19.072	75.019	0.483
392.001	277.819	80.006	19.992	104.504	18.867	90.777	0.525
400.000	281.815	80.005	19.992	104.526	18.672	105.601	0.511
408.000	285.755	80.006	19.994	104.497	18.690	104.259	0.494
416.000	289.739	80.006	19.993	104.455	19.057	76.083	0.471
424.000	293.861	80.005	19.995	104.440	19.333	54.891	0.508
432.000	297.945	80.003	19.994	104.381	19.425	47.817	0.558
440.000	302.132	80.004	19.994	104.340	19.400	49.769	0.555
448.001	306.472	80.005	19.995	104.357	19.484	43.354	0.555
456.000	310.746	80.003	19.993	104.339	19.597	34.623	0.550
464.001	314.995	80.003	19.994	104.305	19.680	28.283	0.527
472.000	319.192	80.007	19.994	104.294	19.733	24.236	0.546
480.000	323.299	80.005	19.994	104.271	19.762	22.047	0.502
488.000	327.404	80.006	19.991	104.260	19.779	20.724	0.498
496.000	331.545	80.008	19.992	104.254	19.785	20.282	0.536
504.001	335.638	80.006	19.993	104.258	19.774	21.118	0.490
512.000	339.666	80.005	19.994	104.255	19.756	22.484	0.486
520.000	343.664	80.004	19.993	104.255	19.715	25.573	0.481
528.001	347.612	80.005	19.992	104.255	19.657	30.067	0.474
536.000	351.654	80.005	19.994	104.250	19.565	37.068	0.496
544.000	355.705	80.004	19.993	104.258	19.438	46.803	0.485
552.000	359.744	80.007	19.993	104.263	19.249	61.301	0.527
560.000	363.740	80.007	19.993	104.263	19.015	79.181	0.499
568.000	367.689	80.005	19.993	104.294	18.702	103.167	0.477
576.001	371.631	80.006	19.993	104.304	18.338	131.040	0.461
584.000	375.562	80.006	19.993	104.270	17.951	160.574	0.503
592.001	379.384	80.004	19.992	104.269	17.576	189.205	0.468
600.000	383.229	80.003	19.994	104.183	17.316	208.986	0.498
608.000	387.106	80.005	19.994	104.142	17.215	216.664	0.473
616.000	391.023	80.005	19.994	104.113	17.307	209.605	0.553
624.000	395.017	80.003	19.993	104.104	17.588	188.153	0.537
632.000	399.063	80.003	19.994	104.127	17.984	157.891	0.499
640.000	403.157	80.006	19.994	104.096	18.436	123.336	0.492
648.000	407.272	80.007	19.993	104.105	18.859	90.981	0.508
656.001	411.418	80.005	19.993	104.114	19.212	64.036	0.545
664.001	415.487	80.007	19.993	104.144	19.484	43.221	0.519
672.000	419.525	80.007	19.994	104.145	19.675	28.647	0.537
680.000	423.590	80.006	19.993	104.151	19.807	18.526	0.503
688.000	427.711	80.006	19.994	104.163	19.889	12.268	0.480
696.000	431.424	80.004	19.993	104.149	19.935	8.774	0.609
704.001	435.735	80.005	19.994	104.181	19.959	6.959	0.703
712.001	439.665	80.003	19.994	104.182	19.978	5.477	0.476
720.000	443.583	80.005	19.993	104.183	19.985	4.945	0.511
728.000	447.543	80.005	19.994	104.177	19.992	4.381	0.497
736.000	451.549	80.004	19.994	104.180	19.992	4.417	0.498
744.000	455.549	80.007	19.995	104.181	19.996	4.092	0.501
752.000	459.597	80.007	19.992	104.186	19.994	4.285	0.486
760.001	463.817	80.004	19.993	104.191	19.996	4.122	0.502
768.000	468.051	80.005	19.993	104.189	20.001	3.716	0.537
776.000	472.281	80.005	19.993	104.189	20.000	3.819	0.514
784.001	476.450	80.005	19.993	104.185	19.996	4.100	0.515
792.001	480.430	80.004	19.994	104.180	20.000	3.811	0.496
800.000	484.365	80.007	19.994	104.182	19.996	4.127	0.529
808.000	488.322	80.007	19.994	104.183	19.995	4.142	0.484
816.001	492.381	80.006	19.993	104.182	19.994	4.225	0.523
824.001	496.508	80.005	19.995	104.180	19.995	4.173	0.521
832.000	500.579	80.007	19.993	104.184	19.997	4.046	0.487
840.001	504.697	80.006	19.993	104.187	19.998	3.970	0.491
848.000	508.825	80.005	19.994	104.185	20.003	3.584	0.523
856.000	512.787	80.005	19.993	104.188	20.000	3.811	0.509
864.000	516.826	80.005	19.994	104.179	19.995	4.178	0.520
872.000	520.876	80.004	19.994	104.174	19.997	4.050	0.486
880.000	524.921	80.006	19.995	104.183	19.997	4.046	0.527
888.000	528.929	80.005	19.994	104.184	19.997	4.044	0.508
896.001	533.108	80.007	19.994	104.198	19.999	3.895	0.524
904.001	537.479	80.005	19.994	104.190	19.997	3.996	0.571
912.000	541.872	80.007	19.994	104.191	19.997	3.998	0.545
920.000	546.285	80.005	19.994	104.191	19.997	4.050	0.554
928.001	550.704	80.004	19.995	104.187	19.997	4.021	0.528
936.000	555.051	80.002	19.994	104.191	19.999	3.878	0.561
944.000	559.280	80.004	19.995	104.184	20.001	3.744	0.525
952.000	563.427	80.004	19.994	104.185	19.998	3.922	0.490
960.000	567.507	80.003	19.994	104.182	19.994	4.251	0.524
968.000	571.467	80.006	19.994	104.180	20.001	3.689	0.504
976.000	575.444	80.005	19.994	104.183	19.997	4.040	0.499
984.000	579.383	80.005	19.995	104.185	19.999	3.865	0.506
992.000	583.286	80.007	19.995	104.185	19.994	4.259	0.482
1000.000	587.200	80.007	19.994	104.180	19.997	4.054	0.480
1008.000	591.226	80.004	19.996	104.183	19.996	4.127	0.482
1016.001	595.258	80.004	19.995	104.188	19.992	4.387	0.510
1024.001	599.289	80.005	19.994	104.178	19.991	4.478	0.501
1032.000	603.370	80.005	19.994	104.185	19.995	4.146	0.516
1040.000	607.463	80.004	19.993	104.186	19.989	4.641	0.548
1048.001	611.587	80.004	19.994	104.185	19.993	4.307	0.520
1056.001	615.747	80.007	19.994	104.198	19.995	4.199	0.545
1064.000	619.913	80.006	19.992	104.186	19.993	4.307	0.517
1072.000	624.071	80.006	19.994	104.182	19.995	4.184	0.519
1080.001	628.244	80.007	19.995	104.176	19.990	4.559	0.512
1088.000	632.367	80.007	19.994	104.174	19.988	4.687	0.534
1096.000	636.501	80.006	19.993	104.182	19.988	4.733	0.497
1104.000	640.677	80.005	19.995	104.183	19.988	4.708	0.553
1112.001	644.726	80.003	19.995	104.171	19.990	4.557	0.510
1120.000	648.758	80.005	19.994	104.180	19.992	4.385	0.491
1128.000	652.761	80.004	19.993	104.174	19.992	4.419	0.499
1136.000	656.718	80.006	19.994	104.180	19.991	4.475	0.490
1144.001	660.706	80.005	19.994	104.178	19.988	4.712	0.467
1152.000	664.686	80.006	19.994	104.177	19.989	4.632	0.484
1160.001	668.639	80.008	19.993	104.169	19.990	4.570	0.486
1168.000	672.626	80.008	19.993	104.173	19.991	4.456	0.503
1176.001	676.653	80.004	19.993	104.182	19.990	4.553	0.516
1184.001	680.666	80.004	19.993	104.184	19.989	4.618	0.519
1192.000	684.689	80.005	19.994	104.184	19.992	4.400	0.537
1200.001	688.771	80.005	19.995	104.178	19.990	4.584	0.540
1208.001	692.811	80.004	19.995	104.180	19.992	4.414	0.497
1216.001	696.942	80.007	19.994	104.175	19.986	4.879	0.506
1224.000	701.033	80.007	19.993	104.177	19.990	4.563	0.529
1232.000	705.072	80.006	19.993	104.175	19.986	4.861	0.469
1240.001	709.071	80.006	19.993	104.167	19.988	4.674	0.494
1248.000	713.001	80.007	19.993	104.181	19.987	4.798	0.507
1256.001	716.958	80.005	19.994	104.183	19.986	4.871	0.458
1264.001	720.891	80.005	19.993	104.179	19.985	4.922	0.503
1272.000	724.930	80.005	19.994	104.182	19.982	5.184	0.548
1280.000	729.190	80.006	19.994	104.185	19.978	5.469	0.571
1288.000	733.648	80.005	19.994	104.185	19.981	5.219	0.581
1296.000	738.037	80.004	19.994	104.184	19.986	4.877	0.559
1304.000	742.271	80.005	19.994	104.164	19.986	4.859	0.521
1306.500	743.554	80.005	19.994	104.176	19.982	5.146	0.475