Folder: fsri_materials_database/01_Data/PUF_Mattress_Pad/MCC (part 2)

File: PUF_Mattress_Pad_MCC_30K_min_220110_R3.txt
Sample ID:	C:\MCC\MCC Cal\Test\PUF_Mattress_Pad_MCC_30K_min_220110_R3.txt
Sample Weight (mg):	4.96
Heating Rate (C/s):	0.5
Combustor Temp (C):	900
N2 Flow Rate (cc/min):	80
O2 Flow Rate (cc/min):	20
Calibration File:	C:\MCC\MCC Cal\Coeff1 JN10440_30_210304.txt.txt
T Correction Coefficients:	0	1.024463	0
Time Shift (s):	14
*
Time (s)	Temperature (C)	N2 flow rate (cc/min)	O2 flow rate (cc/min)	Flow Rate (cc/min)	Oxygen (%)	HRR (W/g)	Heating rate (C/s)
0.000	110.552	80.004	19.994	104.064	20.137	-0.097	-0.021
8.000	110.567	80.003	19.994	104.063	20.134	0.045	0.030
15.999	110.540	80.001	19.995	104.064	20.130	0.340	0.000
23.999	110.610	80.000	19.997	104.169	20.120	1.010	0.030
31.999	111.125	80.007	19.995	104.234	20.101	2.235	0.115
40.000	112.069	80.004	19.995	104.227	20.103	2.135	0.123
47.999	113.354	80.004	19.994	104.244	20.103	2.110	0.183
56.000	114.882	80.005	19.995	104.260	20.096	2.590	0.188
64.000	116.737	80.005	19.993	104.255	20.096	2.541	0.254
71.999	118.771	80.006	19.993	104.263	20.098	2.461	0.275
79.999	120.980	80.004	19.995	104.267	20.097	2.517	0.323
87.999	123.402	80.005	19.996	104.289	20.095	2.647	0.315
96.000	126.079	80.005	19.994	104.299	20.091	2.902	0.346
104.000	128.945	80.002	19.995	104.301	20.090	2.986	0.380
112.000	131.972	80.003	19.996	104.317	20.089	3.054	0.418
119.999	135.155	80.005	19.995	104.316	20.089	3.011	0.410
127.999	138.568	80.005	19.994	104.333	20.092	2.856	0.442
136.000	142.130	80.006	19.995	104.331	20.089	3.022	0.454
144.000	145.824	80.004	19.997	104.329	20.089	3.048	0.474
152.000	149.621	80.004	19.994	104.325	20.085	3.259	0.472
159.999	153.460	80.005	19.994	104.326	20.086	3.237	0.473
168.000	157.379	80.004	19.993	104.325	20.089	2.998	0.489
176.000	161.334	80.002	19.993	104.303	20.087	3.134	0.522
184.000	165.329	80.003	19.996	104.310	20.085	3.274	0.492
192.000	169.325	80.005	19.994	104.299	20.088	3.093	0.483
199.999	173.333	80.006	19.994	104.295	20.090	2.979	0.501
207.999	177.440	80.005	19.997	104.295	20.091	2.918	0.494
215.999	181.382	80.005	19.995	104.295	20.086	3.238	0.469
224.000	185.450	80.005	19.993	104.296	20.081	3.519	0.489
231.999	189.424	80.004	19.994	104.290	20.076	3.894	0.524
240.000	193.369	80.003	19.994	104.298	20.072	4.130	0.500
248.000	197.265	80.004	19.994	104.280	20.068	4.403	0.458
255.999	201.214	80.004	19.993	104.275	20.060	4.956	0.474
264.000	205.175	80.005	19.994	104.278	20.048	5.689	0.482
272.000	209.121	80.004	19.994	104.279	20.038	6.351	0.522
279.999	213.035	80.006	19.993	104.292	20.024	7.303	0.506
287.999	217.034	80.005	19.994	104.282	20.004	8.587	0.531
296.000	220.983	80.004	19.995	104.296	19.985	9.855	0.502
304.000	224.960	80.006	19.994	104.298	19.963	11.281	0.507
312.000	228.939	80.005	19.994	104.298	19.940	12.808	0.504
320.000	232.955	80.004	19.994	104.297	19.908	14.900	0.506
328.000	236.962	80.003	19.995	104.307	19.873	17.198	0.496
335.999	240.924	80.003	19.993	104.314	19.834	19.759	0.514
344.000	244.917	80.005	19.994	104.331	19.780	23.324	0.488
351.999	248.866	80.004	19.993	104.340	19.723	27.024	0.481
360.000	252.951	80.005	19.994	104.354	19.659	31.237	0.534
368.000	256.937	80.003	19.995	104.370	19.581	36.380	0.464
376.000	260.933	80.005	19.994	104.377	19.490	42.388	0.482
384.000	264.922	80.005	19.995	104.411	19.391	48.903	0.493
392.000	268.924	80.004	19.995	104.424	19.273	56.640	0.490
400.000	272.947	80.004	19.994	104.452	19.133	65.837	0.491
408.000	276.948	80.003	19.994	104.490	18.964	76.995	0.495
415.999	280.935	80.005	19.993	104.533	18.780	89.102	0.478
424.000	284.927	80.004	19.994	104.529	18.664	96.691	0.453
432.000	288.920	80.004	19.994	104.482	18.823	86.220	0.508
440.000	292.907	80.006	19.993	104.469	19.145	65.045	0.510
448.000	296.900	80.005	19.994	104.416	19.364	50.625	0.510
455.999	300.910	80.005	19.996	104.381	19.419	46.974	0.504
464.000	305.075	80.007	19.994	104.340	19.449	45.008	0.530
472.000	309.260	80.006	19.993	104.342	19.519	40.407	0.523
480.000	313.472	80.003	19.994	104.327	19.645	32.164	0.536
488.000	317.583	80.004	19.995	104.306	19.739	25.950	0.514
496.000	321.722	80.005	19.995	104.288	19.794	22.368	0.522
503.999	325.822	80.005	19.995	104.261	19.822	20.508	0.502
512.000	329.828	80.004	19.995	104.256	19.835	19.672	0.501
519.999	333.750	80.006	19.993	104.251	19.831	19.923	0.482
528.000	337.679	80.005	19.995	104.242	19.821	20.592	0.465
536.000	341.581	80.007	19.994	104.242	19.796	22.254	0.496
544.000	345.479	80.006	19.994	104.249	19.751	25.159	0.496
552.000	349.395	80.007	19.993	104.251	19.682	29.717	0.519
560.000	353.411	80.004	19.994	104.248	19.577	36.591	0.485
568.000	357.392	80.003	19.993	104.261	19.432	46.121	0.503
576.000	361.390	80.006	19.995	104.273	19.216	60.274	0.519
584.000	365.341	80.004	19.994	104.287	18.910	80.401	0.505
592.000	369.312	80.004	19.994	104.311	18.532	105.212	0.503
599.999	373.369	80.006	19.994	104.301	18.092	134.021	0.510
608.000	377.371	80.006	19.992	104.288	17.631	164.212	0.512
616.000	381.414	80.005	19.993	104.237	17.189	193.055	0.488
624.000	385.603	80.005	19.995	104.183	16.861	214.349	0.500
632.000	389.742	80.009	19.992	104.109	16.731	222.833	0.500
640.000	393.901	80.004	19.994	104.095	16.881	213.081	0.503
648.000	398.021	80.003	19.995	104.085	17.292	186.165	0.511
656.000	402.089	80.005	19.995	104.103	17.833	150.705	0.484
664.000	406.155	80.003	19.994	104.088	18.393	114.085	0.514
672.000	410.144	80.002	19.994	104.080	18.899	80.994	0.528
680.000	414.166	80.005	19.995	104.127	19.296	54.956	0.491
687.999	418.257	80.005	19.993	104.147	19.587	35.933	0.509
696.000	422.348	80.004	19.994	104.146	19.787	22.807	0.490
704.000	426.402	80.007	19.994	104.158	19.918	14.220	0.468
712.000	430.556	80.007	19.994	104.177	19.996	9.136	0.519
720.000	434.615	80.005	19.993	104.145	20.037	6.419	0.523
727.999	438.703	80.004	19.995	104.166	20.066	4.501	0.508
736.000	442.758	80.005	19.994	104.158	20.083	3.429	0.507
743.999	446.805	80.005	19.994	104.146	20.094	2.722	0.489
752.000	450.848	80.004	19.995	104.148	20.102	2.188	0.468
760.000	454.895	80.004	19.995	104.154	20.104	2.065	0.511
768.000	458.927	80.007	19.996	104.167	20.107	1.857	0.510
776.000	462.921	80.006	19.994	104.174	20.112	1.512	0.481
784.000	466.870	80.007	19.994	104.172	20.110	1.645	0.472
792.000	470.927	80.008	19.993	104.174	20.111	1.550	0.490
800.000	474.993	80.006	19.994	104.167	20.111	1.595	0.493
808.000	479.029	80.005	19.993	104.171	20.114	1.392	0.509
816.000	482.969	80.005	19.994	104.180	20.113	1.476	0.501
823.999	486.890	80.004	19.993	104.178	20.113	1.435	0.467
832.000	490.940	80.004	19.995	104.181	20.111	1.550	0.511
840.000	495.084	80.005	19.994	104.171	20.113	1.457	0.525
848.000	499.174	80.007	19.994	104.178	20.110	1.618	0.539
856.000	503.235	80.005	19.995	104.180	20.109	1.713	0.519
864.000	507.326	80.004	19.995	104.174	20.113	1.421	0.501
872.000	511.498	80.007	19.993	104.173	20.118	1.124	0.539
880.000	515.626	80.005	19.993	104.178	20.116	1.279	0.524
887.999	519.912	80.004	19.995	104.186	20.107	1.837	0.538
895.999	524.478	80.004	19.994	104.182	20.112	1.543	0.556
904.000	529.175	80.004	19.994	104.181	20.114	1.392	0.578
912.000	534.030	80.006	19.992	104.181	20.115	1.311	0.619
920.000	538.881	80.003	19.995	104.182	20.114	1.363	0.616
928.000	543.704	80.006	19.993	104.185	20.114	1.414	0.630
936.000	548.453	80.005	19.994	104.177	20.117	1.164	0.589
944.000	553.171	80.004	19.994	104.182	20.116	1.259	0.585
952.000	557.853	80.007	19.995	104.179	20.114	1.392	0.546
960.000	562.440	80.006	19.994	104.174	20.118	1.101	0.558
968.000	566.942	80.003	19.993	104.158	20.114	1.388	0.555
976.000	571.023	80.006	19.994	104.162	20.114	1.384	0.618
984.000	576.094	80.005	19.994	104.160	20.112	1.483	0.268
991.999	580.367	80.005	19.994	104.180	20.114	1.365	0.603
1000.000	584.763	80.006	19.993	104.175	20.110	1.647	0.507
1008.000	589.286	80.006	19.993	104.170	20.111	1.587	0.573
1016.000	593.787	80.006	19.994	104.179	20.111	1.609	0.557
1023.999	598.297	80.006	19.994	104.158	20.112	1.519	0.540
1032.000	602.676	80.007	19.993	104.167	20.110	1.636	0.544
1039.999	607.017	80.005	19.993	104.164	20.112	1.516	0.567
1048.000	611.407	80.003	19.995	104.165	20.117	1.187	0.551
1056.000	615.681	80.006	19.992	104.157	20.115	1.318	0.567
1064.000	619.930	80.004	19.994	104.165	20.116	1.277	0.558
1072.000	624.072	80.004	19.993	104.170	20.115	1.320	0.530
1080.000	628.251	80.003	19.994	104.160	20.112	1.524	0.525
1088.000	632.274	80.005	19.994	104.159	20.117	1.155	0.476
1095.999	636.260	80.006	19.994	104.150	20.116	1.264	0.475
1104.000	640.122	80.005	19.995	104.153	20.115	1.293	0.471
1112.000	643.995	80.005	19.994	104.149	20.116	1.246	0.489
1119.999	647.876	80.008	19.993	104.151	20.117	1.173	0.498
1128.000	651.795	80.004	19.994	104.150	20.113	1.480	0.515
1136.000	655.726	80.003	19.994	104.161	20.109	1.725	0.511
1144.000	659.696	80.005	19.995	104.167	20.114	1.411	0.509
1152.000	663.754	80.004	19.994	104.149	20.109	1.699	0.616
1160.000	667.738	80.004	19.993	104.163	20.111	1.553	0.475
1168.000	671.779	80.006	19.994	104.144	20.114	1.354	0.501
1175.999	675.876	80.007	19.994	104.145	20.113	1.419	0.531
1184.000	679.855	80.006	19.992	104.146	20.113	1.476	0.479
1191.999	683.912	80.007	19.992	104.154	20.112	1.499	0.510
1200.000	687.916	80.006	19.994	104.148	20.111	1.600	0.511
1207.999	691.824	80.004	19.994	104.154	20.112	1.492	0.489
1216.000	696.055	80.004	19.994	104.158	20.107	1.819	0.517
1224.000	700.359	80.005	19.994	104.166	20.108	1.777	0.560
1232.000	704.604	80.004	19.995	104.145	20.108	1.760	0.508
1240.000	708.722	80.003	19.994	104.148	20.112	1.515	0.518
1248.000	712.654	80.005	19.994	104.148	20.110	1.638	0.483
1256.000	716.588	80.006	19.993	104.147	20.110	1.668	0.502
1264.000	720.342	80.006	19.993	104.147	20.112	1.483	0.451
1272.000	724.130	80.007	19.994	104.150	20.109	1.679	0.463
1279.999	727.876	80.007	19.993	104.143	20.113	1.480	0.442
1288.000	731.758	80.005	19.994	104.154	20.108	1.781	0.524
1296.000	735.780	80.004	19.994	104.152	20.108	1.765	0.478
1304.000	739.975	80.006	19.995	104.167	20.106	1.885	0.508
1310.500	743.402	80.006	19.994	104.146	20.106	1.882	0.515