Folder: fsri_materials_database/01_Data/Feather_PillowB_Feathers/STA/N2/10K_min

Note: 01_Data/README.md
# Materials and Products Database
## 01_Data

Raw data generated from each apparatus are included here in plain-text format. The data is organized first by material, next by the short name of test apparatus used, and where applicable additional filtering by test settings.

### material.json

Each material directory contains a json file of the same name as the material. This file links the data stored in the repository as well as data and graphs produced by the accompanying scripts (__02_Scripts__) to the respective landing page for the material on the front-end website.

File: Feather_Pillow_Feathers_STA_N2_10KData_2216_R1.csv
##Temp./Â°C,Time/min,Mass loss(subtr.2)/mg,DSC(subtr.2)/(mW/mg),Sensit./(uV/mW)
49.516,10.00917,-0.0178,0.03662651,1.07023
52.716,11.3222,-0.0161915,0.14883,1.06935
55.916,11.77621,-0.01649518,0.20846,1.06845
59.116,12.16392,-0.01738016,0.24383,1.06755
62.316,12.52741,-0.01841624,0.27143,1.06664
65.516,12.87857,-0.02104262,0.29705,1.06571
68.716,13.2233,-0.02241092,0.31928,1.06477
71.916,13.5648,-0.02503897,0.34502,1.06383
75.116,13.9016,-0.02721048,0.36455,1.06287
78.316,14.23426,-0.03004105,0.38231,1.0619
81.516,14.5629,-0.03422195,0.39869,1.06092
84.716,14.8896,-0.03821011,0.4079,1.05994
87.916,15.2134,-0.04097861,0.40945,1.05894
91.116,15.5335,-0.04282953,0.40781,1.05792
94.316,15.852,-0.04677,0.39968,1.0569
97.516,16.1678,-0.04940999,0.39046,1.05587
100.716,16.48285,-0.05171002,0.37784,1.05483
103.916,16.7958,-0.05367718,0.36311,1.05377
107.116,17.10848,-0.055,0.34654,1.05271
110.316,17.421,-0.0563199,0.332,1.05163
113.516,17.73268,-0.05668268,0.31827,1.05054
116.716,18.0438,-0.05764001,0.30513,1.04944
119.916,18.35415,-0.05764,0.29843,1.04833
123.116,18.66489,-0.0579632,0.28966,1.04721
126.316,18.97391,-0.05896692,0.28515,1.04608
129.516,19.28332,-0.05754367,0.28154,1.04494
132.716,19.59222,-0.05901023,0.28144,1.04378
135.916,19.90079,-0.05730999,0.28165,1.04262
139.116,20.20863,-0.05896144,0.2807,1.04144
142.316,20.51685,-0.05762345,0.28124,1.04025
145.516,20.82488,-0.05695823,0.28501,1.03905
148.716,21.13225,-0.05829139,0.28539,1.03784
151.916,21.43853,-0.05700557,0.28771,1.03662
155.116,21.7459,-0.05698018,0.29118,1.03539
158.316,22.05157,-0.05830044,0.29464,1.03414
161.516,22.3576,-0.05532232,0.29905,1.03289
164.716,22.6631,-0.0560018,0.30164,1.03162
167.916,22.96823,-0.05632991,0.30606,1.03034
171.116,23.2739,-0.0560148,0.30846,1.02905
174.316,23.57924,-0.05731,0.31294,1.02774
177.516,23.88458,-0.05797003,0.31561,1.02643
180.716,24.18936,-0.05731193,0.32344,1.0251
183.916,24.49493,-0.05896001,0.32669,1.02377
187.116,24.7999,-0.05929137,0.33077,1.02242
190.316,25.1041,-0.06068304,0.33743,1.02105
193.516,25.4097,-0.06195924,0.34597,1.01968
196.716,25.7149,-0.06324,0.35718,1.0183
199.916,26.01989,-0.06456,0.36949,1.0169
203.116,26.3247,-0.06488952,0.38394,1.01549
206.316,26.62896,-0.06883997,0.40504,1.01407
209.516,26.93327,-0.07181136,0.42979,1.01264
212.716,27.2379,-0.07543012,0.46122,1.01119
215.916,27.5433,-0.0806975,0.5079,1.00974
219.116,27.8491,-0.08728956,0.57441,1.00827
222.316,28.1544,-0.09669748,0.66629,1.00679
225.516,28.4594,-0.10793,0.76868,1.0053
228.716,28.76476,-0.12143,0.84601,1.00379
231.916,29.0707,-0.13939,0.86074,1.00228
235.116,29.37555,-0.15949,0.83413,1.00075
238.316,29.6788,-0.17836,0.79362,0.99921
241.516,29.9836,-0.19751,0.76077,0.99765
244.716,30.2876,-0.21611,0.74067,0.99609
247.916,30.5921,-0.23742,0.73744,0.99451
251.116,30.89654,-0.25695,0.74436,0.99292
254.316,31.2012,-0.27959,0.75389,0.99132
257.516,31.50585,-0.30325,0.76264,0.98971
260.716,31.81059,-0.32976,0.77262,0.98808
263.916,32.115,-0.35524,0.7833,0.98644
267.116,32.41955,-0.38538,0.79027,0.98479
270.316,32.7241,-0.41471,0.79555,0.98313
273.516,33.02877,-0.44599,0.80309,0.98145
276.716,33.33428,-0.47879,0.81257,0.97976
279.916,33.63921,-0.51402,0.82756,0.97806
283.116,33.94437,-0.55159,0.84293,0.97635
286.316,34.25054,-0.59178,0.85545,0.97462
289.516,34.55604,-0.63339,0.8647,0.97289
292.716,34.86162,-0.67803,0.86917,0.97114
295.916,35.167,-0.72689,0.86542,0.96937
299.116,35.47285,-0.77611,0.8553,0.9676
302.316,35.77742,-0.8281,0.83645,0.96581
305.516,36.08376,-0.88186,0.79265,0.96401
308.716,36.38933,-0.931,0.73189,0.9622
311.916,36.69462,-0.98355,0.72626,0.96037
315.116,37.00114,-1.04072,0.7579,0.95854
318.316,37.30802,-1.10165,0.77385,0.95669
321.516,37.6154,-1.17413,0.81779,0.95482
324.716,37.9227,-1.24627,0.79053,0.95295
327.916,38.23012,-1.31817,0.76646,0.95106
331.116,38.5372,-1.38867,0.76651,0.94916
334.316,38.84483,-1.46267,0.74971,0.94725
337.516,39.15234,-1.53551,0.74083,0.94532
340.716,39.4604,-1.60545,0.72432,0.94338
343.916,39.7684,-1.67169,0.6809,0.94143
347.116,40.07462,-1.73707,0.62888,0.93947
350.316,40.38173,-1.79569,0.597,0.9375
353.516,40.69112,-1.84816,0.55639,0.93551
356.716,40.99964,-1.90032,0.52449,0.93351
359.916,41.30876,-1.94577,0.48691,0.9315
363.116,41.61779,-1.98829,0.45355,0.92947
366.316,41.92604,-2.02728,0.42269,0.92743
369.516,42.2357,-2.06135,0.40291,0.92538
372.716,42.54497,-2.09687,0.38784,0.92332
375.916,42.85457,-2.12827,0.36742,0.92125
379.116,43.16403,-2.15783,0.34763,0.91916
382.316,43.4741,-2.18551,0.33499,0.91706
385.516,43.78494,-2.21182,0.32437,0.91495
388.716,44.09595,-2.23694,0.31284,0.91282
391.916,44.40696,-2.26147,0.30183,0.91069
395.116,44.71745,-2.28426,0.29316,0.90854
398.316,45.02878,-2.3028,0.28521,0.90638
401.516,45.34005,-2.3252,0.27848,0.9042
404.716,45.65041,-2.34315,0.27129,0.90202
407.916,45.96161,-2.36306,0.26478,0.89982
411.116,46.2723,-2.37975,0.25664,0.89761
414.316,46.58377,-2.39465,0.25216,0.89539
417.516,46.89475,-2.4103,0.24261,0.89315
420.716,47.20612,-2.42493,0.22977,0.8909
423.916,47.51828,-2.44151,0.21845,0.88865
427.116,47.83052,-2.45337,0.21038,0.88638
430.316,48.14312,-2.46512,0.2039,0.88409
433.516,48.4557,-2.47906,0.20105,0.8818
436.716,48.76795,-2.49142,0.2011,0.87949
439.916,49.0798,-2.50286,0.20076,0.87717
443.116,49.3917,-2.51445,0.19942,0.87484
446.316,49.70449,-2.52697,0.19732,0.8725
449.516,50.0174,-2.53653,0.19032,0.87015
452.716,50.3308,-2.54594,0.18453,0.86778
455.916,50.64512,-2.5563,0.1771,0.86541
459.116,50.95874,-2.56499,0.17396,0.86302
462.316,51.27275,-2.57284,0.1695,0.86062
465.516,51.58761,-2.58226,0.16106,0.85821
468.716,51.90234,-2.59137,0.1561,0.85578
471.916,52.21666,-2.59916,0.14814,0.85335
475.116,52.5314,-2.60791,0.13793,0.8509
478.316,52.84633,-2.61383,0.13571,0.84845
481.516,53.16126,-2.6204,0.13481,0.84598
484.716,53.4764,-2.627,0.13197,0.8435
487.916,53.79099,-2.63328,0.12997,0.84101
491.116,54.1061,-2.63986,0.1271,0.8385
494.316,54.422,-2.64509,0.12334,0.83599
497.516,54.7372,-2.65105,0.12066,0.83347
500.716,55.0536,-2.65631,0.11625,0.83093
503.916,55.36931,-2.66094,0.11541,0.82839
507.116,55.68428,-2.6662,0.11342,0.82583
510.316,56.0011,-2.67016,0.1119,0.82327
513.516,56.31605,-2.67543,0.11497,0.82069
516.716,56.6314,-2.67937,0.1142,0.8181
519.916,56.9475,-2.68333,0.1153,0.8155
523.116,57.2647,-2.68524,0.11335,0.81289
526.316,57.58155,-2.69125,0.11398,0.81028
529.516,57.8989,-2.69517,0.11481,0.80765
532.716,58.2156,-2.69591,0.11633,0.80501
535.916,58.53205,-2.6998,0.11488,0.80236
539.116,58.8489,-2.70408,0.11431,0.7997
542.316,59.1661,-2.70605,0.11867,0.79703
545.516,59.483,-2.70935,0.12176,0.79435
548.716,59.8018,-2.71103,0.12183,0.79166
551.916,60.12025,-2.71373,0.12633,0.78896
555.116,60.4385,-2.71726,0.13502,0.78626
558.316,60.7571,-2.71855,0.1384,0.78354
561.516,61.07476,-2.72188,0.14127,0.78081
564.716,61.39271,-2.7245,0.14356,0.77808
567.916,61.7096,-2.72713,0.14819,0.77533
571.116,62.0275,-2.72846,0.14819,0.77258
574.316,62.3461,-2.73141,0.15067,0.76981
577.516,62.66556,-2.73405,0.14702,0.76704
580.716,62.98464,-2.73536,0.14788,0.76426
583.916,63.3035,-2.74027,0.14701,0.76147
587.116,63.62321,-2.74196,0.14428,0.75867
590.316,63.94254,-2.74361,0.14634,0.75587
593.516,64.26167,-2.74624,0.14791,0.75305
596.716,64.58106,-2.74887,0.14587,0.75023
599.916,64.90006,-2.75151,0.14814,0.7474
603.116,65.22029,-2.75283,0.149,0.74456
606.316,65.54057,-2.75549,0.14324,0.74171
609.516,65.86089,-2.75789,0.14399,0.73885
612.716,66.18157,-2.76122,0.13942,0.73599
615.916,66.50157,-2.76133,0.13646,0.73312
619.116,66.822,-2.76396,0.13556,0.73024
622.316,67.14259,-2.76598,0.13421,0.72735
625.516,67.46256,-2.76931,0.13074,0.72446
628.716,67.78282,-2.76994,0.13009,0.72156
631.916,68.10329,-2.77259,0.12937,0.71865
635.116,68.42393,-2.77388,0.12456,0.71574
638.316,68.7448,-2.77654,0.12265,0.71281
641.516,69.0659,-2.77669,0.11627,0.70989
644.716,69.38661,-2.77776,0.11158,0.70695
647.916,69.70738,-2.78172,0.10325,0.70401
651.116,70.0286,-2.78411,0.10312,0.70106
654.316,70.34992,-2.78351,0.09920829,0.69811
657.516,70.67111,-2.7857,0.09653202,0.69515
660.716,70.99256,-2.78807,0.0978298,0.69218
663.916,71.3138,-2.78971,0.09400054,0.68921
667.116,71.63501,-2.79073,0.08904421,0.68623
670.316,71.95675,-2.793,0.08402226,0.68325
673.516,72.27901,-2.79465,0.08071,0.68026
676.716,72.60084,-2.79564,0.07299666,0.67726
679.916,72.92256,-2.79827,0.07225807,0.67426
683.116,73.24468,-2.7983,0.0706322,0.67126
686.316,73.56679,-2.80093,0.06924945,0.66825
689.516,73.88772,-2.80124,0.06506751,0.66523
692.716,74.2099,-2.8039,0.06526859,0.66221
695.916,74.53166,-2.80651,0.06473832,0.65919
699.116,74.85316,-2.80881,0.05880809,0.65616
702.316,75.1759,-2.81016,0.05875045,0.65312
705.516,75.4983,-2.80132,0.04944204,0.65009
708.716,75.82092,-2.81265,0.05046145,0.64704
711.916,76.14328,-2.81638,0.04776762,0.644
715.116,76.46495,-2.81566,0.04463383,0.64095
718.316,76.7879,-2.81562,0.04442278,0.63789
721.516,77.1109,-2.81376,0.03770854,0.63484
724.716,77.43463,-2.81919,0.03882423,0.63178
727.916,77.7581,-2.83089,0.03592406,0.62871
731.116,78.08134,-2.82659,0.03233988,0.62565
734.316,78.40465,-2.82396,0.02466233,0.62258
737.516,78.7279,-2.82396,0.01929261,0.6195
740.716,79.05168,-2.82545,0.01595428,0.61643
743.916,79.37484,-2.82659,0.0138127,0.61335
747.116,79.69722,-2.82791,0.01042502,0.61027
750.316,80.01975,-2.83055,0.007850044,0.60719
753.516,80.3425,-2.83022,0.005802832,0.6041
756.716,80.66582,-2.83187,0.00661921,0.60102
759.916,80.98924,-2.83286,0.00479379,0.59793
763.116,81.3126,-2.83319,0.006222632,0.59484
766.316,81.63636,-2.83417,9.388271e-05,0.59174
769.516,81.95989,-2.83615,-0.00265834,0.58865
772.716,82.28274,-2.83747,0.001512486,0.58555
775.916,82.60624,-2.83895,-0.00457985,0.58246
779.116,82.9298,-2.84009,-0.00955985,0.57936
782.316,83.25315,-2.84076,-0.008509351,0.57626
785.516,83.5765,-2.84208,-0.01198342,0.57316
788.716,83.9004,-2.84207,-0.02021572,0.57006
791.916,84.2248,-2.8446,-0.02534732,0.56696
795.116,84.54892,-2.84439,-0.02817062,0.56386
798.316,84.87265,-2.84669,-0.02654224,0.56076
799.516,84.9939,-2.84603,-0.02597409,0.5596