Folder: fsri_materials_database/01_Data/Feather_PillowB_Feathers/STA/N2/30K_min

Note: 01_Data/README.md
# Materials and Products Database
## 01_Data

Raw data generated from each apparatus are included here in plain-text format. The data is organized first by material, next by the short name of test apparatus used, and where applicable additional filtering by test settings.

### material.json

Each material directory contains a json file of the same name as the material. This file links the data stored in the repository as well as data and graphs produced by the accompanying scripts (__02_Scripts__) to the respective landing page for the material on the front-end website.

File: Feather_Pillow_Feathers_STA_N2_30KData_2236_R1.csv
##Temp./Â°C,Time/min,Mass loss(subtr.2)/mg,DSC(subtr.2)/(mW/mg),Sensit./(uV/mW)
48.505,10.00917,-0.02394,0.04195405,1.05402
51.705,10.88135,-0.02149773,0.17835,1.05336
54.905,11.1145,-0.02380081,0.28305,1.05269
58.105,11.29434,-0.02149202,0.37518,1.05199
61.305,11.44866,-0.02199252,0.4509,1.05128
64.505,11.589,-0.02382512,0.51929,1.05055
67.705,11.7204,-0.02709674,0.58483,1.0498
70.905,11.8462,-0.02839085,0.64583,1.04904
74.105,11.96744,-0.02725943,0.70424,1.04825
77.305,12.08585,-0.03086107,0.76322,1.04745
80.505,12.2018,-0.03182741,0.8197,1.04663
83.705,12.3159,-0.03270422,0.87486,1.04579
86.905,12.42804,-0.03459472,0.92546,1.04493
90.105,12.53921,-0.03590228,0.98052,1.04405
93.305,12.64911,-0.04149789,1.02518,1.04316
96.505,12.75798,-0.04581683,1.06279,1.04225
99.705,12.86626,-0.04991429,1.09509,1.04132
102.905,12.97438,-0.05173238,1.11641,1.04037
106.105,13.08207,-0.05660662,1.12544,1.03941
109.305,13.18905,-0.0607111,1.12876,1.03843
112.505,13.29631,-0.06202349,1.11915,1.03743
115.705,13.4025,-0.06468373,1.10382,1.03641
118.905,13.50859,-0.06764087,1.08008,1.03538
122.105,13.61426,-0.07025886,1.0529,1.03433
125.305,13.7193,-0.07289988,1.02341,1.03326
128.505,13.824,-0.07296067,0.99254,1.03218
131.705,13.9278,-0.07563983,0.96106,1.03108
134.905,14.0314,-0.07695299,0.93296,1.02996
138.105,14.1343,-0.07707902,0.91087,1.02882
141.305,14.23635,-0.07663001,0.89078,1.02767
144.505,14.3385,-0.07532166,0.87661,1.02651
147.705,14.44005,-0.07669359,0.86674,1.02532
150.905,14.54101,-0.07692522,0.86249,1.02412
154.105,14.6419,-0.07827008,0.86043,1.0229
157.305,14.74262,-0.07958085,0.86345,1.02167
160.505,14.84237,-0.07675257,0.86716,1.02042
163.705,14.94271,-0.07896881,0.87308,1.01916
166.905,15.0428,-0.07915,0.88165,1.01788
170.105,15.1424,-0.07918351,0.88975,1.01658
173.305,15.24177,-0.08047662,0.90094,1.01527
176.505,15.3408,-0.07936409,0.91154,1.01394
179.705,15.43941,-0.07914972,0.92198,1.01259
182.905,15.538,-0.0792397,0.93441,1.01124
186.105,15.6361,-0.07851361,0.9494,1.00986
189.305,15.7341,-0.07906873,0.96395,1.00847
192.505,15.8319,-0.079642,0.98191,1.00707
195.705,15.9294,-0.08178755,0.99877,1.00565
198.905,16.02672,-0.08443,1.02366,1.00421
202.105,16.1243,-0.08434086,1.04728,1.00276
205.305,16.2214,-0.08652031,1.07611,1.0013
208.505,16.3182,-0.08652001,1.10782,0.99982
211.705,16.4155,-0.08522836,1.1509,0.99832
214.905,16.51267,-0.08842858,1.202,0.99681
218.105,16.60944,-0.09125775,1.27191,0.99529
221.305,16.7065,-0.09418093,1.36557,0.99375
224.505,16.80327,-0.09823553,1.48792,0.9922
227.705,16.90016,-0.10315,1.6461,0.99064
230.905,16.99718,-0.11002,1.84923,0.98906
234.105,17.0943,-0.11828,2.07309,0.98746
237.305,17.19143,-0.13016,2.24429,0.98586
240.505,17.2884,-0.14558,2.33107,0.98424
243.705,17.38535,-0.16214,2.35313,0.9826
246.905,17.48162,-0.17805,2.33589,0.98095
250.105,17.57846,-0.19452,2.29788,0.97929
253.305,17.67522,-0.21189,2.26083,0.97762
256.505,17.77156,-0.22753,2.23347,0.97593
259.705,17.8678,-0.24419,2.22247,0.97423
262.905,17.96415,-0.26328,2.22682,0.97251
266.105,18.0607,-0.28192,2.25096,0.97078
269.305,18.15687,-0.30186,2.27953,0.96904
272.505,18.25325,-0.32369,2.31309,0.96729
275.705,18.3494,-0.34446,2.34331,0.96552
278.905,18.4458,-0.36895,2.36667,0.96374
282.105,18.5424,-0.39415,2.38137,0.96195
285.305,18.6388,-0.42281,2.39333,0.96015
288.505,18.73507,-0.45028,2.40599,0.95833
291.705,18.83178,-0.4795,2.42085,0.95651
294.905,18.9281,-0.50861,2.44328,0.95467
298.105,19.02475,-0.54075,2.47243,0.95281
301.305,19.12114,-0.56917,2.49994,0.95095
304.505,19.21762,-0.6051,2.51592,0.94907
307.705,19.3143,-0.64165,2.49129,0.94719
310.905,19.411,-0.67693,2.34742,0.94529
314.105,19.50689,-0.71312,2.22856,0.94338
317.305,19.60385,-0.748,2.21881,0.94146
320.505,19.70044,-0.78741,2.2657,0.93952
323.705,19.79731,-0.83276,2.38609,0.93758
326.905,19.89411,-0.88387,2.41689,0.93562
330.105,19.99093,-0.93743,2.47133,0.93366
333.305,20.08757,-0.99653,2.52637,0.93168
336.505,20.18509,-1.05877,2.58302,0.92969
339.705,20.28252,-1.12667,2.63612,0.92769
342.905,20.37995,-1.19306,2.68588,0.92568
346.105,20.4775,-1.26875,2.73713,0.92366
349.305,20.57488,-1.33958,2.74345,0.92163
352.505,20.67236,-1.42068,2.74522,0.91959
355.705,20.77003,-1.50207,2.6833,0.91754
358.905,20.8678,-1.58002,2.59292,0.91548
362.105,20.96558,-1.65699,2.45994,0.91341
365.305,21.06334,-1.7254,2.33038,0.91133
368.505,21.161,-1.79741,2.21782,0.90924
371.705,21.2589,-1.86035,2.08079,0.90713
374.905,21.35686,-1.91965,1.95418,0.90502
378.105,21.45466,-1.97444,1.82866,0.9029
381.305,21.55276,-2.02495,1.71632,0.90078
384.505,21.65098,-2.07169,1.61979,0.89864
387.705,21.7492,-2.11829,1.52949,0.89649
390.905,21.8476,-2.15959,1.45845,0.89433
394.105,21.9461,-2.19912,1.38956,0.89217
397.305,22.04477,-2.23758,1.32427,0.88999
400.505,22.1434,-2.27202,1.26083,0.88781
403.705,22.24221,-2.30456,1.20085,0.88561
406.905,22.34076,-2.33331,1.14699,0.88341
410.105,22.44035,-2.36197,1.10003,0.8812
413.305,22.53951,-2.38755,1.05546,0.87898
416.505,22.63896,-2.41069,1.01271,0.87676
419.705,22.73836,-2.43339,0.97148,0.87452
422.905,22.8379,-2.45477,0.93317,0.87228
426.105,22.9373,-2.47509,0.9,0.87003
429.305,23.03732,-2.49512,0.87357,0.86777
432.505,23.13733,-2.5113,0.84329,0.8655
435.705,23.2373,-2.52712,0.81853,0.86323
438.905,23.33737,-2.54329,0.79976,0.86094
442.105,23.43723,-2.5603,0.78276,0.85865
445.305,23.53749,-2.57353,0.76831,0.85636
448.505,23.63822,-2.58703,0.74805,0.85405
451.705,23.7385,-2.59895,0.73228,0.85174
454.905,23.83943,-2.61299,0.71761,0.84942
458.105,23.94,-2.62159,0.70478,0.84709
461.305,24.0408,-2.63399,0.69272,0.84476
464.505,24.14169,-2.64343,0.68363,0.84242
467.705,24.24265,-2.65056,0.66833,0.84007
470.905,24.34352,-2.66034,0.66241,0.83772
474.105,24.44473,-2.66744,0.65457,0.83535
477.305,24.546,-2.6762,0.65194,0.83299
480.505,24.6472,-2.68488,0.65356,0.83061
483.705,24.74859,-2.69315,0.66197,0.82823
486.905,24.85,-2.70106,0.65754,0.82584
490.105,24.95125,-2.7085,0.64957,0.82345
493.305,25.05307,-2.71746,0.63663,0.82105
496.505,25.1552,-2.7251,0.62832,0.81865
499.705,25.25716,-2.73042,0.62049,0.81623
502.905,25.35891,-2.73435,0.61708,0.81382
506.105,25.46105,-2.74098,0.61027,0.81139
509.305,25.56325,-2.74852,0.60647,0.80897
512.505,25.66546,-2.75249,0.60302,0.80653
515.705,25.7679,-2.76005,0.59763,0.80409
518.905,25.8704,-2.76465,0.5948,0.80165
522.105,25.9731,-2.77105,0.59036,0.7992
525.305,26.07576,-2.7738,0.58776,0.79674
528.505,26.1785,-2.77861,0.58755,0.79428
531.705,26.2814,-2.78244,0.58516,0.79181
534.905,26.3843,-2.78653,0.58018,0.78934
538.105,26.4874,-2.79214,0.57614,0.78687
541.305,26.59058,-2.79568,0.5759,0.78439
544.505,26.69381,-2.79834,0.57434,0.7819
547.705,26.79706,-2.80065,0.57508,0.77941
550.905,26.9004,-2.80357,0.57212,0.77692
554.105,27.00395,-2.80653,0.57292,0.77442
557.305,27.1075,-2.80887,0.57439,0.77191
560.505,27.2111,-2.81326,0.57437,0.76941
563.705,27.31468,-2.81765,0.57658,0.7669
566.905,27.4186,-2.82044,0.57807,0.76438
570.105,27.52256,-2.82333,0.58194,0.76186
573.305,27.62655,-2.82636,0.57888,0.75934
576.505,27.7306,-2.82877,0.5776,0.75681
579.705,27.8346,-2.83018,0.57862,0.75428
582.905,27.9388,-2.83284,0.58093,0.75174
586.105,28.04321,-2.83319,0.58467,0.74921
589.305,28.1475,-2.83595,0.58454,0.74666
592.505,28.2519,-2.83987,0.58715,0.74412
595.705,28.3562,-2.84115,0.58934,0.74157
598.905,28.46071,-2.84678,0.59445,0.73902
602.105,28.56545,-2.84872,0.59913,0.73646
605.305,28.66985,-2.85074,0.60563,0.7339
608.505,28.7745,-2.85215,0.62235,0.73134
611.705,28.87896,-2.8547,0.63127,0.72878
614.905,28.98375,-2.8571,0.63601,0.72621
618.105,29.0886,-2.86237,0.64469,0.72364
621.305,29.1933,-2.86502,0.65228,0.72107
624.505,29.29812,-2.86374,0.65652,0.7185
627.705,29.403,-2.86482,0.6614,0.71592
630.905,29.508,-2.86876,0.66535,0.71334
634.105,29.61287,-2.87106,0.66673,0.71076
637.305,29.7178,-2.87238,0.66941,0.70817
640.505,29.82289,-2.87435,0.67087,0.70558
643.705,29.92785,-2.87693,0.67202,0.703
646.905,30.0329,-2.87636,0.67295,0.70041
650.105,30.13815,-2.88197,0.67423,0.69781
653.305,30.24325,-2.88324,0.67185,0.69522
656.505,30.34855,-2.88455,0.66937,0.69262
659.705,30.4538,-2.88413,0.67037,0.69002
662.905,30.55919,-2.88653,0.66702,0.68742
666.105,30.6643,-2.88857,0.66452,0.68482
669.305,30.7697,-2.88917,0.6607,0.68222
672.505,30.875,-2.89049,0.65839,0.67962
675.705,30.9805,-2.89455,0.65418,0.67701
678.905,31.08595,-2.89729,0.65021,0.67441
682.105,31.1915,-2.89856,0.64535,0.6718
685.305,31.2972,-2.90018,0.635,0.66919
688.505,31.40278,-2.90159,0.62852,0.66658
691.705,31.5085,-2.90434,0.62004,0.66397
694.905,31.6142,-2.90548,0.6064,0.66136
698.105,31.7201,-2.9067,0.59873,0.65874
701.305,31.82605,-2.90736,0.59108,0.65613
704.505,31.93201,-2.90862,0.58458,0.65352
707.705,32.03808,-2.91012,0.57592,0.6509
710.905,32.14427,-2.91405,0.57073,0.64829
714.105,32.25028,-2.91439,0.56773,0.64567
717.305,32.35647,-2.91717,0.55986,0.64306
720.505,32.46266,-2.91925,0.55399,0.64044
723.705,32.56899,-2.91956,0.54812,0.63783
726.905,32.67518,-2.91992,0.54361,0.63521
730.105,32.78161,-2.92349,0.53637,0.6326
733.305,32.88811,-2.92569,0.53067,0.62998
736.505,32.99465,-2.92733,0.52643,0.62736
739.705,33.10138,-2.92793,0.52182,0.62475
742.905,33.2078,-2.92981,0.50935,0.62213
746.105,33.3144,-2.93041,0.50486,0.61952
749.305,33.42126,-2.93199,0.49652,0.6169
752.505,33.52831,-2.9333,0.49243,0.61429
755.705,33.6349,-2.9333,0.485,0.61168
758.905,33.74154,-2.93485,0.48015,0.60906
762.105,33.84806,-2.93637,0.47223,0.60645
765.305,33.955,-2.93651,0.4697,0.60384
768.505,34.06188,-2.93959,0.46254,0.60123
771.705,34.16859,-2.93923,0.45782,0.59862
774.905,34.2755,-2.94073,0.45095,0.59601
778.105,34.38212,-2.94058,0.44505,0.5934
781.305,34.4888,-2.93924,0.44005,0.5908
784.505,34.5957,-2.94332,0.4385,0.58819
787.705,34.70306,-2.94615,0.43634,0.58559
790.905,34.81005,-2.94614,0.43405,0.58298
794.105,34.91705,-2.94615,0.43166,0.58038
796.505,34.9974,-2.94627,0.42715,0.57843