Folder: fsri_materials_database/01_Data/Feather_PillowB_Feathers/STA/N2/3K_min

Note: 01_Data/README.md
# Materials and Products Database
## 01_Data

Raw data generated from each apparatus are included here in plain-text format. The data is organized first by material, next by the short name of test apparatus used, and where applicable additional filtering by test settings.

### material.json

Each material directory contains a json file of the same name as the material. This file links the data stored in the repository as well as data and graphs produced by the accompanying scripts (__02_Scripts__) to the respective landing page for the material on the front-end website.

File: Feather_Pillow_Feathers_STA_N2_3KData_2266_R1.csv
##Temp./Â°C,Time/min,Mass loss(subtr.2)/mg,DSC(subtr.2)/(mW/mg),Sensit./(uV/mW)
50.255,10.01667,-0.06104,0.02743508,1.05674
53.255,12.24915,-0.06762663,0.06661209,1.05641
56.255,13.3901,-0.0695998,0.0733667,1.05605
59.255,14.479,-0.07355974,0.08058474,1.05569
62.255,15.5229,-0.07555053,0.08602967,1.05531
65.255,16.5485,-0.08017203,0.0924002,1.05491
68.255,17.56469,-0.08408842,0.09154728,1.05451
71.255,18.57541,-0.09005834,0.09002825,1.05408
74.255,19.5886,-0.09200017,0.0854295,1.05365
77.255,20.59636,-0.09594997,0.08321393,1.05319
80.255,21.59998,-0.09793001,0.07826966,1.05273
83.255,22.6029,-0.10149,0.07068678,1.05224
86.255,23.604,-0.10556,0.06597036,1.05175
89.255,24.59999,-0.10715,0.05878602,1.05124
92.255,25.59904,-0.10911,0.05004939,1.05071
95.255,26.59863,-0.11209,0.0452111,1.05017
98.255,27.5933,-0.11076,0.0413495,1.04961
101.255,28.585,-0.11308,0.03571895,1.04904
104.255,29.57729,-0.11534,0.03292959,1.04846
107.255,30.5664,-0.11604,0.03350994,1.04786
110.255,31.55808,-0.11472,0.03152554,1.04724
113.255,32.54748,-0.11472,0.02651757,1.04661
116.255,33.53627,-0.11627,0.02698923,1.04596
119.255,34.52393,-0.11406,0.02444056,1.0453
122.255,35.516,-0.11505,0.02102054,1.04462
125.255,36.50698,-0.11506,0.0218465,1.04393
128.255,37.49168,-0.11512,0.01881799,1.04322
131.255,38.4797,-0.11604,0.01780924,1.04249
134.255,39.46508,-0.11571,0.01840986,1.04175
137.255,40.45223,-0.11528,0.01603229,1.041
140.255,41.4332,-0.11702,0.01375842,1.04023
143.255,42.41252,-0.11736,0.01519453,1.03944
146.255,43.39678,-0.11832,0.01387325,1.03864
149.255,44.37735,-0.11769,0.01072093,1.03782
152.255,45.36043,-0.11964,0.01063276,1.03699
155.255,46.34463,-0.11934,0.01361189,1.03613
158.255,47.32762,-0.11917,0.01369683,1.03527
161.255,48.30594,-0.11801,0.01184946,1.03439
164.255,49.28609,-0.11835,0.01316082,1.03349
167.255,50.26316,-0.1223,0.01369952,1.03257
170.255,51.23738,-0.12272,0.01235777,1.03164
173.255,52.21804,-0.12356,0.01178243,1.0307
176.255,53.1961,-0.12574,0.01534203,1.02973
179.255,54.17794,-0.12658,0.01550422,1.02875
182.255,55.1589,-0.12889,0.0138601,1.02776
185.255,56.13743,-0.12955,0.01821946,1.02675
188.255,57.1169,-0.13119,0.02231835,1.02572
191.255,58.09321,-0.1345,0.02619993,1.02467
194.255,59.0736,-0.13613,0.02822051,1.02361
197.255,60.0478,-0.13909,0.03460519,1.02253
200.255,61.0274,-0.14001,0.03993184,1.02144
203.255,62.00345,-0.14337,0.04723794,1.02033
206.255,62.9785,-0.15194,0.05706174,1.0192
209.255,63.9571,-0.15589,0.07117978,1.01806
212.255,64.93156,-0.16511,0.0876885,1.0169
215.255,65.90732,-0.17752,0.10829,1.01572
218.255,66.88359,-0.1907,0.13404,1.01453
221.255,67.86022,-0.20772,0.15849,1.01332
224.255,68.83665,-0.22756,0.16389,1.01209
227.255,69.81535,-0.24856,0.1554,1.01085
230.255,70.79021,-0.27081,0.14544,1.00959
233.255,71.76087,-0.2953,0.13443,1.00831
236.255,72.73686,-0.31626,0.12945,1.00701
239.255,73.7113,-0.3393,0.12805,1.0057
242.255,74.69001,-0.36219,0.13048,1.00438
245.255,75.66768,-0.38665,0.13025,1.00303
248.255,76.64814,-0.41727,0.1386,1.00167
251.255,77.62598,-0.44424,0.14227,1.00029
254.255,78.60483,-0.47654,0.14666,0.9989
257.255,79.57915,-0.51004,0.1511,0.99748
260.255,80.5561,-0.54536,0.15622,0.99606
263.255,81.53563,-0.58312,0.1589,0.99461
266.255,82.51514,-0.62195,0.16798,0.99315
269.255,83.488,-0.66593,0.17078,0.99167
272.255,84.4686,-0.70891,0.16915,0.99017
275.255,85.44581,-0.75811,0.16752,0.98866
278.255,86.41243,-0.80859,0.16779,0.98713
281.255,87.3935,-0.86214,0.16259,0.98558
284.255,88.37645,-0.91624,0.15801,0.98402
287.255,89.35636,-0.97357,0.15784,0.98243
290.255,90.33561,-1.03267,0.15835,0.98084
293.255,91.31656,-1.09376,0.15757,0.97922
296.255,92.29163,-1.15616,0.1625,0.97759
299.255,93.27051,-1.22209,0.1606,0.97594
302.255,94.2499,-1.28886,0.15583,0.97428
305.255,95.22856,-1.35535,0.14657,0.97259
308.255,96.2114,-1.42094,0.13929,0.9709
311.255,97.19622,-1.49141,0.13661,0.96918
314.255,98.17635,-1.56164,0.13133,0.96745
317.255,99.15539,-1.62775,0.11919,0.9657
320.255,100.134,-1.69338,0.10972,0.96393
323.255,101.111,-1.75526,0.09208415,0.96215
326.255,102.092,-1.81072,0.07808812,0.96035
329.255,103.072,-1.86113,0.06394834,0.95853
332.255,104.056,-1.90696,0.05286775,0.9567
335.255,105.04,-1.95196,0.04508158,0.95485
338.255,106.02,-1.99419,0.03628099,0.95298
341.255,107.0099,-2.02987,0.02724688,0.9511
344.255,107.99,-2.06548,0.0200352,0.9492
347.255,108.981,-2.09928,0.01747168,0.94728
350.255,109.966,-2.13028,0.01407452,0.94535
353.255,110.952,-2.16071,0.008774659,0.9434
356.255,111.939,-2.18781,0.002656576,0.94144
359.255,112.93,-2.21662,-0.005133011,0.93946
362.255,113.919,-2.24316,-0.005304454,0.93746
365.255,114.902,-2.26822,-0.009129114,0.93544
368.255,115.888,-2.29263,-0.01218552,0.93341
371.255,116.8752,-2.31795,-0.01762168,0.93136
374.255,117.868,-2.33702,-0.02256796,0.9293
377.255,118.861,-2.36203,-0.0257318,0.92722
380.255,119.848,-2.38152,-0.03191352,0.92513
383.255,120.8385,-2.4009,-0.03649126,0.92302
386.255,121.828,-2.42005,-0.03672163,0.92089
389.255,122.818,-2.4395,-0.03807218,0.91875
392.255,123.811,-2.45394,-0.04195537,0.91659
395.255,124.808,-2.46909,-0.04745884,0.91441
398.255,125.802,-2.48637,-0.04895021,0.91222
401.255,126.799,-2.50444,-0.05323028,0.91002
404.255,127.788,-2.519,-0.05650146,0.90779
407.255,128.78,-2.535,-0.06219244,0.90556
410.255,129.772,-2.55158,-0.06093081,0.9033
413.255,130.7684,-2.56318,-0.06320806,0.90104
416.255,131.763,-2.57738,-0.06752855,0.89875
419.255,132.758,-2.59092,-0.07025532,0.89645
422.255,133.754,-2.60362,-0.07439062,0.89414
425.255,134.747,-2.6175,-0.07593183,0.89181
428.255,135.742,-2.62849,-0.08048779,0.88947
431.255,136.739,-2.64116,-0.08580291,0.88711
434.255,137.737,-2.65442,-0.08796316,0.88473
437.255,138.734,-2.66457,-0.08623353,0.88234
440.255,139.735,-2.67543,-0.0887166,0.87994
443.255,140.736,-2.6871,-0.09401014,0.87752
446.255,141.734,-2.69626,-0.09625577,0.87509
449.255,142.729,-2.70474,-0.10023,0.87264
452.255,143.725,-2.71486,-0.10231,0.87018
455.255,144.726,-2.722,-0.10914,0.8677
458.255,145.728,-2.73151,-0.1092,0.86521
461.255,146.7301,-2.73975,-0.11287,0.86271
464.255,147.731,-2.74601,-0.1124,0.86019
467.255,148.726,-2.75424,-0.10949,0.85766
470.255,149.725,-2.7608,-0.10752,0.85511
473.255,150.724,-2.76713,-0.10168,0.85255
476.255,151.724,-2.77155,-0.09456977,0.84998
479.255,152.719,-2.77627,-0.09568758,0.84739
482.255,153.7244,-2.7819,-0.09483681,0.84479
485.255,154.724,-2.78609,-0.09639613,0.84218
488.255,155.728,-2.79179,-0.09986161,0.83955
491.255,156.7239,-2.79853,-0.11251,0.83691
494.255,157.7315,-2.80233,-0.11736,0.83426
497.255,158.735,-2.8076,-0.12872,0.83159
500.255,159.738,-2.81155,-0.13594,0.82891
503.255,160.742,-2.8146,-0.14331,0.82622
506.255,161.743,-2.81877,-0.14811,0.82352
509.255,162.753,-2.82171,-0.15299,0.8208
512.255,163.759,-2.82487,-0.15415,0.81807
515.255,164.765,-2.82839,-0.15682,0.81533
518.255,165.77,-2.83328,-0.15371,0.81258
521.255,166.776,-2.83527,-0.1558,0.80981
524.255,167.781,-2.83823,-0.15927,0.80703
527.255,168.79,-2.84176,-0.16159,0.80425
530.255,169.798,-2.84525,-0.16184,0.80144
533.255,170.806,-2.86052,-0.16045,0.79863
536.255,171.81,-2.85116,-0.16572,0.79581
539.255,172.816,-2.85096,-0.16645,0.79297
542.255,173.822,-2.8569,-0.16728,0.79013
545.255,174.828,-2.86212,-0.17197,0.78727
548.255,175.836,-2.86578,-0.167,0.7844
551.255,176.848,-2.86807,-0.1705,0.78152
554.255,177.857,-2.8702,-0.17284,0.77864
557.255,178.871,-2.87204,-0.17329,0.77574
560.255,179.878,-2.87368,-0.1723,0.77283
563.255,180.886,-2.87672,-0.17134,0.76991
566.255,181.899,-2.87796,-0.17063,0.76698
569.255,182.9122,-2.8806,-0.17399,0.76404
572.255,183.9269,-2.88164,-0.17332,0.76109
575.255,184.939,-2.88785,-0.1683,0.75813
578.255,185.952,-2.88719,-0.16862,0.75516
581.255,186.962,-2.89049,-0.17133,0.75218
584.255,187.973,-2.89345,-0.16699,0.74919
587.255,188.986,-2.89626,-0.16304,0.74619
590.255,190.002,-2.89804,-0.16146,0.74319
593.255,191.0125,-2.89979,-0.16265,0.74017
596.255,192.0315,-2.90336,-0.1606,0.73715
599.255,193.045,-2.90261,-0.16264,0.73412
602.255,194.0543,-2.90472,-0.16284,0.73108
605.255,195.067,-2.90629,-0.16502,0.72803
608.255,196.082,-2.90687,-0.16906,0.72497
611.255,197.096,-2.90859,-0.16657,0.72191
614.255,198.11,-2.91246,-0.16265,0.71884
617.255,199.124,-2.91518,-0.16603,0.71576
620.255,200.1342,-2.91519,-0.16397,0.71267
623.255,201.147,-2.91914,-0.16206,0.70958
626.255,202.169,-2.92047,-0.16558,0.70648
629.255,203.185,-2.9221,-0.16452,0.70337
632.255,204.1934,-2.92382,-0.1689,0.70025
635.255,205.208,-2.92359,-0.1717,0.69713
638.255,206.221,-2.92667,-0.17762,0.694
641.255,207.233,-2.92867,-0.18193,0.69087
644.255,208.243,-2.92902,-0.18217,0.68772
647.255,209.255,-2.93067,-0.18151,0.68458
650.255,210.275,-2.93462,-0.18683,0.68142
653.255,211.291,-2.9366,-0.19161,0.67827
656.255,212.298,-2.93824,-0.19496,0.6751
659.255,213.312,-2.94024,-0.19631,0.67193
662.255,214.327,-2.9419,-0.19894,0.66876
665.255,215.341,-2.94317,-0.20137,0.66558
668.255,216.3513,-2.94451,-0.20501,0.66239
671.255,217.366,-2.94845,-0.20419,0.6592
674.255,218.382,-2.94977,-0.21021,0.65601
677.255,219.394,-2.95109,-0.21103,0.65281
680.255,220.407,-2.95376,-0.21638,0.64961
683.255,221.421,-2.9537,-0.21885,0.6464
686.255,222.44,-2.95866,-0.21986,0.64319
689.255,223.457,-2.95866,-0.2258,0.63997
692.255,224.469,-2.95866,-0.22691,0.63676
695.255,225.483,-2.96096,-0.23122,0.63353
698.255,226.5,-2.96064,-0.23112,0.63031
701.255,227.517,-2.96294,-0.23482,0.62708
704.255,228.533,-2.96623,-0.23842,0.62385
707.255,229.545,-2.96755,-0.24092,0.62061
710.255,230.558,-2.96854,-0.24564,0.61738
713.255,231.569,-2.97121,-0.24648,0.61414
716.255,232.583,-2.97314,-0.25449,0.6109
719.255,233.596,-2.97348,-0.25882,0.60765
722.255,234.611,-2.97315,-0.26766,0.60441
725.255,235.618,-2.97342,-0.27426,0.60116
728.255,236.629,-2.97455,-0.27971,0.59791
731.255,237.645,-2.97537,-0.28519,0.59466
734.255,238.654,-2.97643,-0.28221,0.59141
737.255,239.665,-2.97777,-0.29031,0.58816
740.255,240.674,-2.97838,-0.29134,0.5849
743.255,241.692,-2.98104,-0.30199,0.58165
746.255,242.707,-2.98073,-0.31104,0.57839
748.055,243.3073,-2.97877,-0.31842,0.57644