Folder: fsri_materials_database/01_Data/PineLap_SidingA/MCC

Note: 01_Data/README.md
# Materials and Products Database
## 01_Data

Raw data generated from each apparatus are included here in plain-text format. The data is organized first by material, next by the short name of test apparatus used, and where applicable additional filtering by test settings.

### material.json

Each material directory contains a json file of the same name as the material. This file links the data stored in the repository as well as data and graphs produced by the accompanying scripts (__02_Scripts__) to the respective landing page for the material on the front-end website.

File: PineLap_SidingA_MCC_30K_min_211119_R1.txt
Sample ID:	C:\MCC\MCC Cal\Test\PineLap_SidingA_MCC_30K_min_211119_R1.txt
Sample Weight (mg):	4.77
Heating Rate (C/s):	0.5
Combustor Temp (C):	900
N2 Flow Rate (cc/min):	80
O2 Flow Rate (cc/min):	20
Calibration File:	C:\MCC\MCC Cal\Coeff1 JN10440_30_210304.txt.txt
T Correction Coefficients:	0	1.024463	0
Time Shift (s):	14
*
Time (s)	Temperature (C)	N2 flow rate (cc/min)	O2 flow rate (cc/min)	Flow Rate (cc/min)	Oxygen (%)	HRR (W/g)	Heating rate (C/s)
0.000	106.680	80.005	19.995	103.038	20.289	-0.185	0.020
8.000	106.683	80.005	19.996	103.055	20.283	0.240	0.007
16.000	106.764	80.007	19.996	103.130	20.279	0.498	0.012
24.000	107.060	80.003	19.995	103.103	20.274	0.850	0.050
32.000	107.465	80.004	19.994	103.155	20.265	1.420	0.039
40.001	108.143	80.005	19.995	103.212	20.253	2.249	0.112
48.000	109.193	80.010	19.995	103.254	20.249	2.526	0.176
56.000	110.695	80.007	19.994	103.265	20.241	3.032	0.224
64.000	112.557	80.007	19.994	103.258	20.242	2.994	0.261
72.000	114.668	80.010	19.994	103.267	20.238	3.259	0.315
80.000	117.029	80.006	19.995	103.270	20.240	3.129	0.320
88.000	119.724	80.006	19.994	103.293	20.233	3.603	0.374
96.001	122.648	80.007	19.994	103.296	20.229	3.883	0.391
104.000	125.718	80.004	19.994	103.310	20.227	4.004	0.363
112.000	129.053	80.006	19.996	103.296	20.227	4.042	0.423
120.000	132.476	80.006	19.996	103.298	20.230	3.804	0.458
128.000	136.088	80.008	19.995	103.297	20.226	4.070	0.456
136.000	139.794	80.006	19.995	103.314	20.230	3.830	0.459
144.000	143.616	80.007	19.993	103.299	20.227	4.001	0.494
152.000	147.439	80.008	19.993	103.302	20.226	4.057	0.442
160.000	151.388	80.006	19.993	103.292	20.228	3.935	0.495
168.000	155.285	80.007	19.994	103.289	20.226	4.062	0.452
176.000	159.325	80.006	19.992	103.288	20.225	4.120	0.523
184.000	163.344	80.004	19.995	103.286	20.228	3.915	0.515
192.000	167.393	80.006	19.995	103.280	20.228	3.939	0.517
200.000	171.447	80.005	19.995	103.276	20.225	4.116	0.492
208.000	175.469	80.006	19.996	103.274	20.229	3.861	0.518
216.000	179.402	80.006	19.998	103.271	20.228	3.964	0.485
224.000	183.421	80.005	19.995	103.267	20.226	4.070	0.520
232.000	187.425	80.008	19.995	103.255	20.228	3.934	0.516
240.000	191.390	80.007	19.996	103.250	20.232	3.679	0.500
248.000	195.337	80.042	20.009	103.296	20.236	3.382	0.503
256.000	199.300	80.025	20.000	103.251	20.231	3.712	0.523
264.000	203.177	80.006	19.995	103.253	20.227	3.987	0.484
272.000	207.094	80.005	19.995	103.251	20.225	4.172	0.501
280.000	211.046	80.005	19.996	103.252	20.225	4.139	0.507
288.000	214.939	80.007	19.995	103.252	20.226	4.104	0.487
296.000	218.828	80.008	19.995	103.251	20.226	4.097	0.480
304.000	222.822	80.008	19.995	103.247	20.228	3.945	0.524
312.000	226.764	80.007	19.996	103.247	20.228	3.950	0.496
320.000	230.836	80.007	19.995	103.249	20.222	4.311	0.527
328.000	234.811	80.005	19.994	103.248	20.225	4.137	0.484
336.000	238.787	80.004	19.993	103.246	20.221	4.386	0.525
344.000	242.711	80.004	19.994	103.232	20.221	4.392	0.503
352.000	246.720	80.004	19.994	103.248	20.217	4.693	0.515
360.000	250.812	80.005	19.994	103.243	20.214	4.873	0.528
368.000	254.846	80.005	19.994	103.216	20.213	4.944	0.549
376.000	258.870	80.006	19.994	103.220	20.213	4.928	0.543
384.000	262.836	80.006	19.995	103.229	20.216	4.739	0.531
392.000	266.878	80.008	19.994	103.218	20.212	5.021	0.496
400.000	270.949	80.007	19.994	103.213	20.211	5.082	0.524
408.000	274.987	80.003	19.995	103.218	20.210	5.173	0.523
416.000	279.059	80.005	19.995	103.227	20.214	4.917	0.499
424.000	283.097	80.005	19.994	103.215	20.214	4.878	0.500
432.000	287.190	80.005	19.994	103.211	20.212	5.032	0.544
440.000	291.281	80.004	19.995	103.215	20.212	5.034	0.509
448.000	295.340	80.007	19.994	103.211	20.209	5.232	0.470
456.000	299.372	80.008	19.995	103.209	20.210	5.144	0.506
464.000	303.388	80.006	19.994	103.211	20.208	5.267	0.522
472.000	307.346	80.005	19.994	103.212	20.206	5.395	0.488
480.000	311.361	80.008	19.994	103.214	20.201	5.756	0.519
488.001	315.367	80.005	19.994	103.215	20.197	6.018	0.469
496.000	319.338	80.004	19.995	103.212	20.190	6.503	0.501
504.000	323.291	80.006	19.995	103.209	20.181	7.134	0.486
512.000	327.176	80.006	19.995	103.210	20.173	7.671	0.457
520.000	331.077	80.006	19.994	103.216	20.165	8.158	0.474
528.000	334.945	80.005	19.995	103.210	20.163	8.340	0.495
536.000	338.820	80.006	19.994	103.210	20.159	8.565	0.483
544.000	342.655	80.006	19.994	103.212	20.155	8.864	0.485
552.000	346.498	80.006	19.993	103.219	20.155	8.863	0.512
560.000	350.518	80.008	19.995	103.208	20.156	8.776	0.545
568.000	354.608	80.007	19.993	103.213	20.154	8.940	0.492
576.000	358.757	80.006	19.994	103.212	20.155	8.851	0.516
584.000	362.923	80.005	19.995	103.206	20.153	9.028	0.511
592.000	367.146	80.005	19.995	103.205	20.149	9.241	0.493
600.000	371.360	80.006	19.994	103.211	20.140	9.851	0.537
608.000	375.590	80.004	19.995	103.211	20.128	10.692	0.502
616.000	379.800	80.006	19.993	103.212	20.113	11.680	0.551
624.000	383.953	80.006	19.995	103.202	20.096	12.827	0.532
632.000	387.983	80.007	19.994	103.185	20.071	14.530	0.495
640.000	391.891	80.010	19.994	103.188	20.047	16.182	0.444
648.000	395.727	80.008	19.994	103.175	20.025	17.671	0.459
656.000	399.543	80.005	19.995	103.186	20.003	19.140	0.482
664.000	403.314	80.005	19.994	103.197	19.984	20.435	0.478
672.000	407.139	80.005	19.994	103.189	19.972	21.217	0.486
680.000	411.056	80.005	19.996	103.183	19.971	21.299	0.878
688.000	414.820	80.007	19.996	103.185	19.992	19.858	0.470
696.000	418.798	80.006	19.994	103.189	20.013	18.422	0.531
704.000	422.825	80.007	19.994	103.191	20.043	16.444	0.524
712.000	426.908	80.006	19.995	103.197	20.077	14.097	0.536
720.000	431.041	80.007	19.993	103.175	20.105	12.228	0.491
728.000	435.260	80.008	19.993	103.204	20.127	10.764	0.522
736.000	439.740	80.006	19.994	103.200	20.141	9.836	0.564
744.000	444.143	80.004	19.995	103.199	20.146	9.439	0.563
752.000	448.606	80.005	19.994	103.193	20.149	9.255	0.563
760.000	453.077	80.005	19.995	103.186	20.152	9.060	0.551
768.000	457.599	80.004	19.995	103.193	20.150	9.175	0.551
776.000	462.034	80.005	19.996	103.190	20.153	9.026	0.536
784.000	466.356	80.007	19.994	103.174	20.153	8.970	0.552
792.000	470.631	80.007	19.993	103.194	20.161	8.478	0.534
800.001	474.863	80.006	19.994	103.189	20.168	7.983	0.534
808.000	479.043	80.008	19.994	103.177	20.175	7.529	0.530
816.000	483.093	80.005	19.994	103.173	20.178	7.279	0.496
824.000	487.132	80.006	19.994	103.177	20.183	6.970	0.508
832.000	491.120	80.007	19.995	103.180	20.190	6.523	0.490
840.000	495.102	80.007	19.995	103.169	20.199	5.921	0.507
848.001	499.091	80.005	19.995	103.170	20.203	5.637	0.514
856.000	502.952	80.005	19.996	103.183	20.207	5.336	0.471
864.000	506.915	80.007	19.995	103.173	20.211	5.083	0.508
872.000	510.820	80.005	19.995	103.174	20.214	4.893	0.484
880.000	514.734	80.006	19.994	103.172	20.216	4.777	0.496
888.000	518.677	80.008	19.993	103.169	20.217	4.667	0.474
896.000	522.629	80.006	19.993	103.170	20.217	4.689	0.488
904.000	526.593	80.007	19.995	103.171	20.217	4.700	0.494
912.000	530.639	80.007	19.993	103.172	20.221	4.404	0.532
920.000	534.687	80.007	19.994	103.173	20.221	4.400	0.520
928.000	538.797	80.006	19.994	103.172	20.221	4.384	0.526
936.001	542.847	80.005	19.994	103.174	20.227	4.008	0.526
944.000	546.849	80.007	19.995	103.173	20.227	4.019	0.505
952.000	550.896	80.007	19.996	103.171	20.226	4.070	0.498
960.000	555.037	80.008	19.995	103.171	20.226	4.076	0.516
968.000	559.221	80.009	19.995	103.170	20.226	4.050	0.537
976.000	563.450	80.008	19.994	103.169	20.223	4.279	0.540
984.000	567.663	80.005	19.994	103.174	20.219	4.576	0.554
992.001	572.032	80.005	19.994	103.184	20.220	4.479	0.554
1000.000	576.406	80.005	19.993	103.177	20.221	4.398	0.510
1008.000	580.893	80.006	19.994	103.177	20.224	4.239	0.564
1016.000	585.222	80.005	19.994	103.170	20.224	4.201	0.550
1024.000	589.502	80.007	19.994	103.108	20.219	4.539	0.518
1032.000	593.803	80.007	19.994	103.173	20.223	4.301	0.549
1040.000	597.944	80.005	19.994	103.172	20.221	4.376	0.504
1048.001	602.063	80.007	19.995	103.176	20.224	4.233	0.510
1056.001	605.996	80.006	19.994	103.172	20.226	4.063	0.532
1064.000	609.938	80.006	19.995	103.174	20.219	4.527	0.484
1072.000	613.848	80.006	19.994	103.178	20.220	4.457	0.485
1080.000	617.768	80.007	19.994	103.172	20.219	4.536	0.463
1088.000	621.612	80.006	19.995	103.171	20.218	4.619	0.471
1096.000	625.477	80.004	19.995	103.195	20.222	4.331	0.491
1104.000	629.410	80.008	19.994	103.175	20.222	4.363	0.513
1112.000	633.423	80.007	19.994	103.180	20.217	4.659	0.514
1120.000	637.486	80.005	19.995	103.183	20.217	4.706	0.476
1128.001	641.694	80.007	19.994	103.204	20.219	4.559	0.563
1136.000	645.912	80.008	19.994	103.211	20.216	4.751	0.564
1144.000	650.288	80.005	19.995	103.212	20.220	4.501	0.530
1152.000	654.757	80.005	19.995	103.215	20.215	4.794	0.559
1160.000	659.128	80.007	19.994	103.277	20.211	5.090	0.523
1168.000	663.435	80.007	19.994	103.223	20.214	4.911	0.525
1176.000	667.710	80.004	19.994	103.247	20.208	5.265	0.521
1184.000	671.994	80.006	19.994	103.254	20.210	5.179	0.547
1192.000	676.234	80.007	19.994	103.251	20.204	5.535	0.548
1200.000	680.340	80.006	19.994	103.264	20.207	5.386	0.492
1208.000	684.440	80.007	19.995	103.269	20.205	5.488	0.509
1216.000	688.479	80.008	19.996	103.279	20.205	5.500	0.510
1224.000	692.508	80.006	19.994	103.287	20.201	5.789	0.483
1232.000	696.554	80.005	19.994	103.263	20.201	5.795	0.483
1240.000	700.562	80.005	19.994	103.304	20.198	5.982	0.511
1248.000	704.547	80.006	19.996	103.327	20.197	6.053	0.508
1256.000	708.538	80.006	19.995	103.331	20.193	6.342	0.490
1264.000	712.577	80.005	19.993	103.351	20.189	6.598	0.504
1272.000	716.580	80.008	19.994	103.362	20.192	6.378	0.508
1280.000	720.596	80.008	19.994	103.380	20.186	6.772	0.489
1288.000	724.654	80.006	19.995	103.404	20.183	6.959	0.508
1296.000	728.588	80.008	19.992	103.403	20.179	7.232	0.491
1304.001	732.609	80.007	19.995	103.410	20.177	7.392	0.504
1312.000	736.564	80.007	19.996	103.412	20.177	7.391	0.479
1320.001	740.547	80.006	19.994	103.427	20.176	7.495	0.474
1327.000	743.954	80.005	19.995	103.425	20.177	7.372	0.463

File: PineLap_SidingA_MCC_30K_min_211123_R4.txt
Sample ID:	C:\MCC\MCC Cal\Test\PineLap_SidingA\PineLap_SidingA_MCC_30K_min_211123_R4.txt
Sample Weight (mg):	4.72
Heating Rate (C/s):	0.5
Combustor Temp (C):	900
N2 Flow Rate (cc/min):	80
O2 Flow Rate (cc/min):	20
Calibration File:	C:\MCC\MCC Cal\Coeff1 JN10440_30_210304.txt.txt
T Correction Coefficients:	0	1.024463	0
Time Shift (s):	14
*
Time (s)	Temperature (C)	N2 flow rate (cc/min)	O2 flow rate (cc/min)	Flow Rate (cc/min)	Oxygen (%)	HRR (W/g)	Heating rate (C/s)
0.000	109.179	80.008	19.995	103.133	20.040	-0.338	0.025
8.001	109.138	80.002	19.995	103.139	20.042	-0.490	-0.029
16.000	109.174	80.009	19.999	103.174	20.034	0.043	0.009
24.000	109.245	80.003	20.002	103.170	20.034	0.103	0.003
32.000	109.568	80.008	19.996	103.221	20.029	0.419	0.070
40.001	110.055	80.010	19.995	103.251	20.019	1.078	0.074
48.000	110.815	80.004	19.996	103.280	20.016	1.281	0.113
56.001	111.834	80.012	19.988	103.323	20.010	1.716	0.135
64.001	113.265	80.011	19.995	103.352	20.001	2.304	0.196
72.000	115.058	80.007	19.993	103.359	20.000	2.370	0.221
80.000	117.242	80.006	19.992	103.386	20.000	2.379	0.259
88.000	119.734	80.011	19.997	103.398	20.000	2.374	0.347
96.001	122.578	80.009	19.995	103.399	19.999	2.444	0.385
104.000	125.668	80.006	19.997	103.405	19.992	2.912	0.396
112.000	129.070	80.008	19.993	103.375	19.997	2.572	0.427
120.000	132.643	80.011	19.995	103.361	19.998	2.519	0.438
128.000	136.358	80.009	19.995	103.368	20.002	2.240	0.461
136.000	140.194	80.010	19.993	103.373	20.006	1.995	0.505
144.000	144.069	80.012	19.994	103.364	20.011	1.650	0.472
152.000	148.125	80.011	19.995	103.358	20.018	1.152	0.581
160.000	152.014	80.009	19.993	103.356	20.009	1.807	0.507
168.000	156.019	80.010	19.996	103.347	20.010	1.713	0.488
176.000	160.010	80.010	19.994	103.344	20.022	0.861	0.530
184.000	163.997	80.011	19.994	103.328	20.019	1.069	0.500
192.000	168.075	80.010	19.994	103.328	20.032	0.215	0.517
200.000	172.022	80.011	19.994	103.324	20.024	0.781	0.497
208.000	176.037	80.011	19.994	103.324	20.025	0.685	0.483
216.001	179.997	80.008	19.996	103.325	20.031	0.281	0.499
224.000	183.966	80.012	19.995	103.313	20.031	0.275	0.477
232.000	187.948	80.014	19.994	103.295	20.031	0.286	0.477
240.000	191.855	80.010	19.995	103.296	20.031	0.260	0.475
248.000	195.747	80.010	19.995	103.308	20.034	0.060	0.533
256.000	199.646	80.010	19.995	103.305	20.032	0.225	0.482
264.000	203.602	80.009	19.995	103.288	20.030	0.371	0.504
272.000	207.509	80.010	19.997	103.284	20.035	0.024	0.481
280.000	211.383	80.010	19.996	103.289	20.036	-0.051	0.485
288.000	215.313	80.012	19.994	103.289	20.037	-0.146	0.514
296.000	219.239	80.008	19.995	103.284	20.042	-0.449	0.510
304.000	223.121	80.010	19.995	103.283	20.042	-0.492	0.494
312.000	227.099	80.011	19.994	103.283	20.043	-0.573	0.479
320.000	231.029	80.010	19.995	103.281	20.046	-0.717	0.501
328.000	235.026	80.009	19.998	103.278	20.046	-0.780	0.486
336.000	239.020	80.013	19.994	103.287	20.047	-0.784	0.516
344.000	242.969	80.008	19.994	103.282	20.047	-0.816	0.480
352.000	246.959	80.008	19.995	103.286	20.049	-0.934	0.510
360.000	251.034	80.008	19.995	103.273	20.045	-0.674	0.516
368.000	255.006	80.010	19.995	103.255	20.045	-0.696	0.497
376.000	259.032	80.010	19.995	103.284	20.039	-0.247	0.509
384.000	263.039	80.009	19.995	103.289	20.046	-0.737	0.512
392.000	266.975	80.012	19.994	103.253	20.051	-1.082	0.507
400.000	271.021	80.009	19.994	103.261	20.046	-0.746	0.527
408.000	275.042	80.009	19.995	103.288	20.050	-1.029	0.495
416.000	279.013	80.006	19.998	103.272	20.053	-1.194	0.503
424.000	283.032	80.011	19.993	103.247	20.056	-1.431	0.513
432.000	287.117	80.009	19.995	103.261	20.056	-1.401	0.501
440.000	291.159	80.009	19.995	103.267	20.057	-1.484	0.498
448.000	295.322	80.012	19.995	103.269	20.055	-1.381	0.491
456.000	299.480	80.011	19.994	103.265	20.054	-1.308	0.518
464.000	303.565	80.010	19.993	103.259	20.053	-1.222	0.518
472.000	307.709	80.011	19.994	103.253	20.054	-1.319	0.526
480.000	311.752	80.011	19.996	103.250	20.056	-1.448	0.485
488.000	315.812	80.009	19.995	103.249	20.049	-0.971	0.514
496.000	319.747	80.009	19.996	103.246	20.047	-0.797	0.476
504.000	323.695	80.009	19.996	103.276	20.044	-0.602	0.531
512.000	327.611	80.009	19.997	103.243	20.039	-0.238	0.492
520.000	331.501	80.008	19.996	103.250	20.026	0.599	0.492
528.000	335.435	80.010	19.995	103.252	20.023	0.827	0.491
536.000	339.407	80.010	19.995	103.253	20.020	1.003	0.530
544.000	343.409	80.011	19.995	103.278	20.017	1.240	0.492
552.000	347.462	80.011	19.994	103.248	20.022	0.859	0.516
560.000	351.493	80.011	19.994	103.241	20.017	1.199	0.499
568.000	355.591	80.007	19.995	103.253	20.025	0.701	0.526
576.000	359.611	80.007	19.996	103.240	20.026	0.602	0.533
584.000	363.575	80.010	19.994	103.244	20.026	0.640	0.492
592.000	367.594	80.009	19.995	103.246	20.021	0.962	0.498
600.000	371.579	80.007	19.996	103.246	20.014	1.463	0.524
608.000	375.565	80.009	19.995	103.249	20.003	2.153	0.488
616.000	379.589	80.011	19.994	103.248	19.994	2.784	0.485
624.000	383.554	80.010	19.994	103.245	19.981	3.670	0.484
632.000	387.590	80.010	19.995	103.233	19.958	5.240	0.496
640.000	391.662	80.013	19.995	103.244	19.941	6.451	0.497
648.000	395.795	80.010	19.994	103.245	19.912	8.370	0.530
656.000	399.845	80.009	19.994	103.249	19.890	9.887	0.487
664.000	403.952	80.008	19.995	103.247	19.868	11.377	0.497
672.000	408.074	80.008	19.995	103.246	19.852	12.457	0.513
680.000	412.142	80.009	19.994	103.230	19.852	12.511	0.514
688.000	416.159	80.008	19.996	103.243	19.872	11.098	0.494
696.000	420.246	80.011	19.995	103.240	19.900	9.215	0.516
704.000	424.321	80.009	19.995	103.238	19.935	6.849	0.482
712.000	428.362	80.010	19.994	103.193	19.972	4.289	0.535
720.000	432.327	80.011	19.995	103.236	20.004	2.095	0.524
728.000	436.455	80.009	19.995	103.232	20.022	0.922	0.505
736.000	440.572	80.008	19.994	103.222	20.031	0.249	0.507
744.000	444.660	80.007	19.994	103.221	20.039	-0.253	0.505
752.000	448.748	80.009	19.995	103.236	20.046	-0.770	0.488
760.000	452.838	80.008	19.995	103.226	20.048	-0.898	0.503
768.001	456.950	80.009	19.995	103.224	20.047	-0.806	0.485
776.000	461.054	80.010	19.994	103.241	20.051	-1.074	0.503
784.000	465.101	80.010	19.995	103.242	20.058	-1.568	0.479
792.000	469.231	80.008	19.995	103.221	20.065	-2.065	0.500
800.000	473.264	80.010	19.995	103.208	20.066	-2.130	0.508
808.000	477.374	80.010	19.995	103.229	20.072	-2.517	0.511
816.001	481.439	80.008	19.995	103.223	20.081	-3.157	0.505
824.000	485.464	80.008	19.995	103.225	20.087	-3.568	0.515
832.000	489.558	80.010	19.996	103.217	20.095	-4.120	0.538
840.000	493.704	80.009	19.994	103.208	20.101	-4.476	0.554
848.000	497.777	80.010	19.995	103.219	20.101	-4.492	0.533
856.000	501.864	80.010	19.996	103.231	20.112	-5.244	0.552
864.000	505.946	80.012	19.995	103.212	20.115	-5.465	0.527
872.000	510.045	80.010	19.994	103.220	20.119	-5.725	0.502
880.000	514.180	80.010	19.996	103.210	20.125	-6.110	0.519
888.000	518.353	80.009	19.994	103.206	20.125	-6.143	0.510
896.000	522.474	80.009	19.994	103.212	20.127	-6.245	0.510
904.000	526.605	80.009	19.996	103.210	20.128	-6.375	0.502
912.001	530.764	80.010	19.994	103.209	20.134	-6.770	0.508
920.000	534.910	80.009	19.993	103.214	20.133	-6.686	0.508
928.000	539.021	80.008	19.994	103.211	20.136	-6.858	0.526
936.000	543.079	80.009	19.995	103.217	20.134	-6.762	0.528
944.000	547.102	80.010	19.995	103.207	20.141	-7.229	0.510
952.000	551.145	80.007	19.995	103.211	20.134	-6.768	0.511
960.000	555.309	80.010	19.995	103.208	20.144	-7.453	0.546
968.000	559.409	80.011	19.995	103.206	20.139	-7.086	0.536
976.000	563.543	80.008	19.995	103.207	20.139	-7.084	0.511
984.000	567.614	80.007	19.995	103.212	20.141	-7.260	0.522
992.000	571.749	80.008	19.995	103.209	20.139	-7.060	0.519
1000.000	575.849	80.008	19.994	103.214	20.142	-7.269	0.478
1008.000	579.959	80.009	19.995	103.208	20.145	-7.499	0.483
1016.000	584.026	80.010	19.996	103.208	20.149	-7.776	0.482
1024.001	588.100	80.010	19.994	103.207	20.143	-7.393	0.522
1032.000	592.160	80.010	19.994	103.214	20.146	-7.566	0.526
1040.000	596.248	80.010	19.993	103.263	20.148	-7.703	0.517
1048.000	600.287	80.012	19.995	103.219	20.152	-7.977	0.509
1056.000	604.365	80.010	19.995	103.206	20.148	-7.720	0.492
1064.000	608.424	80.008	19.995	103.213	20.152	-7.957	0.476
1072.000	612.498	80.008	19.996	103.213	20.154	-8.137	0.526
1080.000	616.651	80.009	19.996	103.205	20.154	-8.118	0.508
1088.000	620.696	80.009	19.995	103.207	20.153	-8.030	0.492
1096.000	624.804	80.009	19.995	103.215	20.153	-8.049	0.502
1104.000	628.845	80.011	19.994	103.210	20.152	-7.967	0.492
1112.000	632.899	80.010	19.995	103.227	20.151	-7.910	0.511
1120.000	636.974	80.012	19.994	103.237	20.152	-7.979	0.510
1128.001	640.994	80.013	19.994	103.228	20.155	-8.162	0.507
1136.000	644.992	80.009	19.995	103.235	20.155	-8.158	0.518
1144.000	649.010	80.009	19.995	103.245	20.155	-8.179	0.520
1152.000	653.057	80.008	19.996	103.241	20.157	-8.347	0.520
1160.001	657.119	80.008	19.995	103.254	20.154	-8.131	0.504
1168.000	661.209	80.008	19.997	103.252	20.157	-8.317	0.556
1176.000	665.136	80.007	19.995	103.263	20.154	-8.155	0.497
1184.000	669.158	80.011	19.994	103.262	20.151	-7.916	0.510
1192.000	673.159	80.009	19.994	103.271	20.154	-8.117	0.491
1200.000	677.244	80.009	19.995	103.287	20.151	-7.926	0.521
1208.001	681.292	80.012	19.995	103.287	20.151	-7.913	0.499
1216.000	685.349	80.011	19.994	103.301	20.150	-7.836	0.512
1224.001	689.402	80.010	19.994	103.308	20.147	-7.645	0.509
1232.000	693.443	80.008	19.996	103.297	20.146	-7.588	0.512
1240.001	697.463	80.010	19.995	103.326	20.146	-7.602	0.513
1248.000	701.546	80.008	19.995	103.337	20.143	-7.372	0.509
1256.001	705.551	80.008	19.996	103.355	20.143	-7.370	0.518
1264.000	709.575	80.008	19.995	103.364	20.146	-7.575	0.524
1272.000	713.567	80.009	19.995	103.365	20.142	-7.279	0.507
1280.000	717.594	80.008	19.995	103.398	20.139	-7.105	0.496
1288.001	721.608	80.013	19.994	103.400	20.141	-7.222	0.487
1296.000	725.637	80.010	19.994	103.419	20.134	-6.794	0.502
1304.000	729.642	80.008	19.995	103.427	20.131	-6.535	0.511
1312.000	733.669	80.009	19.995	103.455	20.128	-6.369	0.533
1320.000	737.702	80.008	19.994	103.458	20.129	-6.420	0.509
1328.000	741.731	80.008	19.996	103.480	20.127	-6.300	0.516
1331.500	743.466	80.007	19.996	103.483	20.127	-6.306	0.503