Folder: fsri_materials_database/01_Data/Hemp_Sheet/STA/N2/10K_min

Note: 01_Data/README.md
# Materials and Products Database
## 01_Data

Raw data generated from each apparatus are included here in plain-text format. The data is organized first by material, next by the short name of test apparatus used, and where applicable additional filtering by test settings.

### material.json

Each material directory contains a json file of the same name as the material. This file links the data stored in the repository as well as data and graphs produced by the accompanying scripts (__02_Scripts__) to the respective landing page for the material on the front-end website.

File: Hemp_Sheet_STA_N2_10KData_22264_R1.csv
##Temp./Â°C,Time/min,DSC(subtr.2)/(mW/mg),Mass loss(subtr.2)/mg,Sensit./(uV/mW)
49.771,10.00917,0.01202057,-0.02237,1.0605
53.071,11.33812,0.11038,-0.02262213,1.05982
56.371,11.79999,0.16062,-0.02333073,1.05911
59.671,12.19593,0.19112,-0.02421595,1.05838
62.971,12.56736,0.21138,-0.02534328,1.05764
66.271,12.92797,0.22492,-0.02533926,1.05687
69.571,13.2824,0.23779,-0.02666536,1.05608
72.871,13.6312,0.25022,-0.02800926,1.05527
76.171,13.9782,0.26226,-0.02915371,1.05445
79.471,14.32135,0.27331,-0.03181,1.0536
82.771,14.6593,0.28181,-0.03181,1.05273
86.071,14.99545,0.28946,-0.03459421,1.05185
89.371,15.3279,0.2903,-0.03762374,1.05094
92.671,15.6581,0.29106,-0.03839,1.05001
95.971,15.9852,0.28897,-0.03967425,1.04907
99.271,16.31237,0.28688,-0.04101885,1.04811
102.571,16.6371,0.28318,-0.04135001,1.04712
105.871,16.9598,0.28064,-0.04232996,1.04612
109.171,17.28305,0.27819,-0.04234052,1.0451
112.471,17.60475,0.27738,-0.04233151,1.04406
115.771,17.92606,0.27321,-0.04355017,1.043
119.071,18.24793,0.27319,-0.04354,1.04192
122.371,18.56832,0.2743,-0.04441413,1.04083
125.671,18.8894,0.27347,-0.04113328,1.03971
128.971,19.20969,0.27677,-0.04083222,1.03858
132.271,19.52948,0.27708,-0.04179446,1.03743
135.571,19.84832,0.27878,-0.04145716,1.03626
138.871,20.16704,0.28157,-0.04047003,1.03507
142.171,20.48469,0.2866,-0.04041584,1.03386
145.471,20.80237,0.29004,-0.04177883,1.03264
148.771,21.12027,0.2939,-0.03916037,1.03139
152.071,21.43721,0.29808,-0.03917087,1.03013
155.371,21.75323,0.30007,-0.03916102,1.02886
158.671,22.06956,0.30494,-0.04049067,1.02756
161.971,22.38591,0.30855,-0.03777504,1.02625
165.271,22.7014,0.31232,-0.03872,1.02492
168.571,23.0176,0.31504,-0.03870195,1.02357
171.871,23.33399,0.32116,-0.03805954,1.02221
175.171,23.6498,0.32423,-0.0393769,1.02083
178.471,23.96572,0.32801,-0.04037,1.01943
181.771,24.28154,0.3293,-0.04044577,1.01801
185.071,24.59701,0.33525,-0.03970684,1.01658
188.371,24.91129,0.3378,-0.03839,1.01513
191.671,25.2253,0.34056,-0.04017358,1.01367
194.971,25.54102,0.34565,-0.04054703,1.01218
198.271,25.85499,0.34984,-0.04013959,1.01069
201.571,26.16902,0.35197,-0.04278114,1.00917
204.871,26.48408,0.35143,-0.04276901,1.00764
208.171,26.7992,0.35305,-0.04343,1.00609
211.471,27.11383,0.35487,-0.04343999,1.00453
214.771,27.4278,0.35799,-0.04474998,1.00295
218.071,27.74287,0.36337,-0.04574,1.00136
221.371,28.05728,0.36665,-0.04607011,0.99975
224.671,28.37146,0.3688,-0.04969318,0.99812
227.971,28.6856,0.37105,-0.04936,0.99648
231.271,29.00057,0.37064,-0.05198996,0.99483
234.571,29.31492,0.37395,-0.05366382,0.99315
237.871,29.62968,0.37923,-0.05429275,0.99147
241.171,29.94482,0.38253,-0.05724915,0.98977
244.471,30.2591,0.38355,-0.06021581,0.98805
247.771,30.57333,0.38502,-0.06283582,0.98632
251.071,30.88818,0.39086,-0.06406001,0.98457
254.371,31.2032,0.39515,-0.06922544,0.98281
257.671,31.51796,0.40096,-0.07327004,0.98104
260.971,31.8331,0.40292,-0.0762396,0.97925
264.271,32.14767,0.40752,-0.08191553,0.97745
267.571,32.46284,0.41133,-0.08884031,0.97563
270.871,32.77858,0.41285,-0.09466773,0.9738
274.171,33.09303,0.41641,-0.10111,0.97195
277.471,33.40837,0.4205,-0.10467,0.97009
280.771,33.72314,0.42535,-0.1173,0.96822
284.071,34.03819,0.42826,-0.1234,0.96633
287.371,34.35395,0.43381,-0.13575,0.96443
290.671,34.66973,0.43474,-0.14511,0.96252
293.971,34.9863,0.44144,-0.15794,0.96059
297.271,35.30284,0.44657,-0.17122,0.95865
300.571,35.61808,0.45417,-0.18648,0.9567
303.871,35.93528,0.46311,-0.20317,0.95473
307.171,36.25305,0.47538,-0.22275,0.95276
310.471,36.56949,0.48867,-0.24529,0.95076
313.771,36.88658,0.50831,-0.27284,0.94876
317.071,37.20328,0.52593,-0.30174,0.94674
320.371,37.52053,0.54872,-0.33476,0.94471
323.671,37.83743,0.5774,-0.37246,0.94267
326.971,38.1552,0.61136,-0.42008,0.94062
330.271,38.4729,0.65195,-0.47102,0.93855
333.571,38.79079,0.70124,-0.53014,0.93648
336.871,39.1093,0.75847,-0.60299,0.93439
340.171,39.42893,0.82909,-0.68491,0.93229
343.471,39.74949,0.9133,-0.7801,0.93017
346.771,40.06978,1.01943,-0.89247,0.92805
350.071,40.3901,1.14228,-1.02363,0.92591
353.371,40.71096,1.29644,-1.18189,0.92377
356.671,41.0319,1.46226,-1.36624,0.92161
359.971,41.35414,1.6418,-1.58128,0.91944
363.271,41.67606,1.79814,-1.82285,0.91726
366.571,41.9974,1.90139,-2.0861,0.91507
369.871,42.31923,1.90108,-2.35863,0.91287
373.171,42.63932,1.75951,-2.62041,0.91065
376.471,42.95783,1.45171,-2.8424,0.90843
379.771,43.27541,1.01895,-3.01009,0.9062
383.071,43.59065,0.58738,-3.1139,0.90395
386.371,43.90609,0.2735,-3.16278,0.9017
389.671,44.22306,0.12351,-3.18299,0.89943
392.971,44.54143,0.07576384,-3.19377,0.89716
396.271,44.86184,0.06036679,-3.19817,0.89488
399.571,45.18229,0.05743241,-3.20217,0.89258
402.871,45.50345,0.05446332,-3.20694,0.89028
406.171,45.826,0.05101262,-3.21,0.88796
409.471,46.1479,0.05054103,-3.21503,0.88564
412.771,46.47012,0.05019216,-3.21863,0.88331
416.071,46.7923,0.04621961,-3.22126,0.88097
419.371,47.11545,0.04630588,-3.2245,0.87862
422.671,47.43844,0.04270706,-3.22916,0.87626
425.971,47.76178,0.04365661,-3.23146,0.87389
429.271,48.08599,0.04068511,-3.23443,0.87151
432.571,48.4094,0.04111906,-3.23957,0.86912
435.871,48.73298,0.03879886,-3.24235,0.86673
439.171,49.05673,0.03970536,-3.24595,0.86432
442.471,49.381,0.03872127,-3.25136,0.86191
445.771,49.70486,0.03785947,-3.2539,0.85949
449.071,50.02872,0.03990194,-3.2557,0.85706
452.371,50.35203,0.03778832,-3.25965,0.85463
455.671,50.67615,0.0385395,-3.26228,0.85218
458.971,51.00018,0.0381131,-3.26623,0.84973
462.271,51.3247,0.03562502,-3.26885,0.84727
465.571,51.6493,0.03681365,-3.27314,0.8448
468.871,51.97462,0.03659655,-3.27446,0.84232
472.171,52.30001,0.03378054,-3.27709,0.83984
475.471,52.6257,0.03310556,-3.28085,0.83735
478.771,52.9519,0.03274161,-3.28223,0.83485
482.071,53.277,0.04148471,-3.28429,0.83235
485.371,53.60035,0.0570201,-3.28915,0.82983
488.671,53.92561,0.0633237,-3.29168,0.82732
491.971,54.2533,0.06720438,-3.29168,0.82479
495.271,54.579,0.06413499,-3.29563,0.82226
498.571,54.90634,0.05835959,-3.29695,0.81972
501.871,55.23285,0.06056011,-3.29891,0.81717
505.171,55.5595,0.06093273,-3.30089,0.81462
508.471,55.8861,0.0546614,-3.30462,0.81206
511.771,56.21317,0.03829494,-3.30396,0.80949
515.071,56.5408,0.02624007,-3.30813,0.80692
518.371,56.86949,0.02229786,-3.31252,0.80434
521.671,57.19698,0.0145605,-3.31036,0.80176
524.971,57.5252,0.009731735,-3.31262,0.79917
528.271,57.8532,-0.0004778593,-3.3123,0.79657
531.571,58.1811,-0.01130143,-3.31493,0.79397
534.871,58.50889,-0.01603533,-3.31822,0.79137
538.171,58.83636,-0.01764857,-3.31855,0.78875
541.471,59.16451,-0.01732293,-3.3202,0.78614
544.771,59.49296,-0.0223546,-3.32082,0.78351
548.071,59.82176,-0.01710764,-3.32348,0.78088
551.371,60.15051,-0.02429202,-3.32414,0.77825
554.671,60.47931,-0.0283544,-3.32579,0.77561
557.971,60.8078,-0.0304449,-3.32777,0.77297
561.271,61.1375,-0.0340847,-3.32644,0.77032
564.571,61.4677,-0.03305657,-3.33009,0.76767
567.871,61.7982,-0.03679145,-3.32941,0.76501
571.171,62.12805,-0.04202443,-3.33197,0.76235
574.471,62.4581,-0.04202341,-3.33336,0.75968
577.771,62.78787,-0.04183387,-3.33467,0.75701
581.071,63.1172,-0.04452659,-3.33305,0.75434
584.371,63.4474,-0.0462679,-3.33435,0.75166
587.671,63.7779,-0.04555555,-3.33599,0.74898
590.971,64.10835,-0.05391184,-3.33665,0.74629
594.271,64.4392,-0.05117174,-3.33797,0.7436
597.571,64.77025,-0.05269023,-3.33798,0.7409
600.871,65.10087,-0.05694435,-3.3406,0.73821
604.171,65.43114,-0.05836988,-3.3412,0.7355
607.471,65.76266,-0.05789549,-3.34157,0.7328
610.771,66.09405,-0.05834061,-3.34159,0.73009
614.071,66.4246,-0.05943544,-3.34133,0.72738
617.371,66.75514,-0.05675958,-3.34286,0.72466
620.671,67.08623,-0.05985176,-3.3429,0.72195
623.971,67.4174,-0.06303315,-3.3442,0.71922
627.271,67.74848,-0.06003073,-3.34292,0.7165
630.571,68.0812,-0.06073791,-3.34558,0.71377
633.871,68.41351,-0.05819985,-3.34795,0.71104
637.171,68.74598,-0.06420193,-3.34529,0.70831
640.471,69.07687,-0.06404605,-3.34721,0.70558
643.771,69.40805,-0.06584992,-3.34861,0.70284
647.071,69.73957,-0.06223147,-3.34828,0.7001
650.371,70.07168,-0.05680012,-3.34828,0.69736
653.671,70.40361,-0.06070693,-3.35058,0.69462
656.971,70.73524,-0.06250915,-3.35048,0.69187
660.271,71.06801,-0.05758747,-3.35058,0.68912
663.571,71.3998,-0.06466807,-3.3519,0.68637
666.871,71.7319,-0.0651762,-3.34992,0.68362
670.171,72.06397,-0.06632169,-3.35057,0.68087
673.471,72.3968,-0.0676344,-3.35219,0.67811
676.771,72.72923,-0.06694477,-3.35222,0.67536
680.071,73.0618,-0.06396857,-3.3522,0.6726
683.371,73.39347,-0.05977398,-3.35354,0.66984
686.671,73.7257,-0.06222922,-3.35454,0.66708
689.971,74.05848,-0.06691746,-3.35321,0.66432
693.271,74.392,-0.05824015,-3.35453,0.66155
696.571,74.72576,-0.05487456,-3.35585,0.65879
699.871,75.06022,-0.05690905,-3.35453,0.65602
703.171,75.39447,-0.0516328,-3.35489,0.65326
706.471,75.72841,-0.05577643,-3.35486,0.65049
709.771,76.0612,-0.05753769,-3.35453,0.64773
713.071,76.39455,-0.05799521,-3.35818,0.64496
716.371,76.72873,-0.05560961,-3.35815,0.64219
719.671,77.06321,-0.05559049,-3.35775,0.63942
722.971,77.39658,-0.06095742,-3.35643,0.63665
726.271,77.7317,-0.06290152,-3.35908,0.63388
729.571,78.06737,-0.06398848,-3.35815,0.63112
732.871,78.40117,-0.06381392,-3.35881,0.62835
736.171,78.7339,-0.0580641,-3.35913,0.62558
739.471,79.06786,-0.06100474,-3.35914,0.62281
742.771,79.4028,-0.05590068,-3.3609,0.62004
746.071,79.7371,-0.05871887,-3.3609,0.61727
749.371,80.07036,-0.0547163,-3.36089,0.6145
752.671,80.4053,-0.05914406,-3.36089,0.61174
755.971,80.73947,-0.05811723,-3.36089,0.60897
759.271,81.0733,-0.06346694,-3.36221,0.6062
762.571,81.4078,-0.05858043,-3.36083,0.60344
765.871,81.74211,-0.06217723,-3.3597,0.60067
769.171,82.07664,-0.0653307,-3.36122,0.59791
772.471,82.41303,-0.05841492,-3.36092,0.59515
775.771,82.74856,-0.05993368,-3.36221,0.59238
779.071,83.0823,-0.06372282,-3.36451,0.58962
782.371,83.4165,-0.05570661,-3.36363,0.58686
785.671,83.75089,-0.05932798,-3.36504,0.58411
788.971,84.08534,-0.05604209,-3.36589,0.58135
792.271,84.42054,-0.05771251,-3.36406,0.57859
795.571,84.75596,-0.05439072,-3.36544,0.57584
797.871,84.98947,-0.05151987,-3.36453,0.57392