Folder: fsri_materials_database/01_Data/Hemp_Sheet/STA/N2/30K_min (part 2)

File: Hemp_Sheet_STA_N2_30KData_22284_R3.csv
##Temp./Â°C,Time/min,DSC(subtr.2)/(mW/mg),Mass loss(subtr.2)/mg,Sensit./(uV/mW)
48.566,10.01,0.005309436,-0.00219,1.07503
51.766,10.88325,0.15658,-0.00411802,1.07361
54.966,11.11731,0.2607,-0.003375383,1.07219
58.166,11.29682,0.35113,-0.00493763,1.07075
61.366,11.452,0.41954,-0.004947674,1.06931
64.566,11.59265,0.47475,-0.003700464,1.06785
67.766,11.72446,0.52449,-0.005146798,1.06638
70.966,11.85024,0.56862,-0.00362544,1.06489
74.166,11.97184,0.60468,-0.003856296,1.0634
77.366,12.09022,0.64209,-0.00657363,1.0619
80.566,12.20589,0.67501,-0.003734286,1.06039
83.766,12.32029,0.70531,-0.003714002,1.05886
86.966,12.43225,0.73396,-0.00368003,1.05733
90.166,12.54307,0.76174,-0.00561036,1.05578
93.366,12.653,0.78649,-0.008548068,1.05422
96.566,12.76181,0.81233,-0.008552312,1.05266
99.766,12.8699,0.83518,-0.008549987,1.05108
102.966,12.9777,0.85502,-0.008889751,1.0495
106.166,13.08497,0.87395,-0.01020327,1.0479
109.366,13.1922,0.8887,-0.01119809,1.04629
112.566,13.29928,0.89869,-0.01249998,1.04468
115.766,13.4057,0.90769,-0.0125069,1.04305
118.966,13.51186,0.9129,-0.01114099,1.04142
122.166,13.61749,0.91733,-0.01323602,1.03977
125.366,13.723,0.91948,-0.01264049,1.03812
128.566,13.82749,0.9244,-0.0132431,1.03646
131.766,13.93188,0.92632,-0.01249993,1.03478
134.966,14.03514,0.93344,-0.01408781,1.0331
138.166,14.1387,0.93676,-0.01644997,1.03141
141.366,14.2416,0.9453,-0.01566218,1.02972
144.566,14.3436,0.95329,-0.01645402,1.02801
147.766,14.44551,0.96275,-0.01644335,1.02629
150.966,14.54705,0.97245,-0.01645249,1.02457
154.166,14.64826,0.98266,-0.01514087,1.02283
157.366,14.74901,0.99335,-0.01642608,1.02109
160.566,14.8499,1.00585,-0.01711,1.01934
163.766,14.9502,1.01826,-0.01645,1.01758
166.966,15.0505,1.02845,-0.01645,1.01582
170.166,15.1503,1.04288,-0.0151288,1.01404
173.366,15.25,1.05536,-0.01645011,1.01226
176.566,15.3496,1.06513,-0.01514295,1.01047
179.766,15.4486,1.08026,-0.0177953,1.00868
182.966,15.5473,1.09341,-0.01515003,1.00687
186.166,15.64584,1.10588,-0.01642862,1.00506
189.366,15.74417,1.118,-0.01621458,1.00324
192.566,15.8422,1.13121,-0.01640716,1.00141
195.766,15.94019,1.14226,-0.01842662,0.99957
198.966,16.03783,1.15632,-0.01875099,0.99773
202.166,16.13554,1.1666,-0.01776326,0.99588
205.366,16.2331,1.17819,-0.01908129,0.99403
208.566,16.3306,1.1882,-0.0177698,0.99216
211.766,16.42807,1.20002,-0.01841962,0.99029
214.966,16.52542,1.21334,-0.01937596,0.98841
218.166,16.6223,1.22288,-0.01974,0.98653
221.366,16.7197,1.23058,-0.02105478,0.98464
224.566,16.81673,1.24288,-0.02240445,0.98274
227.766,16.91364,1.25256,-0.02302977,0.98084
230.966,17.0106,1.2634,-0.0243399,0.97893
234.166,17.10722,1.27264,-0.02434004,0.97701
237.366,17.204,1.28161,-0.02565723,0.97509
240.566,17.30087,1.29096,-0.02600016,0.97316
243.766,17.39757,1.29791,-0.02862043,0.97122
246.966,17.49411,1.30618,-0.03114933,0.96928
250.166,17.59059,1.31693,-0.03224661,0.96733
253.366,17.68721,1.3258,-0.03441978,0.96538
256.566,17.7838,1.33054,-0.03810968,0.96342
259.766,17.88018,1.33632,-0.04103677,0.96145
262.966,17.97687,1.34268,-0.04333734,0.95948
266.166,18.07317,1.34767,-0.04738729,0.9575
269.366,18.16964,1.35689,-0.0492269,0.95552
272.566,18.26611,1.35922,-0.05359807,0.95353
275.766,18.36235,1.37161,-0.05722698,0.95154
278.966,18.45893,1.37759,-0.0612587,0.94954
282.166,18.55542,1.38581,-0.06494646,0.94753
285.366,18.65198,1.39329,-0.07077927,0.94552
288.566,18.74865,1.40373,-0.07822011,0.9435
291.766,18.8453,1.41481,-0.08482836,0.94148
294.966,18.94184,1.42666,-0.0927927,0.93946
298.166,19.0386,1.43881,-0.10241,0.93743
301.366,19.13547,1.45142,-0.11288,0.93539
304.566,19.232,1.4641,-0.12034,0.93335
307.766,19.32881,1.47644,-0.12944,0.9313
310.966,19.42559,1.49181,-0.13947,0.92925
314.166,19.52245,1.5057,-0.1508,0.92719
317.366,19.6192,1.52473,-0.16429,0.92513
320.566,19.71615,1.54553,-0.18077,0.92306
323.766,19.81322,1.5735,-0.19663,0.92099
326.966,19.91025,1.59972,-0.21327,0.91892
330.166,20.00749,1.6373,-0.23539,0.91684
333.366,20.10482,1.68161,-0.26168,0.91475
336.566,20.20221,1.73353,-0.28926,0.91266
339.766,20.29972,1.80052,-0.32255,0.91057
342.966,20.39719,1.87821,-0.36285,0.90847
346.166,20.49512,1.96926,-0.4055,0.90637
349.366,20.5928,2.0771,-0.45516,0.90426
352.566,20.69075,2.20475,-0.51108,0.90215
355.766,20.7889,2.35832,-0.57829,0.90003
358.966,20.88729,2.5341,-0.65237,0.89791
362.166,20.9857,2.73912,-0.74112,0.89579
365.366,21.0842,2.97745,-0.83824,0.89366
368.566,21.18315,3.24965,-0.95948,0.89153
371.766,21.28214,3.55717,-1.09594,0.88939
374.966,21.38137,3.89794,-1.25364,0.88725
378.166,21.48079,4.26304,-1.42881,0.88511
381.366,21.58045,4.63062,-1.62718,0.88296
384.566,21.6803,4.9646,-1.8456,0.88081
387.766,21.78019,5.22194,-2.08226,0.87865
390.966,21.88031,5.33014,-2.34428,0.87649
394.166,21.98035,5.22845,-2.58675,0.87433
397.366,22.07989,4.85857,-2.81674,0.87216
400.566,22.17934,4.17624,-3.00844,0.86999
403.766,22.27807,3.24167,-3.16895,0.86781
406.966,22.3764,2.24216,-3.27195,0.86563
410.166,22.47413,1.39481,-3.32914,0.86345
413.366,22.5722,0.85809,-3.35225,0.86126
416.566,22.67032,0.5894,-3.36322,0.85908
419.766,22.76855,0.46212,-3.37004,0.85688
422.966,22.86729,0.39891,-3.37405,0.85469
426.166,22.96641,0.36867,-3.37766,0.85248
429.366,23.0659,0.34963,-3.37898,0.85028
432.566,23.1655,0.33677,-3.38477,0.84807
435.766,23.26539,0.3286,-3.38937,0.84586
438.966,23.36573,0.32024,-3.3943,0.84365
442.166,23.46605,0.31426,-3.39877,0.84143
445.366,23.56652,0.30899,-3.40228,0.83921
448.566,23.6673,0.30676,-3.4058,0.83699
451.766,23.76812,0.30149,-3.41005,0.83476
454.966,23.86904,0.29731,-3.41192,0.83253
458.166,23.96989,0.28758,-3.41616,0.8303
461.366,24.07132,0.28671,-3.42003,0.82806
464.566,24.17259,0.28435,-3.42393,0.82582
467.766,24.27376,0.28064,-3.42734,0.82358
470.966,24.3754,0.28232,-3.42923,0.82133
474.166,24.47702,0.28342,-3.43408,0.81908
477.366,24.57861,0.27834,-3.43699,0.81683
480.566,24.68054,0.28284,-3.44021,0.81458
483.766,24.7824,0.27993,-3.44451,0.81232
486.966,24.88443,0.27861,-3.44644,0.81006
490.166,24.9866,0.28085,-3.44905,0.80779
493.366,25.0888,0.27937,-3.45095,0.80553
496.566,25.1909,0.27755,-3.45466,0.80326
499.766,25.2933,0.27619,-3.45724,0.80099
502.966,25.39565,0.27797,-3.46136,0.79871
506.166,25.49812,0.2819,-3.46406,0.79643
509.366,25.6007,0.28377,-3.46646,0.79415
512.566,25.70319,0.28095,-3.46924,0.79187
515.766,25.8059,0.28012,-3.47068,0.78958
518.966,25.9085,0.27977,-3.47201,0.78729
522.166,26.01138,0.27918,-3.47331,0.785
525.366,26.1142,0.27793,-3.47586,0.78271
528.566,26.21715,0.27984,-3.47859,0.78041
531.766,26.3201,0.27802,-3.48023,0.77811
534.966,26.42349,0.2863,-3.48402,0.77581
538.166,26.52672,0.29637,-3.48397,0.7735
541.366,26.62994,0.30863,-3.48791,0.77119
544.566,26.7332,0.32011,-3.48685,0.76888
547.766,26.8366,0.32112,-3.48791,0.76657
550.966,26.9403,0.32408,-3.49053,0.76426
554.166,27.04397,0.31754,-3.49072,0.76194
557.366,27.1477,0.31701,-3.49188,0.75962
560.566,27.2515,0.31198,-3.49449,0.7573
563.766,27.35538,0.30333,-3.49584,0.75497
566.966,27.45945,0.29362,-3.49712,0.75264
570.166,27.5635,0.28785,-3.4991,0.75031
573.366,27.6677,0.28482,-3.5004,0.74798
576.566,27.77184,0.28079,-3.50173,0.74565
579.766,27.8762,0.2772,-3.50238,0.74331
582.966,27.98072,0.26723,-3.50372,0.74097
586.166,28.0852,0.26405,-3.50496,0.73863
589.366,28.1897,0.26024,-3.50764,0.73629
592.566,28.29431,0.25478,-3.50935,0.73394
595.766,28.39893,0.24695,-3.51029,0.7316
598.966,28.50393,0.23995,-3.51214,0.72925
602.166,28.60872,0.23265,-3.51147,0.7269
605.366,28.71351,0.22622,-3.51017,0.72454
608.566,28.81865,0.22029,-3.51017,0.72219
611.766,28.9235,0.21658,-3.51149,0.71983
614.966,29.0384,0.21343,-3.51412,0.71747
618.166,29.14351,0.20896,-3.51412,0.71511
621.366,29.2486,0.20861,-3.51669,0.71274
624.566,29.35385,0.20741,-3.5171,0.71038
627.766,29.45914,0.20378,-3.51676,0.70801
630.966,29.56435,0.2014,-3.5193,0.70564
634.166,29.6698,0.20045,-3.51807,0.70327
637.366,29.7752,0.2016,-3.51806,0.70089
640.566,29.88043,0.20051,-3.52092,0.69852
643.766,29.98619,0.20086,-3.52223,0.69614
646.966,30.0916,0.20164,-3.52223,0.69376
650.166,30.19728,0.20092,-3.52092,0.69138
653.366,30.30275,0.20494,-3.52448,0.689
656.566,30.40878,0.20546,-3.52486,0.68662
659.766,30.5144,0.20611,-3.52617,0.68423
662.966,30.6201,0.21012,-3.52618,0.68185
666.166,30.72581,0.21248,-3.52766,0.67946
669.366,30.83186,0.20771,-3.52779,0.67707
672.566,30.9374,0.21154,-3.52958,0.67468
675.766,31.0435,0.20946,-3.52865,0.67228
678.966,31.1491,0.20903,-3.52834,0.66989
682.166,31.25527,0.21099,-3.52858,0.66749
685.366,31.3612,0.2095,-3.52996,0.6651
688.566,31.4672,0.21128,-3.52991,0.6627
691.766,31.57333,0.20841,-3.53123,0.6603
694.966,31.6795,0.20859,-3.5299,0.6579
698.166,31.7858,0.20655,-3.52987,0.65549
701.366,31.8922,0.20702,-3.53171,0.65309
704.566,31.9985,0.20428,-3.53123,0.65069
707.766,32.1049,0.20268,-3.53124,0.64828
710.966,32.21123,0.19853,-3.53057,0.64587
714.166,32.31771,0.20049,-3.53191,0.64346
717.366,32.42433,0.19851,-3.53453,0.64105
720.566,32.53082,0.19814,-3.53319,0.63864
723.766,32.63751,0.19075,-3.53457,0.63623
726.966,32.7442,0.18719,-3.5365,0.63382
730.166,32.85089,0.18036,-3.53518,0.63141
733.366,32.95755,0.17819,-3.53649,0.62899
736.566,33.0642,0.17867,-3.53922,0.62658
739.766,33.17096,0.17478,-3.53912,0.62416
742.966,33.27765,0.1728,-3.53913,0.62174
746.166,33.38413,0.16649,-3.53909,0.61933
749.366,33.4908,0.16536,-3.5365,0.61691
752.566,33.59806,0.16347,-3.53519,0.61449
755.766,33.70491,0.15926,-3.53648,0.61207
758.966,33.812,0.15819,-3.53894,0.60965
762.166,33.91863,0.14951,-3.54047,0.60723
765.366,34.0257,0.14984,-3.53759,0.60481
768.566,34.13279,0.14213,-3.53781,0.60239
771.766,34.23993,0.14115,-3.53891,0.59996
774.966,34.34686,0.14063,-3.54023,0.59754
778.166,34.4542,0.13917,-3.54249,0.59512
781.366,34.56154,0.14204,-3.54162,0.5927
784.566,34.66891,0.14062,-3.54159,0.59027
787.766,34.776,0.1413,-3.54286,0.58785
790.966,34.88304,0.14008,-3.54385,0.58542
794.166,34.99078,0.13866,-3.54385,0.583
794.366,34.9974,0.13947,-3.54385,0.58285