Folder: fsri_materials_database/01_Data/Hemp_Sheet/STA/N2/30K_min

Note: 01_Data/README.md
# Materials and Products Database
## 01_Data

Raw data generated from each apparatus are included here in plain-text format. The data is organized first by material, next by the short name of test apparatus used, and where applicable additional filtering by test settings.

### material.json

Each material directory contains a json file of the same name as the material. This file links the data stored in the repository as well as data and graphs produced by the accompanying scripts (__02_Scripts__) to the respective landing page for the material on the front-end website.

File: Hemp_Sheet_STA_N2_30KData_22284_R1.csv
##Temp./Â°C,Time/min,DSC(subtr.2)/(mW/mg),Mass loss(subtr.2)/mg,Sensit./(uV/mW)
48.602,10.01,0.009439403,0.00483,1.07501
51.802,10.88378,0.1757,0.006861439,1.0736
55.002,11.118,0.28933,0.008474311,1.07217
58.202,11.29767,0.38372,0.007678902,1.07074
61.402,11.45245,0.45824,0.002840247,1.06929
64.602,11.59356,0.51788,0.006313806,1.06783
67.802,11.72542,0.57286,0.00753537,1.06636
71.002,11.8515,0.62161,0.007079105,1.06488
74.202,11.97345,0.66641,0.00706144,1.06339
77.402,12.09191,0.70463,0.009350685,1.06188
80.602,12.2082,0.74452,0.0075404,1.06037
83.802,12.3222,0.77711,0.00473892,1.05884
87.002,12.4346,0.81379,0.004463318,1.05731
90.202,12.5458,0.84269,0.005313659,1.05576
93.402,12.6555,0.87175,0.00582781,1.05421
96.602,12.76491,0.89701,0.004550546,1.05264
99.802,12.8733,0.91746,0.002930818,1.05106
103.002,12.9811,0.94128,0.0003388038,1.04948
106.202,13.08882,0.95819,-0.00229855,1.04788
109.402,13.19604,0.96757,0.0003195291,1.04628
112.602,13.30303,0.98022,0.0003716664,1.04466
115.802,13.40991,0.98531,-0.00230008,1.04303
119.002,13.5161,0.98893,-0.000981962,1.0414
122.202,13.6219,0.98999,-0.003328082,1.03975
125.402,13.72741,0.98977,-0.00251917,1.0381
128.602,13.83213,0.98982,-0.00307742,1.03644
131.802,13.93629,0.99197,-0.004919889,1.03477
135.002,14.04013,0.99956,-0.00625772,1.03308
138.202,14.1431,1.0063,-0.00887794,1.03139
141.402,14.24594,1.01174,-0.007891819,1.0297
144.602,14.34804,1.02119,-0.008885502,1.02799
147.802,14.4497,1.03107,-0.006237347,1.02627
151.002,14.55137,1.03924,-0.004924695,1.02455
154.202,14.6523,1.05304,-0.004868919,1.02281
157.402,14.7532,1.0662,-0.00492999,1.02107
160.602,14.85375,1.07982,-0.003651841,1.01932
163.802,14.9543,1.09016,-0.002300005,1.01757
167.002,15.05437,1.10532,-0.0023,1.0158
170.202,15.1543,1.11897,-0.003069475,1.01402
173.402,15.2539,1.13372,-0.00358827,1.01224
176.602,15.35321,1.14809,-0.00276623,1.01045
179.802,15.4524,1.16695,-0.00527152,1.00866
183.002,15.55091,1.17904,-0.00789885,1.00685
186.202,15.6495,1.19066,-0.006580159,1.00504
189.402,15.7477,1.20379,-0.004272103,1.00322
192.602,15.84565,1.21834,-0.00427,1.00139
195.802,15.94333,1.23232,-0.004270917,0.99955
199.002,16.04099,1.24557,-0.006909952,0.99771
202.202,16.13863,1.25796,-0.00691,0.99586
205.402,16.23595,1.27106,-0.006938769,0.994
208.602,16.3334,1.2826,-0.007899989,0.99214
211.802,16.4305,1.29633,-0.007908304,0.99027
215.002,16.52769,1.30613,-0.006580592,0.98839
218.202,16.6249,1.31422,-0.006971786,0.98651
221.402,16.72195,1.32559,-0.009538465,0.98462
224.602,16.81887,1.33722,-0.01085963,0.98272
227.802,16.91563,1.34556,-0.01094272,0.98082
231.002,17.01274,1.35193,-0.01145099,0.97891
234.202,17.1093,1.3627,-0.01309514,0.97699
237.402,17.20618,1.37187,-0.01482393,0.97506
240.602,17.30276,1.38153,-0.01740537,0.97314
243.802,17.39948,1.39009,-0.01874822,0.9712
247.002,17.49599,1.39607,-0.01933316,0.96926
250.202,17.5925,1.40672,-0.02167816,0.96731
253.402,17.68899,1.41378,-0.02314109,0.96536
256.602,17.78564,1.42439,-0.02446212,0.9634
259.802,17.88212,1.42767,-0.02692093,0.96143
263.002,17.97852,1.43614,-0.02984443,0.95946
266.202,18.07496,1.44202,-0.03528281,0.95748
269.402,18.17141,1.44996,-0.03687943,0.9555
272.602,18.268,1.45601,-0.04233851,0.95351
275.802,18.36433,1.46489,-0.0467812,0.95151
279.002,18.4609,1.47054,-0.05269426,0.94951
282.202,18.55763,1.48073,-0.05866604,0.94751
285.402,18.6541,1.48954,-0.06079707,0.9455
288.602,18.75098,1.50051,-0.06386563,0.94348
291.802,18.84773,1.51098,-0.0708815,0.94146
295.002,18.9444,1.51946,-0.0804391,0.93943
298.202,19.04104,1.53197,-0.08957721,0.9374
301.402,19.13785,1.54548,-0.09818767,0.93537
304.602,19.2347,1.55878,-0.10711,0.93332
307.802,19.33147,1.5709,-0.11733,0.93128
311.002,19.42833,1.58597,-0.12793,0.92923
314.202,19.52521,1.60255,-0.14166,0.92717
317.402,19.62227,1.62035,-0.15802,0.92511
320.602,19.7193,1.64362,-0.17172,0.92304
323.802,19.81626,1.66845,-0.18533,0.92097
327.002,19.91328,1.7,-0.20492,0.91889
330.202,20.01071,1.74051,-0.225,0.91681
333.402,20.10826,1.78722,-0.25612,0.91473
336.602,20.20575,1.84317,-0.28676,0.91264
339.802,20.30347,1.90747,-0.32115,0.91055
343.002,20.4011,1.98871,-0.35642,0.90845
346.202,20.4989,2.08373,-0.40086,0.90634
349.402,20.59693,2.19936,-0.45582,0.90424
352.602,20.69503,2.3319,-0.51013,0.90213
355.802,20.79331,2.48876,-0.57306,0.90001
359.002,20.89161,2.67179,-0.64555,0.89789
362.202,20.99052,2.88833,-0.73675,0.89577
365.402,21.08926,3.13815,-0.84025,0.89364
368.602,21.18812,3.42276,-0.96287,0.89151
371.802,21.28741,3.74571,-1.09722,0.88937
375.002,21.38692,4.10331,-1.25688,0.88723
378.202,21.4865,4.48483,-1.43224,0.88508
381.402,21.5864,4.8668,-1.63867,0.88294
384.602,21.6863,5.2111,-1.85991,0.88078
387.802,21.7863,5.46429,-2.11145,0.87863
391.002,21.8867,5.55726,-2.3678,0.87647
394.202,21.9865,5.43115,-2.61694,0.8743
397.402,22.08633,5.03046,-2.8562,0.87213
400.602,22.1854,4.33208,-3.04686,0.86996
403.802,22.28416,3.37545,-3.20797,0.86779
407.002,22.38221,2.34065,-3.31283,0.86561
410.202,22.47997,1.46386,-3.37075,0.86343
413.402,22.57735,0.88709,-3.39536,0.86124
416.602,22.67576,0.59259,-3.40354,0.85905
419.802,22.7741,0.45202,-3.41184,0.85686
423.002,22.8729,0.39137,-3.41233,0.85466
426.202,22.9722,0.35673,-3.41537,0.85246
429.402,23.07155,0.33579,-3.42131,0.85026
432.602,23.17125,0.32508,-3.42714,0.84805
435.802,23.27115,0.31566,-3.43163,0.84584
439.002,23.37121,0.30843,-3.43164,0.84363
442.202,23.4716,0.30272,-3.43432,0.84141
445.402,23.57206,0.29555,-3.44042,0.83919
448.602,23.67278,0.29423,-3.44503,0.83696
451.802,23.7733,0.28748,-3.4475,0.83474
455.002,23.87454,0.28534,-3.45004,0.83251
458.202,23.97561,0.2829,-3.45717,0.83027
461.402,24.07656,0.28017,-3.46092,0.82804
464.602,24.17812,0.27571,-3.46268,0.8258
467.802,24.27944,0.27492,-3.46647,0.82355
471.002,24.38097,0.27135,-3.46956,0.82131
474.202,24.48246,0.27013,-3.47402,0.81906
477.402,24.5841,0.26614,-3.47832,0.81681
480.602,24.6859,0.26464,-3.48141,0.81455
483.802,24.78775,0.26322,-3.48455,0.81229
487.002,24.88952,0.2603,-3.48714,0.81003
490.202,24.99134,0.25874,-3.48747,0.80777
493.402,25.0935,0.2592,-3.49141,0.8055
496.602,25.19554,0.2626,-3.49519,0.80323
499.802,25.29797,0.25854,-3.50082,0.80096
503.002,25.40029,0.25691,-3.50215,0.79868
506.202,25.50261,0.2561,-3.50217,0.79641
509.402,25.6051,0.25023,-3.50087,0.79413
512.602,25.7076,0.2518,-3.5035,0.79184
515.802,25.81024,0.25106,-3.50877,0.78955
519.002,25.9131,0.25065,-3.51351,0.78727
522.202,26.01604,0.25472,-3.51346,0.78497
525.402,26.11895,0.25461,-3.51403,0.78268
528.602,26.22193,0.25489,-3.51732,0.78038
531.802,26.32494,0.25809,-3.52006,0.77808
535.002,26.42823,0.2621,-3.52147,0.77578
538.202,26.5312,0.27144,-3.52048,0.77347
541.402,26.63454,0.27866,-3.52322,0.77117
544.602,26.73773,0.29367,-3.52313,0.76886
547.802,26.8414,0.29475,-3.5242,0.76654
551.002,26.94487,0.29525,-3.52574,0.76423
554.202,27.04853,0.2949,-3.52893,0.76191
557.402,27.15247,0.29161,-3.53277,0.75959
560.602,27.25627,0.29031,-3.53606,0.75727
563.802,27.36,0.28625,-3.53672,0.75494
567.002,27.4642,0.27564,-3.5354,0.75262
570.202,27.5683,0.26655,-3.53539,0.75029
573.402,27.6726,0.25859,-3.53866,0.74796
576.602,27.7768,0.25056,-3.54243,0.74562
579.802,27.88103,0.24394,-3.54187,0.74329
583.002,27.9854,0.2322,-3.54187,0.74095
586.202,28.0898,0.22438,-3.54319,0.73861
589.402,28.1943,0.21353,-3.54573,0.73626
592.602,28.29893,0.20324,-3.54693,0.73392
595.802,28.4037,0.19343,-3.54956,0.73157
599.002,28.50855,0.18255,-3.54955,0.72922
602.202,28.6134,0.18237,-3.55085,0.72687
605.402,28.71838,0.17391,-3.54956,0.72452
608.602,28.82325,0.16978,-3.54822,0.72216
611.802,28.92816,0.16759,-3.551,0.7198
615.002,29.03315,0.16722,-3.55503,0.71744
618.202,29.1381,0.16393,-3.55504,0.71508
621.402,29.2431,0.16212,-3.55503,0.71272
624.602,29.3479,0.16466,-3.55503,0.71035
627.802,29.45298,0.16568,-3.55503,0.70798
631.002,29.558,0.16485,-3.55767,0.70561
634.202,29.66317,0.16645,-3.55777,0.70324
637.402,29.7683,0.16562,-3.55833,0.70087
640.602,29.87377,0.16458,-3.55964,0.69849
643.802,29.979,0.16189,-3.55832,0.69612
647.002,30.08444,0.16468,-3.55823,0.69374
650.202,30.18992,0.16714,-3.56063,0.69136
653.402,30.29573,0.16526,-3.56067,0.68898
656.602,30.4013,0.16127,-3.56526,0.68659
659.802,30.50693,0.16652,-3.5666,0.68421
663.002,30.61267,0.16546,-3.5638,0.68182
666.202,30.71834,0.16195,-3.56128,0.67943
669.402,30.824,0.16524,-3.56063,0.67704
672.602,30.92983,0.16575,-3.56358,0.67465
675.802,31.0353,0.17025,-3.56627,0.67226
679.002,31.1413,0.16641,-3.5649,0.66986
682.202,31.2474,0.16938,-3.56448,0.66747
685.402,31.3533,0.16834,-3.56702,0.66507
688.602,31.4594,0.1693,-3.56534,0.66267
691.802,31.5655,0.17048,-3.56817,0.66027
695.002,31.67148,0.17449,-3.56941,0.65787
698.202,31.7779,0.17513,-3.56808,0.65547
701.402,31.88403,0.17323,-3.5694,0.65306
704.602,31.99036,0.1745,-3.56874,0.65066
707.802,32.09681,0.1806,-3.56835,0.64825
711.002,32.20332,0.17937,-3.56743,0.64584
714.202,32.30961,0.17715,-3.57005,0.64344
717.402,32.4159,0.18302,-3.5727,0.64103
720.602,32.52267,0.1795,-3.57137,0.63862
723.802,32.62956,0.17856,-3.57137,0.6362
727.002,32.73648,0.18166,-3.57132,0.63379
730.202,32.8433,0.1772,-3.57271,0.63138
733.402,32.9501,0.18345,-3.57401,0.62896
736.602,33.0572,0.18549,-3.57401,0.62655
739.802,33.16417,0.18585,-3.57396,0.62413
743.002,33.27088,0.18487,-3.57401,0.62172
746.202,33.37775,0.19243,-3.57392,0.6193
749.402,33.48513,0.19181,-3.575,0.61688
752.602,33.59202,0.19572,-3.57548,0.61446
755.802,33.69915,0.18982,-3.57486,0.61204
759.002,33.80659,0.19022,-3.57121,0.60962
762.202,33.91372,0.18761,-3.57105,0.6072
765.402,34.02088,0.18245,-3.57103,0.60478
768.602,34.12832,0.18573,-3.57368,0.60236
771.802,34.2358,0.17751,-3.57368,0.59994
775.002,34.34324,0.17266,-3.575,0.59751
778.202,34.45067,0.17302,-3.5763,0.59509
781.402,34.55826,0.16809,-3.57893,0.59267
784.602,34.6658,0.17096,-3.58026,0.59024
787.802,34.77333,0.16542,-3.57894,0.58782
791.002,34.88087,0.16227,-3.5773,0.5854
794.202,34.98837,0.16584,-3.575,0.58297
794.502,34.9985,0.16569,-3.575,0.58275

File: Hemp_Sheet_STA_N2_30KData_22284_R2.csv
##Temp./Â°C,Time/min,DSC(subtr.2)/(mW/mg),Mass loss(subtr.2)/mg,Sensit./(uV/mW)
48.586,10.01,0.008697291,0.00187,1.07502
51.886,10.89434,0.17618,0.001572134,1.07356
55.186,11.13076,0.29166,0.004448528,1.07209
58.486,11.3142,0.38428,0.004237181,1.07061
61.786,11.4718,0.45649,0.002339248,1.06911
65.086,11.6157,0.51557,-0.003074895,1.06761
68.386,11.74987,0.56495,0.001211178,1.06609
71.686,11.87912,0.6059,0.001545909,1.06456
74.986,12.00383,0.64434,0.001732065,1.06302
78.286,12.12547,0.67981,0.001159825,1.06147
81.586,12.2447,0.71408,0.000943262,1.0599
84.886,12.36133,0.74247,0.002142516,1.05832
88.186,12.47655,0.77151,-0.002243784,1.05674
91.486,12.5907,0.79735,-0.0006788077,1.05514
94.786,12.70379,0.82337,-0.00165583,1.05353
98.086,12.8158,0.84621,-0.00291099,1.05191
101.386,12.92721,0.86306,-0.004653053,1.05028
104.686,13.03849,0.88201,-0.003791555,1.04864
107.986,13.1493,0.89746,-0.003300112,1.04699
111.286,13.2598,0.90963,-0.00460013,1.04532
114.586,13.36985,0.91521,-0.00460001,1.04365
117.886,13.47991,0.92242,-0.00591998,1.04197
121.186,13.5892,0.92581,-0.007240135,1.04028
124.486,13.69794,0.92934,-0.008555629,1.03858
127.786,13.80605,0.93021,-0.007133203,1.03686
131.086,13.914,0.93164,-0.008657118,1.03514
134.386,14.0208,0.93385,-0.00987281,1.03341
137.686,14.12755,0.93821,-0.01051318,1.03167
140.986,14.233,0.94198,-0.008554039,1.02992
144.286,14.33906,0.95126,-0.00785491,1.02816
147.586,14.444,0.95716,-0.008029772,1.02639
150.886,14.5489,0.96769,-0.009205172,1.02461
154.186,14.6532,0.97679,-0.01018911,1.02282
157.486,14.75721,0.98847,-0.01020133,1.02103
160.786,14.86077,0.99993,-0.01151924,1.01922
164.086,14.96469,1.01203,-0.01149596,1.01741
167.386,15.06817,1.02349,-0.01100153,1.01559
170.686,15.1711,1.03478,-0.01019,1.01376
173.986,15.2738,1.04856,-0.01019512,1.01192
177.286,15.3766,1.06093,-0.00749134,1.01007
180.586,15.4785,1.0749,-0.00745529,1.00821
183.886,15.58054,1.08755,-0.01164002,1.00635
187.186,15.6821,1.09867,-0.01436805,1.00448
190.486,15.78319,1.11018,-0.01163463,1.0026
193.786,15.8843,1.12222,-0.01019341,1.00071
197.086,15.98506,1.12986,-0.009302951,0.99882
200.386,16.08601,1.14248,-0.0099635,0.99691
203.686,16.18676,1.15502,-0.01129565,0.995
206.986,16.28719,1.16522,-0.01293996,0.99308
210.286,16.38741,1.17519,-0.01294,0.99116
213.586,16.48777,1.18584,-0.01302587,0.98922
216.886,16.58803,1.19505,-0.01524804,0.98728
220.186,16.688,1.20432,-0.01557,0.98534
223.486,16.78807,1.21329,-0.01710464,0.98338
226.786,16.8883,1.22223,-0.02204887,0.98142
230.086,16.9881,1.22909,-0.02144691,0.97945
233.386,17.08784,1.23612,-0.02082999,0.97748
236.686,17.18755,1.24554,-0.02217542,0.9755
239.986,17.28707,1.25205,-0.02205924,0.97351
243.286,17.3865,1.25994,-0.02478575,0.97151
246.586,17.48651,1.2658,-0.02610019,0.96951
249.886,17.58602,1.27075,-0.02609948,0.9675
253.186,17.6856,1.27609,-0.02856895,0.96549
256.486,17.78516,1.28358,-0.03014327,0.96347
259.786,17.88458,1.28459,-0.03283751,0.96144
263.086,17.98404,1.29304,-0.03671098,0.95941
266.386,18.0834,1.29651,-0.0423991,0.95737
269.686,18.1829,1.3007,-0.04502864,0.95532
272.986,18.28236,1.30584,-0.04960403,0.95327
276.286,18.3818,1.31408,-0.05246545,0.95121
279.586,18.48122,1.31958,-0.05713381,0.94915
282.886,18.5807,1.32648,-0.06217259,0.94708
286.186,18.68021,1.33743,-0.06855958,0.945
289.486,18.7801,1.34637,-0.07700734,0.94292
292.786,18.8797,1.3565,-0.08324066,0.94084
296.086,18.97952,1.36608,-0.09317593,0.93875
299.386,19.07909,1.3758,-0.10017,0.93665
302.686,19.1788,1.38336,-0.11021,0.93455
305.986,19.27865,1.39843,-0.11698,0.93244
309.286,19.3785,1.41117,-0.1294,0.93033
312.586,19.4782,1.42608,-0.14281,0.92821
315.886,19.57841,1.44504,-0.15681,0.92608
319.186,19.6783,1.46405,-0.17294,0.92396
322.486,19.77824,1.48603,-0.18865,0.92182
325.786,19.8783,1.51764,-0.20809,0.91968
329.086,19.9789,1.55104,-0.22927,0.91754
332.386,20.07921,1.59933,-0.25515,0.91539
335.686,20.1796,1.65284,-0.28591,0.91324
338.986,20.28024,1.72097,-0.32048,0.91108
342.286,20.3807,1.80272,-0.35752,0.90892
345.586,20.48176,1.89545,-0.40212,0.90675
348.886,20.58268,2.01318,-0.44964,0.90458
352.186,20.6839,2.15169,-0.51182,0.9024
355.486,20.78539,2.31423,-0.58198,0.90022
358.786,20.88675,2.50416,-0.66483,0.89803
362.086,20.98845,2.72548,-0.75921,0.89584
365.386,21.09036,2.98029,-0.86541,0.89365
368.686,21.1925,3.27274,-0.99114,0.89145
371.986,21.29475,3.60765,-1.13518,0.88925
375.286,21.3972,3.97197,-1.30904,0.88704
378.586,21.49993,4.36128,-1.49522,0.88483
381.886,21.6028,4.74679,-1.71299,0.88261
385.186,21.70571,5.08385,-1.94269,0.88039
388.486,21.80898,5.3073,-2.21354,0.87816
391.786,21.9122,5.34813,-2.47747,0.87594
395.086,22.01543,5.12193,-2.73694,0.8737
398.386,22.11805,4.58003,-2.962,0.87147
401.686,22.2204,3.71165,-3.15238,0.86923
404.986,22.32197,2.64529,-3.29224,0.86698
408.286,22.42294,1.62656,-3.37534,0.86473
411.586,22.5238,0.88732,-3.41225,0.86248
414.886,22.6247,0.47352,-3.42639,0.86023
418.186,22.7259,0.27897,-3.43381,0.85797
421.486,22.8276,0.19012,-3.43799,0.8557
424.786,22.92955,0.14916,-3.44278,0.85343
428.086,23.03235,0.1241,-3.44773,0.85116
431.386,23.13504,0.11078,-3.45234,0.84889
434.686,23.2379,0.10416,-3.45611,0.84661
437.986,23.34114,0.09410185,-3.4639,0.84433
441.286,23.4448,0.08245144,-3.46926,0.84204
444.586,23.5484,0.07828631,-3.47202,0.83975
447.886,23.65227,0.07338386,-3.47101,0.83746
451.186,23.75619,0.06609787,-3.47101,0.83517
454.486,23.8601,0.06332522,-3.47464,0.83287
457.786,23.96421,0.05945624,-3.48468,0.83056
461.086,24.06857,0.0520821,-3.48703,0.82826
464.386,24.17288,0.04773951,-3.4883,0.82595
467.686,24.27753,0.04619708,-3.49309,0.82364
470.986,24.38196,0.04362376,-3.5007,0.82132
474.286,24.487,0.03618423,-3.50222,0.819
477.586,24.59169,0.03212629,-3.50679,0.81668
480.886,24.69656,0.02664582,-3.5095,0.81435
484.186,24.80162,0.02395669,-3.51084,0.81202
487.486,24.90683,0.0217231,-3.51402,0.80969
490.786,25.01201,0.0140144,-3.52013,0.80736
494.086,25.1173,0.01361058,-3.5208,0.80502
497.386,25.22277,0.01174675,-3.52211,0.80268
500.686,25.328,0.008063716,-3.52538,0.80033
503.986,25.4339,0.007831511,-3.53057,0.79798
507.286,25.5396,0.005211186,-3.53189,0.79563
510.586,25.64544,0.002528539,-3.53319,0.79328
513.886,25.7514,0.00493779,-3.53696,0.79092
517.186,25.85745,-0.002530424,-3.54036,0.78857
520.486,25.96327,-0.003949945,-3.53901,0.7862
523.786,26.0698,-0.004972727,-3.54165,0.78384
527.086,26.17598,-0.0054754,-3.54026,0.78147
530.386,26.2824,-0.00602688,-3.54434,0.7791
533.686,26.3885,-0.00729747,-3.54999,0.77673
536.986,26.49505,-0.0008755538,-3.55347,0.77435
540.286,26.6019,0.01172484,-3.55417,0.77197
543.586,26.70857,0.0208378,-3.55653,0.76959
546.886,26.81515,0.02746726,-3.55843,0.76721
550.186,26.9221,0.02982875,-3.55974,0.76482
553.486,27.02892,0.02801377,-3.56105,0.76243
556.786,27.13578,0.02105366,-3.56238,0.76004
560.086,27.24307,0.01422453,-3.56179,0.75764
563.386,27.3503,0.0137886,-3.56194,0.75525
566.686,27.4576,0.01009278,-3.56457,0.75285
569.986,27.5648,0.0003411631,-3.56743,0.75045
573.286,27.6726,-0.01366362,-3.5694,0.74804
576.586,27.78012,-0.02281325,-3.57061,0.74563
579.886,27.8879,-0.03431505,-3.57061,0.74322
583.186,27.99564,-0.04234526,-3.57264,0.74081
586.486,28.1033,-0.04835917,-3.57521,0.7384
589.786,28.211,-0.05377984,-3.57695,0.73598
593.086,28.3189,-0.06782946,-3.57542,0.73356
596.386,28.42677,-0.07211494,-3.57727,0.73114
599.686,28.53465,-0.07553213,-3.57856,0.72872
602.986,28.6422,-0.08601583,-3.57999,0.72629
606.286,28.75057,-0.0927949,-3.58162,0.72386
609.586,28.8589,-0.09938606,-3.58569,0.72143
612.886,28.96688,-0.10648,-3.58771,0.719
616.186,29.0751,-0.11535,-3.58575,0.71657
619.486,29.18342,-0.11815,-3.58442,0.71413
622.786,29.29185,-0.13255,-3.5831,0.71169
626.086,29.4003,-0.13602,-3.58575,0.70925
629.386,29.5088,-0.14256,-3.58705,0.70681
632.686,29.61723,-0.15749,-3.59011,0.70437
635.986,29.7257,-0.16273,-3.58991,0.70192
639.286,29.83468,-0.1653,-3.59146,0.69947
642.586,29.94352,-0.17689,-3.5936,0.69702
645.886,30.05232,-0.18088,-3.59321,0.69457
649.186,30.1613,-0.18996,-3.59263,0.69211
652.486,30.27027,-0.19925,-3.59364,0.68966
655.786,30.3794,-0.20429,-3.59073,0.6872
659.086,30.4885,-0.21501,-3.58969,0.68474
662.386,30.59775,-0.2188,-3.59034,0.68228
665.686,30.7069,-0.22626,-3.59232,0.67982
668.986,30.81615,-0.22752,-3.59497,0.67735
672.286,30.9253,-0.23118,-3.59617,0.67489
675.586,31.03492,-0.23596,-3.59946,0.67242
678.886,31.14385,-0.24029,-3.59804,0.66995
682.186,31.25328,-0.24869,-3.59945,0.66748
685.486,31.36277,-0.24813,-3.59802,0.66501
688.786,31.47242,-0.25455,-3.5954,0.66253
692.086,31.5819,-0.25896,-3.5968,0.66006
695.386,31.6914,-0.25983,-3.59815,0.65758
698.686,31.80081,-0.2664,-3.59813,0.6551
701.986,31.9105,-0.26726,-3.59912,0.65262
705.286,32.02016,-0.27641,-3.60044,0.65014
708.586,32.1297,-0.2783,-3.60044,0.64766
711.886,32.23917,-0.28502,-3.60177,0.64518
715.186,32.3488,-0.2895,-3.59779,0.6427
718.486,32.45815,-0.29837,-3.6005,0.64021
721.786,32.5683,-0.29783,-3.60363,0.63772
725.086,32.67822,-0.30575,-3.60353,0.63524
728.386,32.7881,-0.31072,-3.60412,0.63275
731.686,32.89819,-0.31658,-3.60275,0.63026
734.986,33.0084,-0.32652,-3.60275,0.62777
738.286,33.11851,-0.33437,-3.60702,0.62528
741.586,33.22855,-0.33522,-3.60832,0.62279
744.886,33.33891,-0.34436,-3.60571,0.62029
748.186,33.44912,-0.35579,-3.60307,0.6178
751.486,33.55959,-0.36345,-3.60704,0.61531
754.786,33.67004,-0.36922,-3.60856,0.61281
758.086,33.78063,-0.37505,-3.6068,0.61032
761.386,33.89096,-0.38642,-3.60581,0.60782
764.686,34.00159,-0.3887,-3.60678,0.60532
767.986,34.11227,-0.40085,-3.6068,0.60282
771.286,34.22275,-0.40698,-3.6068,0.60033
774.586,34.33337,-0.41357,-3.60812,0.59783
777.886,34.44408,-0.42086,-3.60804,0.59533
781.186,34.55478,-0.43457,-3.60668,0.59283
784.486,34.66553,-0.43489,-3.60669,0.59033
787.786,34.77617,-0.43756,-3.60542,0.58783
791.086,34.88727,-0.4395,-3.60823,0.58533
794.386,34.9981,-0.44862,-3.60866,0.58283