Folder: fsri_materials_database/01_Data/Feather_PillowB_Feathers/MCC

Note: 01_Data/README.md
# Materials and Products Database
## 01_Data

Raw data generated from each apparatus are included here in plain-text format. The data is organized first by material, next by the short name of test apparatus used, and where applicable additional filtering by test settings.

### material.json

Each material directory contains a json file of the same name as the material. This file links the data stored in the repository as well as data and graphs produced by the accompanying scripts (__02_Scripts__) to the respective landing page for the material on the front-end website.

File: Feather_PillowB_Feathers_MCC_30K_min_220107_R3.txt
Sample ID:	C:\MCC\MCC Cal\Test\Feather_PillowB_Feathers_MCC_30K_min_220107_R3.txt
Sample Weight (mg):	4.85
Heating Rate (C/s):	0.5
Combustor Temp (C):	900
N2 Flow Rate (cc/min):	80
O2 Flow Rate (cc/min):	20
Calibration File:	C:\MCC\MCC Cal\Coeff1 JN10440_30_210304.txt.txt
T Correction Coefficients:	0	1.024463	0
Time Shift (s):	14
*
Time (s)	Temperature (C)	N2 flow rate (cc/min)	O2 flow rate (cc/min)	Flow Rate (cc/min)	Oxygen (%)	HRR (W/g)	Heating rate (C/s)
0.000	109.972	80.003	19.994	104.089	20.084	-0.176	0.008
8.000	110.019	80.005	19.992	104.102	20.078	0.169	0.029
16.000	110.040	80.015	19.990	104.156	20.072	0.628	-0.012
24.000	110.204	80.004	19.994	104.184	20.067	0.925	0.044
32.000	110.735	80.004	19.994	104.246	20.061	1.351	0.099
40.000	111.586	79.996	19.995	104.286	20.049	2.164	0.143
48.000	112.796	80.007	19.996	104.291	20.044	2.481	0.187
56.000	114.433	79.990	19.995	104.308	20.042	2.641	0.210
64.000	116.242	80.002	19.996	104.344	20.037	2.985	0.231
72.000	118.472	80.007	19.993	104.337	20.034	3.160	0.310
80.000	120.769	80.009	19.989	104.347	20.036	3.042	0.312
88.000	123.347	80.006	19.995	104.329	20.032	3.277	0.312
96.000	126.195	80.007	19.996	104.319	20.031	3.365	0.341
104.000	129.159	79.985	20.000	104.362	20.032	3.293	0.397
112.001	132.251	80.003	19.995	104.355	20.031	3.336	0.431
120.001	135.415	80.005	19.991	104.366	20.029	3.477	0.407
128.000	138.780	80.012	19.990	104.367	20.027	3.647	0.445
136.000	142.276	80.008	19.994	104.375	20.026	3.666	0.437
144.000	145.938	80.003	19.996	104.379	20.024	3.818	0.446
152.000	149.638	80.007	19.997	104.349	20.026	3.702	0.505
160.000	153.442	80.003	19.994	104.362	20.023	3.927	0.465
168.000	157.319	80.003	19.995	104.369	20.024	3.837	0.487
176.000	161.254	80.000	19.994	104.370	20.024	3.852	0.498
184.000	165.267	80.005	19.994	104.356	20.022	3.967	0.504
192.000	169.296	80.002	19.991	104.337	20.025	3.777	0.499
200.000	173.333	80.007	19.993	104.367	20.022	3.982	0.471
208.000	177.371	80.021	19.992	104.364	20.019	4.183	0.485
216.000	181.368	80.016	19.991	104.336	20.015	4.444	0.515
224.001	185.425	80.009	19.993	104.325	20.010	4.764	0.538
232.000	189.417	80.010	19.992	104.303	20.014	4.511	0.470
240.000	193.463	80.009	19.994	104.303	20.008	4.927	0.477
248.000	197.425	80.012	19.994	104.302	20.008	4.929	0.459
256.000	201.413	80.003	19.994	104.312	19.998	5.550	0.541
264.000	205.373	80.008	19.993	104.303	19.986	6.407	0.492
272.000	209.365	80.012	19.993	104.308	19.973	7.233	0.557
280.001	213.212	80.000	19.997	104.301	19.953	8.589	0.461
288.000	217.214	80.006	19.993	104.287	19.938	9.623	0.528
296.000	221.129	80.005	19.994	104.254	19.918	10.912	0.516
304.000	225.089	80.003	19.995	104.280	19.908	11.630	0.506
312.000	229.053	80.004	19.995	104.259	19.899	12.200	0.503
320.000	233.033	80.005	19.993	104.279	19.891	12.773	0.512
328.000	237.055	80.008	19.993	104.292	19.888	12.927	0.493
336.000	240.994	80.004	19.995	104.327	19.892	12.700	0.496
344.000	245.027	80.009	19.995	104.333	19.882	13.354	0.510
352.000	249.084	80.001	19.994	104.317	19.872	14.043	0.513
360.000	253.114	80.004	19.994	104.338	19.856	15.069	0.490
368.000	257.107	80.003	19.995	104.294	19.842	16.051	0.494
376.000	261.090	80.006	19.994	104.285	19.820	17.485	0.469
384.000	265.106	80.012	19.994	104.316	19.801	18.814	0.501
392.000	269.071	79.998	19.995	104.318	19.771	20.802	0.483
400.000	273.159	80.006	19.993	104.318	19.740	22.889	0.523
408.000	277.131	80.007	19.994	104.329	19.700	25.601	0.537
416.000	281.096	80.007	19.994	104.326	19.661	28.187	0.490
424.000	285.076	80.001	19.994	104.330	19.613	31.401	0.480
432.000	289.111	80.005	19.994	104.355	19.571	34.233	0.498
440.001	293.184	80.011	19.993	104.358	19.537	36.535	0.557
448.000	297.165	79.997	19.995	104.333	19.540	36.313	0.485
456.000	301.136	80.002	19.994	104.380	19.552	35.558	0.496
464.000	305.176	79.995	19.995	104.474	19.440	43.078	0.489
472.000	309.181	80.006	19.993	104.381	19.231	57.082	0.504
480.000	313.351	80.003	19.993	104.398	19.176	60.741	0.520
488.000	317.439	80.011	19.992	104.551	19.128	64.010	0.543
496.000	321.719	80.007	19.993	104.387	19.148	62.723	0.505
504.000	325.860	80.004	19.994	104.447	19.154	62.283	0.519
512.000	329.946	79.996	19.994	104.418	19.076	67.505	0.514
520.000	334.041	80.021	19.992	104.399	19.102	65.697	0.530
528.000	338.026	79.987	19.995	104.455	19.010	71.935	0.501
536.000	342.050	80.007	19.994	104.462	19.059	68.603	0.493
544.000	345.961	79.983	19.994	104.369	19.133	63.744	0.514
552.000	349.896	80.000	19.995	104.576	19.074	67.663	0.536
560.000	353.868	80.008	19.993	104.119	19.191	59.740	0.533
568.000	357.836	80.003	19.994	104.374	19.335	50.031	0.487
576.000	361.779	80.015	19.993	104.535	19.298	52.555	0.508
584.000	365.728	80.004	19.995	104.284	19.446	42.618	0.512
592.000	369.701	80.006	19.993	104.459	19.445	42.660	0.492
600.000	373.828	80.005	19.993	104.251	19.477	40.552	0.535
608.000	377.971	80.002	19.993	104.303	19.536	36.562	0.516
616.000	382.087	80.005	19.993	104.299	19.575	33.966	0.506
624.000	386.205	80.008	19.994	104.294	19.595	32.598	0.487
632.000	390.323	80.008	19.993	104.294	19.625	30.577	0.482
640.000	394.478	80.003	19.994	104.305	19.653	28.680	0.513
648.000	398.575	79.996	19.996	104.258	19.678	27.031	0.524
656.000	402.682	80.005	19.993	104.284	19.696	25.821	0.539
664.000	406.697	80.014	19.994	104.265	19.716	24.456	0.497
672.000	410.706	80.001	19.994	104.259	19.734	23.292	0.508
680.000	414.682	79.996	19.996	104.265	19.753	21.997	0.501
688.001	418.673	80.018	19.994	104.254	19.775	20.539	0.502
696.000	422.691	80.010	19.993	104.257	19.792	19.387	0.487
704.000	426.702	79.989	19.997	104.260	19.811	18.131	0.460
712.000	430.796	80.010	19.993	104.258	19.827	17.030	0.522
720.000	434.905	80.009	19.992	104.232	19.840	16.148	0.484
728.000	438.953	80.003	19.994	104.267	19.848	15.639	0.502
736.000	443.020	80.018	19.995	104.230	19.859	14.916	0.452
744.000	447.054	80.006	19.995	104.237	19.865	14.492	0.509
752.000	451.146	80.003	19.995	104.231	19.873	13.969	0.517
760.001	455.181	79.989	19.996	104.242	19.880	13.493	0.495
768.000	459.239	80.003	19.993	104.252	19.886	13.055	0.513
776.000	463.376	80.005	19.993	104.251	19.892	12.706	0.528
784.000	467.456	80.006	19.993	104.227	19.900	12.108	0.491
792.000	471.600	80.005	19.994	104.216	19.901	12.069	0.519
800.000	475.716	80.003	19.995	104.271	19.907	11.656	0.466
808.000	479.902	80.001	19.995	104.216	19.916	11.030	0.507
816.000	483.968	80.001	19.995	104.228	19.919	10.884	0.531
824.000	488.138	80.007	19.992	104.215	19.927	10.296	0.555
832.000	492.266	80.005	19.994	104.220	19.930	10.125	0.527
840.000	496.424	80.003	19.993	104.250	19.930	10.116	0.510
848.000	500.652	80.005	19.992	104.235	19.936	9.692	0.544
856.000	504.759	80.004	19.994	104.219	19.941	9.413	0.522
864.000	508.914	80.005	19.993	104.204	19.945	9.086	0.512
872.000	512.997	80.005	19.993	104.213	19.950	8.753	0.540
880.000	517.158	80.005	19.993	104.216	19.955	8.422	0.530
888.000	521.365	80.006	19.994	104.234	19.964	7.873	0.520
896.000	525.460	80.004	19.994	104.217	19.958	8.225	0.518
904.000	529.714	80.007	19.994	104.213	19.965	7.789	0.555
912.000	533.607	80.011	19.993	104.214	19.964	7.839	0.330
920.000	537.772	80.004	19.994	104.185	19.965	7.748	0.533
928.000	541.803	80.004	19.994	104.232	19.970	7.424	0.506
936.000	545.924	80.004	19.994	104.225	19.969	7.499	0.516
944.000	550.138	80.005	19.993	104.217	19.971	7.385	0.496
952.000	554.389	80.004	19.994	104.194	19.971	7.380	0.527
960.000	558.650	80.005	19.994	104.197	19.971	7.342	0.508
968.000	562.924	80.008	19.994	104.235	19.969	7.523	0.561
976.000	567.101	80.004	19.993	104.218	19.975	7.108	0.480
984.000	571.299	80.005	19.994	104.197	19.973	7.220	0.575
992.000	575.576	80.008	19.993	104.200	19.974	7.184	0.555
1000.000	579.656	80.004	19.993	104.230	19.975	7.127	0.502
1008.000	583.747	80.005	19.994	104.198	19.977	6.956	0.542
1016.000	587.645	80.003	19.995	104.199	19.972	7.284	0.473
1024.000	591.441	80.005	19.993	104.198	19.977	6.992	0.427
1032.000	595.182	80.005	19.993	104.208	19.977	6.954	0.471
1040.001	598.835	80.005	19.994	104.211	19.975	7.135	0.460
1048.000	602.431	80.006	19.994	104.214	19.974	7.147	0.460
1056.001	605.975	80.008	19.993	104.209	19.978	6.903	0.454
1064.000	609.614	80.008	19.993	104.189	19.979	6.858	0.467
1072.000	613.273	80.008	19.993	104.179	19.977	6.965	0.430
1080.000	616.923	80.006	19.993	104.185	19.977	6.960	0.456
1088.000	620.572	80.005	19.994	104.176	19.977	6.982	0.454
1096.000	624.406	80.003	19.994	104.246	19.980	6.745	0.499
1104.000	628.292	80.004	19.994	104.195	19.983	6.569	0.486
1112.000	632.313	80.004	19.995	104.221	19.983	6.584	0.493
1120.000	636.470	80.005	19.995	104.210	19.980	6.782	0.528
1128.000	640.538	80.007	19.993	104.179	19.978	6.894	0.484
1136.000	644.668	80.006	19.994	104.215	19.979	6.870	0.509
1144.001	648.726	80.007	19.994	104.188	19.983	6.589	0.507
1152.000	652.822	80.007	19.993	104.185	19.986	6.361	0.498
1160.000	656.858	80.006	19.993	104.200	19.981	6.723	0.493
1168.001	660.893	80.005	19.993	104.208	19.983	6.570	0.563
1176.000	664.763	80.005	19.994	104.211	19.979	6.836	0.480
1184.000	668.706	80.006	19.993	104.217	19.980	6.758	0.511
1192.000	672.891	80.005	19.994	104.202	19.982	6.633	0.540
1200.000	677.093	80.004	19.995	104.195	19.985	6.445	0.530
1208.000	681.215	80.007	19.995	104.194	19.984	6.489	0.522
1216.000	685.288	80.006	19.994	104.177	19.983	6.555	0.512
1224.000	689.402	80.006	19.994	104.210	19.983	6.602	0.537
1232.000	693.505	80.007	19.993	104.232	19.981	6.713	0.481
1240.000	697.702	80.007	19.993	104.233	19.985	6.428	0.499
1248.000	701.868	80.004	19.993	104.195	19.978	6.878	0.500
1256.000	706.156	80.007	19.994	104.185	19.980	6.793	0.509
1264.000	710.410	80.005	19.993	104.191	19.981	6.689	0.527
1272.000	714.586	80.006	19.994	104.173	19.979	6.833	0.527
1280.000	718.664	80.006	19.993	104.180	19.981	6.703	0.528
1288.000	722.541	80.005	19.993	104.186	19.975	7.102	0.461
1296.001	726.446	80.006	19.995	104.212	19.980	6.792	0.506
1304.000	730.239	80.008	19.995	104.201	19.978	6.900	0.462
1312.000	734.083	80.007	19.993	104.195	19.977	6.950	0.473
1320.000	737.904	80.007	19.993	104.193	19.978	6.927	0.452
1328.000	741.886	80.007	19.993	104.186	19.971	7.387	0.520
1331.000	743.422	80.004	19.993	104.194	19.974	7.150	0.514