Folder: fsri_materials_database/01_Data/Pine_Lap_Siding/STA/N2/10K_min (part 2)

File: Pine_Lap_Siding_STA_N2_10KData_220322_R3.csv
##Temp./Â°C,Time/min,Mass loss(subtr.2)/mg,DSC(subtr.2)/(mW/mg),Sensit./(uV/mW)
49.669,10.01,-0.00219,0.01350767,1.07517
53.069,11.3395,-0.00267567,0.12227,1.0734
56.469,11.80833,-0.003586738,0.1734,1.07163
59.869,12.21239,-0.00361967,0.20325,1.06986
63.269,12.59474,-0.005143485,0.22337,1.0681
66.669,12.96593,-0.00607165,0.23902,1.06633
70.069,13.3315,-0.006808911,0.25223,1.06457
73.469,13.69232,-0.008179654,0.26532,1.06281
76.869,14.0488,-0.009290027,0.27722,1.06105
80.269,14.40094,-0.009976124,0.28517,1.05929
83.669,14.74968,-0.01130588,0.28914,1.05754
87.069,15.09554,-0.01327952,0.29126,1.05578
90.469,15.4389,-0.01382781,0.28771,1.05403
93.869,15.7792,-0.01659216,0.2846,1.05228
97.269,16.11672,-0.01687957,0.28204,1.05054
100.669,16.45241,-0.01688456,0.2757,1.04879
104.069,16.78659,-0.01624014,0.27142,1.04705
107.469,17.11979,-0.01754935,0.26956,1.0453
110.869,17.45252,-0.01623006,0.26815,1.04356
114.269,17.78541,-0.01821044,0.26699,1.04182
117.669,18.1171,-0.01689178,0.26834,1.04009
121.069,18.4483,-0.01693099,0.27009,1.03835
124.469,18.77852,-0.01820611,0.27301,1.03662
127.869,19.10839,-0.01788995,0.27386,1.03488
131.269,19.4372,-0.01774875,0.2798,1.03315
134.669,19.7673,-0.01788013,0.2801,1.03142
138.069,20.09662,-0.0182564,0.28442,1.0297
141.469,20.42398,-0.01590715,0.28635,1.02797
144.869,20.75167,-0.01720625,0.28929,1.02625
148.269,21.07912,-0.01592418,0.29317,1.02452
151.669,21.40665,-0.01759532,0.29657,1.0228
155.069,21.73414,-0.01721989,0.30169,1.02108
158.469,22.06107,-0.01657,0.30414,1.01936
161.869,22.38703,-0.01721995,0.31114,1.01764
165.269,22.71356,-0.01744082,0.31378,1.01592
168.669,23.0392,-0.02547438,0.32341,1.0142
172.069,23.3647,-0.01656905,0.32292,1.01249
175.469,23.6893,-0.0136,0.32387,1.01077
178.869,24.01446,-0.0162416,0.33124,1.00905
182.269,24.33926,-0.02019,0.33444,1.00734
185.669,24.66411,-0.01415936,0.33572,1.00563
189.069,24.98927,-0.01174455,0.33588,1.00391
192.469,25.31369,-0.01766004,0.34002,1.0022
195.869,25.63777,-0.01898,0.34484,1.00049
199.269,25.96302,-0.01995918,0.34826,0.99877
202.669,26.28807,-0.02259465,0.35169,0.99706
206.069,26.6123,-0.02499396,0.35386,0.99535
209.469,26.93583,-0.02369833,0.35799,0.99363
212.869,27.2602,-0.02501,0.35896,0.99192
216.269,27.5845,-0.02638316,0.36453,0.99021
219.669,27.9094,-0.02896,0.36827,0.98849
223.069,28.2337,-0.03157732,0.37522,0.98678
226.469,28.5576,-0.03422909,0.38256,0.98506
229.869,28.88134,-0.03708198,0.38786,0.98335
233.269,29.20528,-0.0404291,0.39086,0.98163
236.669,29.5292,-0.04573981,0.39737,0.97991
240.069,29.853,-0.05100971,0.40056,0.97819
243.469,30.17724,-0.05626974,0.40531,0.97647
246.869,30.50201,-0.06351418,0.40969,0.97475
250.269,30.82687,-0.07066467,0.4114,0.97303
253.669,31.1501,-0.08160826,0.41366,0.97131
257.069,31.4758,-0.09232485,0.41598,0.96958
260.469,31.79948,-0.10431,0.4189,0.96785
263.869,32.12303,-0.11963,0.42317,0.96612
267.269,32.44725,-0.13278,0.42337,0.96439
270.669,32.77197,-0.15064,0.43029,0.96266
274.069,33.09636,-0.16964,0.4383,0.96092
277.469,33.42094,-0.1913,0.44438,0.95919
280.869,33.74606,-0.21538,0.44982,0.95745
284.269,34.07107,-0.24152,0.45483,0.9557
287.669,34.39816,-0.27011,0.46414,0.95396
291.069,34.72433,-0.30285,0.47265,0.95221
294.469,35.05061,-0.33736,0.48091,0.95046
297.869,35.37707,-0.3768,0.49171,0.9487
301.269,35.70447,-0.41847,0.50327,0.94694
304.669,36.03054,-0.46518,0.52232,0.94518
308.069,36.3568,-0.51481,0.54135,0.94342
311.469,36.6829,-0.5701,0.56131,0.94165
314.869,37.0099,-0.62936,0.57956,0.93987
318.269,37.33709,-0.69441,0.6001,0.9381
321.669,37.66381,-0.76396,0.62007,0.93632
325.069,37.9908,-0.83731,0.63678,0.93453
328.469,38.3176,-0.9142,0.65468,0.93274
331.869,38.64476,-0.99853,0.66848,0.93095
335.269,38.97227,-1.08164,0.68085,0.92915
338.669,39.29984,-1.16987,0.69448,0.92735
342.069,39.6276,-1.25679,0.7106,0.92554
345.469,39.95568,-1.35112,0.73594,0.92373
348.869,40.28403,-1.44956,0.76758,0.92191
352.269,40.61273,-1.55094,0.81045,0.92009
355.669,40.9421,-1.66029,0.85334,0.91826
359.069,41.27162,-1.77765,0.90069,0.91643
362.469,41.60208,-1.90208,0.93134,0.91459
365.869,41.93305,-2.02803,0.94063,0.91275
369.269,42.26375,-2.15456,0.91015,0.9109
372.669,42.59454,-2.27548,0.82782,0.90904
376.069,42.9237,-2.37673,0.68859,0.90718
379.469,43.253,-2.4613,0.52693,0.90531
382.869,43.58105,-2.52009,0.36043,0.90344
386.269,43.9101,-2.55581,0.2268,0.90156
389.669,44.23949,-2.57681,0.14217,0.89967
393.069,44.56974,-2.59145,0.1029,0.89777
396.469,44.90101,-2.60264,0.08745805,0.89587
399.869,45.23151,-2.61474,0.08168372,0.89396
403.269,45.56196,-2.62316,0.07474691,0.89205
406.669,45.89255,-2.63371,0.06436333,0.89013
410.069,46.22387,-2.64247,0.05839331,0.8882
413.469,46.5561,-2.6531,0.04908592,0.88626
416.869,46.88913,-2.66122,0.0397232,0.88432
420.269,47.22153,-2.67164,0.03312997,0.88236
423.669,47.5537,-2.68003,0.02581003,0.8804
427.069,47.88694,-2.68879,0.02225183,0.87844
430.469,48.21937,-2.69838,0.01922989,0.87646
433.869,48.5518,-2.70602,0.01795054,0.87448
437.269,48.88482,-2.71616,0.01788171,0.87249
440.669,49.21843,-2.72415,0.01843618,0.87049
444.069,49.5519,-2.73117,0.02287391,0.86848
447.469,49.88597,-2.73928,0.02561024,0.86646
450.869,50.22126,-2.74664,0.03157932,0.86444
454.269,50.55707,-2.75227,0.04342409,0.8624
457.669,50.89226,-2.75884,0.05103831,0.86036
461.069,51.2277,-2.76452,0.06070281,0.85831
464.469,51.56293,-2.76916,0.06558471,0.85625
467.869,51.89857,-2.77594,0.07494974,0.85418
471.269,52.23348,-2.78125,0.07406462,0.8521
474.669,52.5687,-2.78648,0.07819873,0.85001
478.069,52.9041,-2.78943,0.08328672,0.84791
481.469,53.23919,-2.79466,0.08628293,0.84581
484.869,53.5748,-2.7973,0.08521138,0.84369
488.269,53.91137,-2.80128,0.09143862,0.84157
491.669,54.24716,-2.80654,0.09390583,0.83943
495.069,54.584,-2.81045,0.09523973,0.83729
498.469,54.92129,-2.81345,0.09769517,0.83513
501.869,55.2581,-2.81692,0.1001,0.83297
505.269,55.59574,-2.82036,0.10905,0.83079
508.669,55.93351,-2.824,0.12076,0.82861
512.069,56.27189,-2.82663,0.12707,0.82642
515.469,56.60977,-2.8296,0.13462,0.82421
518.869,56.9465,-2.83324,0.14246,0.822
522.269,57.28436,-2.83583,0.14449,0.81977
525.669,57.6218,-2.83745,0.14573,0.81754
529.069,57.95964,-2.84142,0.14253,0.81529
532.469,58.2985,-2.8449,0.14232,0.81304
535.869,58.63768,-2.84633,0.11916,0.81077
539.269,58.9766,-2.84932,0.10928,0.8085
542.669,59.3147,-2.85229,0.10777,0.80621
546.069,59.65361,-2.85553,0.10374,0.80391
549.469,59.99239,-2.85829,0.10216,0.80161
552.869,60.33203,-2.86149,0.10473,0.79929
556.269,60.6715,-2.86413,0.10206,0.79696
559.669,61.01096,-2.86577,0.10109,0.79462
563.069,61.3511,-2.86837,0.10025,0.79227
566.469,61.69151,-2.87071,0.09627453,0.78991
569.869,62.0322,-2.87335,0.09522159,0.78754
573.269,62.3736,-2.87598,0.09252266,0.78516
576.669,62.71462,-2.87729,0.09573399,0.78276
580.069,63.05565,-2.87987,0.09462042,0.78036
583.469,63.39679,-2.88255,0.09850323,0.77795
586.869,63.73789,-2.88381,0.09965127,0.77552
590.269,64.07826,-2.88644,0.10071,0.77309
593.669,64.418,-2.89013,0.10755,0.77064
597.069,64.75782,-2.89144,0.11439,0.76818
600.469,65.0982,-2.89502,0.12266,0.76571
603.869,65.43977,-2.89769,0.13474,0.76324
607.269,65.78223,-2.90032,0.14241,0.76075
610.669,66.12357,-2.90164,0.15034,0.75825
614.069,66.46432,-2.90625,0.16688,0.75573
617.469,66.80533,-2.90757,0.18002,0.75321
620.869,67.14676,-2.91133,0.19705,0.75068
624.269,67.48729,-2.91447,0.21271,0.74814
627.669,67.82969,-2.91974,0.23683,0.74558
631.069,68.17172,-2.92237,0.25983,0.74302
634.469,68.51414,-2.92565,0.27708,0.74044
637.869,68.8566,-2.93027,0.30169,0.73786
641.269,69.19924,-2.93451,0.32967,0.73526
644.669,69.54058,-2.94244,0.34971,0.73265
648.069,69.88325,-2.94804,0.37404,0.73004
651.469,70.22649,-2.95375,0.39292,0.72741
654.869,70.57078,-2.96054,0.41621,0.72477
658.269,70.91369,-2.96705,0.43661,0.72212
661.669,71.25636,-2.97641,0.4492,0.71947
665.069,71.59867,-2.98458,0.45004,0.7168
668.469,71.94174,-2.99207,0.44685,0.71412
671.869,72.28493,-2.99815,0.42871,0.71143
675.269,72.62839,-3.00686,0.39774,0.70873
678.669,72.97111,-3.01368,0.37093,0.70602
682.069,73.31436,-3.01626,0.34892,0.7033
685.469,73.6579,-3.02362,0.29343,0.70057
688.869,74.00269,-3.02548,0.17685,0.69783
692.269,74.3471,-3.0281,0.15599,0.69508
695.669,74.69171,-3.02914,0.15114,0.69233
699.069,75.03617,-3.02942,0.15007,0.68956
702.469,75.38112,-3.02976,0.14835,0.68678
705.869,75.72511,-3.03239,0.14724,0.684
709.269,76.0698,-3.03205,0.1447,0.6812
712.669,76.41381,-3.03479,0.1527,0.67839
716.069,76.7589,-3.036,0.14863,0.67558
719.469,77.10467,-3.03634,0.14736,0.67276
722.869,77.4508,-3.03568,0.14075,0.66992
726.269,77.79692,-3.03798,0.14025,0.66708
729.669,78.14182,-3.03934,0.13902,0.66423
733.069,78.48674,-3.03993,0.13391,0.66137
736.469,78.8315,-3.04061,0.13436,0.65851
739.869,79.17704,-3.04151,0.13346,0.65563
743.269,79.52316,-3.04193,0.13219,0.65275
746.669,79.86917,-3.04456,0.13222,0.64986
750.069,80.2145,-3.04356,0.13249,0.64696
753.469,80.55928,-3.04522,0.12819,0.64405
756.869,80.90511,-3.04489,0.13276,0.64113
760.269,81.25126,-3.04621,0.13556,0.63821
763.669,81.5972,-3.0462,0.12697,0.63528
767.069,81.94318,-3.04752,0.13175,0.63234
770.469,82.28945,-3.04884,0.12999,0.62939
773.869,82.63514,-3.04931,0.13353,0.62644
777.269,82.97994,-3.05147,0.13571,0.62348
780.669,83.3251,-3.0512,0.14161,0.62051
784.069,83.6708,-3.05279,0.1349,0.61753
787.469,84.01751,-3.05281,0.13363,0.61455
790.869,84.363,-3.05278,0.12985,0.61156
794.269,84.70833,-3.05376,0.13495,0.60857
797.669,85.05328,-3.05378,0.1338,0.60557
801.069,85.39842,-3.05377,0.13648,0.60256
804.469,85.7446,-3.05503,0.14057,0.59955
807.869,86.09147,-3.05739,0.14428,0.59653
811.269,86.43809,-3.05774,0.14473,0.5935
814.669,86.78457,-3.05863,0.14884,0.59047
818.069,87.1315,-3.06069,0.15283,0.58744
821.469,87.47972,-3.05937,0.15308,0.58439
824.869,87.8276,-3.06068,0.1505,0.58135
828.269,88.17501,-3.06233,0.15647,0.5783
831.669,88.52154,-3.06233,0.1529,0.57524
835.069,88.86711,-3.06496,0.1614,0.57218
838.469,89.21303,-3.06497,0.15933,0.56911
841.869,89.55793,-3.06618,0.16063,0.56604
845.269,89.90371,-3.06628,0.15511,0.56297
846.169,89.99563,-3.06628,0.15628,0.56215