Folder: fsri_materials_database/01_Data/Pine_Lap_Siding/STA/N2/10K_min

Note: 01_Data/README.md
# Materials and Products Database
## 01_Data

Raw data generated from each apparatus are included here in plain-text format. The data is organized first by material, next by the short name of test apparatus used, and where applicable additional filtering by test settings.

### material.json

Each material directory contains a json file of the same name as the material. This file links the data stored in the repository as well as data and graphs produced by the accompanying scripts (__02_Scripts__) to the respective landing page for the material on the front-end website.

File: Pine_Lap_Siding_STA_N2_10KData_220322_R1.csv
##Temp./Â°C,Time/min,Mass loss(subtr.2)/mg,DSC(subtr.2)/(mW/mg),Sensit./(uV/mW)
49.747,10.00917,-0.00328,0.02001978,1.07513
53.147,11.3396,-0.004810162,0.14047,1.07336
56.547,11.80542,-0.00326886,0.19082,1.07159
59.947,12.20876,-0.005589809,0.22307,1.06982
63.347,12.58924,-0.006912166,0.24256,1.06806
66.747,12.95851,-0.00596479,0.26236,1.06629
70.147,13.32298,-0.007888519,0.27535,1.06453
73.547,13.6825,-0.009540008,0.28836,1.06277
76.947,14.03832,-0.01049771,0.30017,1.06101
80.347,14.39059,-0.01184003,0.31059,1.05925
83.747,14.73976,-0.01446944,0.31725,1.0575
87.147,15.086,-0.01587429,0.31963,1.05574
90.547,15.42965,-0.01678136,0.318,1.05399
93.947,15.7707,-0.01842,0.31491,1.05224
97.347,16.10933,-0.01842005,0.31262,1.0505
100.747,16.44531,-0.01961926,0.30836,1.04875
104.147,16.77985,-0.02105,0.3024,1.04701
107.547,17.11382,-0.02105131,0.29832,1.04526
110.947,17.447,-0.02051388,0.29597,1.04352
114.347,17.77926,-0.02106001,0.29514,1.04178
117.747,18.11151,-0.02072175,0.29072,1.04005
121.147,18.44332,-0.02204047,0.29465,1.03831
124.547,18.77423,-0.02156634,0.29541,1.03658
127.947,19.10493,-0.02203,0.29845,1.03484
131.347,19.43554,-0.02299221,0.30031,1.03311
134.747,19.7654,-0.02140169,0.30432,1.03139
138.147,20.09486,-0.02175431,0.3067,1.02966
141.547,20.42316,-0.0217105,0.31049,1.02793
144.947,20.7509,-0.0233604,0.31291,1.02621
148.347,21.07807,-0.02335087,0.31589,1.02448
151.747,21.4053,-0.02203537,0.31842,1.02276
155.147,21.73222,-0.02335048,0.32506,1.02104
158.547,22.0593,-0.02303097,0.3288,1.01932
161.947,22.38587,-0.02236976,0.33114,1.0176
165.347,22.71172,-0.02319973,0.33666,1.01588
168.747,23.03748,-0.02368003,0.33953,1.01416
172.147,23.3633,-0.02335,0.34289,1.01245
175.547,23.6888,-0.02467,0.34972,1.01073
178.947,24.0136,-0.02467,0.35264,1.00901
182.347,24.33877,-0.02467,0.35749,1.0073
185.747,24.66356,-0.02497793,0.3585,1.00559
189.147,24.98979,-0.02698001,0.36186,1.00387
192.547,25.31515,-0.02698723,0.36359,1.00216
195.947,25.64024,-0.02697712,0.36737,1.00045
199.347,25.96404,-0.02895658,0.37164,0.99873
202.747,26.2886,-0.02961,0.3749,0.99702
206.147,26.612,-0.02963145,0.38033,0.99531
209.547,26.9367,-0.03246,0.38303,0.99359
212.947,27.26155,-0.03249102,0.38381,0.99188
216.347,27.58638,-0.03476,0.3891,0.99017
219.747,27.91034,-0.0350957,0.39124,0.98845
223.147,28.2348,-0.03767575,0.39696,0.98674
226.547,28.55917,-0.04069041,0.40093,0.98502
229.947,28.88389,-0.04562694,0.405,0.98331
233.347,29.2087,-0.04824908,0.40961,0.98159
236.747,29.5338,-0.05220088,0.41708,0.97987
240.147,29.8579,-0.05741242,0.42206,0.97816
243.547,30.1822,-0.0640999,0.42683,0.97644
246.947,30.50628,-0.07171656,0.43113,0.97471
250.347,30.83165,-0.07935813,0.43175,0.97299
253.747,31.15652,-0.08743791,0.4316,0.97127
257.147,31.4814,-0.09841637,0.43091,0.96954
260.547,31.8057,-0.11249,0.43731,0.96781
263.947,32.13001,-0.1236,0.44196,0.96608
267.347,32.4547,-0.1397,0.4443,0.96435
270.747,32.77981,-0.15845,0.44763,0.96262
274.147,33.10565,-0.17683,0.4499,0.96088
277.547,33.43185,-0.19761,0.45566,0.95915
280.947,33.75777,-0.22185,0.46044,0.95741
284.347,34.08385,-0.24739,0.46781,0.95566
287.747,34.4099,-0.27717,0.47083,0.95392
291.147,34.7362,-0.30895,0.48094,0.95217
294.547,35.0634,-0.34234,0.4891,0.95042
297.947,35.39176,-0.3818,0.50049,0.94866
301.347,35.71895,-0.42389,0.51528,0.9469
304.747,36.04625,-0.46915,0.53059,0.94514
308.147,36.3731,-0.52072,0.5483,0.94338
311.547,36.7004,-0.57547,0.566,0.94161
314.947,37.02774,-0.63518,0.58543,0.93983
318.347,37.35508,-0.69891,0.60753,0.93806
321.747,37.68202,-0.7702,0.6279,0.93628
325.147,38.00969,-0.84471,0.64614,0.93449
328.547,38.338,-0.92276,0.66251,0.9327
331.947,38.66578,-1.00413,0.67554,0.93091
335.347,38.99405,-1.08831,0.69002,0.92911
338.747,39.32176,-1.17726,0.70279,0.92731
342.147,39.6501,-1.26623,0.71878,0.9255
345.547,39.97934,-1.36035,0.7463,0.92369
348.947,40.3098,-1.45988,0.77998,0.92187
352.347,40.63982,-1.56405,0.82458,0.92005
355.747,40.96921,-1.67711,0.87925,0.91822
359.147,41.29929,-1.79789,0.92316,0.91639
362.547,41.6288,-1.92431,0.96125,0.91455
365.947,41.9591,-2.05506,0.96646,0.91271
369.347,42.2887,-2.18413,0.92242,0.91086
372.747,42.6181,-2.30223,0.82731,0.909
376.147,42.94829,-2.40261,0.67517,0.90714
379.547,43.2785,-2.481,0.49986,0.90527
382.947,43.60866,-2.53212,0.34007,0.90339
386.347,43.93846,-2.56595,0.22143,0.90151
389.747,44.26838,-2.58522,0.15527,0.89962
393.147,44.59895,-2.59946,0.13128,0.89773
396.547,44.92988,-2.61193,0.11764,0.89583
399.947,45.26125,-2.62141,0.1109,0.89392
403.347,45.59253,-2.6324,0.10232,0.89201
406.747,45.92429,-2.64063,0.09808713,0.89008
410.147,46.25584,-2.65315,0.08812109,0.88815
413.547,46.5874,-2.66192,0.08301789,0.88622
416.947,46.9191,-2.67227,0.07193638,0.88427
420.347,47.25104,-2.68259,0.06885614,0.88232
423.747,47.58296,-2.69192,0.06110265,0.88036
427.147,47.91548,-2.70108,0.05694809,0.87839
430.547,48.24817,-2.70949,0.0534452,0.87642
433.947,48.58253,-2.71857,0.05200638,0.87443
437.347,48.9162,-2.72689,0.05124758,0.87244
440.747,49.25038,-2.73765,0.05582004,0.87044
444.147,49.58528,-2.74334,0.06067269,0.86843
447.547,49.92024,-2.75234,0.06913275,0.86641
450.947,50.2553,-2.75897,0.07630062,0.86439
454.347,50.59033,-2.76691,0.08377643,0.86235
457.747,50.9261,-2.77255,0.09389607,0.86031
461.147,51.26212,-2.77911,0.10289,0.85826
464.547,51.59822,-2.78568,0.10955,0.8562
467.947,51.93442,-2.79095,0.12078,0.85413
471.347,52.27024,-2.79728,0.12978,0.85205
474.747,52.60521,-2.8013,0.13354,0.84996
478.147,52.9397,-2.80646,0.14085,0.84787
481.547,53.2749,-2.8106,0.14307,0.84576
484.947,53.61019,-2.81649,0.1502,0.84364
488.347,53.94602,-2.81832,0.15132,0.84152
491.747,54.2827,-2.82419,0.15363,0.83938
495.147,54.61985,-2.82893,0.1544,0.83724
498.547,54.9572,-2.83154,0.15767,0.83508
501.947,55.29455,-2.83543,0.16209,0.83292
505.347,55.63267,-2.84043,0.16111,0.83074
508.747,55.97054,-2.84175,0.17391,0.82856
512.147,56.308,-2.84756,0.19121,0.82637
515.547,56.64512,-2.84868,0.19789,0.82416
518.947,56.9816,-2.85357,0.20414,0.82195
522.347,57.31796,-2.85621,0.20927,0.81972
525.747,57.65529,-2.86015,0.21553,0.81749
529.147,57.99428,-2.86208,0.21336,0.81524
532.547,58.33379,-2.86418,0.21485,0.81299
535.947,58.67332,-2.86937,0.21591,0.81072
539.347,59.01204,-2.87203,0.21362,0.80844
542.747,59.3506,-2.87466,0.18966,0.80616
546.147,59.68915,-2.8786,0.18289,0.80386
549.547,60.02777,-2.8809,0.18187,0.80155
552.947,60.36747,-2.88242,0.17972,0.79924
556.347,60.70782,-2.88616,0.17796,0.79691
559.747,61.04778,-2.88879,0.17723,0.79457
563.147,61.3876,-2.8911,0.17394,0.79222
566.547,61.72775,-2.89302,0.17564,0.78986
569.947,62.06835,-2.89735,0.17309,0.78748
573.347,62.4093,-2.89867,0.1738,0.7851
576.747,62.7499,-2.90002,0.17238,0.78271
580.147,63.0907,-2.90262,0.17655,0.78031
583.547,63.43023,-2.90393,0.18062,0.77789
586.947,63.7707,-2.90622,0.18392,0.77547
590.347,64.11091,-2.91051,0.18746,0.77303
593.747,64.45229,-2.9138,0.19396,0.77058
597.147,64.7941,-2.91531,0.19749,0.76813
600.547,65.13651,-2.91709,0.20256,0.76566
603.947,65.4795,-2.91974,0.21379,0.76318
607.347,65.82167,-2.92228,0.21472,0.76069
610.747,66.16319,-2.92499,0.23168,0.75819
614.147,66.50487,-2.92828,0.2447,0.75568
617.547,66.84706,-2.93214,0.25378,0.75315
620.947,67.18723,-2.93486,0.26489,0.75062
624.347,67.5281,-2.93914,0.27678,0.74808
627.747,67.86964,-2.94211,0.28972,0.74552
631.147,68.21168,-2.94473,0.30547,0.74296
634.547,68.5531,-2.94897,0.32078,0.74038
637.947,68.89475,-2.95297,0.34113,0.7378
641.347,69.23578,-2.95833,0.36315,0.7352
644.747,69.57839,-2.96229,0.37962,0.73259
648.147,69.92087,-2.96939,0.40478,0.72998
651.547,70.26377,-2.97544,0.42845,0.72735
654.947,70.60579,-2.9811,0.44265,0.72471
658.347,70.94739,-2.9886,0.46617,0.72206
661.747,71.28984,-2.99485,0.48397,0.7194
665.147,71.63384,-3.00155,0.50136,0.71673
668.547,71.97756,-3.01109,0.51152,0.71406
671.947,72.32056,-3.01767,0.51506,0.71137
675.347,72.66363,-3.02443,0.49766,0.70867
678.747,73.0068,-3.03241,0.47613,0.70596
682.147,73.34997,-3.03935,0.45774,0.70324
685.547,73.69318,-3.04422,0.43934,0.70051
688.947,74.03505,-3.05134,0.3951,0.69777
692.347,74.37764,-3.0553,0.27838,0.69502
695.747,74.7207,-3.05727,0.2239,0.69226
699.147,75.06524,-3.05793,0.21924,0.6895
702.547,75.40929,-3.05859,0.21296,0.68672
705.947,75.75367,-3.05991,0.20978,0.68393
709.347,76.09864,-3.06254,0.21176,0.68113
712.747,76.44245,-3.06308,0.20519,0.67833
716.147,76.7864,-3.06297,0.20239,0.67552
719.547,77.13046,-3.06526,0.2036,0.67269
722.947,77.4752,-3.06561,0.20093,0.66986
726.347,77.81952,-3.06814,0.19656,0.66702
729.747,78.16534,-3.06877,0.19759,0.66417
733.147,78.5103,-3.07011,0.19888,0.66131
736.547,78.8557,-3.07011,0.19374,0.65844
739.947,79.2003,-3.07141,0.19087,0.65557
743.347,79.5454,-3.0728,0.18671,0.65268
746.747,79.88942,-3.07273,0.18255,0.64979
750.147,80.23469,-3.07537,0.18144,0.64689
753.547,80.58014,-3.07437,0.18223,0.64398
756.947,80.92621,-3.07326,0.17918,0.64106
760.347,81.271,-3.07491,0.17828,0.63814
763.747,81.61612,-3.07564,0.1807,0.63521
767.147,81.96174,-3.07504,0.17958,0.63227
770.547,82.3077,-3.07735,0.17712,0.62932
773.947,82.65383,-3.07834,0.17665,0.62637
777.347,82.99942,-3.07767,0.17665,0.62341
780.747,83.34504,-3.07899,0.17359,0.62044
784.147,83.69057,-3.07865,0.175,0.61746
787.547,84.03571,-3.07866,0.17482,0.61448
790.947,84.38166,-3.07965,0.17411,0.61149
794.347,84.72726,-3.0803,0.17361,0.6085
797.747,85.07325,-3.08159,0.17457,0.6055
801.147,85.41728,-3.08163,0.17107,0.60249
804.547,85.7616,-3.08294,0.16852,0.59948
807.947,86.10836,-3.08393,0.17221,0.59646
811.347,86.4547,-3.08393,0.16959,0.59343
814.747,86.80077,-3.08405,0.16787,0.5904
818.147,87.1476,-3.08459,0.17333,0.58737
821.547,87.49506,-3.08551,0.17632,0.58433
824.947,87.84219,-3.08656,0.17706,0.58128
828.347,88.19005,-3.08557,0.17513,0.57823
831.747,88.53627,-3.08787,0.17611,0.57517
835.147,88.88283,-3.08891,0.17616,0.57211
838.547,89.2284,-3.08952,0.17559,0.56904
841.947,89.57443,-3.09019,0.17861,0.56597
845.347,89.92103,-3.09052,0.17031,0.5629
846.047,89.99297,-3.09051,0.1678,0.56226

File: Pine_Lap_Siding_STA_N2_10KData_220322_R2.csv
##Temp./Â°C,Time/min,Mass loss(subtr.2)/mg,DSC(subtr.2)/(mW/mg),Sensit./(uV/mW)
49.701,10.00917,-0.06735,0.0268502,1.07515
53.201,11.36235,-0.07021164,0.14024,1.07333
56.701,11.83968,-0.07332072,0.19428,1.07151
60.201,12.25234,-0.07582007,0.2267,1.06969
63.701,12.64221,-0.07835187,0.25016,1.06787
67.201,13.02218,-0.08089482,0.26891,1.06606
70.701,13.39725,-0.08347029,0.28148,1.06424
74.201,13.7674,-0.08510467,0.29627,1.06243
77.701,14.1338,-0.08874705,0.30873,1.06062
81.201,14.4961,-0.09176068,0.32067,1.05881
84.701,14.85324,-0.09530598,0.324,1.05701
88.201,15.2088,-0.09894,0.32369,1.0552
91.701,15.56015,-0.10158,0.32091,1.0534
95.201,15.9088,-0.10289,0.31767,1.0516
98.701,16.2551,-0.10685,0.31081,1.0498
102.201,16.5993,-0.10684,0.30247,1.048
105.701,16.94349,-0.10947,0.29294,1.04621
109.201,17.28539,-0.1121,0.28736,1.04442
112.701,17.62764,-0.11302,0.28183,1.04263
116.201,17.96966,-0.11342,0.27839,1.04084
119.701,18.311,-0.11362,0.2777,1.03905
123.201,18.65214,-0.11487,0.27993,1.03726
126.701,18.99308,-0.11508,0.28248,1.03548
130.201,19.33324,-0.11463,0.28209,1.0337
133.701,19.67238,-0.11605,0.2894,1.03192
137.201,20.01059,-0.11737,0.2917,1.03014
140.701,20.34918,-0.11868,0.2922,1.02836
144.201,20.68744,-0.11859,0.29355,1.02658
147.701,21.02615,-0.11989,0.29761,1.02481
151.201,21.36451,-0.12054,0.29811,1.02304
154.701,21.7014,-0.12121,0.30421,1.02126
158.201,22.03847,-0.12281,0.30652,1.01949
161.701,22.37495,-0.12148,0.3081,1.01772
165.201,22.71055,-0.12165,0.31241,1.01595
168.701,23.04695,-0.1236,0.31498,1.01419
172.201,23.38316,-0.12515,0.32003,1.01242
175.701,23.7191,-0.12483,0.32386,1.01065
179.201,24.05431,-0.12713,0.32733,1.00889
182.701,24.38928,-0.12582,0.33204,1.00712
186.201,24.72295,-0.12577,0.33134,1.00536
189.701,25.0569,-0.12844,0.33701,1.00359
193.201,25.39184,-0.13042,0.33537,1.00183
196.701,25.72687,-0.13089,0.33869,1.00007
200.201,26.0613,-0.13305,0.34078,0.9983
203.701,26.39658,-0.13502,0.34404,0.99654
207.201,26.73228,-0.13635,0.34736,0.99478
210.701,27.06707,-0.13832,0.35101,0.99301
214.201,27.4009,-0.13996,0.35428,0.99125
217.701,27.7348,-0.14161,0.35863,0.98949
221.201,28.06803,-0.14555,0.36212,0.98772
224.701,28.4019,-0.14717,0.36387,0.98596
228.201,28.73576,-0.15214,0.369,0.98419
231.701,29.0697,-0.15444,0.37241,0.98242
235.201,29.40383,-0.15972,0.37952,0.98066
238.701,29.73808,-0.16553,0.38433,0.97889
242.201,30.0716,-0.17133,0.39012,0.97712
245.701,30.40587,-0.17956,0.39273,0.97535
249.201,30.7393,-0.18812,0.39589,0.97357
252.701,31.0737,-0.19682,0.39845,0.9718
256.201,31.40724,-0.20689,0.39759,0.97002
259.701,31.7405,-0.22024,0.39837,0.96824
263.201,32.0743,-0.23401,0.4022,0.96646
266.701,32.40782,-0.24905,0.40479,0.96468
270.201,32.7419,-0.26738,0.40851,0.9629
273.701,33.07693,-0.2888,0.4154,0.96111
277.201,33.41171,-0.30977,0.4173,0.95932
280.701,33.74628,-0.33512,0.4233,0.95753
284.201,34.08136,-0.3622,0.42827,0.95574
287.701,34.41724,-0.39217,0.43112,0.95394
291.201,34.75322,-0.42759,0.43841,0.95214
294.701,35.08891,-0.46472,0.44909,0.95034
298.201,35.42479,-0.50679,0.45816,0.94853
301.701,35.76128,-0.55042,0.47113,0.94672
305.201,36.0974,-0.60134,0.48752,0.9449
308.701,36.43391,-0.65553,0.50434,0.94309
312.201,36.7694,-0.71467,0.52342,0.94127
315.701,37.1051,-0.77863,0.54524,0.93944
319.201,37.43987,-0.84729,0.56668,0.93761
322.701,37.7757,-0.92158,0.58201,0.93578
326.201,38.11169,-1.0008,0.59658,0.93394
329.701,38.4484,-1.08603,0.61152,0.9321
333.201,38.7856,-1.17233,0.6207,0.93025
336.701,39.12209,-1.26566,0.6356,0.9284
340.201,39.46038,-1.35876,0.64822,0.92654
343.701,39.79875,-1.4573,0.67057,0.92467
347.201,40.13692,-1.55883,0.69922,0.92281
350.701,40.47503,-1.66601,0.73704,0.92093
354.201,40.8135,-1.77961,0.78756,0.91905
357.701,41.1518,-1.90391,0.83344,0.91717
361.201,41.49061,-2.03197,0.87704,0.91528
364.701,41.83041,-2.17021,0.89201,0.91338
368.201,42.17064,-2.30495,0.86551,0.91148
371.701,42.5105,-2.43626,0.78313,0.90957
375.201,42.84892,-2.54555,0.65024,0.90766
378.701,43.1868,-2.63696,0.47785,0.90573
382.201,43.5248,-2.69836,0.31407,0.90381
385.701,43.86352,-2.73875,0.17889,0.90187
389.201,44.20134,-2.76162,0.09870935,0.89993
392.701,44.54094,-2.77951,0.06062569,0.89798
396.201,44.88138,-2.79035,0.04725119,0.89602
399.701,45.2227,-2.80359,0.03652992,0.89406
403.201,45.5651,-2.81455,0.02638101,0.89209
406.701,45.9078,-2.82474,0.0198766,0.89011
410.201,46.25007,-2.83646,0.00908329,0.88812
413.701,46.59151,-2.84528,0.007563635,0.88613
417.201,46.93292,-2.85637,-0.00261874,0.88413
420.701,47.2748,-2.86817,-0.01340305,0.88212
424.201,47.61802,-2.87758,-0.02142581,0.8801
427.701,47.96148,-2.88777,-0.02736815,0.87807
431.201,48.30515,-2.89789,-0.02993229,0.87603
434.701,48.64885,-2.90615,-0.03197856,0.87399
438.201,48.99242,-2.91578,-0.03375866,0.87194
441.701,49.33488,-2.92507,-0.03078798,0.86988
445.201,49.67843,-2.93143,-0.02771029,0.86781
448.701,50.02252,-2.93997,-0.01953581,0.86573
452.201,50.36646,-2.94876,-0.00829918,0.86364
455.701,50.71143,-2.95426,-0.001986657,0.86154
459.201,51.05742,-2.96157,0.002197165,0.85944
462.701,51.403,-2.96943,0.008101895,0.85732
466.201,51.74863,-2.97612,0.01696264,0.85519
469.701,52.0938,-2.9806,0.02313002,0.85306
473.201,52.439,-2.98707,0.02643162,0.85091
476.701,52.7839,-2.99102,0.03169375,0.84876
480.201,53.1291,-2.99629,0.03543754,0.84659
483.701,53.4755,-3.00189,0.03784756,0.84442
487.201,53.823,-3.0055,0.04098879,0.84223
490.701,54.1702,-3.00945,0.03991124,0.84004
494.201,54.51696,-3.01527,0.04048778,0.83783
497.701,54.8636,-3.0189,0.04298216,0.83562
501.201,55.20997,-3.02284,0.04210178,0.83339
504.701,55.55602,-3.0262,0.04405773,0.83116
508.201,55.90197,-3.03107,0.05708237,0.82891
511.701,56.24899,-3.03502,0.06621408,0.82665
515.201,56.59636,-3.03864,0.07955236,0.82439
518.701,56.9443,-3.04291,0.08023882,0.82211
522.201,57.29159,-3.04653,0.08446679,0.81982
525.701,57.63965,-3.0495,0.09087556,0.81752
529.201,57.98706,-3.05327,0.08956247,0.81521
532.701,58.3336,-3.0565,0.09102102,0.81288
536.201,58.68054,-3.05937,0.09338773,0.81055
539.701,59.02819,-3.06333,0.08682397,0.80821
543.201,59.37655,-3.06792,0.06656227,0.80585
546.701,59.72571,-3.07055,0.05561297,0.80349
550.201,60.07583,-3.0722,0.05101323,0.80111
553.701,60.4262,-3.07475,0.04707268,0.79872
557.201,60.77675,-3.07845,0.0446962,0.79632
560.701,61.12715,-3.08207,0.04435692,0.79391
564.201,61.47766,-3.08471,0.0442038,0.79149
567.701,61.827,-3.08598,0.04168007,0.78905
571.201,62.1775,-3.08985,0.04388206,0.78661
574.701,62.52854,-3.09227,0.04048982,0.78415
578.201,62.87927,-3.09622,0.03547764,0.78168
581.701,63.22981,-3.09655,0.0356284,0.7792
585.201,63.5798,-3.1005,0.03843812,0.77671
588.701,63.9303,-3.10182,0.04147038,0.77421
592.201,64.2803,-3.10412,0.04447238,0.7717
595.701,64.63078,-3.10807,0.04735333,0.76917
599.201,64.9819,-3.1107,0.05649639,0.76664
602.701,65.33249,-3.11234,0.06479998,0.76409
606.201,65.6832,-3.11563,0.06857102,0.76153
609.701,66.03613,-3.11794,0.07738046,0.75896
613.201,66.38789,-3.12144,0.08536911,0.75638
616.701,66.74025,-3.12294,0.09887869,0.75378
620.201,67.09231,-3.12814,0.11029,0.75118
623.701,67.4436,-3.1299,0.11952,0.74856
627.201,67.79468,-3.13373,0.13522,0.74594
630.701,68.1459,-3.13807,0.14748,0.7433
634.201,68.49797,-3.14228,0.16487,0.74065
637.701,68.8494,-3.14756,0.18322,0.73799
641.201,69.20221,-3.15282,0.20226,0.73531
644.701,69.5554,-3.15613,0.22099,0.73263
648.201,69.90864,-3.16468,0.24234,0.72994
651.701,70.26139,-3.16765,0.26387,0.72723
655.201,70.6156,-3.17595,0.28362,0.72451
658.701,70.96904,-3.18189,0.30413,0.72179
662.201,71.32391,-3.18871,0.32618,0.71905
665.701,71.67737,-3.1957,0.34001,0.7163
669.201,72.03028,-3.20493,0.34653,0.71354
672.701,72.38211,-3.21414,0.34941,0.71077
676.201,72.73441,-3.22177,0.3348,0.70799
679.701,73.08739,-3.22865,0.30732,0.7052
683.201,73.44023,-3.23527,0.28304,0.70239
686.701,73.7933,-3.24309,0.26308,0.69958
690.201,74.14673,-3.24938,0.20785,0.69676
693.701,74.50064,-3.25198,0.07927849,0.69392
697.201,74.85515,-3.25329,0.04968873,0.69108
700.701,75.20985,-3.2546,0.04673403,0.68823
704.201,75.5638,-3.25521,0.0399753,0.68536
707.701,75.9173,-3.25593,0.03817718,0.68249
711.201,76.27245,-3.25856,0.03531463,0.67961
714.701,76.62697,-3.25966,0.03208462,0.67671
718.201,76.98325,-3.26101,0.0327205,0.67381
721.701,77.3385,-3.26189,0.03094138,0.6709
725.201,77.6938,-3.26228,0.03058694,0.66798
728.701,78.0484,-3.26535,0.02379475,0.66505
732.201,78.40281,-3.26536,0.02204405,0.66211
735.701,78.7577,-3.26535,0.01934699,0.65916
739.201,79.1125,-3.267,0.01136515,0.6562
742.701,79.46821,-3.267,0.0142068,0.65323
746.201,79.8248,-3.26787,0.01513737,0.65025
749.701,80.18129,-3.27128,0.01461913,0.64727
753.201,80.53636,-3.27098,0.01163674,0.64428
756.701,80.89226,-3.27227,0.008318595,0.64128
760.201,81.2472,-3.27095,0.00827854,0.63827
763.701,81.60303,-3.27194,0.01085202,0.63525
767.201,81.95921,-3.27391,0.008891704,0.63222
770.701,82.315,-3.27358,0.00229778,0.62919
774.201,82.66994,-3.27622,-0.0002789892,0.62615
777.701,83.02606,-3.27654,-0.0006126896,0.6231
781.201,83.38145,-3.27753,-0.000266172,0.62004
784.701,83.7362,-3.27729,0.0002828404,0.61698
788.201,84.09302,-3.27719,-0.003444311,0.61391
791.701,84.45062,-3.27984,-0.009317059,0.61083
795.201,84.80696,-3.27918,-0.01127995,0.60775
798.701,85.1636,-3.28082,-0.007240199,0.60466
802.201,85.5202,-3.28082,-0.009684145,0.60156
805.701,85.87589,-3.28148,-0.01641062,0.59845
809.201,86.23314,-3.2828,-0.01453404,0.59534
812.701,86.59048,-3.28412,-0.01700978,0.59223
816.201,86.94842,-3.28311,-0.0212379,0.5891
819.701,87.30587,-3.28378,-0.03203541,0.58598
823.201,87.6636,-3.28675,-0.03283672,0.58284
826.701,88.02094,-3.28673,-0.0346508,0.5797
830.201,88.37768,-3.28641,-0.03938833,0.57656
833.701,88.7346,-3.2851,-0.0433765,0.57341
837.201,89.09082,-3.28773,-0.04198121,0.57026
840.701,89.44669,-3.28773,-0.03665328,0.5671
844.201,89.80373,-3.28773,-0.04177442,0.56393
846.101,89.9974,-3.28905,-0.04048955,0.56222