Folder: fsri_materials_database/01_Data/Pine_Lap_Siding/STA/N2/30K_min (part 2)

File: Pine_Lap_Siding_STA_N2_30KData_220323_R3.csv
##Temp./Â°C,Time/min,Mass loss(subtr.2)/mg,DSC(subtr.2)/(mW/mg),Sensit./(uV/mW)
48.74,10.00917,-0.04815,0.02283143,1.08894
52.14,10.89258,-0.05222227,0.16744,1.08608
55.54,11.13203,-0.05322818,0.27049,1.08323
58.94,11.3175,-0.05137096,0.35575,1.08041
62.34,11.4776,-0.05171429,0.42499,1.07761
65.74,11.6241,-0.05498641,0.48863,1.07482
69.14,11.76177,-0.05494128,0.54402,1.07206
72.54,11.89315,-0.0577449,0.59419,1.06932
75.94,12.02086,-0.05834907,0.64235,1.0666
79.34,12.14545,-0.05909894,0.68316,1.06389
82.74,12.2677,-0.06010638,0.72041,1.06121
86.14,12.3878,-0.06256722,0.76042,1.05854
89.54,12.50645,-0.06406144,0.79207,1.0559
92.94,12.62378,-0.06684172,0.82308,1.05328
96.34,12.74008,-0.06499904,0.84631,1.05067
99.74,12.85525,-0.06774123,0.86363,1.04809
103.14,12.97035,-0.07041205,0.87791,1.04552
106.54,13.08502,-0.07242127,0.87983,1.04297
109.94,13.1994,-0.07435999,0.87297,1.04045
113.34,13.3133,-0.07543525,0.86389,1.03794
116.74,13.427,-0.07732021,0.84971,1.03545
120.14,13.53992,-0.07732026,0.83687,1.03298
123.54,13.6525,-0.07892449,0.82374,1.03053
126.94,13.76454,-0.07996176,0.81684,1.02809
130.34,13.87579,-0.08258991,0.81116,1.02568
133.74,13.98642,-0.08258822,0.81015,1.02328
137.14,14.09649,-0.08128006,0.80901,1.02091
140.54,14.20616,-0.08127052,0.81409,1.01855
143.94,14.3149,-0.08127,0.82079,1.01621
147.34,14.4236,-0.0826415,0.83056,1.01388
150.74,14.5316,-0.08389912,0.84113,1.01158
154.14,14.6395,-0.0839,0.8506,1.00929
157.54,14.74686,-0.08313429,0.86169,1.00702
160.94,14.854,-0.0837788,0.87238,1.00476
164.34,14.9608,-0.08258637,0.88367,1.00253
167.74,15.06744,-0.08394645,0.89723,1.00031
171.14,15.17361,-0.08523668,0.90998,0.99811
174.54,15.2801,-0.08547351,0.92178,0.99592
177.94,15.38585,-0.08457657,0.93182,0.99375
181.34,15.49119,-0.0865093,0.94339,0.9916
184.74,15.5962,-0.08719008,0.95675,0.98946
188.14,15.70084,-0.08731061,0.96793,0.98734
191.54,15.80529,-0.08851,0.9767,0.98523
194.94,15.9093,-0.0885094,0.99051,0.98314
198.34,16.0133,-0.09022121,1.00127,0.98106
201.74,16.1171,-0.09049012,1.01178,0.979
205.14,16.22062,-0.09278398,1.0208,0.97695
208.54,16.32395,-0.09147144,1.03231,0.97492
211.94,16.42719,-0.09246028,1.04377,0.9729
215.34,16.53033,-0.09279612,1.0515,0.9709
218.74,16.63326,-0.09412131,1.06452,0.96891
222.14,16.7361,-0.09794283,1.0749,0.96693
225.54,16.83899,-0.09937009,1.08527,0.96496
228.94,16.94156,-0.10063,1.09403,0.96301
232.34,17.0442,-0.1033,1.10216,0.96107
235.74,17.1467,-0.10729,1.11425,0.95915
239.14,17.24932,-0.10859,1.12039,0.95723
242.54,17.35173,-0.11209,1.1332,0.95533
245.94,17.45401,-0.11525,1.13935,0.95344
249.34,17.55676,-0.11948,1.14849,0.95156
252.74,17.6592,-0.12405,1.16009,0.94969
256.14,17.76163,-0.12771,1.17004,0.94783
259.54,17.86414,-0.13514,1.18264,0.94599
262.94,17.96645,-0.14155,1.19399,0.94415
266.34,18.06906,-0.15059,1.2076,0.94232
269.74,18.1717,-0.15897,1.21834,0.94051
273.14,18.27431,-0.1675,1.22942,0.9387
276.54,18.3769,-0.17816,1.23768,0.9369
279.94,18.4799,-0.19247,1.24655,0.93511
283.34,18.5825,-0.20628,1.25886,0.93333
286.74,18.68543,-0.22241,1.26719,0.93156
290.14,18.78841,-0.23876,1.27481,0.92979
293.54,18.8912,-0.25673,1.28483,0.92803
296.94,18.9941,-0.27903,1.29585,0.92628
300.34,19.0974,-0.30006,1.30431,0.92454
303.74,19.20029,-0.32661,1.31697,0.9228
307.14,19.30336,-0.3531,1.32828,0.92107
310.54,19.40646,-0.38486,1.34506,0.91935
313.94,19.5096,-0.41741,1.36565,0.91763
317.34,19.61298,-0.45293,1.38965,0.91592
320.74,19.7163,-0.49204,1.41706,0.91421
324.14,19.81979,-0.53368,1.45235,0.91251
327.54,19.92328,-0.58159,1.49219,0.91081
330.94,20.02686,-0.63111,1.53621,0.90912
334.34,20.1307,-0.68891,1.58223,0.90743
337.74,20.2344,-0.74768,1.63407,0.90574
341.14,20.33815,-0.813,1.67944,0.90406
344.54,20.44202,-0.88487,1.72391,0.90238
347.94,20.54624,-0.95709,1.76006,0.90071
351.34,20.6505,-1.0366,1.79433,0.89903
354.74,20.7549,-1.11976,1.82146,0.89736
358.14,20.85941,-1.20279,1.84878,0.89569
361.54,20.96409,-1.29185,1.88385,0.89402
364.94,21.06888,-1.37834,1.93014,0.89235
368.34,21.17377,-1.47124,1.99814,0.89069
371.74,21.279,-1.57207,2.08937,0.88902
375.14,21.38428,-1.67179,2.20459,0.88736
378.54,21.4899,-1.78242,2.33213,0.88569
381.94,21.59544,-1.90291,2.44992,0.88403
385.34,21.70141,-2.02413,2.5302,0.88236
388.74,21.80724,-2.15471,2.53938,0.8807
392.14,21.91324,-2.28224,2.44532,0.87903
395.54,22.01905,-2.3975,2.2191,0.87736
398.94,22.12451,-2.50493,1.87044,0.87569
402.34,22.22994,-2.58615,1.43818,0.87401
405.74,22.33546,-2.64819,0.99745,0.87234
409.14,22.4408,-2.6923,0.62379,0.87066
412.54,22.54629,-2.71928,0.35032,0.86898
415.94,22.65156,-2.73602,0.18639,0.8673
419.34,22.75716,-2.75157,0.09655048,0.86561
422.74,22.86319,-2.7629,0.04536451,0.86392
426.14,22.96919,-2.77133,0.00945891,0.86222
429.54,23.07545,-2.78169,-0.0170408,0.86052
432.94,23.18177,-2.79382,-0.0436613,0.85882
436.34,23.28826,-2.80496,-0.0671314,0.85711
439.74,23.39488,-2.81466,-0.0899901,0.8554
443.14,23.50156,-2.82487,-0.10989,0.85368
446.54,23.60839,-2.83419,-0.13156,0.85195
449.94,23.7153,-2.84376,-0.14567,0.85022
453.34,23.82248,-2.85204,-0.15345,0.84848
456.74,23.9298,-2.8601,-0.15956,0.84674
460.14,24.037,-2.86764,-0.16079,0.84499
463.54,24.14452,-2.87529,-0.15352,0.84323
466.94,24.2518,-2.88431,-0.14263,0.84147
470.34,24.35976,-2.89259,-0.12175,0.83969
473.74,24.4676,-2.89775,-0.10627,0.83792
477.14,24.57568,-2.90569,-0.08335509,0.83613
480.54,24.68378,-2.90991,-0.0605404,0.83433
483.94,24.79201,-2.91618,-0.04066783,0.83253
487.34,24.90025,-2.92397,-0.01781987,0.83072
490.74,25.00902,-2.93014,0.0006846094,0.82889
494.14,25.1177,-2.93548,0.01674598,0.82706
497.54,25.22644,-2.94083,0.02892413,0.82522
500.94,25.33549,-2.94359,0.0396609,0.82337
504.34,25.44455,-2.94921,0.04763141,0.82151
507.74,25.55378,-2.95407,0.0548744,0.81964
511.14,25.66315,-2.95846,0.06038707,0.81777
514.54,25.77253,-2.96122,0.06815666,0.81588
517.94,25.8822,-2.96601,0.07208961,0.81398
521.34,25.99169,-2.96838,0.08031484,0.81206
524.74,26.10175,-2.9725,0.08497081,0.81014
528.14,26.21161,-2.9778,0.08658105,0.80821
531.54,26.3216,-2.98069,0.08806861,0.80627
534.94,26.4319,-2.98332,0.08766926,0.80431
538.34,26.54202,-2.98747,0.08390342,0.80234
541.74,26.6524,-2.98955,0.08285625,0.80036
545.14,26.7629,-2.99444,0.07422724,0.79837
548.54,26.87339,-2.99784,0.07047899,0.79637
551.94,26.98384,-3.00043,0.06751967,0.79435
555.34,27.0944,-3.00308,0.06974544,0.79232
558.74,27.2048,-3.00691,0.07876271,0.79028
562.14,27.3154,-3.00899,0.08733052,0.78823
565.54,27.4261,-3.01072,0.08991778,0.78616
568.94,27.5368,-3.01419,0.08701892,0.78408
572.34,27.6477,-3.01834,0.08993746,0.78199
575.74,27.7584,-3.02097,0.09372448,0.77989
579.14,27.8694,-3.02229,0.09716207,0.77777
582.54,27.9803,-3.02364,0.09618071,0.77563
585.94,28.0914,-3.02623,0.09870498,0.77349
589.34,28.2024,-3.02966,0.09998965,0.77133
592.74,28.31389,-3.03298,0.09365507,0.76915
596.14,28.4251,-3.03506,0.09371845,0.76697
599.54,28.5366,-3.03735,0.08269822,0.76476
602.94,28.6483,-3.04031,0.07623879,0.76255
606.34,28.75998,-3.04301,0.06664541,0.76032
609.74,28.8719,-3.04565,0.05916092,0.75807
613.14,28.98388,-3.04928,0.05284841,0.75581
616.54,29.09566,-3.04924,0.04823942,0.75354
619.94,29.2076,-3.05189,0.04848278,0.75125
623.34,29.31985,-3.05453,0.0534302,0.74895
626.74,29.43204,-3.05619,0.05692045,0.74663
630.14,29.5443,-3.06018,0.05917459,0.7443
633.54,29.6567,-3.06268,0.06837512,0.74195
636.94,29.76905,-3.0655,0.07520239,0.73959
640.34,29.88128,-3.06798,0.08517039,0.73721
643.74,29.9936,-3.07089,0.09837633,0.73482
647.14,30.1061,-3.07225,0.10997,0.73241
650.54,30.21858,-3.07615,0.12674,0.72999
653.94,30.33095,-3.07753,0.14756,0.72755
657.34,30.4435,-3.08065,0.17132,0.7251
660.74,30.5563,-3.08195,0.20182,0.72264
664.14,30.669,-3.08916,0.23659,0.72016
667.54,30.7819,-3.09401,0.2765,0.71766
670.94,30.8949,-3.09672,0.31982,0.71515
674.34,31.0077,-3.09978,0.36585,0.71262
677.74,31.12019,-3.10575,0.41296,0.71008
681.14,31.23351,-3.11188,0.46496,0.70752
684.54,31.3466,-3.11792,0.51716,0.70495
687.94,31.4598,-3.12266,0.57312,0.70236
691.34,31.57303,-3.12857,0.62943,0.69976
694.74,31.68621,-3.13481,0.67871,0.69715
698.14,31.79927,-3.14185,0.72417,0.69451
701.54,31.91232,-3.15005,0.75651,0.69187
704.94,32.02565,-3.15649,0.77527,0.68921
708.34,32.13878,-3.1633,0.76711,0.68653
711.74,32.25196,-3.16487,0.72513,0.68384
715.14,32.36531,-3.17772,0.66143,0.68114
718.54,32.47845,-3.18615,0.58985,0.67842
721.94,32.59187,-3.19255,0.5007,0.67568
725.34,32.70531,-3.19578,0.28078,0.67293
728.74,32.81821,-3.19855,-0.02478716,0.67017
732.14,32.93201,-3.19855,-0.12855,0.66739
735.54,33.0454,-3.20083,-0.16435,0.6646
738.94,33.15922,-3.20086,-0.17895,0.6618
742.34,33.27281,-3.20113,-0.18952,0.65898
745.74,33.3867,-3.20251,-0.20581,0.65614
749.14,33.50027,-3.20709,-0.21261,0.6533
752.54,33.6144,-3.20798,-0.22005,0.65044
755.94,33.72848,-3.20799,-0.23286,0.64756
759.34,33.84251,-3.20536,-0.23937,0.64467
762.74,33.95668,-3.20669,-0.24166,0.64177
766.14,34.071,-3.2093,-0.24594,0.63886
769.54,34.18525,-3.20978,-0.25661,0.63593
772.94,34.29959,-3.21062,-0.26121,0.63299
776.34,34.41384,-3.21318,-0.26535,0.63004
779.74,34.52811,-3.21326,-0.26967,0.62707
783.14,34.6424,-3.21451,-0.27541,0.62409
786.54,34.75676,-3.21589,-0.27874,0.6211
789.94,34.87104,-3.21457,-0.28268,0.6181
793.34,34.98534,-3.21438,-0.28783,0.61508
796.74,35.09957,-3.21456,-0.29159,0.61205
800.14,35.21386,-3.215,-0.28925,0.60901
803.54,35.32837,-3.21589,-0.29625,0.60596
806.94,35.44304,-3.21585,-0.30147,0.6029
810.34,35.55762,-3.21846,-0.30152,0.59982
813.74,35.67208,-3.21996,-0.30217,0.59674
817.14,35.7866,-3.22091,-0.30515,0.59364
820.54,35.90116,-3.21994,-0.31143,0.59053
823.94,36.01572,-3.22119,-0.31003,0.58741
827.34,36.1305,-3.22125,-0.31282,0.58428
830.74,36.2454,-3.22257,-0.31868,0.58115
834.14,36.36031,-3.22389,-0.31702,0.578
837.54,36.4754,-3.2226,-0.31965,0.57484
840.94,36.59046,-3.22225,-0.3264,0.57167
843.14,36.66511,-3.22225,-0.32346,0.56961