Folder: fsri_materials_database/01_Data/Pine_Lap_Siding/STA/N2/30K_min

Note: 01_Data/README.md
# Materials and Products Database
## 01_Data

Raw data generated from each apparatus are included here in plain-text format. The data is organized first by material, next by the short name of test apparatus used, and where applicable additional filtering by test settings.

### material.json

Each material directory contains a json file of the same name as the material. This file links the data stored in the repository as well as data and graphs produced by the accompanying scripts (__02_Scripts__) to the respective landing page for the material on the front-end website.

File: Pine_Lap_Siding_STA_N2_30KData_220321_R1.csv
##Temp./Â°C,Time/min,Mass loss(subtr.2)/mg,DSC(subtr.2)/(mW/mg),Sensit./(uV/mW)
48.799,10.00917,-0.06845,0.02259075,1.08889
52.199,10.89153,-0.06989635,0.17431,1.08603
55.599,11.13035,-0.07541875,0.28134,1.08318
58.999,11.3148,-0.07742281,0.36533,1.08036
62.399,11.47441,-0.0788657,0.43448,1.07756
65.799,11.62011,-0.07743498,0.49467,1.07478
69.199,11.75698,-0.07833701,0.54724,1.07201
72.599,11.88825,-0.08341554,0.59604,1.06927
75.999,12.0154,-0.0826315,0.64081,1.06655
79.399,12.1392,-0.08391136,0.6814,1.06385
82.799,12.26121,-0.08314695,0.71717,1.06116
86.199,12.381,-0.08626008,0.74782,1.0585
89.599,12.49906,-0.08752769,0.77682,1.05585
92.999,12.616,-0.08903628,0.80442,1.05323
96.399,12.73172,-0.09046778,0.82298,1.05063
99.799,12.84716,-0.09168462,0.83461,1.04804
103.199,12.96156,-0.09564473,0.84441,1.04548
106.599,13.07589,-0.09762247,0.84532,1.04293
109.999,13.19,-0.09828301,0.83888,1.0404
113.399,13.3037,-0.09869143,0.83227,1.03789
116.799,13.41704,-0.09958639,0.82186,1.0354
120.199,13.52994,-0.1019,0.81122,1.03293
123.599,13.64231,-0.1019,0.7999,1.03048
126.999,13.7542,-0.10197,0.78902,1.02805
130.399,13.86565,-0.10286,0.78753,1.02564
133.799,13.97644,-0.1019,0.78846,1.02324
137.199,14.08641,-0.10337,0.79165,1.02086
140.599,14.19607,-0.10585,0.79354,1.01851
143.999,14.3053,-0.10715,0.80478,1.01617
147.399,14.41373,-0.11,0.80973,1.01384
150.799,14.5219,-0.111,0.82121,1.01154
154.199,14.62977,-0.10719,0.83295,1.00925
157.599,14.7372,-0.10741,0.84013,1.00698
160.999,14.84446,-0.11013,0.85182,1.00473
164.399,14.9512,-0.11276,0.86365,1.00249
167.799,15.0579,-0.11276,0.87292,1.00027
171.199,15.1647,-0.11372,0.88259,0.99807
174.599,15.271,-0.11157,0.89187,0.99588
177.999,15.37696,-0.11155,0.90423,0.99371
181.399,15.4825,-0.11292,0.91288,0.99156
184.799,15.5875,-0.11287,0.92302,0.98942
188.199,15.6923,-0.11288,0.93238,0.9873
191.599,15.79675,-0.1155,0.9441,0.98519
194.999,15.9008,-0.11684,0.95297,0.9831
198.399,16.005,-0.11617,0.96256,0.98103
201.799,16.10885,-0.11989,0.97244,0.97896
205.199,16.21257,-0.11989,0.98293,0.97692
208.599,16.31635,-0.12121,0.98932,0.97488
211.999,16.41984,-0.12121,0.99973,0.97287
215.399,16.5231,-0.12053,1.01147,0.97086
218.799,16.62664,-0.12532,1.01971,0.96887
222.199,16.73,-0.12789,1.02956,0.96689
225.599,16.8333,-0.12919,1.03885,0.96493
228.999,16.9364,-0.12987,1.04662,0.96298
232.399,17.0395,-0.13053,1.05522,0.96104
235.799,17.1424,-0.13314,1.06393,0.95911
239.199,17.24548,-0.13409,1.07231,0.9572
242.599,17.34856,-0.1374,1.08031,0.9553
245.999,17.4514,-0.13871,1.09072,0.95341
249.399,17.55426,-0.14185,1.09928,0.95153
252.799,17.65711,-0.14772,1.11278,0.94966
256.199,17.75984,-0.15448,1.12397,0.9478
259.599,17.8627,-0.16637,1.13929,0.94596
262.999,17.96544,-0.17552,1.15412,0.94412
266.399,18.0683,-0.1811,1.16354,0.94229
269.799,18.17101,-0.19075,1.17855,0.94048
273.199,18.27392,-0.20093,1.18982,0.93867
276.599,18.37678,-0.211,1.20232,0.93687
279.999,18.4799,-0.22227,1.21322,0.93508
283.399,18.5828,-0.23474,1.22238,0.9333
286.799,18.68573,-0.25522,1.2364,0.93153
290.199,18.78882,-0.27264,1.24817,0.92976
293.599,18.892,-0.28576,1.26025,0.928
296.999,18.9951,-0.30594,1.27203,0.92625
300.399,19.09827,-0.32982,1.28391,0.92451
303.799,19.20149,-0.35892,1.29941,0.92277
307.199,19.30475,-0.38592,1.31742,0.92104
310.599,19.40796,-0.41909,1.3368,0.91932
313.999,19.51122,-0.44773,1.36061,0.9176
317.399,19.6147,-0.48247,1.39019,0.91589
320.799,19.71815,-0.52482,1.4264,0.91418
324.199,19.82161,-0.5662,1.46389,0.91248
327.599,19.92545,-0.61547,1.50871,0.91078
330.999,20.02895,-0.66643,1.56105,0.90909
334.399,20.1328,-0.72321,1.61477,0.9074
337.799,20.23658,-0.78416,1.67111,0.90571
341.199,20.3403,-0.84927,1.72374,0.90403
344.599,20.44493,-0.91875,1.76971,0.90235
347.999,20.54888,-0.99333,1.81145,0.90068
351.399,20.65309,-1.07209,1.84529,0.899
354.799,20.75739,-1.14665,1.8757,0.89733
358.199,20.86178,-1.22937,1.90485,0.89566
361.599,20.9662,-1.3139,1.93659,0.89399
364.999,21.07084,-1.39962,1.98507,0.89233
368.399,21.17558,-1.49579,2.05547,0.89066
371.799,21.28022,-1.59232,2.15403,0.88899
375.199,21.38521,-1.69064,2.27241,0.88733
378.599,21.4905,-1.80171,2.40616,0.88566
381.999,21.59585,-1.91546,2.5379,0.884
385.399,21.701,-2.03755,2.63145,0.88233
388.799,21.80685,-2.16692,2.6546,0.88067
392.199,21.91229,-2.28693,2.57138,0.879
395.599,22.01774,-2.40639,2.35376,0.87733
398.999,22.1231,-2.51025,2.00846,0.87566
402.399,22.22832,-2.59154,1.57077,0.87399
405.799,22.33312,-2.65604,1.12052,0.87231
409.199,22.43798,-2.69666,0.72917,0.87063
412.599,22.5428,-2.72387,0.44198,0.86895
415.999,22.64798,-2.74226,0.26777,0.86727
419.399,22.75323,-2.75793,0.17094,0.86558
422.799,22.85876,-2.77009,0.11601,0.86389
426.199,22.96448,-2.77998,0.08264031,0.86219
429.599,23.0705,-2.79004,0.04953128,0.86049
432.999,23.1767,-2.79944,0.02481469,0.85879
436.399,23.28289,-2.80891,-0.003059315,0.85708
439.799,23.38934,-2.81819,-0.03303749,0.85537
443.199,23.49589,-2.82635,-0.05771644,0.85365
446.599,23.6029,-2.83639,-0.07964108,0.85192
449.999,23.7096,-2.84541,-0.09607646,0.85019
453.399,23.81692,-2.85362,-0.10476,0.84845
456.799,23.9242,-2.86472,-0.11273,0.84671
460.199,24.03172,-2.87176,-0.11605,0.84496
463.599,24.13907,-2.87815,-0.10849,0.8432
466.999,24.24683,-2.88768,-0.09696609,0.84144
470.399,24.35454,-2.89721,-0.08187156,0.83966
473.799,24.4624,-2.89975,-0.06433117,0.83788
477.199,24.5704,-2.91138,-0.0460267,0.8361
480.599,24.67831,-2.91287,-0.02732431,0.8343
483.999,24.78687,-2.91798,-0.00811144,0.8325
487.399,24.895,-2.92533,0.01081636,0.83068
490.799,25.00362,-2.9329,0.02533562,0.82886
494.199,25.11199,-2.93864,0.03768784,0.82703
497.599,25.2206,-2.94038,0.04712875,0.82519
500.999,25.3295,-2.94247,0.05629246,0.82334
504.399,25.4383,-2.94903,0.05961748,0.82148
507.799,25.54734,-2.95256,0.06410663,0.81961
511.199,25.65631,-2.95677,0.06614915,0.81773
514.599,25.7656,-2.96137,0.07192008,0.81584
517.999,25.87438,-2.96692,0.07007571,0.81394
521.399,25.98433,-2.97171,0.06971194,0.81203
524.799,26.09389,-2.97454,0.07016927,0.81011
528.199,26.20397,-2.97665,0.06802014,0.80818
531.599,26.31411,-2.98026,0.06677428,0.80623
534.999,26.4248,-2.98333,0.05782974,0.80428
538.399,26.53534,-2.99025,0.05143116,0.80231
541.799,26.64599,-2.99129,0.04484314,0.80033
545.199,26.75709,-2.99666,0.0364227,0.79834
548.599,26.868,-2.99937,0.03058245,0.79633
551.999,26.97895,-2.99806,0.02708332,0.79432
555.399,27.0898,-3.002,0.03581783,0.79229
558.799,27.2008,-3.00591,0.03857347,0.79025
562.199,27.31158,-3.00858,0.03630572,0.78819
565.599,27.42264,-3.01167,0.03817864,0.78613
568.999,27.5335,-3.01601,0.03301583,0.78405
572.399,27.6445,-3.01981,0.03320038,0.78196
575.799,27.75527,-3.02284,0.03091361,0.77985
579.199,27.8662,-3.02284,0.03142295,0.77773
582.599,27.97717,-3.02671,0.02524279,0.7756
585.999,28.0881,-3.02679,0.01969989,0.77345
589.399,28.1992,-3.02778,0.008969442,0.77129
592.799,28.3104,-3.03096,-0.008806928,0.76912
596.199,28.4217,-3.03367,-0.02254219,0.76693
599.599,28.5328,-3.03455,-0.03529264,0.76472
602.999,28.6441,-3.03649,-0.04349911,0.76251
606.399,28.7553,-3.04019,-0.05060906,0.76028
609.799,28.8671,-3.04242,-0.05513506,0.75803
613.199,28.9787,-3.04562,-0.05662276,0.75577
616.599,29.0906,-3.04806,-0.05824781,0.7535
619.999,29.20275,-3.05203,-0.06371237,0.75121
623.399,29.3152,-3.05461,-0.06333196,0.74891
626.799,29.4276,-3.0563,-0.06136233,0.74659
630.199,29.5401,-3.05641,-0.05849313,0.74426
633.599,29.6525,-3.05866,-0.05400047,0.74191
636.999,29.7652,-3.06135,-0.04791901,0.73955
640.399,29.8781,-3.06597,-0.0420148,0.73717
643.799,29.99098,-3.06595,-0.03420538,0.73478
647.199,30.10363,-3.06874,-0.01613049,0.73237
650.599,30.2164,-3.07244,-0.001899163,0.72995
653.999,30.3293,-3.07571,0.02194935,0.72751
657.399,30.44182,-3.07823,0.0515233,0.72506
660.799,30.55453,-3.08099,0.07931559,0.72259
664.199,30.6674,-3.08584,0.11827,0.72011
667.599,30.78026,-3.09107,0.15754,0.71761
670.999,30.893,-3.09717,0.20034,0.7151
674.399,31.0057,-3.10085,0.24371,0.71258
677.799,31.11855,-3.10538,0.29441,0.71003
681.199,31.2317,-3.11024,0.34575,0.70748
684.599,31.3449,-3.1171,0.39618,0.70491
687.999,31.458,-3.12407,0.44339,0.70232
691.399,31.57137,-3.12864,0.49322,0.69972
694.799,31.6845,-3.13469,0.5313,0.6971
698.199,31.7977,-3.14346,0.55412,0.69447
701.599,31.9112,-3.15067,0.56144,0.69182
704.999,32.0245,-3.15375,0.53317,0.68916
708.399,32.1377,-3.16271,0.48068,0.68648
711.799,32.2512,-3.16993,0.39815,0.68379
715.199,32.36455,-3.17668,0.31571,0.68109
718.599,32.47795,-3.18156,0.21329,0.67837
721.999,32.59125,-3.18398,-0.01750145,0.67563
725.399,32.7046,-3.18678,-0.27085,0.67289
728.799,32.81795,-3.19087,-0.35424,0.67012
732.199,32.93118,-3.19252,-0.38631,0.66735
735.599,33.0446,-3.1954,-0.40314,0.66455
738.999,33.15791,-3.1955,-0.42017,0.66175
742.399,33.2716,-3.19549,-0.43057,0.65893
745.799,33.38519,-3.19582,-0.43908,0.6561
749.199,33.49882,-3.20108,-0.44685,0.65325
752.599,33.6126,-3.19807,-0.45588,0.65039
755.999,33.7264,-3.19801,-0.46623,0.64751
759.399,33.8403,-3.19647,-0.46952,0.64462
762.799,33.9542,-3.19786,-0.47886,0.64172
766.199,34.0679,-3.202,-0.48158,0.63881
769.599,34.1821,-3.20306,-0.48697,0.63588
772.999,34.29634,-3.20437,-0.49269,0.63294
776.399,34.41048,-3.20553,-0.495,0.62998
779.799,34.52483,-3.20557,-0.50465,0.62702
783.199,34.63919,-3.20689,-0.50321,0.62404
786.599,34.75355,-3.20559,-0.50655,0.62105
789.999,34.86801,-3.20688,-0.51313,0.61804
793.399,34.98272,-3.20809,-0.51687,0.61503
796.799,35.09722,-3.20953,-0.52126,0.612
800.199,35.2121,-3.21084,-0.52149,0.60896
803.599,35.32674,-3.20953,-0.52848,0.60591
806.999,35.44151,-3.20823,-0.52525,0.60284
810.399,35.5562,-3.20917,-0.53292,0.59977
813.799,35.67098,-3.21135,-0.52817,0.59668
817.199,35.78577,-3.2127,-0.52758,0.59359
820.599,35.90087,-3.21268,-0.52559,0.59048
823.999,36.01575,-3.21358,-0.52344,0.58736
827.399,36.13074,-3.21654,-0.52272,0.58423
830.799,36.24583,-3.21654,-0.5223,0.58109
834.199,36.36105,-3.2149,-0.52345,0.57794
837.599,36.47618,-3.21392,-0.52068,0.57478
840.999,36.5913,-3.21523,-0.51662,0.57161
843.199,36.66581,-3.21655,-0.51692,0.56956

File: Pine_Lap_Siding_STA_N2_30KData_220323_R2.csv
##Temp./Â°C,Time/min,Mass loss(subtr.2)/mg,DSC(subtr.2)/(mW/mg),Sensit./(uV/mW)
48.746,10.01,0.0102,0.01369277,1.08893
52.146,10.8904,0.008002288,0.17578,1.08607
55.546,11.13009,0.01031483,0.28786,1.08323
58.946,11.31564,0.01027253,0.37235,1.08041
62.346,11.47602,0.00892483,0.4397,1.0776
65.746,11.62202,0.00757667,0.50074,1.07482
69.146,11.75972,0.01218387,0.55295,1.07206
72.546,11.89108,0.00914737,0.5999,1.06931
75.946,12.01826,0.008084114,0.6463,1.06659
79.346,12.14265,0.006576751,0.68649,1.06389
82.746,12.2644,0.005169386,0.72612,1.0612
86.146,12.38428,0.00436311,0.75559,1.05854
89.546,12.50228,0.004269226,0.78778,1.0559
92.946,12.619,0.002317622,0.816,1.05327
96.346,12.73479,0.002276884,0.83899,1.05067
99.746,12.84987,-0.0003294457,0.85356,1.04808
103.146,12.96451,-0.00166272,0.86585,1.04552
106.546,13.0787,-0.003083135,0.87114,1.04297
109.946,13.19263,-0.00438981,0.8667,1.04044
113.346,13.30615,-0.004388558,0.85819,1.03793
116.746,13.41881,-0.0049512,0.84724,1.03544
120.146,13.53154,-0.00618311,0.83332,1.03297
123.546,13.6442,-0.00701421,0.82119,1.03052
126.946,13.7559,-0.008339381,0.8135,1.02809
130.346,13.867,-0.008339766,0.80753,1.02567
133.746,13.9773,-0.008660318,0.80352,1.02328
137.146,14.0875,-0.00833034,0.80323,1.0209
140.546,14.19713,-0.009679759,0.8053,1.01854
143.946,14.30611,-0.009756426,0.80972,1.0162
147.346,14.4149,-0.00736117,0.81428,1.01388
150.746,14.523,-0.007350296,0.82394,1.01157
154.146,14.6309,-0.00768008,0.83049,1.00928
157.546,14.73836,-0.00771607,0.84152,1.00701
160.946,14.84557,-0.008445245,0.85104,1.00476
164.346,14.95263,-0.00886743,0.86051,1.00252
167.746,15.0595,-0.00767,0.87239,1.0003
171.146,15.16585,-0.00767,0.88195,0.9981
174.546,15.27196,-0.00767,0.89316,0.99592
177.946,15.37774,-0.00767,0.90258,0.99375
181.346,15.4833,-0.008996878,0.91152,0.99159
184.746,15.58833,-0.00899,0.9224,0.98945
188.146,15.6928,-0.008989995,0.93175,0.98733
191.546,15.79764,-0.007666664,0.94253,0.98523
194.946,15.90182,-0.008789218,0.95143,0.98313
198.346,16.0058,-0.01030846,0.96288,0.98106
201.746,16.10955,-0.01163052,0.9713,0.979
205.146,16.21349,-0.01047502,0.98232,0.97695
208.546,16.3171,-0.01162952,0.99302,0.97492
211.946,16.4204,-0.01295002,1.00215,0.9729
215.346,16.5239,-0.01163015,1.01201,0.97089
218.746,16.627,-0.01285142,1.02245,0.9689
222.146,16.7301,-0.01492608,1.03138,0.96692
225.546,16.8329,-0.016583,1.04303,0.96496
228.946,16.93569,-0.01796644,1.05035,0.96301
232.346,17.0386,-0.02045755,1.05902,0.96107
235.746,17.14133,-0.02185994,1.06762,0.95914
239.146,17.24403,-0.02446164,1.07302,0.95723
242.546,17.34703,-0.02602566,1.08214,0.95533
245.946,17.44984,-0.02982895,1.0904,0.95344
249.346,17.55255,-0.03244418,1.0994,0.95156
252.746,17.6551,-0.03545014,1.11198,0.94969
256.146,17.7577,-0.04278222,1.12095,0.94783
259.546,17.8603,-0.04838008,1.13387,0.94598
262.946,17.96284,-0.05537582,1.14652,0.94415
266.346,18.06545,-0.06253107,1.16081,0.94232
269.746,18.16798,-0.0704304,1.17353,0.9405
273.146,18.27065,-0.07883178,1.18332,0.9387
276.546,18.37329,-0.09098179,1.19358,0.9369
279.946,18.47596,-0.10417,1.20232,0.93511
283.346,18.57863,-0.11897,1.21226,0.93333
286.746,18.68144,-0.13508,1.2242,0.93155
290.146,18.78461,-0.14998,1.23565,0.92979
293.546,18.88737,-0.16627,1.24349,0.92803
296.946,18.9903,-0.18465,1.25564,0.92628
300.346,19.09319,-0.20512,1.267,0.92454
303.746,19.19613,-0.2335,1.28311,0.9228
307.146,19.29909,-0.26261,1.29444,0.92107
310.546,19.40225,-0.29203,1.31608,0.91935
313.946,19.50536,-0.32373,1.33624,0.91763
317.346,19.60865,-0.35844,1.36152,0.91592
320.746,19.7119,-0.39674,1.39422,0.91421
324.146,19.8152,-0.43686,1.43311,0.91251
327.546,19.91859,-0.48484,1.47535,0.91081
330.946,20.02206,-0.5339,1.52148,0.90912
334.346,20.1256,-0.58798,1.57174,0.90743
337.746,20.22934,-0.6511,1.62609,0.90574
341.146,20.333,-0.71419,1.6743,0.90406
344.546,20.43695,-0.7832,1.72265,0.90238
347.946,20.54095,-0.85613,1.76267,0.9007
351.346,20.6449,-0.9319,1.79614,0.89903
354.746,20.74926,-1.01497,1.83033,0.89736
358.146,20.85377,-1.09664,1.86123,0.89569
361.546,20.95815,-1.1818,1.90251,0.89402
364.946,21.06275,-1.27101,1.95145,0.89235
368.346,21.1679,-1.36289,2.02179,0.89069
371.746,21.2729,-1.45886,2.11926,0.88902
375.146,21.3782,-1.55704,2.23515,0.88736
378.546,21.4838,-1.66502,2.35941,0.88569
381.946,21.5891,-1.78227,2.47883,0.88403
385.346,21.6952,-1.90339,2.55724,0.88236
388.746,21.80092,-2.03078,2.56582,0.88069
392.146,21.9071,-2.15646,2.46612,0.87902
395.546,22.0128,-2.26925,2.23859,0.87736
398.946,22.11871,-2.37129,1.88949,0.87568
402.346,22.2244,-2.4536,1.47202,0.87401
405.746,22.3302,-2.51244,1.04622,0.87234
409.146,22.43565,-2.5516,0.67928,0.87066
412.546,22.5412,-2.57561,0.41826,0.86898
415.946,22.6468,-2.59319,0.26075,0.86729
419.346,22.75277,-2.60937,0.17805,0.86561
422.746,22.85849,-2.61884,0.12582,0.86391
426.146,22.96473,-2.63254,0.09478938,0.86222
429.546,23.07108,-2.643,0.06588736,0.86052
432.946,23.1777,-2.65087,0.0426158,0.85882
436.346,23.2843,-2.6611,0.01741746,0.85711
439.746,23.391,-2.67113,-0.003862226,0.85539
443.146,23.49788,-2.67983,-0.02649433,0.85367
446.546,23.60484,-2.69001,-0.04569856,0.85195
449.946,23.7119,-2.69833,-0.06089728,0.85022
453.346,23.81908,-2.70556,-0.07050064,0.84848
456.746,23.92641,-2.71629,-0.07760191,0.84674
460.146,24.03398,-2.72647,-0.07532925,0.84499
463.546,24.14147,-2.72989,-0.06832564,0.84323
466.946,24.24943,-2.73476,-0.05375369,0.84146
470.346,24.35725,-2.74278,-0.03315563,0.83969
473.746,24.4654,-2.75143,-0.01567169,0.83791
477.146,24.57338,-2.75816,0.009059514,0.83612
480.546,24.6814,-2.76487,0.03260721,0.83433
483.946,24.78974,-2.76989,0.05087508,0.83252
487.346,24.89797,-2.77521,0.07280363,0.83071
490.746,25.00655,-2.78143,0.09005393,0.82889
494.146,25.11502,-2.78698,0.10354,0.82706
497.546,25.2237,-2.7898,0.11781,0.82522
500.946,25.33226,-2.79319,0.12802,0.82337
504.346,25.4409,-2.79984,0.13319,0.82151
507.746,25.54981,-2.80303,0.14107,0.81964
511.146,25.65883,-2.8064,0.14729,0.81776
514.546,25.7679,-2.81268,0.15284,0.81587
517.946,25.87705,-2.81599,0.15653,0.81397
521.346,25.98627,-2.81686,0.16284,0.81206
524.746,26.0955,-2.81988,0.1632,0.81014
528.146,26.20496,-2.82241,0.16578,0.80821
531.546,26.31467,-2.82382,0.16596,0.80626
534.946,26.4243,-2.83115,0.1663,0.80431
538.346,26.53397,-2.83642,0.16296,0.80234
541.746,26.64415,-2.83942,0.15768,0.80036
545.146,26.7541,-2.84055,0.15099,0.79837
548.546,26.8644,-2.84186,0.14532,0.79637
551.946,26.97462,-2.84466,0.14051,0.79435
555.346,27.08493,-2.84738,0.13606,0.79232
558.746,27.19525,-2.85136,0.13803,0.79028
562.146,27.30588,-2.85583,0.14051,0.78823
565.546,27.41671,-2.86026,0.14879,0.78616
568.946,27.52761,-2.8614,0.15221,0.78408
572.346,27.63873,-2.86204,0.15452,0.78199
575.746,27.75,-2.86544,0.1522,0.77988
579.146,27.8613,-2.86916,0.15766,0.77776
582.546,27.9727,-2.87069,0.16105,0.77563
585.946,28.08411,-2.87066,0.16372,0.77348
589.346,28.1957,-2.8748,0.16695,0.77132
592.746,28.3074,-2.87738,0.16679,0.76915
596.146,28.41909,-2.88134,0.16616,0.76696
599.546,28.5309,-2.87988,0.16242,0.76476
602.946,28.64286,-2.88005,0.16302,0.76254
606.346,28.75415,-2.88483,0.16027,0.76031
609.746,28.8667,-2.88974,0.15436,0.75807
613.146,28.9788,-2.89066,0.15216,0.75581
616.546,29.09106,-2.89329,0.14964,0.75353
619.946,29.20327,-2.89462,0.14986,0.75125
623.346,29.3155,-2.89593,0.14863,0.74894
626.746,29.42776,-2.89782,0.15279,0.74663
630.146,29.54027,-2.90054,0.15663,0.74429
633.546,29.6529,-2.90282,0.16769,0.74195
636.946,29.76551,-2.90406,0.17716,0.73958
640.346,29.8782,-2.9066,0.18471,0.73721
643.746,29.9909,-2.91085,0.1958,0.73482
647.146,30.1038,-2.91316,0.21278,0.73241
650.546,30.21645,-2.91347,0.23043,0.72999
653.946,30.32933,-2.91623,0.25226,0.72755
657.346,30.44195,-2.92009,0.27438,0.7251
660.746,30.5547,-2.92155,0.30176,0.72263
664.146,30.66722,-2.92545,0.3363,0.72015
667.546,30.77999,-2.92873,0.37235,0.71765
670.946,30.8927,-2.93129,0.40832,0.71514
674.346,31.0053,-2.93907,0.45642,0.71262
677.746,31.11804,-2.9453,0.50706,0.71007
681.146,31.23075,-2.94884,0.55349,0.70752
684.546,31.3433,-2.95308,0.6079,0.70495
687.946,31.4559,-2.95741,0.65991,0.70236
691.346,31.5689,-2.96352,0.72088,0.69976
694.746,31.6817,-2.96931,0.77431,0.69714
698.146,31.79458,-2.97775,0.82012,0.69451
701.546,31.90768,-2.98416,0.85547,0.69186
704.946,32.0208,-2.99179,0.87294,0.6892
708.346,32.13378,-2.99946,0.86377,0.68653
711.746,32.24703,-3.00606,0.82294,0.68384
715.146,32.36036,-3.01278,0.76244,0.68113
718.546,32.4736,-3.02012,0.68991,0.67841
721.946,32.58704,-3.02598,0.59518,0.67568
725.346,32.70061,-3.02779,0.37449,0.67293
728.746,32.81395,-3.03365,0.05590283,0.67017
732.146,32.92727,-3.03644,-0.0472769,0.66739
735.546,33.0409,-3.03513,-0.08497346,0.6646
738.946,33.1547,-3.03514,-0.10103,0.66179
742.346,33.26838,-3.03777,-0.11574,0.65897
745.746,33.38223,-3.03763,-0.13074,0.65614
749.146,33.49623,-3.03709,-0.13779,0.65329
752.546,33.61016,-3.03777,-0.14294,0.65043
755.946,33.72441,-3.04039,-0.15378,0.64756
759.346,33.83853,-3.04169,-0.16106,0.64467
762.746,33.95268,-3.04336,-0.16252,0.64177
766.146,34.06685,-3.04473,-0.16967,0.63885
769.546,34.1813,-3.04433,-0.17163,0.63593
772.946,34.29573,-3.04501,-0.17701,0.63298
776.346,34.41028,-3.04499,-0.18155,0.63003
779.746,34.5247,-3.04559,-0.18432,0.62706
783.146,34.63925,-3.04697,-0.18283,0.62409
786.546,34.75376,-3.04805,-0.18369,0.62109
789.946,34.86827,-3.0484,-0.18495,0.61809
793.346,34.98288,-3.04938,-0.18678,0.61507
796.746,35.09745,-3.04938,-0.19039,0.61205
800.146,35.2118,-3.04947,-0.19589,0.60901
803.546,35.32654,-3.05005,-0.19204,0.60595
806.946,35.44121,-3.05268,-0.19315,0.60289
810.346,35.5558,-3.05399,-0.18812,0.59982
813.746,35.67055,-3.05328,-0.18365,0.59673
817.146,35.78512,-3.05378,-0.18141,0.59363
820.546,35.89982,-3.05244,-0.18329,0.59053
823.946,36.01489,-3.05376,-0.18012,0.58741
827.346,36.12979,-3.05377,-0.17569,0.58428
830.746,36.2449,-3.0531,-0.17679,0.58114
834.146,36.35998,-3.05574,-0.17421,0.57799
837.546,36.47489,-3.05771,-0.17279,0.57483
840.946,36.5899,-3.0564,-0.17511,0.57166
843.146,36.66495,-3.0564,-0.17098,0.56961