Folder: fsri_materials_database/01_Data/Pine_Lap_Siding/STA/N2/3K_min

Note: 01_Data/README.md
# Materials and Products Database
## 01_Data

Raw data generated from each apparatus are included here in plain-text format. The data is organized first by material, next by the short name of test apparatus used, and where applicable additional filtering by test settings.

### material.json

Each material directory contains a json file of the same name as the material. This file links the data stored in the repository as well as data and graphs produced by the accompanying scripts (__02_Scripts__) to the respective landing page for the material on the front-end website.

File: Pine_Lap_Siding_STA_N2_3KData_220323_R1.csv
##Temp./Â°C,Time/min,Mass loss(subtr.2)/mg,DSC(subtr.2)/(mW/mg),Sensit./(uV/mW)
50.196,10.0158,-0.05001,0.01802027,1.04798
53.796,12.4578,-0.05620568,0.07336699,1.04639
57.396,13.79374,-0.05796956,0.08155473,1.0448
60.996,15.06833,-0.06087067,0.0880737,1.04323
64.596,16.31147,-0.07475935,0.09181918,1.04165
68.196,17.52124,-0.06945007,0.0951387,1.04009
71.796,18.7162,-0.06723008,0.09510611,1.03853
75.396,19.92057,-0.07578034,0.09203845,1.03698
78.996,21.13008,-0.07846486,0.08351377,1.03544
82.596,22.33746,-0.07972981,0.0815755,1.0339
86.196,23.53388,-0.08104998,0.0802941,1.03236
89.796,24.7357,-0.08204,0.07441391,1.03084
93.396,25.93662,-0.083358,0.07214328,1.02932
96.996,27.13668,-0.08566606,0.07325915,1.0278
100.596,28.32736,-0.08500034,0.07534321,1.02629
104.196,29.52508,-0.08552422,0.07146894,1.02478
107.796,30.7135,-0.08598904,0.07539124,1.02328
111.396,31.8999,-0.08598085,0.07357252,1.02178
114.996,33.0895,-0.08598888,0.07725414,1.02029
118.596,34.27828,-0.08528127,0.07233032,1.0188
122.196,35.46284,-0.08795789,0.07570533,1.01731
125.796,36.65579,-0.0874174,0.07694968,1.01583
129.396,37.83789,-0.08823217,0.07640795,1.01435
132.996,39.01912,-0.08895186,0.07467554,1.01288
136.596,40.20454,-0.08729967,0.07874135,1.01141
140.196,41.38994,-0.0878609,0.07547541,1.00994
143.796,42.56885,-0.08726841,0.07885574,1.00847
147.396,43.74895,-0.08764528,0.08270881,1.00701
150.996,44.9251,-0.0877504,0.07853424,1.00555
154.596,46.09923,-0.08697993,0.080682,1.00409
158.196,47.27864,-0.08822433,0.08051322,1.00263
161.796,48.45536,-0.08861259,0.08494867,1.00118
165.396,49.62849,-0.08829051,0.08404525,0.99972
168.996,50.80473,-0.0886218,0.08274411,0.99827
172.596,51.98038,-0.08964715,0.08279108,0.99682
176.196,53.152,-0.09044924,0.08609455,0.99537
179.796,54.32428,-0.09082126,0.08405314,0.99391
183.396,55.4957,-0.09226325,0.08950052,0.99246
186.996,56.6704,-0.09390706,0.08759071,0.99101
190.596,57.83936,-0.09516167,0.08916282,0.98956
194.196,59.01721,-0.09828006,0.08608963,0.98811
197.796,60.1865,-0.10231,0.08719171,0.98666
201.396,61.3522,-0.10362,0.08983055,0.9852
204.996,62.52841,-0.10485,0.08977739,0.98375
208.596,63.6979,-0.10781,0.09093879,0.98229
212.196,64.86499,-0.11014,0.09154476,0.98083
215.796,66.03363,-0.11473,0.09091933,0.97937
219.396,67.2016,-0.11965,0.0949002,0.97791
222.996,68.37182,-0.12492,0.09597919,0.97644
226.596,69.53867,-0.13173,0.09971633,0.97497
230.196,70.70903,-0.1383,0.09697013,0.9735
233.796,71.8832,-0.14971,0.09803374,0.97203
237.396,73.05378,-0.16289,0.10314,0.97055
240.996,74.22184,-0.17372,0.10357,0.96907
244.596,75.38824,-0.1892,0.10759,0.96758
248.196,76.55891,-0.20255,0.10745,0.96609
251.796,77.72974,-0.22331,0.1,0.9646
255.396,78.9014,-0.23944,0.0995966,0.9631
258.996,80.0678,-0.26615,0.10094,0.96159
262.596,81.2355,-0.29224,0.10475,0.96008
266.196,82.40216,-0.32398,0.1084,0.95857
269.796,83.57056,-0.36009,0.10578,0.95705
273.396,84.74695,-0.39708,0.11324,0.95552
276.996,85.92055,-0.43894,0.11421,0.95399
280.596,87.08233,-0.48743,0.12194,0.95245
284.196,88.2473,-0.53762,0.12582,0.9509
287.796,89.42285,-0.59504,0.13163,0.94935
291.396,90.59031,-0.65965,0.14138,0.94779
294.996,91.76616,-0.72702,0.14348,0.94622
298.596,92.93576,-0.80225,0.15496,0.94464
302.196,94.11225,-0.87871,0.158,0.94306
305.796,95.28735,-0.96347,0.16636,0.94147
309.396,96.45129,-1.05066,0.1726,0.93987
312.996,97.6287,-1.14357,0.17444,0.93826
316.596,98.805,-1.24106,0.18318,0.93664
320.196,99.974,-1.3441,0.18997,0.93501
323.796,101.157,-1.45303,0.1964,0.93338
327.396,102.339,-1.55981,0.20425,0.93173
330.996,103.513,-1.67756,0.2184,0.93008
334.596,104.688,-1.79805,0.23071,0.92841
338.196,105.867,-1.92949,0.24619,0.92673
341.796,107.042,-2.06647,0.25539,0.92505
345.396,108.224,-2.20899,0.25589,0.92335
348.996,109.4077,-2.34669,0.23721,0.92164
352.596,110.584,-2.47808,0.19986,0.91992
356.196,111.759,-2.57014,0.1424,0.91819
359.796,112.94,-2.6409,0.07816558,0.91645
363.396,114.119,-2.68891,0.03414827,0.9147
366.996,115.298,-2.71148,0.01035822,0.91293
370.596,116.473,-2.72336,0.002452544,0.91115
374.196,117.654,-2.73396,-0.003621969,0.90936
377.796,118.84,-2.74453,-0.00673095,0.90756
381.396,120.016,-2.75805,-0.01063212,0.90575
384.996,121.1956,-2.76481,-0.01667082,0.90392
388.596,122.3773,-2.77483,-0.02100051,0.90208
392.196,123.56,-2.78622,-0.02423368,0.90022
395.796,124.74,-2.79458,-0.02798126,0.89835
399.396,125.919,-2.80574,-0.03278919,0.89647
402.996,127.104,-2.81428,-0.03806235,0.89458
406.596,128.2983,-2.82589,-0.03936318,0.89267
410.196,129.478,-2.8336,-0.038576,0.89075
413.796,130.662,-2.84204,-0.04281446,0.88881
417.396,131.851,-2.85224,-0.04463222,0.88686
420.996,133.039,-2.86044,-0.04188079,0.88489
424.596,134.227,-2.866,-0.04123778,0.88291
428.196,135.41,-2.87469,-0.03867651,0.88091
431.796,136.6002,-2.88451,-0.03520713,0.8789
435.396,137.79,-2.8919,-0.03055687,0.87687
438.996,138.981,-2.89856,-0.02778961,0.87483
442.596,140.167,-2.90349,-0.02727934,0.87277
446.196,141.359,-2.90763,-0.02383253,0.8707
449.796,142.551,-2.91269,-0.02189457,0.86861
453.396,143.744,-2.91807,-0.0243903,0.86651
456.996,144.937,-2.92058,-0.01747097,0.86439
460.596,146.124,-2.92748,-0.01035309,0.86225
464.196,147.322,-2.93155,-0.00825845,0.8601
467.796,148.517,-2.93754,-0.01158513,0.85793
471.396,149.714,-2.9391,-0.01531252,0.85574
474.996,150.904,-2.9422,-0.01104712,0.85354
478.596,152.099,-2.94583,-0.02372338,0.85132
482.196,153.296,-2.95077,-0.02714024,0.84909
485.796,154.492,-2.95694,-0.03343743,0.84684
489.396,155.691,-2.95877,-0.02773553,0.84457
492.996,156.891,-2.96043,-0.02885355,0.84228
496.596,158.086,-2.96515,-0.03265993,0.83998
500.196,159.288,-2.96921,-0.0351189,0.83766
503.796,160.4874,-2.97259,-0.05126462,0.83533
507.396,161.685,-2.97556,-0.05185914,0.83297
510.996,162.885,-2.98356,-0.05047347,0.8306
514.596,164.0735,-2.98221,-0.04797834,0.82821
518.196,165.277,-2.98285,-0.04793958,0.82581
521.796,166.4852,-2.98784,-0.04810277,0.82338
525.396,167.679,-2.99149,-0.04714245,0.82094
528.996,168.8844,-2.99385,-0.04779459,0.81849
532.596,170.081,-2.99782,-0.04630173,0.81601
536.196,171.288,-3.00078,-0.04715489,0.81352
539.796,172.489,-3.00477,-0.04837583,0.81101
543.396,173.693,-3.00567,-0.04859376,0.80848
546.996,174.8953,-3.00813,-0.04427406,0.80594
550.596,176.105,-3.00927,-0.04810644,0.80337
554.196,177.303,-3.01252,-0.04364614,0.80079
557.796,178.504,-3.01582,-0.04594803,0.79819
561.396,179.713,-3.01779,-0.04339936,0.79558
564.996,180.921,-3.02177,-0.04170787,0.79295
568.596,182.1315,-3.02247,-0.04262754,0.7903
572.196,183.337,-3.02381,-0.03864715,0.78763
575.796,184.547,-3.02579,-0.03718247,0.78494
579.396,185.751,-3.03084,-0.02683393,0.78224
582.996,186.962,-3.03459,-0.02456279,0.77952
586.596,188.164,-3.03764,-0.02103584,0.77678
590.196,189.379,-3.04045,-0.01659406,0.77403
593.796,190.59,-3.04596,-0.009360268,0.77126
597.396,191.796,-3.04752,0.000128355,0.76847
600.996,193.003,-3.0537,0.01021323,0.76566
604.596,194.214,-3.05974,0.02113262,0.76284
608.196,195.422,-3.0663,0.02844885,0.76
611.796,196.637,-3.07526,0.04131028,0.75714
615.396,197.851,-3.08339,0.04867527,0.75426
618.996,199.06,-3.09154,0.05540717,0.75137
622.596,200.283,-3.09784,0.06389769,0.74846
626.196,201.49,-3.10751,0.06872862,0.74554
629.796,202.7,-3.1164,0.06964428,0.7426
633.396,203.915,-3.12594,0.05963254,0.73964
636.996,205.122,-3.1312,0.05277699,0.73666
640.596,206.3317,-3.13943,0.04793922,0.73367
644.196,207.5497,-3.14437,0.04064897,0.73067
647.796,208.766,-3.15259,0.01427557,0.72764
651.396,209.982,-3.15687,-0.02472676,0.72461
654.996,211.184,-3.15918,-0.0379128,0.72155
658.596,212.402,-3.15961,-0.03378605,0.71848
662.196,213.618,-3.15962,-0.03344231,0.71539
665.796,214.837,-3.16278,-0.0309122,0.71229
669.396,216.048,-3.16309,-0.02799323,0.70918
672.996,217.261,-3.16269,-0.02914004,0.70604
676.596,218.4796,-3.1674,-0.03239607,0.7029
680.196,219.696,-3.16774,-0.03313086,0.69973
683.796,220.915,-3.16938,-0.03233298,0.69656
687.396,222.13,-3.16806,-0.03472206,0.69337
690.996,223.347,-3.17109,-0.03758198,0.69016
694.596,224.562,-3.17177,-0.03824115,0.68694
698.196,225.777,-3.17387,-0.04282527,0.6837
701.796,226.991,-3.1765,-0.05410809,0.68046
705.396,228.2109,-3.17388,-0.05299557,0.67719
708.996,229.433,-3.17837,-0.05993572,0.67392
712.596,230.649,-3.17837,-0.06213397,0.67063
716.196,231.869,-3.18109,-0.06694512,0.66733
719.796,233.084,-3.182,-0.07368327,0.66401
723.396,234.303,-3.18017,-0.07631257,0.66068
726.996,235.518,-3.1799,-0.08061757,0.65734
730.596,236.736,-3.17914,-0.08021644,0.65399
734.196,237.951,-3.18451,-0.08038352,0.65062
737.796,239.178,-3.18549,-0.09241208,0.64724
741.396,240.402,-3.18564,-0.08855423,0.64385
744.996,241.616,-3.18506,-0.09966552,0.64045
748.596,242.836,-3.1877,-0.09996942,0.63703
752.196,244.064,-3.18671,-0.10946,0.63361
755.796,245.285,-3.18799,-0.11321,0.63017
759.396,246.507,-3.18667,-0.10842,0.62673
762.996,247.724,-3.18948,-0.11113,0.62327
766.596,248.938,-3.18966,-0.10721,0.6198
770.196,250.163,-3.19152,-0.11273,0.61632
773.796,251.393,-3.19417,-0.12407,0.61283
777.396,252.602,-3.19049,-0.11589,0.60933
780.996,253.818,-3.19653,-0.11412,0.60583
784.596,255.058,-3.19514,-0.12096,0.60231
788.196,256.277,-3.19921,-0.12072,0.59878
791.796,257.4984,-3.20123,-0.12294,0.59525
795.396,258.716,-3.20088,-0.12797,0.5917
798.996,259.94,-3.20151,-0.12787,0.58815
802.596,261.164,-3.20039,-0.13054,0.58459
806.196,262.387,-3.20409,-0.12685,0.58102
809.796,263.606,-3.20373,-0.13763,0.57745
813.396,264.829,-3.20513,-0.13803,0.57386
816.996,266.059,-3.20424,-0.14922,0.57027
820.596,267.2864,-3.20711,-0.15373,0.56667
824.196,268.507,-3.2092,-0.14353,0.56307
827.796,269.731,-3.20755,-0.14921,0.55946
831.396,270.9504,-3.20958,-0.1404,0.55584
834.996,272.182,-3.21083,-0.14261,0.55222
838.596,273.405,-3.21244,-0.13948,0.54859
842.196,274.624,-3.21313,-0.13555,0.54496
845.796,275.849,-3.21785,-0.12486,0.54132
848.096,276.631,-3.21651,-0.13154,0.53899