Folder: fsri_materials_database/01_Data/Pine_Lap_Siding_Wood/STA/N2/10K_min

Note: 01_Data/README.md
# Materials and Products Database
## 01_Data

Raw data generated from each apparatus are included here in plain-text format. The data is organized first by material, next by the short name of test apparatus used, and where applicable additional filtering by test settings.

### material.json

Each material directory contains a json file of the same name as the material. This file links the data stored in the repository as well as data and graphs produced by the accompanying scripts (__02_Scripts__) to the respective landing page for the material on the front-end website.

File: Pine_Lap_Siding_Wood_STA_N2_10KData_220318_R1.csv
##Temp./Â°C,Time/min,Mass loss(subtr.2)/mg,DSC(subtr.2)/(mW/mg),Sensit./(uV/mW)
49.604,10.01,0.00033,0.01596114,1.07521
52.604,11.27315,0.00187143,0.13256,1.07364
55.604,11.70604,0.00452387,0.18788,1.07208
58.604,12.0723,0.003637687,0.22157,1.07052
61.604,12.41493,0.002626238,0.2445,1.06896
64.604,12.74735,0.002628122,0.2665,1.0674
67.604,13.07245,0.00206245,0.28152,1.06585
70.604,13.39339,0.0003007887,0.29636,1.06429
73.604,13.71158,-9.952968e-06,0.31086,1.06274
76.604,14.02564,-0.00164585,0.32632,1.06119
79.604,14.3385,-0.003947126,0.33886,1.05964
82.604,14.64671,-0.003921225,0.34625,1.05809
85.604,14.9522,-0.003939992,0.35214,1.05654
88.604,15.25518,-0.0065742,0.3535,1.05499
91.604,15.55608,-0.007899999,0.35039,1.05345
94.604,15.8545,-0.007912507,0.34508,1.05191
97.604,16.15268,-0.009870899,0.33826,1.05036
100.604,16.44872,-0.01052377,0.32884,1.04882
103.604,16.74294,-0.00987997,0.32221,1.04728
106.604,17.0375,-0.01218021,0.31796,1.04575
109.604,17.33108,-0.01216993,0.31154,1.04421
112.604,17.6244,-0.01218023,0.31024,1.04268
115.604,17.91825,-0.01355767,0.30471,1.04114
118.604,18.21181,-0.01086294,0.30429,1.03961
121.604,18.50542,-0.01216535,0.30653,1.03808
124.604,18.7974,-0.011395,0.30757,1.03655
127.604,19.08918,-0.01117973,0.31099,1.03502
130.604,19.37999,-0.01119,0.3137,1.03349
133.604,19.67086,-0.0112122,0.32039,1.03197
136.604,19.9606,-0.01117746,0.32097,1.03044
139.604,20.25061,-0.01119001,0.32512,1.02892
142.604,20.5395,-0.00988748,0.32851,1.02739
145.604,20.82914,-0.01086006,0.32951,1.02587
148.604,21.11845,-0.01085,0.33425,1.02435
151.604,21.40774,-0.01062339,0.33674,1.02283
154.604,21.6972,-0.01019512,0.34094,1.02131
157.604,21.98586,-0.01020974,0.34354,1.01979
160.604,22.2743,-0.00820545,0.35029,1.01828
163.604,22.56198,-0.01053,0.35165,1.01676
166.604,22.84995,-0.00954349,0.35534,1.01524
169.604,23.13755,-0.009572035,0.36081,1.01373
172.604,23.4246,-0.00921,0.36537,1.01222
175.604,23.71209,-0.009214324,0.36828,1.0107
178.604,23.99931,-0.008883458,0.37486,1.00919
181.604,24.28622,-0.008557896,0.37421,1.00768
184.604,24.57246,-0.009903981,0.3774,1.00616
187.604,24.8584,-0.00921055,0.37941,1.00465
190.604,25.1458,-0.0105387,0.38469,1.00314
193.604,25.43352,-0.00970537,0.38735,1.00163
196.604,25.72125,-0.01086322,0.38999,1.00012
199.604,26.0082,-0.01152139,0.39531,0.9986
202.604,26.29502,-0.01283,0.3973,0.99709
205.604,26.58127,-0.01316,0.40598,0.99558
208.604,26.8669,-0.01316067,0.40996,0.99407
211.604,27.15253,-0.01481,0.41619,0.99256
214.604,27.4386,-0.01579565,0.4201,0.99105
217.604,27.72393,-0.01842327,0.42508,0.98953
220.604,28.00974,-0.01842946,0.42817,0.98802
223.604,28.29595,-0.02106,0.43161,0.98651
226.604,28.58241,-0.02237976,0.437,0.985
229.604,28.8686,-0.02632337,0.43816,0.98348
232.604,29.1557,-0.02857085,0.44505,0.98197
235.604,29.44202,-0.03257827,0.44915,0.98045
238.604,29.72897,-0.03653127,0.45702,0.97894
241.604,30.01502,-0.03942489,0.46231,0.97742
244.604,30.3012,-0.04443531,0.46906,0.9759
247.604,30.58734,-0.05253451,0.4715,0.97438
250.604,30.87395,-0.05794932,0.47427,0.97286
253.604,31.16092,-0.06774927,0.47475,0.97134
256.604,31.4471,-0.07677759,0.47668,0.96982
259.604,31.73445,-0.0860711,0.47855,0.96829
262.604,32.02166,-0.09890028,0.47999,0.96677
265.604,32.3091,-0.11275,0.47921,0.96524
268.604,32.59656,-0.12526,0.48009,0.96371
271.604,32.88456,-0.14164,0.48398,0.96218
274.604,33.17192,-0.15985,0.4832,0.96065
277.604,33.45899,-0.17908,0.48697,0.95912
280.604,33.7463,-0.20087,0.49179,0.95758
283.604,34.0338,-0.22342,0.49552,0.95604
286.604,34.32177,-0.24809,0.49889,0.9545
289.604,34.60904,-0.27617,0.5064,0.95296
292.604,34.89647,-0.30628,0.51108,0.95142
295.604,35.18399,-0.33896,0.5181,0.94987
298.604,35.47148,-0.37436,0.52647,0.94832
301.604,35.7599,-0.41448,0.53568,0.94677
304.604,36.04827,-0.45854,0.54818,0.94521
307.604,36.3369,-0.50255,0.56279,0.94366
310.604,36.62556,-0.55392,0.5782,0.9421
313.604,36.91506,-0.60875,0.59412,0.94053
316.604,37.2042,-0.66454,0.6163,0.93897
319.604,37.4924,-0.72992,0.63256,0.9374
322.604,37.78141,-0.79635,0.65099,0.93583
325.604,38.07028,-0.86692,0.66805,0.93425
328.604,38.3601,-0.9409,0.68343,0.93267
331.604,38.64865,-1.01797,0.69751,0.93109
334.604,38.93807,-1.09681,0.70837,0.92951
337.604,39.2286,-1.18015,0.71985,0.92792
340.604,39.51829,-1.26419,0.74067,0.92632
343.604,39.80862,-1.35228,0.76209,0.92473
346.604,40.09838,-1.44202,0.79206,0.92313
349.604,40.38852,-1.53915,0.83206,0.92152
352.604,40.67917,-1.64142,0.87092,0.91991
355.604,40.96938,-1.74927,0.92881,0.9183
358.604,41.26266,-1.86832,0.98247,0.91668
361.604,41.55475,-2.00303,1.03363,0.91506
364.604,41.84648,-2.13017,1.06346,0.91344
367.604,42.13813,-2.25617,1.05846,0.91181
370.604,42.42853,-2.38872,1.01718,0.91017
373.604,42.71849,-2.51643,0.91705,0.90853
376.604,43.0074,-2.6279,0.76805,0.90689
379.604,43.2972,-2.71481,0.5923,0.90524
382.604,43.58659,-2.77674,0.4158,0.90358
385.604,43.87634,-2.81651,0.27771,0.90192
388.604,44.16517,-2.84052,0.19017,0.90026
391.604,44.45576,-2.85565,0.14324,0.89859
394.604,44.748,-2.86878,0.1254,0.89692
397.604,45.04017,-2.87862,0.1148,0.89524
400.604,45.33162,-2.8883,0.10705,0.89355
403.604,45.62325,-2.8979,0.10151,0.89186
406.604,45.91502,-2.9067,0.09671644,0.89016
409.604,46.20714,-2.91469,0.08795292,0.88846
412.604,46.4994,-2.92333,0.07981404,0.88675
415.604,46.79274,-2.93276,0.07377786,0.88504
418.604,47.08597,-2.9409,0.06551493,0.88332
421.604,47.38054,-2.94896,0.06195351,0.8816
424.604,47.67559,-2.95786,0.05232998,0.87986
427.604,47.97039,-2.96692,0.04826232,0.87813
430.604,48.2637,-2.97483,0.04506839,0.87638
433.604,48.55823,-2.98209,0.04774126,0.87463
436.604,48.85164,-2.99005,0.04664303,0.87288
439.604,49.14595,-2.99984,0.05079581,0.87111
442.604,49.4397,-3.00637,0.05452987,0.86934
445.604,49.73438,-3.0145,0.06122101,0.86757
448.604,50.0301,-3.02207,0.06827609,0.86579
451.604,50.32571,-3.02775,0.07671329,0.864
454.604,50.62223,-3.03568,0.0855121,0.8622
457.604,50.9182,-3.04228,0.09352495,0.8604
460.604,51.21419,-3.04744,0.1007,0.85859
463.604,51.5099,-3.05409,0.10842,0.85677
466.604,51.80615,-3.05838,0.11579,0.85495
469.604,52.10226,-3.06331,0.12311,0.85312
472.604,52.39869,-3.06825,0.12747,0.85128
475.604,52.69486,-3.07088,0.13258,0.84943
478.604,52.9914,-3.07723,0.13723,0.84758
481.604,53.2883,-3.0814,0.14318,0.84572
484.604,53.585,-3.08472,0.14711,0.84386
487.604,53.88166,-3.08866,0.15215,0.84198
490.604,54.1788,-3.09195,0.15589,0.8401
493.604,54.47583,-3.09829,0.15969,0.83821
496.604,54.7735,-3.10019,0.16182,0.83631
499.604,55.0702,-3.10346,0.16573,0.83441
502.604,55.3673,-3.1074,0.16627,0.8325
505.604,55.6633,-3.11004,0.17271,0.83058
508.604,55.9626,-3.11399,0.18642,0.82865
511.604,56.26039,-3.11731,0.20021,0.82672
514.604,56.55822,-3.1209,0.21216,0.82477
517.604,56.85586,-3.12448,0.21597,0.82282
520.604,57.15421,-3.12715,0.22276,0.82086
523.604,57.4521,-3.12979,0.23035,0.8189
526.604,57.74971,-3.13241,0.23771,0.81692
529.604,58.0477,-3.13583,0.24454,0.81494
532.604,58.3459,-3.13965,0.24826,0.81295
535.604,58.6448,-3.1413,0.24999,0.81095
538.604,58.94305,-3.14426,0.25272,0.80894
541.604,59.24139,-3.14767,0.24876,0.80693
544.604,59.53997,-3.15084,0.23569,0.8049
547.604,59.8384,-3.15413,0.23474,0.80287
550.604,60.1369,-3.1568,0.22971,0.80083
553.604,60.4366,-3.1594,0.22881,0.79879
556.604,60.7369,-3.16071,0.2308,0.79673
559.604,61.0367,-3.16118,0.22916,0.79467
562.604,61.33583,-3.16468,0.22579,0.79259
565.604,61.63705,-3.16796,0.22731,0.79051
568.604,61.9388,-3.16927,0.2275,0.78842
571.604,62.2391,-3.17059,0.22548,0.78632
574.604,62.5388,-3.17322,0.22566,0.78422
577.604,62.8385,-3.17585,0.22762,0.7821
580.604,63.13854,-3.17848,0.22765,0.77998
583.604,63.43871,-3.18013,0.22715,0.77785
586.604,63.73831,-3.1814,0.2316,0.77571
589.604,64.0393,-3.18374,0.22927,0.77356
592.604,64.34048,-3.18704,0.23111,0.77141
595.604,64.6412,-3.18835,0.23402,0.76924
598.604,64.9428,-3.19132,0.23187,0.76707
601.604,65.24269,-3.19263,0.23313,0.76489
604.604,65.5429,-3.19459,0.23782,0.7627
607.604,65.8435,-3.19793,0.23894,0.7605
610.604,66.144,-3.19889,0.242,0.75829
613.604,66.44505,-3.20258,0.24355,0.75608
616.604,66.74486,-3.20281,0.24666,0.75385
619.604,67.04674,-3.20547,0.25172,0.75162
622.604,67.34942,-3.20546,0.25432,0.74938
625.604,67.65048,-3.20942,0.25721,0.74714
628.604,67.95189,-3.20941,0.26105,0.74488
631.604,68.25367,-3.21139,0.26177,0.74261
634.604,68.55593,-3.21271,0.26381,0.74034
637.604,68.8592,-3.21598,0.26094,0.73806
640.604,69.1623,-3.21602,0.26219,0.73577
643.604,69.4654,-3.21896,0.26671,0.73347
646.604,69.76856,-3.22028,0.26655,0.73117
649.604,70.07206,-3.22128,0.26924,0.72885
652.604,70.3751,-3.22191,0.27207,0.72653
655.604,70.6764,-3.22587,0.27603,0.7242
658.604,70.97798,-3.22587,0.28209,0.72186
661.604,71.2805,-3.22719,0.28428,0.71952
664.604,71.58346,-3.2285,0.28877,0.71716
667.604,71.88627,-3.22916,0.29386,0.7148
670.604,72.18851,-3.23179,0.29503,0.71243
673.604,72.4901,-3.23245,0.30107,0.71005
676.604,72.7909,-3.23244,0.30647,0.70767
679.604,73.09415,-3.23479,0.30961,0.70527
682.604,73.39659,-3.23466,0.31433,0.70287
685.604,73.69898,-3.2364,0.31689,0.70046
688.604,74.00131,-3.23772,0.32072,0.69805
691.604,74.30425,-3.22854,0.32247,0.69562
694.604,74.60745,-3.23666,0.32452,0.69319
697.604,74.9115,-3.24147,0.32982,0.69075
700.604,75.21704,-3.24526,0.3409,0.68831
703.604,75.52336,-3.242,0.34475,0.68585
706.604,75.82848,-3.24221,0.34413,0.68339
709.604,76.13385,-3.24288,0.34737,0.68092
712.604,76.43815,-3.24551,0.35127,0.67845
715.604,76.74225,-3.24535,0.3538,0.67597
718.604,77.04517,-3.24814,0.35475,0.67348
721.604,77.349,-3.24946,0.35374,0.67098
724.604,77.6536,-3.24888,0.35546,0.66848
727.604,77.95838,-3.25044,0.35728,0.66597
730.604,78.26231,-3.25222,0.35372,0.66345
733.604,78.56649,-3.25307,0.35762,0.66092
736.604,78.87051,-3.25241,0.35575,0.65839
739.604,79.1747,-3.25406,0.36077,0.65586
742.604,79.4782,-3.25476,0.36605,0.65331
745.604,79.78139,-3.25638,0.36662,0.65076
747.704,79.99299,-3.25669,0.36869,0.64897

File: Pine_Lap_Siding_Wood_STA_N2_10KData_220318_R2.csv
##Temp./Â°C,Time/min,Mass loss(subtr.2)/mg,DSC(subtr.2)/(mW/mg),Sensit./(uV/mW)
49.691,10.01,-0.01536,0.02628186,1.07516
52.691,11.2822,-0.0174129,0.13687,1.0736
55.691,11.7159,-0.0178229,0.19454,1.07203
58.691,12.08433,-0.01999513,0.22698,1.07047
61.691,12.4285,-0.0197504,0.25351,1.06892
64.691,12.75967,-0.02053207,0.27206,1.06736
67.691,13.0852,-0.02257799,0.28795,1.0658
70.691,13.40565,-0.02469028,0.30381,1.06425
73.691,13.72396,-0.02335919,0.31676,1.06269
76.691,14.03953,-0.02731015,0.33113,1.06114
79.691,14.35085,-0.03127784,0.34276,1.05959
82.691,14.65974,-0.03127,0.35147,1.05804
85.691,14.96526,-0.03634948,0.35695,1.05649
88.691,15.26879,-0.03677522,0.35949,1.05495
91.691,15.569,-0.038847,0.35649,1.0534
94.691,15.8674,-0.03916077,0.35052,1.05186
97.691,16.1643,-0.04179002,0.34554,1.05032
100.691,16.4604,-0.04147,0.33698,1.04878
103.691,16.7557,-0.04545498,0.32955,1.04724
106.691,17.0506,-0.04408955,0.32287,1.0457
109.691,17.34422,-0.04529073,0.31735,1.04417
112.691,17.63782,-0.04392957,0.31398,1.04263
115.691,17.93158,-0.04640033,0.31176,1.0411
118.691,18.2249,-0.04495458,0.31171,1.03956
121.691,18.51761,-0.04509628,0.31569,1.03803
124.691,18.80957,-0.04771,0.31586,1.0365
127.691,19.1014,-0.04811147,0.31858,1.03498
130.691,19.39366,-0.04647348,0.31941,1.03345
133.691,19.685,-0.04640173,0.32433,1.03192
136.691,19.97525,-0.04771636,0.32948,1.0304
139.691,20.26541,-0.04773198,0.32906,1.02887
142.691,20.55574,-0.04772013,0.33269,1.02735
145.691,20.8452,-0.04674713,0.33607,1.02583
148.691,21.13459,-0.04805028,0.34076,1.02431
151.691,21.42363,-0.05032856,0.34319,1.02279
154.691,21.71173,-0.04825618,0.34994,1.02127
157.691,22.00045,-0.04903187,0.35332,1.01975
160.691,22.28814,-0.04803406,0.35802,1.01823
163.691,22.57594,-0.0483719,0.36144,1.01672
166.691,22.8641,-0.04904564,0.36546,1.0152
169.691,23.1513,-0.04936,0.36826,1.01369
172.691,23.4388,-0.05068,0.37165,1.01217
175.691,23.72632,-0.04936,0.37721,1.01066
178.691,24.01343,-0.05068,0.38006,1.00914
181.691,24.29948,-0.04937013,0.38202,1.00763
184.691,24.58697,-0.05067978,0.38557,1.00612
187.691,24.87442,-0.05200678,0.38835,1.00461
190.691,25.16075,-0.05233,0.39694,1.00309
193.691,25.44705,-0.05114283,0.39856,1.00158
196.691,25.7334,-0.05332122,0.40515,1.00007
199.691,26.01981,-0.05463,0.4088,0.99856
202.691,26.30537,-0.05332001,0.4106,0.99705
205.691,26.5915,-0.0556439,0.41623,0.99554
208.691,26.8781,-0.05820442,0.41925,0.99403
211.691,27.16406,-0.06087849,0.42486,0.99251
214.691,27.4507,-0.06154,0.42721,0.991
217.691,27.7371,-0.06334912,0.43258,0.98949
220.691,28.02376,-0.06558345,0.43748,0.98798
223.691,28.3098,-0.06789252,0.44173,0.98647
226.691,28.5971,-0.07086,0.44545,0.98495
229.691,28.8842,-0.07221694,0.44817,0.98344
232.691,29.17169,-0.07613,0.45583,0.98192
235.691,29.45856,-0.07898426,0.46202,0.98041
238.691,29.74555,-0.08467841,0.46938,0.97889
241.691,30.03295,-0.08962046,0.47623,0.97737
244.691,30.32,-0.09455,0.48144,0.97586
247.691,30.60773,-0.10115,0.48289,0.97434
250.691,30.89505,-0.1068,0.48708,0.97282
253.691,31.18192,-0.11783,0.48562,0.9713
256.691,31.4689,-0.12681,0.48394,0.96977
259.691,31.75603,-0.13613,0.4862,0.96825
262.691,32.04305,-0.15061,0.48898,0.96672
265.691,32.32946,-0.16581,0.49096,0.9652
268.691,32.61529,-0.17843,0.49481,0.96367
271.691,32.90202,-0.19237,0.49413,0.96214
274.691,33.18823,-0.21021,0.49881,0.96061
277.691,33.47571,-0.2306,0.50123,0.95907
280.691,33.76265,-0.24943,0.4999,0.95754
283.691,34.05072,-0.27495,0.50084,0.956
286.691,34.33984,-0.29997,0.50565,0.95446
289.691,34.62792,-0.32925,0.51162,0.95292
292.691,34.91579,-0.358,0.52043,0.95137
295.691,35.20264,-0.39071,0.5296,0.94982
298.691,35.48992,-0.4258,0.53956,0.94828
301.691,35.77726,-0.46527,0.55195,0.94672
304.691,36.06524,-0.50969,0.5633,0.94517
307.691,36.35298,-0.55378,0.57777,0.94361
310.691,36.6421,-0.60438,0.59146,0.94205
313.691,36.93161,-0.65747,0.6107,0.94049
316.691,37.22139,-0.71778,0.62565,0.93892
319.691,37.5109,-0.78202,0.64602,0.93735
322.691,37.80124,-0.84909,0.66379,0.93578
325.691,38.09138,-0.91904,0.67844,0.93421
328.691,38.38165,-0.99259,0.69309,0.93263
331.691,38.67154,-1.07019,0.70446,0.93105
334.691,38.9615,-1.14939,0.71773,0.92946
337.691,39.2511,-1.23175,0.73083,0.92787
340.691,39.54003,-1.3135,0.74882,0.92628
343.691,39.8287,-1.40217,0.77045,0.92468
346.691,40.1179,-1.49166,0.80047,0.92308
349.691,40.40783,-1.5856,0.83967,0.92147
352.691,40.69805,-1.68884,0.88626,0.91987
355.691,40.98908,-1.79882,0.93952,0.91825
358.691,41.27994,-1.91642,0.99816,0.91664
361.691,41.57035,-2.04141,1.05081,0.91501
364.691,41.8613,-2.17448,1.08025,0.91339
367.691,42.15217,-2.31116,1.07976,0.91176
370.691,42.4434,-2.44319,1.02968,0.91012
373.691,42.73413,-2.56883,0.92367,0.90848
376.691,43.0248,-2.67698,0.76467,0.90684
379.691,43.31504,-2.76132,0.58259,0.90519
382.691,43.6049,-2.81977,0.40779,0.90354
385.691,43.89495,-2.85861,0.26922,0.90188
388.691,44.18522,-2.88224,0.1843,0.90021
391.691,44.4761,-2.89855,0.14176,0.89854
394.691,44.7676,-2.90883,0.12236,0.89687
397.691,45.0587,-2.9206,0.11498,0.89519
400.691,45.35109,-2.93096,0.10653,0.8935
403.691,45.643,-2.93816,0.10199,0.89181
406.691,45.93535,-2.94814,0.0983644,0.89011
409.691,46.2278,-2.95747,0.08996007,0.88841
412.691,46.5208,-2.96621,0.08418079,0.8867
415.691,46.8138,-2.97616,0.07382837,0.88499
418.691,47.10774,-2.98498,0.06756904,0.88327
421.691,47.40207,-2.99508,0.06297918,0.88155
424.691,47.69619,-3.00285,0.05388253,0.87981
427.691,47.99069,-3.01252,0.04976401,0.87808
430.691,48.28427,-3.02105,0.04652798,0.87633
433.691,48.57832,-3.02778,0.04478361,0.87458
436.691,48.87281,-3.03673,0.04435708,0.87282
439.691,49.16709,-3.04531,0.04912694,0.87106
442.691,49.46139,-3.05329,0.05144045,0.86929
445.691,49.75677,-3.06105,0.05876294,0.86752
448.691,50.05186,-3.0676,0.06735974,0.86573
451.691,50.34817,-3.07418,0.07385525,0.86394
454.691,50.64387,-3.0811,0.08335907,0.86215
457.691,50.93967,-3.08709,0.09014067,0.86035
460.691,51.23503,-3.09366,0.09943521,0.85854
463.691,51.52997,-3.09885,0.11125,0.85672
466.691,51.8255,-3.10413,0.11862,0.85489
469.691,52.12216,-3.10937,0.12452,0.85306
472.691,52.41855,-3.11202,0.1304,0.85123
475.691,52.71521,-3.11776,0.13504,0.84938
478.691,53.0116,-3.12234,0.13753,0.84753
481.691,53.30849,-3.12358,0.14363,0.84567
484.691,53.6057,-3.13087,0.14673,0.8438
487.691,53.90212,-3.13485,0.14769,0.84193
490.691,54.19944,-3.13879,0.15294,0.84005
493.691,54.49655,-3.1436,0.15219,0.83816
496.691,54.7944,-3.14607,0.15532,0.83626
499.691,55.09325,-3.15003,0.15669,0.83436
502.691,55.3911,-3.15375,0.16287,0.83244
505.691,55.68845,-3.15635,0.17344,0.83052
508.691,55.9862,-3.16094,0.18227,0.8286
511.691,56.28447,-3.16422,0.19325,0.82666
514.691,56.58283,-3.16554,0.19524,0.82472
517.691,56.88091,-3.17123,0.20109,0.82277
520.691,57.17985,-3.17135,0.20669,0.82081
523.691,57.4773,-3.17378,0.21522,0.81884
526.691,57.77474,-3.17936,0.2188,0.81686
529.691,58.07226,-3.18233,0.22057,0.81488
532.691,58.36994,-3.18365,0.22687,0.81289
535.691,58.66805,-3.18727,0.22596,0.81089
538.691,58.96631,-3.18989,0.22513,0.80888
541.691,59.2649,-3.19384,0.21073,0.80687
544.691,59.5639,-3.19641,0.20001,0.80485
547.691,59.86263,-3.20172,0.1937,0.80281
550.691,60.1615,-3.20174,0.18855,0.80077
553.691,60.4607,-3.20404,0.18404,0.79873
556.691,60.7599,-3.20602,0.18467,0.79667
559.691,61.05834,-3.20997,0.18625,0.79461
562.691,61.35722,-3.21227,0.18453,0.79253
565.691,61.6576,-3.21284,0.18392,0.79045
568.691,61.95776,-3.21688,0.1811,0.78836
571.691,62.25806,-3.21687,0.18252,0.78626
574.691,62.55849,-3.22083,0.17584,0.78416
577.691,62.85909,-3.22313,0.18057,0.78204
580.691,63.1593,-3.22412,0.18132,0.77992
583.691,63.4603,-3.22686,0.179,0.77779
586.691,63.76124,-3.22815,0.17749,0.77565
589.691,64.06308,-3.23081,0.17558,0.7735
592.691,64.36442,-3.23341,0.17683,0.77134
595.691,64.66666,-3.23464,0.17336,0.76918
598.691,64.96857,-3.23656,0.17182,0.76701
601.691,65.27091,-3.23864,0.1738,0.76482
604.691,65.5727,-3.23988,0.17828,0.76263
607.691,65.87414,-3.24243,0.18196,0.76044
610.691,66.17435,-3.24354,0.18526,0.75823
613.691,66.47586,-3.2468,0.18652,0.75601
616.691,66.7789,-3.2477,0.19331,0.75379
619.691,67.07977,-3.25033,0.19679,0.75156
622.691,67.37994,-3.2533,0.19962,0.74932
625.691,67.68025,-3.25417,0.20726,0.74707
628.691,67.98144,-3.25549,0.20987,0.74481
631.691,68.28319,-3.25812,0.21282,0.74255
634.691,68.5853,-3.2585,0.21447,0.74027
637.691,68.88769,-3.26075,0.21464,0.73799
640.691,69.18926,-3.26075,0.21898,0.7357
643.691,69.49006,-3.26306,0.22577,0.73341
646.691,69.79133,-3.26438,0.23121,0.7311
649.691,70.09467,-3.26672,0.2335,0.72879
652.691,70.39777,-3.26646,0.23711,0.72646
655.691,70.70028,-3.26766,0.23569,0.72413
658.691,71.0035,-3.26964,0.23758,0.72179
661.691,71.30711,-3.27063,0.24052,0.71945
664.691,71.61033,-3.27063,0.24543,0.71709
667.691,71.91293,-3.27256,0.24938,0.71473
670.691,72.21461,-3.27224,0.25475,0.71236
673.691,72.5169,-3.27457,0.25571,0.70998
676.691,72.81959,-3.27521,0.25917,0.7076
679.691,73.1228,-3.2752,0.26664,0.7052
682.691,73.4269,-3.27564,0.26844,0.7028
685.691,73.73054,-3.27722,0.2642,0.70039
688.691,74.03446,-3.27984,0.26863,0.69798
691.691,74.33703,-3.28017,0.27102,0.69555
694.691,74.64065,-3.28116,0.27833,0.69312
697.691,74.94377,-3.28417,0.27959,0.69068
700.691,75.24723,-3.2852,0.28072,0.68824
703.691,75.551,-3.28401,0.28936,0.68578
706.691,75.85504,-3.28557,0.29138,0.68332
709.691,76.15905,-3.28369,0.29508,0.68085
712.691,76.46206,-3.28752,0.29477,0.67838
715.691,76.76684,-3.2861,0.29747,0.67589
718.691,77.07157,-3.28916,0.30238,0.6734
721.691,77.37591,-3.29015,0.30349,0.67091
724.691,77.68043,-3.29081,0.30657,0.6684
727.691,77.985,-3.29245,0.29977,0.66589
730.691,78.2897,-3.29245,0.3024,0.66338
733.691,78.5945,-3.2942,0.30761,0.66085
736.691,78.89878,-3.29476,0.30972,0.65832
739.691,79.20403,-3.29443,0.30954,0.65578
742.691,79.50842,-3.29608,0.30677,0.65324
745.691,79.81331,-3.2964,0.31048,0.65069
747.491,79.9958,-3.29777,0.31193,0.64916