Folder: fsri_materials_database/01_Data/Pine_Lap_Siding_Wood/STA/N2/10K_min (part 2)

File: Pine_Lap_Siding_Wood_STA_N2_10KData_220318_R3.csv
##Temp./Â°C,Time/min,Mass loss(subtr.2)/mg,DSC(subtr.2)/(mW/mg),Sensit./(uV/mW)
49.663,10.01,-0.06647,0.01962347,1.07517
52.663,11.28261,-0.07187973,0.11535,1.07361
55.663,11.71578,-0.0719117,0.16444,1.07205
58.663,12.083,-0.07527682,0.19391,1.07049
61.663,12.42557,-0.07760986,0.21659,1.06893
64.663,12.75502,-0.07799855,0.23299,1.06737
67.663,13.07987,-0.08063225,0.24869,1.06582
70.663,13.40165,-0.08460765,0.26171,1.06426
73.663,13.7195,-0.08589041,0.27359,1.06271
76.663,14.0362,-0.08851118,0.28114,1.06116
79.663,14.34888,-0.09104935,0.28797,1.05961
82.663,14.65795,-0.0950015,0.29375,1.05806
85.663,14.9639,-0.09631085,0.29481,1.05651
88.663,15.26745,-0.09892759,0.29407,1.05496
91.663,15.56874,-0.1015,0.28671,1.05342
94.663,15.8671,-0.10408,0.28183,1.05188
97.663,16.16405,-0.10443,0.27307,1.05033
100.663,16.4591,-0.10704,0.26711,1.04879
103.663,16.75376,-0.10804,0.26077,1.04725
106.663,17.04805,-0.10937,0.25533,1.04572
109.663,17.34096,-0.11068,0.24967,1.04418
112.663,17.6349,-0.11136,0.24817,1.04264
115.663,17.9286,-0.11206,0.24842,1.04111
118.663,18.2216,-0.11199,0.24999,1.03958
121.663,18.5141,-0.11495,0.25175,1.03805
124.663,18.8072,-0.11463,0.25272,1.03652
127.663,19.099,-0.11462,0.25503,1.03499
130.663,19.39079,-0.11565,0.25922,1.03346
133.663,19.68159,-0.12117,0.26106,1.03194
136.663,19.97179,-0.11781,0.26409,1.03041
139.663,20.26205,-0.11298,0.26506,1.02889
142.663,20.55172,-0.11561,0.26674,1.02736
145.663,20.84038,-0.11957,0.27065,1.02584
148.663,21.12908,-0.11949,0.27436,1.02432
151.663,21.41675,-0.11523,0.27667,1.0228
154.663,21.70574,-0.11321,0.28126,1.02128
157.663,21.9927,-0.11869,0.28771,1.01976
160.663,22.27992,-0.12132,0.29193,1.01825
163.663,22.56719,-0.12099,0.29252,1.01673
166.663,22.8545,-0.12263,0.29349,1.01522
169.663,23.14174,-0.12435,0.30007,1.0137
172.663,23.4289,-0.12428,0.30145,1.01219
175.663,23.71621,-0.12559,0.30547,1.01067
178.663,24.00339,-0.12691,0.30753,1.00916
181.663,24.29092,-0.12797,0.31085,1.00765
184.663,24.57787,-0.12694,0.31469,1.00613
187.663,24.86528,-0.12757,0.31907,1.00462
190.663,25.15237,-0.12955,0.32128,1.00311
193.663,25.4395,-0.13053,0.32546,1.0016
196.663,25.72541,-0.13071,0.32851,1.00009
199.663,26.01174,-0.13348,0.33137,0.99857
202.663,26.2981,-0.13514,0.33669,0.99706
205.663,26.58395,-0.13548,0.34189,0.99555
208.663,26.87107,-0.13646,0.34498,0.99404
211.663,27.1565,-0.13854,0.35174,0.99253
214.663,27.4414,-0.1404,0.35386,0.99102
217.663,27.72673,-0.14304,0.35982,0.9895
220.663,28.01227,-0.14444,0.36404,0.98799
223.663,28.29747,-0.14686,0.36894,0.98648
226.663,28.58312,-0.14987,0.37416,0.98497
229.663,28.8685,-0.15181,0.37987,0.98345
232.663,29.1545,-0.15524,0.3839,0.98194
235.663,29.44026,-0.15949,0.38811,0.98042
238.663,29.7252,-0.16338,0.39385,0.97891
241.663,30.01333,-0.1687,0.39925,0.97739
244.663,30.29925,-0.17397,0.40691,0.97587
247.663,30.58532,-0.18177,0.41057,0.97435
250.663,30.87081,-0.18845,0.41237,0.97283
253.663,31.1568,-0.1964,0.41289,0.97131
256.663,31.4437,-0.20754,0.41648,0.96979
259.663,31.73012,-0.21709,0.41634,0.96826
262.663,32.01728,-0.23003,0.41656,0.96674
265.663,32.30523,-0.24376,0.41959,0.96521
268.663,32.59313,-0.25896,0.42173,0.96368
271.663,32.8803,-0.27676,0.42626,0.96215
274.663,33.16738,-0.29359,0.42538,0.96062
277.663,33.4539,-0.31368,0.43308,0.95909
280.663,33.74112,-0.33446,0.43626,0.95755
283.663,34.0276,-0.35838,0.43889,0.95601
286.663,34.31451,-0.38398,0.44261,0.95447
289.663,34.60174,-0.4126,0.44502,0.95293
292.663,34.88875,-0.44354,0.45425,0.95139
295.663,35.1755,-0.47648,0.46303,0.94984
298.663,35.46205,-0.51411,0.47279,0.94829
301.663,35.74962,-0.55169,0.48274,0.94674
304.663,36.03735,-0.59707,0.49923,0.94518
307.663,36.32543,-0.64371,0.51571,0.94363
310.663,36.61347,-0.69259,0.53203,0.94207
313.663,36.9024,-0.75072,0.54625,0.9405
316.663,37.1912,-0.80934,0.5697,0.93894
319.663,37.47975,-0.87328,0.58903,0.93737
322.663,37.7678,-0.93993,0.60444,0.9358
325.663,38.05638,-1.00845,0.62252,0.93422
328.663,38.3446,-1.08423,0.63434,0.93264
331.663,38.6336,-1.16203,0.64734,0.93106
334.663,38.92282,-1.24046,0.65686,0.92947
337.663,39.2128,-1.32175,0.66499,0.92789
340.663,39.5037,-1.40532,0.67976,0.92629
343.663,39.79292,-1.49117,0.69786,0.9247
346.663,40.08297,-1.57909,0.72603,0.92309
349.663,40.37341,-1.67348,0.76258,0.92149
352.663,40.66437,-1.77427,0.80803,0.91988
355.663,40.95627,-1.88297,0.86016,0.91827
358.663,41.24759,-1.99852,0.91897,0.91665
361.663,41.53976,-2.12101,0.96921,0.91503
364.663,41.83177,-2.25341,1.00697,0.9134
367.663,42.12235,-2.38985,1.01223,0.91177
370.663,42.4154,-2.52352,0.96905,0.91014
373.663,42.70756,-2.64759,0.87255,0.9085
376.663,42.9993,-2.76055,0.72194,0.90685
379.663,43.28998,-2.84526,0.5386,0.9052
382.663,43.57962,-2.9074,0.35825,0.90355
385.663,43.86911,-2.94696,0.20932,0.90189
388.663,44.15913,-2.97592,0.1116,0.90023
391.663,44.44914,-2.98963,0.06000185,0.89856
394.663,44.74091,-2.99959,0.04235802,0.89688
397.663,45.03337,-3.00955,0.03289991,0.8952
400.663,45.3258,-3.02163,0.02593547,0.89352
403.663,45.6182,-3.02978,0.01825293,0.89183
406.663,45.91193,-3.03773,0.01029562,0.89013
409.663,46.2049,-3.04629,0.002013696,0.88843
412.663,46.49816,-3.0557,0.0002017916,0.88672
415.663,46.79202,-3.06536,-0.00688795,0.88501
418.663,47.08586,-3.07185,-0.01463964,0.88329
421.663,47.37879,-3.08053,-0.02244687,0.88156
424.663,47.674,-3.08857,-0.0304291,0.87983
427.663,47.96979,-3.09577,-0.03437753,0.87809
430.663,48.26457,-3.1066,-0.03791385,0.87635
433.663,48.55965,-3.11421,-0.03895766,0.8746
436.663,48.8541,-3.12028,-0.03997777,0.87284
439.663,49.1494,-3.12789,-0.03946413,0.87108
442.663,49.444,-3.13707,-0.03865779,0.86931
445.663,49.7389,-3.14372,-0.03407239,0.86753
448.663,50.0335,-3.1499,-0.02701673,0.86575
451.663,50.32863,-3.15633,-0.02169951,0.86396
454.663,50.62426,-3.16447,-0.01499495,0.86217
457.663,50.91993,-3.16916,-0.004596124,0.86036
460.663,51.2159,-3.17562,0.002614841,0.85855
463.663,51.5123,-3.18095,0.007719706,0.85674
466.663,51.80849,-3.1865,0.01369547,0.85491
469.663,52.10453,-3.19056,0.02044448,0.85308
472.663,52.4005,-3.19549,0.02607084,0.85124
475.663,52.69724,-3.20044,0.0308297,0.8494
478.663,52.99416,-3.2044,0.03373947,0.84755
481.663,53.2912,-3.20997,0.03644421,0.84569
484.663,53.5875,-3.2126,0.03915205,0.84382
487.663,53.8843,-3.21523,0.04233653,0.84195
490.663,54.18254,-3.2205,0.04099558,0.84006
493.663,54.4807,-3.22313,0.04461082,0.83817
496.663,54.77879,-3.22646,0.04575355,0.83628
499.663,55.07659,-3.23037,0.04869915,0.83437
502.663,55.37401,-3.23429,0.05408449,0.83246
505.663,55.6707,-3.23761,0.07011491,0.83054
508.663,55.96711,-3.23925,0.08203732,0.82861
511.663,56.26327,-3.24192,0.08674346,0.82668
514.663,56.56046,-3.24584,0.0910515,0.82473
517.663,56.858,-3.24924,0.09696746,0.82278
520.663,57.15566,-3.25129,0.10862,0.82082
523.663,57.45315,-3.25384,0.11117,0.81886
526.663,57.7514,-3.25779,0.11458,0.81688
529.663,58.0494,-3.25976,0.11658,0.8149
532.663,58.34805,-3.2629,0.11782,0.81291
535.663,58.64699,-3.26569,0.10557,0.81091
538.663,58.94608,-3.26901,0.0950034,0.8089
541.663,59.2455,-3.27056,0.08895384,0.80689
544.663,59.54452,-3.27524,0.08832875,0.80486
547.663,59.8428,-3.27404,0.08401325,0.80283
550.663,60.14175,-3.27914,0.08214895,0.80079
553.663,60.4401,-3.28028,0.08444185,0.79875
556.663,60.7394,-3.28292,0.08211811,0.79669
559.663,61.0387,-3.28677,0.08662963,0.79462
562.663,61.338,-3.28863,0.08473837,0.79255
565.663,61.6383,-3.29048,0.08572402,0.79047
568.663,61.93865,-3.29311,0.08517709,0.78838
571.663,62.23925,-3.29608,0.08590442,0.78628
574.663,62.54025,-3.29609,0.08237132,0.78418
577.663,62.8405,-3.2987,0.08448766,0.78206
580.663,63.1397,-3.30265,0.08192071,0.77994
583.663,63.4398,-3.30397,0.08470816,0.77781
586.663,63.74005,-3.30627,0.08209682,0.77567
589.663,64.0403,-3.30792,0.08632153,0.77352
592.663,64.3405,-3.30825,0.08611879,0.77136
595.663,64.64256,-3.31088,0.08371113,0.7692
598.663,64.9435,-3.31341,0.0873574,0.76703
601.663,65.24464,-3.31472,0.08783613,0.76484
604.663,65.54634,-3.31604,0.0885656,0.76265
607.663,65.8481,-3.31901,0.09444372,0.76046
610.663,66.15007,-3.32262,0.09863602,0.75825
613.663,66.45275,-3.32209,0.09900626,0.75603
616.663,66.75516,-3.32294,0.10229,0.75381
619.663,67.05679,-3.32537,0.10822,0.75158
622.663,67.35849,-3.32657,0.10917,0.74934
625.663,67.6593,-3.33051,0.11407,0.74709
628.663,67.96083,-3.33216,0.11273,0.74483
631.663,68.2627,-3.33317,0.114,0.74257
634.663,68.5645,-3.3338,0.11657,0.7403
637.663,68.86731,-3.33743,0.12003,0.73801
640.663,69.17024,-3.33677,0.12697,0.73572
643.663,69.47216,-3.33808,0.13169,0.73343
646.663,69.77401,-3.34171,0.13818,0.73112
649.663,70.0767,-3.34172,0.13825,0.72881
652.663,70.37889,-3.34302,0.14564,0.72648
655.663,70.68079,-3.345,0.1471,0.72415
658.663,70.9827,-3.34565,0.1532,0.72182
661.663,71.2851,-3.34697,0.15326,0.71947
664.663,71.58807,-3.34696,0.15423,0.71712
667.663,71.891,-3.3496,0.15798,0.71475
670.663,72.19416,-3.34961,0.16065,0.71238
673.663,72.4971,-3.35091,0.16285,0.71001
676.663,72.80014,-3.35092,0.16876,0.70762
679.663,73.10316,-3.35217,0.16916,0.70523
682.663,73.4062,-3.35322,0.17058,0.70282
685.663,73.70904,-3.35322,0.17825,0.70042
688.663,74.01286,-3.35514,0.17847,0.698
691.663,74.31685,-3.35552,0.18488,0.69558
694.663,74.62098,-3.35553,0.18788,0.69314
697.663,74.92392,-3.35682,0.18731,0.6907
700.663,75.22759,-3.35848,0.18921,0.68826
703.663,75.53169,-3.3598,0.19122,0.6858
706.663,75.83501,-3.36103,0.1901,0.68334
709.663,76.1387,-3.36107,0.18916,0.68087
712.663,76.44301,-3.36309,0.19669,0.6784
715.663,76.7466,-3.36342,0.1931,0.67592
718.663,77.05035,-3.36542,0.19636,0.67343
721.663,77.35536,-3.36606,0.20001,0.67093
724.663,77.6601,-3.36474,0.19755,0.66843
727.663,77.96425,-3.37009,0.19761,0.66592
730.663,78.269,-3.36671,0.19732,0.6634
733.663,78.57337,-3.36818,0.19967,0.66087
736.663,78.87688,-3.37198,0.20528,0.65834
739.663,79.1829,-3.37298,0.201,0.65581
742.663,79.4869,-3.37197,0.20363,0.65326
745.663,79.79041,-3.37264,0.20302,0.65071
747.663,79.99229,-3.37362,0.20029,0.64901