Folder: fsri_materials_database/01_Data/Pine_Lap_Siding_Wood/STA/N2/30K_min

Note: 01_Data/README.md
# Materials and Products Database
## 01_Data

Raw data generated from each apparatus are included here in plain-text format. The data is organized first by material, next by the short name of test apparatus used, and where applicable additional filtering by test settings.

### material.json

Each material directory contains a json file of the same name as the material. This file links the data stored in the repository as well as data and graphs produced by the accompanying scripts (__02_Scripts__) to the respective landing page for the material on the front-end website.

File: Pine_Lap_Siding_Wood_STA_N2_30KData_220317_R1.csv
##Temp./Â°C,Time/min,Mass loss(subtr.2)/mg,DSC(subtr.2)/(mW/mg),Sensit./(uV/mW)
48.888,10.01,-0.05429,0.03310892,1.08881
52.288,10.89226,-0.05881208,0.2024,1.08595
55.688,11.13219,-0.05875803,0.32025,1.08311
59.088,11.3175,-0.05955658,0.4117,1.08029
62.488,11.47829,-0.05990691,0.49352,1.07749
65.888,11.6248,-0.0603321,0.55892,1.0747
69.288,11.7624,-0.06030036,0.62108,1.07194
72.688,11.89443,-0.06351999,0.67672,1.0692
76.088,12.0222,-0.0643611,0.7305,1.06648
79.488,12.14723,-0.06470761,0.78251,1.06377
82.888,12.26942,-0.06707134,0.82772,1.06109
86.288,12.38959,-0.06916913,0.87199,1.05843
89.688,12.50741,-0.06922137,0.91119,1.05579
93.088,12.62486,-0.0715892,0.95027,1.05316
96.488,12.74156,-0.07404081,0.97888,1.05056
99.888,12.85706,-0.07665448,1.00206,1.04797
103.288,12.97187,-0.07797855,1.0145,1.04541
106.688,13.08645,-0.07929998,1.02086,1.04286
110.088,13.2008,-0.08193279,1.01553,1.04034
113.488,13.3146,-0.08449227,1.00709,1.03783
116.888,13.4281,-0.08456468,0.99388,1.03534
120.288,13.5414,-0.08587906,0.97738,1.03287
123.688,13.65315,-0.08720002,0.96014,1.03042
127.088,13.76508,-0.0872,0.94674,1.02799
130.488,13.8766,-0.0865162,0.94038,1.02557
133.888,13.987,-0.08720345,0.9356,1.02318
137.288,14.0974,-0.08835061,0.93913,1.0208
140.688,14.20684,-0.08825832,0.94417,1.01844
144.088,14.3157,-0.08852007,0.95282,1.0161
147.488,14.42397,-0.08873134,0.96325,1.01378
150.888,14.5318,-0.08884,0.97867,1.01148
154.288,14.63928,-0.08883861,0.99171,1.00919
157.688,14.74635,-0.08983089,1.00529,1.00692
161.088,14.85351,-0.09021343,1.01918,1.00467
164.488,14.95994,-0.09016,1.03277,1.00243
167.888,15.06662,-0.09016,1.04851,1.00021
171.288,15.17257,-0.09016,1.0603,0.99801
174.688,15.2786,-0.09112307,1.07674,0.99582
178.088,15.3845,-0.09150001,1.08993,0.99366
181.488,15.49034,-0.09246832,1.10237,0.9915
184.888,15.5952,-0.09115,1.11491,0.98937
188.288,15.69996,-0.09115,1.12848,0.98724
191.688,15.8046,-0.09245987,1.14276,0.98514
195.088,15.90887,-0.09246277,1.15611,0.98305
198.488,16.01305,-0.09299949,1.16813,0.98097
201.888,16.1171,-0.09444004,1.1842,0.97891
205.288,16.22104,-0.09447866,1.19731,0.97686
208.688,16.32465,-0.09656814,1.21245,0.97483
212.088,16.4284,-0.09707,1.22303,0.97281
215.488,16.53185,-0.09787269,1.23848,0.97081
218.888,16.63534,-0.09838013,1.25141,0.96882
222.288,16.73886,-0.09969995,1.26651,0.96684
225.688,16.84226,-0.10101,1.27636,0.96488
229.088,16.9456,-0.10333,1.28972,0.96293
232.488,17.04881,-0.10397,1.30386,0.96099
235.888,17.15194,-0.10529,1.3183,0.95906
239.288,17.2547,-0.10906,1.32897,0.95715
242.688,17.3583,-0.11055,1.34397,0.95525
246.088,17.46122,-0.11317,1.35561,0.95336
249.488,17.56418,-0.11633,1.37246,0.95148
252.888,17.66705,-0.12043,1.38487,0.94961
256.288,17.7698,-0.1259,1.40067,0.94775
259.688,17.87252,-0.13091,1.41606,0.94591
263.088,17.97476,-0.13742,1.43013,0.94407
266.488,18.07734,-0.14404,1.44559,0.94224
269.888,18.17967,-0.15462,1.45546,0.94043
273.288,18.28247,-0.16382,1.46615,0.93862
276.688,18.3854,-0.17425,1.47448,0.93682
280.088,18.48789,-0.18749,1.48154,0.93503
283.488,18.59054,-0.20078,1.48647,0.93325
286.888,18.69331,-0.21575,1.49363,0.93148
290.288,18.7961,-0.23165,1.4969,0.92971
293.688,18.89878,-0.25018,1.50062,0.92796
297.088,19.0016,-0.26959,1.50717,0.92621
300.488,19.1044,-0.29271,1.5119,0.92446
303.888,19.20745,-0.31844,1.51755,0.92273
307.288,19.31035,-0.34462,1.52566,0.921
310.688,19.41346,-0.37568,1.5359,0.91927
314.088,19.51663,-0.40633,1.54984,0.91756
317.488,19.62,-0.44203,1.57382,0.91584
320.888,19.72339,-0.48195,1.59834,0.91414
324.288,19.827,-0.52496,1.62702,0.91244
327.688,19.93055,-0.57305,1.66662,0.91074
331.088,20.03439,-0.62144,1.70821,0.90904
334.488,20.1383,-0.67917,1.75432,0.90736
337.888,20.2424,-0.74176,1.80505,0.90567
341.288,20.34657,-0.8062,1.84777,0.90399
344.688,20.451,-0.87988,1.89203,0.90231
348.088,20.55526,-0.95569,1.93205,0.90063
351.488,20.65985,-1.03754,1.9655,0.89896
354.888,20.76461,-1.12043,1.99944,0.89729
358.288,20.8695,-1.20637,2.03447,0.89562
361.688,20.97397,-1.29653,2.07583,0.89395
365.088,21.07852,-1.38701,2.13779,0.89228
368.488,21.18392,-1.48197,2.22347,0.89062
371.888,21.28944,-1.58648,2.33545,0.88895
375.288,21.39487,-1.69314,2.47935,0.88729
378.688,21.50029,-1.81218,2.63807,0.88562
382.088,21.60599,-1.94178,2.78994,0.88396
385.488,21.71165,-2.07688,2.90574,0.88229
388.888,21.8175,-2.22232,2.93814,0.88062
392.288,21.9233,-2.36418,2.84199,0.87896
395.688,22.029,-2.49868,2.59318,0.87729
399.088,22.13445,-2.61853,2.19564,0.87561
402.488,22.23956,-2.71213,1.71063,0.87394
405.888,22.345,-2.78402,1.2216,0.87227
409.288,22.45022,-2.83185,0.80747,0.87059
412.688,22.55551,-2.86068,0.51563,0.86891
416.088,22.66075,-2.87775,0.34847,0.86722
419.488,22.7665,-2.89106,0.26095,0.86554
422.888,22.8724,-2.90385,0.21342,0.86384
426.288,22.97842,-2.91451,0.17937,0.86215
429.688,23.0847,-2.92754,0.15412,0.86045
433.088,23.19128,-2.93533,0.13228,0.85874
436.488,23.29774,-2.94611,0.10722,0.85704
439.888,23.40448,-2.95584,0.08691238,0.85532
443.288,23.51146,-2.96595,0.0646315,0.8536
446.688,23.61854,-2.9754,0.0471095,0.85188
450.088,23.72577,-2.98344,0.03045962,0.85014
453.488,23.83304,-2.99305,0.0207725,0.84841
456.888,23.94031,-3.00269,0.01756157,0.84666
460.288,24.04791,-3.01148,0.01587152,0.84491
463.688,24.15543,-3.01968,0.02830534,0.84315
467.088,24.26312,-3.02752,0.0394393,0.84139
470.488,24.371,-3.0354,0.05755942,0.83962
473.888,24.47898,-3.04222,0.08177585,0.83784
477.288,24.58704,-3.0488,0.11051,0.83605
480.688,24.69517,-3.0551,0.1351,0.83425
484.088,24.80307,-3.06277,0.16311,0.83245
487.488,24.9116,-3.06694,0.18874,0.83064
490.888,25.02038,-3.07318,0.21126,0.82881
494.288,25.1291,-3.07874,0.23077,0.82698
497.688,25.2376,-3.08323,0.24721,0.82514
501.088,25.34665,-3.08817,0.2646,0.82329
504.488,25.4555,-3.09385,0.27759,0.82143
507.888,25.5646,-3.09852,0.29025,0.81956
511.288,25.67387,-3.10222,0.29962,0.81768
514.688,25.78304,-3.10548,0.30873,0.81579
518.088,25.89271,-3.11059,0.31099,0.81389
521.488,26.0022,-3.11522,0.31665,0.81198
524.888,26.112,-3.11796,0.3234,0.81006
528.288,26.2218,-3.12204,0.32508,0.80813
531.688,26.3316,-3.12617,0.32409,0.80618
535.088,26.44185,-3.1288,0.32471,0.80422
538.488,26.5518,-3.13322,0.32959,0.80226
541.888,26.6621,-3.13594,0.33062,0.80028
545.288,26.7723,-3.1388,0.32754,0.79829
548.688,26.88275,-3.14261,0.3276,0.79628
552.088,26.99285,-3.14409,0.32392,0.79426
555.488,27.1036,-3.14751,0.32518,0.79224
558.888,27.21397,-3.15125,0.31918,0.79019
562.288,27.32457,-3.15501,0.32589,0.78814
565.688,27.43517,-3.15635,0.33391,0.78607
569.088,27.54562,-3.16091,0.33764,0.78399
572.488,27.65633,-3.16231,0.34011,0.7819
575.888,27.76704,-3.16571,0.33821,0.77979
579.288,27.8779,-3.16696,0.34196,0.77767
582.688,27.98879,-3.16957,0.33858,0.77554
586.088,28.0998,-3.17386,0.34129,0.77339
589.488,28.211,-3.17486,0.33748,0.77123
592.888,28.3223,-3.1775,0.33556,0.76906
596.288,28.43348,-3.18029,0.33343,0.76687
599.688,28.54437,-3.18279,0.32802,0.76467
603.088,28.65558,-3.18543,0.31817,0.76245
606.488,28.76779,-3.18872,0.30559,0.76022
609.888,28.8795,-3.19061,0.29927,0.75797
613.288,28.99138,-3.194,0.28745,0.75571
616.688,29.1033,-3.19388,0.28111,0.75344
620.088,29.21521,-3.19658,0.27835,0.75115
623.488,29.32773,-3.19923,0.26966,0.74885
626.888,29.44036,-3.20054,0.25879,0.74653
630.288,29.5529,-3.20452,0.24994,0.7442
633.688,29.6654,-3.20505,0.24196,0.74185
637.088,29.77788,-3.20777,0.23774,0.73948
640.488,29.8903,-3.20974,0.23017,0.73711
643.888,30.00283,-3.21106,0.22399,0.73472
647.288,30.11536,-3.2137,0.21622,0.73231
650.688,30.22788,-3.215,0.21307,0.72989
654.088,30.3404,-3.21536,0.20626,0.72745
657.488,30.45297,-3.21797,0.20705,0.725
660.888,30.5656,-3.22028,0.19901,0.72253
664.288,30.6783,-3.22109,0.19163,0.72005
667.688,30.79087,-3.22289,0.18889,0.71755
671.088,30.90346,-3.22554,0.1853,0.71504
674.488,31.01612,-3.22548,0.18343,0.71251
677.888,31.12861,-3.22807,0.17809,0.70997
681.288,31.24137,-3.22817,0.17532,0.70741
684.688,31.35405,-3.23085,0.17171,0.70484
688.088,31.46688,-3.23211,0.1698,0.70225
691.488,31.57964,-3.23343,0.16606,0.69965
694.888,31.6926,-3.23402,0.16264,0.69703
698.288,31.8056,-3.23483,0.16067,0.6944
701.688,31.9184,-3.23606,0.15772,0.69175
705.088,32.03115,-3.23615,0.15621,0.68909
708.488,32.1443,-3.2387,0.15706,0.68641
711.888,32.25725,-3.24004,0.15639,0.68372
715.288,32.37007,-3.2422,0.1574,0.68102
718.688,32.4835,-3.24127,0.1549,0.6783
722.088,32.5967,-3.24112,0.15591,0.67556
725.488,32.71014,-3.24254,0.15591,0.67281
728.888,32.8238,-3.24385,0.16099,0.67005
732.288,32.9374,-3.24517,0.16142,0.66727
735.688,33.05124,-3.24649,0.16382,0.66448
739.088,33.16495,-3.2452,0.16011,0.66167
742.488,33.2787,-3.24747,0.16271,0.65885
745.888,33.39248,-3.2478,0.16197,0.65602
749.288,33.5064,-3.24931,0.165,0.65317
752.688,33.6203,-3.24913,0.16459,0.65031
756.088,33.7341,-3.25051,0.16748,0.64744
759.488,33.84814,-3.25273,0.16815,0.64455
762.888,33.9621,-3.25415,0.16951,0.64165
766.288,34.07609,-3.25406,0.17226,0.63873
769.688,34.19011,-3.25439,0.17523,0.6358
773.088,34.30455,-3.25519,0.17172,0.63286
776.488,34.4187,-3.2557,0.17497,0.62991
779.888,34.53272,-3.2569,0.18077,0.62694
783.288,34.64721,-3.25799,0.18415,0.62396
786.688,34.76157,-3.25867,0.18754,0.62097
790.088,34.8758,-3.25962,0.1907,0.61796
793.488,34.99013,-3.25997,0.19666,0.61495
796.888,35.1046,-3.26161,0.19791,0.61192
800.288,35.21898,-3.26064,0.20409,0.60888
803.688,35.33339,-3.26195,0.20901,0.60583
807.088,35.44784,-3.26194,0.20931,0.60276
810.488,35.56258,-3.2624,0.20742,0.59969
813.888,35.67719,-3.26258,0.22019,0.5966
817.288,35.79162,-3.26327,0.21957,0.5935
820.688,35.90632,-3.26457,0.22471,0.5904
824.088,36.0206,-3.26459,0.23096,0.58728
827.488,36.13528,-3.26427,0.23329,0.58415
830.888,36.25,-3.26557,0.24096,0.58101
834.288,36.36483,-3.26589,0.24908,0.57786
837.688,36.48004,-3.26722,0.25489,0.5747
841.088,36.59522,-3.26722,0.26355,0.57153
843.188,36.66639,-3.27007,0.26839,0.56957

File: Pine_Lap_Siding_Wood_STA_N2_30KData_220321_R2.csv
##Temp./Â°C,Time/min,Mass loss(subtr.2)/mg,DSC(subtr.2)/(mW/mg),Sensit./(uV/mW)
48.745,10.01,0.00262,0.01076581,1.08893
51.945,10.87193,0.00135528,0.16534,1.08624
55.145,11.10507,0.003769958,0.27881,1.08356
58.345,11.28377,0.00132848,0.36918,1.0809
61.545,11.43833,0.00223778,0.44324,1.07826
64.745,11.57874,0.002086515,0.50852,1.07564
67.945,11.71078,0.0006419128,0.56316,1.07303
71.145,11.8363,0.002126041,0.6166,1.07044
74.345,11.958,1.524287e-05,0.6664,1.06787
77.545,12.07671,-0.00250016,0.70815,1.06532
80.745,12.1927,-0.001258315,0.75226,1.06278
83.945,12.30723,-0.002096008,0.7889,1.06026
87.145,12.42003,-0.003188063,0.82613,1.05776
90.345,12.53125,-0.004513025,0.86283,1.05528
93.545,12.64118,-0.007450593,0.89091,1.05281
96.745,12.75057,-0.00746798,0.91756,1.05036
99.945,12.8591,-0.007473161,0.93805,1.04793
103.145,12.96717,-0.01005828,0.95284,1.04552
106.345,13.07523,-0.01176519,0.96036,1.04312
109.545,13.18281,-0.01370196,0.96409,1.04074
112.745,13.28994,-0.01503989,0.95804,1.03837
115.945,13.39674,-0.01502854,0.94932,1.03603
119.145,13.50322,-0.01735132,0.93931,1.0337
122.345,13.60941,-0.01602262,0.92842,1.03139
125.545,13.7148,-0.01608064,0.91957,1.02909
128.745,13.8196,-0.01865804,0.90475,1.02681
131.945,13.9243,-0.01733307,0.90152,1.02455
135.145,14.02844,-0.01615773,0.89895,1.0223
138.345,14.13204,-0.01637322,0.90118,1.02007
141.545,14.23506,-0.01700478,0.90974,1.01785
144.745,14.3377,-0.01766396,0.91924,1.01565
147.945,14.4398,-0.0176682,0.92556,1.01347
151.145,14.54149,-0.01641702,0.93907,1.0113
154.345,14.6431,-0.01734,0.95064,1.00915
157.545,14.7443,-0.01734002,0.96503,1.00701
160.745,14.84534,-0.01604253,0.97767,1.00489
163.945,14.94602,-0.01603926,0.98849,1.00279
167.145,15.0465,-0.01635,1.00292,1.0007
170.345,15.14657,-0.01750884,1.01415,0.99862
173.545,15.2464,-0.01702366,1.02849,0.99656
176.745,15.3461,-0.01701,1.04059,0.99451
179.945,15.44563,-0.01700951,1.05241,0.99248
183.145,15.54456,-0.01832987,1.06544,0.99046
186.345,15.6433,-0.01825458,1.07642,0.98845
189.545,15.7414,-0.01767,1.08933,0.98646
192.745,15.83964,-0.01766718,1.10233,0.98449
195.945,15.93805,-0.01900912,1.11727,0.98252
199.145,16.03566,-0.0189895,1.13067,0.98057
202.345,16.13368,-0.01855475,1.1422,0.97863
205.545,16.2314,-0.01897869,1.15765,0.97671
208.745,16.3291,-0.01964002,1.16999,0.9748
211.945,16.42644,-0.02096268,1.18293,0.9729
215.145,16.52394,-0.02232143,1.19916,0.97101
218.345,16.62124,-0.02225819,1.21448,0.96914
221.545,16.7184,-0.02359001,1.22746,0.96727
224.745,16.8155,-0.02583123,1.23955,0.96542
227.945,16.91248,-0.02633353,1.2537,0.96358
231.145,17.00941,-0.02850658,1.26646,0.96175
234.345,17.1064,-0.0298505,1.27625,0.95994
237.545,17.20305,-0.03099836,1.28955,0.95813
240.745,17.29972,-0.03278769,1.30055,0.95633
243.945,17.39631,-0.03605011,1.31446,0.95455
247.145,17.49294,-0.03860797,1.32608,0.95277
250.345,17.58967,-0.04135889,1.3333,0.95101
253.545,17.6862,-0.04585117,1.3466,0.94925
256.745,17.78288,-0.05038523,1.35812,0.94751
259.945,17.87939,-0.05578234,1.37221,0.94577
263.145,17.9759,-0.06218376,1.38393,0.94404
266.345,18.07236,-0.06790735,1.39401,0.94232
269.545,18.16907,-0.07615394,1.40595,0.94061
272.745,18.26556,-0.08625578,1.41489,0.93891
275.945,18.36235,-0.09547098,1.42141,0.93721
279.145,18.459,-0.1075,1.425,0.93553
282.345,18.55582,-0.11994,1.42869,0.93385
285.545,18.65256,-0.13466,1.43331,0.93218
288.745,18.74948,-0.14888,1.43469,0.93051
291.945,18.84627,-0.16579,1.43763,0.92886
295.145,18.94341,-0.1855,1.44243,0.92721
298.345,19.0404,-0.20587,1.44516,0.92556
301.545,19.13737,-0.22702,1.44686,0.92392
304.745,19.23455,-0.25361,1.45172,0.92229
307.945,19.3315,-0.28164,1.45666,0.92066
311.145,19.42878,-0.30841,1.46302,0.91904
314.345,19.5261,-0.3426,1.47608,0.91743
317.545,19.62335,-0.3754,1.48883,0.91582
320.745,19.72074,-0.41213,1.51255,0.91421
323.945,19.81811,-0.45458,1.53648,0.91261
327.145,19.91552,-0.498,1.5676,0.91101
330.345,20.01301,-0.54905,1.60419,0.90941
333.545,20.11056,-0.60207,1.64449,0.90782
336.745,20.20835,-0.66161,1.69044,0.90624
339.945,20.3061,-0.72383,1.73397,0.90465
343.145,20.4039,-0.79174,1.77515,0.90307
346.345,20.5019,-0.86287,1.81313,0.90149
349.545,20.60005,-0.93919,1.85441,0.89992
352.745,20.69831,-1.02012,1.88603,0.89834
355.945,20.79663,-1.10179,1.92256,0.89677
359.145,20.89486,-1.18936,1.96087,0.8952
362.345,20.9937,-1.27616,2.00805,0.89363
365.545,21.0925,-1.36972,2.06706,0.89206
368.745,21.19115,-1.46193,2.15088,0.89049
371.945,21.29018,-1.56521,2.25182,0.88892
375.145,21.38914,-1.67004,2.37644,0.88736
378.345,21.4882,-1.78738,2.514,0.88579
381.545,21.58762,-1.90891,2.65545,0.88422
384.745,21.68705,-2.04223,2.77028,0.88265
387.945,21.78661,-2.17496,2.83418,0.88109
391.145,21.8861,-2.31902,2.80252,0.87952
394.345,21.9855,-2.45286,2.64951,0.87795
397.545,22.085,-2.58045,2.35678,0.87637
400.745,22.1843,-2.68848,1.9459,0.8748
403.945,22.28335,-2.77649,1.47364,0.87322
407.145,22.3821,-2.83919,1.01851,0.87165
410.345,22.481,-2.88244,0.63824,0.87007
413.545,22.5799,-2.90931,0.37495,0.86848
416.745,22.6789,-2.92694,0.22317,0.8669
419.945,22.77834,-2.94103,0.14138,0.86531
423.145,22.87793,-2.95329,0.09341274,0.86372
426.345,22.97765,-2.96362,0.05834893,0.86212
429.545,23.07777,-2.97363,0.03199581,0.86052
432.745,23.17794,-2.98374,0.007038705,0.85892
435.945,23.27818,-2.99362,-0.01885975,0.85731
439.145,23.3787,-3.00233,-0.03747298,0.8557
442.345,23.47931,-3.014,-0.0582912,0.85408
445.545,23.58008,-3.02319,-0.08123007,0.85246
448.745,23.68082,-3.03022,-0.09526718,0.85083
451.945,23.78199,-3.03976,-0.10685,0.8492
455.145,23.8829,-3.04859,-0.115,0.84756
458.345,23.9842,-3.05768,-0.11769,0.84591
461.545,24.0855,-3.06642,-0.11463,0.84426
464.745,24.187,-3.07301,-0.1038,0.84261
467.945,24.2886,-3.07953,-0.08708897,0.84094
471.145,24.39,-3.08778,-0.06740233,0.83927
474.345,24.492,-3.09547,-0.04514787,0.8376
477.545,24.59392,-3.10219,-0.02046355,0.83591
480.745,24.6959,-3.10865,0.004140212,0.83422
483.945,24.7981,-3.11271,0.03262646,0.83253
487.145,24.90009,-3.11893,0.05467946,0.83082
490.345,25.0025,-3.12533,0.07817146,0.82911
493.545,25.1048,-3.13057,0.09459123,0.82738
496.745,25.20739,-3.13544,0.11376,0.82565
499.945,25.3098,-3.13888,0.1276,0.82392
503.145,25.4125,-3.14334,0.14059,0.82217
506.345,25.5149,-3.14917,0.15058,0.82041
509.545,25.6179,-3.15321,0.16024,0.81865
512.745,25.72074,-3.15603,0.16763,0.81687
515.945,25.82369,-3.16034,0.17721,0.81509
519.145,25.92685,-3.16376,0.18044,0.8133
522.345,26.02969,-3.16741,0.18276,0.8115
525.545,26.133,-3.17187,0.18456,0.80969
528.745,26.23635,-3.17452,0.1916,0.80786
531.945,26.33983,-3.17716,0.18861,0.80603
535.145,26.44336,-3.18096,0.19041,0.80419
538.345,26.547,-3.18425,0.1883,0.80234
541.545,26.6505,-3.18718,0.18915,0.80048
544.745,26.7543,-3.18925,0.19032,0.7986
547.945,26.8583,-3.19266,0.18885,0.79672
551.145,26.96214,-3.19532,0.18633,0.79483
554.345,27.06656,-3.19813,0.18473,0.79292
557.545,27.1706,-3.20239,0.18751,0.791
560.745,27.2751,-3.20386,0.18362,0.78907
563.945,27.37953,-3.20602,0.18096,0.78714
567.145,27.4839,-3.21044,0.18488,0.78518
570.345,27.5884,-3.21185,0.19159,0.78322
573.545,27.6928,-3.21382,0.19746,0.78125
576.745,27.7972,-3.21693,0.19979,0.77926
579.945,27.90186,-3.21886,0.19996,0.77726
583.145,28.00675,-3.22134,0.20214,0.77525
586.345,28.1115,-3.22279,0.2045,0.77323
589.545,28.2164,-3.22606,0.21002,0.7712
592.745,28.32106,-3.22814,0.20997,0.76915
595.945,28.42613,-3.23193,0.21221,0.76709
599.145,28.5312,-3.23332,0.20901,0.76502
602.345,28.63632,-3.23609,0.20729,0.76294
605.545,28.7416,-3.23819,0.19924,0.76084
608.745,28.8468,-3.24042,0.19029,0.75873
611.945,28.952,-3.24188,0.174,0.75661
615.145,29.05767,-3.24561,0.1609,0.75447
618.345,29.163,-3.24697,0.15115,0.75233
621.545,29.26843,-3.24956,0.14313,0.75016
624.745,29.37388,-3.25127,0.13381,0.74799
627.945,29.4791,-3.25214,0.11983,0.7458
631.145,29.58486,-3.25354,0.11109,0.7436
634.345,29.6903,-3.25747,0.10335,0.74139
637.545,29.79603,-3.25923,0.09467412,0.73917
640.745,29.90148,-3.2601,0.08520386,0.73693
643.945,30.00733,-3.26261,0.07509996,0.73467
647.145,30.11303,-3.26534,0.06603017,0.73241
650.345,30.2187,-3.26559,0.06043791,0.73013
653.545,30.3243,-3.268,0.05125131,0.72784
656.745,30.4301,-3.27063,0.04742224,0.72553
659.945,30.536,-3.27191,0.03868228,0.72321
663.145,30.6417,-3.27326,0.02443638,0.72088
666.345,30.74755,-3.27326,0.01972108,0.71854
669.545,30.85337,-3.27577,0.01354078,0.71618
672.745,30.95924,-3.27717,0.00546256,0.71381
675.945,31.0651,-3.27852,0.0001507458,0.71142
679.145,31.17108,-3.27984,-0.008467766,0.70902
682.345,31.2772,-3.28064,-0.01500422,0.70661
685.545,31.38301,-3.28181,-0.02019389,0.70419
688.745,31.4891,-3.28313,-0.02848193,0.70175
691.945,31.5952,-3.28444,-0.03411841,0.6993
695.145,31.70135,-3.28576,-0.04377561,0.69683
698.345,31.8072,-3.28641,-0.04968044,0.69435
701.545,31.9137,-3.28774,-0.054773,0.69186
704.745,32.02015,-3.28906,-0.06558079,0.68936
707.945,32.12662,-3.28789,-0.06812323,0.68684
711.145,32.23319,-3.28908,-0.07651161,0.68431
714.345,32.3397,-3.29168,-0.08207763,0.68177
717.545,32.44625,-3.29169,-0.08705831,0.67921
720.745,32.55323,-3.29277,-0.09530346,0.67664
723.945,32.6599,-3.29201,-0.10269,0.67406
727.145,32.76678,-3.2945,-0.10889,0.67147
730.345,32.8739,-3.29596,-0.11366,0.66886
733.545,32.98072,-3.29595,-0.12133,0.66624
736.745,33.0877,-3.2973,-0.13137,0.66361
739.945,33.19461,-3.29824,-0.13135,0.66097
743.145,33.30174,-3.29834,-0.13881,0.65831
746.345,33.40855,-3.29958,-0.14625,0.65564
749.545,33.51599,-3.30071,-0.15075,0.65296
752.745,33.62303,-3.30089,-0.15486,0.65026
755.945,33.7302,-3.30158,-0.15983,0.64756
759.145,33.83755,-3.30222,-0.16263,0.64484
762.345,33.94475,-3.30419,-0.16477,0.64211
765.545,34.05199,-3.30551,-0.16705,0.63937
768.745,34.15922,-3.30622,-0.17043,0.63662
771.945,34.26643,-3.30551,-0.17386,0.63385
775.145,34.3738,-3.30681,-0.17765,0.63108
778.345,34.48124,-3.30962,-0.17996,0.62829
781.545,34.5886,-3.31088,-0.18116,0.62549
784.745,34.69628,-3.30957,-0.18397,0.62268
787.945,34.80376,-3.30953,-0.18852,0.61986
791.145,34.91128,-3.31089,-0.18843,0.61703
793.745,34.99865,-3.31092,-0.18543,0.61472