Folder: fsri_materials_database/01_Data/Pine_Lap_Siding_Wood/STA/N2/30K_min (part 2)

File: Pine_Lap_Siding_Wood_STA_N2_30KData_220321_R3.csv
##Temp./Â°C,Time/min,Mass loss(subtr.2)/mg,DSC(subtr.2)/(mW/mg),Sensit./(uV/mW)
48.836,10.00917,-0.06954,0.02095224,1.08886
52.036,10.87065,-0.07264504,0.18385,1.08616
55.236,11.10367,-0.07500988,0.29495,1.08349
58.436,11.28253,-0.07586615,0.38565,1.08083
61.636,11.43694,-0.07733478,0.46171,1.07819
64.836,11.57752,-0.07747739,0.53063,1.07556
68.036,11.70915,-0.07831803,0.58889,1.07296
71.236,11.83511,-0.08191832,0.6434,1.07037
74.436,11.9569,-0.08221,0.6941,1.0678
77.636,12.0753,-0.08332681,0.7389,1.06524
80.836,12.19149,-0.08477269,0.7817,1.06271
84.036,12.30563,-0.08699592,0.82427,1.06019
87.236,12.41784,-0.08693209,0.86042,1.05769
90.436,12.52917,-0.08951022,0.89368,1.05521
93.636,12.63898,-0.09235044,0.92699,1.05274
96.836,12.7485,-0.09366681,0.95032,1.05029
100.036,12.85693,-0.0941274,0.97041,1.04786
103.236,12.9652,-0.0957263,0.98198,1.04545
106.436,13.07287,-0.09838758,0.98745,1.04305
109.636,13.1806,-0.101,0.98779,1.04067
112.836,13.2879,-0.10233,0.98069,1.03831
116.036,13.39475,-0.10365,0.9709,1.03596
119.236,13.5014,-0.10364,0.95898,1.03363
122.436,13.6074,-0.10595,0.94893,1.03132
125.636,13.7132,-0.10595,0.93617,1.02902
128.836,13.81835,-0.10597,0.92942,1.02674
132.036,13.9229,-0.10728,0.92423,1.02448
135.236,14.02719,-0.10727,0.92402,1.02224
138.436,14.13081,-0.10859,0.92809,1.02
141.636,14.2339,-0.10681,0.93572,1.01779
144.836,14.33654,-0.1076,0.94312,1.01559
148.036,14.43881,-0.10824,0.95656,1.01341
151.236,14.5404,-0.10924,0.96985,1.01124
154.436,14.64189,-0.11065,0.98171,1.00909
157.636,14.74322,-0.11056,0.99572,1.00695
160.836,14.8441,-0.11181,1.00802,1.00483
164.036,14.94465,-0.11188,1.02416,1.00273
167.236,15.04504,-0.11188,1.03763,1.00064
170.436,15.14525,-0.11154,1.05152,0.99856
173.636,15.245,-0.1105,1.06442,0.9965
176.836,15.34481,-0.11324,1.07886,0.99445
180.036,15.4442,-0.1132,1.09202,0.99242
183.236,15.54313,-0.11252,1.1023,0.9904
186.436,15.6417,-0.11386,1.11801,0.9884
189.636,15.7403,-0.11455,1.13258,0.98641
192.836,15.83859,-0.11545,1.14244,0.98443
196.036,15.9366,-0.11616,1.15389,0.98247
199.236,16.0345,-0.11715,1.16508,0.98052
202.436,16.13245,-0.11845,1.17957,0.97858
205.636,16.2301,-0.11788,1.1918,0.97666
208.836,16.32771,-0.1211,1.20552,0.97474
212.036,16.42503,-0.1211,1.21581,0.97284
215.236,16.52273,-0.1214,1.23091,0.97096
218.436,16.6202,-0.12316,1.24167,0.96908
221.636,16.7174,-0.12372,1.2567,0.96722
224.836,16.81464,-0.12644,1.26893,0.96537
228.036,16.91168,-0.12899,1.28312,0.96353
231.236,17.0088,-0.12932,1.29303,0.9617
234.436,17.10587,-0.13065,1.3083,0.95988
237.636,17.20255,-0.13444,1.31571,0.95808
240.836,17.29941,-0.1359,1.33089,0.95628
244.036,17.39619,-0.13581,1.3431,0.9545
247.236,17.49287,-0.14013,1.35646,0.95272
250.436,17.58953,-0.14471,1.37137,0.95096
253.636,17.68628,-0.15007,1.38796,0.9492
256.836,17.78289,-0.15665,1.40032,0.94746
260.036,17.87939,-0.15949,1.41518,0.94572
263.236,17.976,-0.16618,1.42977,0.94399
266.436,18.07238,-0.17536,1.44559,0.94227
269.636,18.16894,-0.18316,1.45685,0.94056
272.836,18.26547,-0.19252,1.46839,0.93886
276.036,18.36197,-0.20214,1.47619,0.93717
279.236,18.45849,-0.21371,1.48546,0.93548
282.436,18.5551,-0.22729,1.48848,0.9338
285.636,18.65162,-0.24107,1.49318,0.93213
288.836,18.74844,-0.25808,1.4967,0.93047
292.036,18.84507,-0.27495,1.4991,0.92881
295.236,18.9418,-0.29592,1.50607,0.92716
298.436,19.03862,-0.3162,1.50481,0.92552
301.636,19.1353,-0.33977,1.50775,0.92388
304.836,19.23207,-0.36517,1.51679,0.92225
308.036,19.32914,-0.39223,1.52136,0.92062
311.236,19.4259,-0.42333,1.52924,0.919
314.436,19.523,-0.45335,1.5387,0.91738
317.636,19.62004,-0.49029,1.55436,0.91577
320.836,19.71717,-0.52604,1.57455,0.91416
324.036,19.81429,-0.56655,1.60155,0.91256
327.236,19.9116,-0.61473,1.63345,0.91096
330.436,20.00887,-0.66454,1.66776,0.90937
333.636,20.10589,-0.72097,1.71005,0.90778
336.836,20.20366,-0.77566,1.75393,0.90619
340.036,20.30145,-0.84062,1.79959,0.90461
343.236,20.3992,-0.90888,1.83948,0.90303
346.436,20.49706,-0.98143,1.87655,0.90145
349.636,20.5951,-1.05833,1.91132,0.89987
352.836,20.6932,-1.13774,1.94313,0.8983
356.036,20.79125,-1.22264,1.97822,0.89672
359.236,20.88962,-1.30577,2.01082,0.89515
362.436,20.98818,-1.39663,2.05368,0.89358
365.636,21.08667,-1.48606,2.1109,0.89201
368.836,21.18512,-1.58278,2.18766,0.89045
372.036,21.2839,-1.68201,2.28832,0.88888
375.236,21.38295,-1.79004,2.41226,0.88731
378.436,21.48209,-1.90406,2.55075,0.88574
381.636,21.5813,-2.02712,2.68624,0.88418
384.836,21.68061,-2.157,2.79768,0.88261
388.036,21.7801,-2.29393,2.85321,0.88104
391.236,21.8795,-2.43365,2.81561,0.87947
394.436,21.97889,-2.56874,2.64782,0.8779
397.636,22.07825,-2.69631,2.34648,0.87633
400.836,22.17748,-2.8017,1.93265,0.87475
404.036,22.2762,-2.88555,1.46711,0.87318
407.236,22.37515,-2.94753,1.01298,0.8716
410.436,22.47395,-2.98929,0.64057,0.87002
413.636,22.57305,-3.01327,0.38151,0.86844
416.836,22.67213,-3.03204,0.23769,0.86685
420.036,22.77159,-3.04662,0.1561,0.86526
423.236,22.87112,-3.05873,0.11036,0.86367
426.436,22.97089,-3.0679,0.07614393,0.86207
429.636,23.07113,-3.07784,0.04882229,0.86047
432.836,23.17136,-3.08955,0.02318215,0.85887
436.036,23.27161,-3.10068,-0.004931155,0.85726
439.236,23.37216,-3.11098,-0.02625791,0.85565
442.436,23.4726,-3.11883,-0.04434908,0.85403
445.636,23.57321,-3.12702,-0.06232993,0.85241
448.836,23.67403,-3.13611,-0.08184085,0.85078
452.036,23.7749,-3.14645,-0.0917299,0.84915
455.236,23.87557,-3.15505,-0.09911085,0.84751
458.436,23.97701,-3.16342,-0.09635217,0.84587
461.636,24.0783,-3.17273,-0.09351005,0.84422
464.836,24.1796,-3.1796,-0.08187562,0.84256
468.036,24.28125,-3.18458,-0.06812006,0.8409
471.236,24.3829,-3.19474,-0.04872284,0.83923
474.436,24.48477,-3.20382,-0.02487995,0.83755
477.636,24.58675,-3.2079,-0.000773614,0.83587
480.836,24.68881,-3.21478,0.0235951,0.83418
484.036,24.7907,-3.21837,0.04818624,0.83248
487.236,24.8931,-3.22752,0.06972086,0.83077
490.436,24.99549,-3.23191,0.09134778,0.82906
493.636,25.09751,-3.23875,0.10873,0.82733
496.836,25.20024,-3.2443,0.1232,0.8256
500.036,25.30291,-3.25171,0.13768,0.82387
503.236,25.40564,-3.25284,0.14735,0.82212
506.436,25.50854,-3.25586,0.15341,0.82036
509.636,25.6113,-3.26026,0.1668,0.8186
512.836,25.71414,-3.26424,0.1689,0.81682
516.036,25.81704,-3.26866,0.17437,0.81504
519.236,25.92012,-3.27226,0.17979,0.81325
522.436,26.0231,-3.27741,0.18056,0.81145
525.636,26.12632,-3.27954,0.18412,0.80963
528.836,26.2295,-3.28295,0.18856,0.80781
532.036,26.33285,-3.28693,0.18858,0.80598
535.236,26.4362,-3.29194,0.19022,0.80414
538.436,26.53943,-3.2966,0.18934,0.80229
541.636,26.6431,-3.30077,0.18963,0.80042
544.836,26.74669,-3.30206,0.1894,0.79855
548.036,26.85036,-3.30482,0.18712,0.79667
551.236,26.9543,-3.30857,0.18586,0.79477
554.436,27.05815,-3.31187,0.18643,0.79287
557.636,27.1622,-3.31336,0.18599,0.79095
560.836,27.2662,-3.31805,0.19516,0.78902
564.036,27.3703,-3.31952,0.2,0.78708
567.236,27.47447,-3.32352,0.2085,0.78513
570.436,27.5787,-3.32667,0.21309,0.78317
573.636,27.6831,-3.32929,0.21414,0.78119
576.836,27.78755,-3.33324,0.22111,0.7792
580.036,27.892,-3.3336,0.22622,0.77721
583.236,27.99653,-3.33621,0.23242,0.7752
586.436,28.1011,-3.33924,0.23371,0.77317
589.636,28.20605,-3.34158,0.23781,0.77114
592.836,28.3109,-3.34421,0.23508,0.76909
596.036,28.4158,-3.34661,0.23286,0.76703
599.236,28.52082,-3.34792,0.22801,0.76496
602.436,28.626,-3.35221,0.21747,0.76288
605.636,28.73152,-3.35354,0.20565,0.76078
608.836,28.83675,-3.35486,0.19269,0.75867
612.036,28.94238,-3.35791,0.18504,0.75655
615.236,29.0479,-3.36091,0.17946,0.75441
618.436,29.15345,-3.36351,0.17592,0.75226
621.636,29.259,-3.36593,0.16876,0.7501
624.836,29.36484,-3.36736,0.16273,0.74793
628.036,29.4705,-3.36891,0.1598,0.74574
631.236,29.5762,-3.37261,0.15238,0.74354
634.436,29.6822,-3.37548,0.15302,0.74133
637.636,29.7881,-3.37976,0.14896,0.7391
640.836,29.894,-3.37649,0.1471,0.73686
644.036,29.99992,-3.3792,0.14002,0.73461
647.236,30.1058,-3.38051,0.13569,0.73234
650.436,30.21169,-3.38413,0.1313,0.73007
653.636,30.31788,-3.38591,0.12653,0.72777
656.836,30.4237,-3.3884,0.12382,0.72547
660.036,30.52988,-3.39246,0.12025,0.72315
663.236,30.63583,-3.39248,0.11476,0.72082
666.436,30.74193,-3.3952,0.10915,0.71847
669.636,30.84805,-3.39643,0.10676,0.71611
672.836,30.954,-3.39915,0.10004,0.71374
676.036,31.05985,-3.39906,0.09511401,0.71135
679.236,31.1661,-3.40106,0.09523246,0.70896
682.436,31.2721,-3.40172,0.08996539,0.70654
685.636,31.3782,-3.40037,0.08728254,0.70412
688.836,31.4844,-3.4017,0.08607052,0.70168
692.036,31.5907,-3.40368,0.08371694,0.69923
695.236,31.6969,-3.40556,0.08319168,0.69676
698.436,31.8031,-3.40827,0.07810936,0.69428
701.636,31.90955,-3.40792,0.07452563,0.69179
704.836,32.0156,-3.40826,0.06827211,0.68929
708.036,32.12195,-3.40828,0.06479422,0.68677
711.236,32.22842,-3.41091,0.06125906,0.68424
714.436,32.33485,-3.41256,0.05711546,0.6817
717.636,32.44123,-3.41387,0.05330927,0.67914
720.836,32.5477,-3.41389,0.05280821,0.67657
724.036,32.6541,-3.41381,0.0489888,0.67399
727.236,32.76078,-3.41516,0.04313746,0.67139
730.436,32.8675,-3.4165,0.04346033,0.66879
733.636,32.97433,-3.4188,0.03869297,0.66617
736.836,33.08116,-3.4188,0.03221137,0.66353
740.036,33.1882,-3.42012,0.0270885,0.66089
743.236,33.29506,-3.42107,0.02569139,0.65823
746.436,33.40237,-3.42013,0.02318151,0.65556
749.636,33.50945,-3.42277,0.02142876,0.65288
752.836,33.6167,-3.42374,0.01849122,0.65019
756.036,33.72395,-3.42505,0.0155488,0.64748
759.236,33.83128,-3.42505,0.01215622,0.64476
762.436,33.93842,-3.42506,0.00891139,0.64203
765.636,34.0458,-3.4249,0.005853385,0.63929
768.836,34.15293,-3.42637,0.001920088,0.63654
772.036,34.2603,-3.42972,0.00273975,0.63377
775.236,34.36775,-3.43308,0.0002358171,0.631
778.436,34.47506,-3.42904,-0.00556995,0.62821
781.636,34.58265,-3.42901,-0.00923476,0.62541
784.836,34.69024,-3.43164,-0.00782352,0.6226
788.036,34.79793,-3.43296,-0.005045077,0.61978
791.236,34.90579,-3.43403,-0.004578828,0.61695
793.936,34.99647,-3.43494,-0.01142373,0.61455