Folder: fsri_materials_database/01_Data/Pine_Lap_Siding_Wood/STA/N2/3K_min

Note: 01_Data/README.md
# Materials and Products Database
## 01_Data

Raw data generated from each apparatus are included here in plain-text format. The data is organized first by material, next by the short name of test apparatus used, and where applicable additional filtering by test settings.

### material.json

Each material directory contains a json file of the same name as the material. This file links the data stored in the repository as well as data and graphs produced by the accompanying scripts (__02_Scripts__) to the respective landing page for the material on the front-end website.

File: Pine_Lap_Siding_Wood_STA_N2_3KData_220321_R1.csv
##Temp./Â°C,Time/min,DSC(subtr.2)/(mW/mg),Mass loss(subtr.2)/mg,Sensit./(uV/mW)
50.026,10.01667,0.02756891,-0.02961,1.04805
53.126,12.26176,0.07944156,-0.03378323,1.04668
56.226,13.43377,0.09033987,-0.03641225,1.04532
59.326,14.54225,0.09834386,-0.0375714,1.04396
62.426,15.618,0.10324,-0.03971001,1.0426
65.526,16.6768,0.10528,-0.04093277,1.04125
68.626,17.72423,0.10567,-0.04489201,1.0399
71.726,18.76366,0.10533,-0.0499066,1.03856
74.826,19.80172,0.10372,-0.05078009,1.03723
77.926,20.83946,0.10058,-0.05354786,1.0359
81.026,21.8725,0.09772692,-0.05419,1.03457
84.126,22.89953,0.09505789,-0.05714509,1.03325
87.226,23.9302,0.09149656,-0.05549747,1.03193
90.326,24.9611,0.08565392,-0.06035608,1.03061
93.426,25.99561,0.08510595,-0.05874872,1.0293
96.526,27.0284,0.08422056,-0.06069173,1.028
99.626,28.0564,0.08216953,-0.06076995,1.02669
102.726,29.07944,0.08076618,-0.06278479,1.02539
105.826,30.10428,0.07954141,-0.0610913,1.0241
108.926,31.12865,0.08097362,-0.06340835,1.02281
112.026,32.14496,0.08677924,-0.06351526,1.02152
115.126,33.16448,0.08759324,-0.06310971,1.02023
118.226,34.18988,0.08769856,-0.06439028,1.01895
121.326,35.21666,0.08721582,-0.06241,1.01767
124.426,36.23652,0.09280516,-0.06503258,1.0164
127.526,37.24834,0.09326126,-0.0620801,1.01512
130.626,38.26826,0.09228713,-0.06462601,1.01385
133.726,39.28222,0.09609839,-0.06405916,1.01258
136.826,40.29759,0.09453248,-0.06672888,1.01131
139.926,41.31548,0.09790846,-0.06536924,1.01005
143.026,42.33038,0.09582086,-0.06785228,1.00879
146.126,43.3449,0.09737018,-0.06896446,1.00753
149.226,44.363,0.09408155,-0.06865999,1.00627
152.326,45.37719,0.10118,-0.0683605,1.00501
155.426,46.38933,0.0995197,-0.06951393,1.00375
158.526,47.40245,0.10002,-0.06921284,1.0025
161.626,48.41466,0.10423,-0.0703094,1.00125
164.726,49.42265,0.10405,-0.07228416,0.99999
167.826,50.43739,0.10275,-0.07228,0.99874
170.926,51.44767,0.10432,-0.07395155,0.99749
174.026,52.4551,0.10808,-0.07593644,0.99624
177.126,53.46376,0.10996,-0.07492062,0.99499
180.226,54.47388,0.10468,-0.07578128,0.99374
183.326,55.4847,0.10541,-0.07720894,0.99249
186.426,56.49281,0.10757,-0.07853004,0.99124
189.526,57.49507,0.11063,-0.08255329,0.98999
192.626,58.5013,0.11118,-0.08313992,0.98874
195.726,59.50538,0.11161,-0.0850919,0.98749
198.826,60.51455,0.11187,-0.08718472,0.98624
201.926,61.5229,0.11326,-0.08675998,0.98499
205.026,62.5294,0.11092,-0.0908791,0.98373
208.126,63.5427,0.11018,-0.09103933,0.98248
211.226,64.55105,0.1136,-0.09465922,0.98122
214.326,65.5587,0.11814,-0.09814293,0.97997
217.426,66.56665,0.12021,-0.10091,0.97871
220.526,67.56679,0.12306,-0.10221,0.97745
223.626,68.56791,0.12486,-0.11113,0.97618
226.726,69.57476,0.12672,-0.11803,0.97492
229.826,70.58017,0.12658,-0.12394,0.97365
232.926,71.58813,0.13005,-0.12948,0.97238
236.026,72.59103,0.13322,-0.13934,0.97111
239.126,73.59554,0.13764,-0.14983,0.96984
242.226,74.5993,0.13891,-0.16179,0.96856
245.326,75.60601,0.13719,-0.16872,0.96728
248.426,76.61604,0.13644,-0.18534,0.966
251.526,77.6204,0.13614,-0.20264,0.96471
254.626,78.6298,0.13271,-0.21977,0.96342
257.726,79.63386,0.13362,-0.23749,0.96212
260.826,80.64174,0.13313,-0.25953,0.96083
263.926,81.64819,0.13715,-0.28188,0.95952
267.026,82.65731,0.13617,-0.30833,0.95822
270.126,83.66362,0.13859,-0.3391,0.95691
273.226,84.67165,0.14011,-0.37316,0.95559
276.326,85.6774,0.14348,-0.40616,0.95427
279.426,86.6764,0.14583,-0.44487,0.95295
282.526,87.68339,0.14884,-0.48778,0.95162
285.626,88.69527,0.15539,-0.53508,0.95029
288.726,89.7073,0.16157,-0.58683,0.94895
291.826,90.71558,0.16794,-0.64379,0.9476
294.926,91.72279,0.17596,-0.70571,0.94625
298.026,92.7301,0.18389,-0.7708,0.94489
301.126,93.74383,0.18535,-0.8419,0.94353
304.226,94.75647,0.19462,-0.91825,0.94216
307.326,95.76284,0.204,-0.99775,0.94079
310.426,96.7698,0.20654,-1.08067,0.93941
313.526,97.7753,0.21139,-1.1668,0.93802
316.626,98.7844,0.21924,-1.25694,0.93663
319.726,99.79495,0.22583,-1.34968,0.93523
322.826,100.809,0.23425,-1.44628,0.93382
325.926,101.822,0.24181,-1.54618,0.9324
329.026,102.8411,0.25171,-1.65181,0.93098
332.126,103.857,0.26862,-1.76448,0.92955
335.226,104.873,0.29172,-1.88505,0.92812
338.326,105.895,0.30788,-2.01508,0.92667
341.426,106.907,0.32787,-2.15383,0.92522
344.526,107.921,0.33275,-2.29952,0.92376
347.626,108.942,0.32389,-2.44762,0.92229
350.726,109.955,0.30107,-2.58644,0.92082
353.826,110.959,0.25363,-2.70889,0.91933
356.926,111.973,0.18565,-2.80714,0.91784
360.026,112.991,0.12276,-2.87544,0.91634
363.126,114.007,0.07469217,-2.91631,0.91483
366.226,115.0217,0.05154891,-2.93848,0.91331
369.326,116.04,0.04193524,-2.9533,0.91178
372.426,117.055,0.04062431,-2.96484,0.91025
375.526,118.069,0.03573628,-2.97633,0.9087
378.626,119.087,0.03644775,-2.98451,0.90714
381.726,120.107,0.0297396,-2.99268,0.90558
384.826,121.121,0.023373,-3.00463,0.904
387.926,122.138,0.02284405,-3.01306,0.90242
391.026,123.157,0.01742847,-3.02217,0.90083
394.126,124.1767,0.01298411,-3.03249,0.89922
397.226,125.196,0.009910335,-3.04168,0.89761
400.326,126.221,0.00410708,-3.0518,0.89598
403.426,127.24,0.00334096,-3.06079,0.89435
406.526,128.262,-0.001356172,-3.06934,0.89271
409.626,129.285,-0.000161718,-3.08089,0.89105
412.726,130.305,-0.000627828,-3.08733,0.88938
415.826,131.328,-0.00510723,-3.09897,0.88771
418.926,132.349,-0.004993556,-3.10521,0.88602
422.026,133.372,-0.00303684,-3.11574,0.88432
425.126,134.396,0.00321512,-3.12331,0.88261
428.226,135.423,0.00614691,-3.13234,0.88089
431.326,136.443,0.01052938,-3.14082,0.87916
434.426,137.463,0.01490381,-3.14767,0.87742
437.526,138.495,0.01543729,-3.15193,0.87567
440.626,139.521,0.02042496,-3.15853,0.8739
443.726,140.547,0.02110851,-3.16376,0.87212
446.826,141.573,0.02403235,-3.16938,0.87034
449.926,142.6,0.02621771,-3.17203,0.86854
453.026,143.627,0.0272223,-3.17662,0.86672
456.126,144.654,0.03772162,-3.18123,0.8649
459.226,145.682,0.04233668,-3.18512,0.86307
462.326,146.711,0.03909976,-3.18945,0.86122
465.426,147.74,0.04120649,-3.19348,0.85936
468.526,148.772,0.04665781,-3.19571,0.85749
471.626,149.793,0.04745918,-3.20044,0.8556
474.726,150.8204,0.05087652,-3.20408,0.85371
477.826,151.849,0.04292895,-3.20689,0.8518
480.926,152.881,0.03377625,-3.20952,0.84988
484.026,153.919,0.0301801,-3.21315,0.84795
487.126,154.948,0.02847874,-3.21646,0.846
490.226,155.978,0.02420233,-3.21975,0.84404
493.326,157.009,0.02049023,-3.224,0.84207
496.426,158.039,0.01898546,-3.22532,0.84009
499.526,159.0717,0.01008294,-3.22992,0.83809
502.626,160.107,0.007604543,-3.23354,0.83609
505.726,161.128,0.008244975,-3.2365,0.83407
508.826,162.159,0.008900949,-3.23651,0.83203
511.926,163.196,0.006939428,-3.23915,0.82999
515.026,164.231,0.007755828,-3.24312,0.82793
518.126,165.272,0.00652435,-3.24704,0.82585
521.226,166.3057,0.00593049,-3.24836,0.82377
524.326,167.342,0.002699773,-3.2527,0.82167
527.426,168.379,0.00218556,-3.25467,0.81956
530.526,169.426,0.000870723,-3.25732,0.81744
533.626,170.459,0.0009871258,-3.26116,0.8153
536.726,171.487,0.000467277,-3.2646,0.81315
539.826,172.527,0.000402551,-3.26517,0.81099
542.926,173.561,0.002311825,-3.26776,0.80881
546.026,174.608,0.003407721,-3.27074,0.80662
549.126,175.6402,0.00594876,-3.27333,0.80442
552.226,176.676,0.003168834,-3.27533,0.80221
555.326,177.713,0.005142046,-3.27795,0.79998
558.426,178.752,0.006931832,-3.28091,0.79774
561.526,179.791,0.00978386,-3.28327,0.79548
564.626,180.832,0.0065696,-3.28588,0.79322
567.726,181.878,0.00666149,-3.28784,0.79094
570.826,182.914,0.00975569,-3.28982,0.78865
573.926,183.954,0.0067503,-3.2918,0.78634
577.026,184.999,0.01024012,-3.29508,0.78402
580.126,186.039,0.01451023,-3.29573,0.78169
583.226,187.077,0.01594657,-3.29738,0.77935
586.326,188.111,0.01615092,-3.2986,0.77699
589.426,189.15,0.01802827,-3.30167,0.77462
592.526,190.192,0.01689689,-3.30416,0.77224
595.626,191.2406,0.01691479,-3.30561,0.76984
598.726,192.284,0.02466363,-3.30789,0.76743
601.826,193.322,0.02597047,-3.30955,0.76501
604.926,194.366,0.02815401,-3.3089,0.76258
608.026,195.4126,0.02688397,-3.31252,0.76013
611.126,196.4541,0.02900509,-3.31512,0.75767
614.226,197.492,0.02712822,-3.31613,0.7552
617.326,198.534,0.02654545,-3.31715,0.75271
620.426,199.579,0.02862086,-3.32104,0.75022
623.526,200.623,0.02864263,-3.32119,0.74771
626.626,201.667,0.02965042,-3.3225,0.74519
629.726,202.71,0.02672395,-3.3258,0.74265
632.826,203.755,0.02652012,-3.32672,0.74011
635.926,204.7989,0.02706084,-3.32777,0.73755
639.026,205.834,0.03213562,-3.32941,0.73498
642.126,206.881,0.03318574,-3.32941,0.7324
645.226,207.931,0.03203012,-3.33073,0.7298
648.326,208.976,0.03218218,-3.33329,0.7272
651.426,210.019,0.03039954,-3.33401,0.72458
654.526,211.06,0.0316342,-3.34003,0.72195
657.626,212.105,0.03204299,-3.33587,0.71931
660.726,213.147,0.03444917,-3.3382,0.71666
663.826,214.1892,0.03308044,-3.3384,0.71399
666.926,215.237,0.03907841,-3.34096,0.71132
670.026,216.279,0.03681544,-3.34111,0.70863
673.126,217.327,0.03672888,-3.34343,0.70593
676.226,218.379,0.03690176,-3.34386,0.70322
679.326,219.418,0.03877741,-3.34608,0.7005
682.426,220.464,0.03847417,-3.34768,0.69777
685.526,221.511,0.04549963,-3.35004,0.69503
688.626,222.557,0.04815769,-3.35168,0.69227
691.726,223.607,0.05004219,-3.35345,0.68951
694.826,224.654,0.04466656,-3.35414,0.68673
697.926,225.6916,0.05075612,-3.35499,0.68395
701.026,226.747,0.04729194,-3.35667,0.68115
704.126,227.802,0.04153137,-3.35695,0.67835
707.226,228.846,0.03880028,-3.35859,0.67553
710.326,229.888,0.04243041,-3.35957,0.6727
713.426,230.9316,0.03976904,-3.36089,0.66987
716.526,231.988,0.0334967,-3.36011,0.66702
719.626,233.028,0.03031678,-3.36351,0.66417
722.726,234.078,0.0336371,-3.36482,0.6613
725.826,235.127,0.02905434,-3.3655,0.65843
728.926,236.168,0.02892829,-3.36748,0.65554
732.026,237.2216,0.02214297,-3.36779,0.65265
735.126,238.278,0.01713759,-3.36846,0.64975
738.226,239.3291,0.01309509,-3.36944,0.64684
741.326,240.383,0.003154294,-3.36911,0.64392
744.426,241.433,0.003850913,-3.37109,0.64099
747.526,242.486,-0.003633882,-3.37176,0.63805
750.026,243.3309,-0.004589236,-3.37142,0.63568