Folder: fsri_materials_database/01_Data/Cotton_Raw/Cone (part 2)

File: Cotton_Raw_Cone_HF35-Frame+GridScan_200909_R3.csv
Names,Time,Stack TC,Smoke TC,Exh Press,Smoke Comp,Smoke Meas,CO Meter,CO2 Meter,O2 Meter,Sample Mass,Ext Coeff,Start Test,Flame Verif
Chan Gain,,500,500,1,1,1,1,1,1,1,1,1.0,1.0
Offset,,0,0,0.136754,0,0,0,0,0,0,0,0.0,0.0
Gain,,1,1,25.011,13.7501,16.9893,1,1,1,1.00105,1.02582,1.0,1.0
Units,sec,C,C,Pa,%,%,%,%,%,g,/m,,
Baseline,,22.8006,24.8918,168.624,101.651,102.391,-0.000391635,0.0534794,20.9649,-900.161,-0.0652616,,
11,2.5,21.0136,22.7897,167.562,101.312,101.629,-0.000143905,0.0539813,20.9641,15.5263,-0.0280839,0.0,0.0
22,5.25,21.4002,23.2625,166.664,101.317,100.679,0.000522655,0.0684733,20.9466,15.4062,0.0568508,0.0,0.0
33,8,22.835,25.6733,164.915,101.309,102.737,0.00112626,0.126937,20.8829,15.1959,-0.125999,0.0,1.0
44,10.75,24.3922,29.1249,160.585,101.312,102.327,0.00123408,0.158287,20.8559,15.0558,-0.0896263,0.0,1.0
55,13.5,23.9504,28.7081,161.706,101.335,102.253,0.00119667,0.161334,20.8522,14.9657,-0.0811373,0.0,0.0
66,16.25,24.3314,28.9637,161.693,101.329,102.508,0.0013108,0.159806,20.8523,14.7855,-0.104162,0.0,0.0
77,19,24.5055,29.5142,164.223,101.315,102.589,0.00145033,0.163293,20.851,14.6554,-0.112405,0.0,0.0
88,21.75,25.1865,30.4333,167.648,101.32,102.682,0.00141308,0.174247,20.8414,14.5353,-0.120178,0.0,0.0
99,24.5,25.2971,31.8264,163.87,101.338,103.104,0.00139584,0.192383,20.8198,14.295,-0.155447,0.0,0.0
110,27.25,26.2893,32.6908,165.167,101.348,103.138,0.0013757,0.205925,20.8054,14.1649,-0.157568,0.0,0.0
121,30,27.2763,34.0338,163.474,101.361,102.653,0.00132716,0.211162,20.8013,13.9647,-0.113899,0.0,0.0
132,32.75,27.4096,33.8794,163.482,101.365,102.801,0.00141575,0.210944,20.8006,13.7845,-0.126636,0.0,0.0
143,35.5,28.0165,34.3371,159.903,101.364,102.9,0.00149048,0.211576,20.8003,13.5442,-0.135337,0.0,0.0
154,38.25,28.4224,34.3219,160.877,101.386,102.811,0.00147122,0.210865,20.8002,13.374,-0.125598,0.0,0.0
165,41,27.9402,34.0267,160.72,101.382,102.571,0.00135086,0.210201,20.8016,13.2039,-0.104973,0.0,0.0
176,43.75,28.1793,34.5936,162.738,101.392,102.749,0.00128875,0.208964,20.8036,13.0437,-0.119622,0.0,0.0
187,46.5,27.8711,34.9252,160.702,101.42,102.786,0.0013302,0.207106,20.8054,12.8935,-0.120396,0.0,0.0
198,49.25,28.7274,34.8642,161.024,101.416,102.713,0.00131073,0.206209,20.8073,12.7734,-0.114328,0.0,0.0
209,52,28.4763,34.6818,155.977,101.437,102.785,0.00138945,0.203883,20.8095,12.5532,-0.118778,0.0,0.0
220,54.75,28.3099,35.1126,159.156,101.426,102.829,0.00167968,0.203784,20.8102,12.4631,-0.123604,0.0,0.0
231,57.5,28.9107,35.0147,159.646,101.434,102.938,0.00190564,0.20077,20.8113,12.2729,-0.132456,0.0,0.0
242,60.25,29.107,35.3885,162.714,101.431,103.61,0.00196253,0.199343,20.8123,12.0827,-0.191227,0.0,0.0
253,63,29.0565,34.7349,162.955,101.444,102.83,0.0021711,0.197309,20.8126,11.9626,-0.122131,0.0,0.0
264,65.75,28.6325,35.1795,160.949,101.457,102.606,0.00268358,0.197,20.8127,11.8024,-0.101356,0.0,0.0
275,68.5,29.3997,34.6006,157.358,101.472,102.656,0.0032863,0.195244,20.8131,11.6422,-0.104343,0.0,0.0
286,71.25,29.2325,34.7887,161.375,101.492,103.337,0.00383318,0.191662,20.8162,11.4921,-0.162077,0.0,0.0
297,74,29.3552,34.6796,163.477,101.486,102.884,0.00431602,0.187556,20.8196,11.3619,-0.123135,0.0,0.0
308,76.75,29.3053,34.6796,166.43,101.514,102.457,0.00454457,0.184279,20.8227,11.2418,-0.0832363,0.0,0.0
319,79.5,29.4542,34.3114,163.136,101.549,103.153,0.00479423,0.180273,20.8265,11.0716,-0.141097,0.0,0.0
330,82.25,28.7187,34.1217,164.102,101.555,103.051,0.00528907,0.177274,20.8304,10.9615,-0.13158,0.0,0.0
341,85,28.97,33.7003,164.212,101.553,102.76,0.00567172,0.173755,20.8342,10.8414,-0.106377,0.0,0.0
352,87.75,28.4959,33.4644,161.466,101.559,102.716,0.00580905,0.171586,20.8364,10.6211,-0.101959,0.0,0.0
363,90.5,28.3336,33.5538,163.541,101.567,103.245,0.00608875,0.169931,20.8387,10.5711,-0.147426,0.0,0.0
374,93.25,28.5463,33.462,161.317,101.569,103.085,0.00637559,0.169648,20.8398,10.5311,-0.133295,0.0,0.0
385,96,28.6147,33.4142,159.667,101.561,102.882,0.00619423,0.168157,20.8415,10.2508,-0.116288,0.0,0.0
396,98.75,28.2052,33.328,165.083,101.565,102.582,0.00589209,0.166709,20.8422,10.2107,-0.089622,0.0,0.0
407,101.5,28.45,32.9301,159.619,101.59,102.653,0.00592587,0.16446,20.8446,10.1406,-0.0936657,0.0,0.0
418,104.25,28.437,33.1096,166.577,101.624,103.106,0.00624077,0.1604,20.8482,9.97046,-0.130282,0.0,0.0
429,107,27.7462,32.8958,162.355,101.629,102.659,0.00644917,0.155295,20.8528,9.92041,-0.0907098,0.0,0.0
440,109.75,28.1613,31.9776,163.7,101.643,103.008,0.00633809,0.150966,20.8565,9.90039,-0.120054,0.0,0.0
451,112.5,27.7789,32.1565,164.273,101.648,103.115,0.00642824,0.146425,20.861,9.80029,-0.128933,0.0,0.0
462,115.25,27.6341,31.9281,165.72,101.68,103.745,0.00649646,0.144912,20.8625,9.75023,-0.180961,0.0,0.0
473,118,27.7694,31.7634,164.266,101.694,102.74,0.00629919,0.143108,20.864,9.60008,-0.0921218,0.0,0.0
484,120.75,27.4893,31.7659,163.013,101.712,102.676,0.006254,0.140556,20.8672,9.64012,-0.0849011,0.0,0.0
495,123.5,27.4457,31.5388,165.776,101.714,102.787,0.00633477,0.13627,20.8719,9.43991,-0.0944711,0.0,0.0
506,126.25,27.231,31.2346,162.742,101.713,103.304,0.00633309,0.132287,20.8751,9.4299,-0.139685,0.0,0.0
517,129,27.3575,30.9721,163.589,101.729,103.099,0.00619229,0.129845,20.8785,9.38985,-0.120335,0.0,0.0
528,131.75,27.1182,30.8781,159.978,101.734,103.065,0.00605195,0.127415,20.8815,9.40987,-0.116977,0.0,0.0
539,134.5,26.595,30.6175,160.794,101.713,102.975,0.00594938,0.123081,20.8867,9.3398,-0.110953,0.0,0.0
550,137.25,26.5959,30.2085,167.449,101.718,102.722,0.00590537,0.119211,20.8896,9.29976,-0.0883788,0.0,0.0
561,140,26.5661,29.3461,165.2,101.711,102.558,0.00613326,0.116677,20.8898,9.22969,-0.0746836,0.0,0.0
572,142.75,26.4628,29.6355,163.782,101.701,102.684,0.00631957,0.112207,20.8936,9.13959,-0.0865028,0.0,0.0
583,145.5,26.1097,29.3483,164.167,101.684,102.626,0.00630971,0.10721,20.8982,9.12958,-0.0829798,0.0,0.0
594,148.25,24.7155,27.4421,166.699,101.66,102.22,0.00629393,0.104331,20.9003,9.09955,-0.0494224,0.0,0.0
605,151,24.015,27.2568,168.746,101.632,102.575,0.00620964,0.103735,20.901,9.10956,-0.0831665,0.0,0.0
616,153.75,24.2512,26.6059,163.361,101.643,102.283,0.00604075,0.10339,20.9012,9.03949,-0.056557,0.0,0.0
627,156.5,23.9143,26.6082,162.329,101.642,102.517,0.00598369,0.103716,20.9012,9.03949,-0.0770971,0.0,0.0
638,159.25,24.1471,26.4855,166.744,101.626,102.674,0.00584618,0.103405,20.9013,8.98943,-0.0922871,0.0,0.0
649,162,23.4985,26.5275,170.072,101.604,102.492,0.0057596,0.103205,20.9039,8.97942,-0.0783305,0.0,0.0
660,164.75,24.4121,27.0777,165.424,101.579,102.762,0.005728,0.102713,20.9063,8.96941,-0.104208,0.0,0.0
671,167.5,23.793,26.732,166.134,101.594,102.704,0.00555975,0.101641,20.9081,8.92937,-0.0978663,0.0,0.0
682,170.25,23.753,26.6649,166.18,101.599,102.98,0.00534737,0.100878,20.9091,8.91936,-0.121509,0.0,0.0
693,173,24.2967,26.9444,164.343,101.566,102.237,0.00515147,0.100517,20.9095,8.83928,-0.0592603,0.0,0.0
704,175.75,23.9407,26.3006,161.091,101.554,102.205,0.00488812,0.0999101,20.9098,8.90935,-0.0575091,0.0,0.0
715,178.5,24.032,26.6019,161.796,101.531,102.486,0.00456737,0.0991114,20.9113,8.81926,-0.084253,0.0,0.0
726,181.25,23.4552,26.3105,165.165,101.539,102.682,0.00435055,0.0981176,20.9131,8.7692,-0.100663,0.0,0.0
737,184,23.6359,26.6902,170.229,101.509,102.586,0.00420978,0.0972156,20.9139,8.71915,-0.0949692,0.0,0.0
748,186.75,23.6813,26.4153,166.391,101.494,102.745,0.00422807,0.0969317,20.9145,8.75919,-0.110222,0.0,0.0
759,189.5,23.4764,25.8693,164.167,101.478,102.568,0.00407453,0.0961438,20.9148,8.69913,-0.0961379,0.0,0.0
770,192.25,23.7344,26.4727,166.124,101.479,102.812,0.00378044,0.0956501,20.9164,8.70914,-0.117417,0.0,0.0
781,195,23.6211,26.26,165.592,101.456,102.78,0.00371949,0.0954067,20.9175,8.60904,-0.11665,0.0,0.0
792,197.75,23.7604,26.2282,165.518,101.417,102.679,0.00365851,0.0949575,20.9178,8.62906,-0.111301,0.0,0.0
803,200.5,23.6776,26.1606,166.511,101.386,102.315,0.00369573,0.0939582,20.918,8.62906,-0.0820661,0.0,0.0
814,203.25,23.7009,26.0192,168.405,101.403,102.259,0.00378127,0.0938008,20.9168,8.61905,-0.0756128,0.0,0.0
825,206,23.6895,26.4415,164.722,101.424,102.488,0.00374643,0.0938324,20.9161,8.60904,-0.0938949,0.0,0.0
836,208.75,23.5253,26.5437,166.569,101.395,102.37,0.00353159,0.0929303,20.9172,8.58901,-0.0861156,0.0,0.0
847,211.5,23.6013,26.6135,163.861,101.39,102.19,0.00310201,0.0915733,20.9187,8.58901,-0.0707262,0.0,0.0
858,214.25,23.743,26.6657,161.26,101.406,102.433,0.00273721,0.0907328,20.9197,8.579,-0.0906231,0.0,0.0
869,217,23.8826,26.8457,165.051,101.395,102.432,0.0028255,0.0902022,20.92,8.54897,-0.0915458,0.0,0.0
880,219.75,23.7473,26.3584,169.003,101.424,102.123,0.0030625,0.0902086,20.9207,8.52895,-0.0618273,0.0,0.0
891,222.5,23.4858,26.7462,170.493,101.428,102.629,0.00294974,0.0892144,20.9219,8.43886,-0.105933,0.0,0.0
902,225.25,23.4311,26.5149,169.703,101.429,102.024,0.00279249,0.0883809,20.9232,8.48891,-0.0526507,0.0,0.0
913,228,23.8623,26.7228,166.496,101.436,102.098,0.00276398,0.0871366,20.9236,8.43886,-0.058592,0.0,0.0
924,230.75,23.9816,26.313,170.042,101.463,102.328,0.00269579,0.0859157,20.9246,8.42885,-0.0763933,0.0,0.0
935,233.5,24.1808,26.5223,163.034,101.468,102.386,0.00240715,0.0853716,20.9267,8.43886,-0.0809685,0.0,0.0
946,236.25,23.6078,25.9415,161.372,101.48,102.85,0.00217451,0.0844605,20.9287,8.43886,-0.120663,0.0,0.0
957,239,24.0663,26.5804,169.21,101.496,102.43,0.00212832,0.0840433,20.9301,8.42885,-0.0824303,0.0,0.0
968,241.75,23.7948,26.1931,166.876,101.523,102.553,0.00222164,0.0841221,20.929,8.41884,-0.0908756,0.0,0.0
979,244.5,23.9315,26.0001,165.4,101.551,102.709,0.00221256,0.0831811,20.9298,8.40882,-0.102067,0.0,0.0
990,247.25,23.7624,26.3089,163.417,101.566,102.59,0.00206707,0.0820569,20.9299,8.39882,-0.0902748,0.0,0.0
1001,250,23.7984,26.0562,164.219,101.564,102.362,0.00188877,0.081144,20.9311,8.40882,-0.0704289,0.0,0.0
1012,252.75,24.0284,26.6485,168.4,101.586,102.52,0.00181759,0.0802919,20.9319,8.34876,-0.0823578,0.0,0.0
1023,255.5,24.047,26.8406,168.752,101.617,102.935,,0.0790413,,8.1986,-0.115932,0.0,0.0
1034,258.25,23.7864,26.7485,161.723,101.625,102.345,,0.077984,,8.32874,-0.0634984,0.0,0.0
1045,261,23.8605,26.5625,168.958,101.619,102.343,,,,8.27869,-0.0638738,0.0,0.0
1056,263.75,23.598,26.3128,162.469,101.633,102.7,,,,8.2887,-0.0940472,0.0,0.0
1066,266.25,23.8572,26.5184,166.775,101.648,103.159,,,,8.30872,-0.132742,0.0,0.0

File: Cotton_Raw_Cone_HF50-Frame+GridScalar_200909_R1.csv
LABORATORY,FSRI
TEST IDENT,RawCotton_50_1
OPERATOR,Dow
MATERIAL,Raw cotton
ORIENTATION,Horizontal
HEAT FLUX,35
SURF AREA,0.01
C FACTOR,0.0376049
SPEC HOLDER DIFF,345.5
SPECIMEN MASS,5.9
SCAN TIME,0.25
O2 DELAY TIME,11
CO DELAY TIME,11
CO2 DELAY TIME,8
FLOW FACTOR,1
SCAN COUNT,882
TIME TO IGN,3
END OF TEST SCAN,402
END OF TEST TIME,100.5
TEST STATUS,1

File: Cotton_Raw_Cone_HF50-Frame+GridScalar_200909_R2.csv
LABORATORY,FSRI
TEST IDENT,RawCotton_50_2
OPERATOR,Dow
MATERIAL,Raw cotton
ORIENTATION,Horizontal
HEAT FLUX,35
SURF AREA,0.01
C FACTOR,0.0376049
SPEC HOLDER DIFF,341.1
SPECIMEN MASS,6.21
SCAN TIME,0.25
O2 DELAY TIME,11
CO DELAY TIME,11
CO2 DELAY TIME,8
FLOW FACTOR,1
SCAN COUNT,939
TIME TO IGN,2.75
END OF TEST SCAN,459
END OF TEST TIME,114.75
TEST STATUS,1

File: Cotton_Raw_Cone_HF50-Frame+GridScan_200909_R1.csv
Names,Time,Stack TC,Smoke TC,Exh Press,Smoke Comp,Smoke Meas,CO Meter,CO2 Meter,O2 Meter,Sample Mass,Ext Coeff,Start Test,Flame Verif
Chan Gain,,500,500,1,1,1,1,1,1,1,1,1.0,1.0
Offset,,0,0,0.136754,0,0,0,0,0,0,0,0.0,0.0
Gain,,1,1,25.011,13.7501,16.9893,1,1,1,1.00105,1.02582,1.0,1.0
Units,sec,C,C,Pa,%,%,%,%,%,g,/m,,
Baseline,,28.8312,32.1356,164.836,102.127,103.221,-7.6491e-06,0.0540683,20.9606,-900.542,-0.0958699,,
9,2,27.5759,30.6102,162.571,102.242,100.58,0.000573732,0.0849636,20.9315,17.5584,0.147481,0.0,0.0
18,4.25,29.1002,33.4735,156.483,102.223,104.011,0.00105642,0.151864,20.8661,17.3782,-0.155994,0.0,1.0
27,6.5,31.4616,36.861,158.929,102.202,103.487,0.00137817,0.189035,20.8266,17.2781,-0.112386,0.0,1.0
36,8.75,30.8989,38.1912,157.025,102.166,103.853,0.00153667,0.198424,20.8093,17.108,-0.14738,0.0,0.0
45,11,32.1855,39.0539,149.938,102.123,103.703,0.00161182,0.208491,20.8017,16.9478,-0.138188,0.0,0.0
54,13.25,33.6671,40.812,158.349,102.079,104.203,0.00155422,0.222947,20.7888,16.7476,-0.18538,0.0,0.0
63,15.5,33.7678,42.5706,158.969,102.033,103.953,0.00147808,0.236667,20.7738,16.5674,-0.167726,0.0,0.0
72,17.75,34.6244,43.5809,156.33,101.981,103.395,0.00138581,0.242754,20.767,16.3872,-0.123894,0.0,0.0
81,20,35.2514,44.3816,161.775,101.932,103.301,0.00120906,0.241893,20.7663,16.2571,-0.120057,0.0,0.0
90,22.25,35.9754,44.5345,158.634,101.883,103.674,0.00101902,0.236411,20.7724,15.9167,-0.156843,0.0,0.0
99,24.5,35.4797,44.4802,163.774,101.858,104.571,0.000913452,0.230196,20.7782,15.8967,-0.236546,0.0,0.0
108,26.75,35.7186,44.2303,159.99,102.016,103.582,0.000902163,0.223746,20.784,15.8266,-0.137097,0.0,0.0
117,29,35.5336,43.8893,159.376,102.257,105.224,0.00103862,0.218233,20.7904,15.6965,-0.257401,0.0,0.0
126,31.25,36.2288,43.4807,159.178,102.458,104.462,0.00114599,0.213122,20.7957,15.5563,-0.174309,0.0,0.0
135,33.5,36.0316,43.8433,158.719,102.604,104.479,0.0011989,0.207409,20.8015,15.4462,-0.162939,0.0,0.0
144,35.75,35.7939,43.9917,155.977,102.685,105.289,0.00125727,0.202826,20.8078,15.246,-0.225312,0.0,0.0
153,38,35.8739,43.672,157.164,102.728,104.655,0.00129272,0.199892,20.8118,15.1659,-0.167214,0.0,0.0
162,40.25,35.5973,43.1725,164.994,102.725,104.575,0.00135196,0.197776,20.8134,15.0358,-0.160603,0.0,0.0
171,42.5,35.9801,42.8943,157.88,102.683,104.897,0.00139745,0.196294,20.8161,14.8556,-0.191934,0.0,0.0
180,44.75,35.8625,43.1992,158.331,102.58,104.843,0.00140249,0.193099,20.8178,14.7355,-0.196329,0.0,0.0
189,47,35.635,42.4128,161.052,102.435,104.081,0.00143264,0.191194,20.8194,14.6153,-0.143458,0.0,0.0
198,49.25,35.9369,42.4416,157.816,102.256,104.332,0.00146033,0.188618,20.8213,14.5052,-0.180925,0.0,0.0
207,51.5,35.7488,42.3649,156.326,102.064,104.359,0.00154503,0.18827,20.8222,14.4051,-0.200105,0.0,0.0
216,53.75,35.587,42.5441,159.701,102.11,103.777,0.00161237,0.188112,20.8215,14.285,-0.145683,0.0,0.0
225,56,35.4962,42.7101,160.642,102.191,104.039,0.00161357,0.188304,20.8214,14.1048,-0.161268,0.0,0.0
234,58.25,35.4579,42.2563,162.742,102.299,103.982,0.0016281,0.18879,20.8213,14.1749,-0.146807,0.0,0.0
243,60.5,35.854,42.5786,157.364,102.371,104.494,0.00172835,0.188407,20.8207,13.8545,-0.184673,0.0,0.0
252,62.75,35.6184,42.6023,158.379,102.453,105.229,0.001764,0.188882,20.8204,13.7845,-0.240617,0.0,0.0
261,65,35.8996,42.9087,156.313,102.558,104.137,0.00182303,0.187899,20.8217,13.7244,-0.137467,0.0,0.0
270,67.25,35.8723,42.5459,160.185,102.652,104.482,0.0020859,0.185419,20.8229,13.6844,-0.159049,0.0,0.0
279,69.5,35.5001,42.9841,154.403,102.705,104.328,0.00242608,0.18148,20.8263,13.5642,-0.141107,0.0,0.0
288,71.75,35.84,41.8164,163.536,102.766,104.477,0.00272933,0.177642,20.8302,13.364,-0.148595,0.0,0.0
297,74,35.3883,42.5991,158.962,102.823,104.099,0.00298657,0.173105,20.8338,13.2739,-0.110958,0.0,0.0
306,76.25,35.7775,41.7872,157.812,102.822,104.413,0.0033383,0.166117,20.8394,13.294,-0.138178,0.0,0.0
315,78.5,35.0457,41.2222,161.534,102.808,104.189,0.00370505,0.157623,20.8492,13.2539,-0.120075,0.0,0.0
324,80.75,35.2569,40.4439,160.089,102.805,104.437,0.00408688,0.149004,20.8561,13.2439,-0.141784,0.0,0.0
333,83,34.5241,40.2481,161.985,102.78,104.613,0.00470127,0.141504,20.8633,13.0737,-0.159127,0.0,0.0
342,85.25,34.1796,39.7948,153.582,102.707,105.593,0.00523151,0.13643,20.8683,13.0437,-0.249337,0.0,0.0
351,87.5,34.0682,38.9815,159.702,102.635,105.003,0.00565177,0.131294,20.8738,12.9936,-0.20524,0.0,0.0
360,89.75,33.5832,38.9309,163.648,102.555,103.651,0.00587955,0.126846,20.8784,12.9736,-0.0956853,0.0,0.0
369,92,33.6117,38.1094,162.258,102.453,104.046,0.00601709,0.123295,20.8834,12.9035,-0.138825,0.0,0.0
378,94.25,33.2764,37.2246,161.195,102.335,103.491,0.00617582,0.119631,20.8861,12.8335,-0.101043,0.0,0.0
387,96.5,33.0484,37.6175,160.235,102.23,103.938,0.00651285,0.116329,20.8896,12.9336,-0.149048,0.0,0.0
396,98.75,33.0401,37.3951,158.756,102.089,103.031,0.00698728,0.112944,20.8937,12.7934,-0.0826517,0.0,0.0
405,101,32.7733,36.4926,162.795,101.967,103.407,0.00735226,0.109801,20.8966,12.7534,-0.126154,0.0,0.0
414,103.25,30.5727,35.2992,158.12,101.826,103.538,0.00760864,0.108215,20.8983,12.7033,-0.150049,0.0,0.0
423,105.5,30.9006,34.8972,156.353,101.703,103.005,0.00784867,0.106406,20.9016,12.6533,-0.114434,0.0,0.0
432,107.75,30.7094,34.6887,159.719,101.567,103.486,0.00805984,0.104557,20.9044,12.6232,-0.168443,0.0,0.0
441,110,30.8434,34.344,160.014,101.455,103.608,0.00808294,0.102749,20.9068,12.6933,-0.189008,0.0,0.0
450,112.25,30.6997,34.538,161.492,101.37,102.602,0.00787119,0.10092,20.9093,12.6232,-0.108699,0.0,0.0
459,114.5,30.3672,33.9564,159.974,101.26,102.367,0.00770302,0.10029,20.9101,12.5932,-0.0978045,0.0,0.0
468,116.75,29.9861,33.2762,158.315,101.134,102.67,0.00769527,0.101427,20.9092,12.5832,-0.135695,0.0,0.0
477,119,30.5764,34.0345,159.782,101.03,102.468,0.00761797,0.101889,20.9089,12.5231,-0.127144,0.0,0.0
486,121.25,30.6239,34.1178,159.64,100.942,102.99,0.00736767,0.101267,20.9087,12.4431,-0.180684,0.0,0.0
495,123.5,30.0558,33.6146,158.184,100.877,102.524,0.00709805,0.101581,20.9084,12.4431,-0.145713,0.0,0.0
504,125.75,30.3662,33.6389,159.022,100.792,101.563,0.00694142,0.102258,20.9071,12.383,-0.0686317,0.0,0.0
513,128,30.3048,33.5852,161.398,100.764,102.075,0.0067653,0.102334,20.9064,12.343,-0.11633,0.0,0.0
522,130.25,29.8237,33.7256,160.253,100.732,101.764,0.00658471,0.101786,20.9058,12.363,-0.0917208,0.0,0.0
531,132.5,30.0067,33.4201,157.972,100.703,102.418,0.00651333,0.101729,20.9056,12.2929,-0.151963,0.0,0.0
540,134.75,30.2396,33.7529,163.072,100.692,101.855,0.00646512,0.102276,20.9055,12.343,-0.103377,0.0,0.0
549,137,29.9329,33.6049,161.493,100.71,101.986,0.00636825,0.10248,20.9055,12.3029,-0.113308,0.0,0.0
558,139.25,30.349,33.8785,159.45,100.732,101.913,0.00617355,0.102712,20.9055,12.3029,-0.104898,0.0,0.0
567,141.5,29.6606,33.4988,161.893,100.747,102.491,0.00595663,0.102644,20.9055,12.2629,-0.154447,0.0,0.0
576,143.75,30.3825,34.1733,161.11,100.792,101.918,0.00579768,0.102465,20.9055,12.2929,-0.100043,0.0,0.0
585,146,30.3519,33.9041,166.909,100.851,102.036,0.00572849,0.102069,20.9055,12.1928,-0.105064,0.0,0.0
594,148.25,30.6186,34.1399,160.189,100.901,102.653,0.00564886,0.101649,20.9055,12.1528,-0.15494,0.0,0.0
603,150.5,30.4798,34.3603,164.924,100.966,102.584,0.0055095,0.101294,20.9055,12.1928,-0.143095,0.0,0.0
612,152.75,30.6459,34.5032,163.613,101.044,102.279,0.00545362,0.101319,20.9074,12.0827,-0.109315,0.0,0.0
621,155,30.2084,33.6711,159.634,101.116,102.356,0.0054684,0.10145,20.9084,12.1928,-0.109676,0.0,0.0
630,157.25,29.9604,33.8261,166.046,101.191,102.362,0.00547314,0.101524,20.9088,12.1227,-0.103586,0.0,0.0
639,159.5,30.016,34.0421,158.838,101.255,102.727,0.00549658,0.10134,20.9092,12.0727,-0.129863,0.0,0.0
648,161.75,29.9957,33.6557,165.919,101.346,102.718,0.0054862,0.101167,20.9096,12.0426,-0.120965,0.0,0.0
657,164,30.0703,34.1637,159.168,101.437,102.872,0.00550217,0.100623,20.9098,12.0026,-0.126401,0.0,0.0
666,166.25,30.828,34.6217,159.906,101.497,102.885,0.00548024,0.100615,20.9111,12.0326,-0.122221,0.0,0.0
675,168.5,30.1275,34.5943,157.851,101.584,103.948,0.00536988,0.100082,20.9118,12.0526,-0.206998,0.0,0.0
684,170.75,30.4176,35.1709,159.89,101.701,103.936,0.00526408,0.09916,20.912,11.9525,-0.195639,0.0,0.0
693,173,30.5951,34.4781,163.202,101.737,103.33,0.00501856,0.0990468,20.9116,11.9626,-0.139744,0.0,0.0
702,175.25,31.1081,34.5964,158.749,101.811,103.467,0.00491426,0.0984526,20.9107,11.9626,-0.145172,0.0,0.0
711,177.5,30.8176,34.7074,160.082,101.886,103.179,0.00493919,0.0979245,20.9121,11.9826,-0.113467,0.0,0.0
720,179.75,30.8411,35.0413,159.185,101.944,103.423,0.00491019,0.0968317,20.9133,11.8825,-0.129627,0.0,0.0
729,182,30.6958,34.9969,161.631,101.98,103.855,0.00468242,0.0960337,20.9143,11.8925,-0.163948,0.0,0.0
738,184.25,30.4796,35.203,162.752,102.033,103.426,0.00433653,0.0952692,20.9155,11.8524,-0.122049,0.0,0.0
747,186.5,30.5095,34.4336,161.93,102.072,103.419,0.00403808,0.0942426,20.9166,11.8324,-0.117976,0.0,0.0
756,188.75,30.4149,34.4188,160.594,102.091,103.494,0.00393932,0.0927785,20.9186,11.8925,-0.122813,0.0,0.0
765,191,30.5085,34.1715,163.387,102.11,103.298,0.00386246,0.0920879,20.92,11.7623,-0.104092,0.0,0.0
774,193.25,30.3305,34.7803,165.073,102.152,103.552,0.00372154,0.0913229,20.9205,11.8324,-0.122499,0.0,0.0
783,195.5,30.2768,34.4088,158.858,102.148,103.469,0.0035031,0.0898253,20.9219,11.8224,-0.11562,0.0,0.0
792,197.75,30.5462,34.5467,157.712,102.154,104.131,0.00332656,0.0881806,20.9229,11.8224,-0.172455,0.0,0.0
801,200,30.2479,34.3832,155.957,102.167,103.326,0.00316316,0.0866654,20.9252,11.7824,-0.101541,0.0,0.0
810,202.25,30.0704,34.2708,161.149,102.17,103.128,0.00304637,0.0855363,20.9272,11.7523,-0.0838979,0.0,0.0
819,204.5,30.2935,34.5993,159.843,102.171,103.175,0.00295094,0.0838919,20.9295,11.7724,-0.0880219,0.0,0.0
828,206.75,30.7318,34.1825,158.676,102.173,103.869,0.00286318,0.0820811,20.931,11.7724,-0.148145,0.0,0.0
837,209,30.4565,34.6525,162.911,102.168,103.638,0.00262052,0.0802764,20.9329,11.7623,-0.128533,0.0,0.0
846,211.25,30.2875,34.5201,162.98,102.15,102.99,,0.0788861,,11.7423,-0.073675,0.0,0.0
855,213.5,30.3575,34.4205,156.875,102.131,103.262,,,,11.6823,-0.099127,0.0,0.0
864,215.75,30.2168,34.2562,160.23,102.118,103.426,,,,11.7123,-0.114576,0.0,0.0
873,218,30.3258,34.518,163.255,102.099,102.763,,,,11.7323,-0.0583598,0.0,0.0
882,220.25,30.1218,34.1002,161.988,102.077,103.924,,,,11.7023,-0.161327,0.0,0.0