Folder: fsri_materials_database/01_Data/Cotton_Raw/Cone (part 3)

File: Cotton_Raw_Cone_HF50-Frame+GridScan_200909_R2.csv
Names,Time,Stack TC,Smoke TC,Exh Press,Smoke Comp,Smoke Meas,CO Meter,CO2 Meter,O2 Meter,Sample Mass,Ext Coeff,Start Test,Flame Verif
Chan Gain,,500,500,1,1,1,1,1,1,1,1,1.0,1.0
Offset,,0,0,0.136754,0,0,0,0,0,0,0,0.0,0.0
Gain,,1,1,25.011,13.7501,16.9893,1,1,1,1.00105,1.02582,1.0,1.0
Units,sec,C,C,Pa,%,%,%,%,%,g,/m,,
Baseline,,30.7636,33.8264,163.684,102.669,103.841,-0.000467375,0.0537324,20.9599,-900.72,-0.102076,,
10,2.25,28.5567,31.4025,158.39,102.623,103.74,0.000483062,0.102153,20.9202,13.4641,-0.0974163,0.0,0.0
20,4.75,30.8113,36.8799,158.483,102.622,105.881,0.00101693,0.177749,20.846,13.2539,-0.281291,0.0,1.0
30,7.25,32.8787,39.6632,159.259,102.586,104.689,0.00128336,0.199777,20.8161,13.1438,-0.18258,0.0,1.0
40,9.75,33.0014,39.9385,156.896,102.591,104.517,0.00143826,0.202721,20.8082,12.9636,-0.167294,0.0,0.0
50,12.25,33.8366,40.654,155.192,102.593,104.405,0.00154065,0.208414,20.8008,12.7434,-0.1575,0.0,0.0
60,14.75,34.5726,42.3816,155.877,102.561,104.625,0.00154011,0.222264,20.7892,12.5932,-0.17935,0.0,0.0
70,17.25,35.3943,43.7574,152.457,102.537,104.177,0.00158911,0.23426,20.7758,12.373,-0.142839,0.0,0.0
80,19.75,36.7479,44.8331,153.496,102.498,104.465,0.00174655,0.238261,20.7698,12.0927,-0.171085,0.0,0.0
90,22.25,36.6992,45.347,155.327,102.497,104.636,0.00177092,0.240181,20.7681,11.9726,-0.185876,0.0,0.0
100,24.75,37.5979,45.9942,157.814,102.465,103.463,0.00164374,0.239918,20.7682,11.8925,-0.0872512,0.0,0.0
110,27.25,37.7462,45.6119,158.414,102.467,104.314,0.00140547,0.236941,20.7699,11.6823,-0.160806,0.0,0.0
120,29.75,37.793,45.9335,155.959,102.418,103.336,0.00114595,0.229272,20.7771,11.452,-0.0802877,0.0,0.0
130,32.25,37.7074,46.1656,159.701,102.417,104.123,0.000961258,0.223921,20.7829,11.3019,-0.148673,0.0,0.0
140,34.75,37.6319,46.0045,159.668,102.379,103.806,0.000944297,0.221039,20.785,11.2218,-0.124491,0.0,0.0
150,37.25,37.7562,44.5466,154.638,102.37,104.576,0.00098757,0.218897,20.7867,11.0015,-0.191798,0.0,0.0
160,39.75,37.5768,45.0917,156.99,102.337,104.216,0.00102948,0.217378,20.7878,10.8514,-0.163743,0.0,0.0
170,42.25,37.5295,45.2516,154.575,102.327,104.536,0.00114757,0.216065,20.7903,10.7313,-0.192207,0.0,0.0
180,44.75,37.3997,45.0632,156.891,102.293,104.639,0.00140006,0.210997,20.7957,10.6111,-0.20411,0.0,0.0
190,47.25,37.7261,45.23,160.78,102.282,105.155,0.0016398,0.204804,20.8008,10.491,-0.249243,0.0,0.0
200,49.75,37.2244,44.8656,158.862,102.211,104.939,0.00182565,0.200034,20.8029,10.3208,-0.237045,0.0,0.0
210,52.25,37.4655,44.538,156.323,102.189,105.184,0.00217712,0.196228,20.8069,10.2007,-0.25997,0.0,0.0
220,54.75,37.6978,44.8358,161.206,102.159,104.547,0.00264753,0.193398,20.8106,10.0205,-0.207871,0.0,0.0
230,57.25,37.8236,44.3833,158.594,102.132,103.796,0.00310626,0.189837,20.8136,9.97046,-0.145469,0.0,0.0
240,59.75,37.6467,44.2358,157.551,102.1,104.619,0.00330682,0.186498,20.8175,9.82031,-0.219293,0.0,0.0
250,62.25,37.6049,44.2478,162.019,102.052,103.781,0.00334076,0.182488,20.8224,9.73021,-0.151184,0.0,0.0
260,64.75,37.3267,42.7954,151.809,102.055,103.598,0.00347288,0.179704,20.8243,9.6201,-0.135087,0.0,0.0
270,67.25,37.6603,44.1228,156.815,102.069,103.965,0.00371804,0.178755,20.8249,9.46994,-0.165575,0.0,0.0
280,69.75,37.2996,44.1108,158.041,102.097,103.887,0.00395139,0.178059,20.8248,9.39987,-0.156318,0.0,0.0
290,72.25,37.5954,43.7561,154.036,102.093,104.367,0.00404312,0.175319,20.827,9.29976,-0.198259,0.0,0.0
300,74.75,37.4276,43.4925,159.519,102.121,104.776,0.00380938,0.172122,20.8313,9.2397,-0.230939,0.0,0.0
310,77.25,36.9446,43.1539,156.08,102.134,104.157,0.00368039,0.16898,20.8358,9.11957,-0.176513,0.0,0.0
320,79.75,37.0235,42.9089,156.061,102.143,103.642,0.00391272,0.16656,20.8389,8.96941,-0.131066,0.0,0.0
330,82.25,36.6705,42.8799,158.434,102.139,104.621,0.00411199,0.163821,20.8418,8.88933,-0.215988,0.0,0.0
340,84.75,36.4441,42.2671,155.016,102.159,104.747,0.00428489,0.160961,20.8449,8.74918,-0.225162,0.0,0.0
350,87.25,36.5543,42.3989,155.074,102.169,103.995,0.00452089,0.158098,20.8476,8.67911,-0.15946,0.0,0.0
360,89.75,36.6881,41.6011,163.947,102.199,104.486,0.00485066,0.154549,20.8508,8.60904,-0.199101,0.0,0.0
370,92.25,36.4424,42.3266,157.731,102.207,104.086,0.00507845,0.148948,20.8566,8.55898,-0.163862,0.0,0.0
380,94.75,36.2346,41.6962,163.961,102.214,103.754,0.00539157,0.141746,20.8627,8.58901,-0.134576,0.0,0.0
390,97.25,35.8654,40.6104,163.477,102.225,103.644,0.00581847,0.135944,20.8677,8.44887,-0.124004,0.0,0.0
400,99.75,35.7921,40.5347,158.681,102.236,103.422,0.00618396,0.129864,20.8745,8.45888,-0.103749,0.0,0.0
410,102.25,35.2048,39.9724,159.58,102.258,103.464,0.00639044,0.124235,20.8801,8.33875,-0.105481,0.0,0.0
420,104.75,35.1518,39.483,159.879,102.258,104.158,0.00640749,0.11883,20.8865,8.34876,-0.165703,0.0,0.0
430,107.25,35.177,39.4318,157.371,102.28,104.32,0.00620324,0.113744,20.8932,8.22864,-0.177629,0.0,0.0
440,109.75,34.8213,38.7065,156.164,102.286,104.158,0.00606885,0.108799,20.8966,8.30872,-0.163148,0.0,0.0
450,112.25,34.5707,38.4524,156.964,102.302,104.643,0.0060859,0.105673,20.9008,8.18859,-0.203529,0.0,0.0
460,114.75,34.4373,38.2701,160.891,102.304,104.549,0.00615434,0.101875,20.9046,8.21863,-0.195307,0.0,0.0
470,117.25,32.8701,36.8636,162.977,102.32,103.96,0.00604445,0.0986567,20.9074,8.06847,-0.143077,0.0,0.0
480,119.75,32.3455,36.3302,168.477,102.303,104.023,0.00597906,0.0953493,20.9097,8.08849,-0.150018,0.0,0.0
490,122.25,32.1966,36.0007,163.567,102.322,104.14,0.00603353,0.0948239,20.9093,8.11852,-0.15848,0.0,0.0
500,124.75,31.851,35.6024,163.007,102.317,103.928,0.00586827,0.0946405,20.9092,8.13854,-0.140626,0.0,0.0
510,127.25,31.9245,35.3759,160.098,102.338,103.545,0.00557529,0.0939105,20.9091,7.99839,-0.105508,0.0,0.0
520,129.75,31.924,35.9944,163.553,102.317,103.718,0.00534659,0.0930978,20.9091,7.96836,-0.122427,0.0,0.0
530,132.25,31.3705,35.5016,161.471,102.354,104.03,0.00515338,0.0933296,20.9091,7.93833,-0.146144,0.0,0.0
540,134.75,32.0421,35.7375,164.177,102.338,103.634,0.00500319,0.0939027,20.9091,8.11852,-0.113254,0.0,0.0
550,137.25,31.9227,35.8839,162.336,102.347,104.585,0.00492574,0.0938413,20.9091,7.89829,-0.194712,0.0,0.0
560,139.75,31.792,35.5423,165.029,102.347,103.741,0.00471306,0.09409,20.9091,7.93833,-0.121794,0.0,0.0
570,142.25,31.431,35.433,159.749,102.358,104.052,0.00461321,0.0943284,20.9091,7.88828,-0.147733,0.0,0.0
580,144.75,31.5152,35.6654,163.02,102.371,104.083,0.00493936,0.0943691,20.912,7.82822,-0.149279,0.0,0.0
590,147.25,32.1763,35.486,157.319,102.353,104.055,0.00514415,0.0947183,20.9115,7.84824,-0.148326,0.0,0.0
600,149.75,31.8008,35.5601,160.072,102.372,104.035,0.00503365,0.0946676,20.9113,7.82822,-0.145007,0.0,0.0
610,152.25,32.0353,36.3649,158.679,102.362,104.596,0.0048647,0.0947662,20.9125,7.8182,-0.194275,0.0,0.0
620,154.75,31.6743,35.995,160.328,102.387,104.435,0.00476694,0.095417,20.9132,7.83823,-0.178262,0.0,0.0
630,157.25,32.243,36.1224,165.856,102.36,104.483,0.00475164,0.0951685,20.9134,7.74813,-0.184694,0.0,0.0
640,159.75,32.2531,36.1296,162.836,102.381,103.793,0.00464216,0.094401,20.9135,7.63802,-0.123302,0.0,0.0
650,162.25,31.2915,35.4668,162.806,102.355,103.679,0.00444709,0.0944924,20.9135,7.76815,-0.11565,0.0,0.0
660,164.75,31.9919,35.343,161.268,102.377,103.908,0.00430411,0.0949655,20.9135,7.74813,-0.133644,0.0,0.0
670,167.25,31.5053,35.4114,160.469,102.393,104.098,0.00427545,0.0957695,20.9115,7.74813,-0.148624,0.0,0.0
680,169.75,31.8054,36.1765,166.958,102.393,104.115,0.00411292,0.0952425,20.9108,7.77816,-0.150058,0.0,0.0
690,172.25,31.835,36.1116,164.367,102.413,103.849,0.00393026,0.0944377,20.9107,7.65804,-0.125308,0.0,0.0
700,174.75,31.9325,36.0621,158.054,102.431,103.422,0.00392818,0.094539,20.911,7.65804,-0.0865992,0.0,0.0
710,177.25,32.066,36.1681,163.071,102.433,103.859,0.0040235,0.0941424,20.9113,7.64803,-0.124392,0.0,0.0
720,179.75,32.4125,35.8899,164.17,102.456,103.866,0.00404943,0.0932845,20.9127,7.60798,-0.122956,0.0,0.0
730,182.25,31.7561,36.2191,162.541,102.474,104.524,0.00386483,0.0929004,20.9134,7.57795,-0.178274,0.0,0.0
740,184.75,32.1568,36.1252,162.436,102.477,103.756,0.00378201,0.0920824,20.9132,7.54792,-0.111668,0.0,0.0
750,187.25,31.9159,36.0065,164.896,102.502,103.919,0.00388038,0.0914392,20.9145,7.59797,-0.123484,0.0,0.0
760,189.75,32.1519,36.0633,161.923,102.504,104.301,0.00390043,0.0920795,20.9143,7.59797,-0.156364,0.0,0.0
770,192.25,32.047,36.266,163.938,102.534,104.63,0.00382156,0.0927172,20.9138,7.5279,-0.182027,0.0,0.0
780,194.75,32.2687,36.2501,157.913,102.527,104.15,0.00385652,0.0941365,20.9124,7.618,-0.141357,0.0,0.0
790,197.25,32.4143,36.5496,159.475,102.563,104.125,0.00385794,0.0948515,20.9117,7.51789,-0.136031,0.0,0.0
800,199.75,32.3724,36.6712,159.224,102.55,104.226,0.00371242,0.0936324,20.9122,7.49787,-0.145906,0.0,0.0
810,202.25,32.2989,36.5306,162.767,102.572,104.478,0.00344637,0.0925836,20.9131,7.53791,-0.165601,0.0,0.0
820,204.75,32.1083,37.0253,160.414,102.599,104.42,0.0033207,0.091734,20.9146,7.36773,-0.158288,0.0,0.0
830,207.25,32.251,36.0467,158.726,102.616,104.365,0.00332983,0.0904005,20.9167,7.40777,-0.152034,0.0,0.0
840,209.75,32.6449,36.6431,160.203,102.622,103.789,0.00323582,0.089555,20.9176,7.4278,-0.101679,0.0,0.0
850,212.25,32.1575,36.2266,159.406,102.619,104.468,0.00322997,0.0890101,20.9186,7.40777,-0.160749,0.0,0.0
860,214.75,32.0614,36.2566,160.785,102.637,104.162,0.00340757,0.0888264,20.9194,7.43781,-0.13278,0.0,0.0
870,217.25,31.866,35.5553,164.817,102.632,103.823,0.00352151,0.0880704,20.9202,7.43781,-0.103836,0.0,0.0
880,219.75,32.4844,35.9679,159.479,102.64,104.218,0.00329585,0.0875603,20.9209,7.41778,-0.137358,0.0,0.0
890,222.25,31.9632,35.9283,158.102,102.638,104.163,0.00296609,0.0865551,20.9222,7.37774,-0.132723,0.0,0.0
900,224.75,32.5386,35.821,159.592,102.656,104.472,,0.0852797,,7.18754,-0.157788,0.0,0.0
910,227.25,32.0436,35.8957,158.837,102.672,104.508,,,,7.3377,-0.159508,0.0,0.0
920,229.75,32.4383,35.8694,159.25,102.67,104.416,,,,7.35772,-0.151713,0.0,0.0
930,232.25,31.9231,36.107,161.261,102.679,104.221,,,,7.2376,-0.134162,0.0,0.0
939,234.5,31.97,36.1778,160.694,102.704,103.771,,,,7.19755,-0.0930154,0.0,0.0

File: Cotton_Raw_Cone_HF75-Frame+GridScalar_200910_R3.csv
LABORATORY,FSRI
TEST IDENT,RawCotton_75_3
OPERATOR,Dow
MATERIAL,Raw cotton
ORIENTATION,Horizontal
HEAT FLUX,75
SURF AREA,0.01
C FACTOR,0.0367758
SPEC HOLDER DIFF,345.5
SPECIMEN MASS,4.4
SCAN TIME,0.25
O2 DELAY TIME,11
CO DELAY TIME,11
CO2 DELAY TIME,8
FLOW FACTOR,1
SCAN COUNT,718
TIME TO IGN,1
END OF TEST SCAN,238
END OF TEST TIME,59.5
TEST STATUS,1

File: Cotton_Raw_Cone_HF75-Frame+GridScan_200910_R3.csv
Names,Time,Stack TC,Smoke TC,Exh Press,Smoke Comp,Smoke Meas,CO Meter,CO2 Meter,O2 Meter,Sample Mass,Ext Coeff,Start Test,Flame Verif
Chan Gain,,500,500,1,1,1,1,1,1,1,1,1.0,1.0
Offset,,0,0,0.140826,0,0,0,0,0,0,0,0.0,0.0
Gain,,1,1,25.011,13.7435,17.0229,1,1,1,1.00129,1.0222,1.0,1.0
Units,sec,C,C,Pa,%,%,%,%,%,g,/m,,
Baseline,,39.9992,43.8882,166.852,102.488,105.214,0.000465416,0.0526998,20.9554,-898.882,-0.235379,,
8,1.75,36.1363,40.0361,152.225,102.964,105.974,0.00188157,0.140861,20.874,18.0432,-0.258375,0.0,1.0
16,3.75,39.4807,45.2907,160.059,102.963,106.494,0.00204457,0.216091,20.797,17.5726,-0.302375,0.0,1.0
24,5.75,41.9488,49.666,156.331,102.948,106.336,0.00212855,0.257596,20.747,17.5426,-0.290267,0.0,1.0
32,7.75,42.6856,50.9662,153.03,102.939,105.351,0.00215234,0.284555,20.7149,17.3624,-0.207708,0.0,0.0
40,9.75,44.0584,53.5835,156.668,102.933,105.573,0.00215898,0.302525,20.6971,17.1821,-0.227043,0.0,0.0
48,11.75,45.3535,55.336,155.179,102.948,104.969,0.00224485,0.310521,20.6874,16.9719,-0.174266,0.0,0.0
56,13.75,46.6041,56.3832,156.463,102.938,104.249,0.00231833,0.310176,20.6863,16.6915,-0.113542,0.0,0.0
64,15.75,47.2386,57.96,157.893,102.914,105.674,0.00221516,0.306141,20.6889,16.5013,-0.237316,0.0,0.0
72,17.75,48.2658,58.8488,155.686,102.894,106.531,0.00187137,0.302534,20.6917,16.311,-0.311517,0.0,0.0
80,19.75,48.2857,59.6482,156.938,102.868,106.842,0.00170078,0.299498,20.693,16.261,-0.339893,0.0,0.0
88,21.75,48.9261,60.147,162.544,102.857,105.941,0.00172112,0.295569,20.6976,16.0407,-0.264916,0.0,0.0
96,23.75,49.3629,60.7678,161.334,102.836,105.701,0.00187317,0.291477,20.7012,15.8704,-0.246407,0.0,0.0
104,25.75,49.1396,61.0558,162.573,102.822,106.13,0.00199274,0.287504,20.7048,15.7403,-0.283942,0.0,0.0
112,27.75,49.6279,60.7072,157.651,102.78,107.327,0.0019405,0.283619,20.7076,15.54,-0.388166,0.0,0.0
120,29.75,49.4322,61.2124,158.871,102.77,106.541,0.00180992,0.282432,20.7093,15.3798,-0.323093,0.0,0.0
128,31.75,49.7605,60.5822,158.813,102.751,105.682,0.00170757,0.280431,20.7113,15.1896,-0.252167,0.0,0.0
136,33.75,50.0018,61.3553,158.325,102.737,106.273,0.00169789,0.276624,20.7154,15.0594,-0.303439,0.0,0.0
144,35.75,50.1865,61.1589,156.621,102.719,105.867,0.00176386,0.270464,20.7204,14.8992,-0.270671,0.0,0.0
152,37.75,49.8058,60.5217,166.356,102.704,106.815,0.00183217,0.258744,20.7329,14.7991,-0.351925,0.0,0.0
160,39.75,49.1911,60.5964,161.377,102.702,106.05,0.00197255,0.242709,20.7463,14.709,-0.287691,0.0,0.0
168,41.75,49.4976,59.4467,160.837,102.675,106.145,0.00218747,0.225843,20.7651,14.5487,-0.298032,0.0,0.0
176,43.75,48.2164,58.2979,157.92,102.65,106.089,0.00237199,0.208454,20.7818,14.4286,-0.29549,0.0,0.0
184,45.75,47.7978,57.3747,165.068,102.632,107.108,0.00272582,0.194107,20.796,14.4787,-0.382794,0.0,0.0
192,47.75,48.0078,56.4293,165.517,102.611,105.855,0.00337476,0.182011,20.8101,14.4186,-0.279029,0.0,0.0
200,49.75,47.0566,55.0774,163.814,102.599,105.663,0.00402751,0.1679,20.8252,14.3385,-0.263803,0.0,0.0
208,51.75,46.4489,53.9159,160.375,102.567,106.157,0.00470714,0.154491,20.8387,14.3485,-0.30849,0.0,0.0
216,53.75,45.5859,52.7233,160.076,102.52,105.98,0.00549014,0.14315,20.8508,14.2884,-0.297666,0.0,0.0
224,55.75,45.5138,51.9767,163.613,102.491,105.88,0.00626858,0.132956,20.8634,14.1983,-0.291674,0.0,0.0
232,57.75,44.9512,51.0407,164.051,102.475,105.633,0.00705161,0.121546,20.8751,14.1683,-0.272183,0.0,0.0
240,59.75,43.954,49.9194,166.672,102.443,105.554,0.00781467,0.112262,20.884,14.2083,-0.26826,0.0,0.0
248,61.75,42.2935,47.5092,164.127,102.4,105.788,0.00839088,0.106249,20.8903,14.2083,-0.291849,0.0,0.0
256,63.75,41.9875,46.5569,166.341,102.395,105.041,0.00857154,0.102621,20.8943,14.2083,-0.228701,0.0,0.0
264,65.75,41.3522,46.2079,162.612,102.362,105.261,0.0084228,0.100731,20.897,14.0882,-0.250468,0.0,0.0
272,67.75,41.3149,46.0447,166.91,102.347,105.753,0.0082307,0.0996785,20.8992,14.0982,-0.293483,0.0,0.0
280,69.75,40.8876,45.7365,161.867,102.325,105.119,0.00813673,0.0983584,20.9008,14.0982,-0.241568,0.0,0.0
288,71.75,40.2924,45.6657,159.445,102.289,105.171,0.00808623,0.097245,20.9018,14.0982,-0.249203,0.0,0.0
296,73.75,40.5229,45.427,167.397,102.282,106.043,0.00805411,0.0971077,20.9022,14.008,-0.323725,0.0,0.0
304,75.75,40.5611,45.7591,162.012,102.225,105.466,0.00816044,0.0975279,20.9014,14.0882,-0.279879,0.0,0.0
312,77.75,40.3975,45.1221,162.389,102.215,105.273,0.00826417,0.098942,20.9007,13.998,-0.264354,0.0,0.0
320,79.75,40.738,45.8078,171.858,102.188,105.856,0.0081682,0.0989202,20.9011,14.008,-0.316174,0.0,0.0
328,81.75,40.4999,45.0638,170.818,102.176,105.091,0.00791031,0.097427,20.9023,14.008,-0.252194,0.0,0.0
336,83.75,40.7721,45.3824,163.723,102.168,104.905,0.00777075,0.0963321,20.9037,13.978,-0.237056,0.0,0.0
344,85.75,39.5504,44.9808,163.846,102.18,105.272,0.00771248,0.0957402,20.9053,13.978,-0.267283,0.0,0.0
352,87.75,39.7912,45.1481,167.492,102.167,105.151,0.00762656,0.0949988,20.9063,13.8979,-0.258145,0.0,0.0
360,89.75,39.6599,45.5096,166.539,102.158,105.582,0.00758142,0.0942974,20.9068,13.958,-0.295566,0.0,0.0
368,91.75,40.1046,44.9415,164.463,102.143,105.221,0.00758296,0.0940144,20.9069,13.998,-0.266214,0.0,0.0
376,93.75,40.0175,44.993,160.705,102.139,105.094,0.0076369,0.0937046,20.9067,13.9179,-0.2557,0.0,0.0
384,95.75,40.1592,45.0375,162.743,102.136,105.175,0.00771576,0.0938017,20.9065,13.8278,-0.2629,0.0,0.0
392,97.75,40.1138,44.6563,157.94,102.1,105.462,0.00773936,0.094297,20.9065,13.8579,-0.290525,0.0,0.0
400,99.75,40.1163,45.4469,161.786,102.084,104.982,0.0076848,0.0942342,20.9065,13.8078,-0.251027,0.0,0.0
408,101.75,40.2989,45.2482,164.909,102.077,105.891,0.00757105,0.0933239,20.9075,13.7177,-0.328931,0.0,0.0
416,103.75,40.0159,45.1732,161.875,102.039,105.039,0.00742305,0.0924438,20.9081,13.7677,-0.259886,0.0,0.0
424,105.75,40.2234,44.6823,166.925,102.018,106.486,0.00729586,0.0916635,20.908,13.8178,-0.384355,0.0,0.0
432,107.75,39.4717,44.3442,165.445,102.006,105.076,0.00723212,0.0916315,20.9087,13.7878,-0.265873,0.0,0.0
440,109.75,39.6865,44.9018,163.631,101.983,105.136,0.00723003,0.0917241,20.9082,13.8278,-0.272997,0.0,0.0
448,111.75,39.7688,44.298,165.83,101.972,104.941,0.00723816,0.0915337,20.908,13.7277,-0.257282,0.0,0.0
456,113.75,38.9005,44.723,165.533,101.962,105.281,0.00717951,0.0910548,20.9079,13.8178,-0.287231,0.0,0.0
464,115.75,39.5419,45.0672,164.712,101.956,105.285,0.00702065,0.0910992,20.9079,13.6776,-0.288057,0.0,0.0
472,117.75,39.5831,44.4374,168.302,101.942,105.656,0.00690856,0.090388,20.9099,13.7878,-0.320845,0.0,0.0
480,119.75,39.9298,44.8958,159.29,101.947,105.588,0.00685164,0.0898547,20.9115,13.8178,-0.314625,0.0,0.0
488,121.75,40.0094,45.0986,162.328,101.946,105.197,0.00680843,0.0889338,20.9133,13.7077,-0.281462,0.0,0.0
496,123.75,40.1055,45.3517,161.641,101.92,104.637,0.00670447,0.0882357,20.914,13.6075,-0.235933,0.0,0.0
504,125.75,39.8766,45.677,164.717,101.895,104.758,0.00652344,0.0866912,20.9152,13.7377,-0.248513,0.0,0.0
512,127.75,40.0948,45.1181,165.414,101.883,104.746,0.00632857,0.08497,20.9175,13.6876,-0.248524,0.0,0.0
520,129.75,40.1133,45.4146,168.697,101.883,104.99,0.0060273,0.0836108,20.9195,13.7778,-0.269393,0.0,0.0
528,131.75,40.1166,45.2379,162.266,101.852,104.565,0.00571634,0.0825475,20.9207,13.6476,-0.235722,0.0,0.0
536,133.75,40.2457,45.3948,162.473,101.837,105.352,0.00553817,0.0814953,20.9222,13.6976,-0.304244,0.0,0.0
544,135.75,40.6179,45.7312,161.428,101.811,104.917,0.00532921,0.0793833,20.9237,13.6776,-0.269494,0.0,0.0
552,137.75,40.5245,45.7899,165.981,101.782,104.379,0.00494423,0.0775798,20.9279,13.6276,-0.225883,0.0,0.0
560,139.75,40.2171,45.8823,167.165,101.769,104.948,0.00460591,0.0763437,20.93,13.6075,-0.275726,0.0,0.0
568,141.75,39.971,45.5349,165.543,101.763,104.912,0.00434623,0.0745437,20.9315,13.5975,-0.273217,0.0,0.0
576,143.75,40.1352,45.041,165.061,101.759,104.63,0.00406309,0.0719834,20.9338,13.6376,-0.249527,0.0,0.0
584,145.75,40.4988,45.207,166.579,101.731,105.058,0.00383333,0.0699528,20.9364,13.6476,-0.288539,0.0,0.0
592,147.75,40.72,45.1255,167.229,101.722,105.058,0.0035739,0.0681758,20.9371,13.6075,-0.289345,0.0,0.0
600,149.75,40.2279,44.7838,160.45,101.698,104.378,0.0032397,0.066611,20.9388,13.6276,-0.233269,0.0,0.0
608,151.75,40.155,44.8363,163.431,101.672,104.961,0.00279758,0.0648544,20.9403,13.5475,-0.285495,0.0,0.0
616,153.75,40.4708,45.6221,163.559,101.651,105.362,0.00235327,0.0630233,20.9438,13.4974,-0.321504,0.0,0.0
624,155.75,39.578,44.4551,163.819,101.632,104.731,0.00202369,0.0612234,20.9455,13.5475,-0.269335,0.0,0.0
632,157.75,39.6679,44.6429,165.777,101.618,104.936,0.00182758,0.0604217,20.9463,13.5174,-0.288056,0.0,0.0
640,159.75,39.9444,45.0564,160.346,101.58,104.76,0.0016719,0.0597243,20.9478,13.6376,-0.276371,0.0,0.0
648,161.75,39.4571,44.8317,166.216,101.552,105.484,0.00153428,0.058859,20.9486,13.6075,-0.340659,0.0,0.0
656,163.75,40.0512,44.3938,167.599,101.523,104.66,0.00141338,0.058135,20.9494,13.5875,-0.272903,0.0,0.0
664,165.75,40.0631,44.5471,160.854,101.475,104.615,0.00130322,0.0574887,20.9508,13.5675,-0.273217,0.0,0.0
672,167.75,39.7568,44.8966,164.895,101.426,105.456,0.00117828,0.0565788,20.9517,13.6075,-0.34931,0.0,0.0
680,169.75,39.9102,45.1461,168.267,101.421,104.961,,0.055745,,13.6175,-0.307679,0.0,0.0
688,171.75,40.051,45.6372,165.641,101.4,104.396,,,,13.6175,-0.261087,0.0,0.0
696,173.75,39.3509,45.1947,168.471,101.375,103.953,,,,13.5975,-0.225164,0.0,0.0
704,175.75,40.088,45.2802,160.761,101.345,104.429,,,,13.5374,-0.268833,0.0,0.0
712,177.75,39.991,44.7686,168.063,101.359,104.489,,,,13.5675,-0.272744,0.0,0.0
718,179.25,39.8748,44.7794,169.628,101.329,104.246,,,,13.5675,-0.254446,0.0,0.0

File: Raw_Cotton_Cone_HF25-Frame+GridScalar_200908_R2.csv
LABORATORY,FSRI
TEST IDENT,Raw_cotton_25_2
OPERATOR,Dow
MATERIAL,Raw cotton
ORIENTATION,Horizontal
HEAT FLUX,25
SURF AREA,0.01
C FACTOR,0.0387531
SPEC HOLDER DIFF,341.7
SPECIMEN MASS,7.1
SCAN TIME,0.25
O2 DELAY TIME,11
CO DELAY TIME,11
CO2 DELAY TIME,8
FLOW FACTOR,1
SCAN COUNT,1055
TIME TO IGN,40.25
END OF TEST SCAN,575
END OF TEST TIME,143.75
TEST STATUS,1

File: Raw_Cotton_Cone_HF25-Frame+GridScalar_200908_R3.csv
LABORATORY,FSRI
TEST IDENT,Raw_cotton_25_3
OPERATOR,Dow
MATERIAL,Raw cotton
ORIENTATION,Horizontal
HEAT FLUX,25
SURF AREA,0.01
C FACTOR,0.0387531
SPEC HOLDER DIFF,345.3
SPECIMEN MASS,6.5
SCAN TIME,0.25
O2 DELAY TIME,11
CO DELAY TIME,11
CO2 DELAY TIME,8
FLOW FACTOR,1
SCAN COUNT,1017
TIME TO IGN,33.25
END OF TEST SCAN,537
END OF TEST TIME,134.25
TEST STATUS,1