Folder: fsri_materials_database/01_Data/Cotton_Raw/Cone (part 5)

File: Raw_Cotton_Cone_HF35-Frame+GridScan_200909_R2.csv
Names,Time,Stack TC,Smoke TC,Exh Press,Smoke Comp,Smoke Meas,CO Meter,CO2 Meter,O2 Meter,Sample Mass,Ext Coeff,Start Test,Flame Verif
Chan Gain,,500,500,1,1,1,1,1,1,1,1,1.0,1.0
Offset,,0,0,0.136754,0,0,0,0,0,0,0,0.0,0.0
Gain,,1,1,25.011,13.7501,16.9893,1,1,1,1.00105,1.02582,1.0,1.0
Units,sec,C,C,Pa,%,%,%,%,%,g,/m,,
Baseline,,18.5859,20.8931,170.555,101.886,102.234,0.000167133,0.0530668,20.9531,-900.076,-0.030724,,
10,2.25,17.3109,19.6658,170.98,102.296,102.687,4.34236e-05,0.0574693,20.951,13.1438,-0.0343185,0.0,0.0
20,4.75,17.591,20.265,170.067,102.14,102.035,0.000352986,0.0615498,20.9461,13.1138,0.00923221,0.0,0.0
30,7.25,17.8623,20.3685,171.631,102.227,100.349,0.00129391,0.0651767,20.9433,13.0637,0.166854,0.0,0.0
40,9.75,18.1822,21.1031,171.202,102.361,98.9564,0.00286641,0.0676489,20.9419,12.9836,0.304343,0.0,0.0
50,12.25,18.3891,21.2518,166.672,102.486,99.478,0.00439751,0.0683917,20.9414,12.9136,0.268025,0.0,0.0
60,14.75,18.5849,21.2297,171.344,102.625,99.3904,0.00559842,0.0687842,20.9398,12.8535,0.288142,0.0,0.0
70,17.25,18.3701,21.6633,168.307,102.742,98.5256,0.00583566,0.0742617,20.9334,12.7634,0.377041,0.0,0.0
80,19.75,19.2424,22.5607,167.029,102.825,103.523,0.00484811,0.110596,20.8931,12.5932,-0.0609179,0.0,1.0
90,22.25,20.5002,24.5113,165.456,102.847,103.839,0.00382224,0.143573,20.8608,12.4731,-0.0863755,0.0,1.0
100,24.75,19.974,23.7438,166.93,102.849,103.513,0.00309658,0.161952,20.8431,12.3129,-0.0579312,0.0,0.0
110,27.25,20.868,25.0633,160.54,102.795,104.351,0.00268693,0.178108,20.8262,12.1728,-0.13521,0.0,0.0
120,29.75,21.4104,27.0298,164.186,102.663,103.988,0.00260807,0.188551,20.8154,12.0126,-0.115401,0.0,0.0
130,32.25,22.264,28.2323,162.942,102.494,103.689,0.0026973,0.19274,20.8125,11.8725,-0.104311,0.0,0.0
140,34.75,22.1845,28.2937,163.38,102.298,102.929,0.00275669,0.194164,20.8115,11.7223,-0.0552892,0.0,0.0
150,37.25,22.9731,29.1144,164.084,102.057,103.145,0.00291985,0.194466,20.8112,11.5822,-0.0954565,0.0,0.0
160,39.75,23.2905,29.745,163.287,101.809,102.84,0.00316357,0.193079,20.8123,11.462,-0.0906686,0.0,0.0
170,42.25,23.934,30.3938,162.174,101.567,102.329,0.00334614,0.190791,20.8145,11.3219,-0.0672969,0.0,0.0
180,44.75,24.164,30.1899,157.135,101.301,101.964,0.00355588,0.187792,20.8181,11.1817,-0.0587431,0.0,0.0
190,47.25,23.9432,29.9826,164.554,101.089,102.177,0.00372243,0.185208,20.8204,11.0416,-0.0962892,0.0,0.0
200,49.75,24.3011,29.8005,163.532,100.902,102.195,0.00389941,0.183637,20.8229,10.9014,-0.11457,0.0,0.0
210,52.25,23.8736,30.2933,165.873,100.77,101.155,0.00420413,0.180153,20.8253,10.7112,-0.034318,0.0,0.0
220,54.75,23.7581,29.6976,172.317,100.677,101.504,0.0042725,0.176552,20.829,10.5611,-0.0735809,0.0,0.0
230,57.25,23.7087,29.7781,165.02,100.654,101.895,0.00422553,0.175148,20.8319,10.491,-0.110316,0.0,0.0
240,59.75,23.7547,29.343,169.519,100.681,101.957,0.00433481,0.172006,20.8343,10.4009,-0.113333,0.0,0.0
250,62.25,23.1474,28.8699,166.918,100.771,101.949,0.00474071,0.170055,20.8357,10.1607,-0.104496,0.0,0.0
260,64.75,23.7778,29.2935,164.997,100.877,101.581,0.00523175,0.16848,20.8372,10.1006,-0.0626002,0.0,0.0
270,67.25,23.927,28.822,166.04,101.038,102.393,0.00568495,0.167932,20.8378,10.0606,-0.119867,0.0,0.0
280,69.75,24.3043,29.1237,160.471,101.218,102.46,0.00599777,0.165847,20.8386,9.98047,-0.109726,0.0,0.0
290,72.25,24.181,29.2468,166.596,101.401,103.119,0.00608264,0.162781,20.8411,9.8103,-0.15121,0.0,0.0
300,74.75,23.5257,28.6052,158.144,101.601,102.615,0.00599043,0.160845,20.8435,9.67015,-0.0893809,0.0,0.0
310,77.25,23.499,28.0655,168.347,101.749,102.894,0.00600752,0.158732,20.8453,9.61009,-0.10069,0.0,0.0
320,79.75,23.3198,28.6699,167.574,101.944,102.837,0.00612005,0.155714,20.8474,9.54001,-0.0784701,0.0,0.0
330,82.25,24.0693,28.4841,169.743,102.088,103.355,0.00605779,0.151504,20.8522,9.4299,-0.110974,0.0,0.0
340,84.75,23.304,27.8804,164.901,102.21,102.946,0.00608196,0.147748,20.8557,9.34981,-0.0645312,0.0,0.0
350,87.25,23.8444,27.9293,166.492,102.254,103.829,0.00614697,0.145429,20.8578,9.16962,-0.13754,0.0,0.0
360,89.75,23.3855,27.6489,166.979,102.294,103.153,0.00621736,0.142688,20.8599,9.11957,-0.0752553,0.0,0.0
370,92.25,23.2932,27.8002,161.551,102.267,103.326,0.0062229,0.140012,20.8631,9.05951,-0.0926295,0.0,0.0
380,94.75,23.4517,27.378,162.026,102.236,102.925,0.00636911,0.136347,20.8662,9.00946,-0.0604282,0.0,0.0
390,97.25,23.0319,26.9853,166.121,102.207,102.943,0.00664015,0.133248,20.8694,8.91936,-0.0645631,0.0,0.0
400,99.75,23.1536,27.5477,165.686,102.17,102.721,0.00686021,0.129824,20.8726,8.96941,-0.0483887,0.0,0.0
410,102.25,22.8331,26.5891,167.016,102.107,102.802,0.00697982,0.126724,20.8767,8.74918,-0.0610249,0.0,0.0
420,104.75,22.8021,26.5432,169.092,102.075,102.604,0.00683102,0.123851,20.8806,8.71915,-0.0465279,0.0,0.0
430,107.25,22.3773,26.442,168.971,102.011,102.616,0.00675603,0.121099,20.8835,8.74918,-0.0532275,0.0,0.0
440,109.75,22.4802,25.7459,167.898,101.947,102.148,0.00696498,0.114785,20.8883,8.68912,-0.0176695,0.0,0.0
450,112.25,22.7416,26.2153,165.995,101.942,102.003,0.00719028,0.109481,20.8946,8.64908,-0.00540745,0.0,0.0
460,114.75,22.3169,25.5558,169.129,102.193,102.616,0.0073191,0.107056,20.8976,8.56899,-0.0371396,0.0,0.0
470,117.25,21.7482,25.2402,171.544,102.404,102.142,0.00757952,0.104917,20.899,8.55898,0.0229948,0.0,0.0
480,119.75,20.3268,23.3551,167.044,102.547,102.264,0.00783717,0.102954,20.9006,8.51894,0.0248318,0.0,0.0
490,122.25,19.9382,23.0235,166.612,102.685,102.916,0.00783165,0.101855,20.9014,8.3888,-0.0202258,0.0,0.0
500,124.75,20.03,22.8546,167.395,102.74,104.333,0.00765662,0.100699,20.904,8.36878,-0.138422,0.0,0.0
510,127.25,19.7968,22.6054,168.156,102.767,103.328,0.00741426,0.100436,20.9045,8.3888,-0.0489441,0.0,0.0
520,129.75,19.9229,22.8099,169.615,102.76,103.19,0.0073656,0.100543,20.904,8.3888,-0.03755,0.0,0.0
530,132.25,19.869,22.5213,164.644,102.72,103.494,0.00744043,0.101515,20.9033,8.24866,-0.0674969,0.0,0.0
540,134.75,19.6954,22.8148,164.694,102.638,102.915,0.00734042,0.102056,20.9018,8.20861,-0.0242917,0.0,0.0
550,137.25,19.5625,22.4141,162.847,102.532,102.798,0.00712325,0.102019,20.901,8.23865,-0.0233613,0.0,0.0
560,139.75,19.8181,22.3917,167.816,102.387,102.79,0.00696044,0.100907,20.9007,8.1986,-0.0352667,0.0,0.0
570,142.25,19.6584,22.9794,168.281,102.225,102.638,0.00678089,0.101404,20.9023,8.07848,-0.0362414,0.0,0.0
580,144.75,19.689,22.8691,168.265,102.085,102.819,0.00657071,0.102149,20.9018,8.11852,-0.0643994,0.0,0.0
590,147.25,20.2607,23.3272,166.424,102.16,102.918,0.00625783,0.102604,20.9025,8.10851,-0.0665631,0.0,0.0
600,149.75,20.0126,22.5373,169.861,102.19,103.089,0.00597463,0.102123,20.9026,8.05846,-0.0788126,0.0,0.0
610,152.25,20.1161,23.0527,164.867,102.241,103.255,0.00580883,0.101338,20.9032,7.92832,-0.0888501,0.0,0.0
620,154.75,19.7718,22.9229,167.404,102.318,103.359,0.00576621,0.102017,20.9043,7.94834,-0.0910977,0.0,0.0
630,157.25,20.4645,23.164,170.383,102.382,103.147,0.00572787,0.102204,20.9048,7.93833,-0.0669279,0.0,0.0
640,159.75,20.1961,23.063,164.486,102.481,103.469,0.00568033,0.101419,20.9049,7.92832,-0.0863095,0.0,0.0
650,162.25,20.1974,23.2945,164.868,102.54,103.643,0.00559481,0.101238,20.905,7.88828,-0.0963358,0.0,0.0
660,164.75,20.0726,23.3942,169.192,102.599,103.178,0.00549018,0.101318,20.905,7.9083,-0.0506764,0.0,0.0
670,167.25,20.0514,23.2459,169.267,102.641,103.67,0.0055513,0.100756,20.9052,7.89829,-0.0897612,0.0,0.0
680,169.75,20.0507,23.0769,162.215,102.708,103.813,0.00554761,0.100242,20.9066,7.83823,-0.0962523,0.0,0.0
690,172.25,20.1641,23.1962,168.119,102.742,103.518,0.00538505,0.100286,20.9062,7.82822,-0.0677125,0.0,0.0
700,174.75,20.4563,23.3968,167.419,102.781,103.362,0.00521234,0.0997397,20.9075,7.79818,-0.0507195,0.0,0.0
710,177.25,20.758,23.6886,168.868,102.792,103.595,0.00492735,0.0980496,20.9097,7.78817,-0.0699997,0.0,0.0
720,179.75,20.4518,23.4681,164.792,102.821,103.708,0.00456602,0.095642,20.9123,7.75814,-0.0772853,0.0,0.0
730,182.25,20.5804,23.51,165.61,102.846,103.563,0.00423235,0.0937992,20.9142,7.72811,-0.0624776,0.0,0.0
740,184.75,20.353,23.4877,170.029,102.844,103.77,0.00401721,0.0924577,20.9161,7.72811,-0.0806178,0.0,0.0
750,187.25,20.7048,23.3372,166.743,102.824,103.799,0.00397778,0.0908557,20.9178,7.70809,-0.0849428,0.0,0.0
760,189.75,20.0368,22.5723,170.559,102.809,103.945,0.00397768,0.0899731,20.9188,7.69808,-0.0988863,0.0,0.0
770,192.25,20.3408,23.1878,171.775,102.799,103.59,0.00397141,0.0891597,20.9192,7.64803,-0.0689328,0.0,0.0
780,194.75,19.8933,23.4293,167.135,102.763,103.704,0.00382673,0.0877147,20.9208,7.618,-0.0819502,0.0,0.0
790,197.25,20.2634,23.2121,167.531,102.756,104.266,0.00370039,0.0864959,20.9226,7.57795,-0.131247,0.0,0.0
800,199.75,20.597,22.9919,166.35,102.722,103.481,0.00359078,0.0850778,20.9246,7.60798,-0.0662308,0.0,0.0
810,202.25,20.6509,23.1412,166.594,102.686,103.903,0.00322171,0.0833137,20.9269,7.60798,-0.106017,0.0,0.0
820,204.75,20.2688,23.0131,166.546,102.628,103.999,0.00292055,0.081618,20.9277,7.60798,-0.119396,0.0,0.0
830,207.25,20.122,23.3272,171.457,102.614,103.671,0.00284565,0.0809699,20.9292,7.57795,-0.0922871,0.0,0.0
840,209.75,20.1959,23.0661,167.83,102.559,103.324,0.00289612,0.0806684,20.93,7.53791,-0.0669068,0.0,0.0
850,212.25,20.4821,23.0198,171.777,102.542,103.461,0.0028963,0.0798844,20.9303,7.43781,-0.0802925,0.0,0.0
860,214.75,20.1676,23.3286,168.085,102.484,103.975,0.00279398,0.0787098,20.9312,7.47785,-0.129915,0.0,0.0
870,217.25,20.1307,22.9599,166.465,102.449,103.267,0.0026701,0.076996,20.9335,7.48786,-0.0715447,0.0,0.0
880,219.75,20.8289,23.0827,166.805,102.391,103.173,0.0025514,0.0759913,20.935,7.44782,-0.0684593,0.0,0.0
890,222.25,20.9143,23.5027,167.14,102.348,103.328,0.00244494,0.0747887,20.9366,7.40777,-0.0857615,0.0,0.0
900,224.75,20.4714,23.9074,169.232,102.312,103.329,0.00233535,0.0735377,20.939,7.51789,-0.0889963,0.0,0.0
910,227.25,21.1533,23.4928,168.503,102.264,102.948,,0.072718,,7.46784,-0.0599568,0.0,0.0
920,229.75,20.7411,23.5373,158.893,102.234,103.112,,,,7.45783,-0.0769613,0.0,0.0
930,232.25,20.5414,23.9485,163.571,102.177,102.969,,,,7.44782,-0.0695349,0.0,0.0
940,234.75,20.5541,23.6552,166.747,102.113,103.131,,,,7.38775,-0.0892422,0.0,0.0
950,237.25,20.7111,23.3908,172.673,102.051,102.867,,,,7.35772,-0.0716155,0.0,0.0
951,237.5,20.7661,23.5153,168.623,102.052,103.046,,,,7.36773,-0.0872117,0.0,0.0

File: Raw_Cotton_Cone_HF50-Frame+GridScalar_200909_R3.csv
LABORATORY,FSRI
TEST IDENT,RawCotton_50_3
OPERATOR,Dow
MATERIAL,Raw cotton
ORIENTATION,Horizontal
HEAT FLUX,35
SURF AREA,0.01
C FACTOR,0.0376049
SPEC HOLDER DIFF,341.4
SPECIMEN MASS,5.2
SCAN TIME,0.25
O2 DELAY TIME,11
CO DELAY TIME,11
CO2 DELAY TIME,8
FLOW FACTOR,1
SCAN COUNT,847
TIME TO IGN,3.5
END OF TEST SCAN,367
END OF TEST TIME,91.75
TEST STATUS,1

File: Raw_Cotton_Cone_HF50-Frame+GridScan_200909_R3.csv
Names,Time,Stack TC,Smoke TC,Exh Press,Smoke Comp,Smoke Meas,CO Meter,CO2 Meter,O2 Meter,Sample Mass,Ext Coeff,Start Test,Flame Verif
Chan Gain,,500,500,1,1,1,1,1,1,1,1,1.0,1.0
Offset,,0,0,0.136754,0,0,0,0,0,0,0,0.0,0.0
Gain,,1,1,25.011,13.7501,16.9893,1,1,1,1.00105,1.02582,1.0,1.0
Units,sec,C,C,Pa,%,%,%,%,%,g,/m,,
Baseline,,31.8444,34.8672,163.323,102.091,103.158,-0.000415174,0.0530955,20.9589,-900.838,-0.0935756,,
9,2,29.3802,32.2161,161.494,102.672,100.359,0.000738048,0.0691341,20.9428,12.7033,0.205,0.0,0.0
18,4.25,30.7391,34.0098,153.986,102.69,104.652,0.00137737,0.132937,20.8799,12.7033,-0.1703,0.0,1.0
27,6.5,32.4846,37.5027,156.635,102.68,104.725,0.00164816,0.177815,20.8304,12.4531,-0.177458,0.0,1.0
36,8.75,32.2938,38.5452,155.155,102.683,104.481,0.00172052,0.196663,20.809,12.343,-0.156156,0.0,0.0
45,11,33.3691,40.0676,157.928,102.684,105.007,0.0016644,0.209333,20.7943,12.0727,-0.201292,0.0,0.0
54,13.25,34.8613,42.0423,152.959,102.689,104.012,0.00146235,0.222994,20.7825,11.9626,-0.115221,0.0,0.0
63,15.5,35.6386,43.5555,156.97,102.673,103.788,0.00131937,0.233369,20.7723,11.8324,-0.0971837,0.0,0.0
72,17.75,36.4282,44.4512,153.814,102.673,104.522,0.00127363,0.238683,20.766,11.6522,-0.160647,0.0,0.0
81,20,36.8135,45.1019,156.773,102.685,104.393,0.00130295,0.237078,20.7668,11.452,-0.148496,0.0,0.0
90,22.25,37.2007,45.0978,156.232,102.685,104.249,0.00132802,0.234627,20.7691,11.3119,-0.136064,0.0,0.0
99,24.5,37.724,45.5965,158.731,102.653,104.288,0.00127444,0.231029,20.772,11.1117,-0.142178,0.0,0.0
108,26.75,37.8842,45.4298,158.368,102.668,104.703,0.00115123,0.225083,20.7788,11.0015,-0.176572,0.0,0.0
117,29,37.8438,45.1263,159.162,102.664,104.171,0.000950881,0.22052,20.7845,10.8113,-0.131068,0.0,0.0
126,31.25,37.8642,45.6121,155.084,102.658,104.122,0.000719572,0.217359,20.7871,10.6912,-0.127455,0.0,0.0
135,33.5,37.3609,45.4741,153.433,102.661,105.005,0.000725846,0.216289,20.7885,10.6111,-0.203145,0.0,0.0
144,35.75,38.6458,45.9915,154.084,102.665,104.677,0.000892618,0.215677,20.7893,10.441,-0.174646,0.0,0.0
153,38,37.6373,45.5852,157.944,102.679,104.734,0.0011124,0.214298,20.7912,10.2808,-0.178326,0.0,0.0
162,40.25,37.6893,45.5696,159.854,102.663,104.834,0.00120792,0.214171,20.7918,10.0005,-0.188317,0.0,0.0
171,42.5,38.0182,45.2597,156.794,102.668,105.136,0.00131959,0.215604,20.79,10.0405,-0.213738,0.0,0.0
180,44.75,38.4222,45.5259,157.253,102.685,104.771,0.00153965,0.216654,20.7873,9.93042,-0.181017,0.0,0.0
189,47,38.3911,46.0165,155.626,102.676,106.203,0.00180676,0.217285,20.7855,9.71019,-0.303948,0.0,0.0
198,49.25,38.8165,46.2893,154.854,102.685,104.744,0.00200736,0.218805,20.7842,9.59007,-0.17862,0.0,0.0
207,51.5,38.6598,46.7179,155.959,102.691,104.415,0.0021665,0.219081,20.7837,9.55002,-0.149822,0.0,0.0
216,53.75,38.6847,46.6373,152.127,102.698,104.395,0.00235017,0.220124,20.7835,9.44992,-0.147536,0.0,0.0
225,56,38.8554,46.8662,160.658,102.682,104.794,0.00254092,0.219153,20.784,9.24971,-0.183234,0.0,0.0
234,58.25,39.1828,46.9121,157.884,102.69,104.951,0.00260984,0.21713,20.7849,9.13959,-0.19597,0.0,0.0
243,60.5,39.0958,46.3601,157.819,102.69,104.678,0.00254973,0.215301,20.7858,9.06952,-0.172565,0.0,0.0
252,62.75,38.8438,46.4148,158.394,102.673,104.723,0.002616,0.21014,20.7907,8.90935,-0.177913,0.0,0.0
261,65,39.4928,46.768,156.956,102.677,105.341,0.00280999,0.202416,20.7987,8.80925,-0.230566,0.0,0.0
270,67.25,38.9103,45.7519,155.697,102.682,104.419,0.00305869,0.19471,20.8064,8.68912,-0.150952,0.0,0.0
279,69.5,38.4481,45.4105,159.621,102.684,104.568,0.00333651,0.187767,20.8136,8.54897,-0.163619,0.0,0.0
288,71.75,38.4197,44.949,159.555,102.674,103.969,0.00358486,0.179741,20.8192,8.54897,-0.112776,0.0,0.0
297,74,38.0136,44.4948,162.115,102.667,103.992,0.00404692,0.171307,20.8292,8.49892,-0.115347,0.0,0.0
306,76.25,38.0683,43.5434,162.68,102.669,104.554,0.0045057,0.160997,20.8382,8.51894,-0.163664,0.0,0.0
315,78.5,37.0322,42.465,160.79,102.664,104.19,0.00512913,0.149292,20.8503,8.41884,-0.1328,0.0,0.0
324,80.75,36.7934,42.1602,161.107,102.637,104.891,0.00578544,0.137339,20.8614,8.41884,-0.195454,0.0,0.0
333,83,36.6035,42.119,163.829,102.648,104.576,0.0064405,0.127493,20.8705,8.3888,-0.167495,0.0,0.0
342,85.25,35.5424,41.047,161.704,102.655,104.317,0.00667255,0.117124,20.8814,8.36878,-0.144544,0.0,0.0
351,87.5,35.51,40.2136,162.382,102.632,104.144,0.00655394,0.109,20.8916,8.31873,-0.131654,0.0,0.0
360,89.75,35.1391,39.6784,162.446,102.619,103.939,0.00629181,0.104476,20.8966,8.30872,-0.115037,0.0,0.0
369,92,35.2569,39.3034,160.554,102.622,104.078,0.00593016,0.103149,20.8985,8.27869,-0.126727,0.0,0.0
378,94.25,32.9061,36.893,157.19,102.617,104.052,0.0054742,0.10226,20.8995,8.2887,-0.124927,0.0,0.0
387,96.5,32.7506,36.7364,162.033,102.612,104.091,0.00501664,0.101537,20.901,8.2887,-0.128731,0.0,0.0
396,98.75,32.8878,36.695,163.19,102.618,103.925,0.004785,0.100056,20.9016,8.20861,-0.113862,0.0,0.0
405,101,32.6492,36.4152,159.74,102.628,104.166,0.00478947,0.0996493,20.9032,8.20861,-0.133785,0.0,0.0
414,103.25,32.2724,36.5074,160.136,102.623,103.7,0.0048832,0.100403,20.9039,8.21863,-0.0939524,0.0,0.0
423,105.5,32.4745,36.9425,160.278,102.622,103.507,0.00491388,0.0999903,20.9042,8.17858,-0.0771928,0.0,0.0
432,107.75,32.23,36.6433,157.765,102.618,104.09,0.00469211,0.0994416,20.9047,8.13854,-0.128126,0.0,0.0
441,110,32.1676,36.2157,161.04,102.62,104.693,0.00438576,0.0993732,20.9048,8.13854,-0.179918,0.0,0.0
450,112.25,32.414,36.8164,159.641,102.62,104.155,0.00424569,0.0986134,20.9061,8.13854,-0.133625,0.0,0.0
459,114.5,32.635,36.9048,160.729,102.616,104.184,0.00422545,0.0974411,20.9081,8.02843,-0.136464,0.0,0.0
468,116.75,32.1637,36.6676,161.132,102.644,103.642,0.00422794,0.0962121,20.9104,8.07848,-0.087118,0.0,0.0
477,119,32.1376,35.7903,162.093,102.626,103.909,0.00424008,0.0959879,20.9102,8.06847,-0.111808,0.0,0.0
486,121.25,32.2277,36.4783,162.478,102.637,103.849,0.00414482,0.096462,20.9098,8.05846,-0.105686,0.0,0.0
495,123.5,32.2291,36.6008,162.306,102.635,103.925,0.00390183,0.0958906,20.9107,7.93833,-0.112427,0.0,0.0
504,125.75,32.5482,35.9778,165.674,102.64,103.372,0.0037258,0.0946772,20.9114,7.95835,-0.0639656,0.0,0.0
513,128,32.0991,35.8451,155.851,102.652,104.327,0.00364057,0.0943165,20.9117,8.0985,-0.145688,0.0,0.0
522,130.25,32.3893,36.0233,162.548,102.619,103.78,0.00354608,0.0932532,20.9109,7.94834,-0.101254,0.0,0.0
531,132.5,32.4093,35.9458,161.91,102.643,104.533,0.00353241,0.0920323,20.9111,7.89829,-0.16416,0.0,0.0
540,134.75,31.8842,35.5273,159.299,102.638,103.946,0.00353054,0.093018,20.9105,7.93833,-0.113936,0.0,0.0
549,137,32.4447,36.1384,159.83,102.642,104.338,0.00352771,0.0929318,20.9095,8.0084,-0.147465,0.0,0.0
558,139.25,32.8892,36.1437,161.212,102.646,104.306,0.00355425,0.0922011,20.9117,8.0084,-0.144287,0.0,0.0
567,141.5,32.2987,36.0814,159.753,102.661,103.954,0.00363409,0.0913835,20.9128,8.01842,-0.11266,0.0,0.0
576,143.75,32.7644,36.0913,159.68,102.659,103.997,0.00361871,0.0907599,20.9132,7.89829,-0.116568,0.0,0.0
585,146,32.4692,36.3472,161.265,102.66,103.787,0.0033397,0.0893266,20.9143,7.88828,-0.0982703,0.0,0.0
594,148.25,32.5531,36.5822,159.72,102.664,104.207,0.00294105,0.0884358,20.9152,7.83823,-0.13424,0.0,0.0
603,150.5,32.3599,36.0585,163.71,102.677,103.72,0.00278144,0.0875449,20.9156,7.88828,-0.0908799,0.0,0.0
612,152.75,32.1292,35.7267,158.867,102.671,104.062,0.00300119,0.0875315,20.9174,7.85825,-0.121152,0.0,0.0
621,155,32.196,36.2566,165.898,102.672,103.84,0.00316001,0.0865205,20.9196,7.83823,-0.101752,0.0,0.0
630,157.25,32.3591,35.9678,165.96,102.672,104.822,0.00316157,0.0849043,20.9213,7.82822,-0.186528,0.0,0.0
639,159.5,32.0627,36.1237,164.818,102.679,103.498,0.00301482,0.0838291,20.922,7.8182,-0.0714977,0.0,0.0
648,161.75,32.3209,36.1937,158.654,102.67,104.194,0.00285125,0.083177,20.9223,7.83823,-0.132605,0.0,0.0
657,164,32.0797,36.4374,168.617,102.681,103.803,0.00270248,0.0827229,20.9232,7.80819,-0.0977438,0.0,0.0
666,166.25,31.9518,36.3985,163.763,102.674,104.059,0.00259283,0.0815589,20.9251,7.79818,-0.120589,0.0,0.0
675,168.5,32.0757,36.2867,157.729,102.676,104.147,0.00251528,0.0799613,20.9263,7.8182,-0.127978,0.0,0.0
684,170.75,32.4063,36.2832,166.72,102.675,103.567,0.0024749,0.0789031,20.9272,7.73812,-0.0778301,0.0,0.0
693,173,31.861,35.326,158.225,102.668,104.861,0.00238444,0.0776712,20.9276,7.67806,-0.190197,0.0,0.0
702,175.25,31.6963,35.6328,162.518,102.673,104.026,0.00215111,0.0768114,20.9291,7.77816,-0.117829,0.0,0.0
711,177.5,32.1093,36.0022,159.992,102.667,104.283,0.00206088,0.0764388,20.9306,7.72811,-0.140517,0.0,0.0
720,179.75,32.0601,35.9698,166.503,102.684,103.621,0.00213812,0.0755453,20.9311,7.77816,-0.0817332,0.0,0.0
729,182,32.1435,36.6402,158.973,102.682,104.116,0.00214802,0.0744229,20.9334,7.72811,-0.124857,0.0,0.0
738,184.25,32.467,36.236,160.717,102.685,104.506,0.00206763,0.0729569,20.9349,7.75814,-0.158197,0.0,0.0
747,186.5,32.4068,36.1355,161.755,102.677,104.253,0.00190056,0.0712663,20.9368,7.76815,-0.137121,0.0,0.0
756,188.75,32.4563,36.4471,164.008,102.691,103.737,0.00169608,0.0696751,20.9391,7.73812,-0.0911958,0.0,0.0
765,191,32.445,36.1572,157.927,102.695,104.238,0.00143959,0.0680752,20.9405,7.69808,-0.134197,0.0,0.0
774,193.25,32.477,36.6148,161.148,102.674,104.04,0.00130461,0.0668949,20.942,7.63802,-0.118848,0.0,0.0
783,195.5,32.1662,36.3367,156.18,102.69,103.934,0.00121295,0.0657799,20.9426,7.68807,-0.108417,0.0,0.0
792,197.75,31.9741,36.3087,160.617,102.677,103.613,0.00106524,0.0647148,20.9433,7.67806,-0.0816092,0.0,0.0
801,200,31.1838,35.5232,163.654,102.679,103.917,0.00107075,0.0636105,20.9441,7.63802,-0.107891,0.0,0.0
810,202.25,31.5095,35.9975,166.171,102.678,104.357,,0.0629762,,7.618,-0.145919,0.0,0.0
819,204.5,31.4825,35.6901,160.689,102.669,103.445,,,,7.73812,-0.0677892,0.0,0.0
828,206.75,32.0072,35.6129,161.435,102.671,103.263,,,,7.63802,-0.0517158,0.0,0.0
837,209,32.1632,35.3979,160.187,102.663,103.72,,,,7.7181,-0.0922123,0.0,0.0
846,211.25,32.1573,35.911,163.038,102.664,103.917,,,,7.64803,-0.109133,0.0,0.0
847,211.5,32.1272,36.1403,160.782,102.669,103.718,,,,7.62801,-0.0914445,0.0,0.0

File: Raw_Cotton_Cone_HF75-Frame+GridScalar_200910_R1.csv
LABORATORY,FSRI
TEST IDENT,RawCotton_75_1
OPERATOR,Dow
MATERIAL,Raw cotton
ORIENTATION,Horizontal
HEAT FLUX,75
SURF AREA,0.01
C FACTOR,0.0367758
SPEC HOLDER DIFF,340.54
SPECIMEN MASS,7.36
SCAN TIME,0.25
O2 DELAY TIME,11
CO DELAY TIME,11
CO2 DELAY TIME,8
FLOW FACTOR,1
SCAN COUNT,933
TIME TO IGN,1.25
END OF TEST SCAN,453
END OF TEST TIME,113.25
TEST STATUS,1

File: Raw_Cotton_Cone_HF75-Frame+GridScalar_200910_R2.csv
LABORATORY,FSRI
TEST IDENT,RawCotton_75_2
OPERATOR,Dow
MATERIAL,Raw cotton
ORIENTATION,Horizontal
HEAT FLUX,75
SURF AREA,0.01
C FACTOR,0.0367758
SPEC HOLDER DIFF,341.43
SPECIMEN MASS,6.47
SCAN TIME,0.25
O2 DELAY TIME,11
CO DELAY TIME,11
CO2 DELAY TIME,8
FLOW FACTOR,1
SCAN COUNT,876
TIME TO IGN,1
END OF TEST SCAN,396
END OF TEST TIME,99
TEST STATUS,1