Folder: fsri_materials_database/01_Data/Cotton_Raw/Cone (part 6)

File: Raw_Cotton_Cone_HF75-Frame+GridScan_200910_R1.csv
Names,Time,Stack TC,Smoke TC,Exh Press,Smoke Comp,Smoke Meas,CO Meter,CO2 Meter,O2 Meter,Sample Mass,Ext Coeff,Start Test,Flame Verif
Chan Gain,,500,500,1,1,1,1,1,1,1,1,1.0,1.0
Offset,,0,0,0.140826,0,0,0,0,0,0,0,0.0,0.0
Gain,,1,1,25.011,13.7435,17.0229,1,1,1,1.00129,1.0222,1.0,1.0
Units,sec,C,C,Pa,%,%,%,%,%,g,/m,,
Baseline,,34.8455,39.7336,168.723,102.441,105.114,0.000435624,0.0526617,20.9481,-898.4,-0.23086,,
10,2.25,33.1573,39.0348,153.138,102.358,105.889,0.00199388,0.158562,20.8728,16.5313,-0.304061,0.0,1.0
20,4.75,37.8167,45.3929,160.567,102.363,105.239,0.00217016,0.241672,20.7774,16.1808,-0.248535,0.0,1.0
30,7.25,38.8642,47.7989,162.344,102.36,105.226,0.00221574,0.282388,20.724,15.9005,-0.24765,0.0,0.0
40,9.75,41.0881,51.737,157.446,102.369,104.325,0.00258494,0.302038,20.7028,15.6101,-0.169661,0.0,0.0
50,12.25,42.919,53.5864,153.961,102.369,104.037,0.00292501,0.30039,20.6983,15.4199,-0.144935,0.0,0.0
60,14.75,43.3123,54.9268,157.288,102.391,103.418,0.00287106,0.28973,20.7067,15.1495,-0.0894589,0.0,0.0
70,17.25,43.5711,55.1196,158.47,102.39,104.227,0.00255295,0.280556,20.715,14.8792,-0.159426,0.0,0.0
80,19.75,44.2169,55.1567,159.298,102.411,104.498,0.00241257,0.272367,20.7236,14.749,-0.180881,0.0,0.0
90,22.25,44.0629,55.0826,160.245,102.417,104.81,0.00246459,0.267026,20.7292,14.5287,-0.207088,0.0,0.0
100,24.75,44.6157,55.1543,162.321,102.443,105.053,0.00237224,0.264291,20.7312,14.2684,-0.225543,0.0,0.0
110,27.25,43.9517,54.7597,164.604,102.437,105.819,0.00216293,0.260561,20.7348,14.0882,-0.291215,0.0,0.0
120,29.75,44.4798,54.7169,154.764,102.437,106.778,0.00195624,0.25633,20.7386,13.948,-0.372191,0.0,0.0
130,32.25,44.3052,55.2039,163.031,102.441,105.616,0.00180838,0.250369,20.7429,13.7377,-0.273701,0.0,0.0
140,34.75,44.3956,54.9093,159.277,102.443,105.728,0.00175005,0.245185,20.7468,13.5775,-0.282958,0.0,0.0
150,37.25,44.5664,55.6505,158.94,102.455,106.082,0.00172229,0.243888,20.7492,13.3973,-0.31192,0.0,0.0
160,39.75,45.086,55.1918,167.588,102.443,105.758,0.00172876,0.241716,20.7518,13.217,-0.285557,0.0,0.0
170,42.25,45.0903,55.762,164.066,102.464,105.635,0.00168625,0.238351,20.7543,13.0268,-0.27335,0.0,0.0
180,44.75,45.2991,55.0477,160.738,102.452,105.727,0.00153675,0.237212,20.7554,12.8666,-0.282179,0.0,0.0
190,47.25,45.0983,54.4173,155.099,102.459,106.687,0.00149835,0.239083,20.7524,12.6563,-0.362527,0.0,0.0
200,49.75,45.3138,54.93,163.589,102.454,106.349,0.00163125,0.24418,20.7448,12.5161,-0.334536,0.0,0.0
210,52.25,45.1858,55.3242,159.213,102.467,106.325,0.00178531,0.24927,20.7394,12.2958,-0.331419,0.0,0.0
220,54.75,45.6172,55.6152,161.224,102.45,106.287,0.00176892,0.252997,20.7357,12.0555,-0.329688,0.0,0.0
230,57.25,46.0178,55.793,155.147,102.464,106.927,0.00159794,0.254034,20.7344,11.9154,-0.382353,0.0,0.0
240,59.75,45.9693,56.4286,161.334,102.469,105.807,0.00148718,0.252343,20.7355,11.7752,-0.287413,0.0,0.0
250,62.25,46.0279,56.3935,157.495,102.467,106.458,0.00164046,0.246792,20.7391,11.5849,-0.342627,0.0,0.0
260,64.75,45.9901,56.0436,162.586,102.48,107.085,0.00194207,0.242409,20.7422,11.4748,-0.394155,0.0,0.0
270,67.25,46.1647,55.7034,158.483,102.464,106.133,0.00217043,0.23713,20.7488,11.3847,-0.315459,0.0,0.0
280,69.75,45.9848,55.3312,159.732,102.485,106.245,0.00245164,0.228144,20.7571,11.2144,-0.323135,0.0,0.0
290,72.25,45.9531,54.9702,162.679,102.468,106.672,0.00272813,0.218131,20.7656,11.1343,-0.36049,0.0,0.0
300,74.75,45.389,54.2061,161.183,102.477,106.46,0.00287746,0.21005,20.7754,11.0242,-0.341922,0.0,0.0
310,77.25,44.9296,53.0075,163.995,102.47,105.791,0.0029582,0.202128,20.7832,10.904,-0.285975,0.0,0.0
320,79.75,44.5895,52.7515,159.307,102.469,105.965,0.00315477,0.195933,20.7893,10.7739,-0.300823,0.0,0.0
330,82.25,44.6189,52.7109,158.922,102.46,106.185,0.00349642,0.189062,20.7973,10.7138,-0.320177,0.0,0.0
340,84.75,44.2546,51.8415,163.911,102.461,105.295,0.0038479,0.182022,20.8037,10.6437,-0.244633,0.0,0.0
350,87.25,43.8648,51.9691,160.88,102.444,105.645,0.00421622,0.176825,20.8094,10.5636,-0.275833,0.0,0.0
360,89.75,43.9976,51.3641,170.055,102.445,105.607,0.00456435,0.170949,20.8167,10.4835,-0.272576,0.0,0.0
370,92.25,43.6921,50.7389,157.684,102.439,105.925,0.00505201,0.16348,20.823,10.4334,-0.300044,0.0,0.0
380,94.75,43.7208,50.8003,165.089,102.441,106.076,0.00558502,0.156676,20.8294,10.3634,-0.312656,0.0,0.0
390,97.25,43.4095,49.8623,165.531,102.442,106.209,0.00600733,0.148628,20.8376,10.2933,-0.323773,0.0,0.0
400,99.75,43.4253,49.8071,168.648,102.445,105.053,0.0063487,0.141827,20.8444,10.2432,-0.225396,0.0,0.0
410,102.25,42.6039,48.5281,163.234,102.437,105.622,0.00660568,0.135827,20.8508,10.2132,-0.274517,0.0,0.0
420,104.75,42.3753,48.696,163.521,102.414,105.423,0.00692108,0.129907,20.858,10.1631,-0.259672,0.0,0.0
430,107.25,42.1322,47.7299,166.803,102.414,105.494,0.00743739,0.125391,20.8625,10.1631,-0.26568,0.0,0.0
440,109.75,41.9043,47.2888,163.292,102.387,105.598,0.0079282,0.122603,20.8654,10.113,-0.276937,0.0,0.0
450,112.25,41.6792,47.0322,171.016,102.385,104.831,0.00822004,0.120208,20.8687,10.0329,-0.211649,0.0,0.0
460,114.75,39.9508,45.4987,164.832,102.343,105.139,0.00825093,0.11825,20.8709,10.0429,-0.241634,0.0,0.0
470,117.25,40.0361,44.7239,162.163,102.347,106.054,0.0082485,0.115433,20.8727,10.0429,-0.319031,0.0,0.0
480,119.75,39.8029,44.8204,167.889,102.315,105.313,0.00829401,0.11125,20.8777,9.99287,-0.258964,0.0,0.0
490,122.25,39.1926,44.3839,164.497,102.306,104.786,0.00821921,0.106427,20.883,9.96284,-0.214772,0.0,0.0
500,124.75,39.4178,44.2943,164.623,102.313,105.632,0.0081724,0.103746,20.8869,9.89275,-0.286235,0.0,0.0
510,127.25,39.0957,44.5241,165.417,102.3,105.157,0.00807028,0.10104,20.889,9.90276,-0.247052,0.0,0.0
520,129.75,39.2617,43.9471,167.325,102.276,105.363,0.00794134,0.100145,20.8897,9.84268,-0.266636,0.0,0.0
530,132.25,39.2971,44.0286,166.715,102.262,105.218,0.00776689,0.0995333,20.8908,9.85269,-0.255505,0.0,0.0
540,134.75,38.3662,43.6236,168.94,102.238,104.803,0.00760792,0.0990482,20.8919,9.83267,-0.222188,0.0,0.0
550,137.25,38.552,43.9277,164.199,102.223,105.897,0.00752563,0.0989008,20.8922,9.73254,-0.316596,0.0,0.0
560,139.75,38.8599,44.102,164.19,102.208,105.155,0.00739034,0.0986404,20.8923,9.74255,-0.254929,0.0,0.0
570,142.25,39.1961,44.1643,168.286,102.191,105.477,0.00737583,0.0981466,20.8922,9.7025,-0.283824,0.0,0.0
580,144.75,39.1279,44.0325,164.488,102.193,104.646,0.0075975,0.0973985,20.8937,9.73254,-0.212663,0.0,0.0
590,147.25,38.5623,44.1436,158.091,102.206,105.144,0.00771519,0.096652,20.8942,9.6224,-0.254138,0.0,0.0
600,149.75,39.0793,44.5672,164.607,102.222,104.788,0.00759188,0.0958383,20.8954,9.60237,-0.22226,0.0,0.0
610,152.25,38.8863,44.6459,161.603,102.201,104.807,0.00727734,0.0951328,20.8963,9.6224,-0.225708,0.0,0.0
620,154.75,38.9337,44.7139,161.017,102.251,104.958,0.00707819,0.0958169,20.8956,9.61238,-0.234335,0.0,0.0
630,157.25,38.6247,44.4453,172.226,102.27,105.297,0.00688566,0.0979057,20.8936,9.56232,-0.261533,0.0,0.0
640,159.75,38.7677,44.5863,166.604,102.292,105.043,0.0068312,0.0990676,20.8913,9.59236,-0.237926,0.0,0.0
650,162.25,39.7146,44.553,166.098,102.316,105.031,0.00677876,0.102518,20.8896,9.52227,-0.234847,0.0,0.0
660,164.75,39.5872,44.7954,169.034,102.345,105.725,0.00654242,0.104252,20.8876,9.52227,-0.291332,0.0,0.0
670,167.25,39.3749,44.5812,165.594,102.348,105.974,0.00637889,0.101389,20.8897,9.49223,-0.312191,0.0,0.0
680,169.75,39.4632,44.5487,165.79,102.354,105.304,0.00635242,0.0987208,20.892,9.49223,-0.254837,0.0,0.0
690,172.25,39.5432,45.0608,163,102.376,105.031,0.0061324,0.0949965,20.8961,9.4722,-0.229512,0.0,0.0
700,174.75,39.7724,45.5298,163.676,102.376,105.848,0.00596993,0.0935086,20.8978,9.43215,-0.299041,0.0,0.0
710,177.25,38.865,44.8306,164.05,102.401,105.765,0.00603548,0.0929156,20.8989,9.42214,-0.289874,0.0,0.0
720,179.75,38.8367,44.6998,164.814,102.393,105.261,0.00605146,0.0921291,20.8999,9.3921,-0.247669,0.0,0.0
730,182.25,38.88,44.3921,170.468,102.411,105.39,0.00611698,0.0915372,20.9002,9.37208,-0.257139,0.0,0.0
740,184.75,39.0275,44.7754,161.955,102.402,105.732,0.0062635,0.0921515,20.9003,9.37208,-0.286953,0.0,0.0
750,187.25,39.63,44.9394,162.294,102.429,105.227,0.0061619,0.0919036,20.8999,9.25192,-0.24167,0.0,0.0
760,189.75,39.7291,44.726,161.177,102.41,106.37,0.0060081,0.0910238,20.9005,9.23189,-0.340193,0.0,0.0
770,192.25,39.3425,44.1609,166.278,102.429,105.097,0.00596565,0.0908704,20.9009,9.29197,-0.230515,0.0,0.0
780,194.75,39.1455,44.4066,164.227,102.419,106.321,0.00590921,0.0897384,20.9019,9.15179,-0.335297,0.0,0.0
790,197.25,38.9115,44.1738,163.121,102.436,106.011,0.00575869,0.0886248,20.9029,9.34204,-0.307679,0.0,0.0
800,199.75,39.0944,44.7129,163.355,102.421,105.612,0.00545122,0.0869223,20.9033,9.18183,-0.27511,0.0,0.0
810,202.25,38.9516,44.4547,168.509,102.444,105.873,0.00523491,0.0852469,20.9064,9.33202,-0.295249,0.0,0.0
820,204.75,39.2021,44.6713,163.29,102.445,105.618,0.00519989,0.0837337,20.9085,9.18183,-0.27351,0.0,0.0
830,207.25,39.445,45.215,164.117,102.455,105.058,0.00517847,0.0831783,20.9097,9.22188,-0.224952,0.0,0.0
840,209.75,39.011,44.8633,163.526,102.457,105.276,0.00510628,0.0824821,20.9108,9.21187,-0.243378,0.0,0.0
850,212.25,39.4786,45.1872,168.822,102.456,105.857,0.00508928,0.0814975,20.9121,9.25192,-0.292857,0.0,0.0
860,214.75,39.0314,45.6669,164.056,102.473,105.837,0.00499168,0.0800198,20.9134,9.23189,-0.289644,0.0,0.0
870,217.25,39.7597,45.0807,165.052,102.468,105.537,0.00479912,0.0790905,20.9138,9.17182,-0.264608,0.0,0.0
880,219.75,39.6083,44.4542,165.553,102.472,105.504,0.00456043,0.0795523,20.914,9.19184,-0.26149,0.0,0.0
890,222.25,39.6498,44.9847,164.804,102.46,105.259,,0.0794235,,9.20186,-0.241616,0.0,0.0
900,224.75,39.6896,45.4331,161.577,102.48,105.137,,0.0785167,,9.1618,-0.22953,0.0,0.0
910,227.25,39.5158,45.5412,166.171,102.457,106.015,,,,9.15179,-0.306114,0.0,0.0
920,229.75,39.5775,45.0959,164.859,102.475,106.163,,,,9.10173,-0.317006,0.0,0.0
930,232.25,39.732,45.9288,164.876,102.463,105.575,,,,9.10173,-0.268307,0.0,0.0
933,233,39.6586,45.4324,165.074,102.471,105.315,,,,9.13177,-0.245485,0.0,0.0

File: Raw_Cotton_Cone_HF75-Frame+GridScan_200910_R2.csv
Names,Time,Stack TC,Smoke TC,Exh Press,Smoke Comp,Smoke Meas,CO Meter,CO2 Meter,O2 Meter,Sample Mass,Ext Coeff,Start Test,Flame Verif
Chan Gain,,500,500,1,1,1,1,1,1,1,1,1.0,1.0
Offset,,0,0,0.140826,0,0,0,0,0,0,0,0.0,0.0
Gain,,1,1,25.011,13.7435,17.0229,1,1,1,1.00129,1.0222,1.0,1.0
Units,sec,C,C,Pa,%,%,%,%,%,g,/m,,
Baseline,,38.6433,42.6719,167.786,102.345,105.226,0.000436156,0.0514809,20.9493,-898.688,-0.24889,,
9,2,37.1114,42.4516,161.029,102.109,105.101,0.00138231,0.154479,20.8613,16.2409,-0.258972,0.0,1.0
18,4.25,40.4926,47.1932,162.585,101.989,105.975,0.00159504,0.225194,20.7877,16.0106,-0.343707,0.0,1.0
27,6.5,41.1315,49.8805,157.006,101.866,105.068,0.00166978,0.257206,20.7513,15.7703,-0.277522,0.0,0.0
36,8.75,43.3105,51.7496,160.127,101.726,105.478,0.00179622,0.27318,20.7307,15.55,-0.324782,0.0,0.0
45,11,44.2085,54.2193,159.762,101.615,104.298,0.00187841,0.286749,20.7121,15.3598,-0.233719,0.0,0.0
54,13.25,45.4366,55.9725,157.418,101.468,102.763,0.00210205,0.297211,20.701,15.0594,-0.11368,0.0,0.0
63,15.5,45.8211,57.0506,158.384,101.302,104.301,0.00241681,0.300732,20.6952,14.8692,-0.261556,0.0,0.0
72,17.75,46.3886,57.8618,162.784,101.164,103.993,0.00258488,0.302711,20.6936,14.6789,-0.247294,0.0,0.0
81,20,48.0042,58.5317,155.478,101.06,104.368,0.00268013,0.30202,20.6942,14.4186,-0.288799,0.0,0.0
90,22.25,47.8161,59.9176,156.771,100.92,103.487,0.00280257,0.298589,20.697,14.2083,-0.225221,0.0,0.0
99,24.5,48.2484,59.6611,160,100.825,104.486,0.00274511,0.295493,20.6988,13.998,-0.319797,0.0,0.0
108,26.75,48.3719,59.9843,158.636,100.744,104.946,0.00250885,0.293134,20.7004,13.7177,-0.366485,0.0,0.0
117,29,49.0543,59.9168,160.113,100.674,103.807,0.00231559,0.289391,20.7025,13.5975,-0.274814,0.0,0.0
126,31.25,49.0138,60.4586,160.061,100.593,104.419,0.00219475,0.286178,20.7047,13.4573,-0.33465,0.0,0.0
135,33.5,48.9771,60.0967,154.412,100.56,104.633,0.00206684,0.282431,20.7071,13.207,-0.356008,0.0,0.0
144,35.75,48.8275,60.2399,156.265,100.558,103.816,0.00190751,0.277841,20.7123,13.0168,-0.285893,0.0,0.0
153,38,49.5292,60.1842,156.849,100.55,104.175,0.00197629,0.274571,20.7155,12.8466,-0.317592,0.0,0.0
162,40.25,49.3012,60.4529,154.21,100.587,103.9,0.00221728,0.272428,20.7168,12.6463,-0.290534,0.0,0.0
171,42.5,48.6281,59.8417,155.499,100.655,104.598,0.00241581,0.271669,20.7172,12.5261,-0.344495,0.0,0.0
180,44.75,49.1284,60.0926,160.398,100.741,104.611,0.00239349,0.27125,20.7163,12.3459,-0.337998,0.0,0.0
189,47,49.2335,59.7846,158.333,100.819,104.895,0.00226809,0.270802,20.7159,12.1657,-0.355336,0.0,0.0
198,49.25,49.3293,59.7753,163.806,100.924,104.406,0.00212939,0.270723,20.7167,11.9955,-0.304123,0.0,0.0
207,51.5,49.6669,59.9088,156.513,101.019,105.102,0.0021177,0.269336,20.7176,11.8653,-0.355292,0.0,0.0
216,53.75,49.6315,60.0343,159.087,101.126,104.942,0.00214046,0.264728,20.7206,11.6851,-0.332149,0.0,0.0
225,56,49.5731,59.7285,159.307,101.215,105.936,0.00213829,0.256318,20.7291,11.5549,-0.408746,0.0,0.0
234,58.25,49.4238,59.5758,155.558,101.327,104.997,0.00236177,0.244558,20.7421,11.4147,-0.319013,0.0,0.0
243,60.5,49.2529,58.5424,162.644,101.431,104.902,0.00282691,0.230383,20.7552,11.3346,-0.301699,0.0,0.0
252,62.75,48.6658,57.6638,160.178,101.515,104.919,0.00351338,0.215105,20.7695,11.1944,-0.295744,0.0,0.0
261,65,48.6073,57.0988,167.767,101.593,104.46,0.00424165,0.198866,20.7881,11.1744,-0.249529,0.0,0.0
270,67.25,47.458,55.8496,161.551,101.678,104.833,0.00491916,0.1859,20.8024,11.0743,-0.274016,0.0,0.0
279,69.5,46.7502,55.2303,163.411,101.769,106.428,0.00546372,0.175537,20.8104,11.0142,-0.401297,0.0,0.0
288,71.75,46.515,54.4914,159.615,101.834,105.979,0.00578543,0.167959,20.8179,10.9641,-0.357757,0.0,0.0
297,74,46.3389,52.8539,160.805,101.902,104.89,0.00596789,0.162528,20.8254,10.904,-0.259165,0.0,0.0
306,76.25,45.728,52.5021,166.523,101.986,105.424,0.00629706,0.156643,20.8326,10.844,-0.297332,0.0,0.0
315,78.5,45.239,52.0838,171.232,102.019,105.759,0.00667082,0.151086,20.8378,10.7939,-0.32283,0.0,0.0
324,80.75,44.5721,51.0116,161.612,102.05,105.214,0.00685946,0.146249,20.8427,10.7438,-0.27378,0.0,0.0
333,83,44.1816,49.968,165.413,102.07,105.637,0.0070468,0.140807,20.8477,10.7138,-0.308057,0.0,0.0
342,85.25,43.9358,49.9074,161.985,102.1,105.538,0.00727574,0.136136,20.8532,10.6738,-0.296972,0.0,0.0
351,87.5,43.6241,49.4504,160.07,102.084,105.365,0.00744192,0.130518,20.8592,10.6137,-0.283625,0.0,0.0
360,89.75,43.4187,48.7087,164.346,102.066,105.46,0.00756897,0.125263,20.8652,10.6437,-0.293377,0.0,0.0
369,92,43.4195,48.1499,162.051,102.076,104.972,0.00763784,0.12028,20.8698,10.6037,-0.250847,0.0,0.0
378,94.25,43.1014,48.1583,169.857,102.022,104.932,0.00768731,0.116273,20.8745,10.5836,-0.252221,0.0,0.0
387,96.5,43.1525,48.1127,166.21,101.984,105.469,0.00797818,0.11208,20.8792,10.5836,-0.301316,0.0,0.0
396,98.75,42.9529,47.6139,168.99,101.944,105.011,0.00840834,0.108758,20.8827,10.4935,-0.265781,0.0,0.0
405,101,40.8343,45.7297,165.749,101.938,105.181,0.00880684,0.106988,20.884,10.4635,-0.280835,0.0,0.0
414,103.25,40.3261,46.2322,167.122,101.899,105.158,0.00908609,0.107853,20.8836,10.4535,-0.282273,0.0,0.0
423,105.5,40.6588,45.6084,167.831,101.869,104.696,0.009023,0.108521,20.883,10.4234,-0.24542,0.0,0.0
432,107.75,40.7266,45.4694,162.84,101.835,104.979,0.00869425,0.108448,20.883,10.4134,-0.272626,0.0,0.0
441,110,40.7919,45.3211,164.454,101.804,104.954,0.00834969,0.107623,20.8841,10.3634,-0.273192,0.0,0.0
450,112.25,40.8217,45.2677,164.643,101.772,104.339,0.00810192,0.106746,20.8847,10.3634,-0.22337,0.0,0.0
459,114.5,40.2025,44.5127,163.38,101.744,105.236,0.00806533,0.107234,20.8853,10.3533,-0.302588,0.0,0.0
468,116.75,40.1477,44.6662,163.466,101.742,105.118,0.00809073,0.108419,20.884,10.3133,-0.292757,0.0,0.0
477,119,40.3074,45.4957,163.236,101.813,105.847,0.00798834,0.109296,20.8827,10.3033,-0.348469,0.0,0.0
486,121.25,40.3612,45.2669,166.379,101.991,105.269,0.00798175,0.108235,20.8838,10.2832,-0.283625,0.0,0.0
495,123.5,40.5493,45.3933,162.35,102.171,104.914,0.00808969,0.105925,20.8866,10.2732,-0.237509,0.0,0.0
504,125.75,40.2934,45.3509,167.234,102.309,105.129,0.0080825,0.103788,20.8874,10.2632,-0.243851,0.0,0.0
513,128,40.5121,45.4841,164.263,102.418,107.073,0.00801271,0.102171,20.8891,10.2031,-0.398507,0.0,0.0
522,130.25,40.5333,45.1098,165.923,102.52,106.051,0.00790546,0.101679,20.8898,10.1731,-0.303685,0.0,0.0
531,132.5,40.0264,45.3228,161.897,102.593,105.993,0.00771724,0.101589,20.8901,10.2031,-0.292384,0.0,0.0
540,134.75,40.2487,45.0286,164.503,102.632,105.944,0.00743552,0.102496,20.8902,10.1931,-0.284799,0.0,0.0
549,137,40.0744,44.5099,157.817,102.654,105.83,0.00716,0.102404,20.8907,10.1831,-0.273223,0.0,0.0
558,139.25,40.7294,45.3764,161.935,102.652,105.998,0.00708604,0.101825,20.8918,10.1331,-0.287612,0.0,0.0
567,141.5,40.2615,45.5599,164.465,102.611,105.871,0.00723483,0.100668,20.8923,10.123,-0.280437,0.0,0.0
576,143.75,40.291,45.3738,162.099,102.531,106.237,0.00724297,0.100742,20.8926,10.093,-0.318442,0.0,0.0
585,146,40.7053,44.9362,161.012,102.438,105.096,0.00702362,0.0992369,20.8931,10.073,-0.229737,0.0,0.0
594,148.25,40.8578,45.7274,160.124,102.311,105.462,0.00693235,0.0984075,20.8955,10.053,-0.272016,0.0,0.0
603,150.5,40.8311,45.885,162.183,102.123,105.761,0.0070388,0.0970612,20.8966,10.0429,-0.313824,0.0,0.0
612,152.75,40.5216,46.275,163.631,102.035,104.652,0.00713904,0.0959618,20.8987,10.0229,-0.227119,0.0,0.0
621,155,40.8191,46.396,167.211,102.091,105.557,0.00706434,0.0936665,20.9009,10.0029,-0.299341,0.0,0.0
630,157.25,41.2855,46.06,164.523,102.179,104.949,0.00688878,0.0919225,20.9032,9.98286,-0.239865,0.0,0.0
639,159.5,41.0791,46.0073,164.746,102.269,104.965,0.00667217,0.0901478,20.9053,9.97285,-0.233294,0.0,0.0
648,161.75,40.4827,45.6122,161.938,102.357,105.052,0.00634506,0.0881396,20.9076,9.97285,-0.233057,0.0,0.0
657,164,40.2788,45.5654,160.067,102.477,105.342,0.00602521,0.0859265,20.909,9.95282,-0.247307,0.0,0.0
666,166.25,40.3421,45.328,160.879,102.556,105.401,0.00583895,0.0843581,20.9102,9.94281,-0.245333,0.0,0.0
675,168.5,40.7206,45.582,167.113,102.641,105.551,0.00563234,0.0836532,20.9123,9.9328,-0.250684,0.0,0.0
684,170.75,40.3328,45.368,166.9,102.714,105.684,0.00543911,0.0826267,20.9142,9.90276,-0.255528,0.0,0.0
693,173,40.3434,45.4039,164.797,102.779,105.367,0.00525809,0.0813891,20.9153,9.9328,-0.223046,0.0,0.0
702,175.25,40.4986,45.3623,163.725,102.808,105.631,0.00508095,0.0808631,20.9158,9.86271,-0.242877,0.0,0.0
711,177.5,40.2691,45.495,166.819,102.83,105.584,0.00495673,0.0801934,20.9172,9.83267,-0.237006,0.0,0.0
720,179.75,39.9877,45.2847,164.473,102.815,105.739,0.00491242,0.0793208,20.9179,9.83267,-0.251416,0.0,0.0
729,182,40.2896,45.0772,166.722,102.791,106.389,0.00500973,0.0786916,20.9193,9.83267,-0.30848,0.0,0.0
738,184.25,40.3454,45.8966,161.311,102.728,106.084,0.00510666,0.077602,20.9213,9.81264,-0.288239,0.0,0.0
747,186.5,40.907,46.0635,163.479,102.639,106.353,0.00505517,0.0761326,20.9223,9.81264,-0.31872,0.0,0.0
756,188.75,40.6519,45.7621,166.045,102.532,105.308,0.00470992,0.0748251,20.924,9.87272,-0.239545,0.0,0.0
765,191,40.7132,46.2196,162.264,102.393,105.523,0.0041997,0.0735685,20.9253,9.81264,-0.269945,0.0,0.0
774,193.25,40.6891,45.5346,165.911,102.242,104.855,0.00373663,0.0725324,20.9258,9.84268,-0.226264,0.0,0.0
783,195.5,40.5059,45.5378,167.01,102.07,104.997,0.00347355,0.0720497,20.9274,9.77259,-0.253485,0.0,0.0
792,197.75,40.5005,45.7284,169.024,101.925,105.425,0.00346258,0.0719068,20.928,9.80263,-0.302769,0.0,0.0
801,200,40.7845,45.6264,168.031,101.725,104.923,0.00346771,0.0714292,20.9283,9.77259,-0.27755,0.0,0.0
810,202.25,40.6223,45.7933,164.033,101.543,105.78,0.00340423,0.0716714,20.9284,9.79262,-0.366491,0.0,0.0
819,204.5,41.4082,46.5373,164.126,101.376,104.045,0.0032117,0.073308,20.927,9.77259,-0.233062,0.0,0.0
828,206.75,40.7844,46.1539,161.57,101.194,104.045,0.00295088,0.0737389,20.9271,9.76258,-0.249103,0.0,0.0
837,209,40.4908,45.4218,163.463,101.058,104.176,,0.0731148,,9.73254,-0.272501,0.0,0.0
846,211.25,40.5754,45.6087,165.727,100.928,103.846,,,,9.74255,-0.255606,0.0,0.0
855,213.5,40.4491,46.4308,166.155,100.85,103.633,,,,9.71251,-0.244085,0.0,0.0
864,215.75,40.6656,45.862,165.878,100.77,104.578,,,,9.73254,-0.332527,0.0,0.0
873,218,41.0034,46.2055,169.463,100.765,104.818,,,,9.72253,-0.353612,0.0,0.0
876,218.75,40.9776,45.9974,168.501,100.771,104.725,,,,9.71251,-0.345086,0.0,0.0