Folder: fsri_materials_database/01_Data/Cotton_Raw/Cone

Note: 01_Data/README.md
# Materials and Products Database
## 01_Data

Raw data generated from each apparatus are included here in plain-text format. The data is organized first by material, next by the short name of test apparatus used, and where applicable additional filtering by test settings.

### material.json

Each material directory contains a json file of the same name as the material. This file links the data stored in the repository as well as data and graphs produced by the accompanying scripts (__02_Scripts__) to the respective landing page for the material on the front-end website.

File: Cotton_Raw_Cone_HF25-Frame+GridScalar_200908_R1.csv
LABORATORY,FSRI
TEST IDENT,Raw_cotton_25_1
OPERATOR,Dow
MATERIAL,Raw cotton
ORIENTATION,Horizontal
HEAT FLUX,25
SURF AREA,0.01
C FACTOR,0.0387531
SPEC HOLDER DIFF,341.2
SPECIMEN MASS,6.9
SCAN TIME,0.25
O2 DELAY TIME,11
CO DELAY TIME,11
CO2 DELAY TIME,8
FLOW FACTOR,1
SCAN COUNT,984
TIME TO IGN,20
END OF TEST SCAN,504
END OF TEST TIME,126
TEST STATUS,1

File: Cotton_Raw_Cone_HF25-Frame+GridScan_200908_R1.csv
Names,Time,Stack TC,Smoke TC,Exh Press,Smoke Comp,Smoke Meas,CO Meter,CO2 Meter,O2 Meter,Sample Mass,Ext Coeff,Start Test,Flame Verif
Chan Gain,,500,500,1,1,1,1,1,1,1,1,1.0,1.0
Offset,,0,0,0.136754,0,0,0,0,0,0,0,0.0,0.0
Gain,,1,1,25.011,13.5073,16.5741,1,1,1,1.00105,1.03303,1.0,1.0
Units,sec,C,C,Pa,%,%,%,%,%,g,/m,,
Baseline,,22.4509,24.4359,169.416,101.271,101.327,0.000779913,0.0581108,20.9667,-947.947,-0.00498878,,
11,2.5,19.8136,21.7219,166.306,101.187,101.719,0.00094849,0.0589203,20.9694,-32.7542,-0.0475364,0.0,0.0
22,5.25,19.892,22.2433,169.103,101.191,101.328,0.000885629,0.0588626,20.9687,-32.7743,-0.0121878,0.0,0.0
33,8,20.5297,22.4035,171.192,101.191,101.076,0.000623686,0.0587262,20.9685,-32.7843,0.0103665,0.0,0.0
44,10.75,20.8812,22.9386,168.042,101.165,100.728,0.000641605,0.0590046,20.9685,-32.9244,0.0392558,0.0,0.0
55,13.5,20.6745,23.0457,171.961,101.153,101.103,0.00114164,0.059923,20.9683,-32.9144,0.0044473,0.0,0.0
66,16.25,21.042,23.1846,168.246,101.144,100.313,0.00152658,0.0607766,20.9661,-32.8744,0.0747615,0.0,0.0
77,19,21.0325,23.2251,169.102,101.14,100.299,0.00168037,0.0721231,20.9538,-33.0746,0.0756635,0.0,0.0
88,21.75,22.1235,25.7078,167.445,101.134,101.794,0.00193883,0.127063,20.896,-33.1346,-0.0588924,0.0,1.0
99,24.5,24.24,27.5874,166.739,101.127,101.584,0.00219206,0.156157,20.8677,-33.2748,-0.0409343,0.0,1.0
110,27.25,22.6586,27.5881,165.014,101.113,101.942,0.00231865,0.162885,20.8607,-33.455,-0.0739593,0.0,0.0
121,30,23.1457,28.498,157.641,101.109,101.797,0.00244885,0.165819,20.8574,-33.495,-0.0614157,0.0,0.0
132,32.75,24.5439,29.1006,160.141,101.094,101.959,0.00252945,0.168943,20.8539,-33.7353,-0.0771792,0.0,0.0
143,35.5,25.0691,29.8825,166.717,101.065,101.836,0.00251358,0.172379,20.8519,-33.8154,-0.0689183,0.0,0.0
154,38.25,24.9912,30.1443,164.125,101.072,101.49,0.00252717,0.170962,20.8522,-33.9155,-0.0373698,0.0,0.0
165,41,24.5853,29.8931,158.239,101.055,101.995,0.00270315,0.168901,20.8549,-34.0856,-0.0838443,0.0,0.0
176,43.75,25.1584,29.7564,164.156,101.061,100.979,0.00288056,0.16399,20.8595,-34.1857,0.00735987,0.0,0.0
187,46.5,25.5345,29.5424,166.882,101.064,101.517,0.00322043,0.159804,20.8626,-34.2858,-0.040548,0.0,0.0
198,49.25,24.9034,29.782,167.449,101.058,101.569,0.00373074,0.155644,20.8676,-34.436,-0.0457513,0.0,0.0
209,52,24.8352,29.5041,167.279,101.028,101.447,0.00408933,0.151066,20.8719,-34.5962,-0.0374859,0.0,0.0
220,54.75,24.4958,29.2592,164.747,101.016,101.673,0.00421595,0.148757,20.8736,-34.6562,-0.0587679,0.0,0.0
231,57.5,24.8629,29.0109,166.352,101.018,101.449,0.00438821,0.146222,20.8757,-34.7463,-0.0385988,0.0,0.0
242,60.25,24.5017,29.2772,163.638,100.991,101.752,0.00454905,0.141954,20.8792,-34.8364,-0.068054,0.0,0.0
253,63,24.6714,28.862,167.251,100.983,101.705,0.00470328,0.138435,20.883,-34.9565,-0.0645741,0.0,0.0
264,65.75,24.8071,28.6666,164.978,100.968,101.168,0.00508503,0.134781,20.8858,-35.1267,-0.0179112,0.0,0.0
275,68.5,24.1221,28.1907,163.986,100.944,101.359,0.00578634,0.133052,20.8898,-35.1367,-0.0371664,0.0,0.0
286,71.25,24.1313,28.058,169.316,100.96,100.653,0.00654442,0.128052,20.8942,-35.2168,0.027586,0.0,0.0
297,74,24.0013,27.2273,163.616,100.942,101.018,0.00727185,0.126106,20.8954,-35.2969,-0.00685937,0.0,0.0
308,76.75,24.1542,27.4617,165.631,100.949,101.387,0.00782775,0.126392,20.8947,-35.4871,-0.0392465,0.0,0.0
319,79.5,24.1469,27.2935,164.715,100.925,101.202,0.00817236,0.124326,20.8954,-35.5972,-0.024841,0.0,0.0
330,82.25,23.5183,26.8044,168.022,100.908,100.98,0.00876109,0.119442,20.9004,-35.6072,-0.00645452,0.0,0.0
341,85,23.3981,26.6093,166.679,100.888,100.909,0.00926339,0.116298,20.9039,-35.7274,-0.00182902,0.0,0.0
352,87.75,23.096,26.6289,170.351,100.86,101.046,0.009523,0.114446,20.9063,-35.7474,-0.0166471,0.0,0.0
363,90.5,23.5116,26.6953,169.344,100.831,100.83,0.00990935,0.111749,20.9086,-35.8375,6.69741e-05,0.0,0.0
374,93.25,23.9331,26.0288,167.8,100.802,100.31,0.0103402,0.110938,20.9107,-35.9276,0.0442859,0.0,0.0
385,96,22.9606,25.5267,162.952,100.782,100.586,0.0105143,0.110285,20.9116,-36.0377,0.0177222,0.0,0.0
396,98.75,23.1425,25.7025,161.217,100.747,100.57,0.0104995,0.109504,20.9119,-36.0277,0.0159011,0.0,0.0
407,101.5,23.202,26.0617,169.258,100.732,100.468,0.0102986,0.109322,20.912,-36.1978,0.0237771,0.0,0.0
418,104.25,23.2073,25.6928,168.148,100.696,100.185,0.00972854,0.109452,20.912,-36.2079,0.0461336,0.0,0.0
429,107,23.3863,25.991,167.754,100.674,100.856,0.00939154,0.108966,20.912,-36.338,-0.0164139,0.0,0.0
440,109.75,22.831,25.9041,164.96,100.646,100.271,0.00946222,0.108059,20.9114,-36.368,0.0337957,0.0,0.0
451,112.5,22.9835,25.5875,167.263,100.629,100.483,0.00957156,0.107874,20.9101,-36.4381,0.0130948,0.0,0.0
462,115.25,22.835,25.6062,167.61,100.599,100.819,0.00940688,0.107552,20.9107,-36.5983,-0.0197687,0.0,0.0
473,118,22.9697,25.3902,167.561,100.548,100.094,0.00944847,0.106324,20.9121,-36.5983,0.0410454,0.0,0.0
484,120.75,22.8635,25.5319,164.612,100.512,100.518,0.00966866,0.105767,20.9131,-36.6984,-0.000553636,0.0,0.0
495,123.5,23.3174,25.5585,170.279,100.493,100.275,0.00968556,0.104155,20.9151,-36.8185,0.0196422,0.0,0.0
506,126.25,22.5998,25.2229,165.78,100.448,99.801,0.00975154,0.100615,20.9186,-36.9186,0.0585277,0.0,0.0
517,129,21.1319,23.0647,164.18,100.418,99.583,0.0100386,0.0981451,20.9198,-37.0187,0.0757021,0.0,0.0
528,131.75,20.7854,22.9659,166.953,100.402,99.6098,0.0102045,0.0974277,20.9221,-37.0487,0.0718126,0.0,0.0
539,134.5,20.5069,23.0202,167.722,100.397,99.8688,0.0102826,0.0970339,20.9236,-37.1088,0.0477638,0.0,0.0
550,137.25,20.7627,22.7489,166.788,100.363,99.7757,0.0103323,0.0973665,20.9242,-37.1288,0.0531608,0.0,0.0
561,140,20.8214,23.597,167.543,100.339,99.973,0.0102076,0.0972982,20.9244,-37.1889,0.0331037,0.0,0.0
572,142.75,21.1312,22.9226,172.637,100.348,99.7813,0.00997513,0.0968974,20.9244,-37.269,0.0513532,0.0,0.0
583,145.5,21.1561,23.183,166.125,100.319,100.05,0.00964731,0.0974653,20.9244,-37.299,0.0242684,0.0,0.0
594,148.25,21.0827,23.4812,160.053,100.328,99.9846,0.00925136,0.0969379,20.9244,-37.4191,0.0310445,0.0,0.0
605,151,20.8887,23.5111,168.446,100.313,100.139,0.00912206,0.0965843,20.9245,-37.4291,0.0157339,0.0,0.0
616,153.75,20.9253,22.9872,167.655,100.304,99.7241,0.00917438,0.097085,20.9247,-37.4792,0.0525604,0.0,0.0
627,156.5,21.1416,23.2292,170.274,100.298,99.2092,0.00914992,0.0970253,20.9225,-37.5292,0.0989493,0.0,0.0
638,159.25,21.3493,23.7856,168.403,100.295,99.8951,0.00893057,0.0966407,20.9218,-37.6293,0.0362201,0.0,0.0
649,162,21.1907,23.3102,170.092,100.312,99.9846,0.00881386,0.0964949,20.9216,-37.6994,0.0296298,0.0,0.0
660,164.75,21.2438,23.3587,167.279,100.316,99.9037,0.00860255,0.0977008,20.9202,-37.6394,0.0373024,0.0,0.0
671,167.5,20.677,23.4437,169.615,100.331,99.9988,0.00851754,0.0980304,20.9195,-37.7795,0.030096,0.0,0.0
682,170.25,21.0393,23.2653,165.019,100.317,99.7934,0.00856583,0.0983388,20.9189,-37.8596,0.047421,0.0,0.0
693,173,20.9326,23.415,168.369,100.319,100.061,0.00842222,0.0993383,20.9172,-37.8596,0.023261,0.0,0.0
704,175.75,21.1901,23.8649,166.784,100.354,99.4935,0.00822716,0.0993134,20.9164,-37.8596,0.0780114,0.0,0.0
715,178.5,20.9125,23.735,164.761,100.35,100.353,0.00806913,0.101939,20.9143,-37.8996,-0.00030193,0.0,0.0
726,181.25,21.2234,23.7752,168.768,100.379,100.648,0.00786619,0.103389,20.9128,-38.0198,-0.0242014,0.0,0.0
737,184,21.0963,23.5483,168.755,100.387,100.621,0.00781678,0.103849,20.9127,-38.0198,-0.0210809,0.0,0.0
748,186.75,21.4342,23.7625,170.423,100.407,100.383,0.00782074,0.102844,20.9138,-38.0097,0.00222176,0.0,0.0
759,189.5,21.2158,23.7281,170.097,100.428,99.6837,0.00790512,0.0999141,20.9161,-38.0498,0.0674411,0.0,0.0
770,192.25,21.325,24.0952,169.476,100.481,100.139,0.00808096,0.0964903,20.9202,-38.0798,0.0308765,0.0,0.0
781,195,21.1339,23.721,166.827,100.508,100.217,0.00807271,0.0947733,20.9215,-38.0998,0.0263215,0.0,0.0
792,197.75,20.7823,23.4504,171.747,100.523,100.078,0.0078336,0.0938708,20.9219,-38.1699,0.0401614,0.0,0.0
803,200.5,20.6701,23.5193,164.536,100.527,100.05,0.00754469,0.0936043,20.9221,-38.2099,0.0431345,0.0,0.0
814,203.25,20.7767,23.6011,168.853,100.56,99.929,0.00744127,0.0930571,20.9237,-38.3401,0.0570625,0.0,0.0
825,206,20.6048,23.469,164.157,100.595,100.356,0.00732725,0.092694,20.9242,-38.3701,0.0215078,0.0,0.0
836,208.75,21.3297,23.2181,170.532,100.596,100.336,0.007089,0.0923665,20.9246,-38.3301,0.0234463,0.0,0.0
847,211.5,20.847,23.4573,170.545,100.634,100.278,0.00682969,0.0911891,20.9261,-38.4602,0.03208,0.0,0.0
858,214.25,21.1558,23.0325,167.395,100.649,100.554,0.00672285,0.0908477,20.9265,-38.4002,0.00853089,0.0,0.0
869,217,20.4613,23.4549,167.088,100.658,100.617,0.0068833,0.0918617,20.9254,-38.4102,0.00369688,0.0,0.0
880,219.75,20.9568,23.1919,168.737,100.674,100.441,0.00680515,0.0921477,20.9262,-38.5103,0.0209733,0.0,0.0
891,222.5,20.6989,23.0164,181.016,100.679,100.349,0.00666555,0.0914758,20.9266,-38.4202,0.0296815,0.0,0.0
902,225.25,21.0335,23.6679,164.938,100.696,100.54,0.00654604,0.0913481,20.9262,-38.5203,0.0139912,0.0,0.0
913,228,20.8185,23.4166,161.891,100.705,100.636,0.00647289,0.0904192,20.9259,-38.6304,0.00623295,0.0,0.0
924,230.75,20.8379,23.9417,167.654,100.721,100.324,0.00627024,0.0902076,20.9258,-38.5103,0.0358693,0.0,0.0
935,233.5,21.0498,23.6282,171.314,100.722,100.691,0.00611584,0.0901577,20.9262,-38.6504,0.00279845,0.0,0.0
946,236.25,21.3882,23.4558,165.554,100.74,100.475,,0.0899632,,-38.6804,0.0238503,0.0,0.0
957,239,21.2224,23.1339,172.156,100.761,100.718,,,,-38.7405,0.0038718,0.0,0.0
968,241.75,20.9194,23.3703,166.686,100.76,101.062,,,,-38.7205,-0.027148,0.0,0.0
979,244.5,21.248,23.9606,167.343,100.753,100.566,,,,-38.7105,0.0168295,0.0,0.0
984,245.75,20.8347,23.8715,167.707,100.77,100.572,,,,-38.7505,0.0178775,0.0,0.0

File: Cotton_Raw_Cone_HF25-Frame+GridScan_200908_R2.csv
Names,Time,Stack TC,Smoke TC,Exh Press,Smoke Comp,Smoke Meas,CO Meter,CO2 Meter,O2 Meter,Sample Mass,Ext Coeff,Start Test,Flame Verif
Chan Gain,,500,500,1,1,1,1,1,1,1,1,1.0,1.0
Offset,,0,0,0.136754,0,0,0,0,0,0,0,0.0,0.0
Gain,,1,1,25.011,13.5073,16.5741,1,1,1,1.00105,1.03303,1.0,1.0
Units,sec,C,C,Pa,%,%,%,%,%,g,/m,,
Baseline,,22.5526,24.5017,169.206,100.301,100.287,0.000821989,0.0591498,20.9604,-948.036,0.00128208,,
11,2.5,19.6893,21.6224,167.891,100.404,100.673,0.000526422,0.0601923,20.9636,-32.0936,-0.024209,0.0,0.0
22,5.25,20.1245,21.8024,166.092,100.411,100.643,0.000557574,0.0605552,20.9632,-32.1036,-0.0208898,0.0,0.0
33,8,20.234,22.3701,171.715,100.392,100.526,0.000553384,0.0618392,20.9627,-32.0635,-0.0120288,0.0,0.0
44,10.75,20.8362,22.2072,173.221,100.397,100.307,0.000724736,0.0633985,20.9604,-32.2137,0.00810675,0.0,0.0
55,13.5,21.1116,23.0747,166.63,100.383,99.8056,0.00104893,0.0643911,20.9589,-32.1436,0.0523113,0.0,0.0
66,16.25,21.4531,22.9211,173.093,100.383,99.3812,0.00155857,0.0648656,20.9584,-32.2237,0.0909234,0.0,0.0
77,19,21.2596,23.2573,164.443,100.376,99.5061,0.0021367,0.0658809,20.9582,-32.2737,0.0788692,0.0,0.0
88,21.75,21.5207,23.2763,169.754,100.379,99.3326,0.00276548,0.0674566,20.9556,-32.3038,0.09498,0.0,0.0
99,24.5,21.0625,22.9737,167.633,100.37,99.1895,0.00311432,0.0690532,20.9529,-32.3138,0.107191,0.0,0.0
110,27.25,21.6024,23.5707,168.93,100.39,98.7171,0.00336233,0.0703683,20.9519,-32.4139,0.152239,0.0,0.0
121,30,21.852,24.1076,173.879,100.378,98.5198,0.00388136,0.0714813,20.9503,-32.4239,0.169322,0.0,0.0
132,32.75,21.3906,23.3866,170.242,100.388,98.2993,0.00445677,0.0718004,20.9494,-32.4639,0.190559,0.0,0.0
143,35.5,21.1584,24.1255,171.738,100.388,98.1663,0.00515312,0.0728387,20.9485,-32.564,0.202757,0.0,0.0
154,38.25,21.7915,23.6318,166.433,100.368,96.5968,0.00581688,0.0752923,20.9432,-32.6441,0.347057,0.0,0.0
165,41,22.1985,25.2314,161.557,100.377,100.586,0.00530848,0.117845,20.8976,-32.6541,-0.0187847,0.0,1.0
176,43.75,23.753,27.7284,158.346,100.376,100.632,0.00413049,0.156823,20.8656,-32.8844,-0.023042,0.0,1.0
187,46.5,23.057,27.7889,161.041,100.383,101.095,0.00331809,0.172628,20.8512,-33.1146,-0.0640791,0.0,0.0
198,49.25,24.2699,28.3475,161.881,100.373,100.686,0.00289734,0.179726,20.8431,-33.1947,-0.0281827,0.0,0.0
209,52,24.6384,29.6189,160.984,100.359,101.006,0.00256467,0.182823,20.8414,-33.3849,-0.0581726,0.0,0.0
220,54.75,24.9797,30.3141,165.572,100.369,101.06,0.00249404,0.182904,20.8417,-33.455,-0.0622532,0.0,0.0
231,57.5,25.9357,30.7432,167.954,100.378,101.313,0.00265618,0.181471,20.8422,-33.6051,-0.0840455,0.0,0.0
242,60.25,25.2475,30.7726,158.92,100.384,101.061,0.00272988,0.17927,20.8423,-33.6652,-0.0609296,0.0,0.0
253,63,25.3881,30.6158,164.174,100.378,100.922,0.00263836,0.179478,20.8424,-33.8854,-0.0489699,0.0,0.0
264,65.75,26.2337,31.0201,167.859,100.367,100.867,0.00250666,0.179585,20.8424,-34.0056,-0.0449778,0.0,0.0
275,68.5,26.0795,31.0687,168.149,100.358,100.924,0.00259283,0.178313,20.843,-34.1457,-0.0509756,0.0,0.0
286,71.25,26.6118,31.2152,167.139,100.357,100.865,0.00268848,0.176691,20.8452,-34.2458,-0.0457719,0.0,0.0
297,74,25.5946,30.8592,167.777,100.343,101.003,0.00275983,0.17527,20.8469,-34.3559,-0.0593969,0.0,0.0
308,76.75,26.1684,31.252,167.062,100.352,101.094,0.00295279,0.173906,20.8474,-34.5661,-0.0668166,0.0,0.0
319,79.5,26.4627,31.7887,158.216,100.355,101.028,0.0032805,0.17274,20.8483,-34.5762,-0.0605696,0.0,0.0
330,82.25,26.3659,30.987,159.826,100.342,101.036,0.00374388,0.170831,20.8498,-34.8164,-0.0624577,0.0,0.0
341,85,26.7163,30.9545,163.941,100.343,100.819,0.00421889,0.16851,20.8523,-34.8765,-0.0428931,0.0,0.0
352,87.75,26.0907,30.9985,167.085,100.345,100.699,0.00446642,0.166189,20.8534,-34.9265,-0.0319718,0.0,0.0
363,90.5,26.0083,30.8967,168.529,100.331,100.505,0.00451913,0.164296,20.8551,-35.0967,-0.0156969,0.0,0.0
374,93.25,26.5131,30.9586,164.208,100.323,100.492,0.00481005,0.162781,20.8567,-35.2469,-0.0152641,0.0,0.0
385,96,26.2435,30.5123,166.26,100.322,101.156,0.0052853,0.160679,20.8598,-35.4671,-0.0749439,0.0,0.0
396,98.75,25.6322,30.1522,164.28,100.33,101.011,0.00590071,0.158561,20.8613,-35.5271,-0.0613516,0.0,0.0
407,101.5,26.1001,30.0565,164.196,100.322,100.31,0.00663197,0.155346,20.8642,-35.6773,0.00105749,0.0,0.0
418,104.25,25.7995,29.9901,164.006,100.326,100.85,0.00710937,0.15052,20.8673,-35.6773,-0.0471547,0.0,0.0
429,107,25.6376,30.2394,163.348,100.327,101.455,0.00745729,0.149328,20.8689,-35.8475,-0.101282,0.0,0.0
440,109.75,25.7775,29.9588,164.214,100.343,100.627,0.0076374,0.145785,20.8727,-35.8975,-0.0256551,0.0,0.0
451,112.5,24.9619,28.9888,166.874,100.342,100.817,0.0079031,0.141108,20.8755,-35.9876,-0.0427857,0.0,0.0
462,115.25,25.3638,28.8621,165.751,100.349,101.043,0.00860046,0.133662,20.8825,-36.2379,-0.0624523,0.0,0.0
473,118,25.3761,28.8682,162.558,100.362,100.721,0.00879412,0.131335,20.8855,-36.1478,-0.0323658,0.0,0.0
484,120.75,25.2702,28.9196,169.384,100.353,100.774,0.0086466,0.131476,20.8865,-36.2879,-0.0378785,0.0,0.0
495,123.5,25.0255,27.9054,169.494,100.366,100.906,0.00875445,0.129202,20.8892,-36.4081,-0.0485957,0.0,0.0
506,126.25,24.9534,27.9217,161.42,100.367,99.9922,0.00885971,0.127256,20.8908,-36.4381,0.0338936,0.0,0.0
517,129,25.1103,27.7693,169.319,100.368,100.47,0.00888435,0.125965,20.8913,-36.5582,-0.00920825,0.0,0.0
528,131.75,24.4401,27.3093,162.861,100.385,100.763,0.00892292,0.125337,20.8915,-36.6984,-0.0340122,0.0,0.0
539,134.5,24.732,27.7703,170.704,100.375,100.071,0.00902528,0.123611,20.8929,-36.7484,0.0274901,0.0,0.0
550,137.25,24.6121,26.8206,171.026,100.385,100.279,0.00914595,0.122414,20.894,-36.7384,0.00953235,0.0,0.0
561,140,24.2733,27.1279,165.997,100.371,100.558,0.00908106,0.122578,20.8946,-36.8385,-0.0168446,0.0,0.0
572,142.75,24.3311,27.1931,166.332,100.386,100.234,0.00942989,0.119864,20.8976,-36.9486,0.0137582,0.0,0.0
583,145.5,22.342,25.0738,168.328,100.403,99.2558,0.00986614,0.111833,20.9076,-36.9486,0.104155,0.0,0.0
594,148.25,21.7443,24.9306,164.941,100.392,98.7874,0.0101074,0.106399,20.9114,-37.0587,0.146011,0.0,0.0
605,151,21.947,24.1956,169.865,100.404,99.1273,0.0102948,0.103927,20.9139,-37.1488,0.115965,0.0,0.0
616,153.75,21.9379,24.5037,164.465,100.406,99.0883,0.0102309,0.102496,20.9156,-37.1789,0.119749,0.0,0.0
627,156.5,21.944,24.434,166.728,100.403,98.8562,0.0100668,0.101829,20.9161,-37.259,0.140671,0.0,0.0
638,159.25,21.8473,23.8745,165.68,100.393,99.367,0.00990652,0.100728,20.9179,-37.3491,0.0930706,0.0,0.0
649,162,21.7315,23.5525,168.833,100.416,99.1111,0.00974156,0.100381,20.9191,-37.4091,0.118486,0.0,0.0
660,164.75,22.0241,23.8099,165.696,100.414,99.0701,0.00940531,0.100045,20.9196,-37.3691,0.122121,0.0,0.0
671,167.5,21.7004,24.0299,170.832,100.399,99.4186,0.00895817,0.0987744,20.9211,-37.4592,0.0889244,0.0,0.0
682,170.25,21.2197,23.3086,166.496,100.409,99.9077,0.00880075,0.0984503,20.9208,-37.5092,0.0453468,0.0,0.0
693,173,21.7397,24.2192,163.703,100.415,99.5739,0.00878697,0.098678,20.9201,-37.6293,0.0762334,0.0,0.0
704,175.75,21.8692,23.5125,168.839,100.421,99.5855,0.00845528,0.0985507,20.9199,-37.6293,0.0757331,0.0,0.0
715,178.5,22.0196,23.5641,165.947,100.406,99.7226,0.00796164,0.098933,20.9198,-37.7094,0.0619304,0.0,0.0
726,181.25,20.9421,23.408,171.808,100.394,99.4738,0.00766192,0.0989132,20.9198,-37.6794,0.0834182,0.0,0.0
737,184,21.1663,23.518,166.94,100.395,100.25,0.00750175,0.0989775,20.9194,-37.7395,0.0130765,0.0,0.0
748,186.75,21.9304,23.3052,165.803,100.404,100.036,0.00725562,0.0989057,20.9188,-37.7395,0.0333383,0.0,0.0
759,189.5,21.8497,23.9788,165.276,100.4,99.6968,0.00709852,0.0994062,20.9185,-37.7795,0.063679,0.0,0.0
770,192.25,21.4668,23.947,166.079,100.383,100.095,0.00703789,0.0987248,20.9186,-37.8195,0.026007,0.0,0.0
781,195,21.0594,23.4874,163.058,100.382,99.9376,0.0067901,0.0973256,20.9191,-37.8896,0.0402216,0.0,0.0
792,197.75,21.5226,23.6005,166.154,100.371,99.8592,0.00664819,0.0974666,20.9197,-37.9897,0.0462916,0.0,0.0
803,200.5,21.6085,23.8596,167.433,100.362,99.9543,0.0064887,0.0972842,20.9202,-37.9597,0.036885,0.0,0.0
814,203.25,21.2911,23.7595,162.659,100.363,100.108,0.00626928,0.0965735,20.9216,-38.0198,0.0231134,0.0,0.0
825,206,21.4374,24.0254,167.656,100.367,100.13,0.0061009,0.0961215,20.9233,-38.0498,0.0214259,0.0,0.0
836,208.75,21.2116,23.4617,172.05,100.371,100.21,0.00594878,0.0953847,20.9227,-38.1799,0.0145304,0.0,0.0
847,211.5,21.2781,23.5402,166.17,100.375,100.129,0.00584009,0.0955324,20.9223,-38.1699,0.0222697,0.0,0.0
858,214.25,20.7573,23.2859,169.729,100.393,99.7965,0.00585299,0.0961885,20.9221,-38.0598,0.0540317,0.0,0.0
869,217,21.293,23.4475,166.914,100.4,100.096,0.00571849,0.0957534,20.9221,-38.1799,0.027432,0.0,0.0
880,219.75,21.5082,23.612,172.228,100.393,100.62,0.00549583,0.0953404,20.9233,-38.1699,-0.0204686,0.0,0.0
891,222.5,21.2626,23.7724,165.047,100.391,100.277,0.00545026,0.0947149,20.9251,-38.25,0.0102812,0.0,0.0
902,225.25,21.4279,23.444,167.681,100.399,100.203,0.00542575,0.0946444,20.9257,-38.2099,0.0177848,0.0,0.0
913,228,20.9701,23.5288,166.167,100.404,100.454,0.00519993,0.0944089,20.9262,-38.22,-0.0044738,0.0,0.0
924,230.75,21.5379,23.7221,170.126,100.399,100.252,0.00514674,0.0942678,20.9269,-38.22,0.0133116,0.0,0.0
935,233.5,21.4582,23.1023,164.266,100.41,100.204,0.00507474,0.0944542,20.9272,-38.28,0.0186235,0.0,0.0
946,236.25,21.3069,23.3975,169.026,100.406,100.607,0.00506681,0.0943942,20.9273,-38.3101,-0.0181315,0.0,0.0
957,239,21.0495,23.5913,165.063,100.4,100.227,0.00510397,0.0944681,20.9273,-38.3201,0.0155808,0.0,0.0
968,241.75,21.5475,23.6315,168.185,100.403,100.254,0.00502384,0.0943049,20.9273,-38.3601,0.0134173,0.0,0.0
979,244.5,21.3077,24.0719,166.74,100.407,100.416,0.00498949,0.0939512,20.9273,-38.3901,-0.00074485,0.0,0.0
990,247.25,21.2749,23.5431,170.36,100.41,100.49,0.00515934,0.0931735,20.9273,-38.3901,-0.00722855,0.0,0.0
1001,250,21.7493,23.7191,170.107,100.416,100.982,0.00528481,0.0927524,20.9273,-38.4602,-0.0509332,0.0,0.0
1012,252.75,21.6317,23.7356,167.241,100.435,100.432,,0.0929984,,-38.4202,0.000324064,0.0,0.0
1023,255.5,21.2414,23.9637,171.409,100.441,100.455,,0.0932796,,-38.4702,-0.0012094,0.0,0.0
1034,258.25,21.1783,23.6303,167.823,100.445,100.701,,,,-38.5103,-0.0230301,0.0,0.0
1045,261,21.1693,23.948,170.238,100.436,100.451,,,,-38.6304,-0.00137308,0.0,0.0
1055,263.5,21.448,24.2154,165.112,100.446,100.407,,,,-38.5903,0.0034442,0.0,0.0

File: Cotton_Raw_Cone_HF35-Frame+GridScalar_200909_R1.csv
LABORATORY,FSRI
TEST IDENT,RawCotton_35_1
OPERATOR,Dow
MATERIAL,Raw cotton
ORIENTATION,Horizontal
HEAT FLUX,35
SURF AREA,0.01
C FACTOR,0.0376049
SPEC HOLDER DIFF,345.4
SPECIMEN MASS,6.8
SCAN TIME,0.25
O2 DELAY TIME,11
CO DELAY TIME,11
CO2 DELAY TIME,8
FLOW FACTOR,1
SCAN COUNT,1095
TIME TO IGN,9
END OF TEST SCAN,615
END OF TEST TIME,153.75
TEST STATUS,1

File: Cotton_Raw_Cone_HF35-Frame+GridScalar_200909_R3.csv
LABORATORY,FSRI
TEST IDENT,RawCotton_35_3
OPERATOR,Dow
MATERIAL,Raw cotton
ORIENTATION,Horizontal
HEAT FLUX,35
SURF AREA,0.01
C FACTOR,0.0376049
SPEC HOLDER DIFF,348.5
SPECIMEN MASS,7.2
SCAN TIME,0.25
O2 DELAY TIME,11
CO DELAY TIME,11
CO2 DELAY TIME,8
FLOW FACTOR,1
SCAN COUNT,1066
TIME TO IGN,6.75
END OF TEST SCAN,586
END OF TEST TIME,146.5
TEST STATUS,1