Folder: fsri_materials_database/01_Data/Cotton_Raw/MCC

Note: 01_Data/README.md
# Materials and Products Database
## 01_Data

Raw data generated from each apparatus are included here in plain-text format. The data is organized first by material, next by the short name of test apparatus used, and where applicable additional filtering by test settings.

### material.json

Each material directory contains a json file of the same name as the material. This file links the data stored in the repository as well as data and graphs produced by the accompanying scripts (__02_Scripts__) to the respective landing page for the material on the front-end website.

File: Cotton_Raw_MCC_30K_min_210708_R1.txt
Sample ID:	C:\MCC\MCC Cal\Test\New folder\Cotton_Raw_MCC_30K_min_210708_R1.txt
Sample Weight (mg):	4
Heating Rate (C/s):	0.5
Combustor Temp (C):	900
N2 Flow Rate (cc/min):	80
O2 Flow Rate (cc/min):	20
Calibration File:	C:\MCC\MCC Cal\Coeff1 JN10440_30_210304.txt.txt
T Correction Coefficients:	0	1.024463	0
Time Shift (s):	14
*
Time (s)	Temperature (C)	N2 flow rate (cc/min)	O2 flow rate (cc/min)	Flow Rate (cc/min)	Oxygen (%)	HRR (W/g)	Heating rate (C/s)
0.000	110.017	79.991	19.995	99.896	20.151	-0.094	-0.027
7.998	109.935	79.992	19.997	99.899	20.148	0.169	-0.025
15.998	109.911	79.993	19.997	99.911	20.141	0.714	0.005
23.998	109.949	79.993	19.995	99.981	20.137	0.969	0.009
31.999	110.385	79.994	19.995	100.078	20.118	2.500	0.067
39.999	111.312	79.994	19.997	100.111	20.110	3.067	0.149
47.998	112.704	79.994	19.996	100.115	20.107	3.310	0.213
55.998	114.461	79.997	19.995	100.068	20.113	2.890	0.222
63.998	116.371	79.996	19.995	100.080	20.110	3.061	0.278
71.999	118.444	79.993	19.996	100.092	20.110	3.092	0.248
79.999	120.743	79.993	19.996	100.111	20.106	3.438	0.298
87.999	123.305	79.993	19.995	100.123	20.107	3.351	0.334
95.999	126.081	79.992	19.995	100.134	20.098	4.008	0.359
104.000	128.981	79.992	19.997	100.138	20.107	3.315	0.392
111.999	132.076	79.993	19.996	100.157	20.099	3.989	0.402
119.999	135.378	79.996	19.995	100.137	20.098	4.010	0.437
127.999	138.801	79.994	19.994	100.147	20.104	3.533	0.443
135.999	142.337	79.995	19.996	100.146	20.103	3.629	0.446
143.999	145.966	79.996	19.995	100.140	20.102	3.760	0.476
151.999	149.722	79.992	19.994	100.160	20.103	3.634	0.494
159.999	153.479	79.994	19.997	100.149	20.102	3.691	0.450
167.999	157.264	79.991	19.995	100.139	20.100	3.865	0.481
175.999	161.201	79.992	19.996	100.150	20.101	3.798	0.490
183.999	165.148	79.994	19.997	100.133	20.104	3.595	0.478
191.999	169.138	79.994	19.995	100.132	20.105	3.522	0.508
199.999	173.175	79.997	19.995	100.132	20.106	3.436	0.500
207.999	177.209	79.996	19.995	100.130	20.104	3.547	0.524
215.999	181.264	79.994	19.996	100.134	20.102	3.746	0.505
223.999	185.274	79.996	19.994	100.122	20.100	3.877	0.491
231.999	189.358	79.992	19.994	100.115	20.098	4.073	0.494
239.999	193.400	79.993	19.996	100.125	20.101	3.778	0.492
247.999	197.408	79.996	19.997	100.105	20.107	3.367	0.537
255.999	201.361	79.993	19.997	100.109	20.105	3.514	0.507
263.999	205.351	79.993	19.996	100.101	20.103	3.675	0.507
271.999	209.334	79.996	19.997	100.106	20.103	3.621	0.488
279.999	213.253	79.995	19.997	100.098	20.095	4.241	0.476
287.999	217.211	79.994	19.996	100.104	20.097	4.098	0.515
295.999	221.155	79.995	19.995	100.102	20.090	4.685	0.497
303.999	225.059	79.994	19.995	100.121	20.080	5.440	0.496
311.999	229.044	79.993	19.995	100.124	20.070	6.250	0.519
319.999	232.974	79.994	19.993	100.121	20.064	6.673	0.498
327.999	236.893	79.994	19.996	100.120	20.053	7.587	0.496
335.999	240.805	79.990	19.997	100.131	20.046	8.114	0.467
343.999	244.863	79.992	19.996	100.125	20.030	9.326	0.510
352.000	248.856	79.994	19.996	100.133	20.017	10.360	0.482
359.999	252.903	79.993	19.996	100.137	20.006	11.202	0.498
367.999	256.943	79.993	19.997	100.136	19.996	12.023	0.552
375.999	261.037	79.995	19.995	100.129	19.977	13.488	0.495
383.999	265.055	79.995	19.995	100.134	19.962	14.669	0.490
391.999	269.051	79.994	19.996	100.142	19.947	15.860	0.519
399.999	273.087	79.994	19.996	100.151	19.929	17.279	0.484
407.999	277.067	79.993	19.995	100.168	19.901	19.406	0.502
415.999	281.038	79.994	19.995	100.177	19.872	21.680	0.499
423.999	284.947	79.994	19.996	100.189	19.842	24.065	0.487
431.999	288.936	79.995	19.996	100.212	19.811	26.497	0.473
439.999	292.933	79.997	19.995	100.211	19.772	29.500	0.507
447.999	296.977	79.993	19.997	100.227	19.726	33.114	0.516
455.999	300.974	79.995	19.997	100.254	19.680	36.734	0.513
463.999	304.970	79.998	19.995	100.268	19.629	40.717	0.489
471.999	308.975	79.993	19.995	100.294	19.570	45.371	0.482
479.999	313.038	79.995	19.996	100.332	19.506	50.382	0.518
487.999	317.061	79.994	19.995	100.363	19.423	56.889	0.489
495.999	321.076	79.994	19.996	100.393	19.325	64.643	0.499
503.999	325.036	79.994	19.995	100.447	19.206	73.940	0.478
511.999	329.063	79.997	19.996	100.488	19.057	85.627	0.553
519.999	332.999	79.995	19.995	100.485	18.929	95.463	0.498
527.999	336.997	79.996	19.996	100.343	18.948	93.853	0.489
535.999	341.035	79.994	19.996	100.172	19.174	76.176	0.535
543.999	345.027	79.994	19.997	100.103	19.476	52.582	0.510
551.999	349.037	79.995	19.995	100.097	19.719	33.657	0.486
559.999	353.115	79.996	19.995	100.095	19.860	22.615	0.496
567.999	357.206	79.993	19.995	100.093	19.943	16.100	0.575
575.999	361.329	79.991	19.996	100.090	19.978	13.404	0.538
583.999	365.299	79.994	19.995	100.084	19.996	11.984	0.520
591.999	369.329	79.995	19.996	100.082	20.007	11.154	0.473
599.999	373.385	79.995	19.996	100.076	20.009	10.945	0.497
607.999	377.460	79.996	19.996	100.086	20.012	10.750	0.505
615.999	381.487	79.998	19.995	100.068	20.017	10.347	0.507
623.999	385.516	79.992	19.997	100.063	20.017	10.355	0.496
631.999	389.545	79.994	19.997	100.068	20.019	10.175	0.504
639.999	393.611	79.997	19.995	100.066	20.020	10.118	0.545
647.999	397.643	79.996	19.995	100.058	20.030	9.360	0.507
655.999	401.683	79.994	19.995	100.061	20.037	8.824	0.512
664.000	405.773	79.994	19.996	100.061	20.047	8.033	0.517
671.999	409.827	79.995	19.995	100.061	20.047	8.033	0.505
679.999	413.930	79.994	19.996	100.062	20.053	7.571	0.504
687.999	417.893	79.995	19.995	100.054	20.059	7.099	0.495
695.999	421.982	79.997	19.996	100.056	20.058	7.133	0.496
703.999	426.029	79.994	19.996	100.054	20.064	6.655	0.533
711.999	430.046	79.993	19.997	100.054	20.072	6.078	0.485
719.999	434.137	79.993	19.997	100.053	20.078	5.565	0.504
727.999	438.144	79.995	19.995	100.054	20.081	5.356	0.507
735.999	442.121	79.994	19.996	100.052	20.087	4.922	0.484
743.999	446.166	79.996	19.995	100.046	20.094	4.361	0.524
751.999	450.166	79.996	19.996	100.043	20.096	4.190	0.463
759.999	454.184	79.999	19.995	100.036	20.100	3.858	0.510
767.999	458.209	79.996	19.996	100.033	20.099	3.982	0.508
775.999	462.300	79.995	19.997	100.033	20.107	3.347	0.523
783.999	466.381	79.993	19.997	100.037	20.107	3.363	0.519
791.999	470.470	79.994	19.996	100.040	20.111	2.980	0.518
799.999	474.626	79.995	19.996	100.042	20.116	2.606	0.513
807.999	478.709	79.994	19.996	100.043	20.118	2.486	0.508
815.999	482.792	79.994	19.996	100.021	20.118	2.451	0.493
823.999	486.919	79.995	19.996	100.019	20.119	2.370	0.519
831.999	490.922	79.996	19.996	100.014	20.121	2.255	0.524
839.999	495.012	79.994	19.995	100.026	20.125	1.960	0.509
847.999	498.982	79.997	19.995	100.020	20.125	1.919	0.476
855.999	503.082	79.998	19.995	100.016	20.130	1.560	0.523
863.999	507.093	79.993	19.996	100.022	20.132	1.415	0.513
871.999	511.160	79.992	19.996	100.025	20.132	1.349	0.519
879.999	515.186	79.994	19.996	100.027	20.137	0.964	0.530
887.999	519.239	79.993	19.997	100.039	20.133	1.287	0.509
895.999	523.332	79.994	19.996	100.027	20.135	1.124	0.482
903.999	527.443	79.995	19.995	100.021	20.136	1.056	0.481
911.999	531.663	79.994	19.996	100.025	20.136	1.088	0.563
919.999	535.729	79.995	19.995	100.025	20.134	1.184	0.492
927.999	539.899	79.996	19.994	100.037	20.133	1.280	0.545
935.999	543.951	79.996	19.995	100.020	20.132	1.349	0.516
943.999	548.070	79.993	19.996	100.023	20.135	1.167	0.530
951.999	552.150	79.993	19.996	100.049	20.132	1.372	0.515
960.000	556.291	79.996	19.997	100.025	20.128	1.716	0.484
967.999	560.399	79.992	19.997	100.030	20.126	1.819	0.523
976.000	564.501	79.993	19.996	100.050	20.132	1.404	0.481
983.999	568.714	79.997	19.996	100.032	20.127	1.740	0.536
991.999	572.827	79.995	19.995	100.046	20.132	1.381	0.496
999.999	577.040	79.995	19.995	100.041	20.135	1.111	0.503
1007.999	581.116	79.997	19.995	100.029	20.130	1.571	0.512
1015.999	585.195	79.995	19.996	100.035	20.126	1.874	0.516
1023.999	589.252	79.994	19.996	100.018	20.125	1.936	0.521
1031.999	593.255	79.995	19.996	100.023	20.125	1.892	0.507
1039.998	597.323	79.993	19.997	100.020	20.123	2.112	0.508
1047.998	601.425	79.994	19.997	100.019	20.123	2.060	0.494
1055.998	605.437	79.994	19.995	100.018	20.125	1.908	0.511
1063.998	609.452	79.996	19.996	100.015	20.132	1.378	0.498
1071.998	613.475	79.997	19.997	100.013	20.135	1.128	0.502
1079.998	617.575	79.995	19.995	100.015	20.133	1.274	0.504
1087.999	621.657	79.997	19.996	100.011	20.136	1.092	0.479
1095.998	625.725	79.995	19.995	100.011	20.137	0.970	0.515
1103.998	629.749	79.994	19.996	100.021	20.135	1.139	0.510
1111.998	633.830	79.995	19.996	100.016	20.137	0.985	0.502
1119.999	637.948	79.993	19.996	100.016	20.140	0.727	0.527
1127.998	642.092	79.994	19.997	100.013	20.136	1.077	0.502
1135.998	646.224	79.995	19.996	100.013	20.133	1.267	0.537
1143.999	650.297	79.996	19.996	100.011	20.133	1.295	0.504
1151.998	654.517	79.994	19.997	100.001	20.136	1.086	0.529
1159.998	658.643	79.995	19.995	100.008	20.136	1.030	0.517
1167.998	662.769	79.996	19.995	100.006	20.134	1.214	0.532
1175.998	666.846	79.993	19.996	100.014	20.134	1.197	0.504
1183.998	670.920	79.994	19.995	100.017	20.137	0.994	0.481
1191.998	675.025	79.996	19.995	100.010	20.137	1.024	0.547
1199.998	679.060	79.994	19.996	99.999	20.139	0.801	0.566
1207.998	683.032	79.993	19.996	100.002	20.133	1.274	0.496
1215.998	687.105	79.995	19.996	99.993	20.135	1.111	0.512
1223.998	691.127	79.995	19.996	100.012	20.138	0.942	0.518
1231.998	695.183	79.995	19.996	99.999	20.138	0.917	0.520
1239.998	699.217	79.995	19.997	100.004	20.140	0.757	0.519
1247.998	703.218	79.997	19.996	100.009	20.137	1.009	0.497
1255.998	707.239	79.995	19.996	100.005	20.136	1.049	0.492
1263.998	711.349	79.995	19.996	99.996	20.135	1.152	0.532
1271.999	715.464	79.994	19.996	100.008	20.134	1.246	0.532
1279.998	719.596	79.993	19.996	99.999	20.136	1.068	0.497
1287.998	723.736	79.995	19.996	100.004	20.137	0.964	0.515
1295.998	727.818	79.997	19.996	99.990	20.134	1.252	0.519
1303.998	731.879	79.995	19.995	100.011	20.135	1.141	0.483
1311.998	735.936	79.995	19.996	100.004	20.133	1.267	0.515
1319.998	739.931	79.998	19.996	100.007	20.136	1.096	0.510
1326.998	743.473	79.996	19.997	100.004	20.133	1.291	0.507

File: Cotton_Raw_MCC_30K_min_210708_R2.txt
Sample ID:	C:\MCC\MCC Cal\Test\New folder\Cotton_Raw_MCC_30K_min_210708_R2.txt
Sample Weight (mg):	4.47
Heating Rate (C/s):	0.5
Combustor Temp (C):	900
N2 Flow Rate (cc/min):	80
O2 Flow Rate (cc/min):	20
Calibration File:	C:\MCC\MCC Cal\Coeff1 JN10440_30_210304.txt.txt
T Correction Coefficients:	0	1.024463	0
Time Shift (s):	14
*
Time (s)	Temperature (C)	N2 flow rate (cc/min)	O2 flow rate (cc/min)	Flow Rate (cc/min)	Oxygen (%)	HRR (W/g)	Heating rate (C/s)
0.000	109.880	79.995	19.996	99.917	20.199	-0.224	0.001
8.000	109.838	79.995	19.996	99.929	20.199	-0.164	0.013
16.001	109.803	79.999	19.995	99.909	20.195	0.067	0.022
24.001	109.779	79.996	19.996	99.977	20.184	0.875	0.014
32.000	110.039	79.994	19.996	100.047	20.175	1.467	0.037
40.000	110.755	79.994	19.996	100.114	20.162	2.394	0.136
48.000	112.007	79.995	19.996	100.145	20.154	2.948	0.183
56.000	113.692	79.995	19.996	100.168	20.149	3.273	0.223
64.000	115.875	79.996	19.997	100.169	20.150	3.218	0.262
72.000	118.399	79.998	19.995	100.171	20.145	3.586	0.343
80.000	121.176	79.996	19.995	100.168	20.150	3.260	0.343
88.000	124.226	79.995	19.995	100.176	20.144	3.625	0.386
96.000	127.401	79.996	19.995	100.185	20.153	3.046	0.384
104.000	130.824	79.995	19.996	100.186	20.148	3.338	0.428
112.000	134.396	79.995	19.995	100.148	20.151	3.130	0.475
120.000	138.100	79.994	19.996	100.174	20.149	3.295	0.455
128.000	141.904	79.996	19.996	100.177	20.148	3.346	0.470
136.000	145.872	79.996	19.996	100.172	20.150	3.206	0.522
144.000	149.807	79.995	19.995	100.170	20.147	3.412	0.502
152.000	153.826	79.998	19.996	100.248	20.150	3.235	0.492
160.001	157.788	79.995	19.995	100.171	20.149	3.283	0.480
168.000	161.863	79.994	19.996	100.173	20.149	3.271	0.497
176.000	165.956	79.994	19.995	100.166	20.147	3.438	0.498
184.000	169.964	79.995	19.995	100.178	20.151	3.165	0.463
192.000	174.030	79.996	19.995	100.160	20.153	2.985	0.514
200.000	178.022	79.996	19.996	100.139	20.155	2.903	0.519
208.000	182.040	79.997	19.996	100.219	20.152	3.074	0.473
216.000	186.019	79.996	19.996	100.159	20.152	3.071	0.510
224.000	189.971	79.996	19.995	100.133	20.154	2.966	0.527
232.000	193.861	79.996	19.996	100.135	20.152	3.079	0.473
240.000	197.786	79.995	19.995	100.131	20.149	3.322	0.474
248.000	201.700	79.995	19.996	100.130	20.151	3.186	0.501
256.000	205.545	79.995	19.995	100.130	20.150	3.253	0.485
264.000	209.442	79.997	19.995	100.130	20.147	3.422	0.493
272.000	213.341	79.995	19.995	100.131	20.138	4.048	0.486
280.000	217.280	79.995	19.995	100.136	20.129	4.697	0.504
288.000	221.169	79.996	19.995	100.162	20.125	4.971	0.488
296.000	225.108	79.995	19.996	100.131	20.119	5.411	0.516
304.000	229.157	79.996	19.995	100.141	20.109	6.130	0.528
312.000	233.132	79.998	19.996	100.139	20.102	6.556	0.510
320.000	237.129	79.993	19.997	100.152	20.089	7.512	0.518
328.000	241.155	79.995	19.996	100.152	20.081	8.041	0.532
336.000	245.130	79.993	19.995	100.168	20.064	9.215	0.497
344.000	249.191	79.994	19.996	100.171	20.049	10.277	0.496
352.000	253.282	79.995	19.995	100.173	20.029	11.698	0.488
360.000	257.301	79.993	19.995	100.172	20.022	12.175	0.500
368.000	261.232	79.998	19.995	100.180	20.008	13.157	0.499
376.000	265.280	79.997	19.994	100.177	19.987	14.661	0.479
384.000	269.298	79.995	19.995	100.203	19.968	15.984	0.488
392.000	273.362	79.997	19.995	100.203	19.950	17.228	0.518
400.000	277.362	79.994	19.995	100.211	19.918	19.445	0.492
408.000	281.388	79.994	19.996	100.223	19.891	21.353	0.513
416.001	285.329	79.995	19.996	100.241	19.856	23.794	0.499
424.000	289.357	79.995	19.995	100.256	19.818	26.463	0.495
432.000	293.361	79.994	19.996	100.276	19.778	29.334	0.502
440.000	297.392	79.997	19.995	100.215	19.727	32.871	0.490
448.000	301.436	79.995	19.994	100.310	19.671	36.780	0.518
456.000	305.442	79.995	19.996	100.329	19.608	41.183	0.531
464.000	309.408	79.997	19.994	100.359	19.546	45.594	0.502
472.000	313.445	79.997	19.996	100.460	19.463	51.384	0.516
480.000	317.410	79.993	19.995	100.434	19.372	57.806	0.536
488.000	321.382	79.994	19.995	100.487	19.259	65.778	0.518
496.000	325.339	79.994	19.997	100.546	19.109	76.404	0.492
504.000	329.373	79.994	19.996	100.616	18.917	89.782	0.522
512.000	333.376	79.993	19.996	100.621	18.747	101.432	0.507
520.000	337.415	79.996	19.995	100.404	18.787	98.528	0.485
528.000	341.501	79.995	19.995	100.177	19.095	76.945	0.505
536.000	345.547	79.996	19.995	100.130	19.464	51.186	0.520
544.000	349.620	79.997	19.995	100.129	19.736	32.153	0.516
552.000	353.711	79.997	19.995	100.130	19.895	21.037	0.505
560.001	357.877	79.996	19.997	100.127	19.969	15.900	0.525
568.000	362.019	79.995	19.997	100.117	20.001	13.652	0.524
576.000	366.159	79.996	19.996	100.118	20.016	12.562	0.529
584.000	370.252	79.994	19.997	100.116	20.027	11.828	0.519
592.000	374.328	79.994	19.996	100.110	20.032	11.449	0.499
600.000	378.394	79.997	19.995	100.116	20.035	11.296	0.490
608.000	382.435	79.997	19.995	100.107	20.036	11.180	0.489
616.000	386.374	79.996	19.998	100.119	20.040	10.885	0.484
624.000	390.323	80.036	20.011	100.148	20.051	10.159	0.460
632.000	394.344	79.997	19.995	100.112	20.052	10.087	0.517
640.000	398.310	79.996	19.996	100.112	20.058	9.680	0.488
648.000	402.273	79.995	19.996	100.099	20.058	9.625	0.526
656.000	406.338	79.996	19.996	100.099	20.065	9.166	0.538
664.000	410.224	79.994	19.996	100.103	20.065	9.179	0.513
672.000	414.228	79.994	19.996	100.098	20.069	8.898	0.463
680.000	418.224	79.995	19.996	100.093	20.075	8.469	0.504
688.000	422.250	79.994	19.995	100.088	20.082	7.969	0.498
696.000	426.292	79.997	19.995	100.089	20.086	7.669	0.523
704.000	430.355	79.997	19.995	100.086	20.096	6.972	0.495
712.000	434.484	79.996	19.995	100.088	20.095	7.054	0.522
720.000	438.609	79.995	19.995	100.087	20.102	6.547	0.480
728.000	442.676	79.994	19.996	100.079	20.101	6.629	0.473
736.000	446.768	79.996	19.996	100.077	20.108	6.135	0.471
744.000	450.781	79.993	19.996	100.083	20.112	5.884	0.522
752.000	454.844	79.994	19.995	100.074	20.116	5.571	0.522
760.000	458.910	79.996	19.998	100.075	20.125	4.992	0.528
768.000	462.905	79.995	19.996	100.060	20.124	5.032	0.523
776.001	466.886	79.996	19.995	100.075	20.130	4.660	0.498
784.000	470.932	79.997	19.996	100.062	20.132	4.481	0.516
792.000	475.014	79.995	19.993	100.081	20.137	4.169	0.490
800.000	479.088	79.994	19.993	100.071	20.141	3.825	0.499
808.000	483.178	79.994	19.992	100.071	20.141	3.875	0.509
816.000	487.281	79.995	19.995	100.067	20.145	3.545	0.525
824.000	491.383	79.994	19.995	100.063	20.147	3.434	0.474
832.000	495.577	79.995	19.995	100.059	20.147	3.458	0.522
840.000	499.638	79.995	19.996	100.065	20.152	3.075	0.509
848.000	503.735	79.994	19.996	100.068	20.152	3.096	0.510
856.000	507.828	79.997	19.995	100.054	20.152	3.090	0.491
864.000	511.885	79.997	19.995	100.058	20.152	3.069	0.489
872.001	516.037	79.996	19.996	100.054	20.154	2.956	0.515
880.000	520.147	79.994	19.997	100.063	20.158	2.680	0.520
888.001	524.216	79.996	19.994	100.054	20.157	2.734	0.514
896.000	528.357	79.995	19.997	100.056	20.157	2.768	0.543
904.000	532.460	79.993	19.996	100.055	20.157	2.751	0.481
912.000	536.700	79.996	19.997	100.053	20.157	2.713	0.535
920.000	540.779	79.996	19.994	100.052	20.155	2.862	0.524
928.000	544.881	79.996	19.996	100.059	20.161	2.474	0.503
936.000	548.962	79.997	19.997	100.053	20.158	2.638	0.538
944.000	553.017	79.996	19.996	100.047	20.160	2.506	0.505
952.000	557.090	79.994	19.995	100.051	20.156	2.789	0.505
960.000	561.145	79.995	19.996	100.053	20.158	2.654	0.522
968.000	565.231	79.996	19.996	100.058	20.158	2.682	0.539
976.000	569.258	79.994	19.993	100.054	20.157	2.745	0.506
984.000	573.328	79.993	19.996	100.069	20.157	2.730	0.508
992.000	577.480	79.994	19.993	100.059	20.152	3.086	0.533
1000.000	581.502	79.995	19.996	100.054	20.153	3.042	0.498
1008.000	585.530	79.995	19.996	100.051	20.148	3.337	0.469
1016.000	589.618	79.997	19.996	100.050	20.152	3.107	0.528
1024.000	593.695	79.996	19.998	100.050	20.151	3.168	0.544
1032.000	597.759	79.995	19.996	100.048	20.146	3.497	0.493
1040.000	601.900	79.994	19.996	100.054	20.149	3.319	0.490
1048.000	606.006	79.995	19.995	100.055	20.156	2.799	0.546
1056.000	610.064	79.994	19.996	100.055	20.158	2.649	0.501
1064.000	614.220	79.994	19.994	100.053	20.162	2.386	0.505
1072.000	618.384	79.997	19.995	100.049	20.166	2.139	0.520
1080.000	622.441	79.996	19.995	100.040	20.165	2.165	0.532
1088.001	626.459	79.996	19.996	100.043	20.164	2.270	0.508
1096.001	630.508	79.996	19.996	100.031	20.165	2.186	0.522
1104.000	634.491	79.996	19.996	100.026	20.159	2.573	0.529
1112.000	638.544	79.994	19.997	100.043	20.163	2.303	0.509
1120.000	642.522	79.994	19.995	100.052	20.163	2.309	0.528
1128.000	646.574	79.996	19.996	100.042	20.165	2.202	0.519
1136.000	650.614	79.993	19.995	100.034	20.164	2.255	0.476
1144.000	654.715	79.993	19.996	100.035	20.166	2.141	0.508
1152.000	658.807	79.995	19.997	100.036	20.166	2.112	0.556
1160.000	662.859	79.996	19.995	100.047	20.165	2.188	0.504
1168.000	666.896	79.995	19.996	100.047	20.160	2.500	0.484
1176.000	670.993	79.997	19.996	100.043	20.162	2.374	0.501
1184.000	675.040	79.997	19.996	100.047	20.164	2.265	0.499
1192.001	679.122	79.996	19.995	100.041	20.162	2.386	0.535
1200.000	683.118	79.995	19.996	100.036	20.163	2.353	0.503
1208.000	687.132	79.996	19.995	100.035	20.163	2.330	0.488
1216.000	691.199	79.993	19.995	100.042	20.161	2.473	0.504
1224.000	695.235	79.995	19.995	100.038	20.163	2.315	0.476
1232.000	699.361	79.995	19.994	100.039	20.163	2.328	0.476
1240.000	703.439	79.995	19.994	100.025	20.159	2.599	0.481
1248.000	707.542	79.995	19.995	100.042	20.163	2.341	0.511
1256.000	711.699	79.997	19.996	100.019	20.162	2.415	0.511
1264.000	715.766	79.995	19.996	100.018	20.160	2.535	0.478
1272.000	719.792	79.995	19.996	100.020	20.160	2.532	0.496
1280.000	723.810	79.995	19.996	100.039	20.156	2.779	0.505
1288.000	727.781	79.994	19.996	100.021	20.156	2.796	0.511
1296.000	731.742	79.993	19.996	100.030	20.158	2.634	0.525
1304.000	735.659	79.995	19.995	100.039	20.159	2.619	0.493
1312.000	739.709	79.996	19.996	100.033	20.159	2.615	0.520
1319.500	743.521	79.995	19.995	100.027	20.157	2.750	0.502