Folder: fsri_materials_database/01_Data/Cotton_Raw/MCC (part 2)

File: Cotton_Raw_MCC_30K_min_210708_R3.txt
Sample ID:	C:\MCC\MCC Cal\Test\New folder\Cotton_Raw_MCC_30K_min_210708_R3.txt
Sample Weight (mg):	3.2
Heating Rate (C/s):	0.5
Combustor Temp (C):	900
N2 Flow Rate (cc/min):	80
O2 Flow Rate (cc/min):	20
Calibration File:	C:\MCC\MCC Cal\Coeff1 JN10440_30_210304.txt.txt
T Correction Coefficients:	0	1.024463	0
Time Shift (s):	14
*
Time (s)	Temperature (C)	N2 flow rate (cc/min)	O2 flow rate (cc/min)	Flow Rate (cc/min)	Oxygen (%)	HRR (W/g)	Heating rate (C/s)
0.000	107.699	79.993	19.995	99.901	20.266	0.099	-0.018
8.000	107.676	79.993	19.995	99.897	20.263	0.440	0.013
16.000	107.645	79.991	19.995	99.921	20.256	1.068	0.013
24.000	107.701	79.993	19.995	99.975	20.254	1.286	0.003
32.000	108.003	79.995	19.994	100.044	20.235	3.134	0.035
40.000	108.831	79.995	19.994	100.106	20.223	4.343	0.137
48.000	110.161	79.997	19.995	100.124	20.215	5.103	0.185
56.000	111.877	79.997	19.995	100.133	20.213	5.294	0.229
64.000	114.050	79.992	19.994	100.156	20.208	5.811	0.280
72.000	116.593	79.992	19.995	100.161	20.207	5.846	0.356
80.000	119.433	79.992	19.995	100.169	20.210	5.571	0.350
88.000	122.506	79.992	19.997	100.163	20.203	6.271	0.428
96.000	125.765	79.993	19.995	100.161	20.206	5.966	0.405
104.000	129.234	79.994	19.995	100.161	20.204	6.193	0.435
112.000	132.730	79.996	19.994	100.142	20.208	5.790	0.453
120.000	136.417	79.994	19.995	100.141	20.206	5.942	0.463
128.000	140.201	79.994	19.994	100.195	20.209	5.710	0.480
136.000	144.084	79.994	19.994	100.143	20.210	5.571	0.504
144.000	148.013	79.992	19.994	100.140	20.207	5.825	0.538
152.000	151.895	79.991	19.995	100.214	20.213	5.244	0.526
160.000	155.804	79.993	19.994	100.126	20.212	5.354	0.474
168.000	159.745	79.993	19.995	100.124	20.211	5.514	0.484
176.000	163.693	79.993	19.997	100.117	20.207	5.865	0.481
184.000	167.723	79.993	19.995	100.122	20.209	5.640	0.517
192.000	171.679	79.995	19.995	100.127	20.207	5.891	0.503
200.000	175.659	79.994	19.995	100.106	20.210	5.612	0.521
208.000	179.599	79.994	19.994	100.107	20.210	5.560	0.483
216.000	183.557	79.996	19.995	100.049	20.204	6.141	0.488
224.000	187.569	79.993	19.994	100.091	20.206	5.933	0.486
232.000	191.550	79.992	19.995	100.115	20.208	5.780	0.539
240.000	195.497	79.992	19.995	100.100	20.208	5.759	0.490
248.000	199.472	79.993	19.994	100.106	20.208	5.762	0.518
256.000	203.497	79.991	19.995	100.098	20.202	6.332	0.503
264.000	207.439	79.992	19.995	100.097	20.201	6.475	0.496
272.000	211.452	79.994	19.994	100.093	20.194	7.159	0.461
280.000	215.474	79.995	19.995	100.091	20.195	7.060	0.522
288.000	219.477	79.992	19.995	100.099	20.191	7.426	0.511
296.000	223.492	79.996	19.995	100.082	20.186	7.927	0.490
304.000	227.489	79.993	19.995	100.090	20.181	8.449	0.471
312.000	231.517	79.992	19.995	100.097	20.177	8.770	0.505
320.000	235.441	79.993	19.995	100.094	20.165	9.928	0.498
328.000	239.382	79.992	19.994	100.113	20.157	10.746	0.500
336.000	243.310	79.993	19.996	100.111	20.143	12.163	0.484
344.000	247.286	79.995	19.995	100.100	20.138	12.656	0.486
352.000	251.308	79.995	19.996	100.114	20.129	13.452	0.482
360.000	255.269	79.994	19.995	100.120	20.123	14.080	0.482
368.000	259.262	79.996	19.995	100.116	20.109	15.429	0.477
376.000	263.265	79.995	19.995	100.126	20.098	16.494	0.460
384.000	267.308	79.993	19.994	100.128	20.085	17.765	0.522
392.000	271.375	79.993	19.993	100.078	20.066	19.647	0.517
400.000	275.369	79.993	19.995	100.086	20.055	20.745	0.490
408.000	279.420	79.995	19.995	100.137	20.035	22.719	0.496
416.000	283.429	79.993	19.996	100.161	20.007	25.406	0.533
424.000	287.426	79.994	19.995	100.166	19.981	27.997	0.522
432.000	291.373	79.996	19.995	100.167	19.952	30.811	0.496
440.000	295.425	79.993	19.996	100.191	19.918	34.165	0.510
448.000	299.430	79.994	19.994	100.206	19.880	37.788	0.502
456.000	303.422	79.995	19.994	100.210	19.843	41.416	0.499
464.000	307.382	79.992	19.997	100.226	19.795	46.194	0.471
472.000	311.380	79.991	19.997	100.218	19.747	50.856	0.495
480.000	315.424	79.996	19.995	100.277	19.698	55.626	0.494
488.000	319.382	79.995	19.995	100.284	19.634	61.925	0.505
496.000	323.330	80.000	19.994	100.324	19.557	69.451	0.507
504.000	327.258	79.994	19.996	100.360	19.463	78.676	0.490
512.000	331.256	79.995	19.996	100.400	19.354	89.295	0.503
520.000	335.343	79.994	19.995	100.394	19.272	97.207	0.537
528.000	339.426	79.994	19.996	100.257	19.316	92.797	0.522
536.000	343.540	79.997	19.996	100.128	19.503	74.576	0.481
544.000	347.663	79.994	19.996	100.086	19.720	53.410	0.480
552.000	351.752	79.993	19.995	100.082	19.900	35.849	0.501
560.000	355.790	79.994	19.996	100.075	20.008	25.269	0.520
568.001	359.887	79.994	19.995	100.063	20.068	19.452	0.532
576.000	363.887	79.994	19.993	100.079	20.095	16.774	0.498
584.000	367.850	79.992	19.996	100.085	20.113	15.075	0.514
592.000	371.862	79.995	19.994	100.076	20.115	14.857	0.508
600.000	375.859	79.996	19.996	100.061	20.122	14.172	0.491
608.001	379.897	79.997	19.996	100.069	20.126	13.781	0.500
616.000	383.868	79.996	19.997	100.077	20.124	13.931	0.503
624.000	387.925	79.995	19.995	100.067	20.126	13.796	0.491
632.000	392.004	79.994	19.995	100.067	20.130	13.403	0.505
640.000	396.107	79.993	19.994	100.073	20.133	13.117	0.486
648.000	400.210	79.995	19.993	100.070	20.137	12.718	0.514
656.000	404.269	79.994	19.995	100.050	20.141	12.325	0.504
664.000	408.263	79.993	19.995	100.059	20.148	11.622	0.520
672.000	412.359	79.995	19.995	100.051	20.147	11.707	0.538
680.000	416.495	79.998	19.995	100.052	20.152	11.275	0.574
688.000	420.521	79.995	19.995	100.050	20.153	11.128	0.523
696.000	424.557	79.995	19.995	100.050	20.156	10.861	0.470
704.000	428.654	79.994	19.995	100.048	20.163	10.123	0.504
712.000	432.725	79.994	19.995	100.053	20.167	9.756	0.487
720.000	436.879	79.994	19.994	100.043	20.169	9.614	0.539
728.000	440.904	79.994	19.995	100.040	20.172	9.257	0.487
736.000	444.971	79.998	19.995	100.046	20.176	8.939	0.491
744.000	448.998	79.993	19.994	100.033	20.183	8.193	0.505
752.000	453.061	79.994	19.996	100.043	20.186	7.945	0.505
760.000	457.154	79.994	19.994	100.045	20.180	8.503	0.528
768.000	461.202	79.995	19.997	100.041	20.187	7.812	0.507
776.000	465.230	79.994	19.997	100.020	20.192	7.296	0.529
784.000	469.285	79.996	19.993	100.041	20.192	7.334	0.559
792.000	473.373	79.993	19.997	100.028	20.195	7.076	0.556
800.000	477.474	79.994	19.993	100.014	20.196	6.978	0.543
808.000	481.544	79.988	19.994	100.017	20.197	6.795	0.512
816.000	485.639	79.992	19.995	100.023	20.202	6.353	0.514
824.000	489.755	79.996	19.994	100.022	20.203	6.215	0.519
832.000	493.852	79.995	19.999	100.042	20.205	6.065	0.514
840.000	497.998	79.994	19.992	100.019	20.204	6.188	0.517
848.000	502.085	79.999	19.992	100.030	20.210	5.571	0.510
856.000	506.170	79.995	19.997	100.020	20.206	5.971	0.530
864.000	510.331	79.991	19.998	100.019	20.208	5.810	0.518
872.000	514.484	79.993	19.995	100.016	20.207	5.835	0.551
880.000	518.620	79.994	19.996	100.029	20.211	5.497	0.514
888.000	522.839	79.997	19.993	100.020	20.208	5.790	0.550
896.000	526.996	79.990	19.996	100.044	20.213	5.284	0.516
904.000	531.191	79.996	19.991	100.032	20.211	5.429	0.545
912.000	535.355	79.996	19.994	100.018	20.211	5.503	0.530
920.000	539.473	80.002	19.985	100.011	20.209	5.670	0.523
928.000	543.555	79.995	19.994	100.016	20.213	5.305	0.536
936.000	547.623	79.996	19.995	100.025	20.214	5.140	0.522
944.000	551.731	79.998	19.997	100.017	20.213	5.236	0.518
952.000	555.780	79.994	19.998	100.017	20.213	5.319	0.495
960.000	559.821	79.995	19.996	100.027	20.214	5.214	0.471
968.000	563.908	79.992	19.997	100.017	20.213	5.281	0.509
976.000	567.954	80.000	19.992	100.012	20.210	5.552	0.519
984.000	572.092	80.000	19.995	100.016	20.210	5.616	0.494
992.000	576.275	79.997	19.994	100.035	20.216	5.015	0.517
1000.000	580.392	79.996	19.994	100.037	20.210	5.575	0.496
1008.000	584.554	79.999	19.990	100.023	20.210	5.616	0.520
1016.001	588.615	79.995	19.995	100.032	20.209	5.698	0.503
1024.000	592.708	79.996	19.995	100.015	20.204	6.129	0.511
1032.000	596.793	79.994	19.996	100.017	20.206	5.944	0.527
1040.000	600.826	79.993	19.996	100.029	20.207	5.882	0.501
1048.000	604.867	79.995	19.996	100.011	20.212	5.340	0.509
1056.000	608.862	79.994	19.997	100.019	20.213	5.311	0.525
1064.000	612.817	79.995	19.997	100.016	20.214	5.218	0.482
1072.000	616.883	79.995	19.996	100.018	20.218	4.838	0.506
1080.000	620.956	79.995	19.994	100.012	20.216	5.017	0.520
1088.000	625.069	79.997	19.994	100.014	20.214	5.156	0.509
1096.000	629.214	79.995	19.995	100.010	20.215	5.123	0.552
1104.000	633.354	79.996	19.995	100.017	20.218	4.760	0.513
1112.000	637.525	79.997	19.994	100.012	20.214	5.147	0.503
1120.000	641.669	79.995	19.996	100.009	20.217	4.911	0.505
1128.000	645.846	79.994	19.995	100.013	20.212	5.421	0.518
1136.000	650.019	79.993	19.995	100.011	20.216	4.963	0.532
1144.000	654.201	79.994	19.996	100.010	20.219	4.715	0.515
1152.000	658.382	79.994	19.995	100.007	20.217	4.934	0.545
1160.000	662.522	79.993	19.995	100.007	20.215	5.046	0.518
1168.000	666.571	79.997	19.995	100.005	20.218	4.808	0.506
1176.000	670.693	79.994	19.995	100.007	20.213	5.260	0.488
1184.000	674.815	79.993	19.996	100.003	20.217	4.917	0.507
1192.000	678.784	79.995	19.996	100.010	20.216	4.995	0.505
1200.000	682.780	79.994	19.992	100.009	20.214	5.212	0.498
1208.000	686.808	79.992	19.996	100.006	20.213	5.292	0.524
1216.000	690.799	79.993	19.996	100.010	20.214	5.182	0.502
1224.000	694.854	79.993	19.996	100.004	20.214	5.185	0.507
1232.000	698.937	79.993	19.996	99.994	20.211	5.436	0.507
1240.000	703.037	79.993	19.995	100.003	20.209	5.687	0.492
1248.000	707.113	79.996	19.995	100.004	20.213	5.254	0.483
1256.000	711.160	79.995	19.995	99.997	20.212	5.359	0.529
1264.000	715.297	79.994	19.996	100.004	20.213	5.321	0.529
1272.000	719.475	79.993	19.996	100.011	20.214	5.198	0.527
1280.000	723.570	79.995	19.993	100.002	20.214	5.163	0.494
1288.000	727.673	79.994	19.996	100.002	20.212	5.348	0.507
1296.000	731.743	79.994	19.995	100.001	20.210	5.585	0.517
1304.000	735.743	79.995	19.996	100.006	20.205	6.092	0.503
1312.000	739.752	79.995	19.995	99.981	20.209	5.708	0.526
1320.000	743.716	79.997	19.996	100.007	20.211	5.511	0.517