Folder: fsri_materials_database/01_Data/PMMA_R05/MCC (part 2)

File: PMMA_R05_MCC_30K_min_211013_R3.txt
Sample ID:	C:\MCC\MCC Cal\Test\PMMAR05_MCC_30K_min_211013_R3.txt
Sample Weight (mg):	4.88
Heating Rate (C/s):	0.5
Combustor Temp (C):	900
N2 Flow Rate (cc/min):	80
O2 Flow Rate (cc/min):	20
Calibration File:	C:\MCC\MCC Cal\Coeff1 JN10440_30_210304.txt.txt
T Correction Coefficients:	0	1.024463	0
Time Shift (s):	14
*
Time (s)	Temperature (C)	N2 flow rate (cc/min)	O2 flow rate (cc/min)	Flow Rate (cc/min)	Oxygen (%)	HRR (W/g)	Heating rate (C/s)
0.000	108.632	79.994	19.996	103.019	20.196	0.020	-0.018
8.000	108.593	79.993	19.995	103.024	20.196	0.043	0.000
16.000	108.656	79.992	19.995	103.130	20.176	1.372	0.017
24.000	109.120	79.992	19.994	103.189	20.166	2.030	0.056
32.000	109.979	79.991	19.996	103.165	20.164	2.160	0.126
40.000	111.158	79.992	19.995	103.200	20.159	2.505	0.146
48.000	112.829	79.994	19.995	103.256	20.155	2.723	0.237
56.000	114.815	79.994	19.996	103.253	20.155	2.730	0.285
64.000	117.127	79.994	19.996	103.258	20.149	3.123	0.308
72.000	119.682	79.994	19.994	103.270	20.145	3.388	0.299
80.000	122.606	79.992	19.996	103.272	20.144	3.475	0.371
88.000	125.766	79.991	19.997	103.290	20.146	3.322	0.425
96.001	129.075	79.992	19.996	103.284	20.140	3.716	0.440
104.000	132.606	79.992	19.994	103.282	20.147	3.283	0.497
112.000	136.179	79.991	19.994	103.276	20.149	3.183	0.429
120.000	139.933	79.992	19.995	103.282	20.141	3.649	0.466
128.000	143.754	79.994	19.994	103.288	20.146	3.344	0.467
136.000	147.644	79.994	19.996	103.285	20.141	3.681	0.519
144.000	151.578	79.991	19.994	103.287	20.139	3.813	0.481
152.000	155.604	79.994	19.995	103.263	20.145	3.403	0.519
160.000	159.520	79.993	19.995	103.259	20.144	3.456	0.536
168.000	163.480	79.991	19.996	103.256	20.147	3.287	0.476
176.000	167.544	79.991	19.995	103.255	20.145	3.444	0.491
184.000	171.511	79.993	19.996	103.248	20.148	3.236	0.484
192.000	175.519	79.991	19.994	103.240	20.153	2.875	0.478
200.000	179.496	79.993	19.994	103.251	20.140	3.761	0.511
208.000	183.453	79.993	19.996	103.234	20.145	3.434	0.520
216.000	187.395	79.994	19.996	103.234	20.147	3.293	0.476
224.000	191.360	79.994	19.995	103.227	20.148	3.221	0.488
232.000	195.278	79.995	19.996	103.222	20.143	3.519	0.471
240.000	199.249	79.994	19.995	103.219	20.147	3.293	0.537
248.000	203.200	79.992	19.995	103.221	20.142	3.638	0.529
256.000	207.094	79.993	19.995	103.221	20.146	3.324	0.513
264.000	211.045	79.991	19.994	103.220	20.134	4.145	0.491
272.000	215.006	79.991	19.997	103.219	20.142	3.588	0.509
280.000	218.972	79.990	19.994	103.218	20.136	4.022	0.518
288.000	222.927	79.993	19.994	103.212	20.132	4.241	0.473
296.000	226.925	79.994	19.995	103.210	20.134	4.165	0.497
304.000	231.000	79.995	19.995	103.195	20.137	3.952	0.512
312.001	234.988	79.996	19.996	103.207	20.132	4.281	0.476
320.000	238.963	79.995	19.994	103.207	20.134	4.141	0.502
328.000	242.966	79.992	19.996	103.192	20.126	4.676	0.493
336.000	247.001	79.991	19.996	103.203	20.121	4.988	0.524
344.000	251.025	79.993	19.995	103.201	20.110	5.724	0.498
352.000	255.010	79.993	19.995	103.198	20.087	7.222	0.491
360.000	258.979	79.992	19.996	103.205	20.069	8.398	0.516
368.000	262.949	79.994	19.997	103.187	20.049	9.742	0.491
376.000	266.876	79.994	19.996	103.213	20.010	12.293	0.437
384.000	270.902	79.993	19.995	103.223	19.969	15.058	0.542
392.001	274.859	79.995	19.995	103.201	19.917	18.462	0.478
400.000	278.879	79.994	19.993	103.218	19.877	21.120	0.488
408.000	282.858	79.990	19.995	103.220	19.832	24.071	0.522
416.000	286.838	79.993	19.995	103.225	19.793	26.631	0.520
424.000	290.898	79.991	19.994	103.223	19.759	28.900	0.544
432.000	294.982	79.993	19.996	103.216	19.744	29.842	0.519
440.000	299.052	79.991	19.994	103.218	19.745	29.796	0.511
448.000	303.102	79.994	19.996	103.215	19.768	28.314	0.533
456.000	307.095	79.992	19.996	103.215	19.782	27.385	0.540
464.000	311.096	79.991	19.995	103.202	19.801	26.122	0.509
472.000	315.154	79.992	19.995	103.216	19.801	26.089	0.497
480.000	319.217	79.996	19.995	103.214	19.787	27.035	0.512
488.000	323.256	79.993	19.995	103.214	19.751	29.432	0.535
496.000	327.239	79.992	19.996	103.220	19.700	32.774	0.510
504.000	331.191	79.993	19.995	103.237	19.638	36.861	0.505
512.000	335.251	79.992	19.995	103.253	19.553	42.534	0.512
520.000	339.300	79.992	19.996	103.274	19.444	49.747	0.485
528.000	343.208	79.994	19.997	103.295	19.292	59.636	0.501
536.000	347.242	79.993	19.997	103.372	18.908	85.339	0.515
544.000	351.218	79.992	19.996	103.459	18.749	95.471	0.479
552.000	355.178	79.994	19.995	103.678	18.058	142.249	0.496
560.000	359.150	79.993	19.995	103.507	17.916	150.721	0.501
568.000	363.032	79.994	19.994	103.562	17.103	204.610	0.487
576.000	366.971	79.992	19.997	103.686	16.531	242.258	0.502
584.000	370.955	79.991	19.992	103.403	16.492	245.183	0.502
592.000	375.084	79.993	19.994	103.452	16.880	219.401	0.504
600.000	379.263	79.991	19.995	103.508	17.125	203.095	0.537
608.000	383.349	79.992	19.997	103.441	17.287	192.248	0.505
616.000	387.538	79.995	19.996	103.383	17.522	176.664	0.523
624.000	391.694	79.992	19.996	103.317	17.856	154.526	0.517
632.000	395.947	79.993	19.995	103.256	18.273	126.916	0.551
640.000	400.078	79.993	19.997	103.215	18.712	97.919	0.487
648.000	404.239	79.992	19.995	103.203	19.128	70.491	0.511
656.000	408.447	79.993	19.997	103.180	19.462	48.427	0.541
664.000	412.553	79.993	19.996	103.154	19.709	32.171	0.539
672.000	416.573	79.992	19.995	103.150	19.879	20.978	0.500
680.000	420.597	79.992	19.994	103.138	19.989	13.718	0.520
688.000	424.525	79.994	19.995	103.131	20.058	9.119	0.481
696.000	428.390	79.997	19.995	103.136	20.102	6.213	0.455
704.000	432.213	79.993	19.994	103.138	20.129	4.459	0.463
712.000	436.179	79.993	19.997	103.141	20.145	3.436	0.483
720.000	440.113	79.996	19.996	103.139	20.161	2.328	0.495
728.000	444.076	79.992	19.995	103.143	20.165	2.107	0.552
736.000	448.015	79.992	19.996	103.142	20.174	1.482	0.517
744.000	452.060	79.993	19.995	103.143	20.177	1.323	0.545
752.000	456.124	79.990	19.995	103.154	20.174	1.491	0.488
760.000	460.312	79.994	19.995	103.147	20.176	1.364	0.519
768.000	464.505	79.994	19.996	103.153	20.179	1.149	0.521
776.000	468.776	79.994	19.996	103.151	20.174	1.473	0.531
784.000	472.965	79.993	19.995	103.146	20.177	1.314	0.544
792.000	477.225	79.994	19.996	103.142	20.179	1.189	0.543
800.000	481.528	79.996	19.995	103.142	20.177	1.314	0.537
808.001	485.658	79.994	19.996	103.144	20.176	1.339	0.512
816.000	489.729	79.994	19.995	103.138	20.177	1.310	0.491
824.000	493.791	79.994	19.998	103.135	20.176	1.341	0.542
832.000	497.757	79.993	19.994	103.123	20.178	1.230	0.520
840.000	501.768	79.993	19.996	103.134	20.182	0.966	0.523
848.000	505.840	79.991	19.998	103.124	20.183	0.911	0.506
856.000	509.845	79.996	19.995	103.123	20.182	0.949	0.475
864.000	513.735	79.993	19.996	103.115	20.182	0.964	0.461
872.000	517.643	79.992	19.995	103.110	20.186	0.690	0.475
880.001	521.534	79.995	19.994	103.109	20.185	0.746	0.502
888.000	525.379	79.993	19.995	103.115	20.186	0.737	0.500
896.000	529.384	79.992	19.993	103.130	20.186	0.683	0.499
904.000	533.474	79.993	19.996	103.118	20.185	0.786	0.510
912.000	537.678	79.993	19.996	103.136	20.184	0.806	0.513
920.000	541.903	79.992	19.997	103.123	20.186	0.730	0.533
928.000	546.071	79.993	19.992	103.118	20.189	0.495	0.534
936.000	550.381	79.996	19.995	103.118	20.188	0.603	0.545
944.000	554.567	79.995	19.995	103.112	20.188	0.592	0.502
952.000	558.784	79.994	19.994	103.112	20.190	0.431	0.556
960.000	562.898	79.997	19.994	103.115	20.192	0.328	0.548
968.000	567.043	79.994	19.995	103.123	20.188	0.600	0.536
976.000	571.165	79.993	19.996	103.123	20.191	0.406	0.507
984.000	575.248	79.992	19.993	103.107	20.195	0.091	0.496
992.000	579.122	79.993	19.995	103.105	20.189	0.504	0.490
1000.000	582.987	79.993	19.996	103.115	20.191	0.397	0.500
1008.000	586.978	79.993	19.996	103.131	20.191	0.391	0.508
1016.000	591.111	79.995	19.995	103.140	20.190	0.462	0.552
1024.001	595.399	79.993	19.996	103.136	20.187	0.631	0.585
1032.000	599.591	79.993	19.995	103.136	20.192	0.339	0.525
1040.000	603.826	79.996	19.995	103.136	20.187	0.656	0.527
1048.000	608.033	79.994	19.995	103.139	20.189	0.527	0.518
1056.000	612.228	79.994	19.994	103.136	20.190	0.471	0.533
1064.000	616.459	79.992	19.996	103.129	20.186	0.707	0.529
1072.000	620.628	79.995	19.996	103.136	20.185	0.768	0.524
1080.000	624.804	79.993	19.996	103.138	20.187	0.636	0.513
1088.000	628.969	79.993	19.996	103.134	20.189	0.536	0.529
1096.000	633.093	79.993	19.995	103.135	20.186	0.737	0.502
1104.000	637.196	79.993	19.995	103.133	20.183	0.924	0.509
1112.000	641.207	79.994	19.995	103.136	20.190	0.444	0.457
1120.000	645.305	79.996	19.995	103.131	20.184	0.810	0.513
1128.000	649.366	79.993	19.996	103.124	20.185	0.779	0.515
1136.000	653.435	79.994	19.995	103.132	20.177	1.301	0.479
1144.000	657.390	79.994	19.995	103.135	20.184	0.848	0.503
1152.000	661.342	79.994	19.996	103.124	20.183	0.910	0.504
1160.000	665.361	79.993	19.996	103.143	20.182	0.984	0.489
1168.000	669.346	79.993	19.995	103.136	20.184	0.852	0.507
1176.000	673.448	79.994	19.997	103.141	20.183	0.917	0.519
1184.000	677.549	79.994	19.996	103.139	20.185	0.801	0.516
1192.000	681.509	79.995	19.995	103.132	20.190	0.455	0.486
1200.000	685.341	79.996	19.994	103.128	20.181	1.034	0.456
1208.000	689.102	79.996	19.996	103.131	20.185	0.779	0.446
1216.000	692.788	79.992	19.996	103.136	20.185	0.750	0.472
1224.000	696.614	79.993	19.995	103.142	20.187	0.652	0.493
1232.000	700.636	79.995	19.994	103.150	20.181	1.056	0.529
1240.000	704.815	79.993	19.995	103.144	20.185	0.766	0.525
1248.000	708.903	79.994	19.996	103.143	20.182	0.991	0.479
1256.000	712.966	79.995	19.996	103.141	20.182	0.995	0.511
1264.000	717.125	79.996	19.997	103.137	20.185	0.768	0.542
1272.000	721.315	79.995	19.997	103.136	20.183	0.899	0.509
1280.000	725.514	79.995	19.996	103.137	20.183	0.906	0.492
1288.000	729.615	79.995	19.996	103.140	20.178	1.201	0.540
1296.000	733.752	79.993	19.995	103.140	20.177	1.287	0.534
1304.000	737.955	79.993	19.995	103.147	20.183	0.888	0.574
1312.000	742.226	79.993	19.995	103.149	20.180	1.082	0.562
1314.000	743.264	79.994	19.996	103.143	20.181	1.038	0.538