Folder: fsri_materials_database/01_Data/Polyurethane_Foam/STA/N2/10K_min

Note: 01_Data/README.md
# Materials and Products Database
## 01_Data

Raw data generated from each apparatus are included here in plain-text format. The data is organized first by material, next by the short name of test apparatus used, and where applicable additional filtering by test settings.

### material.json

Each material directory contains a json file of the same name as the material. This file links the data stored in the repository as well as data and graphs produced by the accompanying scripts (__02_Scripts__) to the respective landing page for the material on the front-end website.

File: Polyurethane_Foam_STA_N2_10KData_220203_R2.csv
##Temp./Â°C,Time/min,DSC(subtr.2)/(mW/mg),Mass(subtr.2)/%,Sensit./(uV/mW)
49.176,10.01,-0.00444897,99.47243,1.07448
51.676,11.19586,0.11215,99.3995,1.0743
54.176,11.58474,0.17264,99.375,1.07411
56.676,11.907,0.2079,99.31523,1.0739
59.176,12.2033,0.22935,99.34835,1.07368
61.676,12.48675,0.24141,99.34877,1.07345
64.176,12.76302,0.2485,99.3452,1.0732
66.676,13.03495,0.25437,99.31279,1.07293
69.176,13.304,0.26053,99.2701,1.07265
71.676,13.57109,0.26392,99.28796,1.07236
74.176,13.8346,0.26835,99.2619,1.07205
76.676,14.0968,0.2721,99.26139,1.07173
79.176,14.35639,0.27467,99.27107,1.07139
81.676,14.6133,0.27964,99.2387,1.07104
84.176,14.86851,0.2851,99.23881,1.07067
86.676,15.12149,0.28436,99.2465,1.07029
89.176,15.37381,0.28574,99.2386,1.0699
91.676,15.62439,0.2893,99.2055,1.06949
94.176,15.8734,0.28771,99.16385,1.06906
96.676,16.1216,0.29285,99.17282,1.06862
99.176,16.369,0.29427,99.17273,1.06817
101.676,16.61487,0.29864,99.17185,1.06771
104.176,16.86042,0.29969,99.17268,1.06722
106.676,17.10557,0.30309,99.17033,1.06673
109.176,17.3509,0.30458,99.13189,1.06622
111.676,17.59599,0.30802,99.10679,1.0657
114.176,17.8405,0.30815,99.12271,1.06516
116.676,18.0848,0.30906,99.1059,1.06461
119.176,18.3287,0.31001,99.1065,1.06404
121.676,18.57244,0.31296,99.07369,1.06346
124.176,18.8153,0.31627,99.04276,1.06287
126.676,19.05819,0.31528,99.0406,1.06226
129.176,19.30087,0.31704,99.0737,1.06164
131.676,19.5429,0.31756,99.0654,1.061
134.176,19.78523,0.32072,99.03231,1.06035
136.676,20.02756,0.32021,99.0078,1.05969
139.176,20.26934,0.31957,99.00745,1.05901
141.676,20.51191,0.31953,99.0078,1.05832
144.176,20.7533,0.32292,98.9995,1.05762
146.676,20.9943,0.32301,98.96643,1.0569
149.176,21.2353,0.32422,98.96646,1.05617
151.676,21.47588,0.32323,98.99128,1.05542
154.176,21.7161,0.32613,98.96127,1.05466
156.676,21.95662,0.32909,98.92531,1.05389
159.176,22.19595,0.33007,98.92747,1.0531
161.676,22.436,0.33152,98.92715,1.0523
164.176,22.67559,0.33346,98.94185,1.05149
166.676,22.91517,0.33286,98.92668,1.05067
169.176,23.15428,0.33138,98.88384,1.04983
171.676,23.3948,0.33102,98.9092,1.04897
174.176,23.6348,0.33249,98.9006,1.04811
176.676,23.8753,0.33496,98.86745,1.04723
179.176,24.11501,0.33388,98.83788,1.04634
181.676,24.35505,0.33658,98.8426,1.04543
184.176,24.59425,0.339,98.81096,1.04451
186.676,24.8332,0.33902,98.80977,1.04358
189.176,25.0719,0.33956,98.80971,1.04263
191.676,25.31136,0.34467,98.82316,1.04168
194.176,25.54969,0.34631,98.83425,1.04071
196.676,25.7879,0.35052,98.7851,1.03972
199.176,26.02637,0.35104,98.74365,1.03873
201.676,26.26468,0.35278,98.7439,1.03772
204.176,26.50272,0.35415,98.7273,1.0367
206.676,26.74107,0.35554,98.72718,1.03566
209.176,26.9795,0.35917,98.66114,1.03462
211.676,27.21838,0.36143,98.66115,1.03356
214.176,27.45637,0.36956,98.63659,1.03248
216.676,27.69462,0.37163,98.63283,1.0314
219.176,27.9336,0.37396,98.57046,1.0303
221.676,28.17233,0.38272,98.54586,1.02919
224.176,28.4111,0.38855,98.5321,1.02807
226.676,28.6501,0.39474,98.45791,1.02694
229.176,28.8892,0.4027,98.40194,1.02579
231.676,29.12854,0.41172,98.33405,1.02463
234.176,29.367,0.42211,98.24597,1.02346
236.676,29.60592,0.43675,98.1357,1.02228
239.176,29.84457,0.44919,98.00426,1.02109
241.676,30.0824,0.46815,97.8712,1.01988
244.176,30.31997,0.48504,97.69905,1.01866
246.676,30.5593,0.50607,97.54908,1.01743
249.176,30.7985,0.52969,97.34437,1.01619
251.676,31.0378,0.55245,97.10053,1.01494
254.176,31.27675,0.5806,96.7834,1.01367
256.676,31.51625,0.61441,96.46903,1.0124
259.176,31.75528,0.65061,96.08829,1.01111
261.676,31.99427,0.69052,95.63486,1.00981
264.176,32.2339,0.73621,95.1177,1.0085
266.676,32.47382,0.7871,94.58369,1.00718
269.176,32.71372,0.84286,93.94126,1.00584
271.676,32.95375,0.90196,93.1857,1.0045
274.176,33.1937,0.96825,92.34867,1.00314
276.676,33.43464,1.04249,91.39724,1.00177
279.176,33.6749,1.11778,90.37762,1.00039
281.676,33.9151,1.19424,89.21151,0.99901
284.176,34.15552,1.2745,87.9575,0.9976
286.676,34.3959,1.35307,86.56948,0.99619
289.176,34.6363,1.42271,85.06591,0.99477
291.676,34.87672,1.48138,83.5203,0.99334
294.176,35.11725,1.51603,81.87903,0.99189
296.676,35.35798,1.49591,80.21185,0.99044
299.176,35.59803,1.39476,78.6191,0.98897
301.676,35.83718,1.23713,77.26459,0.9875
304.176,36.07565,1.08375,76.04565,0.98601
306.676,36.3134,0.90361,74.97436,0.98452
309.176,36.552,0.72608,74.13685,0.98301
311.676,36.78986,0.57811,73.5189,0.98149
314.176,37.02848,0.48466,72.99794,0.97996
316.676,37.26742,0.42943,72.62594,0.97843
319.176,37.5062,0.39333,72.27028,0.97688
321.676,37.74564,0.36542,71.95799,0.97532
324.176,37.9852,0.34391,71.6848,0.97375
326.676,38.22522,0.32572,71.4277,0.97218
329.176,38.46537,0.31199,71.17067,0.97059
331.676,38.70528,0.30451,70.9111,0.96899
334.176,38.94457,0.29489,70.72103,0.96738
336.676,39.18481,0.29393,70.46506,0.96577
339.176,39.425,0.29879,70.1497,0.96414
341.676,39.6651,0.30596,69.84666,0.9625
344.176,39.90612,0.32399,69.39865,0.96086
346.676,40.1473,0.34109,68.90735,0.9592
349.176,40.38932,0.37032,68.27789,0.95754
351.676,40.6312,0.40226,67.45192,0.95587
354.176,40.87366,0.44305,66.45913,0.95418
356.676,41.11607,0.4926,65.2037,0.95249
359.176,41.3589,0.54412,63.57801,0.95079
361.676,41.6014,0.60362,61.7077,0.94908
364.176,41.84485,0.67015,59.35665,0.94736
366.676,42.0884,0.73734,56.56159,0.94564
369.176,42.3324,0.80002,53.29081,0.9439
371.676,42.576,0.85652,49.47667,0.94216
374.176,42.81889,0.90307,45.17702,0.9404
376.676,43.06281,0.92749,40.42816,0.93864
379.176,43.30526,0.92051,35.41414,0.93687
381.676,43.54847,0.88558,30.32123,0.93509
384.176,43.79162,0.81269,25.34188,0.9333
386.676,44.0353,0.71244,20.6857,0.93151
389.176,44.27795,0.59364,16.6178,0.9297
391.676,44.52053,0.46515,13.11324,0.92789
394.176,44.76239,0.35335,10.26905,0.92607
396.676,45.0039,0.25586,7.99562,0.92424
399.176,45.24606,0.17849,6.19968,0.9224
401.676,45.4882,0.11858,4.82974,0.92056
404.176,45.73082,0.07215398,3.74811,0.91871
406.676,45.97391,0.03913646,2.94404,0.91685
409.176,46.21777,0.01231974,2.37739,0.91498
411.676,46.4613,-0.006998823,1.96719,0.9131
414.176,46.70539,-0.02419927,1.68316,0.91122
416.676,46.94954,-0.03291151,1.41829,0.90933
419.176,47.19337,-0.03791925,1.27604,0.90743
421.676,47.43714,-0.04254579,1.14726,0.90553
424.176,47.68101,-0.04205042,1.03857,0.90361
426.676,47.92467,-0.03560187,0.9625,0.90169
429.176,48.16877,-0.02140805,0.88367,0.89977
431.676,48.41322,-0.009761685,0.85356,0.89783
434.176,48.65894,-0.02205963,0.82631,0.89589
436.676,48.90443,-0.04081774,0.82646,0.89394
439.176,49.15025,-0.05123414,0.80952,0.89199
441.676,49.39555,-0.06038901,0.7965,0.89003
444.176,49.64073,-0.06498921,0.77669,0.88806
446.676,49.88625,-0.06799531,0.74361,0.88608
449.176,50.1325,-0.06886206,0.76015,0.8841
451.676,50.37897,-0.0728147,0.72724,0.88211
454.176,50.6254,-0.07337532,0.75229,0.88012
456.676,50.8726,-0.08265859,0.72737,0.87812
459.176,51.11935,-0.08699219,0.71078,0.87611
461.676,51.36613,-0.08914182,0.67769,0.8741
464.176,51.61218,-0.09146178,0.65313,0.87208
466.676,51.8589,-0.09585315,0.62832,0.87005
469.176,52.1048,-0.097566,0.66142,0.86802
471.676,52.35041,-0.10109,0.66135,0.86598
474.176,52.5967,-0.10453,0.64484,0.86394
476.676,52.84236,-0.10435,0.64431,0.86189
479.176,53.0891,-0.10933,0.63678,0.85983
481.676,53.33574,-0.11457,0.60343,0.85777
484.176,53.5826,-0.11518,0.55403,0.85571
486.676,53.82925,-0.1207,0.5624,0.85364
489.176,54.0765,-0.12429,0.52119,0.85156
491.676,54.32424,-0.12803,0.54586,0.84948
494.176,54.5719,-0.13284,0.54586,0.84739
496.676,54.8202,-0.13708,0.51278,0.84529
499.176,55.06827,-0.14244,0.51278,0.8432
501.676,55.31697,-0.14629,0.52932,0.84109
504.176,55.5647,-0.14755,0.49624,0.83898
506.676,55.8131,-0.15691,0.49624,0.83687
509.176,56.061,-0.16919,0.5056,0.83475
511.676,56.3085,-0.17321,0.4719,0.83263
514.176,56.5557,-0.17687,0.49645,0.8305
516.676,56.8041,-0.17996,0.50491,0.82837
519.176,57.05195,-0.17776,0.47995,0.82623
521.676,57.30118,-0.18008,0.44689,0.82409
524.176,57.5495,-0.18609,0.47155,0.82194
526.676,57.7973,-0.18453,0.4963,0.81979
529.176,58.04665,-0.18108,0.46601,0.81764
531.676,58.2954,-0.18452,0.47168,0.81548
534.176,58.5441,-0.18838,0.47168,0.81331
536.676,58.79206,-0.18615,0.48821,0.81115
539.176,59.04074,-0.18761,0.4523,0.80897
541.676,59.28983,-0.18838,0.43032,0.8068
544.176,59.53847,-0.19048,0.44686,0.80462
546.676,59.78784,-0.1901,0.40048,0.80244
549.176,60.03689,-0.19279,0.42108,0.80025
551.676,60.2864,-0.19498,0.43058,0.79806
554.176,60.53558,-0.1967,0.40576,0.79586
556.676,60.78494,-0.19779,0.40328,0.79366
559.176,61.0333,-0.20089,0.40576,0.79146
561.676,61.2817,-0.19966,0.43032,0.78926
564.176,61.5308,-0.19928,0.36438,0.78705
566.676,61.7801,-0.20391,0.36433,0.78484
569.176,62.03,-0.20353,0.37265,0.78262
571.676,62.2804,-0.20043,0.36436,0.7804
574.176,62.5303,-0.2057,0.35613,0.77818
576.676,62.7798,-0.20534,0.37268,0.77596
579.176,63.02939,-0.2059,0.3727,0.77373
581.676,63.2796,-0.20458,0.38157,0.7715
584.176,63.52985,-0.20453,0.38095,0.76927
586.676,63.77998,-0.20292,0.41378,0.76703
589.176,64.0303,-0.20073,0.41378,0.76479
591.676,64.28121,-0.20307,0.37268,0.76255
594.176,64.53198,-0.203,0.39783,0.76031
596.676,64.78296,-0.20481,0.33115,0.75806
599.176,65.03344,-0.20357,0.39762,0.75581
601.676,65.28412,-0.19741,0.36441,0.75356
604.176,65.53485,-0.19943,0.35644,0.75131
606.676,65.78525,-0.19987,0.33133,0.74905
609.176,66.03545,-0.19911,0.34023,0.7468
611.676,66.28571,-0.19785,0.32615,0.74454
614.176,66.53658,-0.19915,0.3396,0.74227
616.676,66.7874,-0.19765,0.3396,0.74001
619.176,67.03837,-0.19455,0.37267,0.73774
621.676,67.28954,-0.19397,0.31386,0.73548
624.176,67.54095,-0.19651,0.3396,0.73321
626.676,67.7918,-0.19736,0.33986,0.73094
629.176,68.04348,-0.1963,0.33899,0.72866
631.676,68.2949,-0.19633,0.32306,0.72639
634.176,68.54551,-0.19533,0.32306,0.72411
636.676,68.79642,-0.19708,0.30679,0.72183
639.176,69.04685,-0.19565,0.30679,0.71956
641.676,69.29769,-0.19203,0.30668,0.71728
644.176,69.54862,-0.19505,0.32331,0.71499
646.676,69.8006,-0.19517,0.32306,0.71271
648.576,69.9914,-0.19788,0.32306,0.71098