Folder: fsri_materials_database/01_Data/PVC_R06/MCC

Note: 01_Data/README.md
# Materials and Products Database
## 01_Data

Raw data generated from each apparatus are included here in plain-text format. The data is organized first by material, next by the short name of test apparatus used, and where applicable additional filtering by test settings.

### material.json

Each material directory contains a json file of the same name as the material. This file links the data stored in the repository as well as data and graphs produced by the accompanying scripts (__02_Scripts__) to the respective landing page for the material on the front-end website.

File: PVC_R06_MCC_30K_min_211014_R1.txt
Sample ID:	C:\MCC\MCC Cal\Test\PVC_R06_MCC_30K_min_211014_R1.txt
Sample Weight (mg):	4.8
Heating Rate (C/s):	0.5
Combustor Temp (C):	900
N2 Flow Rate (cc/min):	80
O2 Flow Rate (cc/min):	20
Calibration File:	C:\MCC\MCC Cal\Coeff1 JN10440_30_210304.txt.txt
T Correction Coefficients:	0	1.024463	0
Time Shift (s):	14
*
Time (s)	Temperature (C)	N2 flow rate (cc/min)	O2 flow rate (cc/min)	Flow Rate (cc/min)	Oxygen (%)	HRR (W/g)	Heating rate (C/s)
0.000	107.192	79.993	19.998	102.703	20.322	-0.176	0.004
8.000	107.181	79.995	19.996	102.720	20.316	0.248	0.021
16.000	107.264	79.994	19.995	102.785	20.308	0.721	-0.005
24.000	107.666	79.993	19.996	102.857	20.300	1.295	0.096
32.000	108.439	79.993	19.997	102.810	20.304	1.023	0.133
39.999	109.303	79.996	19.998	102.822	20.302	1.179	0.093
47.999	110.374	79.996	19.996	102.880	20.293	1.752	0.137
55.999	111.772	79.992	19.996	102.908	20.291	1.923	0.171
63.999	113.456	79.992	19.996	102.912	20.284	2.342	0.220
71.999	115.410	79.993	19.996	102.929	20.282	2.462	0.254
79.999	117.666	79.991	19.999	102.944	20.285	2.295	0.308
87.999	120.135	79.992	19.997	102.951	20.285	2.323	0.314
95.999	122.821	79.991	19.997	102.962	20.285	2.277	0.358
103.999	125.740	79.996	19.997	102.976	20.280	2.621	0.372
111.999	128.909	79.994	19.996	102.971	20.279	2.690	0.418
119.999	132.264	79.995	19.995	102.966	20.281	2.592	0.426
127.999	135.674	79.998	19.994	103.026	20.284	2.353	0.432
136.000	139.290	79.992	19.993	102.972	20.284	2.367	0.427
144.000	143.012	79.994	19.996	102.966	20.279	2.698	0.481
152.000	146.841	79.993	19.996	102.980	20.282	2.505	0.463
160.000	150.750	79.993	19.996	102.970	20.284	2.326	0.486
168.000	154.701	79.991	19.996	102.956	20.289	2.048	0.473
176.000	158.689	79.992	19.997	102.951	20.291	1.916	0.501
184.000	162.664	79.995	19.995	102.951	20.292	1.803	0.536
192.000	166.688	79.994	19.996	102.942	20.293	1.784	0.489
200.000	170.688	79.995	19.995	102.950	20.291	1.864	0.505
208.000	174.648	79.996	19.995	102.924	20.296	1.565	0.498
216.000	178.615	79.994	19.996	102.941	20.290	1.940	0.503
224.000	182.594	79.994	19.996	102.919	20.297	1.478	0.482
232.000	186.624	79.992	19.995	102.936	20.292	1.849	0.493
240.000	190.603	79.995	19.998	102.925	20.297	1.476	0.513
248.000	194.560	79.992	19.996	102.916	20.293	1.767	0.520
256.000	198.509	79.993	19.997	102.912	20.297	1.515	0.494
264.000	202.452	79.991	19.997	102.912	20.298	1.448	0.509
272.000	206.425	79.993	19.995	102.913	20.301	1.191	0.482
280.000	210.426	79.994	19.993	102.913	20.300	1.261	0.498
288.000	214.360	79.992	19.995	102.904	20.300	1.283	0.507
296.000	218.252	79.993	19.996	102.906	20.299	1.339	0.482
304.000	222.145	79.994	19.997	102.908	20.300	1.300	0.508
312.000	226.026	79.993	19.996	102.895	20.301	1.240	0.455
320.000	229.975	79.991	19.997	102.893	20.295	1.615	0.485
328.000	233.834	79.992	19.996	102.891	20.288	2.101	0.533
336.000	237.733	79.994	19.995	102.907	20.286	2.199	0.504
344.000	241.610	79.992	19.998	102.906	20.277	2.819	0.510
352.000	245.631	79.994	19.996	102.926	20.271	3.240	0.475
360.000	249.694	79.996	19.997	102.916	20.248	4.758	0.530
368.000	253.774	79.995	19.996	102.911	20.221	6.590	0.512
376.000	257.845	79.993	19.995	102.910	20.205	7.629	0.502
384.000	261.923	79.994	19.994	102.915	20.197	8.167	0.506
392.000	265.946	79.994	19.996	102.914	20.201	7.930	0.481
400.000	269.947	79.992	19.995	102.917	20.203	7.753	0.488
408.000	274.004	79.992	19.996	102.932	20.200	7.981	0.486
416.000	278.023	79.993	19.996	102.915	20.215	7.001	0.508
424.000	281.969	79.994	19.997	102.950	20.209	7.374	0.483
432.000	285.995	79.996	19.998	102.980	20.199	8.089	0.517
440.000	289.946	79.994	19.996	103.026	20.180	9.337	0.519
448.000	293.934	79.993	19.993	103.095	20.150	11.342	0.509
456.000	297.937	79.993	19.995	103.110	20.114	13.720	0.538
464.000	301.865	79.992	19.996	102.939	20.092	15.185	0.516
472.000	305.816	79.992	19.998	102.751	20.103	14.490	0.490
480.000	309.764	79.993	19.996	102.838	20.119	13.389	0.484
488.000	313.829	79.992	19.994	102.873	20.140	12.014	0.505
496.000	317.945	79.995	19.996	102.886	20.148	11.456	0.521
504.000	322.150	79.994	19.997	102.879	20.162	10.494	0.544
512.000	326.358	79.994	19.996	102.839	20.175	9.639	0.528
520.000	330.550	79.994	19.996	102.845	20.191	8.567	0.538
528.000	334.671	79.991	19.998	102.804	20.197	8.158	0.510
536.000	338.662	79.994	19.997	102.782	20.201	7.921	0.480
544.000	342.637	79.994	19.997	102.776	20.201	7.894	0.504
552.000	346.520	79.993	19.996	102.776	20.209	7.390	0.514
560.000	350.555	79.993	19.997	102.796	20.210	7.302	0.537
568.000	354.661	79.994	19.996	102.805	20.213	7.074	0.524
576.000	358.794	79.995	19.995	102.830	20.226	6.264	0.555
584.000	363.026	79.994	19.997	102.831	20.236	5.554	0.542
592.000	367.161	79.994	19.996	102.843	20.240	5.329	0.531
600.000	371.303	79.995	19.995	102.856	20.243	5.118	0.501
608.000	375.553	79.993	19.998	102.844	20.246	4.894	0.567
616.000	379.720	79.993	19.999	102.850	20.245	4.971	0.519
624.000	383.841	79.994	19.998	102.868	20.238	5.408	0.497
632.000	388.024	79.993	19.996	102.874	20.227	6.181	0.535
640.000	392.142	79.993	19.996	102.858	20.213	7.113	0.522
648.000	396.262	79.993	19.996	102.864	20.192	8.525	0.519
656.000	400.339	79.993	19.995	102.868	20.179	9.393	0.503
664.000	404.381	79.995	19.996	102.863	20.145	11.648	0.477
672.000	408.388	79.996	19.997	102.856	20.118	13.429	0.505
680.000	412.454	79.995	19.995	102.867	20.076	16.246	0.533
688.000	416.409	79.992	19.997	102.876	20.025	19.652	0.499
696.000	420.408	79.992	19.996	102.870	19.961	23.925	0.496
704.000	424.402	79.992	19.997	102.873	19.886	28.990	0.517
712.000	428.418	79.991	19.996	102.874	19.804	34.438	0.464
720.000	432.392	79.993	19.997	102.877	19.708	40.871	0.490
728.000	436.432	79.993	19.996	102.876	19.619	46.833	0.495
736.000	440.458	79.993	19.998	102.873	19.528	52.891	0.549
744.000	444.539	79.994	19.995	102.869	19.445	58.470	0.514
752.000	448.650	79.996	19.996	102.871	19.359	64.195	0.522
760.000	452.662	79.994	19.996	102.875	19.278	69.634	0.464
768.000	456.817	79.992	19.996	102.868	19.307	67.715	0.491
776.000	460.917	79.993	19.996	102.874	19.370	63.441	0.509
784.000	465.009	79.993	19.996	102.878	19.434	59.153	0.492
792.000	469.140	79.993	19.998	102.855	19.488	55.576	0.544
800.000	473.202	79.991	19.997	102.881	19.566	50.395	0.519
808.000	477.323	79.994	19.996	102.877	19.639	45.487	0.523
816.000	481.380	79.993	19.996	102.837	19.686	42.359	0.484
824.000	485.398	79.992	19.996	102.857	19.731	39.354	0.512
832.000	489.221	79.995	19.995	102.846	19.764	37.148	0.493
840.000	493.053	79.994	19.996	102.853	19.844	31.776	0.463
848.000	496.804	79.992	19.996	102.839	19.919	26.764	0.453
856.000	500.631	79.992	19.995	102.841	19.988	22.115	0.490
864.000	504.509	79.992	19.996	102.845	20.043	18.482	0.501
872.000	508.432	79.993	19.996	102.847	20.091	15.235	0.496
880.000	512.416	79.992	19.998	102.848	20.139	12.078	0.498
888.000	516.478	79.993	19.997	102.835	20.171	9.916	0.541
896.000	520.597	79.994	19.996	102.845	20.203	7.755	0.530
904.000	524.700	79.994	19.996	102.850	20.230	5.945	0.515
912.000	528.915	79.995	19.995	102.837	20.255	4.277	0.511
920.000	533.189	79.992	19.996	102.833	20.267	3.493	0.528
928.000	537.477	79.991	19.995	102.835	20.280	2.616	0.510
936.000	541.726	79.993	19.996	102.835	20.293	1.725	0.538
944.000	545.917	79.991	19.998	102.823	20.300	1.308	0.498
952.000	550.098	79.991	19.997	102.835	20.307	0.812	0.541
960.000	554.302	79.991	19.996	102.848	20.313	0.395	0.551
968.000	558.703	79.994	19.996	102.836	20.322	-0.195	0.529
976.000	563.226	79.992	19.996	102.836	20.324	-0.302	0.569
984.000	567.622	79.996	19.995	102.833	20.325	-0.361	0.532
992.000	572.082	79.995	19.995	102.840	20.326	-0.456	0.561
1000.000	576.535	79.991	19.996	102.832	20.330	-0.695	0.552
1008.000	580.869	79.993	19.996	102.829	20.332	-0.862	0.541
1016.000	585.167	79.993	19.995	102.836	20.335	-1.049	0.531
1024.000	589.368	79.992	19.996	102.830	20.338	-1.229	0.524
1031.999	593.536	79.991	19.997	102.837	20.342	-1.492	0.503
1039.999	597.708	79.994	19.996	102.837	20.341	-1.436	0.482
1047.999	601.819	79.992	19.996	102.832	20.343	-1.603	0.503
1055.999	605.900	79.991	19.997	102.832	20.345	-1.747	0.527
1064.000	609.965	79.994	19.997	102.834	20.347	-1.881	0.523
1071.999	614.019	79.994	19.995	102.831	20.352	-2.175	0.525
1079.999	618.070	79.992	19.996	102.838	20.352	-2.183	0.504
1087.999	622.101	79.992	19.995	102.833	20.356	-2.440	0.507
1095.999	626.151	79.991	19.995	102.837	20.352	-2.198	0.518
1103.999	630.167	79.991	19.996	102.838	20.349	-1.983	0.488
1111.999	634.200	79.993	19.996	102.820	20.351	-2.114	0.504
1119.999	638.235	79.993	19.997	102.829	20.356	-2.437	0.487
1127.999	642.212	79.993	19.997	102.831	20.354	-2.342	0.473
1135.999	646.276	79.992	19.996	102.836	20.353	-2.268	0.511
1143.999	650.328	79.992	19.996	102.843	20.358	-2.603	0.497
1151.999	654.452	79.992	19.996	102.831	20.349	-1.999	0.498
1159.999	658.536	79.991	19.996	102.836	20.352	-2.160	0.518
1167.999	662.618	79.992	19.995	102.837	20.353	-2.227	0.533
1175.999	666.663	79.994	19.996	102.834	20.351	-2.127	0.507
1183.999	670.769	79.993	19.996	102.832	20.353	-2.275	0.512
1191.999	674.861	79.992	19.996	102.833	20.354	-2.303	0.501
1199.999	678.966	79.994	19.996	102.832	20.355	-2.377	0.511
1207.999	683.065	79.993	19.996	102.830	20.357	-2.505	0.500
1215.999	687.128	79.992	19.996	102.833	20.356	-2.459	0.508
1224.000	691.227	79.995	19.996	102.834	20.352	-2.195	0.505
1231.999	695.295	79.994	19.996	102.817	20.355	-2.358	0.535
1239.999	699.354	79.992	19.996	102.824	20.359	-2.645	0.522
1247.999	703.385	79.993	19.996	102.815	20.364	-3.000	0.529
1255.999	707.357	79.993	19.997	102.824	20.362	-2.877	0.503
1264.000	711.308	79.993	19.996	102.814	20.361	-2.764	0.492
1271.999	715.216	79.993	19.996	102.823	20.360	-2.753	0.517
1279.999	719.187	79.994	19.996	102.808	20.362	-2.831	0.513
1287.999	723.102	79.994	19.995	102.813	20.365	-3.036	0.500
1295.999	727.085	79.994	19.996	102.804	20.368	-3.229	0.503
1303.999	731.080	79.996	19.997	102.807	20.364	-2.988	0.489
1311.999	735.052	79.995	19.996	102.806	20.366	-3.105	0.496
1319.999	739.117	79.991	19.997	102.812	20.370	-3.416	0.491
1328.000	743.216	79.991	19.997	102.801	20.364	-3.021	0.544
1328.999	743.712	79.991	19.997	102.809	20.367	-3.208	0.494

File: PVC_R06_MCC_30K_min_211014_R2.txt
Sample ID:	C:\MCC\MCC Cal\Test\PVC_R06_MCC_30K_min_211014_R2.txt
Sample Weight (mg):	4.39
Heating Rate (C/s):	0.5
Combustor Temp (C):	900
N2 Flow Rate (cc/min):	80
O2 Flow Rate (cc/min):	20
Calibration File:	C:\MCC\MCC Cal\Coeff1 JN10440_30_210304.txt.txt
T Correction Coefficients:	0	1.024463	0
Time Shift (s):	14
*
Time (s)	Temperature (C)	N2 flow rate (cc/min)	O2 flow rate (cc/min)	Flow Rate (cc/min)	Oxygen (%)	HRR (W/g)	Heating rate (C/s)
0.000	107.791	79.991	19.994	102.707	20.421	-0.095	-0.032
8.000	107.773	79.993	19.996	102.713	20.418	0.120	0.018
16.000	107.754	79.994	19.996	102.778	20.408	0.855	0.019
24.000	108.039	79.991	19.995	102.842	20.394	1.855	0.065
32.000	108.697	79.994	19.987	102.907	20.384	2.553	0.093
40.000	109.915	79.988	19.997	102.911	20.377	3.075	0.172
48.001	111.492	79.991	19.995	102.943	20.373	3.371	0.207
56.000	113.457	79.993	19.994	102.953	20.368	3.762	0.270
64.000	115.783	79.990	19.995	102.951	20.368	3.728	0.296
72.000	118.372	79.991	19.996	102.959	20.365	4.009	0.326
80.000	121.240	79.990	20.003	102.962	20.364	4.020	0.354
88.000	124.293	79.991	19.998	102.960	20.365	3.992	0.375
96.001	127.529	79.991	19.995	102.957	20.364	4.029	0.450
104.000	130.947	79.996	19.995	102.954	20.367	3.842	0.444
112.001	134.459	79.994	19.997	102.955	20.357	4.550	0.452
120.000	138.101	79.994	19.995	102.952	20.364	4.045	0.463
128.000	141.806	79.991	19.995	102.951	20.363	4.091	0.460
136.000	145.639	79.992	19.995	102.955	20.366	3.864	0.475
144.000	149.468	79.992	19.995	102.954	20.367	3.805	0.475
152.000	153.337	79.991	19.996	102.956	20.366	3.868	0.488
160.000	157.260	79.993	19.996	102.946	20.365	3.987	0.471
168.000	161.162	79.996	19.996	102.944	20.360	4.371	0.458
176.000	165.081	79.993	19.996	102.944	20.363	4.121	0.471
184.000	169.062	79.995	19.995	102.941	20.361	4.300	0.502
192.000	172.931	79.993	19.996	102.927	20.359	4.387	0.493
200.000	176.827	79.991	19.996	102.933	20.360	4.319	0.498
208.000	180.743	79.992	19.996	102.919	20.356	4.665	0.508
216.000	184.749	79.993	19.995	102.925	20.361	4.262	0.492
224.000	188.796	79.993	19.996	102.906	20.362	4.211	0.506
232.000	192.741	79.992	19.996	102.913	20.358	4.515	0.476
240.000	196.703	79.993	19.996	102.909	20.361	4.288	0.475
248.000	200.654	79.992	19.995	102.905	20.359	4.393	0.504
256.000	204.577	79.993	19.995	102.910	20.360	4.359	0.469
264.000	208.556	79.993	19.995	102.898	20.361	4.292	0.492
272.000	212.467	79.995	19.995	102.909	20.362	4.174	0.491
280.000	216.393	79.992	19.997	102.910	20.362	4.165	0.499
288.000	220.296	79.991	19.997	102.899	20.357	4.569	0.479
296.000	224.192	79.992	19.996	102.903	20.357	4.564	0.484
304.000	228.095	79.993	19.995	102.900	20.352	4.888	0.505
312.000	231.980	79.992	19.995	102.900	20.352	4.931	0.462
320.000	235.880	79.992	19.996	102.913	20.345	5.458	0.458
328.000	239.927	79.993	19.994	102.912	20.340	5.823	0.531
336.000	244.016	79.992	19.994	102.940	20.325	6.873	0.506
344.000	248.117	79.993	19.995	102.926	20.299	8.821	0.528
352.000	252.371	79.994	19.995	102.907	20.276	10.506	0.512
360.000	256.593	79.993	19.995	102.909	20.253	12.161	0.538
368.000	260.806	79.992	19.996	102.908	20.235	13.505	0.494
376.000	264.980	79.991	19.997	102.906	20.234	13.582	0.485
384.000	269.148	79.991	19.996	102.902	20.239	13.199	0.549
392.000	273.259	79.992	19.995	102.907	20.244	12.786	0.468
400.000	277.423	79.992	19.995	102.918	20.248	12.547	0.519
408.000	281.412	79.994	19.995	102.903	20.243	12.926	0.502
416.000	285.276	79.993	19.995	102.994	20.232	13.697	0.498
424.000	289.318	79.995	19.995	103.064	20.207	15.520	0.468
432.000	293.370	79.995	19.995	103.055	20.174	17.960	0.469
440.000	297.361	79.993	19.996	102.900	20.155	19.351	0.526
448.000	301.337	79.992	19.996	102.872	20.154	19.382	0.523
456.000	305.280	79.992	19.995	102.853	20.159	19.070	0.485
464.000	309.288	79.992	19.996	102.882	20.165	18.588	0.495
472.000	313.338	79.991	19.997	102.900	20.173	17.997	0.488
480.000	317.313	79.992	19.997	102.889	20.180	17.476	0.488
488.000	321.289	79.993	19.996	102.879	20.187	17.010	0.504
496.000	325.282	79.993	19.995	102.850	20.194	16.439	0.507
504.000	329.230	79.995	19.995	102.838	20.203	15.813	0.483
512.000	333.233	79.994	19.994	102.831	20.204	15.723	0.506
520.000	337.209	79.994	19.994	102.793	20.214	14.973	0.473
528.000	341.187	79.993	19.995	102.793	20.224	14.244	0.508
536.000	345.205	79.991	19.996	102.797	20.232	13.701	0.488
544.000	349.250	79.993	19.996	102.797	20.240	13.118	0.497
552.000	353.347	79.992	19.996	102.812	20.245	12.754	0.519
560.000	357.451	79.991	19.997	102.829	20.255	11.985	0.503
568.000	361.488	79.993	19.996	102.853	20.257	11.887	0.515
576.000	365.594	79.994	19.995	102.873	20.258	11.829	0.531
584.000	369.555	79.994	19.995	102.892	20.255	12.049	0.494
592.000	373.572	79.993	19.996	102.902	20.252	12.233	0.502
600.000	377.526	79.994	19.994	102.910	20.248	12.542	0.476
608.000	381.521	79.992	19.995	102.907	20.240	13.100	0.508
616.000	385.508	79.993	19.996	102.906	20.227	14.046	0.491
624.000	389.475	79.993	19.996	102.913	20.216	14.835	0.474
632.000	393.566	79.994	19.995	102.908	20.198	16.190	0.493
640.000	397.715	79.992	19.996	102.906	20.170	18.206	0.538
648.000	401.822	79.993	19.996	102.909	20.139	20.487	0.522
656.000	405.892	79.993	19.996	102.908	20.105	23.002	0.514
664.000	409.936	79.991	19.996	102.911	20.062	26.165	0.494
672.000	413.921	79.993	19.995	102.903	20.005	30.319	0.483
680.000	417.831	79.995	19.996	102.903	19.948	34.466	0.500
688.000	421.650	79.993	19.995	102.901	19.885	39.087	0.458
696.000	425.605	79.992	19.995	102.912	19.814	44.251	0.496
704.000	429.599	79.993	19.996	102.858	19.738	49.854	0.528
712.000	433.671	79.993	19.995	102.907	19.658	55.692	0.515
720.000	437.824	79.993	19.996	102.911	19.573	61.855	0.505
728.000	441.950	79.990	19.996	102.900	19.482	68.563	0.502
736.000	446.086	79.993	19.996	102.907	19.428	72.484	0.524
744.000	450.220	79.993	19.996	102.912	19.401	74.456	0.533
752.000	454.335	79.992	19.996	102.903	19.394	75.060	0.502
760.000	458.444	79.996	19.996	102.872	19.369	76.814	0.514
768.000	462.607	79.992	19.995	102.886	19.376	76.287	0.533
776.000	466.790	79.993	19.995	102.866	19.490	67.967	0.502
784.000	470.975	79.994	19.996	102.927	19.585	61.001	0.524
792.000	475.185	79.996	19.995	102.892	19.693	53.106	0.542
800.000	479.288	79.992	19.996	102.954	19.766	47.760	0.508
808.000	483.446	79.993	19.996	102.858	19.824	43.546	0.517
816.000	487.489	79.995	19.997	102.870	19.862	40.712	0.505
824.000	491.593	79.995	19.996	102.907	19.907	37.425	0.531
832.000	495.660	79.994	19.996	102.870	19.963	33.379	0.471
840.000	499.752	79.994	19.996	102.865	20.019	29.264	0.488
848.000	503.839	79.993	19.996	102.873	20.071	25.472	0.515
856.000	507.900	79.992	19.994	102.871	20.115	22.248	0.499
864.000	511.929	79.993	19.996	102.870	20.148	19.848	0.495
872.000	515.993	79.993	19.997	102.867	20.181	17.428	0.522
880.000	520.036	79.993	19.995	102.855	20.199	16.093	0.485
888.000	524.101	79.993	19.995	102.852	20.216	14.892	0.503
896.000	528.090	79.996	19.995	102.851	20.230	13.805	0.524
904.000	532.092	79.994	19.996	102.852	20.244	12.836	0.442
912.000	536.051	79.994	19.996	102.835	20.258	11.808	0.487
920.000	540.000	79.995	19.995	102.837	20.266	11.169	0.494
928.000	543.913	79.995	19.996	102.837	20.269	10.960	0.488
936.000	547.865	79.991	19.996	102.841	20.278	10.360	0.513
944.000	551.912	79.995	19.996	102.842	20.274	10.618	0.488
952.000	556.123	79.994	19.995	102.850	20.280	10.203	0.536
960.000	560.329	79.992	19.996	102.831	20.288	9.622	0.534
968.000	564.518	79.991	19.996	102.837	20.293	9.201	0.532
976.000	568.613	79.994	19.995	102.839	20.298	8.898	0.527
984.000	572.703	79.994	19.995	102.842	20.300	8.696	0.489
992.000	576.802	79.994	19.996	102.843	20.296	9.003	0.465
1000.000	580.908	79.994	19.996	102.844	20.298	8.852	0.503
1008.000	584.978	79.996	19.995	102.836	20.306	8.279	0.507
1016.000	589.020	79.992	19.997	102.838	20.307	8.188	0.511
1024.000	593.092	79.991	19.998	102.832	20.302	8.603	0.511
1032.000	597.209	79.993	19.996	102.843	20.304	8.395	0.509
1040.000	601.280	79.992	19.995	102.842	20.306	8.310	0.527
1048.000	605.361	79.990	19.994	102.843	20.310	7.972	0.532
1056.000	609.447	79.993	19.996	102.844	20.309	8.052	0.489
1064.000	613.556	79.996	19.996	102.832	20.309	8.062	0.488
1072.000	617.590	79.992	19.995	102.841	20.310	7.957	0.518
1080.000	621.640	79.994	19.996	102.842	20.303	8.504	0.512
1088.000	625.707	79.996	19.996	102.839	20.306	8.310	0.537
1096.000	629.898	79.993	19.997	102.836	20.299	8.775	0.545
1104.000	634.105	79.991	19.995	102.853	20.305	8.327	0.496
1112.000	638.344	79.992	19.995	102.841	20.302	8.550	0.494
1120.000	642.595	79.993	19.998	102.841	20.306	8.268	0.526
1128.000	646.708	79.991	19.995	102.831	20.307	8.225	0.542
1136.000	650.789	79.992	19.994	102.835	20.307	8.244	0.503
1144.000	654.868	79.996	19.996	102.832	20.309	8.089	0.528
1152.000	658.934	79.993	19.995	102.833	20.310	8.012	0.482
1160.000	662.933	79.993	19.995	102.840	20.307	8.201	0.505
1168.000	666.913	79.996	19.995	102.839	20.303	8.469	0.488
1176.000	670.923	79.993	19.995	102.851	20.303	8.501	0.468
1184.000	675.035	79.993	19.997	102.834	20.308	8.128	0.514
1192.000	679.071	79.993	19.994	102.824	20.302	8.572	0.504
1200.000	683.071	79.994	19.997	102.832	20.298	8.896	0.500
1208.000	687.120	79.993	19.997	102.829	20.295	9.079	0.509
1216.000	691.158	79.994	19.996	102.834	20.300	8.748	0.509
1224.001	695.227	79.993	19.995	102.832	20.297	8.969	0.541
1232.000	699.208	79.995	19.994	102.832	20.296	9.038	0.482
1240.000	703.188	79.992	19.994	102.832	20.300	8.723	0.487
1248.000	707.063	79.995	19.994	102.835	20.301	8.628	0.491
1256.000	710.960	79.993	19.996	102.826	20.297	8.955	0.507
1264.000	714.925	79.993	19.994	102.830	20.298	8.843	0.513
1272.000	718.824	79.992	19.996	102.829	20.297	8.948	0.475
1280.000	722.779	79.993	19.996	102.834	20.296	9.011	0.486
1288.000	726.740	79.993	19.996	102.829	20.299	8.795	0.456
1296.000	730.801	79.992	19.996	102.830	20.297	8.962	0.517
1304.000	734.855	79.995	19.996	102.830	20.296	8.989	0.512
1312.000	738.984	79.992	19.995	102.829	20.296	9.001	0.561
1320.000	743.045	79.993	19.994	102.829	20.297	8.940	0.521
1321.000	743.600	79.995	19.995	102.829	20.297	8.960	0.532