Folder: fsri_materials_database/01_Data/PVC_R06/MCC (part 2)

File: PVC_R06_MCC_30K_min_211014_R3.txt
Sample ID:	C:\MCC\MCC Cal\Test\PVC_R06_MCC_30K_min_211014_R3.txt
Sample Weight (mg):	4.6
Heating Rate (C/s):	0.5
Combustor Temp (C):	900
N2 Flow Rate (cc/min):	80
O2 Flow Rate (cc/min):	20
Calibration File:	C:\MCC\MCC Cal\Coeff1 JN10440_30_210304.txt.txt
T Correction Coefficients:	0	1.024463	0
Time Shift (s):	14
*
Time (s)	Temperature (C)	N2 flow rate (cc/min)	O2 flow rate (cc/min)	Flow Rate (cc/min)	Oxygen (%)	HRR (W/g)	Heating rate (C/s)
0.000	108.377	79.992	19.995	102.697	20.429	0.095	-0.006
8.000	108.392	79.992	19.995	102.690	20.427	0.220	0.005
16.000	108.328	79.991	19.996	102.698	20.429	0.093	0.004
24.000	108.314	79.992	19.997	102.722	20.426	0.261	-0.004
32.000	108.502	79.994	19.996	102.739	20.419	0.744	0.036
40.000	108.888	79.994	19.995	102.791	20.411	1.323	0.042
48.000	109.610	79.992	19.995	102.823	20.405	1.780	0.108
56.000	110.627	79.995	19.995	102.891	20.395	2.462	0.166
64.000	112.130	79.996	19.994	102.947	20.386	3.059	0.215
72.000	114.159	79.993	19.994	102.957	20.382	3.382	0.257
80.000	116.644	79.991	19.996	102.978	20.383	3.268	0.314
88.000	119.575	79.992	19.996	102.954	20.377	3.731	0.365
96.000	122.777	79.993	19.996	102.975	20.375	3.847	0.424
104.000	126.200	79.992	19.996	102.983	20.377	3.701	0.423
112.000	129.872	79.993	19.996	102.972	20.379	3.591	0.487
120.000	133.661	79.993	19.996	102.958	20.379	3.585	0.489
128.000	137.688	79.993	19.994	102.954	20.382	3.324	0.501
136.000	141.747	79.994	19.994	102.897	20.387	3.031	0.525
144.000	145.900	79.994	19.995	102.947	20.382	3.335	0.506
152.000	150.004	79.992	19.996	102.938	20.383	3.250	0.519
160.000	154.117	79.991	19.996	102.932	20.387	3.023	0.493
168.000	158.200	79.991	19.996	102.930	20.388	2.933	0.526
176.000	162.246	79.991	19.996	102.911	20.391	2.738	0.521
184.000	166.243	79.991	19.996	102.909	20.390	2.784	0.477
192.000	170.320	79.993	19.996	102.907	20.390	2.780	0.536
200.000	174.341	79.994	19.995	102.906	20.389	2.885	0.535
208.000	178.243	79.993	19.996	102.901	20.389	2.848	0.488
216.000	182.132	79.994	19.996	102.883	20.391	2.741	0.441
224.000	186.134	79.993	19.995	102.883	20.391	2.739	0.523
232.000	190.062	79.991	19.995	102.887	20.389	2.857	0.521
240.000	194.009	79.992	19.995	102.881	20.386	3.047	0.474
248.000	198.026	79.993	19.995	102.880	20.391	2.725	0.536
256.000	201.878	79.992	19.996	102.873	20.393	2.609	0.488
264.000	205.791	79.992	19.996	102.876	20.390	2.773	0.470
272.000	209.720	79.992	19.995	102.868	20.392	2.673	0.479
280.000	213.603	79.994	19.996	102.863	20.392	2.681	0.511
288.000	217.413	79.992	19.996	102.865	20.393	2.617	0.502
296.000	221.250	79.994	19.996	102.861	20.391	2.712	0.518
304.000	225.023	79.995	19.995	102.857	20.392	2.619	0.455
312.000	228.935	79.993	19.996	102.869	20.386	3.083	0.468
320.000	232.804	79.993	19.995	102.868	20.383	3.247	0.477
328.000	236.703	79.993	19.995	102.869	20.375	3.847	0.552
336.000	240.587	79.992	19.995	102.869	20.366	4.441	0.506
344.000	244.501	79.992	19.995	102.873	20.349	5.623	0.486
352.000	248.510	79.993	19.995	102.868	20.331	6.930	0.483
360.000	252.625	79.995	19.995	102.865	20.308	8.508	0.557
368.000	256.627	79.994	19.996	102.868	20.289	9.839	0.563
376.000	260.609	79.994	19.995	102.868	20.278	10.599	0.491
384.000	264.617	79.993	19.995	102.866	20.279	10.559	0.501
392.000	268.648	79.992	19.996	102.869	20.283	10.284	0.488
400.000	272.693	79.992	19.996	102.869	20.291	9.672	0.489
408.000	276.766	79.994	19.995	102.891	20.296	9.342	0.535
416.000	280.674	79.992	19.996	102.915	20.293	9.575	0.500
424.000	284.683	79.994	19.995	102.936	20.285	10.110	0.504
432.000	288.669	79.995	19.995	102.996	20.265	11.545	0.509
440.000	292.652	79.994	19.994	103.035	20.236	13.594	0.491
448.000	296.615	79.993	19.996	103.029	20.203	15.824	0.492
456.000	300.583	79.993	19.995	102.993	20.173	17.912	0.479
464.000	304.441	79.995	19.996	102.758	20.171	18.084	0.469
472.000	308.354	79.991	19.997	102.786	20.176	17.712	0.506
480.000	312.315	79.992	19.997	102.851	20.198	16.213	0.527
488.000	316.362	79.992	19.995	102.860	20.209	15.430	0.502
496.000	320.424	79.993	19.996	102.865	20.222	14.485	0.476
504.000	324.703	79.991	19.996	102.857	20.228	14.085	0.625
512.000	328.697	79.993	19.994	102.832	20.237	13.437	0.518
520.000	332.967	79.994	19.994	102.817	20.250	12.570	0.506
528.000	337.202	79.993	19.994	102.790	20.252	12.395	0.549
536.000	341.453	79.994	19.996	102.771	20.259	11.944	0.526
544.000	345.551	79.995	19.995	102.758	20.261	11.799	0.501
552.000	349.672	79.993	19.995	102.784	20.272	11.022	0.522
560.000	353.797	79.992	19.996	102.800	20.280	10.472	0.487
568.000	357.902	79.993	19.996	102.831	20.289	9.833	0.562
576.000	361.965	79.993	19.995	102.856	20.292	9.656	0.552
584.000	365.978	79.991	19.995	102.873	20.304	8.818	0.494
592.000	370.010	79.993	19.995	102.875	20.296	9.355	0.473
600.000	374.035	79.994	19.994	102.897	20.301	8.988	0.529
608.000	378.023	79.995	19.995	102.897	20.292	9.599	0.505
616.000	382.009	79.993	19.995	102.900	20.288	9.882	0.477
624.000	386.035	79.994	19.995	102.894	20.279	10.531	0.525
632.000	390.031	79.993	19.996	102.896	20.266	11.476	0.488
640.000	394.122	79.993	19.996	102.897	20.257	12.096	0.546
648.000	398.196	79.993	19.995	102.887	20.221	14.596	0.516
656.000	402.202	79.992	19.996	102.886	20.197	16.295	0.494
664.000	406.318	79.992	19.995	102.880	20.163	18.604	0.514
672.000	410.302	79.995	19.995	102.874	20.121	21.527	0.509
680.000	414.298	79.996	19.995	102.888	20.071	25.080	0.461
688.000	418.305	79.994	19.996	102.876	20.014	29.020	0.499
696.000	422.190	79.993	19.995	102.870	19.946	33.791	0.479
704.000	426.048	79.995	19.995	102.874	19.864	39.489	0.493
712.000	429.940	79.994	19.995	102.875	19.783	45.152	0.467
720.000	433.920	79.994	19.995	102.878	19.706	50.523	0.521
728.000	437.950	79.994	19.995	102.867	19.623	56.285	0.505
736.000	442.043	79.994	19.995	102.875	19.545	61.759	0.501
744.000	446.038	79.993	19.996	102.868	19.472	66.826	0.499
752.000	450.063	79.993	19.996	102.869	19.409	71.221	0.524
760.000	454.099	79.994	19.995	102.870	19.413	70.984	0.534
768.000	458.190	79.995	19.994	102.868	19.484	66.029	0.516
776.000	462.374	79.993	19.994	102.899	19.585	58.969	0.461
784.000	466.503	79.995	19.995	102.851	19.649	54.502	0.511
792.000	470.628	79.993	19.996	102.905	19.705	50.581	0.546
800.000	474.798	79.993	19.995	102.882	19.762	46.614	0.532
808.000	479.043	79.993	19.995	102.867	19.770	46.043	0.529
816.000	483.332	79.993	19.996	102.837	19.789	44.733	0.508
824.000	487.631	79.993	19.996	102.854	19.808	43.401	0.515
832.000	491.906	79.993	19.995	102.862	19.852	40.334	0.537
840.000	496.207	79.994	19.995	102.847	19.906	36.523	0.514
848.000	500.405	79.993	19.996	102.861	19.969	32.140	0.533
856.000	504.620	79.995	19.995	102.853	20.026	28.197	0.516
864.000	508.796	79.995	19.995	102.838	20.084	24.157	0.511
872.000	512.871	79.994	19.996	102.837	20.135	20.542	0.498
880.000	517.048	79.993	19.995	102.829	20.179	17.480	0.498
888.000	521.231	79.993	19.995	102.835	20.222	14.526	0.537
896.000	525.327	79.993	19.995	102.830	20.252	12.385	0.500
904.000	529.388	79.991	19.995	102.832	20.281	10.388	0.486
912.000	533.451	79.994	19.996	102.824	20.301	8.988	0.498
920.000	537.478	79.994	19.996	102.825	20.318	7.824	0.490
928.000	541.522	79.993	19.996	102.818	20.328	7.081	0.502
936.000	545.540	79.994	19.996	102.824	20.339	6.341	0.498
944.000	549.579	79.997	19.995	102.817	20.346	5.829	0.521
952.000	553.640	79.994	19.995	102.828	20.355	5.251	0.496
960.000	557.704	79.993	19.996	102.831	20.357	5.100	0.506
968.000	561.828	79.994	19.995	102.823	20.355	5.206	0.515
976.000	565.875	79.993	19.994	102.829	20.364	4.601	0.456
984.000	569.882	79.992	19.994	102.822	20.371	4.112	0.481
992.000	574.043	79.991	19.995	102.824	20.371	4.146	0.499
1000.000	578.105	79.995	19.995	102.824	20.369	4.226	0.521
1008.000	582.101	79.993	19.994	102.810	20.373	4.002	0.545
1016.000	586.133	79.994	19.996	102.820	20.375	3.839	0.507
1024.000	590.087	79.994	19.996	102.801	20.375	3.841	0.481
1032.000	594.116	79.991	19.995	102.818	20.375	3.826	0.473
1040.000	598.172	79.993	19.996	102.819	20.372	4.062	0.493
1048.000	602.189	79.993	19.996	102.817	20.376	3.783	0.508
1056.000	606.226	79.993	19.996	102.818	20.379	3.567	0.488
1064.000	610.260	79.994	19.995	102.804	20.383	3.276	0.505
1072.000	614.342	79.994	19.995	102.816	20.380	3.485	0.518
1080.000	618.400	79.995	19.995	102.808	20.381	3.387	0.503
1088.000	622.440	79.992	19.996	102.823	20.382	3.364	0.517
1096.000	626.493	79.993	19.995	102.802	20.381	3.414	0.497
1104.000	630.549	79.996	19.994	102.801	20.383	3.296	0.487
1112.000	634.656	79.995	19.996	102.813	20.385	3.133	0.528
1120.000	638.725	79.992	19.996	102.811	20.380	3.460	0.505
1128.000	642.848	79.994	19.995	102.797	20.384	3.174	0.524
1136.000	646.876	79.994	19.994	102.808	20.386	3.041	0.519
1144.000	651.093	79.993	19.995	102.805	20.386	3.069	0.521
1152.000	655.205	79.994	19.995	102.798	20.388	2.961	0.518
1160.000	659.261	79.994	19.994	102.794	20.388	2.926	0.504
1168.000	663.219	79.992	19.994	102.806	20.388	2.926	0.485
1176.000	667.199	79.994	19.994	102.801	20.387	2.980	0.492
1184.000	671.178	79.995	19.994	102.789	20.383	3.307	0.478
1192.000	675.201	79.996	19.995	102.788	20.379	3.533	0.503
1200.000	679.191	79.992	19.995	102.808	20.386	3.061	0.519
1208.000	683.227	79.993	19.996	102.797	20.381	3.383	0.492
1216.000	687.287	79.992	19.996	102.799	20.383	3.295	0.496
1224.000	691.347	79.992	19.994	102.796	20.385	3.104	0.497
1232.000	695.368	79.993	19.997	102.793	20.381	3.413	0.513
1240.000	699.476	79.995	19.995	102.797	20.383	3.278	0.517
1248.000	703.504	79.995	19.994	102.788	20.384	3.220	0.517
1256.000	707.530	79.993	19.996	102.787	20.380	3.456	0.499
1264.000	711.545	79.996	19.996	102.791	20.380	3.504	0.501
1272.000	715.538	79.995	19.997	102.793	20.387	2.992	0.532
1280.001	719.526	79.993	19.996	102.792	20.382	3.363	0.510
1288.001	723.501	79.993	19.996	102.793	20.380	3.487	0.491
1296.000	727.506	79.992	19.995	102.790	20.381	3.409	0.543
1304.000	731.495	79.993	19.996	102.787	20.378	3.643	0.529
1312.000	735.504	79.993	19.996	102.790	20.372	4.031	0.482
1320.000	739.510	79.993	19.994	102.788	20.377	3.665	0.519
1328.000	743.572	79.996	19.994	102.785	20.374	3.896	0.518