Folder: fsri_materials_database/01_Data/House_Wrap/STA/N2/10K_min

Note: 01_Data/README.md
# Materials and Products Database
## 01_Data

Raw data generated from each apparatus are included here in plain-text format. The data is organized first by material, next by the short name of test apparatus used, and where applicable additional filtering by test settings.

### material.json

Each material directory contains a json file of the same name as the material. This file links the data stored in the repository as well as data and graphs produced by the accompanying scripts (__02_Scripts__) to the respective landing page for the material on the front-end website.

File: House_Wrap_STA_N2_10KData_220726_R1.csv
##Temp./Â°C,Time/min,Mass loss(subtr.2)/mg,DSC(subtr.2)/(mW/mg),Sensit./(uV/mW)
49.621,10.00917,-0.01351,0.00302226,1.0702
52.221,11.23049,-0.0156626,0.14387,1.06948
54.821,11.62779,-0.01493868,0.21998,1.06876
57.421,11.95775,-0.0169015,0.26658,1.06803
60.021,12.26291,-0.01618236,0.29258,1.06729
62.621,12.55387,-0.01786716,0.31048,1.06655
65.221,12.8406,-0.01808491,0.32153,1.0658
67.821,13.12074,-0.016796,0.32779,1.06504
70.421,13.39835,-0.01812005,0.33145,1.06427
73.021,13.67336,-0.01861887,0.33709,1.0635
75.621,13.9461,-0.01811972,0.34298,1.06272
78.221,14.2158,-0.0188064,0.34644,1.06193
80.821,14.4834,-0.0194482,0.35137,1.06114
83.421,14.74973,-0.01943982,0.35695,1.06034
86.021,15.01278,-0.01923061,0.36359,1.05953
88.621,15.27506,-0.02017639,0.37018,1.05871
91.221,15.5351,-0.02075346,0.37762,1.05789
93.821,15.79437,-0.01971499,0.38548,1.05706
96.421,16.0514,-0.02193431,0.39139,1.05622
99.021,16.30773,-0.02075998,0.39818,1.05538
101.621,16.56346,-0.02069947,0.40531,1.05453
104.221,16.81919,-0.02076,0.41151,1.05367
106.821,17.07378,-0.0215574,0.42168,1.0528
109.421,17.32997,-0.02206997,0.4298,1.05193
112.021,17.5838,-0.02241168,0.44125,1.05105
114.621,17.83822,-0.02207001,0.45814,1.05016
117.221,18.0919,-0.02306713,0.47756,1.04927
119.821,18.34551,-0.02302882,0.50576,1.04837
122.421,18.59808,-0.02207,0.55387,1.04746
125.021,18.85112,-0.0233899,0.63498,1.04654
127.621,19.1046,-0.02339014,0.79904,1.04562
130.221,19.35899,-0.02338801,1.13573,1.04468
132.821,19.61639,-0.02339008,1.69957,1.04375
135.421,19.87649,-0.02207001,2.31136,1.0428
138.021,20.13792,-0.02339022,2.79651,1.04185
140.621,20.399,-0.02271205,3.07604,1.04088
143.221,20.65305,-0.02339013,2.09932,1.03991
145.821,20.89779,-0.02468878,0.91524,1.03894
148.421,21.13971,-0.02471,0.58757,1.03795
151.021,21.38273,-0.02471163,0.49968,1.03696
153.621,21.6267,-0.02569679,0.47606,1.03596
156.221,21.87201,-0.02602349,0.47143,1.03496
158.821,22.11737,-0.02649484,0.46906,1.03394
161.421,22.36395,-0.02733987,0.47144,1.03292
164.021,22.61083,-0.02743372,0.47434,1.03189
166.621,22.858,-0.02734059,0.47494,1.03086
169.221,23.1049,-0.02733985,0.47551,1.02981
171.821,23.352,-0.02766993,0.47701,1.02876
174.421,23.60016,-0.02865977,0.48057,1.0277
177.021,23.84776,-0.02866,0.48207,1.02663
179.621,24.09506,-0.02866159,0.48319,1.02556
182.221,24.34336,-0.02865959,0.48494,1.02448
184.821,24.59132,-0.0287044,0.48345,1.02339
187.421,24.83895,-0.02932002,0.48759,1.02229
190.021,25.08602,-0.02998035,0.4856,1.02118
192.621,25.33397,-0.03128895,0.48912,1.02007
195.221,25.5819,-0.03053767,0.49252,1.01895
197.821,25.82837,-0.03029641,0.494,1.01782
200.421,26.0758,-0.03030961,0.49254,1.01668
203.021,26.32312,-0.03236138,0.49467,1.01553
205.621,26.5711,-0.03277289,0.49542,1.01438
208.221,26.8197,-0.03326911,0.49687,1.01322
210.821,27.0679,-0.03293955,0.49724,1.01205
213.421,27.3165,-0.03294,0.49955,1.01087
216.021,27.5647,-0.03161681,0.50167,1.00969
218.621,27.8121,-0.03293998,0.5057,1.0085
221.221,28.0595,-0.03426032,0.50904,1.0073
223.821,28.30705,-0.03360151,0.50954,1.00609
226.421,28.55508,-0.03491566,0.51219,1.00487
229.021,28.80221,-0.03411125,0.51338,1.00365
231.621,29.0501,-0.0336,0.51643,1.00242
234.221,29.2975,-0.03426003,0.51992,1.00118
236.821,29.5445,-0.03489498,0.51987,0.99993
239.421,29.79255,-0.03652685,0.52204,0.99867
242.021,30.03955,-0.03655999,0.52323,0.99741
244.621,30.28685,-0.03622996,0.52219,0.99614
247.221,30.53397,-0.03655995,0.52567,0.99486
249.821,30.78128,-0.03688999,0.52786,0.99357
252.421,31.0275,-0.03634319,0.52806,0.99227
255.021,31.2759,-0.03689803,0.53115,0.99097
257.621,31.523,-0.03723449,0.53374,0.98965
260.221,31.7702,-0.03853952,0.53442,0.98833
262.821,32.0184,-0.03854,0.53292,0.987
265.421,32.26611,-0.03853242,0.53521,0.98567
268.021,32.51352,-0.03854,0.53628,0.98432
270.621,32.76182,-0.03986036,0.53964,0.98297
273.221,33.0103,-0.0392,0.54053,0.98161
275.821,33.2584,-0.03919724,0.54274,0.98024
278.421,33.50663,-0.04052,0.54456,0.97886
281.021,33.75425,-0.04052002,0.5464,0.97747
283.621,34.00235,-0.04052,0.54723,0.97608
286.221,34.25035,-0.04052,0.54896,0.97468
288.821,34.4985,-0.04052001,0.54969,0.97327
291.421,34.74662,-0.04184001,0.5529,0.97185
294.021,34.99504,-0.04163557,0.55214,0.97042
296.621,35.2436,-0.04249,0.55168,0.96898
299.221,35.4921,-0.04249,0.55353,0.96754
301.821,35.74109,-0.04381003,0.5522,0.96609
304.421,35.99072,-0.04281982,0.55277,0.96463
307.021,36.24042,-0.04414,0.55409,0.96316
309.621,36.4903,-0.04414,0.55393,0.96168
312.221,36.73995,-0.04546018,0.55483,0.9602
314.821,36.98969,-0.04415744,0.55251,0.95871
317.421,37.23985,-0.04578905,0.54705,0.9572
320.021,37.4897,-0.04579924,0.54409,0.9557
322.621,37.73939,-0.04578835,0.54437,0.95418
325.221,37.98911,-0.04612004,0.54503,0.95265
327.821,38.2391,-0.04711007,0.5427,0.95112
330.421,38.4895,-0.04711143,0.54181,0.94957
333.021,38.7397,-0.04809,0.54329,0.94802
335.621,38.98916,-0.04809,0.53994,0.94646
338.221,39.23879,-0.04875,0.54148,0.9449
340.821,39.48921,-0.04875062,0.54033,0.94332
343.421,39.73925,-0.05040035,0.54203,0.94174
346.021,39.98895,-0.0504,0.53972,0.94015
348.621,40.23956,-0.05008652,0.5368,0.93854
351.221,40.49065,-0.0504,0.53662,0.93694
353.821,40.74185,-0.05106026,0.53497,0.93532
356.421,40.99296,-0.05236459,0.53516,0.93369
359.021,41.24479,-0.05241022,0.53321,0.93206
361.621,41.4968,-0.05368832,0.535,0.93042
364.221,41.7486,-0.05369871,0.53652,0.92877
366.821,42.00018,-0.05468,0.54298,0.92711
369.421,42.2528,-0.05368239,0.54714,0.92544
372.021,42.50519,-0.05660846,0.55135,0.92377
374.621,42.75824,-0.056,0.5567,0.92209
377.221,43.0107,-0.05750851,0.5605,0.9204
379.821,43.26265,-0.05775497,0.56738,0.9187
382.421,43.51556,-0.05927012,0.57317,0.91699
385.021,43.7676,-0.06027868,0.5864,0.91527
387.621,44.01996,-0.06159626,0.59196,0.91355
390.221,44.27247,-0.06159095,0.60385,0.91182
392.821,44.52494,-0.06292,0.61529,0.91008
395.421,44.77765,-0.06423015,0.6307,0.90833
398.021,45.0303,-0.06522,0.64951,0.90658
400.621,45.28382,-0.06554997,0.67556,0.90481
403.221,45.5367,-0.06817169,0.69613,0.90304
405.821,45.78957,-0.06949641,0.70636,0.90126
408.421,46.04385,-0.07087801,0.71077,0.89947
411.021,46.2977,-0.07213606,0.7163,0.89767
413.621,46.5513,-0.07609082,0.71656,0.89587
416.221,46.80645,-0.07740992,0.71814,0.89406
418.821,47.0614,-0.08135913,0.71713,0.89224
421.421,47.31603,-0.0853104,0.72254,0.89041
424.021,47.57063,-0.08990077,0.71426,0.88857
426.621,47.82591,-0.09394752,0.70313,0.88673
429.221,48.08112,-0.10044,0.74347,0.88488
431.821,48.33619,-0.10966,0.72811,0.88302
434.421,48.59105,-0.11899,0.72313,0.88115
437.021,48.8461,-0.1293,0.72793,0.87927
439.621,49.1008,-0.1438,0.73829,0.87739
442.221,49.3558,-0.15959,0.75815,0.8755
444.821,49.6109,-0.17733,0.78402,0.8736
447.421,49.86598,-0.20012,0.81044,0.87169
450.021,50.12133,-0.2264,0.85077,0.86978
452.621,50.37724,-0.25888,0.89667,0.86785
455.221,50.63276,-0.29786,0.95089,0.86592
457.821,50.88864,-0.34629,1.01529,0.86399
460.421,51.14516,-0.40554,1.09028,0.86204
463.021,51.40188,-0.47905,1.17797,0.86009
465.621,51.65899,-0.56621,1.28876,0.85813
468.221,51.9159,-0.67666,1.41899,0.85616
470.821,52.17385,-0.81565,1.57819,0.85418
473.421,52.4316,-0.98618,1.75571,0.8522
476.021,52.6875,-1.03132,1.91767,0.85021
478.621,52.9413,-1.23512,2.11243,0.84821
481.221,53.196,-1.54549,2.26407,0.8462
483.821,53.4508,-1.89348,2.37099,0.84419
486.421,53.70681,-2.28358,2.38694,0.84217
489.021,53.9632,-2.7039,2.29797,0.84014
491.621,54.21949,-3.10292,2.03205,0.83811
494.221,54.4743,-3.45423,1.62663,0.83607
496.821,54.7277,-3.70667,1.13453,0.83402
499.421,54.98,-3.88162,0.66948,0.83196
502.021,55.23106,-3.98047,0.3535,0.8299
504.621,55.4819,-4.0453,0.19118,0.82783
507.221,55.73405,-4.04311,0.1226,0.82575
509.821,55.9871,-4.04982,0.10283,0.82366
512.421,56.2409,-4.04935,0.09161529,0.82157
515.021,56.49507,-4.04574,0.08618673,0.81947
517.621,56.75006,-4.05079,0.08351553,0.81737
520.221,57.0053,-4.0503,0.08412482,0.81526
522.821,57.26115,-4.05368,0.08342819,0.81314
525.421,57.5174,-4.08843,0.07961156,0.81101
528.021,57.78244,-4.05575,0.07972303,0.80888
530.621,58.1129,-4.9914,0.79854,0.80674
533.221,58.3718,-4.41315,0.32217,0.80459
535.821,58.62066,-4.17717,0.16091,0.80244
538.421,58.87011,-4.1005,0.12111,0.80028
541.021,59.1203,-4.0789,0.10976,0.79811
543.621,59.37384,-4.07278,0.11181,0.79594
546.221,59.6281,-4.07082,0.10963,0.79376
548.821,59.88471,-4.0688,0.11281,0.79157
551.421,60.14199,-4.0688,0.11496,0.78938
554.021,60.4004,-4.06783,0.11789,0.78718
556.621,60.65931,-4.06715,0.11779,0.78498
559.221,60.91861,-4.06616,0.11722,0.78277
561.821,61.1777,-4.06583,0.11556,0.78055
564.421,61.4363,-4.06451,0.11862,0.77833
567.021,61.6959,-4.06286,0.11904,0.7761
569.621,61.9556,-4.06319,0.12074,0.77387
572.221,62.21501,-4.06221,0.12467,0.77162
574.821,62.475,-4.06123,0.12532,0.76938
577.421,62.7349,-4.06221,0.12398,0.76712
580.021,62.99491,-4.06095,0.1227,0.76487
582.621,63.25441,-4.06089,0.12393,0.7626
585.221,63.51381,-4.06056,0.12115,0.76033
587.821,63.77381,-4.06056,0.12012,0.75806
590.421,64.03365,-4.05957,0.11665,0.75577
593.021,64.29443,-4.05957,0.11289,0.75349
595.621,64.55379,-4.06059,0.11038,0.75119
598.221,64.81318,-4.05958,0.10917,0.7489
600.821,65.07225,-4.05924,0.10926,0.74659
603.421,65.3319,-4.05893,0.1034,0.74428
606.021,65.59186,-4.05892,0.10354,0.74197
608.621,65.8523,-4.05925,0.10295,0.73965
611.221,66.11313,-4.05866,0.10358,0.73733
613.821,66.37436,-4.05892,0.10581,0.735
616.421,66.63523,-4.05892,0.10758,0.73266
619.021,66.89725,-4.05991,0.11414,0.73032
621.621,67.15754,-4.06089,0.1162,0.72798
624.221,67.41801,-4.05989,0.11715,0.72563
626.821,67.67817,-4.0599,0.12426,0.72328
629.421,67.93805,-4.06123,0.12661,0.72092
632.021,68.19893,-4.05957,0.13051,0.71856
634.621,68.4598,-4.06023,0.13684,0.71619
637.221,68.7205,-4.06093,0.14401,0.71381
639.821,68.98105,-4.06057,0.14465,0.71144
642.421,69.2419,-4.06121,0.14714,0.70906
645.021,69.50209,-4.06187,0.15443,0.70667
647.621,69.76244,-4.06188,0.15768,0.70428
649.921,69.99288,-4.06089,0.15949,0.70216

File: House_Wrap_STA_N2_10KData_220727_R2.csv
##Temp./Â°C,Time/min,Mass loss(subtr.2)/mg,DSC(subtr.2)/(mW/mg),Sensit./(uV/mW)
49.66,10.01,0.01812,0.001985294,1.07019
52.26,11.227,0.01810889,0.14023,1.06947
54.86,11.6249,0.01771655,0.21154,1.06875
57.46,11.95695,0.01775542,0.25689,1.06802
60.06,12.26243,0.02012403,0.28349,1.06728
62.66,12.555,0.02099459,0.2999,1.06654
65.26,12.83998,0.02009866,0.30936,1.06578
67.86,13.12135,0.02018986,0.31299,1.06503
70.46,13.39896,0.02162999,0.31941,1.06426
73.06,13.67416,0.02174613,0.32179,1.06349
75.66,13.94675,0.02042569,0.32899,1.06271
78.26,14.21708,0.02173645,0.3338,1.06192
80.86,14.4845,0.02194501,0.33763,1.06113
83.46,14.7515,0.02305767,0.34549,1.06032
86.06,15.0155,0.02395061,0.35301,1.05952
88.66,15.27745,0.02394,0.35844,1.0587
91.26,15.5371,0.02774354,0.36514,1.05788
93.86,15.79674,0.02306002,0.37044,1.05705
96.46,16.05497,0.02436704,0.37666,1.05621
99.06,16.3117,0.02503158,0.38273,1.05537
101.66,16.56845,0.02393789,0.39062,1.05452
104.26,16.82444,0.02655343,0.39573,1.05366
106.86,17.0798,0.02482,0.40856,1.05279
109.46,17.33446,0.02527237,0.41533,1.05192
112.06,17.58856,0.0252596,0.42763,1.05104
114.66,17.84241,0.02676714,0.44131,1.05015
117.26,18.09625,0.02715175,0.46038,1.04926
119.86,18.3498,0.02789,0.4895,1.04835
122.46,18.60285,0.02744954,0.53242,1.04744
125.06,18.85604,0.02879348,0.60671,1.04653
127.66,19.11006,0.02877,0.75336,1.0456
130.26,19.36414,0.02813119,1.05365,1.04467
132.86,19.62075,0.02944407,1.57725,1.04373
135.46,19.88064,0.02976689,2.28913,1.04278
138.06,20.143,0.02975,2.77074,1.04183
140.66,20.40416,0.03071831,2.97742,1.04087
143.26,20.65908,0.03108,2.08748,1.0399
145.86,20.9041,0.03008995,0.9144,1.03892
148.46,21.1451,0.03106364,0.58217,1.03794
151.06,21.3885,0.03041,0.49284,1.03695
153.66,21.63267,0.03074151,0.46907,1.03595
156.26,21.87806,0.03042,0.46415,1.03494
158.86,22.12402,0.02947206,0.46237,1.03393
161.46,22.37063,0.03074897,0.4649,1.03291
164.06,22.61788,0.03041989,0.46551,1.03188
166.66,22.86516,0.03041,0.46632,1.03084
169.26,23.1133,0.0314,0.46921,1.0298
171.86,23.36117,0.03074211,0.47171,1.02874
174.46,23.60977,0.03174133,0.4753,1.02768
177.06,23.8578,0.03181268,0.47484,1.02662
179.66,24.10587,0.03239998,0.47608,1.02554
182.26,24.35417,0.03208337,0.47861,1.02446
184.86,24.60193,0.03239756,0.47983,1.02337
187.46,24.84918,0.03305,0.48122,1.02227
190.06,25.09706,0.03242622,0.48234,1.02116
192.66,25.3451,0.03205998,0.48664,1.02005
195.26,25.5926,0.03207844,0.48813,1.01893
197.86,25.83981,0.03240107,0.48941,1.0178
200.46,26.0876,0.03171499,0.49207,1.01666
203.06,26.3349,0.03264713,0.49221,1.01552
205.66,26.5823,0.03238999,0.49461,1.01436
208.26,26.82935,0.03239001,0.4966,1.0132
210.86,27.07657,0.03239443,0.50038,1.01203
213.46,27.32419,0.03200665,0.50286,1.01086
216.06,27.571,0.03433367,0.50288,1.00967
218.66,27.8189,0.03370859,0.50251,1.00848
221.26,28.06652,0.03273096,0.50456,1.00728
223.86,28.314,0.03326722,0.50492,1.00607
226.46,28.5622,0.03459003,0.5087,1.00486
229.06,28.80991,0.03327003,0.51,1.00363
231.66,29.0579,0.03326393,0.51276,1.0024
234.26,29.30547,0.03360509,0.51361,1.00116
236.86,29.55195,0.03426,0.51536,0.99991
239.46,29.79976,0.03393055,0.51798,0.99865
242.06,30.04733,0.03425937,0.52011,0.99739
244.66,30.29412,0.03458996,0.52019,0.99612
247.26,30.54167,0.03557863,0.52108,0.99484
249.86,30.7887,0.03425814,0.52226,0.99355
252.46,31.0365,0.03442247,0.52421,0.99225
255.06,31.2839,0.03660482,0.52547,0.99095
257.66,31.5312,0.0347617,0.52906,0.98963
260.26,31.7786,0.03435133,0.5301,0.98831
262.86,32.02541,0.03088017,0.53014,0.98698
265.46,32.27281,0.03597559,0.53226,0.98565
268.06,32.5199,0.03733259,0.53238,0.9843
270.66,32.76715,0.03675742,0.53261,0.98295
273.26,33.01525,0.03705022,0.53537,0.98159
275.86,33.26307,0.03635696,0.53687,0.98022
278.46,33.5107,0.03437,0.53646,0.97884
281.06,33.75864,0.03536451,0.53554,0.97745
283.66,34.00782,0.03535869,0.53734,0.97606
286.26,34.25608,0.03536027,0.5385,0.97465
288.86,34.5051,0.03469828,0.53758,0.97324
291.46,34.75427,0.03469851,0.54045,0.97183
294.06,35.0032,0.03397717,0.54303,0.9704
296.66,35.25192,0.0362297,0.5437,0.96896
299.26,35.501,0.03483658,0.54619,0.96752
301.86,35.7494,0.03336799,0.54837,0.96607
304.46,35.99855,0.03360407,0.54828,0.96461
307.06,36.24783,0.03469,0.54872,0.96314
309.66,36.497,0.03422974,0.54891,0.96166
312.26,36.74692,0.03279681,0.54989,0.96018
314.86,36.99733,0.03253083,0.55051,0.95868
317.46,37.24775,0.0348373,0.54946,0.95718
320.06,37.4972,0.0320215,0.55026,0.95567
322.66,37.7483,0.03427438,0.55199,0.95415
325.26,37.9979,0.03353116,0.55201,0.95263
327.86,38.24827,0.03308233,0.55588,0.95109
330.46,38.49838,0.03458666,0.55599,0.94955
333.06,38.7485,0.03359541,0.55655,0.948
335.66,38.99899,0.03342241,0.5561,0.94644
338.26,39.24921,0.0325,0.55563,0.94487
340.86,39.50016,0.03249522,0.55593,0.9433
343.46,39.75028,0.03185,0.55828,0.94171
346.06,40.0014,0.02961061,0.55851,0.94012
348.66,40.2517,0.03344238,0.56186,0.93852
351.26,40.50294,0.03096225,0.56134,0.93691
353.86,40.7537,0.03008478,0.5636,0.93529
356.46,41.00496,0.02931951,0.56585,0.93367
359.06,41.25628,0.02845503,0.56724,0.93204
361.66,41.50752,0.02953997,0.56825,0.93039
364.26,41.7587,0.02986999,0.56948,0.92874
366.86,42.01008,0.02898942,0.56939,0.92709
369.46,42.26215,0.02867371,0.57198,0.92542
372.06,42.51409,0.02767151,0.57363,0.92374
374.66,42.76621,0.02897954,0.57388,0.92206
377.26,43.01875,0.02734,0.57616,0.92037
379.86,43.27135,0.02634491,0.57846,0.91867
382.46,43.52482,0.02729967,0.57935,0.91696
385.06,43.7774,0.02426158,0.58156,0.91525
387.66,44.03102,0.0242643,0.58577,0.91353
390.26,44.28379,0.02316515,0.58637,0.91179
392.86,44.53774,0.0229058,0.58707,0.91005
395.46,44.79104,0.02184512,0.58774,0.90831
398.06,45.04463,0.02184512,0.59303,0.90655
400.66,45.2982,0.01873649,0.59624,0.90478
403.26,45.55192,0.01777927,0.60001,0.90301
405.86,45.8056,0.01614077,0.6048,0.90123
408.46,46.05898,0.01373031,0.60744,0.89944
411.06,46.3133,0.01383973,0.61398,0.89765
413.66,46.56709,0.01006935,0.61671,0.89584
416.26,46.8215,0.00860759,0.62288,0.89403
418.86,47.07594,0.00285663,0.62893,0.89221
421.46,47.32993,0.00220901,0.63387,0.89038
424.06,47.5844,-0.002022681,0.6407,0.88854
426.66,47.83934,-0.006252427,0.64465,0.8867
429.26,48.0936,-0.01362855,0.65387,0.88485
431.86,48.34837,-0.01930699,0.66033,0.88299
434.46,48.603,-0.02851117,0.67185,0.88112
437.06,48.8579,-0.03845097,0.68856,0.87924
439.66,49.1121,-0.04986607,0.7068,0.87736
442.26,49.3667,-0.06406166,0.7299,0.87547
444.86,49.62093,-0.08036175,0.75409,0.87357
447.46,49.8765,-0.0994145,0.78324,0.87166
450.06,50.13204,-0.12597,0.81726,0.86975
452.66,50.3877,-0.15534,0.86118,0.86782
455.26,50.64332,-0.19033,0.91332,0.86589
457.86,50.8996,-0.23388,0.9751,0.86396
460.46,51.15585,-0.29228,1.04904,0.86201
463.06,51.4125,-0.3563,1.13814,0.86006
465.66,51.66935,-0.4421,1.24242,0.8581
468.26,51.92642,-0.54563,1.37513,0.85613
470.86,52.18346,-0.67904,1.51653,0.85415
473.46,52.44025,-0.84019,1.69368,0.85217
476.06,52.6983,-1.04396,1.86978,0.85018
478.66,52.9567,-1.29256,2.05635,0.84818
481.26,53.2151,-1.57861,2.2082,0.84617
483.86,53.4731,-1.91051,2.2998,0.84416
486.46,53.73157,-2.26181,2.32154,0.84214
489.06,53.98848,-2.63212,2.21681,0.84011
491.66,54.24363,-2.97515,1.96213,0.83808
494.26,54.4987,-3.27794,1.56757,0.83604
496.86,54.75124,-3.50767,1.08474,0.83399
499.46,55.00405,-3.65819,0.62719,0.83193
502.06,55.2566,-3.7337,0.30663,0.82987
504.66,55.51099,-3.76031,0.14137,0.8278
507.26,55.76615,-3.76818,0.07049849,0.82572
509.86,56.02174,-3.77105,0.06020782,0.82363
512.46,56.2787,-3.77061,0.05127223,0.82154
515.06,56.5367,-3.77161,0.04288996,0.81944
517.66,56.7942,-3.76967,0.04650951,0.81734
520.26,57.05242,-3.77315,0.04934304,0.81522
522.86,57.31041,-3.77204,0.04873478,0.8131
525.46,57.56833,-3.77204,0.04960423,0.81098
528.06,57.8263,-3.76944,0.04241972,0.80884
530.66,58.0843,-3.77175,0.03959178,0.8067
533.26,58.3421,-3.77306,0.03899387,0.80456
535.86,58.60011,-3.77028,0.04164899,0.8024
538.46,58.8585,-3.7716,0.03974256,0.80025
541.06,59.11655,-3.77113,0.04299905,0.79808
543.66,59.3749,-3.77013,0.04284139,0.79591
546.26,59.6331,-3.77293,0.04471653,0.79373
548.86,59.89213,-3.77193,0.04393914,0.79154
551.46,60.151,-3.7716,0.04401444,0.78935
554.06,60.41046,-3.77281,0.04537032,0.78715
556.66,60.6691,-3.77139,0.0460231,0.78495
559.26,60.9282,-3.77214,0.04635861,0.78274
561.86,61.1874,-3.77218,0.04796425,0.78052
564.46,61.44635,-3.77117,0.05032148,0.7783
567.06,61.7056,-3.77249,0.05289109,0.77607
569.66,61.96441,-3.77138,0.05504518,0.77383
572.26,62.22394,-3.77214,0.05364502,0.77159
574.86,62.48295,-3.77116,0.05934997,0.76934
577.46,62.7425,-3.77116,0.06020236,0.76709
580.06,63.003,-3.77116,0.05718758,0.76483
582.66,63.26361,-3.77116,0.06046452,0.76257
585.26,63.5235,-3.77248,0.06045141,0.7603
587.86,63.78317,-3.77106,0.06313563,0.75802
590.46,64.04265,-3.77017,0.06557486,0.75574
593.06,64.30193,-3.76951,0.06623064,0.75345
595.66,64.5613,-3.77116,0.06756044,0.75116
598.26,64.82138,-3.7705,0.06964667,0.74886
600.86,65.0814,-3.77029,0.07145055,0.74656
603.46,65.34206,-3.77018,0.07405839,0.74425
606.06,65.602,-3.76985,0.07783905,0.74194
608.66,65.86256,-3.77027,0.07873864,0.73962
611.26,66.1226,-3.76992,0.08113047,0.73729
613.86,66.38285,-3.76908,0.0839855,0.73496
616.46,66.6432,-3.76767,0.08950053,0.73263
619.06,66.90325,-3.76907,0.09282605,0.73029
621.66,67.16367,-3.76973,0.0974584,0.72795
624.26,67.42408,-3.76942,0.10152,0.7256
626.86,67.68441,-3.76832,0.1046,0.72324
629.46,67.94462,-3.76984,0.10726,0.72088
632.06,68.20596,-3.76928,0.11195,0.71852
634.66,68.46725,-3.76787,0.1177,0.71615
637.26,68.7282,-3.77011,0.124,0.71378
639.86,68.9885,-3.76497,0.13041,0.7114
642.46,69.25058,-3.76809,0.14608,0.70902
645.06,69.5119,-3.76776,0.14534,0.70663
647.66,69.77394,-3.76908,0.14112,0.70424
649.86,69.9957,-3.76677,0.13662,0.70222