Folder: fsri_materials_database/01_Data/House_Wrap/STA/N2/10K_min (part 2)

File: House_Wrap_STA_N2_10KData_220727_R3.csv
##Temp./Â°C,Time/min,Mass loss(subtr.2)/mg,DSC(subtr.2)/(mW/mg),Sensit./(uV/mW)
49.315,10.01,-0.00692,0.01050869,1.07028
51.915,11.22993,-0.002853703,0.16315,1.06957
54.515,11.6275,-0.006587705,0.23937,1.06885
57.115,11.95951,-0.003216188,0.28794,1.06812
59.715,12.26349,-0.002915057,0.31876,1.06738
62.315,12.55613,-0.00330606,0.33837,1.06664
64.915,12.84251,-0.001499462,0.35132,1.06588
67.515,13.1229,-0.0005882587,0.35961,1.06513
70.115,13.40044,-0.000666622,0.36615,1.06436
72.715,13.6754,-0.0005585669,0.37028,1.06359
75.315,13.94682,-0.00187971,0.37944,1.06281
77.915,14.2171,-0.0004513553,0.38199,1.06202
80.515,14.48499,-0.0006804904,0.39068,1.06123
83.115,14.75036,-0.0002223322,0.39967,1.06043
85.715,15.0131,-0.001399778,0.40811,1.05962
88.315,15.2738,-0.000231824,0.41415,1.05881
90.915,15.5332,-4.66958e-05,0.42273,1.05799
93.515,15.7924,-0.00143362,0.42911,1.05716
96.115,16.04916,-0.000120215,0.43572,1.05632
98.715,16.3056,-6.546437e-05,0.44414,1.05548
101.315,16.56048,-0.001308306,0.45262,1.05463
103.915,16.81576,0.001072665,0.46061,1.05377
106.515,17.07006,-0.000340003,0.46913,1.05291
109.115,17.32432,-0.000841942,0.48084,1.05203
111.715,17.57872,0.0007595974,0.4929,1.05116
114.315,17.84229,-0.0006734475,0.50612,1.05027
116.915,18.0954,0.000763435,0.52907,1.04937
119.515,18.34901,0.00206845,0.55754,1.04847
122.115,18.6021,0.0006528764,0.60159,1.04756
124.715,18.8556,0.0010424,0.67625,1.04665
127.315,19.10916,0.001967698,0.827,1.04573
129.915,19.364,0.001565135,1.12493,1.04479
132.515,19.6202,0.00197,1.6306,1.04386
135.115,19.8801,0.00329031,2.29125,1.04291
137.715,20.14172,0.003406037,2.94586,1.04196
140.315,20.40468,0.004632,3.1868,1.041
142.915,20.65965,0.00329,2.16468,1.04003
145.515,20.9051,0.00282985,1.10869,1.03905
148.115,21.146,0.003245435,0.68868,1.03807
150.715,21.3874,0.002541756,0.57457,1.03708
153.315,21.6315,0.003364457,0.5425,1.03608
155.915,21.87649,0.003949997,0.53537,1.03508
158.515,22.12256,0.002630817,0.53521,1.03406
161.115,22.36946,0.003948731,0.537,1.03304
163.715,22.6161,0.000348987,0.53817,1.03202
166.315,22.86385,0.003774064,0.54012,1.03098
168.915,23.1118,0.00208,0.54348,1.02994
171.515,23.35914,0.003047716,0.54672,1.02888
174.115,23.6069,0.00351553,0.54936,1.02783
176.715,23.8539,0.00209251,0.55176,1.02676
179.315,24.10262,0.00361986,0.55421,1.02569
181.915,24.34969,0.00292401,0.55488,1.0246
184.515,24.5979,0.002302653,0.55925,1.02351
187.115,24.8442,0.00219,0.56005,1.02242
189.715,25.0912,0.003185232,0.56334,1.02131
192.315,25.33878,0.001857132,0.5674,1.0202
194.915,25.58597,0.00448835,0.56693,1.01908
197.515,25.83304,0.003207568,0.57092,1.01795
200.115,26.08061,0.004814119,0.57254,1.01681
202.715,26.328,0.00395565,0.57523,1.01567
205.315,26.5749,0.00230001,0.57932,1.01452
207.915,26.82217,0.00328162,0.58108,1.01336
210.515,27.0689,0.004265184,0.58449,1.01219
213.115,27.31588,0.003026467,0.58538,1.01101
215.715,27.56346,0.001565056,0.58684,1.00983
218.315,27.8112,0.003289996,0.58938,1.00864
220.915,28.0595,0.00295986,0.59154,1.00744
223.515,28.3071,0.003939812,0.59274,1.00623
226.115,28.55485,0.003778009,0.59705,1.00502
228.715,28.8023,0.0009963297,0.59875,1.00379
231.315,29.04942,0.00373,0.60308,1.00256
233.915,29.29615,0.004395351,0.60376,1.00132
236.515,29.54372,0.00433127,0.60375,1.00008
239.115,29.79068,0.002452847,0.60847,0.99882
241.715,30.0382,0.002739998,0.60973,0.99756
244.315,30.2851,0.00405291,0.61129,0.99629
246.915,30.5316,0.00302647,0.61467,0.99501
249.515,30.77948,0.00318,0.6136,0.99372
252.115,31.0272,0.003180004,0.61462,0.99242
254.715,31.2746,0.002777032,0.61645,0.99112
257.315,31.522,0.00174732,0.61854,0.98981
259.915,31.7699,0.002079981,0.61992,0.98849
262.515,32.0182,0.002410001,0.62128,0.98716
265.115,32.266,0.003719045,0.62254,0.98582
267.715,32.51357,0.001082309,0.62478,0.98448
270.315,32.76119,0.002519998,0.62701,0.98313
272.915,33.00849,0.003058571,0.62922,0.98177
275.515,33.25623,0.002519398,0.6296,0.9804
278.115,33.50387,0.004243686,0.629,0.97902
280.715,33.7521,0.002850845,0.63242,0.97764
283.315,33.9998,0.00285073,0.6331,0.97624
285.915,34.24823,0.00187733,0.63529,0.97484
288.515,34.49661,0.001970026,0.63605,0.97343
291.115,34.7444,0.00323855,0.63818,0.97201
293.715,34.9916,0.0008803078,0.63626,0.97059
296.315,35.2403,0.00315335,0.63941,0.96915
298.915,35.4891,0.002189935,0.63744,0.96771
301.515,35.73773,0.001196365,0.64182,0.96626
304.115,35.9863,0.003182155,0.64153,0.9648
306.715,36.2348,0.00188519,0.64353,0.96333
309.315,36.4841,0.0005384831,0.64365,0.96186
311.915,36.73359,0.00153,0.64307,0.96037
314.515,36.98209,0.0005235914,0.64521,0.95888
317.115,37.23245,0.000649986,0.64613,0.95738
319.715,37.48346,0.001030259,0.64697,0.95587
322.315,37.73337,0.0008211613,0.64964,0.95436
324.915,37.98375,0.00011,0.65089,0.95283
327.515,38.23346,0.00011,0.65276,0.9513
330.115,38.48431,0.001406504,0.65549,0.94976
332.715,38.7342,-0.001323108,0.65582,0.94821
335.315,38.98425,-0.00165003,0.65784,0.94665
337.915,39.2341,-0.001656019,0.65968,0.94508
340.515,39.48411,-0.0003399999,0.66001,0.94351
343.115,39.73536,-0.0003401279,0.65904,0.94192
345.715,39.98636,-0.001660038,0.66211,0.94033
348.315,40.2363,-0.000372048,0.66363,0.93873
350.915,40.48791,-0.00133,0.66644,0.93713
353.515,40.73879,-0.000999642,0.67012,0.93551
356.115,40.9901,-0.001000052,0.67324,0.93389
358.715,41.2413,-0.003000079,0.67328,0.93225
361.315,41.49303,-0.00341434,0.67319,0.93061
363.915,41.7447,-0.0033,0.67699,0.92896
366.515,41.99731,-0.001976059,0.678,0.92731
369.115,42.24967,-0.00428,0.68146,0.92564
371.715,42.50169,-0.00384005,0.68256,0.92397
374.315,42.7542,-0.00515996,0.6823,0.92229
376.915,43.00646,-0.006840118,0.68416,0.9206
379.515,43.2587,-0.00749274,0.68935,0.9189
382.115,43.51169,-0.007088315,0.69121,0.91719
384.715,43.76356,-0.009116075,0.69331,0.91548
387.315,44.01702,-0.009330005,0.69811,0.91375
389.915,44.2697,-0.00968931,0.69922,0.91202
392.515,44.52248,-0.0133784,0.70512,0.91028
395.115,44.7754,-0.01258329,0.70618,0.90854
397.715,45.0297,-0.0116413,0.7118,0.90678
400.315,45.2828,-0.01361966,0.71551,0.90502
402.915,45.53569,-0.01641774,0.72199,0.90325
405.515,45.78901,-0.01915718,0.72748,0.90147
408.115,46.0424,-0.01910653,0.73308,0.89968
410.715,46.29583,-0.02140021,0.73953,0.89789
413.315,46.54916,-0.02570008,0.74228,0.89608
415.915,46.8031,-0.02831406,0.74713,0.89427
418.515,47.05648,-0.03238862,0.75462,0.89245
421.115,47.31105,-0.03529456,0.75988,0.89062
423.715,47.5653,-0.03990369,0.76444,0.88879
426.315,47.82,-0.04655926,0.77078,0.88695
428.915,48.07464,-0.05297694,0.77884,0.88509
431.515,48.32986,-0.06048807,0.78846,0.88323
434.115,48.58535,-0.07111186,0.8024,0.88137
436.715,48.84075,-0.08095673,0.81691,0.87949
439.315,49.09598,-0.09471723,0.83535,0.87761
441.915,49.35118,-0.10757,0.8582,0.87572
444.515,49.60637,-0.12734,0.88553,0.87382
447.115,49.86071,-0.14683,0.91807,0.87192
449.715,50.11594,-0.17491,0.95482,0.87
452.315,50.37115,-0.20605,0.99421,0.86808
454.915,50.62685,-0.24219,1.04344,0.86615
457.515,50.8834,-0.29268,1.10533,0.86421
460.115,51.1395,-0.35443,1.17981,0.86227
462.715,51.39535,-0.42218,1.26385,0.86032
465.315,51.65092,-0.51319,1.36798,0.85836
467.915,51.9074,-0.62227,1.49287,0.85639
470.515,52.16467,-0.7558,1.64471,0.85442
473.115,52.4223,-0.93458,1.81169,0.85243
475.715,52.68019,-1.14889,1.996,0.85044
478.315,52.938,-1.40269,2.17013,0.84845
480.915,53.19605,-1.70461,2.32783,0.84644
483.515,53.45409,-2.05051,2.43327,0.84443
486.115,53.71212,-2.41857,2.45061,0.84241
488.715,53.9694,-2.80905,2.36514,0.84038
491.315,54.22589,-3.18019,2.12203,0.83835
493.915,54.4801,-3.50485,1.72733,0.83631
496.515,54.73288,-3.76075,1.24057,0.83426
499.115,54.98424,-3.92042,0.77085,0.8322
501.715,55.23649,-4.0038,0.42777,0.83014
504.315,55.48999,-4.0385,0.24675,0.82807
506.915,55.7444,-4.04731,0.16928,0.82599
509.515,56,-4.05014,0.15835,0.82391
512.115,56.2558,-4.05054,0.16483,0.82182
514.715,56.5136,-4.05112,0.14759,0.81972
517.315,56.7712,-4.0498,0.14561,0.81762
519.915,57.02861,-4.0498,0.14134,0.8155
522.515,57.28702,-4.0507,0.13794,0.81339
525.115,57.5452,-4.04914,0.12767,0.81126
527.715,57.8032,-4.05178,0.12214,0.80913
530.315,58.06168,-4.05046,0.12195,0.80699
532.915,58.32102,-4.04837,0.12044,0.80484
535.515,58.57945,-4.05123,0.1177,0.80269
538.115,58.83855,-4.05123,0.11555,0.80053
540.715,59.0973,-4.05304,0.11895,0.79837
543.315,59.35604,-4.05299,0.11975,0.79619
545.915,59.61427,-4.04975,0.1173,0.79402
548.515,59.87294,-4.04759,0.1183,0.79183
551.115,60.1317,-4.05123,0.11944,0.78964
553.715,60.38992,-4.04991,0.11619,0.78744
556.315,60.64905,-4.05132,0.11784,0.78524
558.915,60.9083,-4.052,0.11792,0.78303
561.515,61.16774,-4.05201,0.11574,0.78081
564.115,61.42677,-4.05156,0.11857,0.77859
566.715,61.68586,-4.054,0.11762,0.77636
569.315,61.9449,-4.0521,0.11735,0.77413
571.915,62.2037,-4.05145,0.11946,0.77189
574.515,62.46346,-4.0521,0.11949,0.76964
577.115,62.7227,-4.05243,0.12003,0.76739
579.715,62.9824,-4.05245,0.12281,0.76513
582.315,63.24211,-4.05239,0.12434,0.76287
584.915,63.50187,-4.05189,0.12503,0.7606
587.515,63.76107,-4.05157,0.12457,0.75832
590.115,64.02068,-4.05023,0.12548,0.75604
592.715,64.28045,-4.05156,0.12292,0.75376
595.315,64.53996,-4.05156,0.12273,0.75146
597.915,64.80017,-4.05048,0.12813,0.74917
600.515,65.06052,-4.05079,0.12276,0.74686
603.115,65.32034,-4.05145,0.13215,0.74456
605.715,65.5808,-4.05272,0.12945,0.74224
608.315,65.84107,-4.05024,0.12828,0.73992
610.915,66.10092,-4.05167,0.12658,0.7376
613.515,66.3616,-4.05233,0.1306,0.73527
616.115,66.62253,-4.05102,0.13242,0.73294
618.715,66.88368,-4.04972,0.13365,0.7306
621.315,67.14432,-4.05102,0.13085,0.72826
623.915,67.40536,-4.05126,0.1321,0.72591
626.515,67.66579,-4.05171,0.13448,0.72355
629.115,67.92666,-4.05027,0.14061,0.7212
631.715,68.1871,-4.04998,0.13351,0.71883
634.315,68.44756,-4.05209,0.14159,0.71647
636.915,68.70829,-4.04957,0.13429,0.71409
639.515,68.96916,-4.05167,0.13719,0.71172
642.115,69.22986,-4.052,0.14323,0.70934
644.715,69.49133,-4.0509,0.1421,0.70695
647.315,69.7517,-4.05062,0.13615,0.70456
649.715,69.99459,-4.04913,0.13695,0.70235