Folder: fsri_materials_database/01_Data/Fiberboard_Pressed_Paper/MCC

Note: 01_Data/README.md
# Materials and Products Database
## 01_Data

Raw data generated from each apparatus are included here in plain-text format. The data is organized first by material, next by the short name of test apparatus used, and where applicable additional filtering by test settings.

### material.json

Each material directory contains a json file of the same name as the material. This file links the data stored in the repository as well as data and graphs produced by the accompanying scripts (__02_Scripts__) to the respective landing page for the material on the front-end website.

File: Fiberboard_Pressed_Paper_MCC_30K_min_211005_R1.txt
Sample ID:	C:\MCC\MCC Cal\Test\Fiberboard_Pressed_Paper_MCC_30K_min_211005_R1.txt
Sample Weight (mg):	4.86
Heating Rate (C/s):	0.5
Combustor Temp (C):	900
N2 Flow Rate (cc/min):	80
O2 Flow Rate (cc/min):	20
Calibration File:	C:\MCC\MCC Cal\Coeff1 JN10440_30_210304.txt.txt
T Correction Coefficients:	0	1.024463	0
Time Shift (s):	14
*
Time (s)	Temperature (C)	N2 flow rate (cc/min)	O2 flow rate (cc/min)	Flow Rate (cc/min)	Oxygen (%)	HRR (W/g)	Heating rate (C/s)
0.000	108.152	79.994	19.997	100.625	20.032	0.108	-0.020
8.001	108.148	79.995	19.997	100.626	20.031	0.122	-0.007
16.000	108.167	79.996	19.997	100.650	20.029	0.296	0.023
24.000	108.266	79.996	19.998	100.686	20.016	1.128	0.015
32.000	108.731	79.997	19.997	100.781	20.005	1.850	0.080
40.000	109.604	79.998	19.995	100.820	19.998	2.289	0.129
48.000	110.955	79.996	19.995	100.829	19.995	2.490	0.174
56.000	112.682	79.995	19.996	100.859	19.985	3.118	0.238
64.000	114.856	79.995	19.997	100.867	19.986	3.093	0.297
72.000	117.302	79.995	19.995	100.869	19.977	3.630	0.299
80.001	120.071	79.994	19.996	100.883	19.978	3.583	0.374
88.000	123.130	79.995	19.997	100.893	19.981	3.386	0.412
96.000	126.369	79.996	19.997	100.894	19.976	3.685	0.416
104.000	129.743	79.996	19.996	100.889	19.978	3.574	0.401
112.000	133.323	79.996	19.998	100.885	19.976	3.724	0.462
120.000	136.971	79.997	19.996	100.884	19.980	3.437	0.478
128.000	140.674	79.998	19.995	100.865	19.983	3.246	0.489
136.000	144.484	79.996	19.996	100.868	19.979	3.519	0.447
144.000	148.378	79.996	19.995	100.866	19.981	3.384	0.509
152.000	152.191	79.997	19.997	100.865	19.984	3.209	0.492
160.000	155.957	79.995	19.997	100.868	19.985	3.158	0.465
168.000	159.781	79.996	19.996	100.872	19.983	3.234	0.476
176.000	163.680	79.996	19.996	100.866	19.983	3.279	0.467
184.000	167.665	79.996	19.996	100.865	19.981	3.364	0.496
192.000	171.543	79.997	19.997	100.849	19.980	3.459	0.464
200.000	175.465	79.997	19.997	100.865	19.974	3.832	0.492
208.000	179.318	79.998	19.997	100.849	19.976	3.717	0.486
216.001	183.271	79.997	19.996	100.848	19.968	4.252	0.511
224.000	187.196	79.997	19.997	100.850	19.968	4.217	0.496
232.000	191.124	79.996	19.996	100.852	19.963	4.584	0.476
240.000	195.068	79.994	19.997	100.837	19.959	4.844	0.491
248.000	199.093	79.995	19.997	100.853	19.956	4.988	0.499
256.000	202.977	79.997	19.996	100.829	19.950	5.380	0.463
264.000	207.029	79.998	19.996	100.828	19.946	5.643	0.535
272.000	211.004	79.997	19.997	100.830	19.939	6.091	0.510
280.000	214.917	79.997	19.997	100.830	19.931	6.598	0.488
288.000	218.888	79.998	19.997	100.845	19.927	6.914	0.469
296.000	222.977	79.996	19.997	100.838	19.916	7.579	0.517
304.000	227.139	79.995	19.996	100.832	19.904	8.352	0.513
312.000	231.310	79.996	19.996	100.830	19.901	8.563	0.520
320.000	235.491	79.996	19.997	100.828	19.888	9.418	0.502
328.000	239.617	79.996	19.996	100.828	19.877	10.118	0.498
336.000	243.701	79.997	19.996	100.828	19.866	10.805	0.506
344.000	247.754	79.999	19.995	100.826	19.859	11.305	0.459
352.000	251.842	79.997	19.996	100.826	19.852	11.713	0.495
360.000	255.825	79.996	19.996	100.830	19.845	12.211	0.514
368.001	259.703	79.997	19.997	100.828	19.836	12.808	0.459
376.000	263.603	79.995	19.996	100.829	19.835	12.873	0.495
384.000	267.409	79.994	19.998	100.838	19.825	13.513	0.451
392.000	271.311	79.995	19.998	100.839	19.818	13.929	0.488
400.000	275.227	79.996	19.996	100.847	19.810	14.487	0.492
408.000	279.043	79.995	19.996	100.862	19.798	15.211	0.509
416.000	282.873	79.995	19.996	100.868	19.789	15.841	0.475
424.000	286.725	79.996	19.996	100.883	19.773	16.851	0.464
432.000	290.581	79.996	19.996	100.893	19.756	17.940	0.574
440.000	294.515	79.996	19.996	100.911	19.736	19.291	0.483
448.000	298.445	79.998	19.997	100.925	19.714	20.698	0.510
456.000	302.377	79.995	19.997	100.921	19.684	22.652	0.460
464.000	306.292	79.996	19.998	100.944	19.653	24.676	0.476
472.000	310.311	79.997	19.997	100.948	19.616	27.043	0.534
480.000	314.392	79.995	19.996	100.975	19.573	29.855	0.502
488.000	318.442	79.994	19.997	100.986	19.532	32.526	0.514
496.000	322.612	79.996	19.996	101.010	19.485	35.550	0.571
504.000	326.752	79.998	19.996	101.025	19.433	38.973	0.503
512.000	330.905	79.995	19.996	101.033	19.374	42.756	0.491
520.000	335.071	79.997	19.996	101.060	19.322	46.162	0.503
528.000	339.219	79.999	19.996	101.061	19.263	49.991	0.498
536.000	343.264	79.998	19.997	101.070	19.201	54.015	0.503
544.002	347.323	79.995	19.997	101.102	19.148	57.501	0.502
552.000	351.347	79.997	19.997	101.108	19.094	60.946	0.530
560.000	355.345	79.996	19.997	101.105	19.061	63.105	0.489
568.000	359.383	79.995	19.996	101.105	19.054	63.500	0.496
576.000	363.411	79.995	19.997	101.059	19.087	61.364	0.499
584.000	367.477	79.998	19.996	100.989	19.170	55.954	0.505
592.000	371.579	79.997	19.996	100.934	19.302	47.334	0.495
600.001	375.747	79.997	19.997	100.863	19.460	37.123	0.534
608.000	379.859	79.997	19.996	100.820	19.622	26.618	0.515
616.000	383.872	79.997	19.997	100.786	19.759	17.780	0.499
624.000	387.873	79.995	19.997	100.782	19.845	12.199	0.514
632.001	391.869	79.995	19.996	100.791	19.893	9.057	0.491
640.000	395.991	79.995	19.997	100.789	19.910	8.001	0.555
648.000	400.031	79.996	19.998	100.780	19.912	7.844	0.502
656.001	404.016	79.997	19.997	100.787	19.914	7.705	0.495
664.000	408.037	79.996	19.997	100.785	19.919	7.392	0.507
672.000	412.021	79.994	19.998	100.789	19.919	7.424	0.465
680.000	415.980	79.997	19.996	100.791	19.923	7.138	0.471
688.000	420.115	79.997	19.996	100.804	19.920	7.319	0.498
696.001	424.227	79.997	19.995	100.798	19.923	7.159	0.496
704.000	428.460	79.995	19.996	100.794	19.927	6.884	0.543
712.000	432.701	79.996	19.996	100.793	19.928	6.838	0.560
720.002	436.977	79.997	19.996	100.791	19.934	6.422	0.502
728.000	441.200	79.995	19.997	100.785	19.935	6.362	0.499
736.000	445.337	79.993	19.997	100.791	19.936	6.316	0.517
744.000	449.402	79.996	19.996	100.787	19.938	6.166	0.512
752.000	453.395	79.997	19.996	100.777	19.942	5.914	0.505
760.000	457.269	79.995	19.998	100.790	19.944	5.760	0.502
768.000	461.226	79.998	19.998	100.785	19.946	5.666	0.512
776.001	465.172	79.997	19.996	100.788	19.954	5.140	0.501
784.001	469.173	79.996	19.996	100.786	19.959	4.841	0.538
792.000	473.109	79.996	19.996	100.784	19.961	4.693	0.504
800.000	477.094	79.996	19.996	100.787	19.963	4.569	0.515
808.000	481.122	79.996	19.996	100.794	19.967	4.298	0.516
816.000	485.168	79.995	19.995	100.790	19.968	4.241	0.502
824.000	489.398	79.994	19.997	100.784	19.966	4.339	0.544
832.000	493.637	79.996	19.998	100.787	19.974	3.852	0.541
840.000	497.812	79.996	19.997	100.789	19.972	3.966	0.510
848.000	502.009	79.996	19.998	100.783	19.977	3.639	0.551
856.000	506.210	79.998	19.999	100.766	19.975	3.762	0.542
864.000	510.254	79.996	19.997	100.787	19.977	3.630	0.497
872.000	514.310	79.994	19.996	100.786	19.976	3.693	0.527
880.000	518.452	79.995	19.996	100.775	19.984	3.227	0.530
888.000	522.517	79.995	19.998	100.785	19.980	3.437	0.486
896.000	526.533	79.995	19.996	100.780	19.981	3.418	0.467
904.000	530.430	79.996	19.996	100.788	19.984	3.164	0.487
912.000	534.433	79.999	19.996	100.766	19.985	3.100	0.547
920.000	538.448	79.997	19.997	100.783	19.985	3.148	0.509
928.000	542.531	79.997	19.999	100.785	19.983	3.240	0.514
936.000	546.594	79.999	19.996	100.784	19.985	3.152	0.511
944.000	550.781	79.996	19.998	100.792	19.982	3.341	0.489
952.000	555.117	79.994	19.998	100.790	19.987	2.984	0.523
960.000	559.429	79.995	19.997	100.788	19.987	3.033	0.551
968.000	563.892	79.997	19.997	100.788	19.986	3.056	0.546
976.000	568.404	79.995	19.997	100.792	19.987	2.995	0.566
984.000	573.102	79.996	19.996	100.791	19.989	2.883	0.606
992.000	577.776	79.997	19.995	100.814	20.004	1.925	0.600
1000.000	582.328	79.997	19.998	100.802	19.999	2.229	0.579
1008.000	586.852	79.998	19.997	100.792	19.994	2.564	0.546
1016.000	591.406	79.997	19.996	100.791	19.994	2.578	0.558
1024.000	595.889	79.996	19.996	100.773	19.985	3.105	0.537
1032.000	600.327	79.994	19.999	100.783	19.980	3.476	0.567
1040.000	604.624	79.995	19.998	100.784	19.981	3.399	0.549
1048.001	608.915	79.998	19.996	100.778	19.982	3.294	0.528
1056.000	613.099	79.996	19.996	100.780	19.980	3.460	0.539
1064.000	617.260	79.997	19.997	100.786	19.980	3.472	0.513
1072.000	621.372	79.997	19.995	100.790	19.976	3.725	0.534
1080.000	625.386	79.998	19.996	100.791	19.972	3.940	0.479
1088.000	629.376	79.998	19.997	100.790	19.978	3.606	0.483
1096.000	633.404	79.998	19.996	100.782	19.979	3.492	0.503
1104.000	637.404	79.997	19.998	100.787	19.975	3.763	0.492
1112.000	641.412	79.996	19.997	100.789	19.974	3.842	0.487
1120.000	645.358	79.996	19.997	100.790	19.971	4.063	0.497
1128.001	649.304	79.995	19.998	100.803	19.975	3.787	0.470
1136.000	653.365	79.995	19.997	100.811	19.973	3.934	0.521
1144.000	657.359	79.993	19.995	100.816	19.972	4.004	0.477
1152.000	661.421	79.997	19.997	100.816	19.970	4.073	0.503
1160.000	665.409	79.997	19.996	100.807	19.970	4.131	0.528
1168.000	669.381	79.996	19.996	100.828	19.971	4.026	0.468
1176.000	673.473	79.998	19.996	100.825	19.970	4.115	0.521
1184.000	677.649	79.998	19.996	100.826	19.970	4.116	0.488
1192.000	681.848	79.996	19.998	100.835	19.971	4.067	0.544
1200.000	686.064	79.998	19.997	100.831	19.967	4.305	0.542
1208.001	690.183	79.995	19.996	100.834	19.974	3.849	0.541
1216.001	694.310	79.995	19.997	100.830	19.970	4.076	0.515
1224.000	698.475	79.996	19.997	100.832	19.964	4.475	0.542
1232.000	702.540	79.997	19.996	100.828	19.967	4.310	0.516
1240.000	706.584	79.998	19.997	100.833	19.960	4.726	0.494
1248.000	710.671	79.999	19.996	100.829	19.964	4.522	0.514
1256.000	714.661	79.998	19.996	100.819	19.965	4.432	0.514
1264.000	718.655	79.997	19.995	100.790	19.969	4.154	0.505
1272.000	722.689	79.997	19.996	100.794	19.971	4.045	0.474
1280.000	726.675	79.995	19.998	100.791	19.969	4.149	0.488
1288.000	730.732	79.997	19.996	100.791	19.973	3.877	0.517
1296.001	734.778	79.996	19.998	100.791	19.966	4.346	0.517
1304.000	738.819	79.995	19.998	100.801	19.974	3.814	0.517
1312.000	742.821	79.996	19.997	100.787	19.971	4.017	0.510
1313.500	743.625	79.996	19.997	100.786	19.970	4.074	0.523

File: Fiberboard_Pressed_Paper_MCC_30K_min_211005_R2.txt
Sample ID:	C:\MCC\MCC Cal\Test\Fiberboard_Pressed_Paper_MCC_30K_min_211005_R2.txt
Sample Weight (mg):	4.6
Heating Rate (C/s):	0.5
Combustor Temp (C):	900
N2 Flow Rate (cc/min):	80
O2 Flow Rate (cc/min):	20
Calibration File:	C:\MCC\MCC Cal\Coeff1 JN10440_30_210304.txt.txt
T Correction Coefficients:	0	1.024463	0
Time Shift (s):	14
*
Time (s)	Temperature (C)	N2 flow rate (cc/min)	O2 flow rate (cc/min)	Flow Rate (cc/min)	Oxygen (%)	HRR (W/g)	Heating rate (C/s)
0.000	109.330	79.996	19.996	100.749	19.995	0.094	-0.006
8.000	109.291	79.994	19.997	100.765	19.994	0.157	-0.025
16.000	109.347	79.996	19.996	100.769	19.993	0.211	0.011
24.000	109.380	79.995	19.995	100.830	19.987	0.639	0.000
32.002	109.780	79.996	19.996	100.900	19.968	1.883	0.069
40.000	110.643	79.997	19.996	100.961	19.957	2.678	0.108
48.000	111.965	79.999	19.995	100.958	19.951	3.061	0.180
56.001	113.599	79.997	19.995	100.948	19.951	3.076	0.219
64.000	115.539	79.997	19.996	100.964	19.951	3.066	0.231
72.000	117.750	79.998	19.996	100.990	19.949	3.211	0.339
80.000	120.097	79.996	19.997	100.991	19.949	3.219	0.285
88.000	122.828	79.995	19.997	100.976	19.949	3.205	0.366
96.000	125.661	79.997	19.996	100.999	19.944	3.588	0.332
104.000	128.765	79.995	19.998	101.057	19.946	3.448	0.410
112.000	131.934	79.994	19.997	100.993	19.945	3.492	0.405
120.000	135.309	79.995	19.995	100.998	19.946	3.418	0.434
128.000	138.814	79.995	19.997	101.023	19.949	3.217	0.458
136.000	142.407	79.996	19.996	101.016	19.942	3.689	0.445
144.000	146.113	79.997	19.996	101.003	19.946	3.436	0.430
152.000	149.930	79.999	19.997	101.006	19.947	3.319	0.487
160.000	153.761	79.996	19.995	101.013	19.948	3.278	0.488
168.000	157.612	79.995	19.997	101.002	19.942	3.665	0.503
176.000	161.523	79.997	19.996	100.988	19.941	3.791	0.502
184.000	165.378	79.996	19.996	100.992	19.947	3.329	0.502
192.000	169.369	79.995	19.997	100.983	19.944	3.526	0.492
200.000	173.353	79.994	19.996	100.987	19.940	3.835	0.503
208.000	177.274	79.998	19.996	100.983	19.941	3.794	0.485
216.000	181.255	79.998	19.996	100.981	19.938	3.932	0.503
224.000	185.273	79.998	19.996	100.980	19.937	4.053	0.526
232.000	189.281	79.999	19.996	100.951	19.935	4.179	0.512
240.000	193.274	79.997	19.996	100.956	19.937	4.019	0.497
248.000	197.165	79.996	19.996	100.952	19.931	4.436	0.504
256.001	200.956	79.996	19.996	100.947	19.929	4.564	0.453
264.000	204.752	79.995	19.995	100.949	19.924	4.925	0.466
272.000	208.563	79.996	19.996	100.951	19.918	5.337	0.480
280.000	212.364	79.996	19.995	100.944	19.910	5.869	0.451
288.000	216.261	79.997	19.997	100.952	19.904	6.265	0.502
296.000	220.147	79.997	19.997	100.943	19.893	7.057	0.484
304.000	224.060	79.995	19.996	100.957	19.890	7.284	0.492
312.000	228.139	80.000	19.996	100.955	19.882	7.773	0.528
320.000	232.193	79.998	19.995	100.944	19.870	8.598	0.496
328.000	236.259	79.995	19.995	100.947	19.864	9.056	0.510
336.000	240.311	79.997	19.996	100.946	19.856	9.572	0.531
344.000	244.385	79.997	19.996	100.940	19.844	10.425	0.498
352.000	248.350	79.997	19.996	100.938	19.834	11.070	0.494
360.000	252.293	79.996	19.997	100.943	19.831	11.257	0.476
368.000	256.261	79.998	19.995	100.939	19.823	11.839	0.519
376.000	260.166	79.997	19.996	100.944	19.820	12.067	0.493
384.000	264.120	79.996	19.997	100.950	19.816	12.312	0.532
392.001	268.064	79.997	19.996	100.965	19.809	12.809	0.494
400.000	272.100	79.999	19.995	100.967	19.801	13.321	0.505
408.000	276.161	79.997	19.996	100.978	19.791	14.044	0.515
416.000	280.170	79.996	19.996	100.983	19.784	14.486	0.478
424.000	284.234	79.998	19.997	100.980	19.769	15.522	0.512
432.000	288.344	79.995	19.995	100.993	19.749	16.919	0.497
440.000	292.400	79.995	19.996	101.021	19.730	18.204	0.499
448.001	296.441	79.998	19.996	101.020	19.707	19.815	0.521
456.001	300.471	79.997	19.997	101.022	19.682	21.502	0.520
464.000	304.388	79.997	19.996	101.026	19.655	23.388	0.509
472.000	308.176	79.998	19.996	101.037	19.625	25.402	0.555
480.000	312.125	79.999	19.997	101.054	19.595	27.482	0.504
488.000	316.021	79.997	19.997	101.062	19.558	30.050	0.483
496.000	319.951	79.997	19.996	101.100	19.518	32.799	0.538
504.000	323.983	79.997	19.996	101.107	19.480	35.418	0.482
512.000	328.137	79.996	19.996	101.135	19.432	38.676	0.510
520.000	332.308	79.993	19.996	101.143	19.382	42.144	0.516
528.000	336.534	79.997	19.995	101.164	19.324	46.142	0.497
536.000	340.771	79.998	19.996	101.178	19.262	50.400	0.496
544.001	344.930	79.998	19.997	101.186	19.205	54.315	0.530
552.000	349.018	79.997	19.997	101.194	19.149	58.143	0.528
560.000	353.154	79.999	19.996	101.206	19.105	61.130	0.512
568.000	357.137	79.995	19.997	101.192	19.073	63.298	0.507
576.000	361.123	79.997	19.997	101.180	19.083	62.625	0.517
584.000	365.038	79.996	19.995	101.141	19.128	59.509	0.499
592.000	369.004	79.995	19.995	101.084	19.220	53.167	0.487
600.000	372.998	79.997	19.997	101.021	19.355	43.878	0.530
608.000	377.017	79.997	19.996	100.943	19.518	32.718	0.492
616.000	381.110	79.999	19.995	100.907	19.672	22.153	0.508
624.000	385.205	79.998	19.997	100.901	19.789	14.144	0.489
632.000	389.181	79.998	19.996	100.904	19.855	9.619	0.456
640.000	393.353	79.998	19.995	100.904	19.883	7.695	0.525
648.000	397.487	79.994	19.996	100.907	19.899	6.620	0.529
656.001	401.617	79.996	19.996	100.911	19.900	6.592	0.505
664.000	405.840	79.997	19.997	100.904	19.901	6.507	0.548
672.000	409.929	79.997	19.997	100.904	19.901	6.481	0.526
680.000	414.011	79.995	19.995	100.905	19.907	6.051	0.471
688.000	418.091	79.997	19.996	100.905	19.907	6.118	0.536
696.000	422.133	79.999	19.996	100.905	19.912	5.774	0.484
704.000	426.122	79.997	19.995	100.901	19.908	5.992	0.489
712.000	430.099	79.999	19.995	100.907	19.915	5.527	0.486
720.000	434.054	79.998	19.996	100.900	19.914	5.588	0.504
728.000	437.961	79.996	19.998	100.896	19.919	5.265	0.472
736.000	441.857	79.997	19.997	100.898	19.919	5.260	0.474
744.000	445.656	79.997	19.996	100.904	19.922	5.084	0.464
752.000	449.482	79.997	19.999	100.900	19.920	5.166	0.477
760.000	453.493	79.995	19.997	100.896	19.924	4.894	0.544
768.000	457.467	79.995	19.996	100.904	19.929	4.607	0.489
776.000	461.603	79.998	19.995	100.906	19.928	4.638	0.529
784.000	465.728	79.998	19.996	100.902	19.935	4.195	0.517
792.000	469.857	79.997	19.996	100.895	19.939	3.917	0.545
800.000	473.998	80.000	19.995	100.899	19.941	3.779	0.565
808.000	478.107	79.997	19.998	100.888	19.950	3.172	0.542
816.000	482.101	79.996	19.997	100.874	19.955	2.767	0.494
824.000	486.114	79.996	19.996	100.897	19.956	2.721	0.508
832.000	490.139	79.997	19.996	100.904	19.957	2.656	0.520
840.000	494.290	79.995	19.997	100.900	19.958	2.623	0.529
848.000	498.455	79.997	19.997	100.899	19.961	2.402	0.508
856.000	502.682	79.998	19.995	100.893	19.966	2.058	0.508
864.000	507.050	79.998	19.996	100.899	19.967	1.969	0.556
872.000	511.377	79.999	19.997	100.901	19.969	1.826	0.543
880.000	515.720	79.998	19.997	100.898	19.971	1.737	0.560
888.000	520.122	79.996	19.995	100.905	19.973	1.569	0.571
896.000	524.447	79.997	19.997	100.905	19.973	1.570	0.577
904.001	528.739	79.996	19.997	100.895	19.971	1.715	0.532
912.000	533.025	79.997	19.997	100.904	19.967	1.961	0.532
920.000	537.275	79.994	19.996	100.901	19.966	2.049	0.521
928.000	541.419	79.995	19.997	100.897	19.970	1.747	0.508
936.000	545.469	79.997	19.997	100.888	19.976	1.376	0.514
944.000	549.471	79.998	19.997	100.896	19.975	1.402	0.485
952.000	553.431	79.997	19.995	100.904	19.973	1.573	0.479
960.000	557.470	79.999	19.995	100.906	19.970	1.806	0.502
968.000	561.551	79.996	19.996	100.904	19.971	1.673	0.514
976.000	565.560	79.997	19.996	100.907	19.973	1.563	0.492
984.000	569.566	79.996	19.996	100.905	19.968	1.917	0.508
992.000	573.541	79.997	19.996	100.902	19.970	1.747	0.494
1000.000	577.564	79.997	19.997	100.902	19.971	1.737	0.515
1008.000	581.463	79.996	19.997	100.903	19.971	1.680	0.500
1016.000	585.411	79.997	19.997	100.904	19.974	1.526	0.503
1024.000	589.413	79.996	19.996	100.903	19.972	1.608	0.475
1032.000	593.522	79.994	19.997	100.907	19.974	1.515	0.495
1040.000	597.682	80.000	19.995	100.904	19.968	1.910	0.500
1048.000	601.689	79.999	19.996	100.902	19.971	1.682	0.490
1056.002	605.716	79.995	19.995	100.907	19.970	1.780	0.496
1064.000	609.903	79.998	19.997	100.901	19.971	1.724	0.539
1072.000	614.051	79.999	19.995	100.903	19.970	1.765	0.533
1080.000	618.183	79.995	19.996	100.906	19.963	2.249	0.512
1088.001	622.191	79.996	19.997	100.904	19.967	1.975	0.499
1096.000	626.110	79.996	19.995	100.907	19.968	1.919	0.505
1104.000	629.934	79.996	19.995	100.908	19.967	1.951	0.494
1112.000	633.797	79.995	19.996	100.915	19.965	2.092	0.489
1120.001	637.862	79.999	19.996	100.906	19.970	1.777	0.485
1128.000	642.095	79.996	19.997	100.940	19.968	1.896	0.524
1136.000	646.600	80.000	19.996	100.940	19.965	2.137	0.565
1144.000	651.305	79.998	19.996	100.942	19.969	1.855	0.616
1152.000	655.957	79.995	19.996	100.944	19.967	1.955	0.626
1160.000	660.636	79.996	19.996	100.951	19.965	2.140	0.575
1168.000	665.212	79.997	19.997	100.950	19.962	2.340	0.575
1176.001	669.792	79.999	19.996	100.949	19.963	2.280	0.606
1184.000	674.229	79.997	19.996	100.961	19.960	2.493	0.568
1192.000	678.678	79.998	19.995	100.959	19.962	2.335	0.588
1200.000	682.872	79.998	19.997	100.972	19.957	2.643	0.527
1208.000	687.117	79.996	19.997	100.954	19.956	2.699	0.537
1216.000	691.220	79.995	19.996	100.970	19.956	2.758	0.518
1224.000	695.325	79.996	19.995	100.974	19.956	2.752	0.525
1232.000	699.388	79.997	19.996	100.977	19.957	2.650	0.505
1240.000	703.358	79.996	19.996	100.971	19.955	2.774	0.479
1248.000	707.413	79.997	19.996	100.959	19.953	2.965	0.504
1256.000	711.451	79.998	19.996	100.949	19.956	2.727	0.509
1264.000	715.456	79.998	19.996	100.935	19.965	2.088	0.530
1272.001	719.546	79.998	19.997	100.918	19.958	2.606	0.522
1280.001	723.496	79.998	19.996	100.906	19.957	2.639	0.499
1288.001	727.470	79.998	19.996	100.905	19.963	2.269	0.469
1296.000	731.411	79.994	19.997	100.908	19.961	2.406	0.485
1304.000	735.396	79.996	19.995	100.901	19.965	2.108	0.498
1312.001	739.359	79.997	19.996	100.908	19.970	1.778	0.493
1320.000	743.327	79.996	19.996	100.903	19.968	1.886	0.529
1321.000	743.812	79.998	19.997	100.905	19.966	2.040	0.488