Folder: fsri_materials_database/01_Data/Fiberboard_Pressed_Paper/MCC (part 2)

File: Fiberboard_Pressed_Paper_MCC_30K_min_211005_R3.txt
Sample ID:	C:\MCC\MCC Cal\Test\Fiberboard_Pressed_Paper_MCC_30K_min_211005_R3.txt
Sample Weight (mg):	4.63
Heating Rate (C/s):	0.5
Combustor Temp (C):	900
N2 Flow Rate (cc/min):	80
O2 Flow Rate (cc/min):	20
Calibration File:	C:\MCC\MCC Cal\Coeff1 JN10440_30_210304.txt.txt
T Correction Coefficients:	0	1.024463	0
Time Shift (s):	14
*
Time (s)	Temperature (C)	N2 flow rate (cc/min)	O2 flow rate (cc/min)	Flow Rate (cc/min)	Oxygen (%)	HRR (W/g)	Heating rate (C/s)
0.000	108.088	79.995	19.998	100.810	20.042	-0.028	-0.020
8.000	108.096	79.996	19.995	100.813	20.041	0.050	0.021
16.000	108.055	79.998	19.995	100.858	20.038	0.287	0.025
24.000	108.179	79.997	19.996	100.881	20.033	0.584	0.038
32.000	108.550	79.996	19.997	100.942	20.022	1.367	0.097
39.999	109.221	79.998	19.995	101.015	20.008	2.312	0.115
47.999	110.340	79.998	19.996	100.986	20.014	1.909	0.165
56.000	111.695	79.997	19.996	101.022	20.007	2.412	0.159
64.000	113.431	80.000	19.996	101.021	20.006	2.472	0.202
72.000	115.526	79.996	19.995	101.058	19.999	2.953	0.292
80.000	117.874	79.997	19.995	101.080	19.996	3.169	0.302
88.000	120.612	79.997	19.995	101.076	19.990	3.512	0.352
96.000	123.622	79.997	19.995	101.083	19.993	3.321	0.385
104.000	126.836	79.996	19.995	101.095	19.994	3.251	0.394
112.000	130.229	79.996	19.995	101.080	19.993	3.333	0.433
120.000	133.809	79.996	19.995	101.082	19.993	3.331	0.442
128.000	137.526	79.996	19.997	101.069	19.998	2.997	0.473
136.000	141.250	79.998	19.996	101.062	19.995	3.191	0.477
144.000	145.222	79.999	19.995	101.062	19.999	2.932	0.499
152.000	149.088	79.996	19.998	101.055	19.993	3.360	0.546
160.000	153.022	79.996	19.998	101.057	19.998	2.990	0.510
167.999	156.840	79.995	19.996	101.061	19.997	3.079	0.514
175.999	160.793	79.996	19.995	101.050	20.001	2.768	0.472
183.999	164.763	79.996	19.996	101.048	20.000	2.841	0.526
191.999	168.747	79.995	19.995	101.056	19.999	2.921	0.495
199.999	172.682	79.998	19.995	101.036	19.996	3.114	0.483
207.999	176.646	79.997	19.995	101.032	19.996	3.130	0.480
215.999	180.651	79.996	19.997	101.039	19.996	3.121	0.496
223.999	184.642	79.999	19.997	101.022	19.993	3.335	0.529
231.999	188.678	79.997	19.997	101.021	19.994	3.278	0.526
240.000	192.565	79.996	19.998	101.022	19.994	3.285	0.456
247.999	196.492	79.994	19.997	101.019	19.985	3.906	0.497
255.999	200.459	79.995	19.995	101.015	19.976	4.471	0.480
264.000	204.393	79.996	19.996	101.018	19.974	4.641	0.503
272.000	208.304	79.995	19.996	101.018	19.969	4.943	0.469
280.000	212.288	79.998	19.995	101.016	19.965	5.219	0.489
288.000	216.279	79.997	19.996	101.017	19.958	5.756	0.511
296.000	220.196	79.997	19.995	101.022	19.953	6.087	0.500
304.000	224.182	79.998	19.996	101.020	19.942	6.813	0.508
312.000	228.084	79.997	19.995	101.006	19.936	7.232	0.470
320.000	232.070	79.996	19.996	101.016	19.926	7.929	0.495
328.000	236.024	79.995	19.997	100.999	19.918	8.461	0.502
336.000	239.911	79.996	19.997	101.004	19.911	8.931	0.459
344.000	243.871	79.995	19.996	101.000	19.907	9.209	0.490
352.000	247.837	79.996	19.996	101.009	19.896	9.948	0.471
360.000	251.845	79.999	19.996	101.014	19.887	10.577	0.452
368.000	255.749	79.999	19.997	101.012	19.880	11.052	0.511
376.000	259.616	79.997	19.996	101.016	19.871	11.638	0.518
384.000	263.421	79.999	19.994	101.018	19.870	11.745	0.446
392.000	267.286	79.998	19.995	101.016	19.866	12.005	0.494
400.000	271.165	79.996	19.996	101.020	19.860	12.400	0.492
408.000	275.003	79.996	19.997	101.018	19.850	13.108	0.505
416.000	278.886	79.997	19.996	101.026	19.843	13.586	0.467
424.000	282.748	79.995	19.996	101.053	19.829	14.502	0.492
432.000	286.620	79.995	19.997	101.060	19.809	15.875	0.477
440.000	290.546	79.997	19.993	101.067	19.794	16.882	0.475
448.000	294.438	79.998	19.995	101.064	19.772	18.376	0.459
456.000	298.428	79.998	19.996	101.093	19.747	20.078	0.504
464.000	302.379	79.999	19.995	101.094	19.720	21.909	0.476
472.000	306.304	79.999	19.994	101.102	19.689	24.047	0.465
480.000	310.347	79.996	19.996	101.129	19.659	26.133	0.463
488.000	314.424	79.996	19.996	101.144	19.620	28.763	0.544
496.000	318.609	79.998	19.996	101.167	19.578	31.637	0.511
504.000	322.934	79.994	19.996	101.181	19.522	35.482	0.552
512.000	327.245	79.997	19.997	101.197	19.471	38.964	0.510
520.000	331.603	79.998	19.997	101.206	19.417	42.641	0.554
528.000	335.941	79.998	19.995	101.216	19.351	47.139	0.553
536.000	340.211	79.997	19.995	101.245	19.289	51.406	0.543
544.000	344.419	79.999	19.996	101.254	19.233	55.200	0.550
552.000	348.568	79.997	19.994	101.257	19.172	59.381	0.506
560.000	352.764	79.997	19.995	101.262	19.126	62.516	0.482
568.000	356.860	79.997	19.995	101.260	19.097	64.444	0.512
576.000	360.867	79.997	19.997	101.233	19.103	63.989	0.502
584.000	364.892	79.995	19.997	101.180	19.158	60.247	0.513
592.000	368.850	79.996	19.997	101.127	19.259	53.297	0.480
600.000	372.957	79.997	19.996	101.057	19.406	43.281	0.537
608.000	376.983	79.997	19.997	100.999	19.572	31.985	0.493
616.000	380.984	79.997	19.996	100.960	19.724	21.600	0.495
624.000	385.080	79.999	19.994	100.942	19.844	13.463	0.521
632.000	389.172	79.997	19.994	100.941	19.909	9.039	0.512
640.000	393.244	79.996	19.997	100.941	19.940	6.931	0.503
648.000	397.327	79.996	19.996	100.941	19.954	5.963	0.511
656.000	401.338	79.998	19.996	100.940	19.954	5.974	0.509
664.000	405.347	79.997	19.995	100.939	19.962	5.425	0.484
672.000	409.313	79.995	19.996	100.943	19.966	5.168	0.484
680.000	413.306	79.998	19.995	100.944	19.965	5.236	0.486
688.000	417.243	79.997	19.996	100.943	19.967	5.101	0.494
696.000	421.258	79.996	19.997	100.943	19.970	4.875	0.519
704.000	425.202	79.999	19.996	100.938	19.972	4.796	0.482
712.000	429.289	79.997	19.995	100.936	19.976	4.504	0.550
720.000	433.333	79.997	19.995	100.939	19.976	4.507	0.533
728.000	437.433	79.996	19.997	100.938	19.974	4.654	0.492
736.000	441.517	79.996	19.996	100.926	19.981	4.157	0.493
744.000	445.611	79.995	19.995	100.938	19.982	4.058	0.485
752.000	449.720	79.995	19.995	100.930	19.982	4.086	0.515
760.000	453.811	79.998	19.995	100.937	19.987	3.768	0.516
768.000	457.872	79.998	19.996	100.934	19.992	3.392	0.496
776.000	462.000	79.997	19.995	100.928	19.995	3.208	0.541
784.000	466.012	80.001	19.996	100.928	19.996	3.127	0.499
792.000	470.035	79.998	19.996	100.925	20.000	2.862	0.468
800.000	474.071	79.996	19.995	100.917	20.008	2.339	0.522
808.000	478.014	79.996	19.995	100.920	20.013	2.008	0.478
816.000	482.032	79.996	19.996	100.909	20.018	1.658	0.499
824.000	485.872	79.997	19.996	100.906	20.020	1.478	0.480
832.000	489.654	79.998	19.996	100.911	20.024	1.257	0.466
840.000	493.470	79.999	19.995	100.913	20.025	1.134	0.495
848.000	497.261	79.998	19.995	100.909	20.024	1.252	0.455
856.000	501.087	79.998	19.995	100.917	20.026	1.117	0.492
864.000	505.135	79.998	19.995	100.934	20.027	1.013	0.556
872.000	509.457	79.998	19.996	100.939	20.028	0.937	0.565
880.000	513.963	79.994	19.996	100.940	20.028	0.957	0.569
888.000	518.531	79.996	19.995	100.944	20.027	1.031	0.526
896.000	523.203	79.996	19.996	100.937	20.027	1.049	0.594
904.000	527.805	79.996	19.995	100.940	20.034	0.558	0.583
912.000	532.340	79.997	19.996	100.939	20.030	0.803	0.559
920.000	536.945	79.998	19.995	100.938	20.030	0.806	0.559
928.000	541.398	79.998	19.995	100.942	20.031	0.718	0.571
936.000	545.737	79.997	19.995	100.941	20.029	0.860	0.559
944.000	550.104	79.999	19.995	100.937	20.034	0.563	0.551
952.000	554.368	79.999	19.994	100.942	20.032	0.683	0.533
960.000	558.534	79.997	19.996	100.925	20.033	0.642	0.486
968.000	562.761	79.997	19.996	100.932	20.037	0.330	0.557
976.000	566.861	79.997	19.997	100.923	20.033	0.582	0.516
984.000	570.981	79.996	19.995	100.927	20.031	0.755	0.506
992.000	575.105	79.997	19.995	100.936	20.031	0.781	0.544
1000.000	579.154	79.999	19.995	100.936	20.033	0.619	0.487
1008.000	583.140	79.996	19.995	100.941	20.033	0.589	0.483
1016.000	587.156	79.997	19.995	100.938	20.031	0.771	0.517
1024.000	591.201	79.999	19.996	100.928	20.036	0.407	0.473
1032.000	595.232	79.998	19.996	100.934	20.034	0.556	0.454
1040.000	599.289	79.998	19.996	100.934	20.032	0.657	0.500
1048.000	603.328	79.997	19.996	100.926	20.030	0.797	0.531
1056.000	607.303	79.996	19.997	100.937	20.031	0.744	0.494
1064.000	611.374	79.996	19.998	100.929	20.027	0.996	0.523
1072.000	615.421	79.996	19.996	100.932	20.031	0.781	0.501
1080.000	619.470	79.997	19.995	100.941	20.032	0.707	0.507
1088.000	623.491	79.998	19.996	100.926	20.027	1.035	0.495
1096.001	627.513	79.999	19.995	100.939	20.029	0.893	0.508
1104.000	631.518	80.000	19.995	100.935	20.027	0.990	0.501
1112.000	635.603	79.999	19.995	100.941	20.025	1.130	0.525
1120.000	639.668	79.997	19.997	100.940	20.024	1.224	0.543
1128.000	643.683	79.996	19.996	100.943	20.023	1.318	0.506
1136.000	647.661	79.994	19.996	100.947	20.022	1.362	0.488
1144.000	651.744	79.995	19.996	100.953	20.028	0.957	0.533
1152.000	655.815	79.996	19.998	100.955	20.026	1.079	0.518
1160.000	659.894	79.998	19.998	100.949	20.026	1.079	0.522
1168.000	663.941	79.997	19.996	100.969	20.023	1.274	0.521
1176.000	668.007	79.999	19.996	100.973	20.024	1.260	0.519
1184.000	672.092	79.999	19.996	100.971	20.024	1.206	0.541
1192.000	676.130	79.997	19.996	100.974	20.022	1.372	0.507
1200.000	680.205	79.996	19.994	100.973	20.023	1.320	0.518
1208.000	684.243	79.997	19.996	100.982	20.018	1.617	0.534
1216.000	688.240	79.997	19.997	100.977	20.017	1.722	0.469
1224.000	692.249	79.996	19.996	100.979	20.018	1.620	0.505
1232.000	696.263	79.996	19.997	100.979	20.020	1.491	0.473
1240.001	700.310	79.999	19.998	100.978	20.025	1.134	0.486
1248.000	704.321	79.998	19.996	100.974	20.024	1.217	0.468
1256.000	708.371	79.997	19.996	100.966	20.024	1.221	0.510
1264.000	712.381	79.999	19.995	100.944	20.023	1.288	0.508
1272.000	716.431	80.000	19.996	100.934	20.024	1.253	0.507
1280.000	720.474	79.998	19.997	100.925	20.025	1.172	0.478
1288.000	724.471	79.997	19.996	100.924	20.027	0.992	0.477
1296.000	728.464	79.995	19.996	100.911	20.028	0.948	0.530
1304.000	732.441	79.998	19.997	100.904	20.025	1.182	0.496
1312.000	736.509	79.997	19.995	100.918	20.028	0.983	0.521
1320.000	740.532	80.000	19.995	100.911	20.030	0.812	0.524
1326.500	743.777	79.999	19.995	100.916	20.024	1.198	0.459