Folder: fsri_materials_database/01_Data/Rubber_Band/Cone

Note: 01_Data/README.md
# Materials and Products Database
## 01_Data

Raw data generated from each apparatus are included here in plain-text format. The data is organized first by material, next by the short name of test apparatus used, and where applicable additional filtering by test settings.

### material.json

Each material directory contains a json file of the same name as the material. This file links the data stored in the repository as well as data and graphs produced by the accompanying scripts (__02_Scripts__) to the respective landing page for the material on the front-end website.

File: Rubber_Band_Cone_HF25-Frame+GridScalar_201013_R1.csv
LABORATORY,FSRI
TEST IDENT,HelmetStrap_25kW_1
OPERATOR,Dow
MATERIAL,Raw cotton
ORIENTATION,Horizontal
HEAT FLUX,25
SURF AREA,0.01
C FACTOR,0.0363987
SPEC HOLDER DIFF,366.6
SPECIMEN MASS,19.4
SCAN TIME,0.25
O2 DELAY TIME,11
CO DELAY TIME,11
CO2 DELAY TIME,8
FLOW FACTOR,1
SCAN COUNT,2212
TIME TO IGN,87.5
END OF TEST SCAN,1732
END OF TEST TIME,433
TEST STATUS,1

File: Rubber_Band_Cone_HF25-Frame+GridScan_201013_R1.csv
Names,Time,Stack TC,Smoke TC,Exh Press,Smoke Comp,Smoke Meas,CO Meter,CO2 Meter,O2 Meter,Sample Mass,Ext Coeff,Start Test,Flame Verif
Chan Gain,,500,500,1,1,1,1,1,1,1,1,1.0,1.0
Offset,,0,0,0.130609,0,0,0,0,0,0,0,0.0,0.0
Gain,,1,1,25.011,28413.6,29762,1,1,1,1.00092,-11.006,1.0,1.0
Units,sec,C,C,Pa,%,%,%,%,%,g,/m,,
Baseline,,18.1042,19.5218,185.874,213045,180403,0.00438359,0.0607684,20.9006,-937.978,-16.0567,,
23,5.5,16.21,17.7604,183.946,212952,180392.375,0.00445709,0.0664764,20.8951,14.9637,-16.0198,0.0,0.0
46,11.25,16.0972,17.8992,192.919,212862,180337,0.00437851,0.0702585,20.8913,14.9637,-16.0085,0.0,0.0
69,17,16.7288,18.1355,191.381,212819,180096,0.00422205,0.0640745,20.8972,14.9537,-16.1182,0.0,0.0
92,22.75,16.3284,17.5709,187.007,212757,180124,0.00394548,0.0613377,20.9011,14.9337,-16.0753,0.0,0.0
115,28.5,16.5112,17.8938,188.72,212664,179583,0.00406609,0.0616308,20.9003,14.9236,-16.3232,0.0,0.0
138,34.25,16.6484,18.2045,186.609,212622,179608,0.00417771,0.0615235,20.9012,14.9136,-16.2908,0.0,0.0
161,40,16.4694,18.6366,186.054,212518,179193,0.00380241,0.0617191,20.9019,14.9036,-16.4664,0.0,0.0
184,45.75,16.7196,18.2102,183.514,212436,178558,0.00410485,0.0612472,20.902,14.8736,-16.7725,0.0,0.0
207,51.5,17.0139,17.7075,183.956,212347,178036,0.00408856,0.0623478,20.9,14.8636,-17.0142,0.0,0.0
230,57.25,16.457,18.1735,180.535,212214,177274,0.00416703,0.0634561,20.8985,14.8436,-17.368,0.0,0.0
253,63,16.4064,17.8485,190.878,212123,176692,0.00411447,0.0666763,20.8974,14.8035,-17.6441,0.0,0.0
276,68.75,17.1439,18.8033,182.175,211976,176006,0.00414107,0.0674052,20.8959,14.7735,-17.9524,0.0,0.0
299,74.5,16.971,18.4232,188.283,211803,176391,0.00433839,0.0660273,20.8958,14.7635,-17.6628,0.0,0.0
322,80.25,17.4724,19.0414,181.762,211657,175409.625,0.00450621,0.06688,20.8952,14.7335,-18.1349,0.0,0.0
345,86,17.3899,19.058,186.736,211528,174128,0.00463235,0.0677956,20.8954,14.7034,-18.7843,0.0,0.0
368,91.75,19.9832,23.2593,175.285,211442,148919,0.00756823,0.16859,20.7504,14.5033,-33.8429,0.0,1.0
391,97.5,25.0582,33.7128,170.42,211312,136103,0.0126029,0.339548,20.4983,14.1529,-42.4718,0.0,0.0
414,103.25,32.8134,45.6928,151.575,211211,126025,0.0168209,0.474105,20.2878,13.6024,-49.8532,0.0,0.0
437,109,41.5865,58.9305,151.583,211140,120488,0.0202486,0.606587,20.092,12.9919,-54.1583,0.0,0.0
460,114.75,48.2865,68.0307,149.908,211083,120046,0.0224371,0.656056,20.0049,12.2912,-54.4869,0.0,0.0
483,120.5,52.1037,73.3454,158.428,210937,118111,0.0230215,0.653323,19.998,11.7107,-55.9891,0.0,0.0
506,126.25,54.8583,76.3986,161.086,210937,117686,0.0235372,0.651802,19.998,11.0201,-56.3371,0.0,0.0
529,132,56.5776,77.9899,157.768,210840,121999,0.0234901,0.653184,19.999,10.3995,-52.8175,0.0,0.0
552,137.75,57.4507,78.8705,156.49,210858,116495,0.0228937,0.626469,20.0417,9.75892,-57.2828,0.0,0.0
575,143.5,57.2574,77.0737,148.791,210859,118784,0.0219631,0.588722,20.0945,9.1884,-55.4048,0.0,0.0
598,149.25,55.7678,74.1359,164.688,210872,125720,0.0200723,0.532667,20.1881,8.66792,-49.9315,0.0,0.0
621,155,53.6943,69.3293,165.877,210881,129216,0.0182996,0.462698,20.2858,8.25755,-47.2875,0.0,0.0
644,160.75,50.8605,63.9317,168.776,210854,131034,0.0170599,0.391783,20.3959,7.85718,-45.9268,0.0,0.0
667,166.5,47.1564,57.7817,167.824,210960,133858,0.0151036,0.3315,20.486,7.53689,-43.9165,0.0,0.0
690,172.25,44.0428,51.8634,174.549,211055,147553,0.0125563,0.282641,20.5651,7.29667,-34.5558,0.0,0.0
713,178,41.3483,47.4194,173.2,211220,150859,0.0101969,0.249882,20.6144,7.04644,-32.4923,0.0,0.0
736,183.75,38.954,44.0294,176.343,211388,154969.125,0.0081161,0.227011,20.6552,6.84626,-29.9737,0.0,0.0
759,189.5,37.0285,40.8175,168.461,211573,162047,0.00773246,0.211975,20.6822,6.70613,-25.7462,0.0,0.0
782,195.25,35.8439,39.9624,175.41,211714,163395,0.00710674,0.204227,20.6982,6.51596,-25.011,0.0,0.0
805,201,35.8572,39.0203,175.218,211886,166364,0.00662076,0.199873,20.7051,6.37583,-23.3507,0.0,0.0
828,206.75,35.0758,37.89,175.337,212055,168118,0.00653698,0.194314,20.714,6.22569,-22.4152,0.0,0.0
851,212.5,34.312,36.9251,176.772,212218,170725,0.00638599,0.189142,20.7226,6.10558,-21.004,0.0,0.0
874,218.25,33.2948,35.852,171.879,212328,173404,0.0062639,0.183538,20.7318,5.97546,-19.5506,0.0,0.0
897,224,33.0411,35.7532,171.686,212473,172693,0.0060475,0.180286,20.7377,5.86536,-20.0136,0.0,0.0
920,229.75,32.5668,35.8223,176.174,212584,173180,0.00614892,0.177009,20.7439,5.73524,-19.7919,0.0,0.0
943,235.5,32.1445,34.9217,180.896,212705,174288,0.00578816,0.172765,20.75,5.62514,-19.2312,0.0,0.0
966,241.25,32.4093,33.8434,175.24,212803,175995,0.00597884,0.168087,20.7563,5.51504,-18.3349,0.0,0.0
989,247,31.0072,33.0982,176.417,212851,175391,0.00635307,0.164208,20.7644,5.41495,-18.6885,0.0,0.0
1012,252.75,31.0892,32.7731,174.96,212961,176477.75,0.00613514,0.161063,20.7722,5.33488,-18.1418,0.0,0.0
1035,258.5,30.0993,32.3123,179.264,212971,177683,0.00612351,0.157299,20.7772,5.21477,-17.4894,0.0,0.0
1058,264.25,30.7258,32.8808,176.179,212985,178248.875,0.00620779,0.155095,20.7811,5.1347,-17.1887,0.0,0.0
1081,270,29.8519,31.5258,176.626,212982,178432,0.00620885,0.153009,20.7836,5.04461,-17.0878,0.0,0.0
1104,275.75,29.6438,31.4986,180.648,212963.375,178985,0.0064795,0.150708,20.7871,4.94452,-16.7808,0.0,0.0
1127,281.5,29.7279,31.5418,175.065,212943,178946,0.00624475,0.14746,20.7914,4.88447,-16.7933,0.0,0.0
1150,287.25,29.0115,31.2647,181.013,212893,179627,0.00626003,0.145424,20.7959,4.80439,-16.4037,0.0,0.0
1173,293,28.9399,30.8455,177.597,212845,179694,0.00589749,0.141831,20.8012,4.72432,-16.3455,0.0,0.0
1196,298.75,28.6113,30.1096,177.859,212841,179679,0.00613275,0.137945,20.8067,4.64425,-16.3518,0.0,0.0
1219,304.5,27.9306,29.6949,177.143,212825.5,179540,0.0060811,0.137815,20.8082,4.58419,-16.4199,0.0,0.0
1242,310.25,27.6824,29.533,181.889,212787,179784.75,0.00614827,0.133964,20.8142,4.50412,-16.2708,0.0,0.0
1265,316,27.081,29.1633,180.78,212724,180169,0.00628291,0.131505,20.8157,4.46408,-16.036,0.0,0.0
1288,321.75,26.9376,28.5166,179.242,212666,180325,0.00602745,0.130065,20.8167,4.374,-15.9259,0.0,0.0
1311,327.5,27.1745,28.7308,187.428,212591,179859,0.00607261,0.128316,20.8187,4.32395,-16.1418,0.0,0.0
1334,333.25,26.6937,27.8158,179.78,212557,180248.875,0.00620162,0.126997,20.8229,4.2639,-15.9172,0.0,0.0
1357,339,26.665,27.5244,182.031,212476,179891,0.00621288,0.124025,20.8268,4.20384,-16.0724,0.0,0.0
1380,344.75,25.7906,27.2943,174.673,212368,179985,0.00620496,0.121379,20.8308,4.14379,-15.9729,0.0,0.0
1403,350.5,25.9569,27.1705,177.304,212321,180421,0.00642799,0.119351,20.8327,4.09374,-15.7176,0.0,0.0
1426,356.25,25.2366,27.3048,183.316,212259,180054.5,0.00635348,0.118527,20.8341,4.03369,-15.8861,0.0,0.0
1449,362,25.0728,26.9402,178.984,212206,180061,0.00662814,0.117273,20.8362,4.02368,-15.8587,0.0,0.0
1472,367.75,25.4014,26.6337,179.384,212378,179984,0.00675708,0.116136,20.8374,3.95361,-15.9782,0.0,0.0
1495,373.5,25.191,25.843,175.948,212427.5,180092,0.006918,0.116663,20.8361,3.90357,-15.9427,0.0,0.0
1518,379.25,24.8347,25.4702,181.099,212536.75,179844,0.00667334,0.114179,20.8391,3.87354,-16.1253,0.0,0.0
1541,385,25.0128,25.9887,182.167,212545,180102,0.00650495,0.114644,20.8401,3.8235,-15.9905,0.0,0.0
1564,390.75,24.5134,25.6651,177.688,212512,180358,0.00666848,0.113355,20.8427,3.79347,-15.8387,0.0,0.0
1587,396.5,24.0534,25.4309,185.242,212355,179491.375,0.00670272,0.108734,20.8488,3.70339,-16.2319,0.0,0.0
1610,402.25,23.784,25.2315,181.438,212185,179451,0.00692463,0.108138,20.851,3.7234,-16.1761,0.0,0.0
1633,408,23.8577,24.6725,182.54,212211,179682,0.00670048,0.10875,20.8499,3.63332,-16.0639,0.0,0.0
1656,413.75,23.235,24.9588,180.192,212243,179533,0.00698141,0.106602,20.8501,3.63332,-16.1586,0.0,0.0
1679,419.5,23.6211,24.4451,184.292,212344.25,179495,0.00668964,0.106357,20.851,3.49319,-16.2252,0.0,0.0
1702,425.25,23.3087,24.4192,184.769,212429,179451,0.00686052,0.10585,20.8522,3.52322,-16.2873,0.0,0.0
1725,431,23.5732,24.7866,183.661,212563,179128,0.00738733,0.105408,20.8527,3.49319,-16.5221,0.0,0.0
1748,436.75,21.2543,22.576,179.864,212707,180403,0.00705544,0.102264,20.8569,3.42313,-15.9026,0.0,0.0
1771,442.5,21.3462,22.63,183.946,212779,179790,0.00696065,0.103545,20.8582,3.35307,-16.2639,0.0,0.0
1794,448.25,21.2582,22.6301,180.141,212888,180015,0.00695467,0.101861,20.8598,3.283,-16.1931,0.0,0.0
1817,454,21.2617,22.179,179.149,212924,180234,0.00657084,0.102496,20.8595,3.31303,-16.0918,0.0,0.0
1840,459.75,20.9907,22.2691,183.562,212916,180085.375,0.00684484,0.10184,20.8615,3.25297,-16.1677,0.0,0.0
1863,465.5,20.8384,21.7393,181.342,212750,180039,0.00665797,0.101416,20.862,3.20293,-16.1174,0.0,0.0
1886,471.25,20.9067,22.2868,178.199,212604,180242,0.00696285,0.101668,20.8628,3.15288,-15.9423,0.0,0.0
1909,477,20.6426,21.9137,177.717,212379,179564,0.00669368,0.0996859,20.8642,3.16289,-16.2039,0.0,0.0
1932,482.75,20.8508,21.8367,182.976,212219,179279.75,0.0068898,0.0990196,20.8609,3.08282,-16.2843,0.0,0.0
1955,488.5,20.5134,22.1652,180.414,211983,179354,0.00660242,0.0996462,20.8605,3.00275,-16.1365,0.0,0.0
1978,494.25,20.5335,22.0868,174.967,211759,179210,0.00659344,0.100941,20.8605,3.00275,-16.1123,0.0,0.0
2001,500,20.2654,21.9251,181.788,211525,179005,0.00678987,0.0997484,20.8605,2.96271,-16.1161,0.0,0.0
2024,505.75,20.5857,22.0767,175.166,211238,178820,0.00666826,0.100146,20.8633,2.93268,-16.0845,0.0,0.0
2047,511.5,20.3689,21.5751,176.7,210920,178582,0.00664456,0.0992873,20.8637,2.88264,-16.0675,0.0,0.0
2070,517.25,20.145,22.0338,184.481,210561,178455,0.00646889,0.0994974,20.8638,2.8426,-15.9722,0.0,0.0
2093,523,20.0326,21.2409,180.73,210276,177883,0.00650381,0.0978599,20.8656,2.77254,-16.1514,0.0,0.0
2116,528.75,20.5629,21.531,185.603,210007.375,178353,0.00673654,0.0997625,20.8637,2.76253,-15.7729,0.0,0.0
2139,534.5,20.1568,21.6274,183.226,209868,177601,0.00665195,0.0992187,20.8632,2.74251,-16.1167,0.0,0.0
2162,540.25,20.1697,21.7086,182.243,209708,177567,0.00637484,0.0984529,20.8651,2.72249,-16.062,0.0,0.0
2185,546,20.1898,21.5965,184.614,209626,177756,,,,2.69246,-15.9214,0.0,0.0
2208,551.75,19.871,21.7012,187.559,209589,177262.5,,,,2.64242,-16.1725,0.0,0.0
2212,552.75,19.5917,20.7638,182.266,209622,177472,,,,2.66243,-16.0739,0.0,0.0

File: Rubber_Band_Cone_HF35-Frame+GridScalar_201013_R1.csv
LABORATORY,FSRI
TEST IDENT,HelmetStrap_35kW_1
OPERATOR,Dow
MATERIAL,Helmet rubber strap
ORIENTATION,Horizontal
HEAT FLUX,35
SURF AREA,0.01
C FACTOR,0.0363987
SPEC HOLDER DIFF,378.2
SPECIMEN MASS,18.55
SCAN TIME,0.25
O2 DELAY TIME,11
CO DELAY TIME,11
CO2 DELAY TIME,8
FLOW FACTOR,1
SCAN COUNT,1880
TIME TO IGN,37.25
END OF TEST SCAN,1400
END OF TEST TIME,350
TEST STATUS,1

File: Rubber_Band_Cone_HF35-Frame+GridScan_201013_R1.csv
Names,Time,Stack TC,Smoke TC,Exh Press,Smoke Comp,Smoke Meas,CO Meter,CO2 Meter,O2 Meter,Sample Mass,Ext Coeff,Start Test,Flame Verif
Chan Gain,,500,500,1,1,1,1,1,1,1,1,1.0,1.0
Offset,,0,0,0.130609,0,0,0,0,0,0,0,0.0,0.0
Gain,,1,1,25.011,28413.6,29762,1,1,1,1.00092,-11.006,1.0,1.0
Units,sec,C,C,Pa,%,%,%,%,%,g,/m,,
Baseline,,23.3199,25.5676,182.609,209514,177551,0.00511614,0.0617346,20.908,-939.148,-15.9812,,
19,4.5,22.2231,23.6933,186.155,209858,177747.5,0.00517661,0.0705783,20.8997,24.4724,-16.0328,0.0,0.0
38,9.25,21.783,23.9005,180.701,209968,177978,0.00503425,0.0708396,20.8999,24.4524,-15.9582,0.0,0.0
57,14,21.2689,24.2767,185.671,210152,178406,0.00507451,0.0695269,20.9014,24.4524,-15.8109,0.0,0.0
76,18.75,21.9387,24.1944,184.643,210237,177421,0.00511334,0.0664821,20.9045,24.4123,-16.3843,0.0,0.0
95,23.5,21.8956,24.2649,182.847,210378,177127,0.00525047,0.0666311,20.9027,24.4023,-16.609,0.0,0.0
114,28.25,22.2634,24.2148,188.753,210490,176190,0.00482827,0.0686868,20.9001,24.3823,-17.173,0.0,0.0
133,33,22.1769,24.2377,181.064,210624,174700,0.00504752,0.0665331,20.9023,24.3623,-18.0539,0.0,0.0
152,37.75,21.9558,24.6923,182.605,210763.5,176543,0.00563824,0.076281,20.89,24.2922,-17.1048,0.0,1.0
171,42.5,23.7235,29.164,172.699,210890,139940,0.0088756,0.209547,20.7231,24.112,-39.5947,0.0,0.0
190,47.25,31.2876,41.1692,158.302,211005,131847,0.0137996,0.37885,20.457,23.7417,-45.3981,0.0,0.0
209,52,38.417,51.4974,163.827,211129,127042,0.0175626,0.49872,20.266,23.2513,-49.0394,0.0,0.0
228,56.75,45.5183,63.2699,150.113,211219,112626,0.0219231,0.622594,20.058,22.6807,-60.7089,0.0,0.0
247,61.5,53.48,74.0151,148.354,211338,114322,0.025071,0.710139,19.9204,22.1002,-59.32,0.0,0.0
266,66.25,58.0418,81.1027,153.551,211454,108861,0.0264273,0.727801,19.8851,21.4896,-64.0985,0.0,0.0
285,71,61.2441,86.1496,156.285,211595,106873.75,0.0272618,0.731369,19.8765,20.8891,-65.9418,0.0,0.0
304,75.75,64.0798,87.6269,143.269,211718,105343,0.0270999,0.727483,19.8863,20.3086,-67.3904,0.0,0.0
323,80.5,65.2635,89.798,153.191,211880,119060,0.0261782,0.695172,19.926,19.7781,-55.6472,0.0,0.0
342,85.25,65.188,87.9367,156.24,212060,113753,0.0250308,0.647691,20.0001,19.2176,-60.1311,0.0,0.0
361,90,64.9375,87.0434,157.198,212225,120339,0.0244899,0.622797,20.038,18.7171,-54.7729,0.0,0.0
380,94.75,64.4787,85.0014,145.266,212368,114675,0.0237749,0.596266,20.0795,18.2267,-59.4919,0.0,0.0
399,99.5,63.4639,83.0836,158.649,212489,118516,0.0227649,0.556561,20.1384,17.7662,-56.3663,0.0,0.0
418,104.25,61.3861,79.1531,157.529,212547,130433,0.0214774,0.503508,20.2207,17.4059,-47.1424,0.0,0.0
437,109,59.0723,75.0662,159.3,212589,128658,0.019759,0.439581,20.3196,17.0256,-48.484,0.0,0.0
456,113.75,56.1593,69.1301,160.336,212635,128483,0.0175058,0.383001,20.3974,16.7553,-48.6365,0.0,0.0
475,118.5,53.817,64.2465,160.511,212615,134443,0.0156514,0.335431,20.4824,16.445,-44.2498,0.0,0.0
494,123.25,51.0211,61.125,166.557,212592.25,138013,0.014259,0.298216,20.5391,16.2248,-41.7097,0.0,0.0
513,128,49.2549,56.5498,165.985,212539,142971,0.0126498,0.274144,20.5825,16.0247,-38.2781,0.0,0.0
532,132.75,47.1447,53.9622,170.782,212494,150048,0.01132,0.256357,20.6136,15.8245,-33.5932,0.0,0.0
551,137.5,45.7477,51.9306,169.894,212424,149177,0.00981819,0.247136,20.6284,15.6243,-34.1233,0.0,0.0
570,142.25,44.6875,49.9568,165.934,212349,156099,0.00933974,0.237884,20.6446,15.4541,-29.7102,0.0,0.0
589,147,44.0847,48.9491,171.959,212221.125,156993,0.00899555,0.229344,20.6595,15.324,-29.1011,0.0,0.0
608,151.75,43.4741,48.1523,169.2,212080,160005,0.00821811,0.221641,20.6733,15.1939,-27.2021,0.0,0.0
627,156.5,42.4011,46.9701,180.157,211964,163319,0.00769407,0.212694,20.6882,15.0237,-25.1699,0.0,0.0
646,161.25,41.9348,45.5607,166.04,211896,166188,0.00719626,0.201727,20.7062,14.9236,-23.4577,0.0,0.0
665,166,40.8509,44.8951,165.119,212153,167674,0.0073062,0.195767,20.7177,14.7935,-22.7156,0.0,0.0
684,170.75,40.5116,44.1432,172.938,212715.375,171518,0.0072298,0.186492,20.7315,14.6734,-20.7828,0.0,0.0
703,175.5,39.8601,42.934,177.494,213141,173432,0.007341,0.179959,20.744,14.5933,-19.9041,0.0,0.0
722,180.25,39.0005,42.1021,173.955,213455,175258,0.0071799,0.172197,20.7562,14.5133,-19.0352,0.0,0.0
741,185,38.7708,41.4839,172.407,213602,176358,0.00705537,0.166728,20.7647,14.4132,-18.4979,0.0,0.0
760,189.75,38.0141,40.6592,177.045,213625,177567,0.00697554,0.161973,20.7742,14.3431,-17.8485,0.0,0.0
779,194.5,37.6411,40.1256,176.53,213509,177856.5,0.00725341,0.15808,20.7795,14.263,-17.6386,0.0,0.0
798,199.25,36.9387,39.4549,175.855,213153,177621.25,0.0075174,0.154048,20.7854,14.203,-17.6055,0.0,0.0
817,204,36.5434,38.9381,177.756,212647.75,178857,0.00750074,0.148143,20.7936,14.1329,-16.7067,0.0,0.0
836,208.75,35.9075,38.1313,173.304,212264,178231,0.00777719,0.143452,20.8001,14.0528,-16.871,0.0,0.0
855,213.5,35.0212,37.311,175.854,212414.5,178648,0.00772549,0.140691,20.8063,14.0128,-16.7141,0.0,0.0
874,218.25,34.6833,36.8811,174.752,212655,178557,0.00748293,0.136081,20.8122,13.9528,-16.8722,0.0,0.0
893,223,34.2688,36.1229,176.774,212907.875,178520,0.00753703,0.134651,20.8158,13.9027,-17.0068,0.0,0.0
912,227.75,34.3767,36.4077,177.614,213126,179506,0.00774991,0.131741,20.8192,13.8627,-16.5739,0.0,0.0
931,232.5,33.8977,35.4662,182.27,213374,179204,0.00781092,0.128883,20.8227,13.8026,-16.8489,0.0,0.0
950,237.25,33.6599,35.3743,179.614,213550,180386,0.00784019,0.127387,20.8272,13.7326,-16.2936,0.0,0.0
969,242,32.9842,34.7535,175.521,213720,180179,0.00774309,0.126097,20.8292,13.6725,-16.4817,0.0,0.0
988,246.75,32.9875,34.6938,176.547,213829.625,180565,0.00792136,0.125108,20.8313,13.6425,-16.3245,0.0,0.0
1007,251.5,32.1291,34.88,172.372,213778,180446.875,0.00783521,0.124025,20.8311,13.6024,-16.3645,0.0,0.0
1026,256.25,32.3704,34.2176,171.926,213644,180654,0.00771398,0.122971,20.8337,13.5424,-16.1931,0.0,0.0
1045,261,32.116,33.9275,178.713,213362.25,180251,0.00759948,0.121886,20.8357,13.4923,-16.2814,0.0,0.0
1064,265.75,32.0038,33.4879,179.238,213010,180458,0.00730947,0.120384,20.8397,13.4423,-16.0111,0.0,0.0
1083,270.5,31.8884,33.5381,173.636,212383,180199,0.00720493,0.120626,20.8389,13.4323,-15.8651,0.0,0.0
1102,275.25,31.8509,33.2509,173.748,211866,179819,0.00776978,0.120068,20.8399,13.3722,-15.8335,0.0,0.0
1121,280,31.8215,32.5106,175.089,211282,179060,0.00757609,0.118342,20.8423,13.3122,-15.9754,0.0,0.0
1140,284.75,31.3349,32.9447,182.673,210698,178725,0.0076568,0.116782,20.8465,13.2621,-15.8888,0.0,0.0
1159,289.5,30.5632,32.782,178.339,210171,177994,0.00759911,0.114835,20.8497,13.2421,-16.0431,0.0,0.0
1178,294.25,31.3324,32.8581,175.737,209822,178168,0.0079779,0.114071,20.8488,13.2121,-15.7879,0.0,0.0
1197,299,30.8497,32.3581,178.735,209524,177907,0.00797243,0.113274,20.8504,13.172,-15.7923,0.0,0.0
1216,303.75,30.5073,32.171,178.735,209348.375,177590.375,0.00797567,0.112294,20.8517,13.142,-15.8834,0.0,0.0
1235,308.5,29.6284,31.8911,178.691,209293.75,177909,0.00803419,0.110444,20.8537,13.122,-15.685,0.0,0.0
1254,313.25,29.8261,31.762,177.911,209333,177879,0.00798973,0.109087,20.8541,13.072,-15.7193,0.0,0.0
1273,318,29.5968,31.2183,179.085,209537,177687,0.00762262,0.109421,20.8542,13.0319,-15.9178,0.0,0.0
1292,322.75,29.563,30.9722,179.461,209817,178299,0.00738268,0.108556,20.8573,13.0019,-15.7147,0.0,0.0
1311,327.5,29.396,31.0736,178.484,210154,178368,0.00769318,0.108101,20.8592,12.9418,-15.8324,0.0,0.0
1330,332.25,29.6241,31.0229,178.146,210491,178845,0.00813585,0.107421,20.86,12.9118,-15.7295,0.0,0.0
1349,337,29.3776,30.9259,178.057,210882,179010,0.00769543,0.1068,20.863,12.8818,-15.8195,0.0,0.0
1368,341.75,29.2308,30.9238,178.867,211160,179408,0.00754394,0.1056,20.8647,12.8618,-15.7321,0.0,0.0
1387,346.5,28.9339,30.5022,180.731,211461,179578,0.00765495,0.104947,20.8626,12.8317,-15.7782,0.0,0.0
1406,351.25,27.3287,29.3478,178.11,211732,179661,0.00776583,0.104942,20.8629,12.7917,-15.8572,0.0,0.0
1425,356,26.7072,28.8346,173.819,211970,180236,0.00788918,0.104076,20.864,12.7817,-15.657,0.0,0.0
1444,360.75,27.0908,28.8241,180.113,212185,180112.625,0.00775749,0.103161,20.8645,12.7216,-15.8211,0.0,0.0
1463,365.5,26.9903,28.4964,177.926,212339,180142,0.00771173,0.102927,20.8639,12.7216,-15.8757,0.0,0.0
1482,370.25,26.7996,28.645,179.086,212482.125,180652,0.00751912,0.103544,20.8667,12.6616,-15.6675,0.0,0.0
1501,375,26.8928,28.4576,176.492,212574,180017,0.00742892,0.103065,20.8664,12.6516,-16.0492,0.0,0.0
1520,379.75,26.8898,28.7774,182.274,212582,180409.625,0.00751798,0.10279,20.8673,12.6315,-15.8425,0.0,0.0
1539,384.5,26.6066,29.0179,183.998,212555,180449,0.00751253,0.101826,20.8684,12.6015,-15.8094,0.0,0.0
1558,389.25,26.6456,28.8039,180.338,212475,180650,0.00751669,0.101403,20.8678,12.5415,-15.6653,0.0,0.0
1577,394,26.8957,28.7908,178.145,212405,180324.25,0.0074663,0.101107,20.869,12.5214,-15.8078,0.0,0.0
1596,398.75,26.3864,28.2191,177.823,212375,180121,0.00774958,0.101028,20.8708,12.5014,-15.9034,0.0,0.0
1615,403.5,26.9041,28.5402,177.146,212298,180337,0.00764662,0.101679,20.8703,12.4614,-15.7526,0.0,0.0
1634,408.25,26.5105,28.3329,175.885,212212,180065,0.00747228,0.101092,20.8721,12.4414,-15.8586,0.0,0.0
1653,413,26.8961,28.6677,176.899,212148,179946,0.00790159,0.101486,20.8706,12.4013,-15.8936,0.0,0.0
1672,417.75,26.2088,28.4734,176.106,212045,180106,0.00749609,0.101078,20.8711,12.3913,-15.7609,0.0,0.0
1691,422.5,26.1581,28.008,176.065,211918,180042,0.00736885,0.100499,20.8721,12.3313,-15.7374,0.0,0.0
1710,427.25,26.2738,28.4281,177.729,211883,179919,0.00755592,0.100315,20.8718,12.3113,-15.7874,0.0,0.0
1729,432,26.5133,28.4818,184.159,211836.125,180044,0.00762176,0.100606,20.8715,12.3012,-15.6993,0.0,0.0
1748,436.75,26.1761,28.3611,174.05,212264,180205,0.00762535,0.100986,20.8695,12.2512,-15.8073,0.0,0.0
1767,441.5,26.4334,28.3464,178.747,212608,180363,0.00744621,0.101238,20.8691,12.2312,-15.8791,0.0,0.0
1786,446.25,26.3477,28.1353,179.861,212993,180452,0.00718699,0.100057,20.8702,12.1911,-16.0062,0.0,0.0
1805,451,25.8353,27.7989,187.056,213256,180997,0.00715888,0.0999558,20.87,12.1511,-15.8344,0.0,0.0
1824,455.75,26.0664,27.7188,180.646,213455,181278,0.00757795,0.101732,20.8684,12.1711,-15.7747,0.0,0.0
1843,460.5,26.5732,28.0938,179.855,213543,181561,,0.100747,,12.1311,-15.6639,0.0,0.0
1862,465.25,26.3966,28.4951,176.121,213607,181442,,,,12.1011,-15.7558,0.0,0.0
1880,469.75,26.2933,28.5399,177.908,213635,181216,,,,12.071,-15.8892,0.0,0.0

File: Rubber_Band_Cone_HF50-Frame+GridScalar_201013_R1.csv
LABORATORY,FSRI
TEST IDENT,HelmetStrap_50kW_1
OPERATOR,Dow
MATERIAL,Helmet rubber strap
ORIENTATION,Horizontal
HEAT FLUX,50
SURF AREA,0.01
C FACTOR,0.0363987
SPEC HOLDER DIFF,379.56
SPECIMEN MASS,18.85
SCAN TIME,0.25
O2 DELAY TIME,11
CO DELAY TIME,11
CO2 DELAY TIME,8
FLOW FACTOR,1
SCAN COUNT,1284
TIME TO IGN,25
END OF TEST SCAN,804
END OF TEST TIME,201
TEST STATUS,1