Folder: fsri_materials_database/01_Data/Rubber_Band/Cone (part 3)

File: Rubber_Band_Cone_HF100-FrameScan_201103_R1.csv
Names,Time,Stack TC,Smoke TC,Exh Press,Smoke Comp,Smoke Meas,CO Meter,CO2 Meter,O2 Meter,Sample Mass,Ext Coeff,Start Test,Flame Verif
Chan Gain,,500,500,1,1,1,1,1,1,1,1,1.0,1.0
Offset,,0,0,0.134413,0,0,0,0,0,0,0,0.0,0.0
Gain,,1,1,25.011,13.8462,17.0661,1,1,1,1.0009,1.04998,1.0,1.0
Units,sec,C,C,Pa,%,%,%,%,%,g,/m,,
Baseline,,45.8544,51.3879,171.617,101.702,103.868,0.00388409,0.0813797,20.9793,-940.429,-0.194043,,
12,2.75,41.808,45.0261,166.987,102.747,105.262,0.00577342,0.108501,20.945,-15.1536,-0.222745,0.0,1.0
24,5.75,44.7885,50.5055,151.388,102.761,69.0937,0.0137138,0.306508,20.6441,-15.4138,3.65601,0.0,1.0
36,8.75,54.2878,68.5022,128.07,102.762,39.7295,0.0315446,0.768684,19.9439,-16.0744,8.7528,0.0,0.0
48,11.75,68.6763,92.2162,127.151,102.765,31.2392,0.0562687,1.23312,19.1517,-16.9852,10.9675,0.0,0.0
60,14.75,82.2946,116.759,122.303,102.761,29.497,0.0807356,1.63485,18.5193,-18.0061,11.4957,0.0,0.0
72,17.75,96.8724,141.062,121.076,102.76,26.6346,0.0970824,1.88524,18.1368,-18.997,12.4357,0.0,0.0
84,20.75,107.732,157.214,127.08,102.752,27.1382,0.0973164,1.87141,18.0703,-19.8778,12.2625,0.0,0.0
96,23.75,114.026,167.299,122.195,102.747,26.118,0.0952942,1.8393,18.0947,-20.7686,12.615,0.0,0.0
108,26.75,120.249,175.57,122.085,102.744,25.7529,0.0925061,1.79581,18.146,-21.5793,12.7444,0.0,0.0
120,29.75,124.902,180.621,131.5,102.729,30.7683,0.0845764,1.68472,18.3227,-22.3801,11.1041,0.0,0.0
132,32.75,125.607,179.174,122.296,102.725,36.2104,0.0721264,1.45408,18.6663,-23.0807,9.60376,0.0,0.0
144,35.75,123.386,173.869,130.511,102.718,46.6981,0.0569428,1.1823,19.0848,-23.6212,7.26038,0.0,0.0
156,38.75,118.174,162.013,142.619,102.699,55.0989,0.0410191,0.884339,19.5764,-24.0115,5.73508,0.0,0.0
168,41.75,110.628,148.02,153.883,102.692,67.7323,0.0300401,0.629222,20.0279,-24.2918,3.83305,0.0,0.0
180,44.75,103.57,134.476,151.788,102.664,73.7941,0.0216776,0.480974,20.2889,-24.512,3.04115,0.0,0.0
192,47.75,97.165,123.435,158.426,102.648,81.2991,0.0162372,0.404723,20.4564,-24.7221,2.14763,0.0,0.0
204,50.75,91.5147,114.675,155.686,102.637,84.2829,0.0131672,0.366414,20.5463,-24.8322,1.81467,0.0,0.0
216,53.75,87.014,107.646,157.234,102.618,86.8146,0.0113398,0.34388,20.5937,-25.0725,1.54037,0.0,0.0
228,56.75,83.9111,102.597,156.215,102.603,88.9301,0.0102328,0.330952,20.6179,-25.2526,1.31722,0.0,0.0
240,59.75,81.1628,98.1113,159.671,102.601,90.9379,0.00925369,0.317961,20.6403,-25.4228,1.1114,0.0,0.0
252,62.75,79.4765,94.1684,160.795,102.573,89.2061,0.00873849,0.307201,20.6603,-25.5329,1.28598,0.0,0.0
264,65.75,77.9936,91.2793,157.967,102.585,89.4218,0.00836819,0.295936,20.6727,-25.673,1.26488,0.0,0.0
276,68.75,76.832,89.0724,150.208,102.527,87.9926,0.00777952,0.291353,20.6809,-25.8432,1.40803,0.0,0.0
288,71.75,75.2783,87.0231,157.003,102.512,88.6155,0.00720817,0.285838,20.6892,-25.9533,1.34173,0.0,0.0
300,74.75,74.8066,85.5492,157.992,102.493,89.9947,0.0071579,0.278567,20.699,-26.0934,1.19775,0.0,0.0
312,77.75,73.9332,83.9512,158.009,102.483,91.0733,0.00735155,0.273319,20.7077,-26.2435,1.0871,0.0,0.0
324,80.75,73.0033,83.1041,162.06,102.446,90.5842,0.00719442,0.268684,20.7144,-26.3736,1.13343,0.0,0.0
336,83.75,72.4773,81.9763,164.119,102.451,91.0514,0.00702054,0.261051,20.7283,-26.4837,1.08647,0.0,0.0
348,86.75,71.9378,80.6606,155.201,102.435,91.7186,0.00710833,0.256809,20.7349,-26.5938,1.01778,0.0,0.0
360,89.75,70.8608,80.0894,159.402,102.432,92.218,0.00711535,0.252382,20.74,-26.7039,0.967535,0.0,0.0
372,92.75,70.3891,79.0414,160.192,102.415,92.0644,0.00684311,0.246917,20.7495,-26.8641,0.981335,0.0,0.0
384,95.75,69.7315,78.3414,159.923,102.402,93.3826,0.00640692,0.242712,20.759,-26.9241,0.849254,0.0,0.0
396,98.75,69.4107,77.5954,161.186,102.394,96.709,0.00621344,0.23602,20.7697,-27.0042,0.526149,0.0,0.0
408,101.75,68.7522,76.5837,162.103,102.44,98.0517,0.00603913,0.225781,20.7854,-27.0642,0.403221,0.0,0.0
420,104.75,68.2073,75.7913,163.918,102.554,100.918,0.00587474,0.217,20.8016,-27.1743,0.148113,0.0,0.0
432,107.75,67.6271,74.7834,158.547,102.645,100.421,0.00591702,0.211547,20.8105,-27.2544,0.201765,0.0,0.0
444,110.75,66.7142,73.8536,163.918,102.732,101.286,0.00606344,0.207622,20.8179,-27.3345,0.130569,0.0,0.0
456,113.75,66.4538,73.2826,161.714,102.826,102.736,0.00593585,0.203902,20.826,-27.3845,0.00805883,0.0,0.0
468,116.75,65.9375,72.4265,164.979,102.9,103.037,0.00582086,0.199677,20.8327,-27.4546,-0.0123148,0.0,0.0
480,119.75,65.033,71.4059,163.942,102.988,104.397,0.00574809,0.194492,20.8408,-27.4846,-0.125211,0.0,0.0
492,122.75,64.5746,70.445,158.789,103.056,105.17,0.00570185,0.190579,20.8468,-27.5046,-0.18702,0.0,0.0
504,125.75,64.4835,70.4462,165.6,103.131,105.092,0.00599336,0.185974,20.8531,-27.5847,-0.173419,0.0,0.0
516,128.75,64.0741,70.0857,168.433,103.18,104.627,0.00613357,0.181522,20.8587,-27.5947,-0.128274,0.0,0.0
528,131.75,63.3871,68.6456,170.123,103.238,105.099,0.00613443,0.180171,20.8623,-27.6748,-0.164561,0.0,0.0
540,134.75,62.9714,68.1029,164.794,103.257,106.041,0.00627584,0.17823,20.8659,-27.7248,-0.244972,0.0,0.0
552,137.75,62.0768,67.1818,160.658,103.283,105.93,0.00632593,0.177002,20.8675,-27.7649,-0.233079,0.0,0.0
564,140.75,61.6546,66.7132,165.411,103.308,106,0.00626207,0.176182,20.8694,-27.8449,-0.237004,0.0,0.0
576,143.75,61.838,66.9243,167.582,103.314,106.521,0.00636831,0.173461,20.8724,-27.875,-0.281546,0.0,0.0
588,146.75,61.0313,66.3611,168.174,103.322,106.443,0.00645126,0.171722,20.8749,-27.945,-0.274065,0.0,0.0
600,149.75,60.7638,65.7592,163.693,103.31,105.448,0.00656351,0.171526,20.8759,-27.945,-0.188638,0.0,0.0
612,152.75,60.5889,65.8327,168.267,103.319,106.28,0.006845,0.1693,20.8788,-27.9851,-0.260249,0.0,0.0
624,155.75,59.4637,64.3872,162.702,103.292,105.546,0.0070757,0.165957,20.8826,-28.0551,-0.198769,0.0,0.0
636,158.75,59.4487,64.0563,164.711,103.268,105.748,0.00712685,0.165687,20.8838,-28.0752,-0.218617,0.0,0.0
648,161.75,59.2651,64.0612,166.429,103.22,105.725,0.00701472,0.166749,20.8828,-28.1252,-0.220881,0.0,0.0
660,164.75,59.342,64.1717,176.589,103.165,105.105,0.00690034,0.166896,20.8823,-28.2053,-0.171541,0.0,0.0
672,167.75,58.7871,63.8778,168.608,103.123,105.414,0.00697324,0.166416,20.8821,-28.2353,-0.202423,0.0,0.0
684,170.75,58.6993,63.8328,163.27,103.068,105.596,0.00686896,0.16737,20.8809,-28.2553,-0.223206,0.0,0.0
696,173.75,59.073,64.1044,167.977,103.001,105.62,0.00673373,0.167238,20.8801,-28.2553,-0.231301,0.0,0.0
708,176.75,59.1289,63.8607,161.651,102.924,105.341,0.00679788,0.167261,20.8814,-28.3154,-0.213759,0.0,0.0
720,179.75,58.5978,63.5962,168.193,102.842,105.651,0.00683641,0.167098,20.8819,-28.4355,-0.248281,0.0,0.0
732,182.75,58.886,64.2352,163.08,102.736,104.892,0.00676031,0.165977,20.8828,-28.4555,-0.191226,0.0,0.0
744,185.75,58.3149,63.2669,165.203,102.7,105.228,0.00686827,0.164286,20.8844,-28.4755,-0.223935,0.0,0.0
756,188.75,58.2462,63.0722,163.537,102.725,104.948,0.00722236,0.16396,20.8849,-28.5155,-0.197232,0.0,0.0
768,191.75,58.4384,63.2974,164.926,102.768,105.234,0.00736335,0.164818,20.8838,-28.5556,-0.218383,0.0,0.0
780,194.75,57.8368,63.1687,161.986,102.786,105.431,0.00717642,0.165041,20.8831,-28.6056,-0.233969,0.0,0.0
792,197.75,57.6957,62.8724,162.839,102.833,105.391,0.0071022,0.164005,20.8845,-28.6457,-0.22627,0.0,0.0
804,200.75,57.7329,62.6289,163.442,102.855,104.92,0.00719299,0.163762,20.8862,-28.6757,-0.183094,0.0,0.0
816,203.75,57.9515,63.2479,164.132,102.898,105.54,0.00706067,0.163126,20.8859,-28.7357,-0.23349,0.0,0.0
828,206.75,57.1199,62.7459,162.09,102.953,105.896,0.00692305,0.162877,20.8863,-28.7558,-0.259611,0.0,0.0
840,209.75,57.8139,62.9051,168.003,102.983,105.218,0.00704735,0.162975,20.885,-28.7357,-0.197752,0.0,0.0
852,212.75,57.8871,63.0223,166.327,103.026,105.3,0.00716697,0.163995,20.8843,-28.7958,-0.201144,0.0,0.0
864,215.75,57.5543,62.6535,167.301,103.071,105.208,0.00720996,0.162823,20.8854,-28.8058,-0.18899,0.0,0.0
876,218.75,57.2526,62.3741,164.176,103.112,105.07,0.00718171,0.161079,20.888,-28.8759,-0.173275,0.0,0.0
888,221.75,56.9491,61.7512,162.861,103.146,106.047,0.00726957,0.161947,20.888,-28.8859,-0.255479,0.0,0.0
900,224.75,56.7424,62.2916,162.98,103.193,105.435,0.00743043,0.163444,20.8861,-28.8959,-0.197905,0.0,0.0
912,227.75,56.8799,61.7496,167.123,103.224,105.68,0.00737811,0.163239,20.8852,-28.966,-0.216548,0.0,0.0
924,230.75,56.9287,62.2423,161.193,103.264,105.499,0.0073774,0.162907,20.8863,-29.006,-0.197202,0.0,0.0
936,233.75,56.7529,62.3123,166.312,103.319,105.994,0.00732962,0.16179,20.887,-29.006,-0.235399,0.0,0.0
948,236.75,56.5491,62.3072,170.201,103.332,105.574,0.00733957,0.161339,20.8868,-29.0861,-0.197727,0.0,0.0
960,239.75,56.3673,61.904,166.884,103.359,105.641,0.00731642,0.161211,20.8866,-29.1661,-0.201132,0.0,0.0
972,242.75,56.5615,61.7437,165.701,103.39,106.182,0.00720357,0.161897,20.8865,-29.1661,-0.245404,0.0,0.0
984,245.75,56.9667,61.7922,166.359,103.393,105.955,0.00709161,0.162128,20.8865,-29.1861,-0.225423,0.0,0.0
996,248.75,56.3244,61.9598,164.766,103.422,106.255,0.00700495,0.161469,20.8867,-29.2062,-0.248858,0.0,0.0
1008,251.75,56.4687,61.9671,163.805,103.447,105.515,0.00697085,0.160456,20.8882,-29.2862,-0.182308,0.0,0.0
1020,254.75,56.3019,61.4767,161.214,103.45,106.388,0.00696351,0.160949,20.8892,-29.3663,-0.257925,0.0,0.0
1032,257.75,55.7986,62.0023,165.141,103.484,105.867,0.00688556,0.160893,20.8883,-29.3663,-0.209671,0.0,0.0
1044,260.75,56.3678,62.3177,163.346,103.461,105.951,0.00681126,0.161069,20.8882,-29.4364,-0.219077,0.0,0.0
1056,263.75,56.2574,62.0385,163.46,103.485,105.847,,0.16106,,-29.4164,-0.207919,0.0,0.0
1068,266.75,56.1565,61.583,167.424,103.486,105.816,,,,-29.4564,-0.205087,0.0,0.0
1080,269.75,56.582,62.3208,162.585,103.496,106.022,,,,-29.4964,-0.222111,0.0,0.0
1092,272.75,56.3716,62.3623,168.755,103.516,105.34,,,,-29.4964,-0.160806,0.0,0.0
1099,274.5,56.1865,62.3629,170.681,103.497,105.98,,,,-29.5665,-0.218377,0.0,0.0