Folder: fsri_materials_database/01_Data/Rubber_Band/Cone (part 2)

File: Rubber_Band_Cone_HF50-Frame+GridScan_201013_R1.csv
Names,Time,Stack TC,Smoke TC,Exh Press,Smoke Comp,Smoke Meas,CO Meter,CO2 Meter,O2 Meter,Sample Mass,Ext Coeff,Start Test,Flame Verif
Chan Gain,,500,500,1,1,1,1,1,1,1,1,1.0,1.0
Offset,,0,0,0.130609,0,0,0,0,0,0,0,0.0,0.0
Gain,,1,1,25.011,28413.6,29762,1,1,1,1.00092,-11.006,1.0,1.0
Units,sec,C,C,Pa,%,%,%,%,%,g,/m,,
Baseline,,32.6998,35.9915,176.517,212953,181096,0.00525877,0.0672114,20.8969,-941.733,-15.6444,,
13,3,30.4343,33.037,175.55,212969,181196,0.00542881,0.0674476,20.9008,23.6216,-15.598,0.0,0.0
26,6.25,30.5029,34.358,171.056,213035,181110,0.00538548,0.0676251,20.9003,23.5816,-15.6742,0.0,0.0
39,9.5,30.6772,33.7085,175.467,213088,180904,0.00524023,0.0682428,20.8984,23.5716,-15.8082,0.0,0.0
52,12.75,30.4374,33.6445,179.162,213145,180180.75,0.00514863,0.0692867,20.8968,23.5615,-16.2207,0.0,0.0
65,16,30.3928,34.2907,178.769,213203,178920,0.00508875,0.0699549,20.8969,23.5215,-16.9245,0.0,0.0
78,19.25,30.8775,34.0981,178.715,213260,178233,0.0049045,0.0701135,20.8974,23.5215,-17.3221,0.0,0.0
91,22.5,30.8735,34.1787,170.834,213347,172797,0.00517477,0.0719451,20.8946,23.5115,-20.3517,0.0,0.0
104,25.75,31.652,35.0154,166.215,213443,173891,0.00664314,0.103694,20.8503,23.0611,-19.7857,0.0,1.0
117,29,34.5452,40.8118,168.95,213514,129633,0.0107318,0.220036,20.6531,23.2513,-48.1747,0.0,1.0
130,32.25,38.6724,48.3288,152.155,213559,120782,0.0156839,0.37666,20.4115,22.8909,-55.0227,0.0,0.0
143,35.5,45.5375,59.4929,143.295,213593,114305,0.0212178,0.540417,20.1557,22.5106,-60.359,0.0,0.0
156,38.75,53.1337,72.6895,144.331,213620,102257,0.0265975,0.707663,19.8972,22.0602,-71.1244,0.0,0.0
169,42,61.9466,86.0414,135.788,213614,95259.8,0.0325142,0.843569,19.6888,21.5197,-77.9649,0.0,0.0
182,45.25,68.132,96.4386,137.571,213639,95577.7,0.0366022,0.928099,19.5484,20.8891,-77.6546,0.0,0.0
195,48.5,73.2409,104.215,141.785,213652,90755.7,0.0387263,0.976042,19.4743,20.3886,-82.6583,0.0,0.0
208,51.75,78.2192,111.085,130.798,213668,95939.1,0.0391059,0.979211,19.4694,19.8782,-77.3035,0.0,0.0
221,55,80.7165,113.856,147.328,213672,86077.2,0.0392321,0.96566,19.4827,19.4077,-87.7771,0.0,0.0
234,58.25,82.724,115.896,144.119,213690,97588.6,0.0389898,0.940714,19.5209,18.8472,-75.6676,0.0,0.0
247,61.5,83.546,116.332,143.19,213707,92636.7,0.0386534,0.919475,19.5485,18.3368,-80.7029,0.0,0.0
260,64.75,84.7083,116.7,144.978,213689,93999.1,0.0377854,0.904329,19.5752,17.8563,-79.2852,0.0,0.0
273,68,84.8426,116.443,134.885,213680,98834.7,0.0360115,0.882223,19.6187,17.3559,-74.4379,0.0,0.0
286,71.25,85.4977,116.17,143.109,213664.875,101983,0.0339166,0.836603,19.6972,16.9055,-71.4041,0.0,0.0
299,74.5,83.6705,112.575,145.797,213645,103273,0.0311531,0.772681,19.7999,16.5251,-70.181,0.0,0.0
312,77.75,82.0944,108.615,157.1,213615,113159,0.0282796,0.690725,19.938,16.2348,-61.3422,0.0,0.0
325,81,79.1344,101.848,152.893,213579,116307,0.0249571,0.585452,20.1028,15.8845,-58.6766,0.0,0.0
338,84.25,75.4578,96.1818,156.618,213553,122401,0.0219464,0.497536,20.2249,15.6443,-53.7348,0.0,0.0
351,87.5,71.3218,89.409,159.288,213500.125,133402,0.0191469,0.422778,20.3432,15.4541,-45.4013,0.0,0.0
364,90.75,67.6523,82.9933,163.182,213447,136697,0.0165038,0.362773,20.4446,15.2539,-43.0223,0.0,0.0
377,94,64.9561,77.7375,165.904,213397,141439,0.0146286,0.325923,20.5059,15.1038,-39.7072,0.0,0.0
390,97.25,62.3327,72.7997,163.607,213307.625,148164,0.0133251,0.305096,20.538,14.9537,-35.1817,0.0,0.0
403,100.5,60.3495,70.0099,158.502,213240,144599,0.0126133,0.295542,20.5568,14.7935,-37.503,0.0,0.0
416,103.75,58.6901,68.1503,163.455,213126,148040,0.0118846,0.287438,20.5676,14.6534,-35.1808,0.0,0.0
429,107,57.4124,65.7606,162.605,213054,149048,0.0115211,0.283225,20.5753,14.4832,-34.4929,0.0,0.0
442,110.25,57.2127,64.4107,156.957,212979,146234,0.0115894,0.280031,20.5781,14.3431,-36.2988,0.0,0.0
455,113.5,56.113,62.9205,164.832,212910,149035,0.0119361,0.278885,20.5798,14.1329,-34.4361,0.0,0.0
468,116.75,55.3325,62.7168,162.533,212785.625,148654,0.0120753,0.280106,20.5803,14.1329,-34.6267,0.0,0.0
481,120,55.7726,62.2494,162.93,212658,148926,0.0114749,0.278516,20.5836,14.0128,-34.392,0.0,0.0
494,123.25,55.1829,61.5057,161.384,212567,152201,0.0107628,0.273394,20.5927,13.8126,-32.2511,0.0,0.0
507,126.5,54.835,61.4227,168.331,212493,156448,0.0102883,0.265983,20.6059,13.7225,-29.5605,0.0,0.0
520,129.75,54.2218,60.1119,164.365,212388,152948,0.00990752,0.256427,20.62,13.5624,-31.6969,0.0,0.0
533,133,53.7626,59.967,169.335,212338,156945,0.00975474,0.251373,20.6277,13.4323,-29.1839,0.0,0.0
546,136.25,52.9968,59.0311,171.416,212330,159059,0.00922208,0.247516,20.6369,13.3322,-27.8879,0.0,0.0
559,139.5,53.0486,58.7497,165.515,212293,159129,0.00855125,0.241087,20.6489,13.2821,-27.8289,0.0,0.0
572,142.75,52.6923,57.5318,166.519,212239,162591,0.00800393,0.230761,20.6695,13.142,-25.7264,0.0,0.0
585,146,51.2974,56.5014,164.551,212275,166793,0.00774159,0.218388,20.6885,13.082,-23.2795,0.0,0.0
598,149.25,51.3179,56.0304,165.437,212175,169283.375,0.00754203,0.210599,20.7034,12.9719,-21.8032,0.0,0.0
611,152.5,50.2884,55.4464,166.277,212172,173422,0.00722903,0.199123,20.7221,12.9418,-19.4695,0.0,0.0
624,155.75,49.6507,53.9832,162.101,212129,173579,0.00718746,0.189068,20.7364,12.8317,-19.3633,0.0,0.0
637,159,49.4663,53.2995,165.016,212230,174556,0.00736734,0.180806,20.7489,12.8217,-18.867,0.0,0.0
650,162.25,48.7267,52.5724,173.769,212343,177562,0.00731618,0.172456,20.7636,12.7416,-17.2697,0.0,0.0
663,165.5,47.4431,50.7518,169.624,212450,178735,0.00737801,0.167049,20.7732,12.6716,-16.6831,0.0,0.0
676,168.75,46.5703,49.6317,165.925,212564,178937,0.00750589,0.161879,20.782,12.7116,-16.6254,0.0,0.0
689,172,46.6328,49.1424,170.683,212688,180532.25,0.00779318,0.155391,20.7919,12.6315,-15.825,0.0,0.0
702,175.25,46.1406,48.2296,168.199,212776,180756,0.00814817,0.15265,20.7982,12.5915,-15.7457,0.0,0.0
715,178.5,44.8027,47.7914,173.282,212906,181296,0.00834236,0.148202,20.8043,12.4914,-15.5165,0.0,0.0
728,181.75,44.601,46.7108,171.719,212960,181606,0.00841388,0.145282,20.8084,12.4414,-15.376,0.0,0.0
741,185,43.8115,46.5782,166.438,213026,181877,0.00859963,0.142672,20.8136,12.4714,-15.2617,0.0,0.0
754,188.25,43.9644,45.9605,169.011,213113,182414,0.00863163,0.139081,20.8183,12.4314,-15.0164,0.0,0.0
767,191.5,43.4006,45.9749,173.16,213219,181865,0.00866215,0.13588,20.8238,12.4414,-15.356,0.0,0.0
780,194.75,43.0329,44.9293,169.653,213263,181743.875,0.00896297,0.131595,20.8284,12.3713,-15.4402,0.0,0.0
793,198,42.6167,45.1078,166.973,213332,181499,0.0092653,0.130729,20.8304,12.3713,-15.6015,0.0,0.0
806,201.25,41.9717,44.0639,171.116,213361.375,181427,0.00925189,0.128338,20.8341,12.2912,-15.653,0.0,0.0
819,204.5,40.0893,41.8331,170.804,213425,182388,0.00940622,0.127398,20.8382,12.2412,-15.1717,0.0,0.0
832,207.75,39.3875,41.292,179.602,213400,181793,0.00961561,0.130353,20.8354,12.1811,-15.4757,0.0,0.0
845,211,39.5865,41.3118,172.135,213445,182128,0.00952077,0.130906,20.8348,12.1811,-15.3187,0.0,0.0
858,214.25,39.4633,41.3975,172.139,213419,182331,0.00944085,0.128596,20.837,12.1411,-15.1992,0.0,0.0
871,217.5,39.0278,41.2659,172.689,213368,182176,0.00949524,0.126665,20.8389,12.1111,-15.2583,0.0,0.0
884,220.75,39.0849,40.8542,176.956,213315,181950,0.00934057,0.127352,20.8379,12.1111,-15.3539,0.0,0.0
897,224,38.6871,41.1464,174.218,213295,182114,0.00935938,0.126646,20.8394,12.031,-15.2581,0.0,0.0
910,227.25,38.6146,40.9268,165.938,213248,181886,0.00937847,0.126671,20.8398,12.001,-15.3574,0.0,0.0
923,230.5,38.9244,40.8048,173.557,213209,182526,0.00947819,0.126689,20.8399,11.991,-15.0009,0.0,0.0
936,233.75,38.2404,40.8921,170.39,213153,182224,0.00937143,0.127019,20.8399,11.9309,-15.1354,0.0,0.0
949,237,38.3015,40.6932,172.316,213049,182004,0.00931998,0.126339,20.8399,11.9209,-15.2053,0.0,0.0
962,240.25,38.5439,40.4918,171.913,212960,181969.125,0.00919667,0.127197,20.8399,11.9209,-15.1831,0.0,0.0
975,243.5,37.8432,40.3636,171.054,212869,181896,0.00925922,0.126746,20.8408,11.9309,-15.1804,0.0,0.0
988,246.75,37.7705,40.1517,175.168,212731,181678,0.00921904,0.125963,20.8418,11.8809,-15.2336,0.0,0.0
1001,250,37.5811,40.1568,173.403,212570,181911,0.00920037,0.125866,20.841,11.8709,-15.0369,0.0,0.0
1014,253.25,37.8907,39.9177,173.239,212433,180811,0.00894245,0.125377,20.8409,11.8208,-15.5602,0.0,0.0
1027,256.5,37.4863,39.5516,166.546,212278,181005,0.00879721,0.124077,20.8424,11.8108,-15.3868,0.0,0.0
1040,259.75,37.1394,39.8881,172.005,212074,180845,0.00884294,0.124902,20.8413,11.7207,-15.3789,0.0,0.0
1053,263,37.3756,39.308,177.485,211869,180946,0.00885058,0.124966,20.8408,11.7808,-15.2319,0.0,0.0
1066,266.25,37.3796,39.418,174.413,211553,180430,0.00887721,0.124798,20.8422,11.7307,-15.3632,0.0,0.0
1079,269.5,37.4797,39.7154,171.816,211544,179958,0.00890213,0.124103,20.8427,11.5806,-15.6118,0.0,0.0
1092,272.75,36.9269,38.9243,175.537,211550,180164,0.00896875,0.124397,20.8428,11.6406,-15.5041,0.0,0.0
1105,276,37.1546,39.2816,174.37,211620,180518.625,0.00893092,0.125171,20.8424,11.6206,-15.3465,0.0,0.0
1118,279.25,36.6903,39.8611,171.545,211698.25,180159,0.00885705,0.123464,20.8423,11.5706,-15.5746,0.0,0.0
1131,282.5,36.7285,39.4721,175.247,211800,180962,0.00910783,0.123569,20.8422,11.5706,-15.1916,0.0,0.0
1144,285.75,36.6575,39.4431,175.425,211862,180578,0.00883596,0.123726,20.8428,11.4905,-15.4252,0.0,0.0
1157,289,36.8092,39.3437,178.567,211931,181375.125,0.0086301,0.123171,20.8435,11.4505,-15.031,0.0,0.0
1170,292.25,36.5075,38.9409,171.37,212003,181442,0.00872554,0.124112,20.8419,11.3504,-15.028,0.0,0.0
1183,295.5,36.6601,39.3954,176.734,212166.5,181055,0.00872023,0.125146,20.8404,11.4305,-15.3087,0.0,0.0
1196,298.75,36.2966,39.5749,171.457,212273,181329,0.00877845,0.124532,20.843,11.3704,-15.2116,0.0,0.0
1209,302,36.151,38.9544,178.397,212347,181196,0.00872205,0.123827,20.8441,11.3404,-15.3157,0.0,0.0
1222,305.25,36.7993,39.0529,175.628,212422,181139.875,0.00894133,0.123355,20.8458,11.3003,-15.38,0.0,0.0
1235,308.5,36.7619,39.1815,173.015,212399.75,181243,0.00900107,0.122995,20.8466,11.3103,-15.3146,0.0,0.0
1248,311.75,36.6417,39.7237,172.234,212343,181079,,0.122696,,11.1902,-15.3766,0.0,0.0
1261,315,36.2551,39.5307,170.904,212224,181701,,,,11.2203,-14.991,0.0,0.0
1274,318.25,36.9936,39.2201,171.001,212031,180768,,,,11.2403,-15.4003,0.0,0.0
1284,320.75,36.6558,38.4445,172.025,211863,180822,,,,11.2303,-15.2951,0.0,0.0

File: Rubber_Band_Cone_HF75-Frame+GridScalar_201013_R1.csv
LABORATORY,FSRI
TEST IDENT,HelmetStrap_75kW_1
OPERATOR,Dow
MATERIAL,Helmet rubber strap
ORIENTATION,Horizontal
HEAT FLUX,75
SURF AREA,0.01
C FACTOR,0.0363987
SPEC HOLDER DIFF,366.65
SPECIMEN MASS,18.85
SCAN TIME,0.25
O2 DELAY TIME,11
CO DELAY TIME,11
CO2 DELAY TIME,8
FLOW FACTOR,1
SCAN COUNT,1268
TIME TO IGN,12.75
END OF TEST SCAN,788
END OF TEST TIME,197
TEST STATUS,1

File: Rubber_Band_Cone_HF75-Frame+GridScan_201013_R1.csv
Names,Time,Stack TC,Smoke TC,Exh Press,Smoke Comp,Smoke Meas,CO Meter,CO2 Meter,O2 Meter,Sample Mass,Ext Coeff,Start Test,Flame Verif
Chan Gain,,500,500,1,1,1,1,1,1,1,1,1.0,1.0
Offset,,0,0,0.130609,0,0,0,0,0,0,0,0.0,0.0
Gain,,1,1,25.011,13.5216,16.6677,1,1,1,1.00092,1.03296,1.0,1.0
Units,sec,C,C,Pa,%,%,%,%,%,g,/m,,
Baseline,,36.3233,40.5789,174.087,100.011,100.439,0.00549068,0.0671899,20.9028,-942.474,-0.0387491,,
13,3,34.7242,38.4492,181.37,101.06,101.251,0.00524732,0.0750017,20.8941,10.1393,-0.0171134,0.0,0.0
26,6.25,34.2896,38.6025,176.342,101.087,101.004,0.00537266,0.0757561,20.8928,10.1293,0.00746945,0.0,0.0
39,9.5,34.2052,38.1824,173.457,101.119,99.2297,0.00569211,0.0773815,20.8895,10.0992,0.170894,0.0,0.0
52,12.75,35.257,39.1362,172.58,101.132,101.355,0.00697667,0.0964504,20.8761,10.0592,-0.0199314,0.0,1.0
65,16,37.887,44.4613,148.661,101.164,67.9921,0.0117366,0.243149,20.6292,9.76893,3.60037,0.0,1.0
78,19.25,43.1249,54.3073,146.731,101.133,65.0983,0.0186378,0.43778,20.3434,9.41861,3.99172,0.0,0.0
91,22.5,50.7857,66.5384,134.109,101.127,54.6099,0.0260075,0.636046,19.9872,8.87812,5.58305,0.0,0.0
104,25.75,61.0425,83.5705,129.418,101.079,45.6295,0.0362289,0.872652,19.5966,8.28758,7.20669,0.0,0.0
117,29,71.2192,99.8214,125.761,101.041,42.7943,0.0463297,1.07964,19.2677,7.60696,7.78452,0.0,0.0
130,32.25,80.4724,114.223,125.99,101.011,37.7972,0.0520287,1.19065,19.1043,6.92633,8.90691,0.0,0.0
143,35.5,86.6225,123.91,134.83,100.979,43.4403,0.0538386,1.21218,19.0729,6.30577,7.64325,0.0,0.0
156,38.75,91.5357,130.715,121.635,100.939,43.335,0.0534832,1.1962,19.0863,5.59512,7.66161,0.0,0.0
169,42,94.9259,134.576,131.555,100.899,40.43,0.0526058,1.20332,19.0863,4.91449,8.28673,0.0,0.0
182,45.25,98.2502,138.696,131.85,100.859,41.811,0.0512963,1.19114,19.1035,4.29393,7.97884,0.0,0.0
195,48.5,100.308,139.752,133.825,100.828,44.6829,0.0483853,1.14025,19.1936,3.70339,7.37409,0.0,0.0
208,51.75,99.8315,137.607,134.028,100.792,47.4719,0.0430116,1.00712,19.3826,3.15288,6.82225,0.0,0.0
221,55,96.9482,131.894,146.397,100.774,57.5972,0.0362695,0.830293,19.6649,2.80256,5.06883,0.0,0.0
234,58.25,91.8833,122.917,153.437,100.773,62.5134,0.0296885,0.654141,19.9407,2.49228,4.32653,0.0,0.0
247,61.5,86.2722,112.123,152.325,100.931,69.1122,0.0238285,0.511854,20.1702,2.25206,3.43149,0.0,0.0
260,64.75,81.119,103.085,153.938,101.097,74.1829,0.0198532,0.415173,20.355,2.03186,2.80485,0.0,0.0
273,68,77.3627,95.9272,154.281,101.27,77.1825,0.0172149,0.363022,20.4431,1.88172,2.46109,0.0,0.0
286,71.25,73.262,89.0271,161.937,101.385,78.0762,0.0155498,0.335034,20.4938,1.67153,2.36707,0.0,0.0
299,74.5,70.3849,84.4415,157.667,101.482,76.7547,0.0143263,0.321982,20.5155,1.58145,2.53045,0.0,0.0
312,77.75,68.1355,81.1372,161.038,101.565,79.1505,0.0135827,0.313482,20.531,1.38126,2.25939,0.0,0.0
325,81,66.283,78.1786,158.871,101.628,80.4496,0.0129183,0.306225,20.5411,1.19109,2.11743,0.0,0.0
338,84.25,65.3243,75.873,164.444,101.645,81.5773,0.0122618,0.298997,20.5533,1.05096,1.99288,0.0,0.0
351,87.5,64.3433,74.5085,157.797,101.655,82.4384,0.0118558,0.292178,20.5665,0.850778,1.89862,0.0,0.0
364,90.75,63.2987,72.9587,158.448,101.621,81.9466,0.0113841,0.290527,20.5723,0.720659,1.94979,0.0,0.0
377,94,62.8061,71.3321,158.422,101.549,80.2141,0.011178,0.288986,20.5749,0.570522,2.137,0.0,0.0
390,97.25,62.4153,70.7926,159.503,101.445,80.5661,0.0111029,0.28904,20.5757,0.440403,2.08797,0.0,0.0
403,100.5,61.7968,70.1316,164.998,101.33,81.8133,0.0110284,0.288605,20.5759,0.290265,1.93852,0.0,0.0
416,103.75,61.4612,69.329,155.134,101.142,83.2569,0.0108394,0.284984,20.5799,0.100092,1.76323,0.0,0.0
429,107,60.3774,68.9422,160.705,101.022,84.3988,0.0102464,0.27902,20.5912,-0.0300275,1.62904,0.0,0.0
442,110.25,60.594,68.1599,164.302,101.091,85.8525,0.00986132,0.266579,20.6106,-0.140128,1.48051,0.0,0.0
455,113.5,59.8276,67.0756,157.899,101.159,88.3897,0.00923205,0.254999,20.6346,-0.24022,1.22264,0.0,0.0
468,116.75,58.8831,66.2812,164.462,101.258,90.2743,0.0086458,0.243001,20.6544,-0.320293,1.04034,0.0,0.0
481,120,58.7717,65.2487,166.679,101.353,91.636,0.00844713,0.231397,20.6761,-0.430394,0.913178,0.0,0.0
494,123.25,57.9949,64.7694,164.652,101.456,94.1797,0.00809086,0.221006,20.6903,-0.520476,0.674366,0.0,0.0
507,126.5,57.6598,63.5375,161.953,101.567,94.8049,0.00765021,0.211356,20.7065,-0.570522,0.624255,0.0,0.0
520,129.75,56.6195,61.9103,160.326,101.641,97.2449,0.00739202,0.204562,20.7158,-0.690631,0.40066,0.0,0.0
533,133,55.8423,61.4602,159.389,101.702,98.7388,0.00730192,0.196744,20.7309,-0.730668,0.267887,0.0,0.0
546,136.25,55.2828,60.515,166.396,101.757,99.0481,0.00752057,0.190092,20.7413,-0.810741,0.244512,0.0,0.0
559,139.5,54.6502,59.6589,163.342,101.782,98.9245,0.00766367,0.185068,20.7507,-0.870796,0.258032,0.0,0.0
572,142.75,54.154,58.9377,163.165,101.755,99.9032,0.00781122,0.180109,20.7595,-0.930851,0.166444,0.0,0.0
585,146,53.7517,57.982,168.231,101.691,100.312,0.00789814,0.17508,20.7657,-0.990906,0.123694,0.0,0.0
598,149.25,53.1968,57.8753,165.194,101.606,100.601,0.00792737,0.169209,20.7768,-1.02093,0.0901398,0.0,0.0
611,152.5,52.802,56.8122,162.164,101.464,100.939,0.00814861,0.163688,20.7852,-1.07098,0.0469826,0.0,0.0
624,155.75,51.9999,56.0329,170.726,101.33,101.067,0.00872918,0.158538,20.7954,-1.17107,0.0235266,0.0,0.0
637,159,51.7837,55.4925,164.943,101.123,101.242,0.00923322,0.15462,20.8026,-1.2011,-0.0106431,0.0,0.0
650,162.25,51.2558,54.9836,163.897,100.898,101.496,0.00953609,0.150226,20.8086,-1.25114,-0.0535061,0.0,0.0
663,165.5,50.2036,53.8908,164.45,100.669,101.021,0.00965931,0.147593,20.8129,-1.30119,-0.0316282,0.0,0.0
676,168.75,50.1747,53.6851,168.478,100.447,101.226,0.00965426,0.144723,20.8167,-1.33122,-0.0699999,0.0,0.0
689,172,49.9301,52.9145,163.528,100.245,100.89,0.00965133,0.143179,20.8184,-1.36124,-0.0581491,0.0,0.0
702,175.25,49.4268,52.683,166.39,100.061,101.042,0.00972415,0.140954,20.8217,-1.4213,-0.0884033,0.0,0.0
715,178.5,49.003,51.945,168.441,99.905,100.413,0.00995391,0.14007,20.8229,-1.45133,-0.0459458,0.0,0.0
728,181.75,49.0022,51.851,165.935,99.7944,100.333,0.0101254,0.139378,20.8232,-1.47135,-0.0487727,0.0,0.0
741,185,48.4535,51.9089,166.798,99.7238,100.769,0.010356,0.138905,20.8247,-1.5314,-0.0944634,0.0,0.0
754,188.25,48.0937,50.9577,166.2,99.7073,100.392,0.0102647,0.138042,20.826,-1.54141,-0.0620543,0.0,0.0
767,191.5,48.3894,51.5936,167.569,99.7325,100.468,0.01031,0.136977,20.8287,-1.60146,-0.0665591,0.0,0.0
780,194.75,48.2718,50.8056,167.644,99.8034,100.587,0.0102847,0.136434,20.8299,-1.63149,-0.0708876,0.0,0.0
793,198,46.0564,49.3757,167.598,99.9111,101.025,0.0103221,0.136162,20.8302,-1.65151,-0.10048,0.0,0.0
806,201.25,46.1249,48.6848,170.901,100.075,101.085,0.010595,0.135319,20.8308,-1.71157,-0.0910177,0.0,0.0
819,204.5,45.477,48.745,169.836,100.243,101.033,0.0108495,0.13557,20.831,-1.74159,-0.0711717,0.0,0.0
832,207.75,45.5081,47.921,170.824,100.419,101.092,0.0108818,0.135635,20.8311,-1.79164,-0.0605862,0.0,0.0
845,211,45.3579,48.6027,171.874,100.618,101.205,0.0107017,0.135168,20.8317,-1.80165,-0.0526527,0.0,0.0
858,214.25,44.9669,47.9918,165.335,100.757,101.765,0.010589,0.134648,20.8323,-1.84168,-0.0902147,0.0,0.0
871,217.5,44.9649,48.214,170.942,100.891,101.722,0.010567,0.134561,20.8325,-1.88172,-0.0743202,0.0,0.0
884,220.75,44.7714,47.9362,162.369,100.996,102.642,0.0107412,0.134585,20.8329,-1.92176,-0.146508,0.0,0.0
897,224,45.1821,48.7004,166.234,101.088,101.958,0.0109444,0.134903,20.8339,-1.99182,-0.0776963,0.0,0.0
910,227.25,44.7542,48.161,167.492,101.126,101.979,0.0108524,0.134551,20.8341,-1.99182,-0.0761184,0.0,0.0
923,230.5,44.3675,48.1337,166.439,101.129,102.204,0.0107538,0.134125,20.8342,-2.06189,-0.0958508,0.0,0.0
936,233.75,44.5094,47.973,167.774,101.093,102.022,0.0106938,0.133117,20.8357,-2.05188,-0.0829011,0.0,0.0
949,237,44.3479,48.3291,171.21,101.032,101.725,0.0106991,0.133069,20.8363,-2.12194,-0.0619184,0.0,0.0
962,240.25,44.196,47.8472,165.297,100.946,101.575,0.0107516,0.13283,20.8365,-2.15197,-0.0562441,0.0,0.0
975,243.5,44.3877,47.5967,166.921,100.898,101.717,0.0108108,0.132832,20.8363,-2.17199,-0.0731925,0.0,0.0
988,246.75,43.8711,47.6431,171.781,100.838,101.827,0.010855,0.132341,20.8357,-2.21202,-0.0884764,0.0,0.0
1001,250,44.0544,47.1105,165.94,100.765,101.732,0.0105429,0.131398,20.8356,-2.22203,-0.0865738,0.0,0.0
1014,253.25,43.7761,47.7281,167.799,100.724,101.492,0.0103374,0.131076,20.8355,-2.28209,-0.0688303,0.0,0.0
1027,256.5,43.968,47.8694,169.211,100.901,102.039,0.0106783,0.131661,20.8355,-2.3021,-0.101578,0.0,0.0
1040,259.75,43.7802,47.03,169.298,101.183,102.184,0.0108901,0.132042,20.8355,-2.33213,-0.0892045,0.0,0.0
1053,263,43.3884,47.2908,165.547,101.394,102.523,0.0108135,0.131988,20.8355,-2.38218,-0.100376,0.0,0.0
1066,266.25,43.7693,47.0326,169.505,101.537,102.841,0.0106285,0.131849,20.8355,-2.41221,-0.115643,0.0,0.0
1079,269.5,43.076,47.3782,167.23,101.615,102.256,0.0107835,0.131304,20.8355,-2.42221,-0.0570001,0.0,0.0
1092,272.75,43.5064,47.6076,169.494,101.614,102.757,0.0107021,0.130895,20.8355,-2.45224,-0.101399,0.0,0.0
1105,276,43.6317,47.6051,161.837,101.566,102.564,0.0106871,0.131004,20.8358,-2.48227,-0.0886531,0.0,0.0
1118,279.25,43.9877,47.2999,170.855,101.454,102.509,0.0109232,0.130003,20.8373,-2.53232,-0.093772,0.0,0.0
1131,282.5,43.3098,46.86,168.847,101.262,102.011,0.0108585,0.130174,20.8361,-2.57235,-0.0668007,0.0,0.0
1144,285.75,43.5143,47.5361,167.176,101.025,102.057,0.0106861,0.129977,20.8359,-2.58236,-0.0920854,0.0,0.0
1157,289,43.6341,47.305,168.415,101.072,101.753,0.0105567,0.128974,20.8373,-2.6224,-0.0607836,0.0,0.0
1170,292.25,43.2349,46.9057,170.543,101.135,102.235,0.0102994,0.128973,20.8382,-2.67244,-0.0979644,0.0,0.0
1183,295.5,43.7309,47.2279,167.508,101.228,102.272,0.0101282,0.127919,20.8397,-2.70247,-0.0930227,0.0,0.0
1196,298.75,43.0268,46.741,165.793,101.347,102.737,0.010077,0.127966,20.8389,-2.72249,-0.123406,0.0,0.0
1209,302,43.1263,47.4202,164.49,101.442,102.36,0.0100951,0.128408,20.8386,-2.76253,-0.0816661,0.0,0.0
1222,305.25,42.9471,47.0419,165.4,101.529,102.514,0.0103908,0.128421,20.8385,-2.80256,-0.0874719,0.0,0.0
1235,308.5,42.9084,46.521,165.045,101.641,102.635,,0.128616,,-2.80256,-0.0881994,0.0,0.0
1248,311.75,42.6766,47.1461,168.992,101.713,103.002,,,,-2.86262,-0.114165,0.0,0.0
1261,315,43.0197,46.4433,168.444,101.73,103.094,,,,-2.86262,-0.120672,0.0,0.0
1268,316.75,42.5642,46.8247,165.403,101.751,102.669,,,,-2.85261,-0.0813909,0.0,0.0

File: Rubber_Band_Cone_HF100-FrameScalar_201103_R1.csv
LABORATORY,FSRI
TEST IDENT,HelmetStrap_HF100_1
OPERATOR,Dow
MATERIAL,Phoenix Arizona Helmet Strap
ORIENTATION,Horizontal
HEAT FLUX,100
SURF AREA,0.01
C FACTOR,0.0377677
SPEC HOLDER DIFF,338.67
SPECIMEN MASS,19.81
SCAN TIME,0.25
O2 DELAY TIME,11
CO DELAY TIME,11
CO2 DELAY TIME,8
FLOW FACTOR,1
SCAN COUNT,1099
TIME TO IGN,2.75
END OF TEST SCAN,619
END OF TEST TIME,154.75
TEST STATUS,1