Folder: fsri_materials_database/01_Data/Rubber_Band/MCC (part 2)

File: Rubber_Band_MCC_30K_min_220208_R3.txt
Sample ID:	C:\MCC\MCC Cal\Test\Rubber_Band_MCC_30K_min_220208_R3.txt
Sample Weight (mg):	4.35
Heating Rate (C/s):	0.5
Combustor Temp (C):	900
N2 Flow Rate (cc/min):	80
O2 Flow Rate (cc/min):	20
Calibration File:	C:\MCC\MCC Cal\Coeff1 JN10440_30_210304.txt.txt
T Correction Coefficients:	0	1.024463	0
Time Shift (s):	14
*
Time (s)	Temperature (C)	N2 flow rate (cc/min)	O2 flow rate (cc/min)	Flow Rate (cc/min)	Oxygen (%)	HRR (W/g)	Heating rate (C/s)
0.000	115.339	80.003	19.994	103.640	19.970	0.101	-0.008
8.000	115.369	80.004	19.992	103.643	19.970	0.122	0.025
16.000	115.357	80.005	19.992	103.653	19.960	0.828	-0.011
24.000	115.359	80.006	19.994	103.671	19.960	0.829	0.039
32.000	115.481	80.006	19.993	103.714	19.950	1.574	0.011
39.999	115.971	80.007	19.993	103.837	19.936	2.612	0.090
47.999	117.050	80.004	19.993	103.865	19.928	3.266	0.171
55.999	118.576	80.004	19.994	103.893	19.918	3.992	0.208
63.999	120.583	80.005	19.995	103.910	19.914	4.273	0.282
71.999	123.081	80.005	19.993	103.942	19.909	4.623	0.339
80.000	125.938	80.005	19.993	103.948	19.908	4.696	0.386
87.999	129.197	80.004	19.994	103.935	19.905	4.948	0.399
96.001	132.639	80.006	19.994	103.939	19.908	4.747	0.490
103.999	136.319	80.006	19.993	103.919	19.905	4.943	0.452
112.000	140.194	80.004	19.993	103.923	19.902	5.191	0.496
119.999	144.157	80.007	19.993	103.909	19.898	5.434	0.460
127.999	148.199	80.006	19.993	103.907	19.897	5.568	0.510
136.000	152.280	80.005	19.993	103.905	19.891	6.022	0.492
144.000	156.382	80.005	19.993	103.906	19.885	6.466	0.482
152.000	160.445	80.005	19.994	103.883	19.881	6.737	0.501
160.000	164.556	80.004	19.993	103.869	19.873	7.303	0.520
168.000	168.635	80.004	19.993	103.868	19.867	7.768	0.500
176.000	172.633	80.005	19.993	103.866	19.860	8.268	0.528
184.000	176.612	80.004	19.995	103.866	19.847	9.275	0.506
192.000	180.630	80.005	19.994	103.864	19.834	10.208	0.500
200.000	184.451	80.007	19.993	103.852	19.817	11.529	0.451
208.000	188.471	80.008	19.992	103.840	19.808	12.169	0.506
216.000	192.447	80.005	19.994	103.841	19.794	13.189	0.481
224.000	196.359	80.005	19.992	103.828	19.779	14.351	0.496
232.000	200.202	80.005	19.993	103.829	19.762	15.610	0.491
240.000	204.232	80.005	19.992	103.831	19.740	17.241	0.512
248.000	208.157	80.005	19.994	103.829	19.724	18.424	0.490
256.000	212.101	80.006	19.993	103.825	19.709	19.516	0.485
264.000	216.059	80.006	19.993	103.822	19.694	20.674	0.505
272.000	220.054	80.005	19.994	103.823	19.683	21.463	0.511
280.000	224.013	80.006	19.994	103.812	19.677	21.945	0.490
288.000	228.001	80.007	19.993	103.800	19.677	21.939	0.539
296.000	232.048	80.006	19.993	103.810	19.673	22.187	0.509
304.000	236.060	80.006	19.994	103.792	19.685	21.321	0.528
312.000	240.021	80.005	19.994	103.794	19.702	20.044	0.512
320.000	244.015	80.008	19.993	103.793	19.709	19.555	0.507
328.000	247.995	80.005	19.993	103.793	19.736	17.559	0.500
336.000	252.020	80.006	19.992	103.791	19.749	16.537	0.495
344.000	256.098	80.006	19.993	103.787	19.771	14.931	0.504
352.000	260.061	80.006	19.994	103.789	19.789	13.596	0.485
360.000	264.035	80.006	19.994	103.791	19.806	12.328	0.495
368.000	268.076	80.006	19.994	103.786	19.821	11.181	0.507
376.000	272.153	80.005	19.994	103.789	19.834	10.245	0.522
384.000	276.142	80.005	19.993	103.791	19.841	9.675	0.535
392.000	280.080	80.005	19.993	103.806	19.854	8.725	0.471
400.000	284.105	80.005	19.993	103.800	19.855	8.658	0.486
408.000	288.175	80.005	19.993	103.790	19.853	8.804	0.498
416.000	292.267	80.006	19.994	103.788	19.851	8.968	0.507
424.000	296.341	80.007	19.993	103.788	19.848	9.204	0.525
432.000	300.364	80.006	19.994	103.790	19.842	9.611	0.497
440.000	304.464	80.007	19.993	103.790	19.832	10.383	0.524
448.000	308.530	80.007	19.994	103.790	19.821	11.195	0.495
456.000	312.673	80.005	19.994	103.791	19.810	12.038	0.534
464.000	316.755	80.005	19.994	103.791	19.787	13.755	0.524
472.000	320.765	80.004	19.996	103.786	19.766	15.305	0.493
480.000	324.837	80.007	19.995	103.787	19.736	17.503	0.492
488.000	328.896	80.005	19.993	103.784	19.698	20.377	0.542
496.000	332.909	80.005	19.994	103.783	19.648	24.054	0.508
504.000	336.962	80.006	19.994	103.784	19.587	28.647	0.466
512.000	341.012	80.008	19.992	103.773	19.510	34.343	0.488
520.000	345.048	80.007	19.992	103.772	19.415	41.379	0.523
528.000	349.130	80.007	19.993	103.757	19.302	49.835	0.524
536.000	353.209	80.008	19.993	103.746	19.162	60.205	0.510
544.000	357.251	80.006	19.992	103.740	19.007	71.756	0.510
552.000	361.354	80.007	19.993	103.723	18.827	85.161	0.507
560.000	365.424	80.006	19.995	103.709	18.640	99.003	0.498
568.000	369.532	80.005	19.993	103.698	18.460	112.418	0.491
576.000	373.591	80.006	19.994	103.677	18.307	123.761	0.559
584.000	377.683	80.006	19.993	103.673	18.213	130.764	0.538
592.000	381.688	80.006	19.993	103.664	18.186	132.732	0.491
600.000	385.683	80.007	19.993	103.659	18.241	128.673	0.493
608.000	389.743	80.010	19.992	103.643	18.363	119.588	0.528
616.000	393.776	80.008	19.992	103.668	18.532	107.038	0.507
624.000	397.826	80.004	19.994	103.671	18.712	93.650	0.492
632.000	401.894	80.004	19.994	103.688	18.873	81.733	0.520
640.000	405.918	80.004	19.994	103.706	19.010	71.511	0.504
648.000	409.949	80.005	19.993	103.712	19.111	64.004	0.503
656.000	413.981	80.005	19.994	103.717	19.183	58.658	0.481
664.000	418.012	80.004	19.994	103.719	19.235	54.771	0.524
672.000	422.051	80.006	19.994	103.730	19.265	52.542	0.537
680.000	426.102	80.007	19.995	103.721	19.283	51.213	0.516
688.000	430.192	80.008	19.994	103.736	19.294	50.381	0.511
696.000	434.293	80.009	19.992	103.726	19.295	50.289	0.513
704.000	438.353	80.005	19.993	103.744	19.300	49.955	0.519
712.000	442.386	80.004	19.993	103.741	19.306	49.514	0.485
720.000	446.427	80.005	19.994	103.747	19.317	48.694	0.476
728.000	450.509	80.006	19.994	103.731	19.330	47.730	0.503
736.000	454.592	80.006	19.994	103.738	19.364	45.208	0.519
744.000	458.732	80.004	19.994	103.732	19.401	42.465	0.548
752.000	462.846	80.006	19.994	103.738	19.455	38.425	0.506
760.000	466.902	80.006	19.993	103.736	19.522	33.449	0.519
768.000	471.024	80.006	19.992	103.750	19.602	27.466	0.525
776.000	475.158	80.007	19.993	103.749	19.687	21.167	0.526
784.000	479.228	80.005	19.993	103.753	19.760	15.734	0.489
792.000	483.328	80.006	19.993	103.751	19.820	11.273	0.501
800.000	487.376	80.004	19.992	103.749	19.859	8.399	0.529
808.000	491.415	80.006	19.994	103.749	19.890	6.058	0.505
816.000	495.581	80.002	19.994	103.749	19.910	4.553	0.516
824.000	499.668	80.004	19.993	103.751	19.920	3.792	0.526
832.000	503.824	80.006	19.993	103.751	19.926	3.367	0.507
840.000	507.880	80.004	19.994	103.756	19.927	3.318	0.501
848.000	512.024	80.004	19.994	103.753	19.930	3.063	0.544
856.000	516.140	80.009	19.993	103.750	19.934	2.765	0.531
864.000	520.264	80.005	19.991	103.747	19.932	2.911	0.517
872.000	524.394	80.004	19.993	103.749	19.933	2.870	0.519
880.000	528.478	80.005	19.992	103.751	19.934	2.761	0.503
888.000	532.571	80.004	19.993	103.755	19.937	2.562	0.512
896.000	536.697	80.005	19.993	103.756	19.937	2.578	0.508
904.000	540.789	80.003	19.993	103.753	19.934	2.815	0.517
912.000	544.895	80.008	19.992	103.754	19.937	2.588	0.520
920.000	548.985	80.007	19.994	103.750	19.938	2.501	0.527
928.000	553.077	80.008	19.994	103.747	19.935	2.696	0.509
936.000	557.246	80.008	19.993	103.748	19.936	2.643	0.529
944.000	561.261	80.006	19.993	103.746	19.939	2.388	0.503
952.000	565.305	80.005	19.992	103.750	19.939	2.422	0.505
960.000	569.337	80.005	19.994	103.752	19.933	2.892	0.511
968.000	573.374	80.005	19.992	103.753	19.937	2.583	0.517
976.000	577.436	80.004	19.993	103.755	19.937	2.560	0.495
984.000	581.577	80.005	19.994	103.751	19.931	3.042	0.529
992.000	585.692	80.008	19.993	103.750	19.930	3.089	0.502
1000.000	589.729	80.005	19.994	103.748	19.933	2.834	0.501
1008.000	593.838	80.005	19.993	103.750	19.934	2.809	0.470
1016.000	597.931	80.007	19.993	103.748	19.930	3.046	0.492
1024.000	602.018	80.005	19.994	103.749	19.928	3.219	0.511
1031.999	606.037	80.005	19.995	103.751	19.929	3.186	0.509
1039.999	610.129	80.003	19.993	103.755	19.927	3.312	0.504
1047.999	614.202	80.006	19.993	103.748	19.927	3.275	0.517
1055.999	618.292	80.006	19.994	103.749	19.928	3.251	0.496
1063.999	622.358	80.003	19.993	103.748	19.928	3.237	0.548
1071.999	626.399	80.005	19.993	103.751	19.929	3.144	0.515
1080.001	630.544	80.006	19.993	103.756	19.929	3.146	0.518
1088.000	634.761	80.006	19.993	103.753	19.925	3.419	0.518
1096.001	638.950	80.007	19.993	103.753	19.922	3.665	0.530
1103.999	643.031	80.008	19.993	103.750	19.924	3.517	0.535
1111.999	647.239	80.003	19.993	103.756	19.924	3.494	0.522
1119.999	651.413	80.006	19.994	103.756	19.921	3.750	0.529
1127.999	655.545	80.011	19.993	103.753	19.926	3.402	0.504
1136.000	659.617	80.007	19.995	103.749	19.922	3.643	0.532
1144.000	663.682	80.004	19.993	103.786	19.919	3.880	0.458
1152.000	667.814	80.006	19.993	103.788	19.920	3.796	0.540
1160.001	671.815	80.006	19.994	103.779	19.921	3.751	0.497
1167.999	675.933	80.005	19.993	103.785	19.920	3.824	0.504
1176.000	680.014	80.009	19.994	103.785	19.920	3.792	0.502
1183.999	684.181	80.009	19.993	103.784	19.922	3.660	0.559
1192.000	688.284	80.008	19.994	103.787	19.918	3.964	0.548
1199.999	692.378	80.006	19.994	103.795	19.917	4.031	0.560
1207.999	696.371	80.005	19.994	103.801	19.918	3.995	0.484
1215.999	700.390	80.005	19.995	103.808	19.917	4.057	0.514
1223.999	704.397	80.005	19.993	103.829	19.914	4.302	0.483
1231.999	708.421	80.007	19.993	103.830	19.914	4.258	0.489
1239.999	712.474	80.009	19.993	103.826	19.911	4.495	0.510
1248.001	716.597	80.003	19.993	103.829	19.912	4.418	0.533
1255.999	720.615	80.007	19.993	103.829	19.905	4.925	0.500
1263.999	724.657	80.007	19.992	103.822	19.908	4.729	0.485
1271.999	728.703	80.004	19.993	103.809	19.913	4.343	0.500
1279.999	732.733	80.000	19.994	103.788	19.915	4.159	0.518
1287.999	736.837	80.003	19.993	103.756	19.918	3.944	0.484
1295.999	740.952	80.006	19.994	103.741	19.924	3.553	0.493
1300.999	743.557	80.006	19.994	103.742	19.925	3.456	0.524