Folder: fsri_materials_database/01_Data/Vinyl_Plan_Flooring/Cone

Note: 01_Data/README.md
# Materials and Products Database
## 01_Data

Raw data generated from each apparatus are included here in plain-text format. The data is organized first by material, next by the short name of test apparatus used, and where applicable additional filtering by test settings.

### material.json

Each material directory contains a json file of the same name as the material. This file links the data stored in the repository as well as data and graphs produced by the accompanying scripts (__02_Scripts__) to the respective landing page for the material on the front-end website.

File: Vinyl_Plan_Flooring_Cone_HF25Scalar_220311_R1.csv
LABORATORY,FSRI
TEST IDENT,VinylPF_HF25_1
OPERATOR,Dow
MATERIAL,Vinyl Plan Flooring
ORIENTATION,Horizontal
HEAT FLUX,25
SURF AREA,0.01
C FACTOR,0.0377281
SPEC HOLDER DIFF,-566
SPECIMEN MASS,16.7
SCAN TIME,0.25
O2 DELAY TIME,11
CO DELAY TIME,11
CO2 DELAY TIME,8
FLOW FACTOR,1
SCAN COUNT,1014
TIME TO IGN,26.75
END OF TEST SCAN,534
END OF TEST TIME,133.5
TEST STATUS,1
PRE TEST CMT,Dimensions: 101.17 x 102.37 x 2.32 mm

File: Vinyl_Plan_Flooring_Cone_HF25Scalar_220311_R2.csv
LABORATORY,FSRI
TEST IDENT,VinylPF_HF25_2
OPERATOR,Dow
MATERIAL,Vinyl Plan Flooring
ORIENTATION,Horizontal
HEAT FLUX,25
SURF AREA,0.01
C FACTOR,0.0377281
SPEC HOLDER DIFF,-566
SPECIMEN MASS,16.6
SCAN TIME,0.25
O2 DELAY TIME,11
CO DELAY TIME,11
CO2 DELAY TIME,8
FLOW FACTOR,1
SCAN COUNT,889
TIME TO IGN,24.75
END OF TEST SCAN,409
END OF TEST TIME,102.25
TEST STATUS,1
PRE TEST CMT,Dimensions: 101.51 x 101.20 x 2.35 mm

File: Vinyl_Plan_Flooring_Cone_HF25Scalar_220311_R3.csv
LABORATORY,FSRI
TEST IDENT,VinylPF_HF25_3
OPERATOR,Dow
MATERIAL,Vinyl Plan Flooring
ORIENTATION,Horizontal
HEAT FLUX,25
SURF AREA,0.01
C FACTOR,0.0377281
SPEC HOLDER DIFF,-566
SPECIMEN MASS,16.5
SCAN TIME,0.25
O2 DELAY TIME,11
CO DELAY TIME,11
CO2 DELAY TIME,8
FLOW FACTOR,1
SCAN COUNT,925
TIME TO IGN,24.5
END OF TEST SCAN,445
END OF TEST TIME,111.25
TEST STATUS,1
PRE TEST CMT,Dimensions: 100.77 x 102.05 x 2.32 mm

File: Vinyl_Plan_Flooring_Cone_HF25Scan_220311_R1.csv
Names,Time,Stack TC,Smoke TC,Exh Press,Smoke Comp,Smoke Meas,CO Meter,CO2 Meter,O2 Meter,Sample Mass,Ext Coeff,Start Test,Flame Verif
Chan Gain,,500,500,1,1,1,1,1,1,1,1,1.0,1.0
Offset,,0,0,0.136191,0,0,0,0,0,0,0,0.0,0.0
Gain,,1,1,25.011,13.291,13.2919,1,1,1,1.00093,1.00758,1.0,1.0
Units,sec,C,C,Pa,%,%,%,%,%,g,/m,,
Baseline,,18.0558,18.6609,176.195,99.6913,96.6602,0.000551276,0.0407727,21.0845,-1.05352,0.272938,,
11,2.5,16.7254,16.6889,175.111,99.6338,96.8632,0.000469516,0.0495109,21.0746,488.473,0.249253,0.0,0.0
22,5.25,16.3784,17.0888,176.3,99.8552,97.5832,0.000626963,0.0518354,21.0734,488.373,0.203423,0.0,0.0
33,8,16.6514,17.31,175.495,100.077,97.6838,0.000751616,0.0510945,21.074,488.343,0.213896,0.0,0.0
44,10.75,16.8948,17.2371,179.648,100.258,97.9248,0.000824632,0.0488861,21.0763,488.263,0.208156,0.0,0.0
55,13.5,16.3613,17.902,180.308,100.383,98.1008,0.000752684,0.0467032,21.0776,488.283,0.203251,0.0,0.0
66,16.25,17.1684,17.3037,177.548,100.498,97.9564,0.000598289,0.044648,21.0805,488.273,0.226372,0.0,0.0
77,19,16.5984,17.1824,176.15,100.551,97.3151,0.000512594,0.0431898,21.0827,488.293,0.289134,0.0,0.0
88,21.75,17.065,17.693,179.871,100.558,95.7668,0.000531832,0.0422056,21.0827,488.323,0.431457,0.0,0.0
99,24.5,16.6946,17.4794,171.194,100.506,92.5189,0.000887232,0.0429269,21.0774,488.303,0.731848,0.0,0.0
110,27.25,17.3638,17.5265,175.018,100.421,94.0753,0.00800752,0.0643062,21.037,488.183,0.576941,0.0,1.0
121,30,18.4544,18.8236,148.864,100.299,72.5822,0.0283992,0.169613,20.8452,487.392,2.85865,0.0,1.0
132,32.75,20.3927,20.658,153.319,100.165,50.2896,0.0467633,0.326025,20.615,486.521,6.08981,0.0,0.0
143,35.5,22.7568,23.4117,159.057,100.01,48.0822,0.0469781,0.38206,20.5403,485.961,6.4729,0.0,0.0
154,38.25,24.2974,25.1537,155.571,99.8788,48.0367,0.040539,0.366597,20.5496,485.57,6.46963,0.0,0.0
165,41,25.715,26.9275,158.529,99.7936,51.7102,0.0370556,0.367743,20.5433,485.14,5.8108,0.0,0.0
176,43.75,27.9329,28.8419,157.301,99.9319,56.5514,0.0358396,0.382155,20.52,484.719,5.03204,0.0,0.0
187,46.5,29.427,30.3122,155.742,100.156,57.9042,0.0352861,0.396172,20.5109,484.209,4.84288,0.0,0.0
198,49.25,31.0835,31.6719,149.066,100.293,58.8721,0.0343139,0.396627,20.5138,483.769,4.7085,0.0,0.0
209,52,32.1756,33.084,152.277,100.362,57.6775,0.0328939,0.38529,20.5351,483.268,4.89572,0.0,0.0
220,54.75,32.4795,33.8827,159.507,100.361,57.4045,0.0316751,0.37431,20.5536,482.838,4.93762,0.0,0.0
231,57.5,33.7765,35.5181,156.897,100.3,57.2098,0.0306372,0.36945,20.5652,482.447,4.96222,0.0,0.0
242,60.25,34.7168,36.4106,158.296,100.164,56.8184,0.0291717,0.366028,20.5753,482.047,5.01092,0.0,0.0
253,63,35.8439,37.8016,152.896,99.9854,58.2819,0.0271184,0.354742,20.5981,481.637,4.77038,0.0,0.0
264,65.75,36.0265,38.3266,168.128,99.7433,56.0825,0.0246161,0.341804,20.6218,481.256,5.08893,0.0,0.0
275,68.5,36.7488,38.9941,161.286,99.5522,53.8698,0.0229718,0.33496,20.6301,480.936,5.42778,0.0,0.0
286,71.25,36.7312,38.6784,156.519,99.6005,56.9567,0.0219665,0.334169,20.6303,480.586,4.93957,0.0,0.0
297,74,37.7607,39.6481,158.659,99.6196,56.689,0.020876,0.334186,20.6302,480.165,4.98291,0.0,0.0
308,76.75,36.7821,40.1326,162.94,99.6512,61.4779,0.0187445,0.328025,20.6432,479.965,4.26893,0.0,0.0
319,79.5,37.9352,40.1618,159.841,99.6954,65.2402,0.0159345,0.31309,20.6681,479.785,3.74787,0.0,0.0
330,82.25,37.9886,40.2687,160.096,99.7453,68.0841,0.0130771,0.296315,20.6992,479.615,3.37518,0.0,0.0
341,85,37.8031,40.2115,158.942,99.7696,75.9815,0.0105655,0.274807,20.7408,479.405,2.40736,0.0,0.0
352,87.75,37.2733,40.0642,170.739,99.8005,82.4372,0.0084435,0.247934,20.7872,479.304,1.68934,0.0,0.0
363,90.5,37.2011,39.7032,160.708,99.8212,82.5236,0.00670415,0.227002,20.8149,479.204,1.68192,0.0,0.0
374,93.25,36.57,39.5295,165.224,99.8427,83.3405,0.00571571,0.215637,20.8315,479.124,1.59675,0.0,0.0
385,96,36.7069,39.3651,166.841,99.8455,86.339,0.00496222,0.204592,20.8466,479.004,1.2846,0.0,0.0
396,98.75,35.9306,38.8917,165.47,99.8573,88.5055,0.0042676,0.19335,20.8667,478.964,1.06659,0.0,0.0
407,101.5,35.051,37.9134,164.663,99.8613,90.109,0.0039766,0.180436,20.8866,478.894,0.908258,0.0,0.0
418,104.25,35.2735,38.0543,172.945,99.8682,92.5943,0.00389674,0.168084,20.9014,478.844,0.668393,0.0,0.0
429,107,34.8737,37.9376,175.05,99.8731,93.4689,0.0039581,0.153508,20.9278,478.814,0.585738,0.0,0.0
440,109.75,34.1726,36.9249,170.531,99.893,94.446,0.00398934,0.135715,20.9543,478.764,0.495574,0.0,0.0
451,112.5,33.4418,36.4604,174.044,99.8848,95.5473,0.00388171,0.11945,20.9762,478.644,0.39239,0.0,0.0
462,115.25,32.7529,36.0933,166.653,99.8844,95.7461,0.00377436,0.105779,20.9959,478.704,0.373988,0.0,0.0
473,118,32.0297,34.7112,171.381,99.8844,94.9847,0.00359957,0.0936768,21.0126,478.694,0.444553,0.0,0.0
484,120.75,31.7519,34.039,169.436,99.8917,96.1254,0.00335808,0.0828806,21.0278,478.674,0.339693,0.0,0.0
495,123.5,30.8668,33.701,173.916,99.8958,96.6373,0.00319022,0.0751454,21.0374,478.644,0.293107,0.0,0.0
506,126.25,30.3286,32.6268,169.86,99.8942,96.1984,0.00314601,0.0703366,21.0414,478.644,0.333197,0.0,0.0
517,129,29.8434,32.1225,175.534,99.8897,96.7764,0.00317207,0.0668142,21.0473,478.604,0.279853,0.0,0.0
528,131.75,28.7779,31.7888,177.125,99.8966,97.1017,0.00310069,0.063852,21.0507,478.624,0.250802,0.0,0.0
539,134.5,28.3109,30.5444,176.891,99.9011,96.2381,0.0028794,0.0606295,21.0558,478.624,0.330155,0.0,0.0
550,137.25,27.7379,29.6585,170.942,99.8913,96.6178,0.00268638,0.0584043,21.0576,478.604,0.294493,0.0,0.0
561,140,26.8527,29.6755,169.218,99.8966,96.5651,0.00262971,0.0570003,21.0593,478.594,0.299785,0.0,0.0
572,142.75,26.6556,29.1106,170.528,99.8925,96.8182,0.00256515,0.0557965,21.0617,478.554,0.276289,0.0,0.0
583,145.5,25.8876,28.5442,161.612,99.9007,96.591,0.00251965,0.0547085,21.063,478.554,0.297768,0.0,0.0
594,148.25,25.6312,28.138,173.773,99.9108,97.1374,0.00233363,0.0537842,21.0653,478.574,0.248809,0.0,0.0
605,151,24.977,27.8888,175.88,99.9055,96.9302,0.00212,0.052841,21.0668,478.574,0.267223,0.0,0.0
616,153.75,25.1258,27.6458,177.104,99.8966,96.7509,0.00193679,0.0520742,21.0686,478.574,0.282798,0.0,0.0
627,156.5,24.677,27.0038,171.114,99.9047,96.7387,0.00164299,0.0513611,21.0687,478.594,0.284627,0.0,0.0
638,159.25,23.7932,26.6887,173.326,99.895,97.1484,0.00138906,0.0507453,21.0689,478.534,0.246414,0.0,0.0
649,162,24.5429,26.6335,175.588,99.8934,96.8527,0.00114098,0.0500002,21.0703,478.384,0.273214,0.0,0.0
660,164.75,23.8618,26.0155,174.036,99.8775,97.1967,0.00100876,0.049432,21.0712,478.524,0.24048,0.0,0.0
671,167.5,23.7414,25.3629,178.371,99.8629,96.1643,0.00121272,0.0489422,21.0726,478.554,0.333563,0.0,0.0
682,170.25,23.2614,25.359,171.893,99.8719,97.3853,0.00141132,0.048591,21.0731,478.594,0.222842,0.0,0.0
693,173,23.4038,24.6937,171.352,99.8836,96.6413,0.00128331,0.048359,21.0733,478.584,0.29166,0.0,0.0
704,175.75,22.8782,24.6792,175.44,99.8666,96.7999,0.00101359,0.0481279,21.0739,478.474,0.275658,0.0,0.0
715,178.5,22.8995,24.0661,179.082,99.869,97.5208,0.00100812,0.0478042,21.0752,478.514,0.210303,0.0,0.0
726,181.25,22.4511,24.0171,172.979,99.8443,96.7574,0.0012372,0.0475196,21.0756,478.594,0.277573,0.0,0.0
737,184,22.1002,24.0807,178.229,99.837,96.6397,0.00133125,0.0471077,21.076,478.534,0.287679,0.0,0.0
748,186.75,21.8505,24.1395,175.26,99.8224,96.3107,0.0012012,0.0468348,21.0775,478.534,0.316525,0.0,0.0
759,189.5,22.175,23.7249,170.359,99.8078,97.4652,0.00117549,0.0466269,21.0767,478.494,0.209919,0.0,0.0
770,192.25,22.0946,23.4965,175.324,99.7684,96.6929,0.0013191,0.0463231,21.0761,478.424,0.276751,0.0,0.0
781,195,21.1404,22.7453,171.972,99.7433,96.3756,0.00113182,0.046194,21.0759,478.454,0.303565,0.0,0.0
792,197.75,21.4449,23.1469,176.091,99.7275,96.7829,0.000972565,0.0460188,21.0767,478.524,0.264892,0.0,0.0
803,200.5,21.4573,23.2046,177.23,99.6873,96.6953,0.00108886,0.0458852,21.077,478.554,0.269339,0.0,0.0
814,203.25,21.2056,23.0743,167.681,99.6654,96.5983,0.0011781,0.0458737,21.0785,478.464,0.276262,0.0,0.0
825,206,21.3902,22.8958,170.19,99.6358,96.5014,0.0011043,0.045756,21.0792,478.504,0.282511,0.0,0.0
836,208.75,21.0146,22.8338,172.394,99.6127,96.7192,0.000969111,0.0456691,21.0794,478.504,0.260532,0.0,0.0
847,211.5,21.4668,22.2705,172.552,99.5973,96.7756,0.00100974,0.0454236,21.0794,478.514,0.254012,0.0,0.0
858,214.25,21.1144,21.6928,175.741,99.5786,96.6142,0.00105685,0.0454332,21.0804,478.464,0.267114,0.0,0.0
869,217,21.1713,22.1416,177.383,99.6772,97.0368,0.000902276,0.0455492,21.0814,478.524,0.237275,0.0,0.0
880,219.75,21.1465,21.7506,171.491,99.8094,96.6665,0.00101774,0.0455826,21.0817,478.444,0.28279,0.0,0.0
891,222.5,20.3018,22.1115,176.06,99.9546,97.0948,0.0012632,0.0454793,21.0818,478.494,0.25656,0.0,0.0
902,225.25,20.5336,22.2885,176.782,100.069,97.1516,0.00132107,0.045345,21.0818,478.434,0.261536,0.0,0.0
913,228,20.6669,21.7739,174.497,100.173,97.4465,0.00126527,0.0453942,21.0818,478.494,0.243914,0.0,0.0
924,230.75,20.01,20.7704,172.846,100.252,97.5869,0.00117157,0.0453788,21.0818,478.504,0.238098,0.0,0.0
935,233.5,20.4545,21.6541,174.438,100.319,97.118,0.00118353,0.045236,21.0818,478.454,0.286641,0.0,0.0
946,236.25,20.3786,21.9869,173.432,100.372,97.8587,0.00135517,0.0450929,21.0818,478.314,0.224132,0.0,0.0
957,239,20.4003,21.3804,173.017,100.397,97.7065,0.00138546,0.044875,21.0818,478.364,0.24006,0.0,0.0
968,241.75,19.8808,21.2779,177.598,100.408,97.3366,0.00123561,0.0450421,21.0813,478.424,0.274552,0.0,0.0
979,244.5,20.7106,20.7258,175.577,100.385,96.9979,,0.045337,,478.424,0.303397,0.0,0.0
990,247.25,20.3944,20.9035,175.178,100.378,96.4864,,,,478.504,0.349485,0.0,0.0
1001,250,20.072,20.7585,172.22,100.338,96.7294,,,,478.484,0.32372,0.0,0.0
1012,252.75,19.8992,20.6949,171.334,100.258,96.6113,,,,478.454,0.327506,0.0,0.0
1014,253.25,20.2009,21.1933,176.891,100.245,96.2783,,,,478.434,0.356846,0.0,0.0

File: Vinyl_Plan_Flooring_Cone_HF50Scalar_220311_R3.csv
LABORATORY,FSRI
TEST IDENT,VinylPF_HF50_3
OPERATOR,Dow
MATERIAL,Vinyl Plan Flooring
ORIENTATION,Horizontal
HEAT FLUX,50
SURF AREA,0.01
C FACTOR,0.0377281
SPEC HOLDER DIFF,-566
SPECIMEN MASS,16.2
SCAN TIME,0.25
O2 DELAY TIME,11
CO DELAY TIME,11
CO2 DELAY TIME,8
FLOW FACTOR,1
SCAN COUNT,756
TIME TO IGN,8.25
END OF TEST SCAN,276
END OF TEST TIME,69
TEST STATUS,1
PRE TEST CMT,Dimensions: 99.71 x 100.93 x 2.32 mm

File: Vinyl_Plan_Flooring_Cone_HF50Scan_220311_R1.csv
Names,Time,Stack TC,Smoke TC,Exh Press,Smoke Comp,Smoke Meas,CO Meter,CO2 Meter,O2 Meter,Sample Mass,Ext Coeff,Start Test,Flame Verif
Chan Gain,,500,500,1,1,1,1,1,1,1,1,1.0,1.0
Offset,,0,0,0.136191,0,0,0,0,0,0,0,0.0,0.0
Gain,,1,1,25.011,13.291,13.2919,1,1,1,1.00093,1.00758,1.0,1.0
Units,sec,C,C,Pa,%,%,%,%,%,g,/m,,
Baseline,,27.3259,28.4821,168.852,100.392,94.165,0.000550325,0.0417386,21.0837,-1.39609,0.566044,,
8,1.75,25.5992,27.0914,163.195,99.9011,93.7727,0.000570067,0.0417313,21.0852,487.432,0.559531,0.0,0.0
16,3.75,25.384,26.6257,170.653,99.6946,93.4887,0.000681446,0.0418374,21.0838,487.472,0.568051,0.0,0.0
24,5.75,25.4723,26.5541,164.883,99.6265,93.967,0.00127252,0.0418409,21.0806,487.442,0.516909,0.0,0.0
32,7.75,25.0721,26.3982,169.493,99.6549,92.1258,0.00661436,0.0454328,21.0681,487.392,0.694326,0.0,0.0
40,9.75,26.1784,27.056,156.64,99.6812,73.3387,0.0262469,0.122595,21.0039,486.942,2.7124,0.0,1.0
48,11.75,29.3455,29.6177,136.742,99.7133,42.787,0.0568174,0.326412,20.6196,485.951,7.47786,0.0,1.0
56,13.75,32.1229,32.4558,141.253,99.7709,33.9498,0.072431,0.479421,20.3725,485.27,9.52775,0.0,0.0
64,15.75,34.2549,35.3692,153.094,99.8272,24.4084,0.0707642,0.513754,20.2962,484.81,12.449,0.0,0.0
72,17.75,35.4969,36.704,146.931,99.8848,37.366,0.0631746,0.506721,20.2908,484.359,8.69041,0.0,0.0
80,19.75,37.6058,39.2473,142.728,99.9315,36.8716,0.0575442,0.506316,20.2895,483.949,8.81228,0.0,0.0
88,21.75,38.6543,40.3717,143.481,99.9741,39.9593,0.0551838,0.520544,20.2706,483.488,8.10526,0.0,0.0
96,23.75,41.2374,42.8189,134.511,100.039,41.0135,0.0550115,0.550461,20.232,482.968,7.88083,0.0,0.0
104,25.75,42.9419,44.6473,146.617,100.072,40.2392,0.0553441,0.581883,20.1881,482.477,8.0522,0.0,0.0
112,27.75,44.6106,46.6619,138.925,100.084,40.7032,0.0551843,0.604989,20.1655,481.927,7.95197,0.0,0.0
120,29.75,46.8288,49.1519,139.641,100.086,36.7069,0.0535666,0.614933,20.1583,481.396,8.8655,0.0,0.0
128,31.75,48.3522,51.4703,148.295,100.081,35.5107,0.0504279,0.61161,20.1698,480.936,9.15786,0.0,0.0
136,33.75,48.8445,51.6936,144.327,100.025,34.1441,0.0470789,0.599691,20.2005,480.506,9.49977,0.0,0.0
144,35.75,50.3225,53.0901,142.284,99.9599,36.367,0.0433104,0.593313,20.2231,480.105,8.93658,0.0,0.0
152,37.75,51.7516,54.6615,145.825,99.8674,38.944,0.0394864,0.591279,20.2397,479.735,8.3233,0.0,0.0
160,39.75,52.2244,55.3971,145.778,99.7575,42.6113,0.035289,0.580864,20.2736,479.355,7.51814,0.0,0.0
168,41.75,52.4397,55.8861,153.783,99.6386,49.1624,0.0311458,0.559806,20.3253,479.004,6.24364,0.0,0.0
176,43.75,52.9183,56.8537,154.661,99.5206,54.8198,0.0268352,0.532668,20.3744,478.734,5.27046,0.0,0.0
184,45.75,53.6928,57.6889,148.975,99.3786,57.9322,0.0226907,0.502613,20.4298,478.474,4.76976,0.0,0.0
192,47.75,53.4379,57.5095,153.931,99.2424,63.9357,0.0186971,0.462986,20.4994,478.314,3.88614,0.0,0.0
200,49.75,53.6022,57.5822,151.781,99.1296,67.1941,0.0152461,0.417121,20.5591,478.143,3.43674,0.0,0.0
208,51.75,53.5146,57.2461,156.318,99.0185,73.7233,0.0123566,0.373397,20.6215,478.043,2.60722,0.0,0.0
216,53.75,53.069,56.6571,156.877,98.9049,76.3262,0.00970683,0.326231,20.7023,477.953,2.2904,0.0,0.0
224,55.75,52.6493,56.9626,156.66,98.823,79.6228,0.00820178,0.283479,20.7476,477.883,1.90935,0.0,0.0
232,57.75,51.8928,56.3417,153.498,98.799,83.5413,0.00662602,0.251025,20.7874,477.813,1.48261,0.0,0.0
240,59.75,51.5815,55.5378,167.73,98.7731,86.2437,0.00551764,0.22184,20.8329,477.793,1.19892,0.0,0.0
248,61.75,50.4037,54.8518,162.868,98.7812,89.6283,0.00476048,0.194472,20.8803,477.753,0.859412,0.0,0.0
256,63.75,49.8873,54.0081,162.049,98.8083,91.4334,0.00434821,0.169611,20.9137,477.703,0.685609,0.0,0.0
264,65.75,49.2435,53.7184,163.562,98.8757,91.6528,0.004081,0.149879,20.9435,477.693,0.670441,0.0,0.0
272,67.75,48.6096,52.4916,169.247,98.9734,91.8163,0.00392209,0.132273,20.9686,477.643,0.663426,0.0,0.0
280,69.75,47.7595,51.7853,168.338,99.0988,91.9765,0.00380999,0.118421,20.9898,477.613,0.659202,0.0,0.0
288,71.75,46.1912,50.4368,165.872,99.231,92.9359,0.0036834,0.109253,21.0052,477.593,0.579277,0.0,0.0
296,73.75,46.2248,50.6964,163.088,99.3669,92.4649,0.00344815,0.100997,21.0187,477.573,0.636274,0.0,0.0
304,75.75,45.3474,49.3665,169.403,99.5433,93.4283,0.00326098,0.0950006,21.0272,477.553,0.560344,0.0,0.0
312,77.75,44.4186,48.4938,168.298,99.7064,93.2993,0.00316866,0.0900562,21.0341,477.513,0.587021,0.0,0.0
320,79.75,43.3908,46.9966,172.29,99.8893,93.3135,0.00309403,0.0860504,21.0372,477.523,0.601877,0.0,0.0
328,81.75,42.9814,47.1391,167.751,100.05,93.595,0.00302243,0.0829956,21.0389,477.523,0.589417,0.0,0.0
336,83.75,42.3269,46.6052,167.267,100.2,93.6769,0.002952,0.0805334,21.0415,477.533,0.594966,0.0,0.0
344,85.75,41.8159,45.4944,165.819,100.362,93.511,0.00285901,0.0787849,21.0426,477.503,0.624897,0.0,0.0
352,87.75,41.053,45.0998,167.522,100.494,93.8019,0.00265833,0.0775268,21.0446,477.493,0.609123,0.0,0.0
360,89.75,40.6075,44.2109,163.592,100.588,94.2878,0.00254549,0.0762967,21.0454,477.443,0.571654,0.0,0.0
368,91.75,40.2456,43.8782,166.077,100.686,95.0849,0.00259691,0.0755423,21.0457,477.433,0.505871,0.0,0.0
376,93.75,39.677,43.5458,166.885,100.744,93.9435,0.00272993,0.0753099,21.0463,477.403,0.617741,0.0,0.0
384,95.75,39.5566,43.0117,163.477,100.78,94.2327,0.00279729,0.0750229,21.047,477.413,0.593739,0.0,0.0
392,97.75,39.0276,42.5761,160.52,100.774,94.4769,0.00271714,0.0745727,21.0473,477.403,0.57026,0.0,0.0
400,99.75,38.4199,41.8767,165.15,100.766,94.0465,0.00251939,0.0740469,21.0474,477.413,0.609939,0.0,0.0
408,101.75,38.0552,41.4477,168.367,100.735,94.4846,0.00240175,0.0734309,21.0481,477.403,0.56616,0.0,0.0
416,103.75,37.4023,40.8051,166.96,100.68,94.3353,0.00244641,0.0727176,21.05,477.383,0.575293,0.0,0.0
424,105.75,38.0228,40.596,164.778,100.63,94.5012,0.00254382,0.071905,21.0509,477.363,0.555381,0.0,0.0
432,107.75,36.3609,39.5689,164.648,100.568,94.7507,0.00263059,0.0714924,21.0514,477.353,0.526663,0.0,0.0
440,109.75,37.0247,39.5957,167.289,100.475,93.9463,0.00265835,0.07148,21.0516,477.343,0.593778,0.0,0.0
448,111.75,35.9965,39.137,165.5,100.392,94.0871,0.00267244,0.0711697,21.0516,477.313,0.573264,0.0,0.0
456,113.75,36.3429,38.8946,166.921,100.31,93.1983,0.00268602,0.0706509,21.0517,477.313,0.649933,0.0,0.0
464,115.75,35.836,38.7836,167.265,100.228,94.1179,0.00268707,0.0704971,21.0517,477.303,0.555895,0.0,0.0
472,117.75,35.8194,38.962,167.201,100.157,93.8773,0.0026869,0.0705121,21.0517,477.293,0.572251,0.0,0.0
480,119.75,35.2755,38.5047,162.443,100.092,93.6307,0.00259033,0.0699602,21.053,477.283,0.589808,0.0,0.0
488,121.75,35.2983,38.4202,163.421,100.044,93.7074,0.0024971,0.0691802,21.0542,477.253,0.578346,0.0,0.0
496,123.75,34.8567,37.9559,164.348,99.9749,93.4851,0.00245805,0.0684158,21.0559,477.263,0.593208,0.0,0.0
504,125.75,34.6961,37.599,166.943,100.123,93.8741,0.00245937,0.0678735,21.0563,477.203,0.569585,0.0,0.0
512,127.75,34.1098,37.6839,161.956,100.269,93.6709,0.00242418,0.0673016,21.0568,477.203,0.60162,0.0,0.0
520,129.75,34.6006,37.4441,163.404,100.38,94.4197,0.00235473,0.0666642,21.0573,477.203,0.541003,0.0,0.0
528,131.75,34.4665,36.2328,167.855,100.472,95.0768,0.00235169,0.0661095,21.0575,477.172,0.487842,0.0,0.0
536,133.75,34.3355,36.5634,165.555,100.527,94.2611,0.00239936,0.0655524,21.0575,477.172,0.568781,0.0,0.0
544,135.75,33.7977,36.8701,166.819,100.54,94.5462,0.00238978,0.0651355,21.0571,477.142,0.543259,0.0,0.0
552,137.75,33.5591,36.535,172.163,100.522,94.3905,0.00229679,0.0648284,21.0576,477.142,0.556228,0.0,0.0
560,139.75,33.7877,36.3482,167.815,100.486,94.7393,0.0022525,0.0644078,21.0585,477.142,0.52052,0.0,0.0
568,141.75,33.9718,36.3631,164.973,100.392,94.1053,0.00229022,0.0639111,21.0589,477.122,0.571585,0.0,0.0
576,143.75,33.5372,35.9683,168.742,100.27,93.5832,0.00233743,0.0632996,21.0597,477.132,0.609999,0.0,0.0
584,145.75,33.5186,35.5001,170.15,100.13,93.971,0.00229236,0.0626923,21.0607,477.142,0.561071,0.0,0.0
592,147.75,33.485,35.6459,168.518,99.94,93.4948,0.0021405,0.0619804,21.0612,477.122,0.589203,0.0,0.0
600,149.75,33.1185,34.9961,164.958,99.7222,94.072,0.00196722,0.0612888,21.0622,477.102,0.515521,0.0,0.0
608,151.75,33.0745,35.4451,168.6,99.6877,93.7698,0.0018924,0.0608059,21.0641,477.102,0.540904,0.0,0.0
616,153.75,33.0521,35.4095,171.711,99.7287,93.4616,0.00183279,0.0601156,21.0658,477.112,0.57364,0.0,0.0
624,155.75,33.1542,35.1976,165.764,99.7534,93.8607,0.00173807,0.0595802,21.0665,477.082,0.538167,0.0,0.0
632,157.75,32.9143,34.9477,168.268,99.8118,93.3662,0.00172784,0.0590254,21.0668,477.092,0.590025,0.0,0.0
640,159.75,32.9225,35.1307,168.931,99.8601,93.8919,0.00174622,0.0584712,21.0669,477.082,0.544673,0.0,0.0
648,161.75,32.5802,34.3989,167.118,99.925,94.2891,0.00177731,0.0580129,21.067,477.092,0.513111,0.0,0.0
656,163.75,32.2397,34.6827,165.952,99.9773,94.0242,0.00176453,0.0575698,21.0678,477.102,0.542602,0.0,0.0
664,165.75,31.9272,34.7118,162.058,100.008,94.0684,0.00166057,0.0570665,21.0685,477.082,0.541172,0.0,0.0
672,167.75,32.3948,34.465,175.69,100.056,94.6517,0.00157398,0.0564579,21.0685,477.052,0.4908,0.0,0.0
680,169.75,31.4967,34.4066,174.332,100.086,94.2392,0.00151218,0.0560673,21.0685,477.042,0.532021,0.0,0.0
688,171.75,32.2191,33.6629,167.953,100.091,94.8533,0.0014546,0.0557322,21.0686,477.032,0.47504,0.0,0.0
696,173.75,31.9669,34.2564,166.808,100.072,94.6687,0.00136441,0.0553691,21.07,477.032,0.490607,0.0,0.0
704,175.75,31.1635,33.419,168.03,100.028,94.3609,0.0012299,0.0551857,21.071,477.012,0.515492,0.0,0.0
712,177.75,31.2444,33.8526,166.581,99.9603,94.7685,0.00114371,0.0547828,21.0718,477.022,0.471403,0.0,0.0
720,179.75,31.923,33.5991,164.903,99.8686,94.6432,0.00111169,0.05435,21.0723,477.012,0.474991,0.0,0.0
728,181.75,30.9523,32.7817,169.985,99.7871,94.2635,0.00112297,0.0539445,21.0724,477.022,0.503301,0.0,0.0
736,183.75,31.6568,33.1866,171.987,99.6837,93.9224,0.00116902,0.0535262,21.0725,477.022,0.526179,0.0,0.0
744,185.75,30.7791,32.6761,170.233,99.5725,93.666,0.00114502,0.0531896,21.0726,477.012,0.540476,0.0,0.0
752,187.75,31.7466,33.2553,164.555,99.4577,93.969,,0.0528158,,477.002,0.501736,0.0,0.0
760,189.75,31.95,33.6456,168.38,99.3162,93.595,,,,477.012,0.524395,0.0,0.0
768,191.75,31.2897,33.2229,165.245,99.1925,93.6717,,,,476.992,0.506142,0.0,0.0
776,193.75,31.7263,33.024,165.049,99.0687,93.7581,,,,477.002,0.486963,0.0,0.0
784,195.75,31.6869,32.8183,166.303,98.9609,93.6733,,,,476.992,0.485327,0.0,0.0
790,197.25,31.1578,32.8022,164.837,98.8887,92.9103,,,,476.992,0.551164,0.0,0.0

File: Vinyl_Plan_Flooring_Cone_HF75Scalar_220311_R1.csv
LABORATORY,FSRI
TEST IDENT,VinylPF_HF75_1
OPERATOR,Dow
MATERIAL,Vinyl Plan Flooring
ORIENTATION,Horizontal
HEAT FLUX,75
SURF AREA,0.01
C FACTOR,0.0377281
SPEC HOLDER DIFF,-566
SPECIMEN MASS,16.35
SCAN TIME,0.25
O2 DELAY TIME,11
CO DELAY TIME,11
CO2 DELAY TIME,8
FLOW FACTOR,1
SCAN COUNT,736
TIME TO IGN,4.5
END OF TEST SCAN,256
END OF TEST TIME,64
TEST STATUS,1
PRE TEST CMT,Dimensions: 101.46 x 101.53 x 2.29 mm

File: Vinyl_Plan_Flooring_Cone_HF75Scalar_220311_R3.csv
LABORATORY,FSRI
TEST IDENT,VinylPF_HF75_3
OPERATOR,Dow
MATERIAL,Vinyl Plan Flooring
ORIENTATION,Horizontal
HEAT FLUX,75
SURF AREA,0.01
C FACTOR,0.0377281
SPEC HOLDER DIFF,-566
SPECIMEN MASS,16.7
SCAN TIME,0.25
O2 DELAY TIME,11
CO DELAY TIME,11
CO2 DELAY TIME,8
FLOW FACTOR,1
SCAN COUNT,759
TIME TO IGN,4.75
END OF TEST SCAN,279
END OF TEST TIME,69.75
TEST STATUS,1
PRE TEST CMT,Dimensions: 101.84 x 101.00 x 2.30 mm