Folder: fsri_materials_database/01_Data/Vinyl_Plan_Flooring/Cone (part 2)

File: Vinyl_Plan_Flooring_Cone_HF75Scan_220311_R1.csv
Names,Time,Stack TC,Smoke TC,Exh Press,Smoke Comp,Smoke Meas,CO Meter,CO2 Meter,O2 Meter,Sample Mass,Ext Coeff,Start Test,Flame Verif
Chan Gain,,500,500,1,1,1,1,1,1,1,1,1.0,1.0
Offset,,0,0,0.136191,0,0,0,0,0,0,0,0.0,0.0
Gain,,1,1,25.011,13.291,13.2919,1,1,1,1.00093,1.00758,1.0,1.0
Units,sec,C,C,Pa,%,%,%,%,%,g,/m,,
Baseline,,40.0143,42.0272,161.099,99.9028,93.7389,0.000769124,0.0403635,21.0873,-3.49394,0.562992,,
8,1.75,36.4074,38.5962,163.876,100.045,93.5261,0.000807293,0.0419984,21.0881,485.43,0.5955,0.0,0.0
16,3.75,36.8256,38.4779,166.355,100.025,92.9468,0.00958361,0.0455953,21.0807,485.26,0.648656,0.0,0.0
24,5.75,37.2973,38.3405,140.434,100.009,61.9164,0.0325246,0.0984179,20.9295,484.729,4.23775,0.0,1.0
32,7.75,38.8631,41.3505,133.696,99.9822,33.0484,0.0582181,0.24791,20.5491,483.669,9.78427,0.0,1.0
40,9.75,42.4044,44.2472,134.982,99.985,14.9295,0.0715313,0.413582,20.291,483.008,16.8078,0.0,0.0
48,11.75,45.4114,47.5845,134.11,99.9416,26.7627,0.0735688,0.516601,20.1578,482.407,11.6453,0.0,0.0
56,13.75,47.6453,50.4091,128.065,99.9234,30.858,0.0709743,0.586222,20.081,481.857,10.3852,0.0,0.0
64,15.75,51.0256,53.4724,124.09,99.8986,37.5161,0.0690645,0.647351,20.0034,481.266,8.6562,0.0,0.0
72,17.75,53.5227,56.6185,132.222,99.8812,38.4791,0.0685958,0.702918,19.961,480.726,8.43065,0.0,0.0
80,19.75,56.6825,59.4634,136.71,99.8848,36.9393,0.0668707,0.738654,19.9446,480.085,8.79193,0.0,0.0
88,21.75,58.6078,62.2902,136.639,99.8873,31.9475,0.0624507,0.743731,19.9841,479.545,10.0753,0.0,0.0
96,23.75,60.0255,64.1568,133.421,99.8601,36.0611,0.0573902,0.725984,20.038,479.074,9.0024,0.0,0.0
104,25.75,61.1471,65.1992,136.385,99.8471,39.206,0.053296,0.710634,20.0728,478.604,8.26223,0.0,0.0
112,27.75,62.1545,66.5209,135.897,99.8325,43.4762,0.0507191,0.712468,20.0878,478.193,7.3472,0.0,0.0
120,29.75,63.4454,67.589,132.999,99.8228,48.543,0.0489413,0.720068,20.0943,477.733,6.37202,0.0,0.0
128,31.75,64.1767,69.0281,132.058,99.8252,55.1634,0.0474827,0.725494,20.1036,477.313,5.24225,0.0,0.0
136,33.75,65.6577,70.3949,143.607,99.8354,59.6209,0.0448039,0.721406,20.1265,476.932,4.55634,0.0,0.0
144,35.75,66.0236,71.3618,141.06,99.8187,60.4415,0.0406998,0.701559,20.1754,476.592,4.43405,0.0,0.0
152,37.75,66.8158,71.7341,144.411,99.811,58.6437,0.0352855,0.661289,20.2654,476.272,4.70025,0.0,0.0
160,39.75,66.8048,72.38,149.396,99.8045,60.2586,0.0290472,0.599194,20.352,476.091,4.45958,0.0,0.0
168,41.75,66.7022,72.1617,149.661,99.8204,62.7492,0.0225829,0.531505,20.4456,475.901,4.10302,0.0,0.0
176,43.75,66.3754,72.0726,154.533,99.8005,68.8065,0.0174546,0.457539,20.5544,475.811,3.28677,0.0,0.0
184,45.75,66.0628,71.7207,153.008,99.8139,79.1389,0.0129191,0.388293,20.6347,475.681,2.05141,0.0,0.0
192,47.75,65.5949,71.1344,150.02,99.8126,85.3131,0.00971554,0.328687,20.7121,475.651,1.38733,0.0,0.0
200,49.75,64.8666,70.4346,158.212,99.8155,87.8548,0.00751145,0.278303,20.7848,475.571,1.12811,0.0,0.0
208,51.75,64.2907,69.742,155.976,99.8212,89.9629,0.00607157,0.234687,20.8476,475.561,0.919039,0.0,0.0
216,53.75,63.633,68.994,156.791,99.837,91.7473,0.0053033,0.20149,20.8908,475.481,0.746847,0.0,0.0
224,55.75,62.316,67.8781,159.003,99.8593,93.0539,0.00503141,0.176212,20.9247,475.491,0.623843,0.0,0.0
232,57.75,61.5492,66.9533,160.11,99.8564,92.1501,0.00495113,0.156489,20.9538,475.461,0.709852,0.0,0.0
240,59.75,61.2354,66.6538,164.14,99.8637,93.2364,0.00485142,0.140744,20.9753,475.431,0.606918,0.0,0.0
248,61.75,59.6913,65.1203,157.642,99.8792,93.1269,0.00470464,0.129374,20.9905,475.401,0.61867,0.0,0.0
256,63.75,59.8363,64.2543,158.648,99.8917,92.8397,0.00456696,0.120875,21.0007,475.371,0.647081,0.0,0.0
264,65.75,57.6974,62.8498,156.983,99.8982,93.2543,0.00439957,0.114846,21.0097,475.321,0.608277,0.0,0.0
272,67.75,57.5821,62.3378,156.171,99.9169,94.2891,0.00409357,0.109206,21.0148,475.311,0.512394,0.0,0.0
280,69.75,56.9868,62.4486,157.703,99.925,92.7403,0.00384909,0.104978,21.0188,475.281,0.65949,0.0,0.0
288,71.75,56.4763,61.3589,157.791,99.9542,93.3135,0.00371481,0.101675,21.0249,475.251,0.607616,0.0,0.0
296,73.75,55.4827,60.4247,164.771,99.9785,93.8076,0.00362755,0.0989395,21.0294,475.251,0.563096,0.0,0.0
304,75.75,54.8831,59.8365,160.294,99.985,93.1192,0.00346275,0.0968234,21.0314,475.241,0.628764,0.0,0.0
312,77.75,54.7554,59.3755,156.553,99.998,93.6299,0.00335947,0.0951796,21.033,475.181,0.581572,0.0,0.0
320,79.75,53.8989,59.084,156.056,100.011,93.5171,0.00328446,0.0943157,21.0342,475.171,0.593406,0.0,0.0
328,81.75,53.1571,58.0454,162.943,100.024,93.275,0.00322475,0.0939161,21.0348,475.161,0.617434,0.0,0.0
336,83.75,53.0405,57.7452,158.114,100.035,93.5869,0.00321604,0.0937783,21.035,475.111,0.588894,0.0,0.0
344,85.75,52.6098,57.2373,167.976,100.041,93.6563,0.00326583,0.0940361,21.0341,475.081,0.582846,0.0,0.0
352,87.75,52.195,56.9929,162.416,100.041,94.1949,0.00326848,0.0941799,21.0334,475.081,0.532156,0.0,0.0
360,89.75,52.245,56.5527,159.823,100.037,93.885,0.00315143,0.094199,21.0335,475.071,0.560924,0.0,0.0
368,91.75,51.0302,56.002,160.086,100.044,93.5155,0.00302756,0.09382,21.0345,475.041,0.596463,0.0,0.0
376,93.75,50.8238,55.369,156.339,100.043,93.1784,0.00294919,0.0931991,21.0346,475.03,0.628271,0.0,0.0
384,95.75,50.2739,54.7483,160.516,100.041,93.8558,0.00292848,0.0924417,21.0346,475.01,0.564104,0.0,0.0
392,97.75,50.2539,54.6283,159.891,100.03,93.879,0.00291262,0.0918417,21.0345,474.99,0.560888,0.0,0.0
400,99.75,49.8465,53.8297,163.624,100.025,94.1227,0.00295198,0.0912058,21.0355,474.98,0.537572,0.0,0.0
408,101.75,49.6336,53.9682,162.73,100.001,93.5593,0.0030019,0.0906441,21.0362,474.95,0.588489,0.0,0.0
416,103.75,48.4588,52.5368,158.99,100.007,93.5467,0.00296086,0.0901394,21.0366,474.93,0.590213,0.0,0.0
424,105.75,48.5565,52.9352,156.716,99.972,94.3365,0.00283622,0.0898074,21.0367,474.88,0.512824,0.0,0.0
432,107.75,49.1512,52.6567,160.801,99.9497,93.7289,0.00262022,0.0893408,21.0368,474.87,0.567966,0.0,0.0
440,109.75,48.4681,52.3957,160.513,99.9441,93.0709,0.00238328,0.0887459,21.0368,474.85,0.629726,0.0,0.0
448,111.75,48.106,51.7615,162.356,99.9112,93.7905,0.00216655,0.087932,21.0382,474.81,0.558746,0.0,0.0
456,113.75,48.1236,51.7525,159.961,99.8921,93.1829,0.00201714,0.0875279,21.0387,474.81,0.614507,0.0,0.0
464,115.75,47.7567,51.6211,162.439,99.8808,94.083,0.00190862,0.087047,21.039,474.78,0.528536,0.0,0.0
472,117.75,47.2372,51.0793,160.139,99.8593,93.376,0.00176693,0.0863665,21.039,474.78,0.593305,0.0,0.0
480,119.75,47.6896,51.3313,161.525,99.8268,93.2247,0.00171054,0.0858639,21.0397,474.8,0.604765,0.0,0.0
488,121.75,47.0415,50.5531,159.204,99.8057,92.7971,0.00170704,0.0853749,21.04,474.74,0.643525,0.0,0.0
496,123.75,46.508,50.25,159.577,99.7765,93.6567,0.00170689,0.0848029,21.0401,474.7,0.559449,0.0,0.0
504,125.75,46.8168,50.4872,160.211,99.7465,93.1216,0.00167908,0.0843342,21.0415,474.65,0.607425,0.0,0.0
512,127.75,46.2077,50.3716,153.681,99.7226,93.0405,0.00166088,0.0839473,21.0421,474.67,0.613009,0.0,0.0
520,129.75,46.3507,49.7695,162.042,99.693,92.8624,0.00168238,0.0832981,21.0436,474.65,0.627317,0.0,0.0
528,131.75,46.3,49.8077,162.87,99.6699,94.1012,0.00168618,0.0824326,21.0448,474.62,0.508139,0.0,0.0
536,133.75,45.5237,49.5949,160.859,99.639,92.6012,0.0016616,0.0815227,21.0453,474.61,0.64743,0.0,0.0
544,135.75,45.7269,49.4221,156.165,99.5863,93.2344,0.00164937,0.081011,21.0455,474.58,0.582522,0.0,0.0
552,137.75,45.9612,49.2288,155.711,99.5307,92.6714,0.00162007,0.0806553,21.0467,474.58,0.631123,0.0,0.0
560,139.75,45.949,49.0481,161.366,99.4825,93.3354,0.00156407,0.0800868,21.049,474.54,0.563731,0.0,0.0
568,141.75,45.8278,49.1592,160.518,99.4306,93.4445,0.00158014,0.0792713,21.0504,474.55,0.548791,0.0,0.0
576,143.75,45.5364,48.5638,158.607,99.3892,92.8843,0.00155887,0.078245,21.051,474.55,0.598256,0.0,0.0
584,145.75,45.3582,48.5295,159.155,99.3332,93.0312,0.00144822,0.0771717,21.0521,474.52,0.579315,0.0,0.0
592,147.75,45.1511,47.8598,157.745,99.291,93.7504,0.00133254,0.0763115,21.0537,474.53,0.507498,0.0,0.0
600,149.75,45.1828,47.9847,164.746,99.2659,92.9452,0.00127395,0.0757058,21.0551,474.52,0.581496,0.0,0.0
608,151.75,45.1633,48.2345,162.142,99.2192,92.5391,0.00129184,0.0752139,21.0557,474.51,0.616039,0.0,0.0
616,153.75,45.1928,47.7786,163.302,99.1815,92.688,0.00130345,0.0742874,21.056,474.48,0.59847,0.0,0.0
624,155.75,44.8112,47.8817,154.55,99.1564,93.2502,0.0013297,0.073483,21.0574,474.44,0.54278,0.0,0.0
632,157.75,45.0497,47.9792,157.212,99.0947,92.5829,0.00132114,0.0725795,21.058,474.42,0.600757,0.0,0.0
640,159.75,45.2661,47.8681,158.049,99.0639,93.4279,0.00130599,0.0718909,21.0583,474.41,0.51771,0.0,0.0
648,161.75,44.9846,47.7322,162.919,99.0168,93.7674,0.00129111,0.0709851,21.0584,474.4,0.481451,0.0,0.0
656,163.75,44.9013,47.504,158.973,98.9714,93.0389,0.00119791,0.070255,21.0575,474.39,0.546333,0.0,0.0
664,165.75,44.1244,47.0501,159.062,98.93,93.2356,0.00109037,0.0696412,21.0579,474.38,0.523967,0.0,0.0
672,167.75,45.0747,47.3989,158.379,98.9106,92.1931,0.00107301,0.0687079,21.0592,474.37,0.621609,0.0,0.0
680,169.75,44.2938,47.2707,157.012,98.8668,92.6199,0.0010954,0.0677584,21.0599,474.34,0.576879,0.0,0.0
688,171.75,43.6883,46.4003,161.799,98.8367,92.215,0.0011277,0.0669897,21.0603,474.35,0.61291,0.0,0.0
696,173.75,44.6679,47.6396,162.804,98.8039,92.7261,,0.0661283,,474.35,0.56112,0.0,0.0
704,175.75,44.0198,46.3832,157.415,98.7864,93.2912,,0.0651009,,474.36,0.505863,0.0,0.0
712,177.75,44.2973,46.7338,161.528,98.7654,92.4596,,,,474.36,0.583112,0.0,0.0
720,179.75,43.7461,46.8664,162.413,98.7471,92.2897,,,,474.34,0.59774,0.0,0.0
728,181.75,43.88,46.7631,156.989,98.728,92.2978,,,,474.34,0.595257,0.0,0.0
736,183.75,44.2679,46.8097,158.612,98.724,92.1002,,,,474.32,0.61383,0.0,0.0