Folder: fsri_materials_database/01_Data/Vinyl_Plan_Flooring/HFM

Note: 01_Data/README.md
# Materials and Products Database
## 01_Data

Raw data generated from each apparatus are included here in plain-text format. The data is organized first by material, next by the short name of test apparatus used, and where applicable additional filtering by test settings.

### material.json

Each material directory contains a json file of the same name as the material. This file links the data stored in the repository as well as data and graphs produced by the accompanying scripts (__02_Scripts__) to the respective landing page for the material on the front-end website.

File: Vinyl_Plan_Flooring_Density_Wet_R1.csv
,Vinyl_Plan_Flooring_WET_1
Sample Mass [g],67.0
Sample Volume [cm3],103.8
Sample Density [kg/m3],645

File: Vinyl_Plan_Flooring_Density_Wet_R2.csv
,Vinyl_Plan_Flooring_WET_2
Sample Mass [g],67.6
Sample Volume [cm3],100.1
Sample Density [kg/m3],676

File: Vinyl_Plan_Flooring_Density_Wet_R3.csv
,Vinyl_Plan_Flooring_WET_3
Sample Mass [g],67.4
Sample Volume [cm3],100.6
Sample Density [kg/m3],670