Folder: fsri_materials_database/01_Data/Vinyl_Plan_Flooring/MCC

Note: 01_Data/README.md
# Materials and Products Database
## 01_Data

Raw data generated from each apparatus are included here in plain-text format. The data is organized first by material, next by the short name of test apparatus used, and where applicable additional filtering by test settings.

### material.json

Each material directory contains a json file of the same name as the material. This file links the data stored in the repository as well as data and graphs produced by the accompanying scripts (__02_Scripts__) to the respective landing page for the material on the front-end website.

File: Vinyl_Plan_Flooring_MCC_30K_min_211111_R1.txt
Sample ID:	C:\MCC\MCC Cal\Test\Vinyl_Plan_Flooring_MCC_30K_min_211111_R1.txt
Sample Weight (mg):	4.7
Heating Rate (C/s):	0.5
Combustor Temp (C):	900
N2 Flow Rate (cc/min):	80
O2 Flow Rate (cc/min):	20
Calibration File:	C:\MCC\MCC Cal\Coeff1 JN10440_30_210304.txt.txt
T Correction Coefficients:	0	1.024463	0
Time Shift (s):	14
*
Time (s)	Temperature (C)	N2 flow rate (cc/min)	O2 flow rate (cc/min)	Flow Rate (cc/min)	Oxygen (%)	HRR (W/g)	Heating rate (C/s)
0.000	106.867	80.003	19.994	103.010	20.025	-0.119	-0.003
8.000	106.838	80.002	19.995	103.012	20.023	-0.043	-0.012
16.001	106.812	80.001	19.996	103.025	20.025	-0.166	0.027
24.000	106.870	80.002	19.995	103.064	20.015	0.529	0.007
32.001	107.251	80.001	19.996	103.141	20.005	1.243	0.075
40.001	107.889	80.000	19.996	103.152	20.001	1.471	0.137
48.000	108.892	80.001	19.996	103.174	19.997	1.801	0.161
56.001	110.154	80.003	19.995	103.193	19.988	2.387	0.192
64.000	111.730	80.000	19.995	103.231	19.983	2.760	0.217
72.001	113.650	80.002	19.994	103.238	19.984	2.660	0.252
80.001	115.890	80.003	19.994	103.257	19.981	2.893	0.285
88.000	118.430	80.001	19.994	103.264	19.979	2.977	0.342
96.001	121.137	80.001	19.995	103.263	19.980	2.914	0.344
104.001	124.141	80.001	19.993	103.266	19.979	3.026	0.375
112.000	127.231	79.999	19.994	103.271	19.980	2.944	0.391
120.000	130.522	80.001	19.995	103.280	19.979	3.026	0.414
128.000	133.935	80.001	19.994	103.280	19.976	3.210	0.451
136.000	137.439	80.001	19.994	103.278	19.972	3.473	0.426
144.000	141.064	80.000	19.995	103.266	19.972	3.505	0.468
152.000	144.833	80.003	19.995	103.268	19.973	3.445	0.475
160.000	148.588	80.004	19.995	103.266	19.971	3.544	0.462
168.000	152.432	80.000	19.995	103.265	19.965	3.938	0.519
176.000	156.240	80.000	19.993	103.269	19.962	4.163	0.496
184.000	160.070	80.000	19.994	103.270	19.958	4.429	0.502
192.000	163.983	80.001	19.994	103.259	19.953	4.786	0.511
200.000	167.901	80.000	19.996	103.265	19.946	5.250	0.486
208.000	171.877	80.000	19.995	103.260	19.938	5.788	0.513
216.000	175.837	80.002	19.996	103.264	19.929	6.441	0.496
224.000	179.832	80.002	19.993	103.235	19.915	7.408	0.500
232.000	183.796	80.000	19.996	103.240	19.902	8.300	0.500
240.000	187.866	80.002	19.994	103.235	19.891	9.053	0.510
248.000	191.828	80.000	19.994	103.236	19.880	9.791	0.466
256.000	195.884	80.001	19.994	103.242	19.864	10.887	0.480
264.000	199.915	80.001	19.994	103.232	19.848	11.958	0.483
272.000	203.954	80.000	19.995	103.231	19.826	13.459	0.543
280.000	207.945	80.001	19.996	103.228	19.808	14.726	0.501
288.000	211.893	80.000	19.994	103.224	19.784	16.387	0.491
296.000	215.905	80.001	19.996	103.226	19.758	18.134	0.489
304.000	219.806	80.000	19.995	103.226	19.734	19.785	0.487
312.000	223.758	80.001	19.996	103.222	19.705	21.804	0.490
320.000	227.707	80.002	19.995	103.228	19.670	24.181	0.490
328.000	231.689	80.001	19.996	103.227	19.644	25.961	0.492
336.000	235.641	80.001	19.994	103.213	19.615	27.970	0.539
344.000	239.613	80.000	19.996	103.231	19.587	29.877	0.471
352.000	243.624	80.000	19.995	103.226	19.550	32.402	0.481
360.000	247.657	80.000	19.995	103.226	19.515	34.784	0.488
368.000	251.751	80.000	19.994	103.219	19.477	37.400	0.526
376.000	255.700	80.002	19.996	103.230	19.438	40.115	0.496
384.000	259.690	80.001	19.993	103.238	19.390	43.402	0.511
392.000	263.591	80.001	19.995	103.262	19.352	45.964	0.465
400.000	267.620	80.001	19.995	103.266	19.304	49.305	0.488
408.000	271.674	80.002	19.995	103.275	19.259	52.354	0.530
416.000	275.634	79.999	19.995	103.302	19.232	54.249	0.505
424.000	279.663	80.000	19.995	103.308	19.233	54.161	0.500
432.000	283.689	80.001	19.995	103.306	19.272	51.490	0.513
440.000	287.733	80.001	19.993	103.284	19.357	45.624	0.481
448.000	291.756	79.999	19.993	103.260	19.487	36.736	0.516
456.000	295.794	80.001	19.995	103.217	19.646	25.786	0.478
464.000	299.811	80.003	19.995	103.177	19.775	16.939	0.509
472.000	303.850	80.001	19.994	103.151	19.863	10.959	0.512
480.000	307.939	80.001	19.995	103.145	19.903	8.182	0.517
488.000	312.025	80.002	19.994	103.129	19.929	6.437	0.526
496.000	316.079	80.001	19.995	103.122	19.943	5.469	0.504
504.000	320.092	80.001	19.996	103.125	19.953	4.771	0.493
512.000	324.129	80.001	19.995	103.120	19.960	4.306	0.530
520.000	328.153	80.000	19.994	103.144	19.967	3.804	0.494
528.000	332.241	80.000	19.994	103.133	19.966	3.877	0.491
536.000	336.248	80.001	19.995	103.148	19.975	3.292	0.487
544.000	340.302	80.004	19.994	103.146	19.977	3.147	0.523
552.000	344.383	80.002	19.994	103.148	19.977	3.165	0.511
560.000	348.440	80.003	19.994	103.149	19.982	2.787	0.520
568.000	352.474	80.003	19.993	103.149	19.982	2.806	0.537
576.000	356.552	80.001	19.996	103.150	19.985	2.560	0.485
584.000	360.566	80.000	19.995	103.151	19.984	2.689	0.501
592.000	364.525	80.001	19.995	103.158	19.982	2.780	0.503
600.000	368.495	80.001	19.995	103.149	19.984	2.636	0.495
608.000	372.470	80.001	19.995	103.163	19.984	2.681	0.502
616.000	376.489	79.999	19.995	103.142	19.982	2.806	0.473
624.000	380.533	80.003	19.994	103.149	19.980	2.905	0.506
632.000	384.546	80.002	19.995	103.148	19.976	3.193	0.491
640.000	388.667	80.001	19.993	103.150	19.979	3.030	0.521
648.000	392.759	80.003	19.995	103.151	19.973	3.432	0.520
656.000	396.848	80.000	19.994	103.133	19.966	3.900	0.496
664.000	400.962	80.000	19.995	103.147	19.960	4.322	0.521
672.000	405.026	80.001	19.996	103.145	19.953	4.754	0.476
680.000	409.067	79.998	19.995	103.147	19.946	5.271	0.495
688.000	413.087	80.000	19.995	103.146	19.936	5.930	0.503
696.000	417.032	80.000	19.996	103.149	19.930	6.362	0.485
704.000	420.920	80.002	19.997	103.151	19.912	7.611	0.476
712.000	424.943	80.001	19.995	103.151	19.892	8.930	0.519
720.000	428.876	80.002	19.994	103.148	19.870	10.487	0.498
728.000	432.953	80.004	19.994	103.138	19.839	12.614	0.489
736.000	437.098	80.004	19.994	103.143	19.804	14.968	0.540
744.000	441.199	80.001	19.994	103.146	19.761	17.949	0.526
752.000	445.335	80.002	19.995	103.145	19.708	21.533	0.491
760.000	449.488	80.000	19.995	103.135	19.651	25.428	0.534
768.000	453.625	80.001	19.995	103.150	19.597	29.182	0.514
776.000	457.776	79.999	19.995	103.137	19.549	32.422	0.537
784.000	461.969	80.002	19.995	103.140	19.525	34.086	0.526
792.000	466.033	80.001	19.995	103.145	19.521	34.385	0.515
800.000	470.130	80.002	19.996	103.139	19.534	33.484	0.534
808.000	474.241	80.003	19.996	103.148	19.561	31.593	0.533
816.000	478.297	80.003	19.995	103.141	19.590	29.636	0.520
824.000	482.379	80.000	19.995	103.125	19.628	27.025	0.510
832.000	486.468	80.001	19.996	103.125	19.672	24.041	0.503
840.000	490.523	80.001	19.994	103.129	19.711	21.355	0.510
848.000	494.578	80.000	19.995	103.133	19.750	18.681	0.519
856.000	498.722	80.000	19.995	103.119	19.788	16.096	0.520
864.000	502.728	80.001	19.995	103.138	19.821	13.808	0.495
872.000	506.774	80.003	19.995	103.112	19.853	11.618	0.540
880.000	510.850	80.002	19.997	103.117	19.883	9.591	0.499
888.000	514.913	80.001	19.997	103.127	19.900	8.421	0.526
896.000	518.902	80.003	19.994	103.121	19.919	7.122	0.448
904.000	522.916	80.001	19.994	103.111	19.928	6.514	0.486
912.000	526.992	80.001	19.995	103.122	19.937	5.905	0.528
920.000	530.986	80.003	19.996	103.119	19.944	5.388	0.522
928.000	534.998	80.001	19.994	103.119	19.950	4.975	0.484
936.000	539.132	80.003	19.995	103.119	19.954	4.736	0.512
944.000	543.326	80.002	19.995	103.111	19.956	4.551	0.533
952.000	547.655	80.002	19.995	103.135	19.961	4.244	0.569
960.000	551.950	80.001	19.995	103.150	19.962	4.138	0.524
968.000	556.279	80.002	19.994	103.152	19.964	4.013	0.555
976.000	560.537	80.004	19.995	103.140	19.963	4.086	0.519
984.000	564.791	80.001	19.995	103.150	19.966	3.861	0.541
992.000	569.031	80.001	19.994	103.147	19.966	3.911	0.516
1000.000	573.335	80.000	19.994	103.156	19.971	3.573	0.568
1008.000	577.610	80.001	19.994	103.141	19.970	3.583	0.525
1016.000	581.865	80.001	19.995	103.152	19.972	3.469	0.538
1024.000	585.992	80.002	19.996	103.145	19.976	3.210	0.515
1032.001	590.022	80.002	19.995	103.146	19.978	3.044	0.504
1040.001	594.131	80.001	19.995	103.141	19.982	2.780	0.508
1048.001	598.187	80.001	19.995	103.123	19.984	2.658	0.517
1056.000	602.220	80.003	19.994	103.133	19.986	2.520	0.479
1064.000	606.283	80.001	19.994	103.135	19.983	2.718	0.535
1072.001	610.292	80.001	19.997	103.120	19.982	2.811	0.505
1080.000	614.369	80.001	19.996	103.119	19.979	2.964	0.537
1088.000	618.398	80.001	19.994	103.119	19.981	2.851	0.494
1096.000	622.446	80.001	19.995	103.127	19.976	3.229	0.468
1104.000	626.476	80.001	19.995	103.151	19.977	3.158	0.472
1112.001	630.541	80.002	19.994	103.151	19.979	2.992	0.522
1120.000	634.667	80.003	19.995	103.151	19.977	3.115	0.501
1128.000	638.818	80.003	19.994	103.151	19.974	3.358	0.518
1136.000	642.920	80.005	19.995	103.158	19.975	3.284	0.529
1144.000	646.980	80.004	19.995	103.176	19.971	3.560	0.488
1152.000	651.090	80.002	19.995	103.189	19.968	3.781	0.507
1160.000	655.259	80.000	19.995	103.189	19.964	4.041	0.523
1168.000	659.331	80.001	19.996	103.208	19.959	4.388	0.499
1176.001	663.394	80.001	19.994	103.230	19.963	4.084	0.509
1184.000	667.430	80.001	19.996	103.254	19.957	4.486	0.519
1192.000	671.552	80.004	19.995	103.256	19.958	4.468	0.564
1200.001	675.577	80.002	19.995	103.264	19.952	4.865	0.513
1208.000	679.539	80.003	19.994	103.289	19.946	5.256	0.461
1216.001	683.527	80.004	19.993	103.301	19.943	5.477	0.483
1224.000	687.548	80.003	19.994	103.299	19.951	4.891	0.521
1232.000	691.627	80.001	19.996	103.297	19.946	5.233	0.515
1240.000	695.712	80.003	19.994	103.274	19.948	5.106	0.537
1248.001	699.712	80.001	19.995	103.262	19.951	4.906	0.538
1256.000	703.761	80.001	19.996	103.223	19.955	4.676	0.482
1264.000	707.856	80.002	19.996	103.198	19.959	4.350	0.506
1272.000	711.969	80.004	19.995	103.156	19.966	3.891	0.494
1280.000	716.042	80.003	19.995	103.125	19.970	3.630	0.492
1288.000	720.117	80.003	19.994	103.117	19.973	3.412	0.504
1296.001	724.122	80.003	19.994	103.113	19.973	3.420	0.505
1304.001	728.155	80.003	19.994	103.118	19.974	3.365	0.512
1312.001	732.159	80.003	19.994	103.112	19.968	3.771	0.483
1320.000	736.122	80.003	19.995	103.108	19.976	3.220	0.502
1328.000	740.117	80.002	19.996	103.110	19.969	3.704	0.481
1335.000	743.661	80.003	19.994	103.108	19.973	3.440	0.501

File: Vinyl_Plan_Flooring_MCC_30K_min_211111_R3.txt
Sample ID:	C:\MCC\MCC Cal\Test\Vinyl_Plan_Flooring_MCC_30K_min_211111_R3.txt
Sample Weight (mg):	4.68
Heating Rate (C/s):	0.5
Combustor Temp (C):	900
N2 Flow Rate (cc/min):	80
O2 Flow Rate (cc/min):	20
Calibration File:	C:\MCC\MCC Cal\Coeff1 JN10440_30_210304.txt.txt
T Correction Coefficients:	0	1.024463	0
Time Shift (s):	14
*
Time (s)	Temperature (C)	N2 flow rate (cc/min)	O2 flow rate (cc/min)	Flow Rate (cc/min)	Oxygen (%)	HRR (W/g)	Heating rate (C/s)
-0.001	106.980	80.002	19.998	103.010	20.092	-0.084	0.019
8.000	106.959	80.001	19.996	103.003	20.091	0.009	0.004
16.000	107.027	80.001	19.995	103.027	20.087	0.249	0.045
24.000	107.121	80.003	19.994	103.065	20.083	0.574	0.021
32.000	107.359	80.001	19.994	103.088	20.079	0.826	0.043
40.000	107.874	80.001	19.996	103.190	20.057	2.378	0.129
48.000	108.797	80.001	19.994	103.228	20.047	3.003	0.146
55.999	110.181	80.004	19.996	103.248	20.046	3.083	0.189
63.999	112.026	80.003	19.995	103.260	20.041	3.445	0.266
71.999	114.224	80.003	19.995	103.260	20.041	3.427	0.271
79.999	116.731	80.004	19.995	103.264	20.037	3.743	0.310
87.999	119.557	80.001	19.996	103.286	20.039	3.599	0.359
96.000	122.611	80.002	19.996	103.274	20.037	3.757	0.413
103.999	125.897	80.002	19.996	103.236	20.037	3.747	0.426
111.999	129.328	80.001	19.994	103.270	20.034	3.914	0.441
119.999	132.853	80.001	19.994	103.297	20.034	3.904	0.473
127.999	136.448	80.002	19.995	103.273	20.031	4.168	0.444
136.000	140.145	80.002	19.995	103.278	20.026	4.509	0.473
144.000	143.927	80.002	19.994	103.269	20.026	4.478	0.485
152.000	147.771	80.002	19.996	103.263	20.024	4.645	0.501
160.000	151.611	80.003	19.994	103.265	20.023	4.690	0.481
168.000	155.424	80.001	19.996	103.264	20.019	4.934	0.462
176.000	159.265	79.998	19.996	103.264	20.012	5.443	0.517
184.000	163.170	80.000	19.997	103.258	20.003	6.091	0.474
192.000	167.096	80.001	19.997	103.260	20.000	6.280	0.496
200.000	171.064	80.000	19.995	103.251	19.991	6.862	0.494
208.000	175.031	80.001	19.995	103.252	19.988	7.127	0.521
216.000	179.025	80.001	19.995	103.229	19.974	8.044	0.501
224.000	182.986	80.002	19.995	103.232	19.964	8.749	0.479
232.000	186.948	80.002	19.994	103.230	19.951	9.670	0.515
240.000	190.877	80.003	19.993	103.234	19.935	10.717	0.513
248.000	194.791	80.002	19.996	103.230	19.920	11.764	0.472
256.000	198.738	80.001	19.995	103.226	19.905	12.788	0.521
264.000	202.676	80.001	19.995	103.226	19.887	14.079	0.515
272.000	206.666	80.002	19.995	103.225	19.858	16.069	0.520
280.000	210.657	80.001	19.996	103.225	19.837	17.494	0.500
288.000	214.605	79.999	19.997	103.228	19.812	19.209	0.492
296.000	218.570	80.004	19.995	103.226	19.784	21.122	0.466
304.000	222.530	80.000	19.996	103.226	19.757	22.994	0.494
312.000	226.529	80.003	19.996	103.225	19.729	24.933	0.520
320.000	230.530	80.004	19.994	103.221	19.700	26.917	0.510
328.000	234.511	80.004	19.995	103.220	19.670	28.952	0.478
336.000	238.516	80.003	19.995	103.223	19.638	31.154	0.521
344.000	242.372	80.002	19.994	103.221	19.604	33.522	0.466
352.000	246.385	80.003	19.996	103.226	19.574	35.600	0.517
360.000	250.376	80.003	19.994	103.236	19.536	38.171	0.496
368.000	254.323	80.002	19.995	103.232	19.494	41.123	0.499
376.000	258.352	80.001	19.996	103.225	19.447	44.327	0.506
384.000	262.274	80.002	19.996	103.242	19.404	47.309	0.494
392.000	266.295	80.001	19.994	103.261	19.351	50.975	0.552
400.000	270.251	80.003	19.995	103.267	19.308	53.892	0.498
408.000	274.291	80.004	19.995	103.287	19.275	56.224	0.523
416.000	278.274	80.003	19.995	103.298	19.270	56.523	0.538
424.000	282.220	80.002	19.994	103.283	19.302	54.349	0.525
432.000	286.219	80.001	19.994	103.282	19.384	48.690	0.489
440.000	290.207	80.001	19.994	103.266	19.516	39.569	0.463
448.000	294.223	80.002	19.995	103.228	19.673	28.778	0.464
456.000	298.289	80.002	19.995	103.220	19.811	19.246	0.496
464.000	302.309	80.004	19.996	103.186	19.900	13.139	0.494
472.000	306.323	80.002	19.996	103.160	19.950	9.737	0.477
480.000	310.399	80.002	19.995	103.142	19.975	7.963	0.492
488.000	314.503	80.003	19.996	103.143	19.990	6.986	0.541
496.000	318.526	80.003	19.994	103.150	20.000	6.289	0.516
504.000	322.573	80.002	19.994	103.151	20.005	5.918	0.513
512.000	326.562	80.003	19.995	103.146	20.013	5.346	0.488
520.000	330.519	80.003	19.995	103.149	20.016	5.136	0.491
528.000	334.550	80.001	19.995	103.147	20.021	4.811	0.517
536.000	338.484	80.002	19.995	103.156	20.024	4.627	0.503
544.000	342.471	80.003	19.995	103.149	20.026	4.457	0.479
552.000	346.386	80.001	19.995	103.152	20.027	4.423	0.504
560.000	350.396	80.001	19.995	103.151	20.031	4.120	0.531
568.000	354.448	80.003	19.995	103.150	20.026	4.467	0.458
576.000	358.544	80.003	19.993	103.152	20.032	4.087	0.485
584.000	362.660	80.001	19.995	103.159	20.033	3.999	0.515
592.000	366.770	80.000	19.996	103.160	20.036	3.781	0.519
600.000	370.951	80.000	19.995	103.152	20.034	3.903	0.569
608.000	375.070	80.002	19.996	103.147	20.028	4.364	0.491
616.000	379.199	80.003	19.995	103.155	20.026	4.504	0.509
624.000	383.263	80.003	19.994	103.153	20.022	4.726	0.493
632.000	387.258	80.002	19.996	103.151	20.025	4.550	0.490
640.000	391.310	80.002	19.995	103.147	20.019	4.992	0.520
648.000	395.386	80.004	19.996	103.147	20.017	5.078	0.491
656.000	399.317	80.003	19.996	103.144	20.011	5.478	0.502
664.000	403.242	80.003	19.997	103.148	20.007	5.785	0.507
672.000	407.261	80.002	19.995	103.152	20.000	6.250	0.504
680.000	411.356	80.002	19.994	103.146	19.987	7.156	0.519
688.000	415.379	80.003	19.995	103.149	19.976	7.922	0.496
696.000	419.450	80.001	19.994	103.119	19.964	8.713	0.496
704.000	423.530	80.002	19.995	103.168	19.946	9.988	0.502
712.000	427.537	80.004	19.995	103.147	19.926	11.342	0.475
720.000	431.507	80.003	19.997	103.147	19.897	13.354	0.506
728.000	435.530	80.004	19.996	103.150	19.862	15.758	0.501
736.000	439.578	80.004	19.995	103.148	19.819	18.679	0.492
744.000	443.636	80.000	19.996	103.150	19.773	21.889	0.494
752.000	447.608	80.001	19.996	103.149	19.714	25.955	0.506
760.000	451.755	80.002	19.996	103.157	19.655	30.012	0.527
768.000	455.877	80.001	19.995	103.149	19.603	33.536	0.525
776.000	460.087	80.001	19.996	103.153	19.569	35.925	0.544
784.000	464.260	80.001	19.995	103.148	19.550	37.238	0.538
792.000	468.436	80.003	19.995	103.145	19.558	36.657	0.510
800.000	472.461	80.000	19.995	103.149	19.581	35.053	0.502
808.000	476.494	80.001	19.994	103.151	19.621	32.327	0.502
816.000	480.417	80.004	19.995	103.144	19.654	30.089	0.481
824.000	484.423	80.002	19.994	103.150	19.691	27.503	0.517
832.000	488.408	80.000	19.996	103.147	19.735	24.473	0.497
840.000	492.490	80.000	19.996	103.148	19.777	21.581	0.538
848.000	496.631	80.000	19.995	103.143	19.809	19.406	0.516
856.000	500.895	80.001	19.996	103.146	19.847	16.820	0.537
864.000	505.234	80.000	19.995	103.142	19.881	14.450	0.547
872.000	509.613	80.003	19.995	103.151	19.909	12.526	0.534
880.000	513.989	80.001	19.994	103.145	19.932	10.913	0.560
888.000	518.418	80.001	19.995	103.150	19.956	9.303	0.543
896.000	522.833	80.004	19.993	103.141	19.971	8.288	0.575
904.000	527.186	80.002	19.996	103.135	19.981	7.585	0.546
912.000	531.480	80.000	19.995	103.143	19.989	7.001	0.539
920.000	535.701	80.002	19.995	103.118	19.994	6.710	0.546
928.000	539.865	80.002	19.996	103.148	19.998	6.410	0.537
936.000	543.974	80.001	19.996	103.137	20.003	6.064	0.506
944.000	548.082	80.001	19.996	103.118	20.008	5.732	0.541
952.000	552.110	80.002	19.995	103.131	20.009	5.662	0.507
960.000	556.181	80.002	19.995	103.137	20.013	5.398	0.473
968.000	560.278	80.003	19.994	103.142	20.015	5.231	0.512
976.000	564.282	80.004	19.995	103.142	20.016	5.164	0.490
984.000	568.327	80.005	19.995	103.143	20.019	4.926	0.527
992.000	572.367	80.001	19.994	103.151	20.020	4.903	0.496
1000.000	576.477	80.003	19.994	103.162	20.025	4.526	0.480
1008.000	580.515	80.002	19.995	103.150	20.027	4.410	0.520
1016.000	584.531	80.001	19.996	103.147	20.030	4.232	0.506
1024.000	588.509	80.001	19.995	103.150	20.027	4.433	0.483
1031.999	592.426	80.002	19.996	103.138	20.026	4.490	0.497
1039.999	596.326	80.004	19.996	103.144	20.031	4.134	0.461
1047.999	600.262	80.003	19.996	103.127	20.026	4.495	0.463
1055.999	604.234	80.004	19.995	103.138	20.028	4.366	0.460
1063.999	608.271	80.004	19.994	103.117	20.027	4.402	0.569
1072.000	612.272	80.001	19.995	103.138	20.029	4.247	0.499
1079.999	616.381	80.002	19.994	103.152	20.028	4.310	0.535
1087.999	620.438	80.001	19.995	103.132	20.028	4.320	0.524
1095.999	624.485	80.001	19.997	103.147	20.026	4.489	0.508
1103.999	628.599	80.002	19.996	103.147	20.026	4.474	0.510
1111.999	632.692	80.004	19.995	103.145	20.025	4.562	0.517
1119.999	636.806	80.002	19.995	103.147	20.026	4.467	0.526
1127.999	640.848	80.001	19.995	103.154	20.023	4.674	0.519
1135.999	644.905	80.004	19.996	103.173	20.022	4.781	0.505
1143.999	649.018	80.002	19.994	103.186	20.019	4.944	0.538
1151.999	653.111	80.001	19.995	103.178	20.023	4.712	0.524
1159.999	657.197	80.002	19.995	103.198	20.019	4.978	0.516
1168.000	661.286	80.002	19.994	103.193	20.016	5.177	0.547
1175.999	665.287	80.002	19.994	103.221	20.013	5.395	0.492
1183.999	669.244	80.001	19.996	103.227	20.010	5.591	0.497
1191.999	673.255	80.002	19.996	103.234	20.005	5.918	0.506
1199.999	677.230	80.003	19.995	103.266	20.003	6.073	0.481
1207.999	681.244	80.002	19.994	103.282	20.004	5.979	0.498
1216.000	685.236	80.002	19.996	103.273	20.001	6.187	0.502
1223.999	689.293	80.005	19.995	103.265	19.998	6.425	0.488
1232.001	693.382	80.001	19.995	103.264	20.001	6.236	0.509
1239.999	697.408	80.002	19.994	103.241	20.004	6.011	0.505
1247.999	701.518	80.003	19.995	103.224	20.010	5.578	0.545
1255.999	705.583	80.003	19.995	103.191	20.014	5.318	0.515
1263.999	709.727	80.001	19.994	103.163	20.020	4.891	0.503
1272.000	713.853	80.003	19.995	103.134	20.022	4.743	0.531
1279.999	717.937	80.003	19.996	103.116	20.022	4.730	0.465
1287.999	722.004	80.003	19.995	103.107	20.022	4.751	0.469
1295.999	726.063	80.003	19.995	103.102	20.025	4.569	0.508
1303.999	730.170	80.004	19.995	103.107	20.024	4.585	0.507
1311.999	734.185	80.001	19.996	103.097	20.023	4.695	0.455
1320.000	738.145	80.001	19.994	103.111	20.023	4.682	0.496
1327.999	742.215	80.000	19.994	103.112	20.025	4.573	0.491
1330.499	743.507	80.001	19.995	103.112	20.022	4.747	0.519