Folder: fsri_materials_database/01_Data/PET/Cone (part 2)

File: PET_Cone_HF25Scan_220204_R3.csv
Names,Time,Stack TC,Smoke TC,Exh Press,Smoke Comp,Smoke Meas,CO Meter,CO2 Meter,O2 Meter,Sample Mass,Ext Coeff,Start Test,Flame Verif
Chan Gain,,500,500,1,1,1,1,1,1,1,1,1.0,1.0
Offset,,0,0,0.134889,0,0,0,0,0,0,0,0.0,0.0
Gain,,1,1,25.011,12.9892,12.3331,1,1,1,1.00088,1.02973,1.0,1.0
Units,sec,C,C,Pa,%,%,%,%,%,g,/m,,
Baseline,,21.1442,21.6846,142.33,98.1438,97.3325,0.000419363,0.0719827,20.9612,-866.794,0.0749989,,
54,13.25,19.2552,19.3857,143.325,97.9561,97.3146,0.000539409,0.0757202,20.9614,95.5339,0.0593455,0.0,0.0
108,26.75,20.254,20.1129,143.562,98.6985,97.8532,0.000223306,0.0703394,20.9694,95.5339,0.0776974,0.0,0.0
162,40.25,19.643,20.6305,141.878,99.089,98.688,-2.87821e-05,0.0682926,20.9751,95.5339,0.0366268,0.0,0.0
216,53.75,20.2251,20.0188,143.474,98.8864,98.5638,0.000131124,0.0677751,20.9717,95.5439,0.0295181,0.0,0.0
270,67.25,19.4852,20.3543,146.089,98.3854,97.9605,-8.71e-05,0.0677045,20.9716,95.5339,0.0390952,0.0,0.0
324,80.75,20.1849,19.9043,143.506,98.8381,98.8205,0.000169831,0.0675838,20.9715,95.4938,0.00160642,0.0,0.0
378,94.25,19.8372,20.8745,141.209,98.4143,97.781,0.000215087,0.068312,20.9707,95.5038,0.0583206,0.0,0.0
432,107.75,19.8687,21.1606,144.406,98.1238,98.0222,-7.4945e-06,0.0687002,20.9698,95.4838,0.0093535,0.0,0.0
486,121.25,20.1212,21.0416,143.086,98.4191,98.1743,3.01555e-05,0.0690694,20.967,95.4838,0.0224972,0.0,0.0
540,134.75,20.0333,20.9521,140.746,98.3521,98.3764,0.000126991,0.0690485,20.9666,95.4438,-0.00222976,0.0,0.0
594,148.25,20.3959,20.9053,142.698,97.8304,97.7331,-7.35578e-05,0.0686675,20.9672,95.4638,0.00898669,0.0,0.0
648,161.75,19.5092,20.906,143.101,97.2224,96.9725,0.000346152,0.0691383,20.9654,95.4438,0.0232437,0.0,0.0
702,175.25,19.3655,21.2609,145.644,97.2981,97.4027,0.000185796,0.0691138,20.9672,95.4538,-0.00970813,0.0,0.0
756,188.75,19.6373,21.1946,141.696,98.0381,98.213,0.000187839,0.068726,20.9703,95.4438,-0.0160983,0.0,0.0
810,202.25,19.639,20.9871,142.667,98.8151,98.7016,0.000529386,0.0684145,20.9688,95.4238,0.0103829,0.0,0.0
864,215.75,19.8618,20.7974,142.274,99.1286,98.8288,-1.6107e-05,0.0690626,20.9678,95.4138,0.0273648,0.0,0.0
918,229.25,20.4983,21.2213,144.319,98.8107,98.4765,0.000202631,0.0697938,20.9667,95.3937,0.0306052,0.0,0.0
972,242.75,19.7569,20.8968,140.543,98.3624,97.6899,5.67384e-05,0.069444,20.9668,95.3637,0.0619713,0.0,0.0
1026,256.25,20.2279,21.46,143.488,98.8611,98.1581,7.003e-05,0.0698456,20.9663,95.3537,0.0644595,0.0,0.0
1080,269.75,20.3433,21.1164,138.72,98.6886,97.9153,0.00048481,0.0702321,20.9619,95.3137,0.0710589,0.0,0.0
1134,283.25,20.596,21.4675,141.255,98.0615,96.8317,0.000644652,0.0695685,20.9674,95.2636,0.113996,0.0,0.0
1188,296.75,20.2973,21.5963,143.86,98.2641,97.0128,0.000339905,0.0697705,20.968,95.2336,0.115764,0.0,0.0
1242,310.25,19.7882,21.8434,142.832,98.4508,96.8125,0.000352874,0.0705029,20.9665,95.1936,0.151573,0.0,0.0
1296,323.75,20.4321,21.687,145.692,98.2542,96.6883,0.000816225,0.070706,20.9654,95.1335,0.145112,0.0,0.0
1350,337.25,20.1778,21.7933,139.613,97.7377,95.715,0.000930031,0.0706649,20.9676,95.1035,0.188891,0.0,0.0
1404,350.75,19.8877,21.0078,143.034,97.2477,95.304,0.000949556,0.0711657,20.9665,95.0535,0.182367,0.0,0.0
1458,364.25,20.5564,21.9746,141.257,97.174,94.6781,0.00108365,0.0745226,20.9625,94.9934,0.235035,0.0,0.0
1512,377.75,20.553,21.9895,144.859,97.7638,95.8215,0.00131911,0.0838171,20.9485,94.8433,0.181261,0.0,0.0
1566,391.25,25.0436,27.3106,125.298,98.6078,79.2362,0.00891801,0.305401,20.569,93.9425,1.97561,0.0,0.0
1620,404.75,37.4265,43.6096,123.664,99.0775,69.9502,0.0177969,0.671029,20.1253,91.7005,3.14446,0.0,0.0
1674,418.25,51.5093,62.5462,108.519,99.0125,57.6134,0.0324952,1.07787,19.6009,88.4276,4.89115,0.0,0.0
1728,431.75,65.3049,80.9523,109.036,98.5721,61.1438,0.0367912,1.31251,19.4865,84.4842,4.31367,0.0,0.0
1782,445.25,69.7312,86.8085,114.014,98.6565,64.9726,0.032557,1.19717,19.6752,81.1112,3.77277,0.0,0.0
1836,458.75,70.7591,87.2315,122.53,98.8734,64.2801,0.0258461,1.05079,19.8548,78.2987,3.8894,0.0,0.0
1890,472.25,70.5999,86.2917,113.994,98.1281,64.9237,0.0229003,0.942486,19.9839,75.6164,3.73107,0.0,0.0
1944,485.75,69.5846,84.3882,119.527,98.2788,66.7107,0.0225798,0.891524,20.0198,73.0842,3.49966,0.0,0.0
1998,499.25,69.2007,83.0907,119.224,98.4361,66.4206,0.020867,0.867979,20.0561,70.622,3.55349,0.0,0.0
2052,512.75,67.3099,80.0563,125.48,98.3394,69.7364,0.0169165,0.761136,20.1999,68.4601,3.10457,0.0,0.0
2106,526.25,64.4537,75.0858,122.588,97.8673,74.2567,0.0148367,0.661874,20.306,66.6585,2.49379,0.0,0.0
2160,539.75,63.1067,72.6174,124.664,97.3226,74.1065,0.0132922,0.613067,20.3495,64.927,2.46167,0.0,0.0
2214,553.25,61.0652,69.798,125.158,97.0955,77.0569,0.012987,0.581393,20.3795,63.3056,2.08792,0.0,0.0
2268,566.75,60.2108,68.0703,125.06,97.3972,70.5614,0.013537,0.587927,20.3591,61.6241,2.91137,0.0,0.0
2322,580.25,60.4932,67.8464,125.526,98.0972,71.9623,0.014187,0.612843,20.327,59.8325,2.79849,0.0,0.0
2376,593.75,60.409,67.6461,123.323,98.7663,72.9127,0.0132734,0.609551,20.3435,58.071,2.74138,0.0,0.0
2430,607.25,60.0754,67.1698,124.043,99.0775,76.7758,0.0122706,0.573974,20.3884,56.4796,2.30346,0.0,0.0
2484,620.75,59.5007,66.0741,126.13,99.072,77.9452,0.0120017,0.546805,20.413,54.9482,2.16641,0.0,0.0
2538,634.25,59.493,66.0752,122.129,98.8646,69.0909,0.0146964,0.595452,20.3221,53.2267,3.23668,0.0,0.0
2592,647.75,63.6239,70.9925,117.753,98.5876,63.4197,0.0204186,0.778915,20.0863,50.7345,3.98497,0.0,0.0
2646,661.25,66.5681,75.5938,116.866,98.3545,72.4004,0.0207357,0.816758,20.087,48.4325,2.76732,0.0,0.0
2700,674.75,66.9913,75.5021,122.485,98.7473,72.041,0.0156272,0.711548,20.2507,46.4208,2.84828,0.0,0.0
2754,688.25,64.1249,71.7378,125.066,98.9094,78.6821,0.0117011,0.586853,20.4046,44.8494,2.06659,0.0,0.0
2808,701.75,60.9478,67.5021,124.615,98.8456,80.4616,0.00902611,0.492697,20.5129,43.4782,1.85874,0.0,0.0
2862,715.25,57.4617,63.0612,126.391,98.6763,80.584,0.00847193,0.435335,20.5627,42.3672,1.82954,0.0,0.0
2916,728.75,55.7112,60.3532,126.025,98.4524,82.3164,0.00812903,0.421784,20.5718,41.2462,1.61688,0.0,0.0
2970,742.25,53.583,57.4403,131.573,98.3378,82.9292,0.00742786,0.400736,20.5921,40.1352,1.53938,0.0,0.0
3024,755.75,52.4124,56.1549,129.522,98.3152,85.085,0.00696134,0.380565,20.6139,39.1444,1.30548,0.0,0.0
3078,769.25,51.2934,54.3532,131.681,98.4361,82.9352,0.00677649,0.371879,20.6257,38.2136,1.54774,0.0,0.0
3132,782.75,50.0353,52.9496,129.197,98.7041,84.5946,0.00651128,0.354034,20.6487,37.2927,1.39335,0.0,0.0
3186,796.25,49.3159,51.5823,128.536,98.9019,86.4257,0.00629172,0.326308,20.6855,36.3919,1.218,0.0,0.0
3240,809.75,47.6789,49.8871,131.631,98.6878,87.6658,0.00601112,0.305499,20.7055,35.6213,1.06974,0.0,0.0
3294,823.25,46.8217,49.1731,132.904,98.6109,88.2601,0.00541267,0.292317,20.7192,34.9006,1.00167,0.0,0.0
3348,836.75,45.2643,47.4742,132.408,99.0973,90.2275,0.00574054,0.277971,20.7345,34.2401,0.846986,0.0,0.0
3402,850.25,44.9581,46.5336,129.549,98.3798,90.2884,0.00523663,0.26327,20.7528,33.6095,0.775248,0.0,0.0
3456,863.75,43.7007,45.4836,136.215,97.1292,90.0005,0.00455308,0.256778,20.7594,32.979,0.688536,0.0,0.0
3510,877.25,43.0356,44.597,129.903,97.6501,91.4089,0.00411062,0.252109,20.7645,32.4185,0.596589,0.0,0.0
3564,890.75,42.4734,44.0934,132.394,98.406,92.3446,0.00415766,0.246,20.7719,31.848,0.574255,0.0,0.0
3618,904.25,41.4642,42.8448,131.912,98.3263,92.0194,0.0042211,0.244849,20.7722,31.2675,0.598803,0.0,0.0
3672,917.75,40.817,42.1257,132.64,98.3343,93.5309,0.0041913,0.241108,20.7787,30.747,0.452363,0.0,0.0
3726,931.25,40.4286,41.6172,132.664,99.0791,93.5377,0.0038388,0.232546,20.7896,30.2365,0.519869,0.0,0.0
3780,944.75,39.9614,41.6592,130.113,97.415,92.0627,0.00414602,0.234793,20.7869,29.6861,0.510446,0.0,0.0
3834,958.25,39.308,40.6108,132,97.8106,93.6954,0.00453711,0.223299,20.7983,29.1956,0.388263,0.0,0.0
3888,971.75,38.8824,40.2391,135.982,98.1725,95.3812,0.00404215,0.217198,20.8065,28.7252,0.26055,0.0,0.0
3942,985.25,38.731,39.9347,136.455,98.5788,94.4203,0.00406144,0.21473,20.8084,28.2548,0.389316,0.0,0.0
3996,998.75,37.8659,39.3192,136.059,99.0359,95.8422,0.00474744,0.207969,20.8165,27.8444,0.296081,0.0,0.0
4050,1012.25,37.1526,38.4918,132.858,97.1233,92.6547,0.00539294,0.199666,20.8249,27.4141,0.425451,0.0,0.0
4104,1025.75,37.0123,38.1955,137.415,98.4219,93.902,0.00571153,0.195806,20.8281,27.0437,0.424637,0.0,0.0
4158,1039.25,36.7916,37.8288,135.452,98.6078,94.7891,0.00596142,0.191609,20.8325,26.6034,0.356749,0.0,0.0
4212,1052.75,36.6709,37.8157,136.512,98.844,93.7515,0.00557594,0.18989,20.8325,26.243,0.477793,0.0,0.0
4266,1066.25,35.9997,37.3869,133.757,98.0913,93.5885,0.00566128,0.187719,20.839,25.8027,0.424455,0.0,0.0
4320,1079.75,35.7443,36.5376,138.14,97.3853,93.1327,0.00606192,0.18132,20.8446,25.4323,0.403308,0.0,0.0
4374,1093.25,35.3446,36.5013,137.757,98.4298,94.1414,0.00654816,0.173746,20.8529,25.092,0.402368,0.0,0.0
4428,1106.75,34.3499,35.1321,135.96,97.9521,93.762,0.00710216,0.165362,20.8611,24.7818,0.394902,0.0,0.0
4482,1120.25,33.5037,34.7686,133.06,98.8032,93.4602,0.00779866,0.156447,20.8718,24.4615,0.502173,0.0,0.0
4536,1133.75,32.949,33.3384,137.889,98.3941,94.3883,0.00800525,0.147487,20.8804,24.2213,0.375435,0.0,0.0
4590,1147.25,32.3509,32.8275,138.413,98.6502,94.266,0.00918417,0.135849,20.8934,23.9811,0.410626,0.0,0.0
4644,1160.75,31.7783,31.8818,138.708,99.0287,95.3699,0.00909953,0.129662,20.8962,23.7709,0.340057,0.0,0.0
4698,1174.25,30.9941,31.5611,138.84,99.1068,95.1124,0.00946745,0.129288,20.8923,23.5907,0.371594,0.0,0.0
4752,1187.75,29.845,30.5794,140.162,98.9542,95.2069,0.00973131,0.131703,20.8878,23.4106,0.348706,0.0,0.0
4806,1201.25,29.7393,29.9316,138.277,98.7402,96.1302,0.00933267,0.132396,20.8906,23.2504,0.241975,0.0,0.0
4860,1214.75,28.7012,29.0861,138.399,98.5535,95.735,0.0098796,0.114021,20.9146,23.1003,0.262089,0.0,0.0
4914,1228.25,28.8042,29.0508,142.922,98.4698,95.4572,0.0100889,0.10302,20.9245,22.9702,0.280665,0.0,0.0
4968,1241.75,28.1157,28.4076,143.239,98.5059,95.9642,0.0098328,0.0962881,20.9311,22.8601,0.236129,0.0,0.0
5022,1255.25,27.7075,27.6533,144.525,98.6383,95.7741,0.0105098,0.0898765,20.9381,22.76,0.266168,0.0,0.0
5076,1268.75,27.4387,27.6254,142.09,98.8242,96.2702,0.00954206,0.0859207,20.943,22.6899,0.236513,0.0,0.0
5130,1282.25,26.0539,26.8945,141.564,99.0216,96.6033,,,,22.6098,0.223339,0.0,0.0
5152,1287.75,26.9049,26.917,141.364,99.0787,95.6687,,,,22.6098,0.316352,0.0,0.0

File: PET_Cone_HF25Scan_220218_R4.csv
Names,Time,Stack TC,Smoke TC,Exh Press,Smoke Comp,Smoke Meas,CO Meter,CO2 Meter,O2 Meter,Sample Mass,Ext Coeff,Start Test,Flame Verif
Chan Gain,,500,500,1,1,1,1,1,1,1,1,1.0,1.0
Offset,,0,0,0.132436,0,0,0,0,0,0,0,0.0,0.0
Gain,,1,1,25.011,15.4219,15.1528,1,1,1,1.00089,1.02113,1.0,1.0
Units,sec,C,C,Pa,%,%,%,%,%,g,/m,,
Baseline,,19.4656,20.4973,166.263,116.529,116.12,-0.00693615,0.0511742,20.9888,-478.8,0.0314864,,
64,15.75,18.3936,19.6536,165.948,115.809,115.64,-0.00707644,0.0516239,20.9958,492.636,0.0130879,0.0,0.0
128,31.75,18.9624,19.8426,164.453,115.746,115.435,-0.00742871,0.049656,20.9944,492.616,0.0241261,0.0,0.0
192,47.75,19.3416,19.9909,162.717,115.719,115.039,-0.0071664,0.049467,20.9923,492.616,0.052854,0.0,0.0
256,63.75,19.544,20.7799,164.783,115.724,115.41,-0.0074242,0.0497089,20.9926,492.606,0.0243157,0.0,0.0
320,79.75,19.8329,20.6244,163.604,115.706,114.599,-0.00762684,0.0498906,20.9939,492.596,0.0861414,0.0,0.0
384,95.75,20.1074,21.5457,167.434,115.82,115.196,-0.00743787,0.049755,20.9948,492.576,0.0483765,0.0,0.0
448,111.75,20.1157,20.8115,164.575,115.96,114.888,-0.00725894,0.0495192,20.9968,492.576,0.0831966,0.0,0.0
512,127.75,20.7259,21.3184,164.201,116.082,114.57,-0.00752648,0.0496408,20.9955,492.556,0.117446,0.0,0.0
576,143.75,20.6622,21.1077,165.764,116.191,115.634,-0.00726692,0.0509914,20.993,492.536,0.0430265,0.0,0.0
640,159.75,20.6071,21.5176,164.735,116.289,115.572,-0.00714318,0.0511859,20.9938,492.526,0.0553705,0.0,0.0
704,175.75,20.7591,21.8513,168.235,116.359,115.407,-0.00722444,0.0501306,20.9942,492.536,0.073575,0.0,0.0
768,191.75,20.8369,22.0866,167.218,116.403,115.274,-0.00761676,0.0515583,20.9917,492.506,0.0873585,0.0,0.0
832,207.75,21.1809,22.1334,164.881,116.427,115.483,-0.00749378,0.0499147,20.9924,492.486,0.0728707,0.0,0.0
896,223.75,20.5728,22.0416,164.505,116.457,115.641,-0.00730167,0.0501277,20.9956,492.486,0.0630005,0.0,0.0
960,239.75,21.067,22.6795,165.203,116.48,115.649,-0.00726879,0.0511716,20.9931,492.476,0.0641296,0.0,0.0
1024,255.75,21.5259,22.6553,167.092,116.498,115.312,-0.0074589,0.0507598,20.9939,492.446,0.0916528,0.0,0.0
1088,271.75,21.6473,22.8507,162.076,116.499,115.178,-0.00725865,0.0504026,20.9944,492.426,0.102148,0.0,0.0
1152,287.75,22.1078,22.5997,165.809,116.505,114.935,-0.00720516,0.051245,20.9951,492.396,0.121555,0.0,0.0
1216,303.75,21.7605,23.6352,167.38,116.501,114.628,-0.00711807,0.050542,20.9951,492.376,0.145191,0.0,0.0
1280,319.75,22.3879,23.3168,163.393,116.505,114.24,-0.00724277,0.0517287,20.9923,492.336,0.175922,0.0,0.0
1344,335.75,22.336,23.46,166.877,116.485,114.295,-0.00713619,0.0526022,20.9948,492.286,0.169943,0.0,0.0
1408,351.75,22.3063,23.4213,163.166,116.391,114.079,-0.00684937,0.0529152,20.9941,492.266,0.179714,0.0,0.0
1472,367.75,22.294,23.5436,162.073,116.13,113.873,-0.0067597,0.0555498,20.9875,492.256,0.175762,0.0,0.0
1536,383.75,22.6554,23.8712,160.635,115.767,112.669,-0.00673455,0.0574158,20.9879,492.186,0.243027,0.0,0.0
1600,399.75,22.6743,23.7567,165.033,115.766,113.783,-0.00680916,0.0554699,20.9914,492.136,0.154717,0.0,0.0
1664,415.75,23.0483,23.9509,165.961,115.862,112.912,-0.00677953,0.0512152,20.9951,492.066,0.230953,0.0,0.0
1728,431.75,22.6278,23.7284,166.322,116.058,113.431,-0.00664149,0.051215,20.9959,491.996,0.205121,0.0,0.0
1792,447.75,23.1841,24.1562,164.133,116.215,112.929,-0.00676582,0.0544951,20.9893,491.936,0.256881,0.0,0.0
1856,463.75,22.8448,23.6264,161.159,116.357,113.194,-0.00664064,0.0550453,20.988,491.876,0.246873,0.0,0.0
1920,479.75,23.457,24.2279,161.982,116.457,112.506,-0.00612997,0.0556399,20.9913,491.766,0.30913,0.0,0.0
1984,495.75,23.4731,24.262,167.141,116.511,113.218,-0.00627286,0.0513867,20.9957,491.655,0.25681,0.0,0.0
2048,511.75,23.7801,24.8498,160.993,116.524,112.952,-0.00611126,0.0553171,20.9904,491.525,0.27892,0.0,0.0
2112,527.75,23.3953,25.1751,165.036,116.431,112.761,-0.00595992,0.0529973,20.993,491.465,0.286875,0.0,0.0
2176,543.75,23.9853,24.9174,163.638,116.308,112.563,-0.00601263,0.053759,20.9934,491.335,0.293156,0.0,0.0
2240,559.75,23.5634,24.4973,161.505,116.164,111.058,-0.00570178,0.0538712,20.9913,491.215,0.402606,0.0,0.0
2304,575.75,23.4748,24.6944,164.562,116.004,111.638,-0.00558326,0.0602655,20.9831,491.065,0.343574,0.0,0.0
2368,591.75,23.8646,24.8829,166.275,115.941,112.017,-0.00556072,0.052805,20.9943,490.945,0.308441,0.0,0.0
2432,607.75,24.4992,24.688,164.685,116.008,111.181,-0.00546405,0.0519569,20.997,490.775,0.380708,0.0,0.0
2496,623.75,24.4164,25.1594,163.604,116.064,111.175,-0.0052049,0.0526129,20.9959,490.605,0.385441,0.0,0.0
2560,639.75,24.0695,25.5721,162.027,116.064,111.368,-0.0048455,0.0522673,20.9959,490.404,0.369955,0.0,0.0
2624,655.75,24.3906,25.9424,159.174,115.993,110.664,-0.00467322,0.0658488,20.9791,490.214,0.421294,0.0,0.0
2688,671.75,30.2012,31.9207,144.476,115.917,81.6499,0.00511082,0.547323,20.4032,488.783,3.13889,0.0,0.0
2752,687.75,47.3921,53.0545,119.438,115.797,61.495,0.0291194,1.24053,19.5937,485.3,5.66885,0.0,0.0
2816,703.75,70.0709,80.9546,121.553,115.601,68.2349,0.0402266,1.63289,19.2218,479.975,4.72218,0.0,0.0
2880,719.75,78.9037,91.5553,126.927,115.203,66.1438,0.033896,1.30854,19.5699,475.451,4.97007,0.0,0.0
2944,735.75,79.5005,92.7625,130.909,114.738,73.3891,0.0209365,1.03303,19.8841,471.728,4.00278,0.0,0.0
3008,751.75,78.5945,90.4727,136.364,114.321,72.9327,0.0147093,0.873676,20.0657,468.635,4.02601,0.0,0.0
3072,767.75,75.6328,86.4848,137.63,114.026,77.1158,0.0113887,0.781138,20.1597,465.893,3.50331,0.0,0.0
3136,783.75,74.9574,84.7906,136.697,113.925,78.8217,0.00946161,0.753434,20.1922,463.32,3.29941,0.0,0.0
3200,799.75,73.8941,83.7333,138.302,114.059,82.1165,0.00901593,0.741477,20.2054,460.808,2.94314,0.0,0.0
3264,815.75,72.9814,81.5631,143.345,114.413,85.7346,0.0064854,0.684407,20.2723,458.436,2.58468,0.0,0.0
3328,831.75,71.5407,79.0507,138.991,114.927,85.729,0.00542753,0.643019,20.3106,456.354,2.62545,0.0,0.0
3392,847.75,71.4582,78.3873,138.845,115.411,85.6088,0.00673226,0.689251,20.2573,454.052,2.67565,0.0,0.0
3456,863.75,72.0009,79.9409,138.905,115.843,81.9635,0.00865218,0.742193,20.1963,451.6,3.09888,0.0,0.0
3520,879.75,73.5043,81.6374,134.853,116.084,81.0039,0.00912184,0.781207,20.1551,448.948,3.22294,0.0,0.0
3584,895.75,73.9818,81.4183,135.922,115.956,82.0957,0.00745671,0.697224,20.2562,446.485,3.09314,0.0,0.0
3648,911.75,71.8783,79.2006,143.578,115.683,83.6449,0.00550451,0.578469,20.3984,444.384,2.90458,0.0,0.0
3712,927.75,69.0858,75.4326,148.645,116.366,86.7709,0.00375073,0.504262,20.4792,442.632,2.62865,0.0,0.0
3776,943.75,64.9658,70.5319,149.132,116.25,93.7387,0.00180369,0.425929,20.5724,441.091,1.92791,0.0,0.0
3840,959.75,62.1027,66.4189,146.55,115.799,93.5232,0.00169318,0.400229,20.599,439.78,1.91371,0.0,0.0
3904,975.75,59.8716,63.5899,149.727,116.275,95.1588,0.00146908,0.403191,20.598,438.408,1.79514,0.0,0.0
3968,991.75,58.1587,61.5267,146.212,116.504,94.4536,0.00187203,0.400437,20.6019,437.117,1.87934,0.0,0.0
4032,1007.75,58.1359,60.3444,151.511,116.12,95.5302,0.00181372,0.402126,20.601,435.746,1.74829,0.0,0.0
4096,1023.75,56.1829,59.3904,151.337,115.157,99.4183,0.000562882,0.350516,20.6599,434.575,1.3164,0.0,0.0
4160,1039.75,54.3129,57.1802,152.045,114.209,99.5635,5.11899e-05,0.306863,20.71,433.614,1.22922,0.0,0.0
4224,1055.75,52.3563,54.4765,152.541,113.951,100.656,-0.00016438,0.260232,20.7619,432.773,1.11124,0.0,0.0
4288,1071.75,50.051,52.3629,156.715,114.287,103.104,0.000140007,0.228269,20.7963,432.073,0.922367,0.0,0.0
4352,1087.75,48.4999,49.8466,155.84,114.906,104.764,-0.000229148,0.201743,20.8251,431.492,0.827629,0.0,0.0
4416,1103.75,45.8191,47.8712,153.55,115.51,107.406,-1.86473e-05,0.17933,20.8519,430.932,0.651613,0.0,0.0
4480,1119.75,44.1631,45.4704,152.985,115.865,108.827,-0.000103516,0.168182,20.8614,430.521,0.56132,0.0,0.0
4544,1135.75,43.3628,44.4223,158.968,115.992,110.854,-0.000186936,0.15944,20.8708,430.151,0.405887,0.0,0.0
4608,1151.75,41.4608,42.2659,159.112,115.849,110.492,-0.000225171,0.151975,20.8754,429.801,0.424099,0.0,0.0
4672,1167.75,41.2319,42.1565,157.922,115.637,110.949,-0.000207409,0.143143,20.8891,429.44,0.370676,0.0,0.0
4736,1183.75,40.5467,40.8279,158.217,116.052,112.044,-0.00055887,0.13843,20.8975,429.06,0.314837,0.0,0.0
4800,1199.75,39.534,40.2769,155.952,116.408,111.918,-0.00022474,0.128451,20.9064,428.78,0.352318,0.0,0.0
4864,1215.75,38.4999,39.2717,155.58,116.351,112.944,-0.000424243,0.12129,20.9141,428.55,0.266147,0.0,0.0
4928,1231.75,38.3277,38.3366,155.205,115.798,112.164,-0.000939686,0.121365,20.9143,428.259,0.285666,0.0,0.0
4992,1247.75,37.7046,38.0356,161.789,115.908,111.574,-0.000559612,0.117909,20.9171,427.969,0.34139,0.0,0.0
5056,1263.75,37.307,37.5815,159.435,116.306,112.901,-0.00107113,0.113324,20.9251,427.739,0.266116,0.0,0.0
5120,1279.75,36.6124,37.2855,162.231,116.502,113.161,-0.00142082,0.108981,20.9297,427.519,0.260586,0.0,0.0
5184,1295.75,36.5188,36.6293,159.535,116.326,112.678,-0.00135684,0.106074,20.9317,427.318,0.285339,0.0,0.0
5248,1311.75,35.7512,36.3143,160.309,115.895,112.944,-0.00131284,0.103858,20.9324,427.108,0.231079,0.0,0.0
5312,1327.75,34.9831,34.9218,160.414,115.294,112.981,-0.000537899,0.0968353,20.938,426.928,0.181501,0.0,0.0
5376,1343.75,34.4988,35.1762,157.886,114.713,111.686,-0.000140359,0.093572,20.9431,426.748,0.239587,0.0,0.0
5440,1359.75,34.3682,34.6599,157.415,114.207,111.106,-0.000376256,0.0926604,20.9433,426.578,0.246585,0.0,0.0
5504,1375.75,34.2122,34.1478,160.103,113.959,110.836,7.34424e-05,0.0937984,20.944,426.408,0.248947,0.0,0.0
5568,1391.75,33.7524,33.5488,156.997,114.045,110.98,0.000258268,0.0932581,20.9436,426.237,0.244061,0.0,0.0
5632,1407.75,32.8025,33.5272,160.381,114.411,111.288,0.000301962,0.0958985,20.9392,426.097,0.247915,0.0,0.0
5696,1423.75,33.0805,33.0685,162.206,114.85,112.626,-0.000197713,0.0985353,20.9386,425.907,0.175155,0.0,0.0
5760,1439.75,33.1618,33.1274,156.848,115.233,112.237,-0.000488186,0.0988797,20.938,425.707,0.236004,0.0,0.0
5824,1455.75,32.7599,33.2151,158.693,115.566,113.477,-0.000520435,0.097659,20.9381,425.597,0.163396,0.0,0.0
5888,1471.75,32.4032,33.3901,156.799,115.768,113.692,-0.000864956,0.0989938,20.936,425.367,0.162037,0.0,0.0
5952,1487.75,32.8503,32.732,154.832,115.92,113.328,-0.000950947,0.0957017,20.9409,425.207,0.202546,0.0,0.0
6016,1503.75,31.3939,32.5234,157.827,115.924,113.243,,0.093558,,425.036,0.209564,0.0,0.0
6050,1512.25,32.3877,32.8386,158.907,115.906,113.904,,,,424.966,0.156103,0.0,0.0