Folder: fsri_materials_database/01_Data/PET/Cone (part 3)

File: PET_Cone_HF25Scan_220218_R5.csv
Names,Time,Stack TC,Smoke TC,Exh Press,Smoke Comp,Smoke Meas,CO Meter,CO2 Meter,O2 Meter,Sample Mass,Ext Coeff,Start Test,Flame Verif
Chan Gain,,500,500,1,1,1,1,1,1,1,1,1.0,1.0
Offset,,0,0,0.132436,0,0,0,0,0,0,0,0.0,0.0
Gain,,1,1,25.011,15.4219,15.1528,1,1,1,1.00089,1.02113,1.0,1.0
Units,sec,C,C,Pa,%,%,%,%,%,g,/m,,
Baseline,,24.3058,25.2007,164.206,114.189,113.212,-0.00711948,0.04862,20.9935,-479.077,0.0769372,,
82,20.25,22.4701,22.8591,166.574,113.996,113.126,-0.00726102,0.0506069,20.9934,490.715,0.0686914,0.0,0.0
164,40.75,22.3356,23.4324,161.744,113.971,113.168,-0.00703135,0.0459057,21,490.675,0.0633631,0.0,0.0
246,61.25,23.0465,23.4655,163.99,113.977,113.134,-0.00725294,0.0476643,20.9983,490.675,0.0665158,0.0,0.0
328,81.75,23.2484,24.0408,163.131,113.957,113.145,-0.00701187,0.0457732,20.9994,490.635,0.0640469,0.0,0.0
410,102.25,23.4031,24.2586,168.638,113.967,113.164,-0.00761451,0.0464557,21.0029,490.665,0.0632868,0.0,0.0
492,122.75,23.9354,24.2559,165.123,113.985,113.157,-0.00724797,0.0478742,20.998,490.615,0.0652777,0.0,0.0
574,143.25,23.7958,25.1058,164.508,114.02,112.724,-0.00735353,0.0471847,21.0014,490.615,0.102415,0.0,0.0
656,163.75,23.8287,24.5949,165.916,114.051,113.526,-0.00739784,0.0462889,21.0002,490.615,0.0414016,0.0,0.0
738,184.25,24.618,25.2811,163.795,114.095,113.281,-0.007349,0.0466917,21.0006,490.645,0.0641233,0.0,0.0
820,204.75,24.1357,25.5027,167.906,114.194,113.243,-0.00725297,0.0456104,21.0031,490.645,0.0749146,0.0,0.0
902,225.25,23.9133,25.5691,162.737,114.302,113.418,-0.00735451,0.0462348,21,490.625,0.0695116,0.0,0.0
984,245.75,23.7397,25.4079,164.105,114.359,113.427,-0.00753991,0.0466208,20.9982,490.564,0.0733166,0.0,0.0
1066,266.25,24.2541,25.5833,162.849,114.466,112.809,-0.00728596,0.0476177,20.9993,490.544,0.130601,0.0,0.0
1148,286.75,24.877,25.5958,163.148,114.506,112.964,-0.00738312,0.0476108,20.9979,490.574,0.12144,0.0,0.0
1230,307.25,24.3513,25.9022,164.181,114.553,112.41,-0.00696378,0.0478995,20.997,490.504,0.16912,0.0,0.0
1312,327.75,25.0873,25.8633,162.86,114.538,111.967,-0.00721066,0.0479319,20.9996,490.434,0.203385,0.0,0.0
1394,348.25,24.8418,26.463,165.682,114.732,112.044,-0.00703615,0.0480186,20.9994,490.414,0.21236,0.0,0.0
1476,368.75,25.1853,25.7605,161.742,114.957,113.146,-0.00679427,0.0482367,20.9995,490.424,0.142168,0.0,0.0
1558,389.25,25.261,26.0882,162.812,115.23,112.859,-0.00731936,0.0483779,20.9996,490.364,0.186248,0.0,0.0
1640,409.75,25.1809,25.9942,162.232,115.426,112.688,-0.00657101,0.0486791,21.0009,490.244,0.215044,0.0,0.0
1722,430.25,25.1519,26.2688,165.349,115.566,112.031,-0.00660649,0.0484286,20.9985,490.124,0.278268,0.0,0.0
1804,450.75,25.5163,26.5665,160.544,115.636,111.411,-0.00628311,0.0490606,20.9986,490.044,0.33342,0.0,0.0
1886,471.25,25.4568,26.4014,160.782,115.673,111.8,-0.00646276,0.0531627,20.9934,489.944,0.305014,0.0,0.0
1968,491.75,26.166,27.2728,162.002,115.699,110.788,-0.00595304,0.0532425,20.9952,489.734,0.388561,0.0,0.0
2050,512.25,25.6087,26.6134,162.125,115.72,111.338,-0.00634145,0.0527973,20.9955,489.604,0.34582,0.0,0.0
2132,532.75,25.3498,26.9022,161.175,115.757,111.795,-0.00559305,0.050058,20.9981,489.474,0.311943,0.0,0.0
2214,553.25,25.45,26.7276,162.261,115.816,111.859,-0.00571925,0.0503894,20.9963,489.263,0.311381,0.0,0.0
2296,573.75,25.7437,27.3559,160.634,115.81,112.069,-0.00564926,0.0523718,20.9946,489.063,0.294112,0.0,0.0
2378,594.25,25.9623,26.7949,164.162,115.761,111.545,-0.00575159,0.0520775,20.9949,488.853,0.3323,0.0,0.0
2460,614.75,26.143,27.1564,161.612,115.665,110.771,-0.0056237,0.0502675,20.9986,488.723,0.387284,0.0,0.0
2542,635.25,25.3567,27.293,160.939,115.55,111.362,-0.0055407,0.0502874,20.9974,488.573,0.330688,0.0,0.0
2624,655.75,26.1182,27.3818,164.852,115.46,110.837,-0.00559152,0.0506701,20.9986,488.332,0.366033,0.0,0.0
2706,676.25,25.9486,27.1657,162.022,115.78,111.421,-0.0053847,0.0500534,20.9978,488.172,0.343751,0.0,0.0
2788,696.75,26.313,27.4212,163.09,116.053,110.719,-0.0053495,0.0506251,20.9988,487.972,0.421418,0.0,0.0
2870,717.25,26.7435,27.5559,162.303,116.271,111.373,-0.00532631,0.050801,20.9989,487.722,0.38555,0.0,0.0
2952,737.75,26.1919,27.4735,164.035,116.328,112.12,-0.00504343,0.0509756,20.9967,487.572,0.329999,0.0,0.0
3034,758.25,26.432,27.5385,161.818,116.294,110.363,-0.00465484,0.050688,20.9978,487.332,0.468848,0.0,0.0
3116,778.75,26.4806,27.7091,162.001,116.167,110.551,-0.00517351,0.0511126,20.9966,487.121,0.443795,0.0,0.0
3198,799.25,26.7152,27.7657,161.862,115.938,110.638,-0.00502323,0.0594831,20.9885,486.881,0.4191,0.0,0.0
3280,819.75,26.5808,27.8649,161.632,115.718,110.892,-0.00522649,0.0509593,20.9974,486.671,0.381646,0.0,0.0
3362,840.25,26.9471,27.556,160.205,115.636,111.125,-0.00479063,0.0555908,20.9929,486.461,0.35639,0.0,0.0
3444,860.75,27.0176,28.11,164.001,115.799,110.549,-0.00519066,0.0526749,20.9946,486.181,0.415596,0.0,0.0
3526,881.25,26.869,27.7462,166.068,115.973,110.842,-0.0048229,0.0529073,20.9971,485.98,0.405294,0.0,0.0
3608,901.75,26.307,27.8532,164.443,116.127,110.812,-0.00483672,0.0534322,20.9983,485.68,0.419565,0.0,0.0
3690,922.25,27.1738,27.9602,160.535,116.255,110.792,-0.00443131,0.050827,20.9992,485.44,0.431116,0.0,0.0
3772,942.75,26.8092,28.4845,165.023,116.323,110.917,-0.00441985,0.0505055,20.9971,485.12,0.426284,0.0,0.0
3854,963.25,26.6161,28.2813,163.915,116.36,111.01,-0.00409008,0.0518182,20.9961,484.94,0.421569,0.0,0.0
3936,983.75,26.7573,28.1421,160.544,116.4,110.375,-0.00473322,0.0507612,21,484.669,0.476061,0.0,0.0
4018,1004.25,27.377,28.0218,161.412,116.418,111.25,-0.00482226,0.0502569,20.9968,484.459,0.40668,0.0,0.0
4100,1024.75,27.2756,28.0801,164.463,116.432,110.933,-0.00469982,0.053431,20.9941,484.149,0.433345,0.0,0.0
4182,1045.25,27.1822,28.7094,162.131,116.458,110.657,-0.00416859,0.050934,20.9964,483.879,0.457691,0.0,0.0
4264,1065.75,27.1629,28.499,158.723,116.418,110.322,-0.00396083,0.0511691,20.9962,483.648,0.481754,0.0,0.0
4346,1086.25,27.5187,28.4149,158.305,116.348,107.692,-0.00480093,0.0682966,20.9793,483.288,0.692503,0.0,0.0
4428,1106.75,27.7896,29.5927,158.745,116.244,107.02,-0.00401197,0.154233,20.8874,482.808,0.740515,0.0,1.0
4510,1127.25,45.393,50.4883,121.458,116.186,67.9653,0.0254872,1.16449,19.7039,479.084,4.80281,0.0,0.0
4592,1147.75,76.3652,88.9093,128.13,116.275,69.9866,0.0397481,1.62935,19.2214,471.818,4.54717,0.0,0.0
4674,1168.25,82.1027,95.2408,134.954,116.314,78.7316,0.0167263,0.988355,19.927,467.164,3.49558,0.0,0.0
4756,1188.75,78.5465,89.0808,138.207,116.353,81.8086,0.00905753,0.735064,20.2113,463.781,3.15519,0.0,0.0
4838,1209.25,76.1422,86.463,133.174,116.344,83.0261,0.00992115,0.752261,20.1917,460.598,3.02214,0.0,0.0
4920,1229.75,75.3798,85.0692,137.727,116.32,83.0502,0.00953808,0.752155,20.1881,457.245,3.01773,0.0,0.0
5002,1250.25,73.496,82.411,141.04,116.198,85.2069,0.00828359,0.631833,20.3349,454.222,2.77862,0.0,0.0
5084,1270.75,69.2748,76.5705,143.008,115.922,87.8909,0.00325525,0.489929,20.4997,451.9,2.47954,0.0,0.0
5166,1291.25,65.0973,71.5759,145.768,115.584,87.2051,0.00165941,0.472968,20.5172,449.788,2.52356,0.0,0.0
5248,1311.75,62.9779,68.3895,146.177,115.251,89.6388,0.00271087,0.500627,20.4836,447.536,2.25118,0.0,0.0
5330,1332.25,61.3802,66.1498,148.347,114.705,90.0402,0.000545289,0.419898,20.5834,445.455,2.16859,0.0,0.0
5412,1352.75,58.7294,62.8494,152.553,114.185,94.7884,-0.000726493,0.378024,20.6347,443.803,1.66757,0.0,0.0
5494,1373.25,55.3345,58.5452,148.619,113.974,96.4902,-0.00261748,0.280084,20.7416,442.532,1.49167,0.0,0.0
5576,1393.75,52.3588,55.3151,155.85,114.056,99.7535,-0.00283735,0.25745,20.7661,441.431,1.20017,0.0,0.0
5658,1414.25,49.5685,51.6952,155.685,114.355,101.811,-0.00301884,0.235482,20.7958,440.5,1.04075,0.0,0.0
5740,1434.75,47.868,49.5513,156.458,114.835,104.075,-0.00342794,0.211827,20.8201,439.669,0.881193,0.0,0.0
5822,1455.25,45.9852,47.8082,154.502,115.237,105.459,-0.00347963,0.196911,20.8365,438.879,0.794229,0.0,0.0
5904,1475.75,44.0918,45.5795,153.732,115.554,105.818,-0.00373518,0.178093,20.8551,438.208,0.788391,0.0,0.0
5986,1496.25,43.0487,44.1963,158.094,115.684,108.443,-0.00359624,0.163444,20.8706,437.598,0.578984,0.0,0.0
6068,1516.75,41.7184,42.6548,159.971,115.726,109.147,-0.00379748,0.142892,20.8952,437.097,0.524243,0.0,0.0
6150,1537.25,40.7781,41.4654,154.447,115.617,110.201,-0.00372522,0.14269,20.8925,436.637,0.429754,0.0,0.0
6232,1557.75,39.4784,40.1516,159.152,115.45,110.591,-0.00302463,0.125211,20.9134,436.186,0.385171,0.0,0.0
6314,1578.25,38.5238,39.0962,162.132,115.649,111.357,-0.00263077,0.116787,20.9213,435.826,0.338755,0.0,0.0
6396,1598.75,37.0912,37.685,156.23,116.207,111.28,-0.00329144,0.109034,20.9314,435.506,0.388061,0.0,0.0
6478,1619.25,36.5332,37.0946,157.401,116.252,112.353,-0.0027664,0.101694,20.939,435.185,0.305527,0.0,0.0
6560,1639.75,35.7942,36.38,157.857,115.763,112.233,-0.00284453,0.0971071,20.942,434.935,0.277435,0.0,0.0
6642,1660.25,34.9838,35.2216,157.773,115.725,111.614,-0.00307514,0.0947359,20.9439,434.675,0.323964,0.0,0.0
6724,1680.75,34.9423,35.4941,163.65,116.029,113.342,-0.00288979,0.0906026,20.9499,434.495,0.209882,0.0,0.0
6806,1701.25,34.624,35.0683,159.309,116.366,112.801,-0.00301019,0.0876223,20.9527,434.265,0.278682,0.0,0.0
6888,1721.75,33.3258,34.1644,159.713,116.472,113.91,-0.0029124,0.085443,20.9547,434.044,0.199242,0.0,0.0
6970,1742.25,33.7655,34.2835,161.504,116.399,113.792,-0.00288256,0.0867874,20.9522,433.854,0.202907,0.0,0.0
7052,1762.75,32.9993,33.465,159.149,116.075,113.393,-0.00270155,0.0801663,20.9603,433.674,0.209388,0.0,0.0
7134,1783.25,32.3087,33.0986,161.002,115.552,112.97,-0.00258743,0.0767823,20.962,433.524,0.202433,0.0,0.0
7216,1803.75,31.9426,32.466,159.865,115.041,112.825,-0.00271511,0.0768351,20.9621,433.354,0.174282,0.0,0.0
7298,1824.25,31.2625,32.2418,163.779,114.714,112.143,-0.00199827,0.0719906,20.9666,433.234,0.203019,0.0,0.0
7380,1844.75,31.5908,31.7843,163.607,114.456,111.67,-0.00188797,0.0707676,20.97,433.094,0.220686,0.0,0.0
7462,1865.25,31.0396,31.2632,162.087,114.218,111.189,-0.0016933,0.0685722,20.9699,432.993,0.240726,0.0,0.0
7544,1885.75,30.1831,31.6555,164.218,114.053,111.336,-0.00159874,0.0667583,20.9719,432.913,0.215923,0.0,0.0
7626,1906.25,30.119,31.0423,161.101,114.043,111.091,-0.00156629,0.0657667,20.9724,432.783,0.234887,0.0,0.0
7708,1926.75,30.1999,31.1247,163.546,114.079,111.394,-0.00175204,0.0650661,20.9761,432.713,0.213381,0.0,0.0
7766,1941.25,29.8741,30.7961,162.527,114.14,111.703,,,,432.613,0.193378,0.0,0.0

File: PET_Cone_HF50Scalar_220207_R1.csv
LABORATORY,FSRI
TEST IDENT,PET_HF50_1
OPERATOR,Dow
MATERIAL,PET
ORIENTATION,Horizontal
HEAT FLUX,50
SURF AREA,0.01
C FACTOR,0.0390564
SPEC HOLDER DIFF,304.4
SPECIMEN MASS,91.5
SCAN TIME,0.25
O2 DELAY TIME,11
CO DELAY TIME,11
CO2 DELAY TIME,8
FLOW FACTOR,1
SCAN COUNT,2128
TIME TO IGN,88.5
END OF TEST SCAN,1648
END OF TEST TIME,412
TEST STATUS,1
PRE TEST CMT,Dimensions: 98.85 x 98.62 x 6.63 mm
POST TEST CMT,"Sample dripped from foil pan during test, see test pictures"

File: PET_Cone_HF50Scalar_220207_R2.csv
LABORATORY,FSRI
TEST IDENT,PET_HF50_2
OPERATOR,Dow
MATERIAL,PET
ORIENTATION,Horizontal
HEAT FLUX,50
SURF AREA,0.01
C FACTOR,0.0390564
SPEC HOLDER DIFF,303.2
SPECIMEN MASS,91.5
SCAN TIME,0.25
O2 DELAY TIME,11
CO DELAY TIME,11
CO2 DELAY TIME,8
FLOW FACTOR,1
SCAN COUNT,2067
TIME TO IGN,84.25
END OF TEST SCAN,1587
END OF TEST TIME,396.75
TEST STATUS,1
PRE TEST CMT,Dimensions: 98.31 x 98.85 x 6.75 mm
POST TEST CMT,"sample warped and dripped from foil pan during test, see test pictures"

File: PET_Cone_HF50Scalar_220207_R3.csv
LABORATORY,FSRI
TEST IDENT,PET_HF50_3
OPERATOR,Dow
MATERIAL,PET
ORIENTATION,Horizontal
HEAT FLUX,50
SURF AREA,0.01
C FACTOR,0.0390564
SPEC HOLDER DIFF,303.5
SPECIMEN MASS,90.6
SCAN TIME,0.25
O2 DELAY TIME,11
CO DELAY TIME,11
CO2 DELAY TIME,8
FLOW FACTOR,1
SCAN COUNT,2041
TIME TO IGN,81.75
END OF TEST SCAN,1561
END OF TEST TIME,390.25
TEST STATUS,1
PRE TEST CMT,Dimensions: 99.05 x 98.47 x 6.60 mm
POST TEST CMT,"Sample dripped and warped during test, see test pictures"

File: PET_Cone_HF50Scan_220207_R1.csv
Names,Time,Stack TC,Smoke TC,Exh Press,Smoke Comp,Smoke Meas,CO Meter,CO2 Meter,O2 Meter,Sample Mass,Ext Coeff,Start Test,Flame Verif
Chan Gain,,500,500,1,1,1,1,1,1,1,1,1.0,1.0
Offset,,0,0,0.134889,0,0,0,0,0,0,0,0.0,0.0
Gain,,1,1,25.011,12.9892,12.3331,1,1,1,1.00088,1.02973,1.0,1.0
Units,sec,C,C,Pa,%,%,%,%,%,g,/m,,
Baseline,,28.4744,30.5367,139.847,96.0875,96.4825,0.000144,0.070296,20.9629,-867.486,-0.0370483,,
22,5.25,25.5268,27.4849,137.938,96.7403,97.0975,0.000103144,0.0814871,20.9495,95.3537,-0.0332828,0.0,0.0
44,10.75,25.9383,27.7959,139.459,96.8244,97.0715,-0.000154773,0.0805969,20.9541,95.3337,-0.0230235,0.0,0.0
66,16.25,25.8932,27.65,135.444,96.91,97.4433,5.0667e-05,0.0765674,20.9633,95.2937,-0.0495759,0.0,0.0
88,21.75,27.4531,28.5518,142.716,97.0047,97.4911,-4.16617e-05,0.0734202,20.969,95.2736,-0.0451795,0.0,0.0
110,27.25,26.9612,28.5631,142.255,97.0761,97.1385,0.000144446,0.0713024,20.9701,95.2736,-0.00580358,0.0,0.0
132,32.75,27.2195,28.6013,140.827,97.1486,97.289,1.51054e-06,0.0703218,20.9699,95.3137,-0.0130444,0.0,0.0
154,38.25,27.3547,29.2204,136.548,97.2307,97.8694,6.37289e-05,0.0696974,20.9679,95.2736,-0.0591429,0.0,0.0
176,43.75,26.2889,28.6456,137.703,97.2937,97.6319,1.70831e-05,0.0695603,20.9668,95.2636,-0.0313435,0.0,0.0
198,49.25,27.3183,29.0146,134.616,97.3456,97.4926,0.000163791,0.0696392,20.966,95.2536,-0.0136311,0.0,0.0
220,54.75,27.2436,28.9217,139.616,97.4007,97.0433,0.000252964,0.0695371,20.9666,95.2536,0.0332137,0.0,0.0
242,60.25,27.0776,28.7545,135.155,97.4427,97.0609,0.000238379,0.0699116,20.9672,95.2036,0.0354621,0.0,0.0
264,65.75,27.3408,29.3828,143.144,97.4927,96.6195,0.000346715,0.0701815,20.9682,95.2436,0.0812709,0.0,0.0
286,71.25,27.5594,29.4146,139.535,97.5062,95.9981,0.000522461,0.0704526,20.9668,95.2036,0.140801,0.0,0.0
308,76.75,27.7681,29.5489,136.894,97.5323,95.7474,0.000794495,0.071449,20.9647,95.1435,0.166841,0.0,0.0
330,82.25,27.8175,29.5606,137.43,97.5656,95.0007,0.00116356,0.0745121,20.9603,95.0835,0.240645,0.0,0.0
352,87.75,27.8435,30.3725,135.535,97.614,95.5058,0.00215849,0.0891043,20.9349,94.9734,0.197224,0.0,0.0
374,93.25,30.8162,32.8452,122.432,97.6501,66.1838,0.00801166,0.244945,20.6529,94.3628,3.51332,0.0,1.0
396,98.75,34.8086,39.2653,118.867,97.6647,59.362,0.0151286,0.465765,20.3531,93.4721,4.49727,0.0,0.0
418,104.25,40.6603,46.6452,119.575,97.6976,50.7114,0.0217857,0.662981,20.1213,92.3511,5.92301,0.0,0.0
440,109.75,45.7703,53.7597,107.535,97.7182,51.8736,0.0323391,0.869238,19.8753,90.8798,5.72023,0.0,0.0
462,115.25,52.9347,64.0089,116.854,97.725,49.8732,0.0403166,1.11367,19.6008,89.2283,6.07608,0.0,0.0
484,120.75,60.6079,73.2144,105.492,97.7468,50.8958,0.0434708,1.28216,19.4347,87.5569,5.89476,0.0,0.0
506,126.25,65.9655,80.5987,106.952,97.7369,52.8808,0.0428987,1.34725,19.4094,85.9154,5.54825,0.0,0.0
528,131.75,70.287,86.5731,110.256,97.7432,54.3675,0.0410897,1.3601,19.429,84.3741,5.2984,0.0,0.0
550,137.25,73.0877,90.4591,110.912,97.7393,52.0543,0.04007,1.31317,19.5151,82.9028,5.69076,0.0,0.0
572,142.75,75.6417,93.7132,112.016,97.7238,53.0261,0.0401589,1.28539,19.5404,81.3714,5.52226,0.0,0.0
594,148.25,76.6966,95.222,112.853,97.6814,54.0758,0.03747,1.25149,19.5917,79.8801,5.34127,0.0,0.0
616,153.75,78.6627,96.7664,110.943,97.6449,53.7096,0.0365425,1.20994,19.6397,78.4188,5.39928,0.0,0.0
638,159.25,79.9686,98.7039,103.561,97.6049,52.6636,0.0386354,1.25553,19.5333,76.9576,5.57321,0.0,0.0
660,164.75,82.9709,103.048,103.56,97.543,52.6444,0.0419695,1.37738,19.3857,75.2961,5.57078,0.0,0.0
682,170.25,86.0212,106.373,107.35,97.5086,53.1127,0.0428109,1.42435,19.3545,73.6547,5.48761,0.0,0.0
704,175.75,88.0918,108.711,102.871,97.4459,51.5338,0.0412583,1.42881,19.3681,71.9532,5.75439,0.0,0.0
726,181.25,89.5538,110.193,108.181,97.4075,54.6001,0.0402615,1.40925,19.4024,70.4919,5.22875,0.0,0.0
748,186.75,90.7342,112.586,107.033,97.3603,51.3241,0.0411084,1.40747,19.39,68.8204,5.78328,0.0,0.0
770,192.25,92.6332,113.799,104.213,97.5553,52.4604,0.0436689,1.46493,19.3025,67.179,5.60355,0.0,0.0
792,197.75,94.5541,116.31,97.5015,97.7408,53.6385,0.0437108,1.49903,19.2773,65.4675,5.42012,0.0,0.0
814,203.25,95.2301,117.193,107.673,97.8451,54.5978,0.0408004,1.44727,19.3774,63.9562,5.26962,0.0,0.0
836,208.75,95.8213,116.202,108.284,97.968,55.0525,0.0372754,1.35979,19.5023,62.5349,5.20604,0.0,0.0
858,214.25,94.4081,114.575,107.704,98.0409,55.9264,0.0344665,1.26109,19.621,61.2237,5.0705,0.0,0.0
880,219.75,93.2281,112.66,113.265,98.052,53.7081,0.0332034,1.17587,19.7042,59.9126,5.43711,0.0,0.0
902,225.25,92.0311,111.623,112.589,98.0417,56.6623,0.0329194,1.14019,19.7303,58.5714,4.95251,0.0,0.0
924,230.75,91.7046,110.522,117.444,97.9747,57.6672,0.031856,1.12293,19.7391,57.3303,4.78754,0.0,0.0
946,236.25,91.7746,109.997,114.844,97.8728,56.0845,0.0318069,1.11977,19.7354,56.0292,5.02951,0.0,0.0
968,241.75,91.9922,109.896,111.592,97.6968,55.8064,0.0318638,1.12086,19.7276,54.718,5.05816,0.0,0.0
990,247.25,90.7023,109.499,110.972,97.4725,54.952,0.0323605,1.13491,19.7107,53.3268,5.17675,0.0,0.0
1012,252.75,91.9841,109.153,112.031,97.3797,54.841,0.0332173,1.16706,19.6638,51.9856,5.18642,0.0,0.0
1034,258.25,93.2185,109.749,105.932,97.4396,53.9768,0.033266,1.18937,19.6385,50.6044,5.33543,0.0,0.0
1056,263.75,93.731,110.645,103.602,97.5315,55.1443,0.0327192,1.19745,19.6375,49.2232,5.15066,0.0,0.0
1078,269.25,94.3334,111.343,106.963,97.6156,52.5579,0.0342082,1.22404,19.6011,47.7019,5.59236,0.0,0.0
1100,274.75,95.5268,112.386,106.765,97.7408,55.5542,0.0354168,1.25492,19.5646,46.2606,5.10313,0.0,0.0
1122,280.25,95.6737,113.12,106.182,97.8376,53.0069,0.0358866,1.2631,19.5629,44.7993,5.53604,0.0,0.0
1144,285.75,96.0031,113.149,100.018,97.9549,49.6839,0.0479882,1.3451,19.4165,43.0078,6.13166,0.0,0.0
1166,291.25,99.5776,117.136,103.589,98.0231,51.3968,0.059207,1.51469,19.208,41.0861,5.83178,0.0,0.0
1188,296.75,102.095,120.738,102.586,98.0548,47.449,0.070471,1.65141,19.059,38.9142,6.55661,0.0,0.0
1210,302.25,105.252,125.71,94.3637,98.0259,42.2674,0.0937694,1.89414,18.7248,36.432,7.59847,0.0,0.0
1232,307.75,110.82,132.861,95.0666,97.9347,45.7504,0.105082,2.14787,18.4735,33.8397,6.87482,0.0,0.0
1254,313.25,114.603,138.363,95.6742,97.8229,47.0485,0.102381,2.25862,18.399,31.2875,6.61178,0.0,0.0
1276,318.75,115.884,140.132,99.3532,97.6374,47.8287,0.0844314,2.18942,18.5424,29.0455,6.44607,0.0,0.0
1298,324.25,116.117,139.272,102.73,97.4166,51.1649,0.0653854,1.97412,18.85,27.1438,5.81656,0.0,0.0
1320,329.75,114.877,137.583,106.161,97.1566,49.3335,0.0579604,1.78193,19.0605,25.3322,6.12167,0.0,0.0
1342,335.25,113.775,135.756,108.438,96.843,53.2527,0.0542705,1.68258,19.1559,23.5206,5.40196,0.0,0.0
1364,340.75,111.94,132.713,109.133,96.556,58.3066,0.0432321,1.5312,19.3432,22.0293,4.55617,0.0,0.0
1386,346.25,109.311,128.682,115.165,96.288,64.4792,0.0325312,1.3189,19.6117,20.8083,3.62214,0.0,0.0
1408,351.75,106.082,124.341,115.502,96.0748,68.9916,0.0234156,1.11049,19.8549,19.8074,2.99112,0.0,0.0
1430,357.25,103.24,119.365,113.704,95.9321,70.776,0.0187959,0.942584,20.0362,19.0267,2.74704,0.0,0.0
1452,362.75,99.7367,114.794,115.058,95.875,76.3535,0.015262,0.823986,20.1555,18.266,2.05649,0.0,0.0
1474,368.25,96.0825,109.26,115.784,95.9075,78.0882,0.0123343,0.716113,20.2792,17.6155,1.85663,0.0,0.0
1496,373.75,93.3054,105.477,118.539,96.0439,80.5964,0.0100096,0.634382,20.3634,17.045,1.5839,0.0,0.0
1518,379.25,89.5743,100.762,117.832,96.2524,83.4177,0.00864076,0.561507,20.4458,16.5846,1.2927,0.0,0.0
1540,384.75,86.6576,96.0517,124.064,96.4858,89.1514,0.00783461,0.49173,20.5172,16.1742,0.71413,0.0,0.0
1562,390.25,83.9402,91.9537,120.504,96.7772,91.229,0.00836996,0.410542,20.624,15.934,0.53328,0.0,0.0
1584,395.75,80.9118,87.4127,125.936,97.0174,93.692,0.0113971,0.321047,20.7195,15.7738,0.31504,0.0,0.0
1606,401.25,76.9269,82.8513,128.039,97.2715,93.8821,0.0134849,0.252557,20.784,15.7038,0.320361,0.0,0.0
1628,406.75,74.2245,78.7401,124.426,97.4566,94.9559,0.0146258,0.206592,20.8232,15.6437,0.234807,0.0,0.0
1650,412.25,71.7919,75.4256,129.386,97.5704,94.9487,0.0151203,0.177578,20.8442,15.5537,0.246026,0.0,0.0
1672,417.75,68.3304,71.6434,129.201,97.6497,95.1998,0.0154983,0.158832,20.855,15.5136,0.229511,0.0,0.0
1694,423.25,67.0528,69.2384,129.484,97.6695,95.1599,0.0151045,0.149088,20.8604,15.4636,0.235131,0.0,0.0
1716,428.75,64.1701,66.0556,130.477,97.6346,95.9868,0.0152403,0.142976,20.8641,15.3735,0.153753,0.0,0.0
1738,434.25,63.4666,65.0195,132.518,97.543,94.715,0.0153442,0.138333,20.868,15.3435,0.265756,0.0,0.0
1760,439.75,61.9222,63.0368,123.905,97.4582,94.8076,0.0151439,0.13526,20.8721,15.2934,0.249072,0.0,0.0
1782,445.25,61.2296,61.7173,126.707,97.3702,95.598,0.0150733,0.13337,20.8731,15.2434,0.16592,0.0,0.0
1804,450.75,59.7192,60.163,131.625,97.3068,95.992,0.0144934,0.131933,20.874,15.2134,0.122877,0.0,0.0
1826,456.25,59.0589,59.2001,130.809,97.6132,96.0635,0.0144853,0.131196,20.874,15.1433,0.14455,0.0,0.0
1848,461.75,58.0426,57.6308,129.949,97.8296,95.9303,0.0144407,0.129992,20.8739,15.0933,0.177092,0.0,0.0
1870,467.25,57.362,57.0942,129.841,97.9739,95.1715,0.01407,0.129741,20.8739,15.0232,0.262134,0.0,0.0
1892,472.75,56.4931,55.5716,131.655,98.0104,96.5521,0.0141589,0.129353,20.8739,14.9631,0.13541,0.0,0.0
1914,478.25,56.105,55.014,130.8,97.9569,95.7003,0.014082,0.128689,20.8743,14.9031,0.210513,0.0,0.0
1936,483.75,54.9155,54.5208,132.395,97.7769,96.3756,0.0141465,0.127888,20.8758,14.8831,0.130395,0.0,0.0
1958,489.25,53.7632,52.9515,129.16,97.5141,95.8885,0.0141565,0.127395,20.8758,14.833,0.151846,0.0,0.0
1980,494.75,54.0459,52.4966,130.143,97.3555,96.5596,0.0143034,0.127237,20.8756,14.763,0.0741513,0.0,0.0
2002,500.25,53.0109,52.747,131.894,97.4701,95.2001,0.0139365,0.126581,20.8767,14.7029,0.21285,0.0,0.0
2024,505.75,52.9403,52.3549,129.567,97.6287,96.5096,0.0139608,0.125765,20.8789,14.7029,0.10414,0.0,0.0
2046,511.25,52.2737,52.3622,130.104,97.7769,96.5611,0.0141018,0.125539,20.8788,14.6529,0.113021,0.0,0.0
2068,516.75,51.6667,51.1621,132.365,97.9208,96.2924,0.013771,0.12538,20.8787,14.5728,0.151478,0.0,0.0
2090,522.25,51.2412,51.436,131.006,97.9937,97.1814,,0.12518,,14.5328,0.0751925,0.0,0.0
2112,527.75,50.8651,50.1698,128.652,98.0183,96.8291,,,,14.4927,0.110262,0.0,0.0
2128,531.75,50.7262,50.2065,133.67,98.0239,97.1885,,,,14.4427,0.0773045,0.0,0.0