Folder: fsri_materials_database/01_Data/PET/Cone (part 4)

File: PET_Cone_HF50Scan_220207_R2.csv
Names,Time,Stack TC,Smoke TC,Exh Press,Smoke Comp,Smoke Meas,CO Meter,CO2 Meter,O2 Meter,Sample Mass,Ext Coeff,Start Test,Flame Verif
Chan Gain,,500,500,1,1,1,1,1,1,1,1,1.0,1.0
Offset,,0,0,0.134889,0,0,0,0,0,0,0,0.0,0.0
Gain,,1,1,25.011,12.9892,12.3331,1,1,1,1.00088,1.02973,1.0,1.0
Units,sec,C,C,Pa,%,%,%,%,%,g,/m,,
Baseline,,26.8673,28.796,156.242,96.8045,97.4984,-0.00128472,0.0909407,20.9341,-0.212895,-0.0644992,,
21,5,24.6351,26.0927,153.022,97.2077,97.9868,-0.00125543,0.0954009,20.9297,961.624,-0.0721103,0.0,0.0
42,10.25,24.7204,25.4973,152.709,97.2438,97.918,-0.00130691,0.095441,20.9298,961.604,-0.0624081,0.0,0.0
63,15.5,24.993,26.7501,155.076,97.2568,97.8701,-0.00102725,0.0949377,20.928,961.624,-0.056782,0.0,0.0
84,20.75,25.1505,26.9781,154.879,97.2909,97.8634,-0.00127144,0.0938151,20.9282,961.614,-0.0529908,0.0,0.0
105,26,25.7075,26.8895,153.295,97.2973,97.9138,-0.00153941,0.093063,20.9288,961.594,-0.0570567,0.0,0.0
126,31.25,25.5048,26.9809,155.85,97.3,97.9567,-0.00123901,0.0923992,20.9291,961.604,-0.0607564,0.0,0.0
147,36.5,25.3338,27.3952,154.046,97.3052,98.0798,-0.0011052,0.0913236,20.935,961.604,-0.0716202,0.0,0.0
168,41.75,25.9916,27.4968,154.585,97.3226,97.9721,-0.00104383,0.090404,20.9373,961.614,-0.060081,0.0,0.0
189,47,26.379,27.5377,157.381,97.3203,97.8299,-0.00124449,0.0900162,20.9364,961.574,-0.0471758,0.0,0.0
210,52.25,26.2796,28.0527,151.472,97.329,97.7113,-0.0012795,0.0901777,20.9358,961.534,-0.0354132,0.0,0.0
231,57.5,26.5489,28.0703,155.49,97.3353,97.2909,-0.00112273,0.0902518,20.9352,961.554,0.00412315,0.0,0.0
252,62.75,26.5412,28.3259,152.137,97.3448,96.9349,-0.00105703,0.0905608,20.9363,961.524,0.0381227,0.0,0.0
273,68,26.829,28.3905,157.477,97.3536,96.56,-0.000901123,0.0905788,20.9369,961.494,0.0739313,0.0,0.0
294,73.25,26.4033,28.456,152.827,97.3714,96.1418,-0.000344287,0.0906836,20.9373,961.474,0.114788,0.0,0.0
315,78.5,26.5798,28.6592,152.639,97.3682,95.7598,-4.62156e-05,0.0910871,20.9373,961.474,0.150458,0.0,0.0
336,83.75,26.8673,28.9719,156.165,97.3797,96.9499,0.000440445,0.0981769,20.9255,961.364,0.0399561,0.0,0.0
357,89,28.8347,31.093,142.811,97.3888,71.4715,0.00455474,0.222257,20.7332,960.844,2.79484,0.0,1.0
378,94.25,32.6601,36.5391,128.732,97.3829,59.8867,0.0116511,0.448126,20.4285,960.033,4.39168,0.0,0.0
399,99.5,37.8433,43.4171,136.502,97.4019,58.7455,0.0193958,0.648589,20.1818,959.022,4.56723,0.0,0.0
420,104.75,42.8726,50.9302,126.549,97.4198,56.5015,0.0289283,0.853588,19.9511,957.621,4.92068,0.0,0.0
441,110,49.7783,58.9842,117.005,97.4158,51.2982,0.037066,1.04666,19.7389,956.199,5.79299,0.0,0.0
462,115.25,55.6475,67.0414,117.067,97.419,52.27,0.03986,1.17113,19.611,954.588,5.62377,0.0,0.0
483,120.5,61.0273,73.749,130.675,97.4202,55.605,0.0404724,1.21841,19.5783,953.097,5.06519,0.0,0.0
504,125.75,65.1171,79.5188,125.625,97.4146,52.3776,0.0385575,1.23232,19.5699,951.625,5.60478,0.0,0.0
525,131,68.7949,83.7508,117.325,97.4198,53.9012,0.0393503,1.23606,19.5727,950.164,5.34626,0.0,0.0
546,136.25,71.269,87.3411,123.808,97.4198,57.0921,0.0376155,1.24645,19.5679,948.773,4.82676,0.0,0.0
567,141.5,73.4957,90.343,123.29,97.4233,58.4542,0.0350006,1.20939,19.6234,947.352,4.61412,0.0,0.0
588,146.75,75.0748,92.0687,129.291,97.417,58.336,0.0341011,1.15633,19.6823,946.071,4.63181,0.0,0.0
609,152,76.9281,94.0256,131.843,97.4075,59.6161,0.0329094,1.13884,19.6937,944.699,4.43487,0.0,0.0
630,157.25,77.3024,94.4855,122.956,97.4099,58.0319,0.0316237,1.12853,19.7007,943.338,4.67836,0.0,0.0
651,162.5,79.3679,96.8313,114.16,97.4023,56.3344,0.0336464,1.17514,19.6169,941.927,4.94582,0.0,0.0
672,167.75,82.913,101.735,122,97.4051,54.4202,0.0377579,1.36502,19.3571,940.205,5.25834,0.0,0.0
693,173,86.5804,106.486,115.406,97.3972,54.9467,0.039658,1.50725,19.2183,938.434,5.17063,0.0,0.0
714,178.25,90.9502,112.156,117.163,97.3825,53.0652,0.0410496,1.58485,19.1559,936.692,5.48399,0.0,0.0
735,183.5,94.0231,115.248,119.678,97.3801,52.9647,0.0401017,1.58865,19.1721,935.021,5.50089,0.0,0.0
756,188.75,95.327,117.68,115.563,97.3718,57.2626,0.0395925,1.56074,19.2028,933.409,4.79538,0.0,0.0
777,194,97.2604,119.688,122.251,97.3563,57.849,0.0386777,1.51467,19.2575,931.778,4.70192,0.0,0.0
798,199.25,98.7628,120.909,122.947,97.3726,53.5233,0.038934,1.47447,19.2977,930.307,5.40544,0.0,0.0
819,204.5,99.5022,121.971,111.531,97.3508,53.6283,0.0373978,1.44767,19.3316,928.775,5.38571,0.0,0.0
840,209.75,100.024,122.747,114,97.344,55.2072,0.03713,1.4241,19.357,927.214,5.12299,0.0,0.0
861,215,100.946,123.299,122.406,97.3544,56.4481,0.0363764,1.40781,19.3767,925.723,4.92316,0.0,0.0
882,220.25,101.109,123.02,115.435,97.3504,57.4459,0.034445,1.37361,19.4159,924.261,4.76453,0.0,0.0
903,225.5,101.42,122.643,116.462,97.3555,59.085,0.0336666,1.36134,19.4306,922.71,4.51088,0.0,0.0
924,230.75,101.594,122.938,120.018,97.3694,58.9416,0.0340809,1.34714,19.4483,921.309,4.53412,0.0,0.0
945,236,102.335,123.122,115.663,97.3777,58.3066,0.0346869,1.33898,19.4519,919.807,4.63272,0.0,0.0
966,241.25,101.816,122.503,109.265,97.3861,58.1971,0.0347683,1.34503,19.4426,918.386,4.65048,0.0,0.0
987,246.5,102.954,123.817,119.982,97.4087,59.6895,0.0339651,1.3449,19.4445,916.965,4.42387,0.0,0.0
1008,251.75,103.344,123.47,115.977,97.4237,57.7029,0.035303,1.3386,19.4492,915.484,4.731,0.0,0.0
1029,257,103.879,124.095,115.737,97.4249,57.0187,0.0368962,1.3915,19.3813,913.902,4.83886,0.0,0.0
1050,262.25,105.168,125.544,119.553,97.415,58.1087,0.0362452,1.40994,19.3687,912.401,4.6669,0.0,0.0
1071,267.5,105.481,126.144,123.307,97.3928,61.583,0.0352975,1.3951,19.3843,910.92,4.1403,0.0,0.0
1092,272.75,106.09,126.558,111.29,97.3421,58.3209,0.0377997,1.41575,19.361,909.368,4.62719,0.0,0.0
1113,278,108.608,128.784,117.912,97.2893,52.0614,0.0446475,1.52729,19.2072,907.517,5.64785,0.0,0.0
1134,283.25,110.225,131.499,115.077,97.2231,53.6844,0.0520638,1.62419,19.1033,905.565,5.36442,0.0,0.0
1155,288.5,111.937,133.263,110.589,97.1403,49.9978,0.0577128,1.75578,18.9532,903.533,5.99934,0.0,0.0
1176,293.75,115.24,138.194,102.11,97.0559,52.4608,0.0647546,1.93202,18.7599,901.261,5.55713,0.0,0.0
1197,299,119.114,143.255,108.844,96.9548,46.9864,0.0763298,2.10561,18.5637,898.909,6.54319,0.0,0.0
1218,304.25,121.507,146.294,116.923,96.8466,45.2212,0.0855821,2.19725,18.4857,896.557,6.87899,0.0,0.0
1239,309.5,122.164,145.912,110.138,96.7189,48.2382,0.0792479,2.07765,18.6436,894.355,6.28369,0.0,0.0
1260,314.75,121.384,144.884,116.925,96.5782,51.1393,0.0642213,1.89432,18.8628,892.474,5.74301,0.0,0.0
1281,320,120.205,142.858,114.369,96.4117,55.8497,0.0511242,1.71743,19.0684,890.742,4.93155,0.0,0.0
1302,325.25,117.404,139.184,120.757,96.2547,60.8389,0.0364344,1.50259,19.3497,889.381,4.14393,0.0,0.0
1323,330.5,114.563,134.218,121.939,96.0649,62.5548,0.0286964,1.28505,19.582,888.16,3.87487,0.0,0.0
1344,335.75,111.294,129.546,126.025,95.8746,65.5184,0.0236426,1.10774,19.7754,887.149,3.43885,0.0,0.0
1365,341,107.743,124.797,124.46,95.699,65.5741,0.0203564,0.977592,19.9107,886.188,3.41462,0.0,0.0
1386,346.25,103.764,119.033,130.282,95.54,68.5524,0.0176351,0.867185,20.0479,885.337,2.99839,0.0,0.0
1407,351.5,100.348,114.216,128.829,95.4041,71.8133,0.0150216,0.770595,20.1589,884.627,2.56577,0.0,0.0
1428,356.75,97.0443,109.435,137.99,95.3109,75.7261,0.0123279,0.687084,20.2534,884.016,2.07773,0.0,0.0
1449,362,93.9716,104.802,138.71,95.2709,78.7021,0.00998253,0.618915,20.3284,883.385,1.72575,0.0,0.0
1470,367.25,90.7064,100.416,138.1,95.2895,83.3387,0.00806254,0.539049,20.4256,882.965,1.21045,0.0,0.0
1491,372.5,87.3209,95.809,140.5,95.3367,88.3644,0.00651246,0.461019,20.5131,882.625,0.685995,0.0,0.0
1512,377.75,83.8939,91.1665,140.992,95.454,92.1756,0.00630495,0.367833,20.6304,882.445,0.315688,0.0,0.0
1533,383,80.3333,86.1117,140.97,95.5682,93.5802,0.00782437,0.279851,20.7173,882.355,0.189877,0.0,0.0
1554,388.25,76.5423,81.3642,145.614,95.7006,93.0115,0.00895769,0.221407,20.7727,882.265,0.257442,0.0,0.0
1575,393.5,73.7047,77.2051,145.67,95.919,93.8813,0.00989535,0.191595,20.8012,882.215,0.193957,0.0,0.0
1596,398.75,70.9759,73.5553,147.238,96.1648,94.1568,0.00995408,0.176504,20.8115,882.134,0.190602,0.0,0.0
1617,404,68.5506,70.5276,139.982,96.382,94.7244,0.0100641,0.167825,20.819,882.104,0.156697,0.0,0.0
1638,409.25,66.7038,67.8246,143.967,96.5834,95.0805,0.0102161,0.160043,20.8268,882.074,0.141661,0.0,0.0
1659,414.5,65.1405,65.8332,141.269,96.5639,94.3428,0.0102533,0.154674,20.8313,882.014,0.210199,0.0,0.0
1680,419.75,63.2585,63.8677,142.652,96.7023,95.6247,0.0102502,0.151119,20.8358,881.964,0.101219,0.0,0.0
1701,425,62.3136,61.5557,148.758,96.8367,95.1964,0.0101928,0.149062,20.8383,881.904,0.154314,0.0,0.0
1722,430.25,59.988,60.1409,143.857,96.9159,94.269,0.0100194,0.14741,20.8408,881.864,0.250132,0.0,0.0
1743,435.5,59.6033,59.1608,145.178,96.971,95.6416,0.0102935,0.146514,20.8428,881.794,0.12469,0.0,0.0
1764,440.75,58.5775,57.6788,149.022,96.9429,95.4459,0.0103297,0.145602,20.8444,881.744,0.14057,0.0,0.0
1785,446,57.7324,56.9585,144.159,96.8688,95.0714,0.0102764,0.14458,20.8459,881.724,0.169172,0.0,0.0
1806,451.25,57.2293,56.0754,148.84,96.7617,95.5637,0.0102478,0.144108,20.8473,881.694,0.112534,0.0,0.0
1827,456.5,56.2988,55.3095,144.996,96.6836,95.0462,0.0101468,0.143588,20.8494,881.614,0.15429,0.0,0.0
1848,461.75,54.8661,54.0972,144.09,96.8731,95.5129,0.0103346,0.143145,20.8506,881.584,0.12773,0.0,0.0
1869,467,54.2011,53.3831,144.415,97.1756,96.0383,0.0101684,0.142946,20.8508,881.544,0.106334,0.0,0.0
1890,472.25,53.7992,53.0372,147.027,97.3619,95.8584,0.00994372,0.142325,20.8508,881.514,0.140572,0.0,0.0
1911,477.5,53.5095,52.6337,148.247,97.4336,95.9431,0.0101226,0.141833,20.8509,881.434,0.139249,0.0,0.0
1932,482.75,53.2882,51.8857,147.804,97.3448,95.6699,0.00992349,0.141141,20.8523,881.414,0.156776,0.0,0.0
1953,488,52.2766,51.2956,146.714,97.1122,96.7098,0.0101775,0.140741,20.8524,881.334,0.037504,0.0,0.0
1974,493.25,51.3936,50.9804,151.841,96.8168,95.5457,0.010119,0.140983,20.8525,881.314,0.119383,0.0,0.0
1995,498.5,50.8966,50.3607,144.174,96.9191,96.5649,0.00990985,0.14131,20.8517,881.284,0.0330742,0.0,0.0
2016,503.75,50.9928,49.2309,146.413,97.0836,96.5995,0.00990642,0.140633,20.8538,881.234,0.045155,0.0,0.0
2037,509,50.1392,49.761,149.612,97.2537,96.6703,,,,881.174,0.0543484,0.0,0.0
2058,514.25,50.1605,49.1679,145.742,97.4007,96.467,,,,881.144,0.0870081,0.0,0.0
2067,516.5,49.9953,48.7882,152.33,97.4471,96.6876,,,,881.114,0.0706797,0.0,0.0

File: PET_Cone_HF50Scan_220207_R3.csv
Names,Time,Stack TC,Smoke TC,Exh Press,Smoke Comp,Smoke Meas,CO Meter,CO2 Meter,O2 Meter,Sample Mass,Ext Coeff,Start Test,Flame Verif
Chan Gain,,500,500,1,1,1,1,1,1,1,1,1.0,1.0
Offset,,0,0,0.134889,0,0,0,0,0,0,0,0.0,0.0
Gain,,1,1,25.011,12.9892,12.3331,1,1,1,1.00088,1.02973,1.0,1.0
Units,sec,C,C,Pa,%,%,%,%,%,g,/m,,
Baseline,,28.8517,30.4125,155.51,98.0464,98.4532,-0.00153283,0.0556303,21.0123,-0.529799,-0.0373917,,
21,5,24.8179,25.7161,153.914,97.4344,97.9868,-0.00157101,0.0552439,21.0147,960.984,-0.0510658,0.0,0.0
42,10.25,25.4521,26.0044,153.914,97.3995,97.8596,-0.00159719,0.0536008,21.0168,961.054,-0.0425659,0.0,0.0
63,15.5,25.7807,27.0128,153.264,97.3337,97.6417,-0.00169734,0.0521985,21.0179,961.034,-0.0285335,0.0,0.0
84,20.75,26.053,26.7525,157.113,97.2037,97.7975,-0.00150801,0.0526248,21.0199,960.984,-0.0550095,0.0,0.0
105,26,25.9279,27.0152,156.723,96.9972,97.5811,-0.00150722,0.052494,21.0221,961.054,-0.0542111,0.0,0.0
126,31.25,26.7113,27.8837,157.422,96.755,97.3203,-0.00157495,0.0512322,21.0231,961.024,-0.0526183,0.0,0.0
147,36.5,26.3954,27.8452,152.845,96.5053,97.1859,-0.00172361,0.0499226,21.0249,960.984,-0.0634821,0.0,0.0
168,41.75,27.0106,27.8287,155.643,96.2567,96.7437,-0.00158529,0.0494496,21.0235,961.004,-0.0455783,0.0,0.0
189,47,26.9927,28.4432,151.915,96.0954,96.2762,-0.00154951,0.0502436,21.0221,961.024,-0.0169796,0.0,0.0
210,52.25,26.0982,27.7361,149.754,96.0336,96.1204,-0.00135233,0.0507406,21.0226,960.964,-0.00816249,0.0,0.0
231,57.5,27.1087,29.2452,153.448,96.0486,95.5265,-0.000871487,0.0507618,21.0228,960.954,0.0492394,0.0,0.0
252,62.75,26.8941,28.7812,155.417,96.1485,95.4745,-0.000813766,0.050876,21.0248,960.924,0.0635421,0.0,0.0
273,68,27.1694,29.3268,155.045,96.3756,95.0778,-0.000766745,0.0512485,21.0257,960.944,0.122464,0.0,0.0
294,73.25,27.172,28.3619,159.331,96.6698,94.8569,-0.000552012,0.0522148,21.0242,960.974,0.171003,0.0,0.0
315,78.5,27.529,29.0837,157.338,97.0428,94.3307,-0.000238233,0.0545911,21.0199,960.934,0.256034,0.0,0.0
336,83.75,28.179,29.6941,147.853,97.4289,80.5463,0.00195866,0.128557,20.8912,960.603,1.71884,0.0,1.0
357,89,31.2738,33.8638,142.21,97.7408,66.2568,0.00850088,0.3425,20.626,959.743,3.51175,0.0,0.0
378,94.25,36.466,40.4763,123.626,97.941,57.2874,0.0173464,0.601227,20.2808,958.902,4.84411,0.0,0.0
399,99.5,42.535,48.8356,132.333,98.0631,48.7697,0.0302591,0.867307,19.9721,957.611,6.30939,0.0,0.0
420,104.75,49.6428,58.1927,117.524,98.1079,50.4795,0.0390587,1.12195,19.69,955.919,6.00225,0.0,0.0
441,110,56.4502,67.3866,126.869,98.0492,55.9475,0.039127,1.22399,19.6227,954.428,5.06786,0.0,0.0
462,115.25,60.7089,72.3755,129.201,97.9402,48.2341,0.0385445,1.18302,19.7036,952.937,6.39781,0.0,0.0
483,120.5,63.6856,77.1368,125.67,97.8177,48.5145,0.038376,1.14656,19.7439,951.495,6.33415,0.0,0.0
504,125.75,66.671,80.2551,127.212,97.6521,51.1864,0.0354104,1.10576,19.7935,950.094,5.83458,0.0,0.0
525,131,68.236,83.0194,125.676,97.5335,52.1092,0.0368691,1.12558,19.751,948.673,5.6622,0.0,0.0
546,136.25,71.1972,87.1078,118.347,97.4317,51.8853,0.0406271,1.21945,19.6354,947.041,5.69167,0.0,0.0
567,141.5,74.8711,91.1504,124.75,97.3706,48.6172,0.0437713,1.29323,19.557,945.48,6.27365,0.0,0.0
588,146.75,77.9761,94.8392,120.285,97.6362,50.5104,0.0444025,1.34936,19.489,943.839,5.95319,0.0,0.0
609,152,81.2671,99.185,120.74,97.8308,49.9492,0.0461407,1.45767,19.3423,942.127,6.0721,0.0,0.0
630,157.25,85.0492,104.355,117.551,97.9149,53.2079,0.0466019,1.56401,19.2509,940.336,5.50899,0.0,0.0
651,162.5,88.0793,109,125.982,97.9644,52.9241,0.0431881,1.51376,19.3274,938.604,5.56186,0.0,0.0
672,167.75,90.9423,112.305,111.671,97.9743,52.9674,0.0421503,1.50661,19.333,936.933,5.55539,0.0,0.0
693,173,93.5894,114.428,120.246,97.9537,55.4131,0.0410511,1.47483,19.371,935.331,5.14576,0.0,0.0
714,178.25,95.0422,116.819,118.661,97.9161,56.9641,0.0383762,1.42195,19.4364,933.79,4.89293,0.0,0.0
735,183.5,96.0513,116.721,115.777,97.828,53.5308,0.038173,1.38023,19.4798,932.268,5.44632,0.0,0.0
756,188.75,96.6986,118.738,119.498,97.7095,54.8135,0.0392134,1.38219,19.4735,930.697,5.22148,0.0,0.0
777,194,97.5862,119.102,115.487,97.5914,52.1266,0.0391402,1.3752,19.4825,929.216,5.66456,0.0,0.0
798,199.25,98.825,119.809,119.386,97.484,55.8576,0.0379629,1.35322,19.5159,927.634,5.03017,0.0,0.0
819,204.5,98.6952,119.663,124.021,97.327,55.8835,0.0348581,1.29472,19.5826,926.203,5.01142,0.0,0.0
840,209.75,98.902,119.044,115.591,97.1974,53.8545,0.032815,1.24407,19.6376,924.812,5.33345,0.0,0.0
861,215,98.4533,118.91,125.824,97.2061,55.736,0.0314066,1.22997,19.6549,923.441,5.02407,0.0,0.0
882,220.25,99.035,118.926,117.36,97.2101,55.0514,0.0308586,1.21465,19.665,922.08,5.13608,0.0,0.0
903,225.5,99.4485,118.909,124.183,97.22,56.8674,0.0321768,1.22468,19.6492,920.698,4.84384,0.0,0.0
924,230.75,99.5899,119.366,120.763,97.2235,55.9885,0.0326456,1.24588,19.6265,919.297,4.98485,0.0,0.0
945,236,100.283,119.433,124.731,97.2303,56.4605,0.0321487,1.23356,19.6469,917.916,4.90966,0.0,0.0
966,241.25,100.445,119.678,117.183,97.2335,57.3172,0.0334276,1.24614,19.6202,916.485,4.77393,0.0,0.0
987,246.5,101.406,120.406,121.275,97.2418,57.7383,0.0338978,1.28495,19.5754,914.943,4.70858,0.0,0.0
1008,251.75,102.171,121.623,109.932,97.2525,55.3434,0.0367015,1.35179,19.5067,913.412,5.09222,0.0,0.0
1029,257,103.196,123.057,129.118,97.2473,56.8233,0.035288,1.34823,19.5139,911.891,4.85338,0.0,0.0
1050,262.25,103.912,123.108,119.596,97.2592,57.3446,0.0346926,1.35457,19.4936,910.359,4.772,0.0,0.0
1071,267.5,105.268,124.748,112.966,97.258,51.8529,0.0411934,1.43734,19.3821,908.718,5.68119,0.0,0.0
1092,272.75,107.7,127.349,117.674,97.2549,48.5201,0.0534269,1.63877,19.1502,906.726,6.28097,0.0,0.0
1113,278,110.667,131.794,107.782,97.2604,46.1241,0.0648482,1.90374,18.8432,904.604,6.73892,0.0,0.0
1134,283.25,114.357,136.555,113.483,97.2529,47.0417,0.0722508,2.09194,18.6597,902.152,6.56029,0.0,0.0
1155,288.5,117.778,140.993,107.573,97.2497,48.5845,0.0705128,2.12282,18.6527,899.98,6.26851,0.0,0.0
1176,293.75,119.771,143.489,109.285,97.2533,51.1325,0.061921,2.04396,18.7553,897.768,5.80712,0.0,0.0
1197,299,120.59,144.942,117.689,97.2426,57.9024,0.0489466,1.86364,19.0046,895.977,4.68301,0.0,0.0
1218,304.25,120.058,142.612,120.458,97.2307,60.0022,0.0393822,1.61186,19.2806,894.335,4.36014,0.0,0.0
1239,309.5,117.504,140.241,119.458,97.2208,60.9831,0.0333047,1.38861,19.5273,892.954,4.21276,0.0,0.0
1260,314.75,114.224,135.866,120.243,97.2204,63.201,0.0282782,1.19545,19.7464,891.683,3.89003,0.0,0.0
1281,320,111.388,130.519,126.018,97.2081,62.2274,0.0255035,1.069,19.8681,890.532,4.02913,0.0,0.0
1302,325.25,107.909,126.45,128.351,97.1902,64.8469,0.0227366,0.993942,19.9575,889.391,3.65501,0.0,0.0
1323,330.5,104.735,122.038,130.28,97.4352,64.2142,0.0208254,0.918967,20.0467,888.3,3.76631,0.0,0.0
1344,335.75,101.896,117.533,128.315,97.6088,69.4873,0.0183803,0.837256,20.1403,887.399,3.06954,0.0,0.0
1365,341,98.6902,112.884,129.997,97.7408,72.0564,0.0149214,0.736393,20.2548,886.608,2.75381,0.0,0.0
1386,346.25,95.5665,108.489,130.976,97.8459,75.3237,0.0118646,0.643107,20.3588,885.918,2.36295,0.0,0.0
1407,351.5,92.4474,103.784,129.773,97.9157,78.0016,0.00975137,0.563276,20.4488,885.327,2.05383,0.0,0.0
1428,356.75,88.8511,99.0145,136.844,97.9549,81.6246,0.00781372,0.498576,20.5191,884.797,1.64735,0.0,0.0
1449,362,86.095,95.6529,138.386,97.9727,86.0877,0.00665019,0.436344,20.5882,884.426,1.16814,0.0,0.0
1470,367.25,83.3471,91.3534,140.099,97.9676,91.1756,0.00604265,0.374064,20.6668,884.116,0.649,0.0,0.0
1491,372.5,80.4639,87.1618,143.833,97.9505,94.409,0.00627353,0.29049,20.7646,883.896,0.332642,0.0,0.0
1512,377.75,77.2846,82.2476,142.395,97.9093,95.5822,0.00850732,0.208844,20.8499,883.806,0.217287,0.0,0.0
1533,383,74.0404,78.4809,144.725,97.8828,94.3093,0.0108138,0.162191,20.888,883.756,0.335937,0.0,0.0
1554,388.25,71.335,74.5655,143.842,97.8015,95.715,0.0113609,0.142245,20.9029,883.686,0.194788,0.0,0.0
1575,393.5,68.2903,71.1399,144.676,97.7416,94.9619,0.0117923,0.133044,20.9093,883.656,0.260612,0.0,0.0
1596,398.75,66.6275,68.4173,147.375,97.6667,95.7376,0.0120644,0.12892,20.9109,883.616,0.180201,0.0,0.0
1617,404,64.8076,65.9201,145.347,97.5601,94.6073,0.0120638,0.124144,20.918,883.536,0.277606,0.0,0.0
1638,409.25,63.1147,63.9824,148.402,97.4598,95.9661,0.0119754,0.11993,20.9244,883.456,0.139514,0.0,0.0
1659,414.5,61.723,62.2415,146.459,97.3516,94.846,0.0119975,0.116741,20.9267,883.426,0.235526,0.0,0.0
1680,419.75,60.6348,61.0316,145.056,97.3758,94.4131,0.0118589,0.114942,20.9293,883.346,0.279085,0.0,0.0
1701,425,59.5786,59.1758,147.311,97.4051,94.1049,0.0117462,0.114177,20.931,883.265,0.311345,0.0,0.0
1722,430.25,58.7053,58.089,144.385,97.4344,96.0018,0.0113049,0.113682,20.9331,883.245,0.133796,0.0,0.0
1743,435.5,56.4291,56.1274,149.885,97.4602,95.9096,0.0114274,0.113143,20.9318,883.165,0.144866,0.0,0.0
1764,440.75,56.0961,56.0887,146.782,97.501,95.4975,0.0112748,0.113172,20.9317,883.135,0.187547,0.0,0.0
1785,446,56.05,54.9337,146.588,97.5767,95.8072,0.0114003,0.114197,20.931,883.085,0.165307,0.0,0.0
1806,451.25,54.8177,54.3639,146.393,97.6092,95.1234,0.0110963,0.114123,20.9303,883.045,0.233022,0.0,0.0
1827,456.5,54.4314,53.3481,147.766,97.6794,96.1919,0.0104913,0.1137,20.9318,882.975,0.138613,0.0,0.0
1848,461.75,53.6263,52.2077,146.158,97.7476,96.5897,0.0104196,0.112448,20.9351,882.925,0.107636,0.0,0.0
1869,467,52.7484,52.1127,148.447,97.7979,95.6149,0.0102663,0.110632,20.9403,882.875,0.203911,0.0,0.0
1890,472.25,51.9938,51.6219,148.327,97.8808,96.9138,0.0101678,0.109937,20.9406,882.795,0.0896813,0.0,0.0
1911,477.5,51.7282,51.0935,151.179,97.9422,96.6552,0.0105824,0.108826,20.9403,882.765,0.119481,0.0,0.0
1932,482.75,51.6153,50.164,148.868,97.9858,96.461,0.0104732,0.108097,20.9396,882.715,0.141669,0.0,0.0
1953,488,51.1259,49.6387,145.828,98.0203,96.5295,0.0104419,0.10776,20.9397,882.645,0.138436,0.0,0.0
1974,493.25,49.7084,48.8989,151.093,98.0552,96.732,0.010371,0.106489,20.9443,882.625,0.122722,0.0,0.0
1995,498.5,50.3411,48.7837,142.938,98.0786,96.6737,0.0102509,0.104718,20.9462,882.545,0.130325,0.0,0.0
2016,503.75,49.1933,48.0923,147.069,98.0722,96.3963,,,,882.505,0.155696,0.0,0.0
2037,509,49.0338,48.1408,146.228,98.0932,96.741,,,,882.545,0.125383,0.0,0.0
2041,510,49.416,47.8237,149.099,98.0889,96.5837,,,,882.525,0.139683,0.0,0.0

File: PET_Cone_HF75Scalar_220207_R1.csv
LABORATORY,FSRI
TEST IDENT,PET_HF75_1
OPERATOR,Dow
MATERIAL,PET
ORIENTATION,Horizontal
HEAT FLUX,75
SURF AREA,0.01
C FACTOR,0.0390564
SPEC HOLDER DIFF,303.2
SPECIMEN MASS,90.3
SCAN TIME,0.25
O2 DELAY TIME,11
CO DELAY TIME,11
CO2 DELAY TIME,8
FLOW FACTOR,1
SCAN COUNT,2012
TIME TO IGN,42.25
END OF TEST SCAN,1532
END OF TEST TIME,383
TEST STATUS,1
PRE TEST CMT,Dimensions: 99.15 x 97.98 x 6.62 mm

File: PET_Cone_HF75Scalar_220207_R2.csv
LABORATORY,FSRI
TEST IDENT,PET_HF75_2
OPERATOR,Dow
MATERIAL,PET
ORIENTATION,Horizontal
HEAT FLUX,75
SURF AREA,0.01
C FACTOR,0.0390564
SPEC HOLDER DIFF,303.3
SPECIMEN MASS,89
SCAN TIME,0.25
O2 DELAY TIME,11
CO DELAY TIME,11
CO2 DELAY TIME,8
FLOW FACTOR,1
SCAN COUNT,1884
TIME TO IGN,36.5
END OF TEST SCAN,1404
END OF TEST TIME,351
TEST STATUS,1
PRE TEST CMT,Dimensions: 96.11 x 98.32 x 6.65 mm

File: PET_Cone_HF75Scalar_220207_R3.csv
LABORATORY,FSRI
TEST IDENT,PET_HF75_3
OPERATOR,Dow
MATERIAL,PET
ORIENTATION,Horizontal
HEAT FLUX,75
SURF AREA,0.01
C FACTOR,0.0390564
SPEC HOLDER DIFF,303.8
SPECIMEN MASS,90.6
SCAN TIME,0.25
O2 DELAY TIME,11
CO DELAY TIME,11
CO2 DELAY TIME,8
FLOW FACTOR,1
SCAN COUNT,1948
TIME TO IGN,39.75
END OF TEST SCAN,1468
END OF TEST TIME,367
TEST STATUS,1
PRE TEST CMT,Dimensions: 97.63 x 99.0 x 6.71 mm
POST TEST CMT,"Sample dripped in foil pan, see test pictures"