Folder: fsri_materials_database/01_Data/PET/Cone (part 6)

File: PET_Cone_HF75Scan_220207_R3.csv
Names,Time,Stack TC,Smoke TC,Exh Press,Smoke Comp,Smoke Meas,CO Meter,CO2 Meter,O2 Meter,Sample Mass,Ext Coeff,Start Test,Flame Verif
Chan Gain,,500,500,1,1,1,1,1,1,1,1,1.0,1.0
Offset,,0,0,0.134889,0,0,0,0,0,0,0,0.0,0.0
Gain,,1,1,25.011,12.9892,12.3331,1,1,1,1.00088,1.02973,1.0,1.0
Units,sec,C,C,Pa,%,%,%,%,%,g,/m,,
Baseline,,38.0328,40.5954,150.648,96.2511,95.5988,-0.00214129,0.0439519,21.0308,-0.224906,0.0614599,,
20,4.75,32.9806,34.1218,151.155,96.954,95.8471,-0.00207929,0.0499118,21.0226,961.274,0.103715,0.0,0.0
40,9.75,33.344,34.808,151.282,97.0095,96.4666,-0.00207991,0.0478812,21.025,961.194,0.0506872,0.0,0.0
60,14.75,33.8811,36.2566,150.28,97.0662,96.6624,-0.00221758,0.0455839,21.0299,961.164,0.0376563,0.0,0.0
80,19.75,34.1515,36.085,149.603,97.1082,96.2103,-0.00212784,0.0440683,21.0331,961.214,0.0839042,0.0,0.0
100,24.75,35.0016,36.5205,149.906,97.1439,96.3899,-0.00195095,0.0437376,21.0342,961.164,0.0703837,0.0,0.0
120,29.75,35.0123,36.8446,152.896,97.155,95.7417,-0.00200493,0.0442965,21.0344,961.184,0.132355,0.0,0.0
140,34.75,35.3359,37.4751,156.281,97.1823,94.074,-0.00149154,0.0463811,21.0317,961.074,0.293626,0.0,0.0
160,39.75,35.3534,38.3429,143.627,97.2469,75.4867,0.00209643,0.131674,20.9098,960.914,2.28796,0.0,1.0
180,44.75,39.2005,43.2141,137.906,97.2854,63.9692,0.010891,0.432436,20.552,960.113,3.78694,0.0,1.0
200,49.75,45.3393,50.5003,118.076,97.3544,46.9457,0.023427,0.753689,20.1783,958.952,6.58816,0.0,0.0
220,54.75,53.8528,62.046,115.177,97.4114,45.0006,0.0380972,1.15506,19.6817,957.34,6.97568,0.0,0.0
240,59.75,62.554,72.7546,104.744,97.4638,45.1094,0.0439547,1.4007,19.4192,955.739,6.95872,0.0,0.0
260,64.75,69.3116,83.3676,117.102,97.4816,45.3638,0.0434867,1.45956,19.3651,954.078,6.90957,0.0,0.0
280,69.75,75.011,90.7807,114.024,97.5018,49.3895,0.0420874,1.45795,19.3759,952.506,6.14345,0.0,0.0
300,74.75,80.0592,97.5213,113.04,97.5173,47.5476,0.0408328,1.41335,19.4293,950.905,6.4882,0.0,0.0
320,79.75,84.0032,102.362,112.672,97.5331,48.1697,0.0409075,1.37875,19.4673,949.434,6.37224,0.0,0.0
340,84.75,87.2593,107.304,117.309,97.5597,49.1705,0.0407933,1.38845,19.4646,947.872,6.18896,0.0,0.0
360,89.75,90.9744,111.28,110.718,97.5835,49.5446,0.0399774,1.37627,19.4752,946.351,6.1227,0.0,0.0
380,94.75,92.7392,114.192,120.362,97.5815,49.1521,0.0397936,1.36462,19.488,944.9,6.19437,0.0,0.0
400,99.75,94.0445,115.428,115.851,97.5791,51.6606,0.040216,1.36366,19.4773,943.408,5.74453,0.0,0.0
420,104.75,96.409,118.146,115.659,97.5573,43.7872,0.0437375,1.42173,19.4152,941.787,7.23611,0.0,0.0
440,109.75,97.7607,120.487,113.821,97.5466,45.8219,0.048281,1.51501,19.3046,940.115,6.82485,0.0,0.0
460,114.75,101.149,123.618,113.91,97.5335,49.5819,0.0493917,1.58245,19.2238,938.324,6.11128,0.0,0.0
480,119.75,103.1875,126.33,108.306,97.5426,43.0265,0.0494104,1.62595,19.1883,936.572,7.39304,0.0,0.0
500,124.75,105.475,129.432,117.879,97.5113,50.8845,0.0456442,1.58596,19.2408,934.991,5.87498,0.0,0.0
520,129.75,105.91,129.685,106.409,97.5244,47.2818,0.0422689,1.46806,19.3579,933.439,6.53948,0.0,0.0
540,134.75,108.034,131.78,105.849,97.503,47.3594,0.0433664,1.50246,19.3269,931.888,6.5227,0.0,0.0
560,139.75,108.188,131.939,121.73,97.4911,48.1257,0.0445963,1.47268,19.3606,930.307,6.37661,0.0,0.0
580,144.75,108.344,131.249,117.528,97.4764,46.8185,0.0458727,1.42956,19.409,928.615,6.62399,0.0,0.0
600,149.75,108.097,130.673,115.673,97.4594,47.8596,0.0441468,1.35506,19.4983,927.104,6.42376,0.0,0.0
620,154.75,107.325,129.534,120.752,97.438,48.4983,0.0403453,1.30904,19.5514,925.653,6.30202,0.0,0.0
640,159.75,106.882,128.681,120.965,97.4249,49.16,0.0354032,1.24665,19.6227,924.261,6.17841,0.0,0.0
660,164.75,105.604,126.159,119.324,97.4039,50.5608,0.0323592,1.18998,19.693,922.97,5.92266,0.0,0.0
680,169.75,105.455,125.449,118.81,97.3781,50.7328,0.0304311,1.13452,19.7529,921.649,5.8896,0.0,0.0
700,174.75,104.164,123.276,123.806,97.3555,50.5059,0.030183,1.11939,19.769,920.358,5.928,0.0,0.0
720,179.75,103.874,123.216,120.364,97.35,48.2405,0.03254,1.17582,19.7078,919.007,6.34201,0.0,0.0
740,184.75,104.211,123.105,111.168,97.344,45.59,0.0370226,1.28637,19.57,917.456,6.85189,0.0,0.0
760,189.75,105.624,124.242,115.5,97.3238,45.4944,0.0412052,1.37883,19.4688,915.894,6.86898,0.0,0.0
780,194.75,106.836,126.145,112.759,97.3147,46.6247,0.0422309,1.42275,19.4202,914.223,6.64646,0.0,0.0
800,199.75,107.656,127.267,118.363,97.2989,45.3266,0.0428731,1.44774,19.3954,912.561,6.90005,0.0,0.0
820,204.75,108.957,129.076,112.681,97.2846,44.8956,0.0464359,1.50648,19.3287,910.86,6.98501,0.0,0.0
840,209.75,110.917,130.465,114.412,97.262,43.2531,0.0501272,1.57204,19.2525,909.058,7.31957,0.0,0.0
860,214.75,110.956,131.85,111.492,97.3409,46.059,0.0483552,1.57441,19.2523,907.286,6.75915,0.0,0.0
880,219.75,112.562,132.378,114.587,97.4776,50.8288,0.0429047,1.48589,19.3525,905.815,5.88175,0.0,0.0
900,224.75,113.4,132.549,113.886,97.5771,50.845,0.041531,1.43051,19.4092,904.174,5.88809,0.0,0.0
920,229.75,114.091,134.29,114.13,97.6473,48.9432,0.0442595,1.45612,19.3783,902.562,6.23893,0.0,0.0
940,234.75,114.89,135.245,110.557,97.7095,46.1388,0.0481221,1.50176,19.3326,901.021,6.77766,0.0,0.0
960,239.75,116.527,137.15,111.438,97.7591,44.1719,0.0573906,1.61908,19.193,899.039,7.17577,0.0,0.0
980,244.75,117.888,139.221,110.827,97.8082,38.4987,0.0720369,1.74955,19.0681,896.997,8.42197,0.0,0.0
1000,249.75,120.592,142.33,109.996,97.8463,40.8989,0.0816353,1.91802,18.876,894.826,7.8792,0.0,0.0
1020,254.75,122.05,144.789,106.107,97.8748,41.072,0.0798193,1.91517,18.8724,892.764,7.84368,0.0,0.0
1040,259.75,123.192,145.372,117.666,97.9157,46.8912,0.0613273,1.67524,19.201,891.012,6.65059,0.0,0.0
1060,264.75,121.187,142.66,115.155,97.9371,50.5717,0.0445002,1.40485,19.4814,889.581,5.97002,0.0,0.0
1080,269.75,119.135,139.504,121.197,97.9446,53.7269,0.0343687,1.20933,19.6849,888.32,5.42405,0.0,0.0
1100,274.75,116.673,135.731,123.906,97.9561,56.8316,0.0271647,1.0577,19.8665,887.219,4.91766,0.0,0.0
1120,279.75,114.232,131.897,123.244,97.968,59.2683,0.0226879,0.956239,19.9823,886.058,4.53955,0.0,0.0
1140,284.75,111.128,128.173,122.342,97.9696,60.8039,0.0186556,0.871538,20.0766,885.197,4.30864,0.0,0.0
1160,289.75,108.799,124.022,126.593,97.9918,62.9308,0.0156876,0.798641,20.1611,884.236,4.00012,0.0,0.0
1180,294.75,106.343,120.769,125.137,97.9914,66.5226,0.0123991,0.731307,20.2414,883.406,3.49872,0.0,0.0
1200,299.75,103.441,116.911,128.045,97.9993,68.0559,0.010329,0.658917,20.3203,882.725,3.29361,0.0,0.0
1220,304.75,101.371,113.942,129.999,97.9969,72.3647,0.00926728,0.609646,20.3778,882.004,2.73889,0.0,0.0
1240,309.75,99.3151,110.475,131.11,97.9973,75.4773,0.00741691,0.556502,20.4381,881.444,2.35852,0.0,0.0
1260,314.75,96.708,107.458,133.946,97.9922,77.7152,0.00549127,0.496893,20.5037,880.943,2.09412,0.0,0.0
1280,319.75,94.5485,104.321,128.774,97.9973,82.3774,0.00420889,0.443693,20.5637,880.573,1.56835,0.0,0.0
1300,324.75,92.0595,100.512,134.845,98.012,85.2969,0.0032744,0.386682,20.6321,880.193,1.25511,0.0,0.0
1320,329.75,90.219,98.1268,135.214,98.0263,88.4916,0.00315305,0.338816,20.6807,879.872,0.924297,0.0,0.0
1340,334.75,88.1957,95.306,136.706,98.0488,92.3506,0.00292786,0.283814,20.7429,879.712,0.540821,0.0,0.0
1360,339.75,85.9299,92.2027,138.379,98.0492,93.7199,0.00439282,0.220745,20.8054,879.592,0.407915,0.0,0.0
1380,344.75,83.6552,88.5036,135.835,98.056,93.0499,0.00579288,0.180083,20.8504,879.472,0.473339,0.0,0.0
1400,349.75,81.3915,85.801,141.758,98.0556,93.1865,0.00636756,0.161043,20.8668,879.392,0.460049,0.0,0.0
1420,354.75,79.1119,83.2392,144.415,98.0595,93.8271,0.0066815,0.150917,20.8751,879.332,0.398533,0.0,0.0
1440,359.75,77.2381,80.8377,143.082,98.0592,93.6931,0.00697307,0.147258,20.878,879.282,0.411405,0.0,0.0
1460,364.75,76.1252,78.9029,137.248,98.0659,93.6924,0.00708397,0.14548,20.8789,879.192,0.412099,0.0,0.0
1480,369.75,73.7503,76.5072,139.143,98.073,94.6593,0.00731201,0.143899,20.882,879.152,0.320015,0.0,0.0
1500,374.75,72.5166,75.1458,140.308,98.0742,94.4598,0.00722101,0.14286,20.8839,879.032,0.33918,0.0,0.0
1520,379.75,71.9714,73.5683,140.046,98.0742,94.9766,0.00691897,0.142353,20.8858,878.972,0.289899,0.0,0.0
1540,384.75,70.7293,72.2486,141.594,98.0706,95.2547,0.00713036,0.141608,20.8878,878.952,0.263156,0.0,0.0
1560,389.75,69.758,71.2569,140.511,98.0647,94.7805,0.00717259,0.141216,20.8882,878.822,0.307692,0.0,0.0
1580,394.75,68.602,69.8252,137.994,98.058,94.6777,0.0072266,0.141251,20.8875,878.732,0.316867,0.0,0.0
1600,399.75,68.0515,69.4641,141.01,98.0528,94.9374,0.00723024,0.140524,20.8894,878.732,0.29165,0.0,0.0
1620,404.75,67.1386,68.4781,140.871,98.0425,94.2765,0.00703676,0.139485,20.8918,878.691,0.353803,0.0,0.0
1640,409.75,66.6882,67.8459,141.921,98.0187,95.0492,0.00699561,0.138869,20.8945,878.601,0.27788,0.0,0.0
1660,414.75,66.1521,66.3473,142.275,98.0044,94.7726,0.00696705,0.138712,20.8955,878.481,0.302893,0.0,0.0
1680,419.75,65.4358,66.2635,143.056,97.9961,94.4831,0.0070872,0.137928,20.8979,878.451,0.329753,0.0,0.0
1700,424.75,64.9599,65.4634,143.771,97.9838,95.2679,0.00715687,0.136387,20.9006,878.371,0.253907,0.0,0.0
1720,429.75,65.0862,65.0392,142.409,97.9382,94.1941,0.00715211,0.135351,20.9041,878.281,0.352094,0.0,0.0
1740,434.75,63.4033,63.7543,140.399,97.9228,95.4549,0.00707516,0.134853,20.9057,878.241,0.23056,0.0,0.0
1760,439.75,63.5336,63.7964,142.11,97.8962,95.0056,0.00681209,0.133853,20.9076,878.201,0.270735,0.0,0.0
1780,444.75,63.005,63.8362,141.694,97.8435,95.167,0.00666641,0.132659,20.9113,878.121,0.250531,0.0,0.0
1800,449.75,62.4034,63.0101,143.832,97.8035,95.371,0.00694865,0.131232,20.9136,878.091,0.227493,0.0,0.0
1820,454.75,61.9322,63.0897,144.411,97.7504,95.8776,0.00689227,0.129534,20.9153,877.991,0.174732,0.0,0.0
1840,459.75,61.1955,62.2358,140.157,97.6937,94.7161,0.00658084,0.126892,20.9171,877.981,0.279586,0.0,0.0
1860,464.75,61.2352,61.7789,143.869,97.6299,95.7146,0.0064282,0.123868,20.9217,877.921,0.178956,0.0,0.0
1880,469.75,60.8424,62.1076,142.717,97.5696,95.2796,0.00653291,0.122239,20.9229,877.841,0.214534,0.0,0.0
1900,474.75,60.4789,60.4951,141.943,97.4753,95.1395,0.00680048,0.120143,20.925,877.791,0.219079,0.0,0.0
1920,479.75,59.5367,60.4894,144.44,97.4027,94.756,,,,877.771,0.24884,0.0,0.0
1940,484.75,59.437,60.45,143.421,97.3048,94.8625,,,,877.68,0.229608,0.0,0.0
1948,486.75,59.5798,59.8592,144.519,97.266,95.3274,,,,877.68,0.181849,0.0,0.0