Folder: fsri_materials_database/01_Data/PET/Cone

Note: 01_Data/README.md
# Materials and Products Database
## 01_Data

Raw data generated from each apparatus are included here in plain-text format. The data is organized first by material, next by the short name of test apparatus used, and where applicable additional filtering by test settings.

### material.json

Each material directory contains a json file of the same name as the material. This file links the data stored in the repository as well as data and graphs produced by the accompanying scripts (__02_Scripts__) to the respective landing page for the material on the front-end website.

File: PET_Cone_HF25Scalar_220204_R1.csv
LABORATORY,FSRI
TEST IDENT,PET_HF25_1
OPERATOR,Dow
MATERIAL,PET
ORIENTATION,Horizontal
HEAT FLUX,25
SURF AREA,0.01
C FACTOR,0.0415673
SPEC HOLDER DIFF,304.1
SPECIMEN MASS,90
SCAN TIME,0.25
O2 DELAY TIME,11
CO DELAY TIME,11
CO2 DELAY TIME,8
FLOW FACTOR,1
SCAN COUNT,4128
TIME TO IGN,343.5
END OF TEST SCAN,3648
END OF TEST TIME,912
TEST STATUS,1
PRE TEST CMT,Dimensions: 96.94 x 98.32 x 6.71 mm
POST TEST CMT,sample expanded prior to ignition and contacted the spark ignitor. The spark ignitor remained in position for the duration of the test. Mass data was affected.

File: PET_Cone_HF25Scalar_220204_R2.csv
LABORATORY,FSRI
TEST IDENT,PET_HF25_2
OPERATOR,Dow
MATERIAL,PET
ORIENTATION,Horizontal
HEAT FLUX,25
SURF AREA,0.01
C FACTOR,0.0390564
SPEC HOLDER DIFF,303.49
SPECIMEN MASS,90.4
SCAN TIME,0.25
O2 DELAY TIME,11
CO DELAY TIME,11
CO2 DELAY TIME,8
FLOW FACTOR,1
SCAN COUNT,3616
TIME TO IGN,295
END OF TEST SCAN,3136
END OF TEST TIME,784
TEST STATUS,1
PRE TEST CMT,Dimension: 98.97 x 96.94 x 6.64 mm
POST TEST CMT,"sample expanded and warped prior to ignition, and came into contact with spark igntior. Caused spikkes in mass data and faster time to ignition. Sample continued to warp and expand throughout test."

File: PET_Cone_HF25Scalar_220204_R3.csv
LABORATORY,FSRI
TEST IDENT,PET_HF25_3
OPERATOR,Dow
MATERIAL,PET
ORIENTATION,Horizontal
HEAT FLUX,25
SURF AREA,0.01
C FACTOR,0.0390564
SPEC HOLDER DIFF,304.6
SPECIMEN MASS,90.8
SCAN TIME,0.25
O2 DELAY TIME,11
CO DELAY TIME,11
CO2 DELAY TIME,8
FLOW FACTOR,1
SCAN COUNT,5152
TIME TO IGN,380
END OF TEST SCAN,4672
END OF TEST TIME,1168
TEST STATUS,1
PRE TEST CMT,Dimensions: 99.16 x 98.98 x 6.58 mm

File: PET_Cone_HF25Scalar_220218_R4.csv
LABORATORY,FSRI
TEST IDENT,PET_HF25_4
OPERATOR,Dow
MATERIAL,PET
ORIENTATION,Horizontal
HEAT FLUX,25
SURF AREA,0.01
C FACTOR,0.0385692
SPEC HOLDER DIFF,304.34
SPECIMEN MASS,98.2
SCAN TIME,0.25
O2 DELAY TIME,11
CO DELAY TIME,11
CO2 DELAY TIME,8
FLOW FACTOR,1
SCAN COUNT,6050
TIME TO IGN,659.25
END OF TEST SCAN,5570
END OF TEST TIME,1392.5
TEST STATUS,1
PRE TEST CMT,Dimensions: 101.48 x 101.48 x 6.80 mm; 60 mm spacing
POST TEST CMT,Minor sampling dripping from foil pan prior to ignition. Sample expanded vertically after ignition. See test pictures.

File: PET_Cone_HF25Scalar_220218_R5.csv
LABORATORY,FSRI
TEST IDENT,PET_HF25_5
OPERATOR,Dow
MATERIAL,PET
ORIENTATION,Horizontal
HEAT FLUX,25
SURF AREA,0.01
C FACTOR,0.0385692
SPEC HOLDER DIFF,303.4
SPECIMEN MASS,97.5
SCAN TIME,0.25
O2 DELAY TIME,11
CO DELAY TIME,11
CO2 DELAY TIME,8
FLOW FACTOR,1
SCAN COUNT,7766
TIME TO IGN,1102.5
END OF TEST SCAN,7286
END OF TEST TIME,1821.5
TEST STATUS,1
PRE TEST CMT,Dimensions: 101.60 x 101.45 x 6.70 mm; 60 mm spacing
POST TEST CMT,Sample expanded vertically after ignition. See post test pictures.

File: PET_Cone_HF25Scan_220204_R1.csv
Names,Time,Stack TC,Smoke TC,Exh Press,Smoke Comp,Smoke Meas,CO Meter,CO2 Meter,O2 Meter,Sample Mass,Ext Coeff,Start Test,Flame Verif
Chan Gain,,500,500,1,1,1,1,1,1,1,1,1.0,1.0
Offset,,0,0,0.14021,0,0,0,0,0,0,0,0.0,0.0
Gain,,1,1,25.011,13.3046,13.3037,1,1,1,1.00093,1.10262,1.0,1.0
Units,sec,C,C,Pa,%,%,%,%,%,g,/m,,
Baseline,,16.9133,18.0078,144.885,100.597,106.882,0.00115958,0.103895,20.9985,-871.305,-0.586147,,
43,10.5,15.4009,16.5866,142.176,98.892,104.957,0.00122346,0.12057,20.973,89.8734,-0.575717,0.0,0.0
86,21.25,15.939,16.5005,149.957,98.8964,104.984,0.00101863,0.111704,20.9991,89.8434,-0.577787,0.0,0.0
129,32,16.0525,16.9866,141.12,98.9618,105.327,0.00104121,0.104588,21.0212,89.8133,-0.602876,0.0,0.0
172,42.75,15.8622,17.6948,143.734,99.0438,105.192,0.000823954,0.0956875,21.0447,89.7933,-0.582515,0.0,0.0
215,53.5,16.7464,17.5341,147.003,99.1632,105.35,0.000849051,0.0849238,21.0671,89.7433,-0.585338,0.0,0.0
258,64.25,16.8877,18.4015,146.534,99.2066,105.501,0.000776901,0.0818734,21.072,89.7633,-0.594957,0.0,0.0
301,75,17.178,18.6609,144.54,99.2326,105.394,0.000410177,0.0838324,21.0671,89.7132,-0.582593,0.0,0.0
344,85.75,17.6204,18.8024,152.23,99.1624,105.346,0.000879329,0.0848713,21.0657,89.7833,-0.585119,0.0,0.0
387,96.5,17.6761,19.3392,141.555,98.9634,104.99,0.00068365,0.0842875,21.0629,89.7733,-0.571761,0.0,0.0
430,107.25,17.4389,19.4557,144.56,98.851,104.794,0.000751467,0.0847373,21.0641,89.7833,-0.564677,0.0,0.0
473,118,18.1849,19.2402,145.865,99.0799,105.185,0.000818098,0.083909,21.0689,89.7833,-0.578314,0.0,0.0
516,128.75,17.9836,19.3308,143.357,99.6975,105.75,0.000521886,0.0793708,21.0774,89.7333,-0.570081,0.0,0.0
559,139.5,17.6677,19.748,141.913,100.314,106.493,0.00110098,0.0789457,21.0773,89.7533,-0.578113,0.0,0.0
602,150.25,18.3463,19.7553,144.632,100.482,106.53,0.000979565,0.0847127,21.0691,89.7433,-0.565348,0.0,0.0
645,161,17.8145,19.7673,139.742,100.232,106.227,0.00111713,0.0829296,21.0728,89.7433,-0.561839,0.0,0.0
688,171.75,18.3051,20.1434,144.488,100.804,106.602,0.00103293,0.0862278,21.0619,89.5631,-0.54089,0.0,0.0
731,182.5,17.7871,19.6977,140.877,100.559,106.115,0.00129872,0.0932684,21.0486,89.7232,-0.520141,0.0,0.0
774,193.25,18.2446,19.3532,144.159,100.606,106.191,0.00159056,0.0935812,21.0453,89.7232,-0.52253,0.0,0.0
817,204,18.3323,19.9083,145.584,101,106.646,0.000990558,0.0936907,21.0408,89.7032,-0.526067,0.0,0.0
860,214.75,18.0508,19.5721,146.097,99.7117,105.227,0.00116958,0.0971746,21.037,89.7032,-0.520719,0.0,0.0
903,225.5,18.2751,20.0255,143.492,98.8095,104.264,0.000522979,0.101193,21.0222,89.6932,-0.519743,0.0,0.0
946,236.25,18.2939,20.5295,141.684,99.6833,104.844,0.000928996,0.100728,21.0271,89.6632,-0.488222,0.0,0.0
989,247,18.2647,19.4927,145.807,100.437,105.254,0.0013172,0.0971195,21.0344,89.6732,-0.453056,0.0,0.0
1032,257.75,18.3173,19.9796,144.354,100.801,106.005,0.00138719,0.0964424,21.033,89.5431,-0.486901,0.0,0.0
1075,268.5,18.2551,19.9355,144.179,100.499,105.259,0.00122649,0.0988575,21.0262,89.493,-0.447639,0.0,0.0
1118,279.25,18.9304,20.0473,144.746,100.833,105.383,0.000999694,0.0924927,21.0416,89.5331,-0.426902,0.0,0.0
1161,290,19.0201,20.0065,141.551,99.013,103.129,0.000937493,0.0947262,21.0418,89.6232,-0.393932,0.0,0.0
1204,300.75,19.321,19.6701,141.159,99.9963,103.945,0.000992272,0.0922574,21.0484,89.7533,-0.374539,0.0,0.0
1247,311.5,18.7955,20.3023,144.34,100.229,104.468,0.00112482,0.0944137,21.049,89.8834,-0.400597,0.0,0.0
1290,322.25,19.6203,20.4561,141.993,100.826,104.369,0.00156899,0.101381,21.0445,89.6131,-0.333995,0.0,0.0
1333,333,20.3952,21.597,145.617,100.968,103.084,0.00195182,0.125741,21.0109,89.423,-0.200552,0.0,0.0
1376,343.75,20.9457,22.5828,137.82,100.325,98.2845,0.00294125,0.184074,20.9286,89.0226,0.198766,0.0,1.0
1419,354.5,23.1546,25.4071,136.953,98.9935,84.5412,0.00590861,0.321613,20.7718,87.9216,1.5264,0.0,0.0
1462,365.25,29.5478,33.2523,129.245,99.5789,79.0054,0.0133815,0.557827,20.4704,86.8906,2.23845,0.0,0.0
1505,376,36.6159,42.7361,118.481,100.342,75.9788,0.0171303,0.706317,20.3114,85.3192,2.69014,0.0,0.0
1548,386.75,42.1282,50.0001,128.848,100.282,76.077,0.0203962,0.779083,20.2288,87.0808,2.6718,0.0,0.0
1591,397.5,48.5403,58.1673,112.611,100.078,71.8863,0.0250131,0.925081,20.0457,86.8306,3.20019,0.0,0.0
1634,408.25,57.889,70.8562,99.4453,100.856,62.4957,0.0378694,1.29466,19.6288,82.7768,4.62903,0.0,0.0
1677,419,64.9021,79.8617,122.85,100.557,67.3713,0.0388794,1.26556,19.6833,79.5938,3.87375,0.0,0.0
1720,429.75,67.874,83.2824,110.463,100.536,70.0281,0.0331346,1.14481,19.8241,77.602,3.49766,0.0,0.0
1763,440.5,68.1434,83.1526,117.141,100.975,70.1901,0.0277935,1.00866,19.9762,74.4791,3.51744,0.0,0.0
1806,451.25,67.6193,81.9665,122.836,101.015,78.2759,0.0222301,0.893963,20.1183,70.5254,2.46672,0.0,0.0
1849,462,65.5077,78.5335,119.306,100.561,77.7915,0.0191438,0.755048,20.2839,72.5974,2.48315,0.0,0.0
1892,472.75,62.6962,74.6841,124.888,99.8676,74.8818,0.0180247,0.697473,20.3413,76.3909,2.78494,0.0,0.0
1935,483.5,61.6592,72.5869,124.843,99.2229,74.507,0.0192378,0.724635,20.303,76.5911,2.77082,0.0,0.0
1978,494.25,61.1746,71.201,126.064,98.989,70.5096,0.0199444,0.740642,20.2781,78.4728,3.28136,0.0,0.0
2021,505,61.0587,70.6522,121.889,99.149,79.2324,0.0166304,0.718923,20.3161,80.0242,2.16886,0.0,0.0
2064,515.75,60.2897,69.3772,123.5,99.4714,76.578,0.0175341,0.70169,20.3326,83.0471,2.52983,0.0,0.0
2107,526.5,61.3803,70.8309,123.77,99.7913,79.3708,0.0204417,0.751773,20.2758,98.7816,2.21443,0.0,0.0
2150,537.25,61.246,70.3373,120.665,100.037,76.9008,0.0209656,0.730765,20.299,101.544,2.54395,0.0,0.0
2193,548,61.0425,69.8352,121.565,100.259,72.3041,0.0214448,0.706187,20.3303,113.936,3.16158,0.0,0.0
2236,558.75,62.7335,71.0943,115.467,100.367,60.8083,0.0427214,0.992795,19.9699,116.398,4.8468,0.0,0.0
2279,569.5,65.4006,75.2733,113.963,100.389,59.8936,0.050703,1.12876,19.8409,90.7042,4.99551,0.0,0.0
2322,580.25,66.3191,75.8172,122.732,100.365,64.5504,0.0341254,0.890056,20.1076,106.369,4.26899,0.0,0.0
2365,591,66.9391,76.0218,122.794,100.3,63.8902,0.0411322,0.961807,20.0169,157.666,4.36208,0.0,0.0
2408,601.75,70.149,80.7641,107.328,100.27,50.1453,0.0639058,1.32007,19.586,352.687,6.70217,0.0,0.0
2451,612.5,77.7239,90.7242,108.292,100.234,55.612,0.0924145,1.61881,19.2895,361.325,5.69795,0.0,0.0
2494,623.25,78.684,91.9268,113.242,100.203,48.2306,0.0841839,1.3668,19.5751,406.397,7.07229,0.0,0.0
2537,634,79.212,92.0188,120.554,100.16,60.0536,0.0488871,1.15314,19.846,352.607,4.94755,0.0,0.0
2580,644.75,74.4406,85.4035,121.575,100.128,75.2455,0.0225704,0.771233,20.2726,305.473,2.76328,0.0,0.0
2623,655.5,69.6601,78.9049,122.672,100.131,83.5546,0.0126932,0.590594,20.4721,272.463,1.75046,0.0,0.0
2666,666.25,64.8747,72.5173,124.466,100.165,87.0839,0.00903912,0.487989,20.5807,254.196,1.35356,0.0,0.0
2709,677,61.3584,67.4295,128.234,100.185,89.8407,0.0071811,0.433124,20.6381,248.22,1.05409,0.0,0.0
2752,687.75,58.0502,62.6922,125.775,100.23,90.8459,0.00614686,0.397426,20.6755,248.43,0.950817,0.0,0.0
2795,698.5,55.3756,59.2374,128.763,100.275,93.8831,0.00562939,0.365244,20.7099,252.204,0.637046,0.0,0.0
2838,709.25,52.6497,55.8972,132.424,100.339,95.2112,0.00502446,0.344192,20.737,254.376,0.507415,0.0,0.0
2881,720,51.1711,53.5571,129.653,100.37,96.3833,0.00469106,0.331765,20.749,258.039,0.392007,0.0,0.0
2924,730.75,49.402,51.1689,137.019,100.322,97.4799,0.00495703,0.324223,20.756,259.571,0.278006,0.0,0.0
2967,741.5,48.2462,49.8964,132.304,100.149,97.1924,0.00404542,0.315811,20.7649,265.306,0.28984,0.0,0.0
3010,752.25,46.8461,48.3292,129.305,99.8887,98.0012,0.00430692,0.301369,20.7799,271.051,0.184523,0.0,0.0
3053,763,45.6369,46.7465,135.615,99.6175,99.0356,0.00408193,0.287051,20.8017,262.383,0.056663,0.0,0.0
3096,773.75,44.3286,45.85,132.656,99.3167,98.8619,0.00374372,0.273985,20.8225,266.557,0.0443924,0.0,0.0
3139,784.5,43.7591,44.1419,130.008,99.0775,98.4283,0.00367049,0.267209,20.8275,267.288,0.0635886,0.0,0.0
3182,795.25,42.8924,43.2933,131.809,98.9906,99.4473,0.0038923,0.260369,20.8311,272.713,-0.0445184,0.0,0.0
3225,806,41.7572,42.0739,136.51,99.067,100.258,0.00374115,0.248547,20.8457,278.258,-0.115559,0.0,0.0
3268,816.75,40.5072,40.8747,135.378,99.3662,100.824,0.00395476,0.237382,20.8557,283.463,-0.140872,0.0,0.0
3311,827.5,39.5904,39.7289,138.506,99.8518,102.079,0.00409596,0.22299,20.8716,263.214,-0.213402,0.0,0.0
3354,838.25,38.9285,39.1014,135.99,100.402,103.468,0.00451701,0.202571,20.9034,264.916,-0.290932,0.0,0.0
3397,849,37.3226,37.0704,136.602,100.877,103.034,0.00497418,0.177752,20.9457,264.916,-0.204659,0.0,0.0
3440,859.75,36.5424,36.3497,138.036,101.061,104.075,0.0051506,0.158496,20.9729,259.891,-0.284231,0.0,0.0
3483,870.5,35.3719,35.1043,134.898,100.922,103.709,0.00566183,0.143912,20.9811,261.823,-0.263397,0.0,0.0
3526,881.25,33.8579,33.7112,137.932,100.562,103.463,0.00632977,0.134908,20.9768,261.372,-0.275116,0.0,0.0
3569,892,32.8546,32.1367,135.586,100.292,103.72,0.00678146,0.120357,20.9823,258.72,-0.325154,0.0,0.0
3612,902.75,31.8926,30.6066,139.815,100.828,104.621,0.00602124,0.113746,20.987,259.631,-0.357176,0.0,0.0
3655,913.5,30.0841,29.5718,141.677,100.798,104.975,0.00536403,0.110519,20.9889,260.692,-0.392656,0.0,0.0
3698,924.25,29.6994,29.0186,142.473,100.198,104.157,0.00492584,0.108548,20.9915,261.693,-0.374855,0.0,0.0
3741,935,28.9497,28.0488,138.68,100.164,104.752,0.00461301,0.111327,20.9828,262.393,-0.433185,0.0,0.0
3784,945.75,28.7906,26.9908,138.426,100.306,104.823,0.00408371,0.109238,20.9895,262.574,-0.425992,0.0,0.0
3827,956.5,27.7084,27.0082,140.884,100.362,104.999,0.0038413,0.10795,20.9911,263.084,-0.436911,0.0,0.0
3870,967.25,27.4125,26.6324,139.068,100.329,105.032,0.00332612,0.107982,20.9903,263.384,-0.443033,0.0,0.0
3913,978,26.9748,26.5981,142.423,100.043,105.029,0.00323708,0.108197,20.9883,264.886,-0.470409,0.0,0.0
3956,988.75,27.0032,25.7477,136.352,99.6196,105.05,0.00315045,0.107375,20.9913,264.495,-0.513417,0.0,0.0
3999,999.5,26.2831,26.1142,138.496,99.2192,104.083,0.00323112,0.105847,20.9938,263.905,-0.462836,0.0,0.0
4042,1010.25,25.7323,25.1985,141.833,98.9939,104.37,0.00339475,0.105889,20.9929,264.015,-0.511503,0.0,0.0
4085,1021,26.1412,25.5636,137.254,98.978,104.422,,0.104107,,264.425,-0.517865,0.0,0.0
4128,1031.75,25.7404,25.146,138.558,99.1912,104.69,,,,263.404,-0.521882,0.0,0.0

File: PET_Cone_HF25Scan_220204_R2.csv
Names,Time,Stack TC,Smoke TC,Exh Press,Smoke Comp,Smoke Meas,CO Meter,CO2 Meter,O2 Meter,Sample Mass,Ext Coeff,Start Test,Flame Verif
Chan Gain,,500,500,1,1,1,1,1,1,1,1,1.0,1.0
Offset,,0,0,0.134889,0,0,0,0,0,0,0,0.0,0.0
Gain,,1,1,25.011,12.9892,12.3331,1,1,1,1.00088,1.02973,1.0,1.0
Units,sec,C,C,Pa,%,%,%,%,%,g,/m,,
Baseline,,19.2986,20.5036,143.578,98.2089,98.842,0.000520421,0.0710202,20.9657,-866.781,-0.0580324,,
38,9.25,17.9776,18.6354,146.249,97.5835,98.0561,0.000189351,0.0779271,20.9582,94.1026,-0.0436413,0.0,0.0
76,18.75,18.2807,19.0037,147.135,98.3148,98.5589,-8.97345e-05,0.0750997,20.9705,94.0926,-0.0223985,0.0,0.0
114,28.25,18.1497,19.2158,148.85,98.2078,98.5183,6.29616e-05,0.0712403,20.9755,94.1226,-0.0285108,0.0,0.0
152,37.75,17.9729,19.0771,144.55,98.7156,99.195,0.000151206,0.0706236,20.9728,94.0926,-0.0437603,0.0,0.0
190,47.25,18.3941,19.199,143.65,98.253,98.7178,0.000153598,0.0750386,20.9617,94.0926,-0.0426264,0.0,0.0
228,56.75,18.6257,20.0692,143.832,98.9487,98.8243,7.74146e-05,0.0727628,20.973,94.0926,0.0113637,0.0,0.0
266,66.25,18.6511,19.7199,143.941,98.4151,98.271,0.000160125,0.0718029,20.9706,94.1326,0.013238,0.0,0.0
304,75.75,18.9787,19.7103,140.016,97.0503,96.9691,-6.53737e-05,0.0697207,20.9755,94.1026,0.00756125,0.0,0.0
342,85.25,18.7141,19.9554,143.301,97.7107,97.3944,0.000308095,0.0696042,20.9735,94.1226,0.0292884,0.0,0.0
380,94.75,18.9769,20.5595,143.263,98.3077,98.1935,0.000135149,0.0694783,20.9759,94.1126,0.0105022,0.0,0.0
418,104.25,19.0425,20.5871,146.74,98.0191,97.3255,0.000453804,0.0678475,20.9786,94.1026,0.064143,0.0,0.0
456,113.75,19.3747,20.5687,145.189,98.7354,99.0806,0.000131178,0.0669183,20.9788,94.0626,-0.0315218,0.0,0.0
494,123.25,19.128,20.4723,140.81,98.5796,98.3244,7.33504e-05,0.0665494,20.9786,94.0526,0.0234134,0.0,0.0
532,132.75,19.522,19.9271,144.117,99.0097,98.5958,0.000170531,0.0705356,20.9738,94.0626,0.0378407,0.0,0.0
570,142.25,19.6961,19.8752,145.234,98.5527,98.4445,0.000120783,0.0686298,20.9792,94.0125,0.00991928,0.0,0.0
608,151.75,19.4531,20.3999,146.287,97.685,97.7768,0.000166793,0.067275,20.9799,94.0426,-0.00849013,0.0,0.0
646,161.25,19.0034,20.7574,148.991,97.084,96.6469,6.26887e-06,0.0667177,20.98,94.0325,0.040759,0.0,0.0
684,170.75,19.7538,20.3136,144.621,97.0265,96.5875,0.000108338,0.0681056,20.9747,94.0025,0.040968,0.0,0.0
722,180.25,18.9131,20.8568,144.155,97.3314,96.8961,0.000149548,0.0691769,20.9747,94.0225,0.0404867,0.0,0.0
760,189.75,19.7104,20.6796,144.133,97.7016,97.0722,0.000675521,0.068007,20.9755,94.0025,0.0583741,0.0,0.0
798,199.25,19.2532,20.7643,145.985,97.9965,97.3459,0.000423157,0.0675771,20.9765,93.9725,0.0601745,0.0,0.0
836,208.75,19.8649,21.3236,147.311,98.1991,97.8867,0.000183825,0.0674489,20.9486,95.9242,0.0287786,0.0,0.0
874,218.25,19.0242,20.4699,150.084,98.2926,97.7008,0.000426343,0.0687798,20.9615,96.6048,0.0545529,0.0,0.0
912,227.75,19.3906,21.0061,142.659,98.3307,97.4174,0.000240149,0.0700172,20.9727,96.4847,0.0842904,0.0,0.0
950,237.25,19.5755,20.375,143.284,98.3319,97.0463,0.000241056,0.071168,20.9726,96.6148,0.118875,0.0,0.0
988,246.75,19.2361,20.8714,143.058,98.3136,97.4129,0.000371096,0.0708604,20.971,96.6949,0.0831424,0.0,0.0
1026,256.25,20.002,21.1529,140.747,98.3287,97.1016,0.000475634,0.0702154,20.9723,96.7549,0.113435,0.0,0.0
1064,265.75,19.6662,20.802,140.362,98.3283,96.7674,0.000578665,0.0757664,20.9618,96.6749,0.144543,0.0,0.0
1102,275.25,20.1317,21.3476,143.947,98.3259,95.9913,0.000833711,0.0823754,20.9527,96.4947,0.21706,0.0,0.0
1140,284.75,21.0661,22.4279,139.621,98.3129,95.3492,0.00075764,0.0929186,20.9336,96.4347,0.276483,0.0,0.0
1178,294.25,21.6705,22.8546,136.781,98.2581,93.3822,0.00133392,0.120482,20.8883,95.1235,0.459738,0.0,0.0
1216,303.75,22.5177,24.8786,133.18,98.19,87.0046,0.00325573,0.193523,20.7715,93.412,1.09245,0.0,0.0
1254,313.25,26.3113,29.3152,131.437,98.0611,78.0182,0.00657188,0.296381,20.6329,91.5904,2.06532,0.0,0.0
1292,322.75,30.4264,34.7066,128.91,97.8935,71.0349,0.010805,0.406842,20.4952,91.16,2.89687,0.0,0.0
1330,332.25,35.8624,42.1543,118.69,97.6988,71.0534,0.0143314,0.527631,20.3479,89.8889,2.87655,0.0,0.0
1368,341.75,41.8309,49.7811,120.971,97.4729,65.6275,0.0195309,0.668776,20.16,88.2675,3.57316,0.0,0.0
1406,351.25,50.4843,61.4431,115.796,97.2342,61.4415,0.0299149,0.92509,19.7872,85.9555,4.14636,0.0,0.0
1444,360.75,57.6432,70.1116,122.598,97.0654,64.6079,0.0289273,1.04095,19.7901,83.7936,3.67675,0.0,0.0
1482,370.25,60.2934,74.2747,125.52,97,61.8954,0.0280624,0.995294,19.8865,81.6817,4.05809,0.0,0.0
1520,379.75,63.6875,77.2195,117.492,97.1744,66.8041,0.0285104,0.995508,19.8927,79.6299,3.38495,0.0,0.0
1558,389.25,64.6657,78.9492,116.185,97.6037,61.5589,0.0271423,0.962181,19.9371,77.6982,4.16337,0.0,0.0
1596,398.75,65.5196,79.6805,117.791,98.169,59.0067,0.031618,0.993838,19.8518,75.5563,4.59801,0.0,0.0
1634,408.25,68.4176,82.4568,121.499,98.6783,59.7199,0.0320051,1.02569,19.8569,73.3244,4.53623,0.0,0.0
1672,417.75,68.2229,82.13,117.241,98.9764,57.3375,0.0302667,0.982979,19.9342,71.2225,4.93121,0.0,0.0
1710,427.25,67.6078,81.2198,121.129,98.9388,61.6146,0.027417,0.95273,19.9601,69.2508,4.27792,0.0,0.0
1748,436.75,67.4491,80.1177,121.004,98.6129,64.1401,0.0243023,0.898036,20.0403,67.4492,3.88527,0.0,0.0
1786,446.25,66.1843,78.5878,121.345,98.2455,64.8725,0.020395,0.823941,20.1317,65.7878,3.74899,0.0,0.0
1824,455.75,64.775,76.4389,125.839,98.7231,67.7315,0.0177532,0.753485,20.2089,64.3665,3.40325,0.0,0.0
1862,465.25,63.4566,74.2936,126.062,98.7085,70.5095,0.0157257,0.698021,20.267,63.0253,3.03882,0.0,0.0
1900,474.75,62.1709,72.3663,121.007,98.1063,70.1813,0.0151529,0.662247,20.3001,61.7042,3.02569,0.0,0.0
1938,484.25,61.4696,70.5019,122.295,98.0691,70.8765,0.0148265,0.634116,20.3283,60.4831,2.93323,0.0,0.0
1976,493.75,60.6861,69.2727,124.777,98.232,72.3816,0.0146975,0.623304,20.3327,59.1719,2.75841,0.0,0.0
2014,503.25,60.3549,68.1471,123.54,98.3315,70.8821,0.0156057,0.62504,20.3189,57.8908,2.95665,0.0,0.0
2052,512.75,60.4887,68.4112,121.851,98.1892,69.9551,0.0165042,0.64724,20.2789,56.5296,3.06248,0.0,0.0
2090,522.25,61.7529,69.588,116.09,97.8078,67.7894,0.0187233,0.699325,20.207,54.9983,3.31138,0.0,0.0
2128,531.75,62.8101,71.0327,120.492,97.3306,65.4499,0.0220467,0.768507,20.1096,53.2768,3.58444,0.0,0.0
2166,541.25,64.8541,73.3505,124.306,97.0329,62.6177,0.0229665,0.807249,20.0933,51.5052,3.95636,0.0,0.0
2204,550.75,65.4955,74.8418,121.011,97.0166,57.1896,0.0252048,0.846855,20.0202,49.6035,4.7739,0.0,0.0
2242,560.25,71.1943,81.7278,109.293,97.3433,53.2892,0.0419122,1.11568,19.6017,46.9312,5.44231,0.0,0.0
2280,569.75,73.6674,85.8524,117.237,97.8788,62.332,0.0343697,1.13902,19.7647,44.439,4.07607,0.0,0.0
2318,579.25,73.2396,84.4253,118.441,98.4175,66.2448,0.0228423,0.95892,20.0387,42.6975,3.57571,0.0,0.0
2356,588.75,70.6488,80.4101,124.952,98.8321,71.3432,0.0149151,0.784382,20.2323,41.2963,2.94396,0.0,0.0
2394,598.25,67.2649,76.3166,123.032,99.0026,75.0098,0.0122175,0.671911,20.3419,40.0251,2.50682,0.0,0.0
2432,607.75,64.9655,72.9662,128.462,98.938,76.7506,0.0101112,0.607367,20.3944,38.9242,2.2937,0.0,0.0
2470,617.25,62.2299,69.8984,125.286,98.6867,77.8868,0.00913044,0.551224,20.455,37.9333,2.13798,0.0,0.0
2508,626.75,60.543,66.2764,128.416,98.3993,80.1635,0.00769602,0.507047,20.4986,36.9825,1.85139,0.0,0.0
2546,636.25,58.611,63.9498,129.303,98.3477,83.2246,0.00691908,0.467155,20.5413,36.1517,1.50816,0.0,0.0
2584,645.75,56.0283,60.8199,131.663,98.7501,86.7878,0.00693299,0.415217,20.6079,35.4611,1.16637,0.0,0.0
2622,655.25,54.1498,58.3143,135.68,98.7996,88.6934,0.00719048,0.359433,20.6717,34.9006,0.974712,0.0,0.0
2660,664.75,52.1226,55.5992,131.713,98.5075,90.4853,0.00611265,0.310412,20.7297,34.4603,0.767288,0.0,0.0
2698,674.25,49.4767,52.2298,131.517,98.0148,90.6746,0.00583222,0.270899,20.7712,34.0799,0.703114,0.0,0.0
2736,683.75,47.6058,49.6972,135.861,98.0948,92.6743,0.00548496,0.237945,20.7994,33.7797,0.513453,0.0,0.0
2774,693.25,45.8597,46.9308,135.131,98.234,93.925,0.00515037,0.21441,20.8224,33.4794,0.405169,0.0,0.0
2812,702.75,44.2556,44.8416,133.874,98.2918,94.0119,0.00510788,0.194454,20.8409,33.2292,0.402131,0.0,0.0
2850,712.25,42.7953,42.9721,135.219,98.3263,95.3409,0.00481123,0.17422,20.8638,33.079,0.278504,0.0,0.0
2888,721.75,41.1214,41.6613,133.678,98.2585,94.5441,0.00464932,0.159084,20.8766,32.8689,0.348081,0.0,0.0
2926,731.25,39.7807,39.7956,135.887,98.0714,94.957,0.00443046,0.146858,20.8861,32.7187,0.291504,0.0,0.0
2964,740.75,38.6352,38.8648,136.925,97.8625,95.3846,0.00488072,0.137342,20.8944,32.5986,0.231663,0.0,0.0
3002,750.25,38.1179,37.4137,139.533,97.5573,95.5238,0.00503863,0.13143,20.8996,32.4785,0.190268,0.0,0.0
3040,759.75,36.8363,36.4375,137.617,97.2909,95.4546,0.00466975,0.121831,20.9095,32.4085,0.172122,0.0,0.0
3078,769.25,35.583,35.4455,137.527,97.0682,95.3006,0.00536517,0.113964,20.9172,32.2984,0.165993,0.0,0.0
3116,778.75,34.816,33.7269,140.681,96.9651,94.8456,0.00545615,0.106068,20.9287,32.2183,0.199631,0.0,0.0
3154,788.25,34.1052,32.7637,138.197,96.9496,94.9905,0.00541672,0.100951,20.931,32.1783,0.184401,0.0,0.0
3192,797.75,33.307,32.7633,142.174,96.9389,95.3465,0.005172,0.0954632,20.9385,32.1382,0.14961,0.0,0.0
3230,807.25,32.5333,32.0028,137.048,96.9401,94.8701,0.00509987,0.0893907,20.9454,32.0481,0.194974,0.0,0.0
3268,816.75,31.3716,30.4087,140.132,96.9714,95.0763,0.00513527,0.0848417,20.9498,32.0481,0.178276,0.0,0.0
3306,826.25,31.2049,31.0864,138.887,97.0571,95.9111,0.00434489,0.0814748,20.9551,31.9881,0.107283,0.0,0.0
3344,835.75,30.7538,29.9535,137.17,97.3437,96.1968,0.00457078,0.0790239,20.9584,31.9681,0.107052,0.0,0.0
3382,845.25,30.3218,29.2341,133.648,97.83,96.3865,0.00402407,0.0771277,20.9567,31.9781,0.134278,0.0,0.0
3420,854.75,29.5243,29.5349,137.122,98.249,96.6996,0.00413627,0.0757159,20.9573,31.918,0.143583,0.0,0.0
3458,864.25,29.2595,28.5679,135.063,98.3109,97.0376,0.00374507,0.0746279,20.9592,31.898,0.117751,0.0,0.0
3496,873.75,29.3591,28.9773,135.28,98.1119,97.1046,0.0035003,0.073518,20.9608,31.858,0.0932149,0.0,0.0
3534,883.25,29.0628,28.4644,140.462,98.5372,97.3176,0.00326144,0.0736756,20.9612,31.848,0.112494,0.0,0.0
3572,892.75,28.4949,28.4287,139.572,98.6942,97.3078,0.00340858,0.0728489,20.964,31.8379,0.127781,0.0,0.0
3610,902.25,28.5263,28.1833,136.91,98.4892,97.6665,,,,31.8279,0.0757702,0.0,0.0
3616,903.75,28.563,28.3584,138.708,98.588,97.5423,,,,31.8179,0.0963125,0.0,0.0