Folder: fsri_materials_database/01_Data/PET/Cone (part 5)

File: PET_Cone_HF75Scan_220207_R1.csv
Names,Time,Stack TC,Smoke TC,Exh Press,Smoke Comp,Smoke Meas,CO Meter,CO2 Meter,O2 Meter,Sample Mass,Ext Coeff,Start Test,Flame Verif
Chan Gain,,500,500,1,1,1,1,1,1,1,1,1.0,1.0
Offset,,0,0,0.134889,0,0,0,0,0,0,0,0.0,0.0
Gain,,1,1,25.011,12.9892,12.3331,1,1,1,1.00088,1.02973,1.0,1.0
Units,sec,C,C,Pa,%,%,%,%,%,g,/m,,
Baseline,,35.866,38.6333,151.481,97.5528,97.6538,-0.00170076,0.045954,21.0288,-0.189041,-0.0093428,,
21,5,31.6569,33.1818,155.465,96.5386,96.5856,-0.00148401,0.0513374,21.0217,960.423,-0.00439759,0.0,0.0
42,10.25,31.9502,33.1106,157.557,96.8517,96.9917,-0.00176408,0.048845,21.0263,960.463,-0.0130444,0.0,0.0
63,15.5,32.1785,34.3105,154.488,97.1688,97.3447,-0.00175001,0.0481929,21.0256,960.423,-0.0163356,0.0,0.0
84,20.75,32.8731,35.3058,153.575,97.4669,97.604,-0.00117804,0.0484628,21.0254,960.323,-0.0126983,0.0,0.0
105,26,32.7169,34.6168,151.921,97.7167,97.4599,-0.00134533,0.0486033,21.0254,960.413,0.0237667,0.0,0.0
126,31.25,33.5362,35.3202,150.853,97.8871,96.4621,-0.000795461,0.0530744,21.0168,960.373,0.13246,0.0,0.0
147,36.5,33.3908,35.5713,151.496,97.9914,95.345,0.000162762,0.0650384,21.0028,960.273,0.24729,0.0,0.0
168,41.75,35.7071,38.0262,137.789,98.0096,69.3555,0.00645806,0.247045,20.7453,959.703,3.12369,0.0,0.0
189,47,41.2241,45.9756,121.684,97.9628,51.1642,0.0181939,0.586385,20.3087,958.632,5.8672,0.0,1.0
210,52.25,48.888,55.3691,124.582,97.8578,42.643,0.0344313,0.985618,19.8025,956.96,7.50305,0.0,0.0
231,57.5,57.5925,67.4712,111.971,97.7,46.5863,0.0446347,1.3372,19.4514,955.249,6.6896,0.0,0.0
252,62.75,66.4248,78.7987,107.25,97.5537,48.1072,0.0461573,1.49722,19.3006,953.427,6.38588,0.0,0.0
273,68,73.631,89.1979,111.489,97.4031,47.4595,0.0453746,1.53653,19.283,951.666,6.49437,0.0,0.0
294,73.25,78.9829,97.1243,121.226,97.3036,48.0591,0.0422498,1.5083,19.3267,949.894,6.37174,0.0,0.0
315,78.5,83.3617,102.39,120.048,97.5526,47.0428,0.0411965,1.4729,19.3678,948.182,6.58786,0.0,0.0
336,83.75,87.0395,107.392,118.97,97.7967,47.9409,0.0424866,1.44269,19.4042,946.601,6.43964,0.0,0.0
357,89,89.5698,110.454,119.677,97.9216,46.6586,0.0446723,1.43967,19.4055,944.839,6.69606,0.0,0.0
378,94.25,91.8494,113.535,112.967,97.9656,47.1806,0.0449712,1.45471,19.3802,943.208,6.59962,0.0,0.0
399,99.5,94.365,116.562,113.943,97.9109,48.668,0.0464074,1.48744,19.3339,941.457,6.3142,0.0,0.0
420,104.75,96.4538,119.844,112.017,97.7547,47.5781,0.0487591,1.4945,19.3378,939.595,6.50438,0.0,0.0
441,110,97.6599,120.536,122.453,97.4836,46.9284,0.0477545,1.43757,19.4064,938.054,6.60347,0.0,0.0
462,115.25,98.8747,121.047,116.103,97.2553,46.6849,0.0483123,1.44184,19.3975,936.302,6.62928,0.0,0.0
483,120.5,99.1632,122.134,124.61,97.3104,50.2831,0.0430043,1.39856,19.4857,934.671,5.96374,0.0,0.0
504,125.75,98.228,119.935,122.588,97.4099,54.9904,0.0347112,1.17605,19.7301,933.369,5.16463,0.0,0.0
525,131,97.0544,118.103,120.365,97.4903,52.6422,0.0329122,1.12783,19.7586,932.108,5.56629,0.0,0.0
546,136.25,97.2914,117.702,117.885,97.5541,53.4025,0.0333099,1.15994,19.7138,930.637,5.44268,0.0,0.0
567,141.5,97.6159,117.741,122.242,97.5787,52.757,0.0348713,1.19803,19.6624,929.166,5.5548,0.0,0.0
588,146.75,98.243,118.153,115.943,97.5712,51.1495,0.0365735,1.22289,19.6432,927.734,5.83361,0.0,0.0
609,152,98.5555,117.844,118.275,97.5113,49.213,0.0378075,1.23283,19.6341,926.243,6.17667,0.0,0.0
630,157.25,99.1229,118.708,122.931,97.4142,50.8521,0.0349479,1.22961,19.6441,924.712,5.87173,0.0,0.0
651,162.5,98.9089,117.843,119.176,97.3187,47.1129,0.03262,1.14971,19.7455,923.371,6.55275,0.0,0.0
672,167.75,98.0121,116.445,122.524,97.1879,49.621,0.0314764,1.11216,19.7849,921.959,6.07208,0.0,0.0
693,173,98.1549,116.024,125.147,97.0265,46.9217,0.0318566,1.11248,19.7804,920.618,6.56233,0.0,0.0
714,178.25,97.905,115.41,121.6,96.8815,50.5465,0.0331778,1.1333,19.7518,919.177,5.87664,0.0,0.0
735,183.5,98.1477,115.822,121.765,96.686,48.2273,0.0338094,1.14011,19.7462,917.776,6.28266,0.0,0.0
756,188.75,98.3496,115.893,119.989,96.5283,48.4686,0.0338252,1.15512,19.7283,916.304,6.22283,0.0,0.0
777,194,98.6298,115.912,118.035,96.3899,49.3504,0.0342581,1.1399,19.7522,914.973,6.04701,0.0,0.0
798,199.25,98.4402,115.654,123.34,96.246,51.6979,0.0330606,1.11702,19.7816,913.542,5.61376,0.0,0.0
819,204.5,98.514,115.555,120.341,96.1093,51.0757,0.0318395,1.07529,19.8382,912.291,5.71028,0.0,0.0
840,209.75,98.2738,114.419,117.886,95.9971,52.6866,0.0317298,1.04362,19.8665,910.97,5.41925,0.0,0.0
861,215,97.9819,113.969,124.097,95.9241,51.4325,0.0331804,1.04718,19.8601,909.629,5.62998,0.0,0.0
882,220.25,98.537,114.17,124.595,95.869,50.3565,0.0360629,1.07092,19.8289,908.207,5.81578,0.0,0.0
903,225.5,98.3393,113.95,117.612,95.8512,52.1811,0.0363355,1.0853,19.8042,906.866,5.49259,0.0,0.0
924,230.75,99.323,114.282,122.805,95.8342,47.4264,0.0396673,1.13666,19.7402,905.295,6.35399,0.0,0.0
945,236,99.5791,115.453,112.853,95.8409,48.4637,0.0444316,1.21535,19.6446,903.793,6.15919,0.0,0.0
966,241.25,101.493,118.255,119.272,95.8762,49.3376,0.0485534,1.32523,19.5183,902.082,6.00108,0.0,0.0
987,246.5,104.168,121.321,108.402,95.9345,45.6849,0.0498751,1.43439,19.3815,900.26,6.70136,0.0,0.0
1008,251.75,106.777,124.493,111.495,96.0058,50.6673,0.0470319,1.50352,19.3381,898.509,5.77306,0.0,0.0
1029,257,108.65,126.139,115.63,96.1049,51.4811,0.0442037,1.461,19.3949,896.847,5.63847,0.0,0.0
1050,262.25,109.306,127.688,114.767,96.1985,50.1909,0.0438766,1.41424,19.4471,895.206,5.87652,0.0,0.0
1071,267.5,109.906,128.439,118.145,96.2837,51.4367,0.042616,1.4096,19.4538,893.594,5.66305,0.0,0.0
1092,272.75,110.738,129.021,117.622,96.3844,54.3905,0.0421062,1.35423,19.5275,892.013,5.16812,0.0,0.0
1113,278,109.842,129.179,121.094,96.4636,51.4848,0.0417276,1.30195,19.5817,890.412,5.67146,0.0,0.0
1134,283.25,110.433,127.52,122.44,96.5576,48.5077,0.041909,1.28875,19.5871,888.81,6.21829,0.0,0.0
1155,288.5,108.9,125.507,122.804,96.6801,53.4736,0.0373793,1.15871,19.768,887.479,5.34936,0.0,0.0
1176,293.75,106.879,122.132,122.549,96.803,56.2802,0.0307748,1.00578,19.9411,886.258,4.89876,0.0,0.0
1197,299,104.32,118.78,131.885,96.9239,58.3748,0.0221545,0.898944,20.056,885.227,4.57997,0.0,0.0
1218,304.25,101.9,116.033,124.203,97.046,61.3681,0.0152808,0.812283,20.1537,884.346,4.13965,0.0,0.0
1239,309.5,99.8189,112.418,131.464,97.1875,65.2165,0.011504,0.73616,20.2371,883.506,3.60342,0.0,0.0
1260,314.75,96.6889,109.287,131.336,97.3155,69.9431,0.00891906,0.666146,20.3156,882.735,2.9833,0.0,0.0
1281,320,95.3232,106.841,129.662,97.4039,72.2164,0.00715646,0.618823,20.3633,882.034,2.70259,0.0,0.0
1302,325.25,94.2971,103.251,133.246,97.5153,75.7351,0.00576157,0.573414,20.4156,881.384,2.28318,0.0,0.0
1323,330.5,91.9511,101.767,131.033,97.6029,76.8864,0.00503872,0.533376,20.4578,880.773,2.15501,0.0,0.0
1344,335.75,90.6278,99.2535,128.671,97.6651,80.4202,0.00452774,0.480375,20.5268,880.313,1.75487,0.0,0.0
1365,341,89.167,97.221,135.049,97.7135,79.7687,0.00434431,0.431376,20.5819,879.852,1.83281,0.0,0.0
1386,346.25,86.6634,94.3428,135.97,97.7571,83.9868,0.00425179,0.382559,20.6338,879.482,1.37141,0.0,0.0
1407,351.5,84.7842,91.0767,139.848,97.7539,91.1104,0.00407729,0.318843,20.7094,879.222,0.635732,0.0,0.0
1428,356.75,82.0964,87.53,138.924,97.7793,93.7247,0.00414909,0.243936,20.7955,879.102,0.382542,0.0,0.0
1449,362,78.9729,84.6567,137.778,97.7971,95.0473,0.0041513,0.188585,20.8477,878.932,0.257616,0.0,0.0
1470,367.25,77.0458,81.4965,138.463,97.8336,95.3492,0.00412603,0.16261,20.8694,878.882,0.232343,0.0,0.0
1491,372.5,74.5931,79.2085,139.721,97.8292,95.6307,0.00386921,0.148972,20.8801,878.832,0.205309,0.0,0.0
1512,377.75,72.7243,76.4417,138.34,97.8677,95.4493,0.00378309,0.140427,20.8871,878.732,0.22601,0.0,0.0
1533,383,71.8901,74.4812,138.335,97.882,96.1896,0.00387225,0.133791,20.8947,878.701,0.157537,0.0,0.0
1554,388.25,70.2186,72.4359,138.15,97.8954,96.3729,0.00352531,0.129843,20.8989,878.621,0.141585,0.0,0.0
1575,393.5,68.4054,70.6758,144.114,97.9176,95.738,0.00359267,0.127621,20.9018,878.551,0.203342,0.0,0.0
1596,398.75,67.6246,69.4567,143.393,97.9109,96.5653,0.0037401,0.125379,20.9064,878.501,0.125003,0.0,0.0
1617,404,65.9289,67.4751,146.336,97.9109,95.922,0.00388485,0.123402,20.9123,878.451,0.185371,0.0,0.0
1638,409.25,65.1767,66.8363,138.784,97.9264,96.4505,0.00387065,0.119518,20.9184,878.411,0.137174,0.0,0.0
1659,414.5,64.1885,66.23,142.187,97.9145,96.3556,0.00391585,0.116801,20.9229,878.371,0.144963,0.0,0.0
1680,419.75,64.1403,64.6203,142.84,97.9331,95.7316,0.00397295,0.11567,20.9247,878.301,0.205371,0.0,0.0
1701,425,63.0619,63.796,145.221,97.9382,96.2337,0.00379012,0.115126,20.9259,878.281,0.158596,0.0,0.0
1722,430.25,62.9766,63.5023,138.089,97.9692,96.2024,0.00393874,0.11526,20.9279,878.251,0.164379,0.0,0.0
1743,435.5,61.3614,62.4499,145.572,97.9597,96.8453,0.00419775,0.114677,20.9288,878.151,0.103344,0.0,0.0
1764,440.75,60.5964,60.7463,139.582,97.9608,96.7772,0.0040169,0.114143,20.9309,878.111,0.10981,0.0,0.0
1785,446,60.5467,60.989,141.767,97.9632,96.4659,0.00423366,0.114607,20.9313,878.091,0.139128,0.0,0.0
1806,451.25,59.9061,60.6497,144.421,97.9482,96.4629,0.00424241,0.114549,20.9332,878.031,0.138021,0.0,0.0
1827,456.5,59.6049,59.6622,141.752,97.9482,96.7708,0.00445473,0.114424,20.9342,877.931,0.109237,0.0,0.0
1848,461.75,59.023,59.5376,139.563,97.9347,96.6191,0.0043235,0.114062,20.9359,877.921,0.122164,0.0,0.0
1869,467,58.491,58.6615,139.566,97.9125,96.4004,0.00420287,0.113422,20.9363,877.901,0.140583,0.0,0.0
1890,472.25,57.9829,58.6918,145.134,97.8867,96.8464,0.00416457,0.112694,20.9375,877.751,0.0965117,0.0,0.0
1911,477.5,57.7855,58.0576,144.081,97.8721,96.3808,0.00429515,0.112294,20.939,877.741,0.138686,0.0,0.0
1932,482.75,57.3051,58.1172,146.731,97.8483,96.6936,0.00413682,0.112186,20.9383,877.701,0.107225,0.0,0.0
1953,488,56.6569,57.119,139.701,97.8209,96.7064,0.00418437,0.112006,20.9395,877.711,0.103505,0.0,0.0
1974,493.25,55.9044,57.2688,143.081,97.7773,96.4403,,0.112013,,877.62,0.124367,0.0,0.0
1995,498.5,56.0125,56.7235,140.743,97.7198,96.7591,,,,877.6,0.0892463,0.0,0.0
2012,502.75,55.7388,56.2924,141.185,97.6941,96.2167,,,,877.53,0.137637,0.0,0.0

File: PET_Cone_HF75Scan_220207_R2.csv
Names,Time,Stack TC,Smoke TC,Exh Press,Smoke Comp,Smoke Meas,CO Meter,CO2 Meter,O2 Meter,Sample Mass,Ext Coeff,Start Test,Flame Verif
Chan Gain,,500,500,1,1,1,1,1,1,1,1,1.0,1.0
Offset,,0,0,0.134889,0,0,0,0,0,0,0,0.0,0.0
Gain,,1,1,25.011,12.9892,12.3331,1,1,1,1.00088,1.02973,1.0,1.0
Units,sec,C,C,Pa,%,%,%,%,%,g,/m,,
Baseline,,39.9776,41.7431,150.703,97.5125,97.2379,-0.00189561,0.0444185,21.0247,-0.0436634,0.0254812,,
19,4.5,35.3368,36.0797,150.505,95.8968,95.8133,-0.00178098,0.053674,21.0143,959.272,0.00787218,0.0,0.0
38,9.25,35.1545,36.4307,154.417,95.7755,95.4324,-0.0020399,0.0511681,21.0192,959.212,0.0324197,0.0,0.0
57,14,36.2218,36.9312,146.394,95.7002,95.5434,-0.0016529,0.0481775,21.0241,959.192,0.0148098,0.0,0.0
76,18.75,36.3505,37.551,151.948,95.6982,95.3688,-0.00161371,0.0461819,21.0243,959.262,0.0311493,0.0,0.0
95,23.5,36.7459,37.8773,151.086,95.741,95.155,-0.00171205,0.0454334,21.0252,959.222,0.0554594,0.0,0.0
114,28.25,37.2704,38.6698,153.867,95.8595,94.8686,-0.00147986,0.04558,21.0244,959.182,0.093865,0.0,0.0
133,33,36.6269,38.9438,148.414,95.9828,93.7127,-0.000992914,0.0467068,21.0214,959.192,0.216203,0.0,0.0
152,37.75,37.3827,39.7981,142.415,96.1493,78.8775,0.00104915,0.104204,20.9507,958.942,1.78854,0.0,1.0
171,42.5,40.3514,42.8296,141.419,96.3419,65.1947,0.00772133,0.320168,20.6966,958.311,3.52751,0.0,0.0
190,47.25,45.1915,48.9135,127.76,96.5453,52.5462,0.0158796,0.579994,20.3772,957.491,5.49478,0.0,0.0
209,52,51.0442,57.3787,125.059,96.7102,46.7538,0.0257868,0.865772,20.0017,956.25,6.5652,0.0,0.0
228,56.75,58.1125,66.7188,119.661,96.8886,42.5986,0.0344951,1.1336,19.6957,954.778,7.42256,0.0,0.0
247,61.5,65.3507,76.5606,112.34,97.0404,44.0781,0.0396417,1.30501,19.5093,953.317,7.1283,0.0,0.0
266,66.25,70.7151,83.9992,120.318,97.1752,47.7595,0.0403433,1.37413,19.4453,951.766,6.41629,0.0,0.0
285,71,76.5485,91.7983,113.699,97.2564,46.5543,0.0399427,1.38488,19.438,950.294,6.6547,0.0,0.0
304,75.75,80.4521,97.4347,117.029,97.3064,47.6823,0.0411975,1.39666,19.4232,948.733,6.44308,0.0,0.0
323,80.5,84.0797,102.226,122.114,97.3504,45.4241,0.0420716,1.41768,19.4009,947.172,6.88542,0.0,0.0
342,85.25,87.1207,106.208,122.719,97.3583,43.3084,0.0424943,1.42109,19.3969,945.73,7.31697,0.0,0.0
361,90,89.914,109.947,122.877,97.3369,46.2099,0.042709,1.43672,19.3891,944.159,6.72924,0.0,0.0
380,94.75,92.8825,113.273,122.028,97.2897,44.7692,0.0430725,1.4362,19.3859,942.617,7.01097,0.0,0.0
399,99.5,95.1996,115.992,117.21,97.2168,45.6235,0.0430934,1.42943,19.3975,941.076,6.83344,0.0,0.0
418,104.25,96.1595,117.655,117.048,97.1435,46.3804,0.0408127,1.4043,19.4261,939.615,6.678,0.0,0.0
437,109,97.4917,119.385,117.707,97.0812,45.2999,0.0395226,1.37996,19.45,938.104,6.88515,0.0,0.0
456,113.75,97.9571,119.312,117.301,97.0368,45.5671,0.0392253,1.35381,19.4822,936.732,6.82789,0.0,0.0
475,118.5,99.9416,121.574,120.088,97.279,44.2765,0.0395747,1.35233,19.4841,935.191,7.10993,0.0,0.0
494,123.25,100.192,122.442,111.326,97.5125,46.3676,0.0388848,1.35442,19.4809,933.74,6.71474,0.0,0.0
513,128,100.588,121.389,121.934,97.7076,53.171,0.0344964,1.23791,19.6129,932.569,5.49611,0.0,0.0
532,132.75,101.58,122.837,112.842,97.769,48.0952,0.0348075,1.25969,19.5868,931.238,6.40805,0.0,0.0
551,137.5,104.033,125.118,119.167,97.7512,50.4765,0.0365079,1.33097,19.4977,929.886,5.96988,0.0,0.0
570,142.25,104.343,126.206,112.132,97.6172,48.1953,0.0373658,1.33284,19.4965,928.485,6.37523,0.0,0.0
589,147,105.311,126.965,119.886,97.3797,52.5786,0.0368289,1.31258,19.5239,927.034,5.56695,0.0,0.0
608,151.75,105.576,126.301,128.367,97.128,51.5616,0.0348372,1.26058,19.5842,925.743,5.72,0.0,0.0
627,156.5,104.895,126.098,124.366,97.2263,53.0777,0.0327227,1.2214,19.6289,924.562,5.46738,0.0,0.0
646,161.25,105.376,125.536,116.916,97.3758,52.8255,0.0306561,1.16115,19.7034,923.331,5.52427,0.0,0.0
665,166,104.601,124.773,117.854,97.5141,56.4722,0.0281427,1.11295,19.7588,922.17,4.93412,0.0,0.0
684,170.75,104.017,123.614,116.649,97.6616,55.0698,0.0279654,1.10981,19.7617,921.029,5.17491,0.0,0.0
703,175.5,104.206,122.974,118.853,97.771,55.9359,0.0277767,1.11827,19.7513,919.848,5.04408,0.0,0.0
722,180.25,104.149,123.184,122.246,97.8292,54.646,0.0281525,1.1365,19.7371,918.606,5.26019,0.0,0.0
741,185,103.761,123.348,114.433,97.8479,52.0554,0.0276672,1.14069,19.7282,917.345,5.7006,0.0,0.0
760,189.75,104.202,122.69,119.021,97.8031,53.2809,0.0274617,1.15391,19.71,916.144,5.48628,0.0,0.0
779,194.5,105.37,123.814,119.325,97.7135,52.8601,0.0281668,1.17614,19.6849,914.903,5.54962,0.0,0.0
798,199.25,105.727,124.452,118.437,97.5288,51.7487,0.028378,1.1849,19.6742,913.652,5.72448,0.0,0.0
817,204,106.463,124.831,117.384,97.3028,53.4322,0.0293466,1.19824,19.6604,912.351,5.41435,0.0,0.0
836,208.75,106.7,125.285,118.737,97.059,55.1007,0.029607,1.19247,19.6647,911.14,5.11395,0.0,0.0
855,213.5,107.647,125.228,115.464,96.7665,55.9505,0.0294769,1.19,19.6673,909.879,4.94843,0.0,0.0
874,218.25,108.22,126.187,117.202,96.4632,55.9336,0.0290028,1.18917,19.6688,908.678,4.92281,0.0,0.0
893,223,108.041,125.895,116.806,96.1604,54.9588,0.0298905,1.19519,19.6604,907.447,5.05322,0.0,0.0
912,227.75,109.028,127.498,116.551,95.9249,56.5825,0.0310728,1.21858,19.6364,906.176,4.76808,0.0,0.0
931,232.5,109.932,128.011,116.252,95.7842,55.7258,0.0312317,1.20838,19.6481,904.894,4.89261,0.0,0.0
950,237.25,110.257,128.019,106.195,95.7394,54.9851,0.0328632,1.22097,19.6283,903.523,5.00926,0.0,0.0
969,242,111.308,130.012,123.044,95.8032,55.9084,0.0391045,1.30772,19.5291,902.142,4.86487,0.0,0.0
988,246.75,113.284,132.02,111.905,95.9527,48.7124,0.0453145,1.42655,19.3887,900.561,6.12347,0.0,0.0
1007,251.5,116.054,136.57,103.409,96.1989,46.6258,0.055249,1.6593,19.1426,898.689,6.54207,0.0,0.0
1026,256.25,120.158,141.663,110.731,96.5199,45.7364,0.0634547,1.89229,18.8718,896.757,6.74613,0.0,0.0
1045,261,124.111,146.975,105.146,96.7962,47.5498,0.0653183,2.02458,18.7353,894.715,6.42073,0.0,0.0
1064,265.75,126.185,150.093,108.132,97.0281,44.3081,0.060245,1.93387,18.831,892.854,7.08016,0.0,0.0
1083,270.5,126.761,150.789,113.262,97.2085,44.5659,0.0613258,1.84563,18.9315,891.012,7.04452,0.0,0.0
1102,275.25,126.612,149.933,116.125,97.2977,48.064,0.0549589,1.68879,19.093,889.491,6.37027,0.0,0.0
1121,280,125.077,147.027,116.132,97.346,51.5996,0.0451659,1.51207,19.3312,887.94,5.73359,0.0,0.0
1140,284.75,122.344,144.203,120.386,97.2838,52.9297,0.0371126,1.33629,19.5323,886.638,5.49793,0.0,0.0
1159,289.5,119.456,139.313,119.725,97.1768,59.7252,0.0292424,1.1667,19.7226,885.487,4.39693,0.0,0.0
1178,294.25,117.712,136.384,119.81,97.0686,62.0027,0.0220802,1.02979,19.8792,884.517,4.04883,0.0,0.0
1197,299,114.654,132.242,127.969,97.0448,64.903,0.0166277,0.900192,20.0276,883.656,3.63367,0.0,0.0
1216,303.75,111.918,128.502,126.084,97.4677,68.0405,0.0132395,0.784836,20.1647,882.915,3.24653,0.0,0.0
1235,308.5,109.249,124.095,127.868,97.7107,68.9442,0.0106129,0.694153,20.26,882.255,3.14984,0.0,0.0
1254,313.25,106.591,119.907,131.442,97.7623,71.9996,0.0080732,0.627209,20.3384,881.644,2.76292,0.0,0.0
1273,318,103.974,115.703,132.256,97.6334,76.8812,0.0068837,0.559884,20.4112,881.114,2.15845,0.0,0.0
1292,322.75,100.243,111.166,129.167,97.2957,77.0329,0.00617583,0.500895,20.4814,880.613,2.10935,0.0,0.0
1311,327.5,98.644,108.607,131.958,97.2216,81.2185,0.00545948,0.45391,20.5369,880.263,1.62453,0.0,0.0
1330,332.25,96.0286,104.318,133.53,97.4023,86.3372,0.00449329,0.399689,20.5979,879.902,1.08925,0.0,0.0
1349,337,93.3067,101.223,134.479,97.639,91.6193,0.00360502,0.32432,20.6813,879.702,0.574795,0.0,0.0
1368,341.75,90.4197,97.2728,141.623,97.8031,92.5712,0.00339658,0.249278,20.7584,879.602,0.496605,0.0,0.0
1387,346.5,87.5425,93.604,138.372,97.8621,93.3871,0.00400204,0.202303,20.8051,879.532,0.422788,0.0,0.0
1406,351.25,85.3587,90.4443,139.962,97.8308,93.616,0.00412556,0.178132,20.8283,879.442,0.397789,0.0,0.0
1425,356,82.4788,87.0523,135.658,97.6699,94.1192,0.00444507,0.166593,20.8393,879.372,0.334494,0.0,0.0
1444,360.75,80.0616,83.9648,137.281,97.4249,93.5546,0.00458243,0.160157,20.8452,879.212,0.366154,0.0,0.0
1463,365.5,78.6163,81.8459,138.96,97.0856,94.065,0.0045087,0.154919,20.8499,879.152,0.285498,0.0,0.0
1482,370.25,77.0056,79.916,136.692,96.6944,92.8504,0.00473407,0.150791,20.8558,879.162,0.366414,0.0,0.0
1501,375,75.5537,77.3634,137.583,96.3126,93.8362,0.00465468,0.147617,20.8616,879.072,0.235295,0.0,0.0
1520,379.75,74.3009,76.6341,137.98,96.007,92.6261,0.00458696,0.144715,20.8656,879.002,0.323824,0.0,0.0
1539,384.5,72.8266,75.0188,141.523,95.8191,93.1816,0.00433078,0.14195,20.8716,878.942,0.252116,0.0,0.0
1558,389.25,72.1651,73.1593,143.255,95.7795,93.0062,0.00467522,0.139937,20.8755,878.882,0.265397,0.0,0.0
1577,394,70.6069,72.1349,140.075,95.8635,92.6987,0.00494432,0.138735,20.8783,878.832,0.303232,0.0,0.0
1596,398.75,69.5563,70.03,141.756,96.0375,93.4763,0.00516097,0.137384,20.8836,878.781,0.24416,0.0,0.0
1615,403.5,69.1179,70.0962,143.165,96.2658,93.418,0.0053439,0.136346,20.8875,878.701,0.271249,0.0,0.0
1634,408.25,68.5608,68.7251,143.532,96.5168,94.1764,0.00582948,0.135766,20.8901,878.661,0.221727,0.0,0.0
1653,413,67.2027,67.8789,142.763,96.7804,92.675,0.00609989,0.135201,20.8925,878.571,0.391524,0.0,0.0
1672,417.75,67.1443,67.8984,140.946,96.9948,94.9032,0.00605052,0.134164,20.895,878.491,0.196916,0.0,0.0
1691,422.5,65.7643,66.1678,140.894,97.1268,94.0883,0.00615725,0.133068,20.8993,878.491,0.287093,0.0,0.0
1710,427.25,65.3481,65.445,143.88,97.2311,94.9566,0.00596576,0.132195,20.9008,878.401,0.213806,0.0,0.0
1729,432,64.9932,65.2368,137.358,97.285,94.5742,0.00539267,0.130887,20.903,878.351,0.255262,0.0,0.0
1748,436.75,64.6794,64.7998,140.303,97.2747,93.9028,0.00560843,0.129667,20.9046,878.311,0.318665,0.0,0.0
1767,441.5,64.1705,63.874,141.361,97.239,94.45,0.00553742,0.128737,20.9065,878.221,0.262863,0.0,0.0
1786,446.25,63.4983,63.6334,137.754,97.1581,95.2656,0.00565932,0.127399,20.9081,878.201,0.177681,0.0,0.0
1805,451,63.2802,63.3008,143.814,97.0491,94.9483,0.00577012,0.126562,20.9101,878.141,0.197676,0.0,0.0
1824,455.75,62.6169,62.0838,140.901,96.9885,94.371,0.0057827,0.125206,20.9125,878.111,0.247122,0.0,0.0
1843,460.5,61.5855,62.176,142.203,97.2002,94.7662,,0.124277,,878.081,0.229067,0.0,0.0
1862,465.25,60.7568,61.2812,146.058,97.4975,94.7203,,,,878.041,0.261031,0.0,0.0
1881,470,61.3205,61.1692,141.587,97.6667,94.4869,,,,877.991,0.29898,0.0,0.0
1884,470.75,61.0432,61.0432,141.41,97.6822,95.1651,,,,877.971,0.235804,0.0,0.0