Folder: fsri_materials_database/01_Data/PET/MCC (part 2)

File: PET_MCC_30K_min_210927_R3.txt
Sample ID:	C:\MCC\MCC Cal\Test\PET_MCC_30K_min_210927_R3.txt
Sample Weight (mg):	4
Heating Rate (C/s):	0.5
Combustor Temp (C):	900
N2 Flow Rate (cc/min):	80
O2 Flow Rate (cc/min):	20
Calibration File:	C:\MCC\MCC Cal\Coeff1 JN10440_30_210304.txt.txt
T Correction Coefficients:	0	1.024463	0
Time Shift (s):	14
*
Time (s)	Temperature (C)	N2 flow rate (cc/min)	O2 flow rate (cc/min)	Flow Rate (cc/min)	Oxygen (%)	HRR (W/g)	Heating rate (C/s)
0.000	108.061	80.000	19.994	100.082	20.124	0.100	-0.018
8.000	108.009	80.000	19.994	100.073	20.124	0.100	-0.040
16.000	107.999	79.995	19.995	100.080	20.127	-0.190	-0.006
24.000	108.051	79.996	19.995	100.121	20.117	0.636	0.010
32.000	108.212	79.997	19.994	100.235	20.108	1.296	0.008
40.000	108.844	79.997	19.996	100.250	20.096	2.261	0.127
48.000	109.915	79.994	19.996	100.279	20.090	2.703	0.146
56.000	111.355	79.999	19.993	100.302	20.088	2.875	0.192
64.000	113.144	79.996	19.995	100.338	20.084	3.202	0.228
72.000	115.381	79.999	19.995	100.345	20.078	3.629	0.274
80.000	118.007	80.001	19.994	100.367	20.077	3.758	0.355
88.000	120.857	79.998	19.994	100.344	20.073	4.027	0.372
96.000	124.030	79.998	19.995	100.354	20.078	3.692	0.405
104.000	127.419	79.998	19.995	100.348	20.071	4.189	0.446
112.000	131.033	79.997	19.995	100.355	20.076	3.786	0.454
120.000	134.719	79.995	19.996	100.362	20.076	3.831	0.485
128.000	138.640	79.995	19.995	100.368	20.075	3.939	0.480
136.000	142.649	79.997	19.996	100.359	20.080	3.497	0.516
144.000	146.660	79.999	19.994	100.346	20.081	3.458	0.487
152.000	150.817	79.998	19.995	100.340	20.081	3.434	0.548
160.000	154.862	80.000	19.995	100.336	20.084	3.176	0.505
168.000	158.825	79.998	19.995	100.318	20.084	3.180	0.443
176.000	162.912	79.997	19.994	100.314	20.086	3.067	0.502
184.000	166.939	79.999	19.995	100.320	20.088	2.870	0.451
192.000	170.941	79.995	19.994	100.307	20.089	2.793	0.487
200.000	174.865	79.998	19.995	100.302	20.090	2.757	0.475
208.000	178.763	79.997	19.995	100.307	20.090	2.699	0.483
216.000	182.707	79.998	19.995	100.296	20.091	2.628	0.509
224.000	186.651	79.999	19.995	100.298	20.091	2.678	0.505
232.000	190.533	79.999	19.995	100.300	20.097	2.214	0.520
240.000	194.401	79.998	19.995	100.302	20.094	2.402	0.469
248.000	198.334	79.998	19.995	100.302	20.098	2.114	0.480
256.000	202.324	79.996	19.996	100.290	20.097	2.199	0.508
264.000	206.302	79.999	19.994	100.300	20.098	2.137	0.502
272.000	210.261	79.998	19.995	100.276	20.093	2.464	0.512
280.000	214.174	79.996	19.996	100.300	20.098	2.081	0.482
288.000	218.147	79.999	19.995	100.267	20.101	1.878	0.510
296.000	222.169	79.998	19.995	100.273	20.101	1.861	0.499
304.000	226.173	79.998	19.996	100.286	20.101	1.898	0.511
312.000	230.180	79.998	19.996	100.269	20.104	1.648	0.493
320.000	234.153	80.000	19.994	100.271	20.097	2.179	0.509
328.000	238.249	79.998	19.995	100.279	20.101	1.850	0.509
336.000	242.234	79.997	19.995	100.265	20.103	1.712	0.525
344.000	246.296	79.997	19.996	100.270	20.098	2.062	0.478
352.000	250.363	79.997	19.994	100.266	20.107	1.426	0.555
360.000	254.349	79.996	19.995	100.263	20.103	1.731	0.516
368.000	258.399	79.997	19.995	100.267	20.103	1.733	0.522
376.000	262.380	79.999	19.994	100.260	20.105	1.522	0.510
384.000	266.396	79.998	19.996	100.266	20.106	1.490	0.517
392.000	270.403	79.998	19.995	100.261	20.109	1.229	0.509
400.000	274.405	79.999	19.996	100.256	20.105	1.571	0.484
408.000	278.413	79.997	19.995	100.260	20.107	1.434	0.493
416.000	282.309	79.997	19.994	100.252	20.110	1.140	0.488
424.000	286.369	79.998	19.995	100.264	20.113	0.958	0.507
432.000	290.377	79.998	19.996	100.262	20.111	1.108	0.516
440.000	294.383	79.996	19.994	100.266	20.114	0.879	0.502
448.000	298.424	79.998	19.995	100.264	20.110	1.125	0.522
456.000	302.418	79.999	19.996	100.262	20.112	1.022	0.487
464.000	306.418	79.999	19.996	100.257	20.113	0.935	0.469
472.000	310.500	79.999	19.995	100.255	20.113	0.937	0.526
480.000	314.548	79.999	19.996	100.260	20.112	0.982	0.527
488.000	318.572	79.998	19.997	100.231	20.114	0.832	0.506
496.000	322.534	79.996	19.995	100.245	20.113	0.933	0.497
504.000	326.628	79.997	19.994	100.249	20.115	0.809	0.525
512.000	330.647	79.998	19.994	100.237	20.114	0.888	0.505
520.000	334.703	79.998	19.995	100.241	20.112	1.011	0.493
528.000	338.767	79.997	19.995	100.248	20.114	0.815	0.515
536.000	342.785	80.000	19.994	100.244	20.113	0.954	0.469
544.000	346.875	79.999	19.996	100.240	20.115	0.766	0.537
552.000	350.821	79.997	19.997	100.231	20.114	0.847	0.475
560.000	354.917	79.999	19.996	100.230	20.110	1.144	0.476
568.000	358.939	79.997	19.995	100.232	20.110	1.195	0.511
576.000	362.951	79.998	19.996	100.228	20.109	1.212	0.489
584.000	367.093	79.997	19.996	100.229	20.101	1.882	0.507
592.000	371.165	79.997	19.995	100.225	20.096	2.291	0.521
600.000	375.212	79.997	19.996	100.225	20.088	2.906	0.490
608.000	379.395	79.997	19.996	100.230	20.066	4.569	0.520
616.000	383.496	79.998	19.995	100.235	20.041	6.559	0.521
624.000	387.603	79.999	19.995	100.247	19.997	9.961	0.522
632.000	391.674	80.000	19.996	100.263	19.943	14.231	0.503
640.000	395.726	79.999	19.996	100.263	19.866	20.240	0.501
648.000	399.757	79.996	19.995	100.287	19.765	28.176	0.508
656.000	403.699	79.997	19.995	100.310	19.636	38.240	0.492
664.000	407.642	79.997	19.996	100.339	19.478	50.642	0.501
672.000	411.606	79.996	19.996	100.386	19.266	67.266	0.492
680.000	415.512	79.995	19.995	100.431	19.016	86.962	0.513
688.000	419.490	79.997	19.993	100.501	18.724	109.920	0.473
696.000	423.475	79.998	19.994	100.555	18.383	136.757	0.492
704.000	427.435	80.000	19.995	100.615	18.058	162.392	0.511
712.000	431.473	79.998	19.996	100.690	17.745	187.039	0.457
720.000	435.554	80.001	19.995	100.743	17.458	209.791	0.513
728.000	439.642	79.997	19.996	100.796	17.254	225.883	0.527
736.000	443.624	79.996	19.996	100.850	17.180	231.696	0.465
744.000	447.729	79.996	19.995	100.894	17.289	223.121	0.545
752.000	451.793	79.996	19.995	100.885	17.597	198.692	0.520
760.000	455.852	79.995	19.996	100.815	17.945	171.156	0.495
768.000	460.271	79.998	19.996	100.715	18.354	138.924	0.298
776.000	464.097	80.000	19.997	100.606	18.794	104.225	0.453
784.000	468.324	79.998	19.994	100.470	19.251	68.423	0.518
792.000	472.474	79.998	19.995	100.364	19.611	40.188	0.508
800.000	476.749	79.999	19.995	100.297	19.824	23.553	0.533
808.000	480.932	79.998	19.994	100.257	19.939	14.535	0.531
816.000	485.193	79.997	19.995	100.235	20.012	8.783	0.531
824.000	489.405	79.996	19.995	100.227	20.058	5.223	0.537
832.000	493.588	79.997	19.996	100.195	20.083	3.248	0.496
840.000	497.725	79.996	19.996	100.195	20.098	2.094	0.506
848.000	501.864	79.997	19.996	100.183	20.106	1.469	0.547
856.000	505.908	79.998	19.995	100.182	20.116	0.674	0.523
864.000	510.002	79.999	19.994	100.190	20.114	0.872	0.514
872.000	513.970	80.000	19.994	100.191	20.118	0.525	0.514
880.000	518.066	79.999	19.995	100.190	20.123	0.179	0.544
888.000	522.147	79.995	19.994	100.188	20.124	0.085	0.513
896.000	526.296	79.997	19.994	100.194	20.126	-0.126	0.538
904.000	530.451	79.996	19.995	100.183	20.127	-0.192	0.515
912.000	534.534	79.997	19.994	100.175	20.125	-0.038	0.530
920.000	538.692	79.997	19.996	100.184	20.120	0.390	0.522
928.000	542.733	79.997	19.994	100.191	20.123	0.130	0.509
936.000	546.734	79.997	19.996	100.199	20.127	-0.196	0.493
944.000	550.825	79.997	19.996	100.188	20.124	0.090	0.519
952.000	554.900	79.999	19.994	100.190	20.135	-0.819	0.518
960.000	559.016	79.999	19.994	100.203	20.145	-1.536	0.529
968.000	563.084	79.997	19.995	100.186	20.136	-0.906	0.534
976.000	567.156	79.999	19.995	100.184	20.131	-0.459	0.500
984.000	571.263	79.998	19.994	100.184	20.121	0.318	0.533
992.000	575.408	79.996	19.995	100.190	20.120	0.377	0.514
1000.000	579.484	79.997	19.996	100.188	20.116	0.704	0.532
1008.000	583.621	79.998	19.995	100.181	20.116	0.727	0.497
1016.000	587.693	79.997	19.994	100.182	20.114	0.879	0.492
1024.000	591.830	79.999	19.996	100.184	20.115	0.793	0.504
1032.000	595.943	80.000	19.995	100.163	20.113	0.953	0.525
1040.000	599.953	79.999	19.994	100.181	20.117	0.621	0.482
1048.000	604.068	79.996	19.996	100.178	20.113	0.919	0.546
1056.001	608.150	79.998	19.995	100.186	20.116	0.712	0.508
1064.000	612.235	79.997	19.995	100.183	20.117	0.646	0.500
1072.001	616.407	79.997	19.994	100.197	20.114	0.849	0.531
1080.000	620.540	79.998	19.996	100.195	20.114	0.881	0.500
1088.000	624.659	80.000	19.995	100.182	20.115	0.804	0.501
1096.000	628.711	79.998	19.996	100.182	20.117	0.625	0.524
1104.000	632.834	79.998	19.994	100.172	20.118	0.561	0.504
1112.000	636.941	80.000	19.996	100.174	20.118	0.567	0.523
1120.000	641.046	79.999	19.995	100.178	20.116	0.663	0.509
1128.000	645.053	79.998	19.994	100.188	20.120	0.392	0.490
1136.000	649.119	79.999	19.993	100.180	20.122	0.252	0.488
1144.000	653.212	79.998	19.995	100.182	20.125	-0.026	0.506
1152.000	657.336	79.997	19.996	100.184	20.121	0.314	0.538
1160.000	661.473	79.999	19.994	100.184	20.128	-0.250	0.543
1168.000	665.556	80.000	19.994	100.182	20.121	0.267	0.539
1176.000	669.680	79.998	19.995	100.173	20.123	0.107	0.545
1184.001	673.735	79.998	19.995	100.186	20.125	0.023	0.542
1192.000	677.917	80.001	19.995	100.185	20.126	-0.058	0.576
1200.000	681.871	79.996	19.996	100.184	20.122	0.220	0.498
1208.000	685.908	79.996	19.996	100.187	20.131	-0.480	0.525
1216.000	689.999	79.998	19.995	100.175	20.125	0.013	0.543
1224.000	694.046	79.998	19.994	100.184	20.127	-0.175	0.554
1232.000	698.110	79.997	19.995	100.185	20.124	0.062	0.503
1240.000	702.201	79.998	19.995	100.185	20.124	0.075	0.516
1248.000	706.255	79.999	19.993	100.180	20.123	0.115	0.511
1256.000	710.401	79.999	19.994	100.192	20.119	0.491	0.512
1264.000	714.543	79.999	19.995	100.189	20.124	0.062	0.520
1272.000	718.654	80.000	19.995	100.186	20.119	0.478	0.491
1280.000	722.761	79.999	19.995	100.191	20.125	-0.006	0.500
1288.000	726.862	79.997	19.995	100.197	20.117	0.606	0.503
1296.000	730.912	79.995	19.994	100.201	20.124	0.041	0.503
1304.000	734.996	79.998	19.996	100.187	20.119	0.471	0.484
1312.000	739.036	79.998	19.995	100.188	20.118	0.544	0.521
1320.000	743.030	79.998	19.995	100.188	20.112	0.970	0.506
1321.000	743.498	79.998	19.994	100.186	20.121	0.320	0.492