Folder: fsri_materials_database/01_Data/Latex_Pillow_Outer_Fabric/MCC

Note: 01_Data/README.md
# Materials and Products Database
## 01_Data

Raw data generated from each apparatus are included here in plain-text format. The data is organized first by material, next by the short name of test apparatus used, and where applicable additional filtering by test settings.

### material.json

Each material directory contains a json file of the same name as the material. This file links the data stored in the repository as well as data and graphs produced by the accompanying scripts (__02_Scripts__) to the respective landing page for the material on the front-end website.

File: Latex_Pillow_Outer_Fabric_MCC_30K_min_211210_R2.txt
Sample ID:	C:\MCC\MCC Cal\Test\LatexPillow_A_Outer_Fabric_MCC_30K_min_211210_R2.txt
Sample Weight (mg):	4.59
Heating Rate (C/s):	0.5
Combustor Temp (C):	900
N2 Flow Rate (cc/min):	80
O2 Flow Rate (cc/min):	20
Calibration File:	C:\MCC\MCC Cal\Coeff1 JN10440_30_210304.txt.txt
T Correction Coefficients:	0	1.024463	0
Time Shift (s):	14
*
Time (s)	Temperature (C)	N2 flow rate (cc/min)	O2 flow rate (cc/min)	Flow Rate (cc/min)	Oxygen (%)	HRR (W/g)	Heating rate (C/s)
0.000	108.570	80.023	19.998	103.117	20.263	0.027	0.008
8.000	108.568	80.006	19.994	103.127	20.265	-0.120	0.041
16.000	108.579	80.007	19.994	103.156	20.256	0.475	0.001
24.000	108.882	80.009	19.995	103.254	20.240	1.657	0.035
32.000	109.557	80.007	19.994	103.288	20.233	2.141	0.076
40.001	110.574	80.007	19.994	103.317	20.233	2.151	0.150
48.001	112.036	80.008	19.994	103.331	20.226	2.610	0.211
56.000	113.939	80.008	19.996	103.357	20.222	2.863	0.259
64.000	116.178	80.010	19.994	103.355	20.220	3.049	0.312
72.000	118.685	80.007	19.995	103.354	20.219	3.114	0.342
80.001	121.403	80.006	19.996	103.366	20.213	3.523	0.319
88.000	124.377	80.006	19.996	103.362	20.218	3.148	0.361
96.000	127.512	80.009	19.994	103.377	20.211	3.633	0.426
104.000	130.889	80.006	19.994	103.382	20.213	3.519	0.426
112.000	134.322	80.008	19.995	103.380	20.214	3.482	0.462
120.000	137.922	80.009	19.995	103.383	20.209	3.772	0.462
128.000	141.636	80.008	19.995	103.368	20.216	3.333	0.457
136.000	145.491	80.006	19.994	103.381	20.214	3.445	0.486
144.000	149.394	80.011	19.995	103.368	20.207	3.950	0.530
152.000	153.261	80.007	19.995	103.368	20.211	3.675	0.502
160.000	157.191	80.009	19.995	103.366	20.209	3.814	0.518
168.001	161.174	80.007	19.994	103.366	20.210	3.735	0.493
176.000	165.179	80.008	19.996	103.409	20.206	4.044	0.507
184.000	169.189	80.005	19.995	103.343	20.209	3.786	0.461
192.000	173.242	80.007	19.994	103.336	20.209	3.778	0.498
200.000	177.280	80.006	19.994	103.330	20.205	4.080	0.478
208.000	181.289	80.008	19.994	103.327	20.210	3.755	0.544
216.000	185.300	80.009	19.995	103.326	20.209	3.770	0.481
224.000	189.373	80.011	19.994	103.323	20.214	3.476	0.521
232.000	193.383	80.008	19.994	103.327	20.210	3.743	0.517
240.000	197.309	80.007	19.995	103.318	20.213	3.552	0.492
248.000	201.241	80.007	19.996	103.328	20.211	3.631	0.502
256.000	205.208	80.007	19.995	103.318	20.216	3.308	0.492
264.000	209.118	80.007	19.995	103.321	20.222	2.879	0.503
272.000	213.098	80.007	19.996	103.304	20.220	3.053	0.487
280.000	217.039	80.007	19.995	103.302	20.223	2.792	0.470
288.000	220.951	80.009	19.994	103.299	20.224	2.720	0.480
296.000	224.913	80.009	19.995	103.311	20.226	2.585	0.511
304.000	228.951	80.010	19.994	103.292	20.234	2.030	0.521
312.000	232.991	80.009	19.995	103.291	20.232	2.181	0.487
320.000	237.030	80.008	19.995	103.290	20.233	2.108	0.508
328.000	241.016	80.007	19.995	103.288	20.233	2.138	0.489
336.000	244.962	80.008	19.995	103.293	20.230	2.312	0.487
344.000	248.948	80.009	19.995	103.290	20.224	2.726	0.536
352.000	252.939	80.006	19.995	103.287	20.228	2.475	0.485
360.000	256.864	80.007	19.996	103.287	20.230	2.341	0.461
368.000	260.912	80.008	19.995	103.288	20.228	2.451	0.496
376.000	264.959	80.007	19.995	103.286	20.228	2.438	0.513
384.000	268.939	80.009	19.994	103.287	20.230	2.345	0.499
392.000	273.038	80.011	19.995	103.285	20.229	2.387	0.504
400.000	277.105	80.010	19.994	103.285	20.233	2.119	0.474
408.000	281.098	80.006	19.994	103.267	20.229	2.410	0.527
416.000	285.168	80.008	19.995	103.280	20.232	2.183	0.514
424.000	289.175	80.008	19.994	103.275	20.229	2.378	0.516
432.000	293.206	80.007	19.996	103.278	20.229	2.383	0.502
440.000	297.238	80.005	19.996	103.281	20.231	2.291	0.493
448.000	301.303	80.008	19.995	103.262	20.235	1.997	0.526
456.000	305.317	80.009	19.995	103.268	20.231	2.283	0.488
464.000	309.376	80.008	19.995	103.272	20.236	1.910	0.535
472.000	313.441	80.008	19.995	103.255	20.231	2.240	0.542
480.000	317.394	80.009	19.995	103.250	20.229	2.397	0.498
488.000	321.313	80.008	19.995	103.259	20.233	2.113	0.305
496.000	325.327	80.008	19.996	103.258	20.227	2.549	0.508
504.000	329.295	80.007	19.994	103.260	20.229	2.426	0.499
512.000	333.230	80.007	19.994	103.259	20.225	2.675	0.514
520.000	337.173	80.008	19.996	103.253	20.228	2.489	0.500
528.000	341.167	80.009	19.995	103.251	20.228	2.462	0.526
536.000	345.195	80.010	19.997	103.254	20.229	2.366	0.537
544.000	349.207	80.008	19.995	103.253	20.225	2.659	0.505
552.001	353.279	80.008	19.996	103.247	20.227	2.540	0.504
560.000	357.318	80.010	19.995	103.253	20.225	2.671	0.499
568.000	361.359	80.009	19.997	103.250	20.214	3.480	0.533
576.000	365.411	80.008	19.995	103.261	20.199	4.502	0.503
584.000	369.441	80.008	19.994	103.267	20.180	5.826	0.496
592.000	373.461	80.007	19.994	103.268	20.161	7.144	0.529
600.000	377.474	80.007	19.995	103.284	20.128	9.476	0.532
608.000	381.609	80.009	19.995	103.288	20.107	10.931	0.512
616.000	385.761	80.010	19.996	103.314	20.076	13.130	0.513
624.000	389.978	80.007	19.996	103.326	20.027	16.581	0.512
632.000	394.219	80.008	19.995	103.337	19.967	20.788	0.519
640.000	398.411	80.010	19.995	103.379	19.870	27.644	0.508
648.000	402.610	80.008	19.995	103.339	19.816	31.411	0.543
656.001	406.773	80.006	19.995	103.436	19.726	37.803	0.496
664.000	410.919	80.007	19.995	103.457	19.606	46.249	0.506
672.001	414.999	80.007	19.995	103.512	19.439	58.036	0.507
680.000	419.028	80.007	19.995	103.564	19.242	71.941	0.499
688.000	423.020	80.007	19.995	103.665	19.000	89.102	0.494
696.000	427.022	80.008	19.996	103.747	18.752	106.734	0.495
704.000	431.012	80.010	19.993	103.843	18.471	126.719	0.492
712.000	435.077	80.008	19.994	103.937	18.177	147.462	0.485
720.000	439.110	80.009	19.994	103.995	17.957	163.182	0.512
728.000	443.175	80.011	19.996	104.113	17.825	172.540	0.537
736.000	447.210	80.009	19.996	104.130	17.712	180.515	0.488
744.000	451.269	80.009	19.997	104.125	17.710	180.532	0.510
752.000	455.330	80.007	19.995	104.066	17.906	166.490	0.489
760.000	459.471	80.007	19.996	103.951	18.287	139.312	0.522
768.000	463.531	80.006	19.994	103.796	18.778	104.636	0.523
776.000	467.607	80.007	19.994	103.676	19.291	68.348	0.520
784.000	471.804	80.009	19.994	103.510	19.641	43.721	0.524
792.000	476.064	80.008	19.994	103.414	19.843	29.488	0.550
800.000	480.203	80.010	19.995	103.383	19.974	20.291	0.515
808.000	484.375	80.012	19.995	103.328	20.057	14.481	0.510
816.000	488.595	80.007	19.993	103.299	20.109	10.851	0.523
824.000	492.682	80.006	19.994	103.288	20.145	8.283	0.514
832.000	496.796	80.007	19.995	103.266	20.162	7.114	0.520
840.000	500.829	80.007	19.994	103.255	20.179	5.921	0.490
848.000	504.877	80.007	19.995	103.250	20.184	5.520	0.479
856.000	508.907	80.007	19.995	103.246	20.187	5.325	0.511
864.000	513.026	80.009	19.994	103.230	20.194	4.849	0.551
872.000	517.063	80.010	19.994	103.232	20.201	4.372	0.509
880.000	521.197	80.008	19.994	103.223	20.194	4.868	0.514
888.000	525.277	80.008	19.994	103.232	20.195	4.783	0.516
896.000	529.363	80.009	19.995	103.230	20.198	4.589	0.519
904.000	533.465	80.006	19.993	103.227	20.197	4.642	0.499
912.000	537.638	80.007	19.994	103.236	20.200	4.417	0.529
920.000	541.721	80.009	19.994	103.212	20.196	4.701	0.519
928.000	545.802	80.006	19.995	103.215	20.197	4.625	0.510
936.000	549.989	80.008	19.995	103.237	20.196	4.740	0.524
944.000	554.088	80.009	19.996	103.214	20.195	4.748	0.510
952.000	558.186	80.010	19.996	103.227	20.193	4.908	0.534
960.000	562.334	80.009	19.995	103.232	20.194	4.838	0.518
968.000	566.385	80.009	19.993	103.225	20.194	4.853	0.511
976.000	570.458	80.010	19.994	103.215	20.197	4.617	0.492
984.000	574.623	80.008	19.995	103.210	20.194	4.880	0.518
992.000	578.710	80.008	19.994	103.223	20.192	4.963	0.497
1000.000	582.743	80.009	19.995	103.215	20.187	5.355	0.498
1008.000	586.821	80.009	19.995	103.213	20.184	5.523	0.491
1016.000	590.904	80.007	19.996	103.217	20.188	5.293	0.517
1024.000	595.074	80.009	19.995	103.223	20.185	5.477	0.515
1032.000	599.186	80.009	19.995	103.213	20.185	5.465	0.512
1040.000	603.265	80.006	19.995	103.222	20.188	5.289	0.506
1048.000	607.299	80.008	19.996	103.212	20.183	5.588	0.494
1056.000	611.404	80.011	19.994	103.208	20.181	5.737	0.500
1064.001	615.539	80.008	19.994	103.213	20.184	5.585	0.529
1072.000	619.581	80.006	19.993	103.210	20.185	5.498	0.532
1080.000	623.702	80.009	19.995	103.210	20.186	5.421	0.496
1088.001	627.739	80.009	19.995	103.213	20.183	5.643	0.480
1096.000	631.937	80.008	19.994	103.213	20.187	5.361	0.555
1104.000	635.892	80.008	19.995	103.212	20.193	4.945	0.511
1112.000	639.980	80.009	19.995	103.202	20.190	5.154	0.493
1120.001	644.041	80.010	19.995	103.208	20.193	4.934	0.511
1128.001	648.103	80.008	19.995	103.205	20.194	4.854	0.493
1136.000	652.189	80.009	19.996	103.206	20.201	4.339	0.531
1144.000	656.296	80.010	19.996	103.205	20.198	4.583	0.514
1152.000	660.444	80.007	19.995	103.208	20.200	4.453	0.544
1160.000	664.527	80.008	19.994	103.209	20.194	4.872	0.506
1168.000	668.730	80.009	19.994	103.208	20.196	4.733	0.537
1176.000	672.910	80.008	19.994	103.205	20.196	4.729	0.551
1184.001	677.169	80.007	19.996	103.200	20.201	4.362	0.547
1192.000	681.361	80.009	19.995	103.208	20.200	4.434	0.514
1200.000	685.515	80.010	19.995	103.182	20.208	3.874	0.521
1208.000	689.688	80.008	19.995	103.201	20.201	4.353	0.501
1216.001	693.842	80.010	19.995	103.209	20.203	4.233	0.478
1224.000	697.979	80.011	19.995	103.208	20.203	4.210	0.542
1232.001	702.016	80.007	19.996	103.209	20.205	4.109	0.509
1240.000	706.075	80.007	19.996	103.190	20.205	4.090	0.508
1248.000	710.088	80.008	19.994	103.186	20.203	4.196	0.496
1256.001	714.040	80.009	19.995	103.194	20.201	4.356	0.495
1264.000	718.029	80.008	19.995	103.199	20.197	4.628	0.501
1272.000	721.991	80.008	19.996	103.193	20.196	4.715	0.489
1280.000	726.008	80.010	19.994	103.201	20.202	4.254	0.504
1288.000	730.109	80.009	19.993	103.202	20.205	4.078	0.522
1296.001	734.217	80.009	19.994	103.198	20.199	4.501	0.505
1304.000	738.256	80.011	19.994	103.178	20.201	4.339	0.523
1312.000	742.309	80.010	19.995	103.176	20.199	4.489	0.516
1314.501	743.588	80.007	19.995	103.192	20.201	4.359	0.501