Folder: fsri_materials_database/01_Data/Fiberglass_Insulation_R13_Paper_Faced_Paper/MCC

Note: 01_Data/README.md
# Materials and Products Database
## 01_Data

Raw data generated from each apparatus are included here in plain-text format. The data is organized first by material, next by the short name of test apparatus used, and where applicable additional filtering by test settings.

### material.json

Each material directory contains a json file of the same name as the material. This file links the data stored in the repository as well as data and graphs produced by the accompanying scripts (__02_Scripts__) to the respective landing page for the material on the front-end website.

File: Fiberglass_Insulation_R13_Paper_Faced_Paper_MCC_30K_min_220214_R1.txt
Sample ID:	C:\MCC\MCC Cal\Test\R13_Fiberglas_InsulationA_MCC_30K_min_220214_R1.txt
Sample Weight (mg):	4.83
Heating Rate (C/s):	0.5
Combustor Temp (C):	900
N2 Flow Rate (cc/min):	80
O2 Flow Rate (cc/min):	20
Calibration File:	C:\MCC\MCC Cal\Coeff1 JN10440_30_210304.txt.txt
T Correction Coefficients:	0	1.024463	0
Time Shift (s):	14
*
Time (s)	Temperature (C)	N2 flow rate (cc/min)	O2 flow rate (cc/min)	Flow Rate (cc/min)	Oxygen (%)	HRR (W/g)	Heating rate (C/s)
0.000	113.252	80.004	19.994	103.645	20.018	0.005	0.005
8.000	113.175	80.003	19.994	103.651	20.014	0.275	-0.010
16.001	113.240	80.008	19.992	103.682	20.013	0.312	0.019
24.000	113.385	80.006	19.993	103.727	20.006	0.821	0.024
32.000	113.941	80.004	19.993	103.826	19.991	1.800	0.101
40.000	114.896	80.004	19.994	103.855	19.984	2.264	0.113
48.000	116.330	80.006	19.994	103.889	19.975	2.896	0.216
56.000	118.231	80.005	19.994	103.907	19.971	3.119	0.251
64.000	120.534	80.004	19.995	103.913	19.971	3.169	0.300
72.000	123.194	80.004	19.993	103.926	19.967	3.424	0.357
80.000	126.215	80.004	19.993	103.948	19.963	3.667	0.398
88.000	129.430	80.003	19.994	103.948	19.964	3.607	0.421
96.000	132.852	80.004	19.994	103.932	19.968	3.364	0.425
104.000	136.513	80.004	19.993	103.934	19.964	3.623	0.484
112.000	140.286	80.005	19.992	103.938	19.964	3.605	0.456
120.000	144.167	80.003	19.994	103.921	19.968	3.352	0.497
128.000	148.072	80.009	19.994	103.923	19.964	3.595	0.486
136.000	152.085	80.008	19.992	103.929	19.966	3.458	0.499
144.000	156.092	80.003	19.993	103.932	19.968	3.363	0.518
152.000	160.107	80.006	19.993	103.910	19.969	3.284	0.499
160.000	164.155	80.005	19.995	103.904	19.971	3.136	0.504
168.000	168.171	80.005	19.993	103.907	19.969	3.267	0.527
176.000	172.161	80.006	19.993	103.901	19.971	3.149	0.522
184.000	176.187	80.004	19.994	103.892	19.977	2.773	0.491
192.000	180.139	80.006	19.993	103.896	19.981	2.466	0.484
200.000	184.150	80.004	19.994	103.908	19.976	2.815	0.540
208.000	188.119	80.007	19.993	103.882	19.973	3.043	0.470
216.000	192.021	80.004	19.993	103.880	19.976	2.822	0.455
224.000	195.977	80.003	19.993	103.871	19.978	2.649	0.463
232.000	199.912	80.007	19.992	103.872	19.973	3.042	0.489
240.000	203.866	80.005	19.995	103.870	19.973	2.984	0.478
248.000	207.862	80.002	19.995	103.868	19.976	2.791	0.500
256.000	211.807	80.004	19.994	103.871	19.972	3.110	0.495
264.000	215.808	80.003	19.993	103.877	19.971	3.177	0.483
272.000	219.811	80.004	19.993	103.873	19.967	3.422	0.510
280.000	223.832	80.001	19.994	103.874	19.965	3.570	0.514
288.000	227.810	80.004	19.993	103.866	19.965	3.544	0.497
296.000	231.886	80.006	19.994	103.870	19.962	3.763	0.520
304.000	235.907	80.004	19.993	103.869	19.960	3.868	0.497
312.000	239.885	80.007	19.994	103.868	19.954	4.273	0.503
320.000	243.927	80.005	19.993	103.869	19.948	4.680	0.495
328.000	247.878	80.003	19.994	103.868	19.940	5.215	0.479
336.000	251.979	80.003	19.993	103.870	19.931	5.811	0.513
344.001	255.894	80.003	19.994	103.867	19.921	6.524	0.486
352.000	259.943	80.004	19.993	103.872	19.908	7.378	0.507
360.000	263.887	80.002	19.993	103.871	19.896	8.186	0.516
368.000	267.900	80.005	19.993	103.869	19.884	9.008	0.503
376.000	271.941	80.005	19.993	103.881	19.862	10.446	0.532
384.000	275.928	80.004	19.993	103.903	19.843	11.765	0.527
392.000	279.910	80.006	19.993	103.908	19.816	13.560	0.500
400.000	283.892	80.004	19.994	103.910	19.792	15.193	0.500
408.000	287.856	80.004	19.994	103.916	19.762	17.194	0.476
416.001	291.893	80.006	19.994	103.932	19.733	19.111	0.494
424.000	296.015	80.003	19.994	103.937	19.699	21.408	0.523
432.000	300.050	80.003	19.995	103.945	19.660	24.066	0.513
440.000	304.062	80.004	19.994	103.947	19.622	26.621	0.517
448.000	308.078	80.004	19.994	103.984	19.575	29.718	0.472
456.000	312.187	80.004	19.993	103.990	19.529	32.841	0.522
464.000	316.217	80.003	19.993	104.008	19.476	36.437	0.502
472.000	320.211	80.006	19.993	104.025	19.424	39.948	0.447
480.000	324.246	80.008	19.992	104.040	19.369	43.639	0.532
488.000	328.280	80.005	19.994	104.062	19.305	47.945	0.481
496.001	332.334	80.005	19.993	104.063	19.245	52.000	0.519
504.000	336.374	80.005	19.993	104.085	19.178	56.466	0.469
512.000	340.438	80.004	19.995	104.097	19.121	60.340	0.494
520.000	344.443	80.002	19.994	104.108	19.074	63.487	0.545
528.000	348.481	80.004	19.993	104.098	19.047	65.272	0.504
536.000	352.579	80.006	19.994	104.067	19.052	64.860	0.472
544.000	356.633	80.006	19.994	104.008	19.108	61.045	0.516
552.000	360.664	80.006	19.993	103.937	19.216	53.802	0.489
560.000	364.708	80.005	19.992	103.868	19.364	43.829	0.505
568.000	368.764	80.006	19.993	103.821	19.505	34.406	0.506
576.000	372.850	80.007	19.993	103.808	19.608	27.462	0.536
584.000	376.885	80.004	19.994	103.800	19.663	23.765	0.514
592.000	380.934	80.004	19.993	103.794	19.680	22.679	0.495
600.000	384.937	80.004	19.993	103.793	19.680	22.645	0.524
608.000	388.974	80.005	19.994	103.796	19.670	23.333	0.513
616.000	393.044	80.004	19.994	103.786	19.654	24.380	0.511
624.000	397.111	80.004	19.993	103.789	19.632	25.895	0.505
632.000	401.165	80.006	19.992	103.789	19.613	27.124	0.518
640.000	405.199	80.006	19.994	103.789	19.589	28.756	0.507
648.000	409.237	80.004	19.993	103.788	19.566	30.306	0.498
656.000	413.313	80.005	19.993	103.793	19.539	32.097	0.526
664.000	417.408	80.004	19.992	103.787	19.506	34.306	0.535
672.000	421.515	80.005	19.994	103.785	19.477	36.286	0.511
680.000	425.599	80.003	19.994	103.764	19.448	38.165	0.545
688.000	429.660	80.006	19.994	103.754	19.412	40.625	0.503
696.000	433.775	80.004	19.993	103.750	19.379	42.841	0.521
704.000	437.861	80.005	19.995	103.752	19.348	44.879	0.525
712.000	441.949	80.006	19.994	103.746	19.319	46.807	0.511
720.000	445.966	80.004	19.992	103.752	19.296	48.384	0.499
728.000	449.999	80.005	19.992	103.746	19.285	49.123	0.522
736.000	454.031	80.004	19.993	103.735	19.279	49.510	0.498
744.000	458.121	80.004	19.993	103.725	19.285	49.114	0.495
752.000	462.145	80.005	19.993	103.748	19.311	47.397	0.506
760.000	466.140	80.004	19.993	103.746	19.354	44.467	0.511
768.000	470.219	80.007	19.994	103.742	19.413	40.527	0.514
776.000	474.262	80.004	19.994	103.750	19.482	35.883	0.504
784.000	478.287	80.004	19.994	103.755	19.564	30.420	0.496
792.000	482.335	80.005	19.994	103.750	19.642	25.162	0.530
800.000	486.408	80.005	19.994	103.747	19.713	20.436	0.521
808.000	490.404	80.004	19.993	103.779	19.772	16.491	0.488
816.000	494.528	80.004	19.993	103.755	19.817	13.450	0.523
824.000	498.723	80.006	19.993	103.767	19.858	10.707	0.524
832.000	502.818	80.005	19.993	103.769	19.886	8.856	0.471
840.000	506.997	80.005	19.993	103.766	19.907	7.451	0.507
848.000	511.135	80.004	19.994	103.775	19.923	6.379	0.504
856.000	515.236	80.006	19.993	103.754	19.939	5.304	0.524
864.000	519.402	80.005	19.994	103.753	19.951	4.455	0.506
872.000	523.558	80.008	19.994	103.776	19.956	4.178	0.544
880.000	527.676	80.003	19.993	103.757	19.962	3.771	0.522
888.000	531.855	80.002	19.994	103.754	19.965	3.567	0.523
896.000	535.937	80.003	19.995	103.755	19.972	3.105	0.505
904.000	540.077	80.003	19.994	103.757	19.973	2.977	0.486
912.000	544.183	80.004	19.993	103.759	19.973	2.977	0.510
920.000	548.279	80.004	19.993	103.757	19.973	3.023	0.500
928.000	552.427	80.007	19.994	103.755	19.976	2.811	0.506
936.000	556.567	80.005	19.993	103.761	19.980	2.560	0.526
944.000	560.706	80.006	19.993	103.758	19.981	2.474	0.490
952.000	564.804	80.006	19.995	103.755	19.980	2.525	0.498
960.000	568.897	80.003	19.994	103.757	19.983	2.352	0.479
968.000	573.056	80.003	19.994	103.761	19.982	2.438	0.516
976.000	577.246	80.005	19.995	103.761	19.981	2.498	0.480
984.000	581.382	80.004	19.995	103.751	19.986	2.159	0.504
992.000	585.490	80.005	19.993	103.752	19.982	2.392	0.541
1000.000	589.579	80.004	19.994	103.752	19.987	2.099	0.523
1008.000	593.639	80.006	19.993	103.755	19.988	2.010	0.530
1016.000	597.744	80.006	19.993	103.759	19.983	2.319	0.495
1024.000	601.790	80.006	19.992	103.753	19.986	2.110	0.517
1032.000	605.828	80.009	19.992	103.756	19.984	2.245	0.521
1040.000	609.861	80.006	19.992	103.755	19.985	2.214	0.500
1048.000	613.906	80.006	19.994	103.752	19.987	2.073	0.516
1056.000	617.957	80.003	19.992	103.751	19.989	1.933	0.516
1064.000	622.011	80.005	19.994	103.750	19.987	2.077	0.495
1072.000	626.117	80.003	19.995	103.749	19.986	2.154	0.528
1080.000	630.237	80.004	19.994	103.754	19.985	2.181	0.509
1088.001	634.376	80.005	19.993	103.756	19.987	2.073	0.516
1096.000	638.532	80.006	19.993	103.754	19.991	1.807	0.518
1104.000	642.660	80.005	19.994	103.765	19.987	2.066	0.545
1112.000	646.744	80.006	19.993	103.749	19.986	2.126	0.492
1120.000	650.855	80.006	19.993	103.749	19.991	1.813	0.533
1128.000	654.993	80.004	19.995	103.751	19.992	1.762	0.513
1136.000	659.131	80.004	19.994	103.751	19.994	1.623	0.540
1144.000	663.230	80.004	19.993	103.752	19.993	1.674	0.486
1152.000	667.216	80.003	19.993	103.753	19.990	1.836	0.493
1160.000	671.209	80.002	19.994	103.747	19.992	1.729	0.463
1168.000	675.263	80.004	19.994	103.753	19.995	1.556	0.511
1176.000	679.312	80.006	19.994	103.746	19.992	1.707	0.487
1184.000	683.295	80.005	19.993	103.745	19.991	1.835	0.480
1192.000	687.344	80.008	19.993	103.747	19.990	1.856	0.531
1200.000	691.431	80.005	19.993	103.745	19.988	2.028	0.493
1208.000	695.558	80.004	19.994	103.752	19.990	1.875	0.541
1216.000	699.652	80.005	19.993	103.753	19.991	1.789	0.565
1224.000	703.788	80.002	19.994	103.754	19.993	1.680	0.540
1232.000	707.901	80.004	19.993	103.751	19.989	1.942	0.538
1240.000	711.980	80.004	19.995	103.743	19.995	1.545	0.521
1248.000	716.073	80.005	19.994	103.751	19.995	1.561	0.506
1256.000	720.099	80.005	19.995	103.746	19.995	1.534	0.510
1264.000	724.058	80.005	19.993	103.749	19.987	2.062	0.491
1272.001	728.052	80.005	19.993	103.748	19.990	1.846	0.499
1280.000	732.118	80.005	19.993	103.751	19.991	1.802	0.532
1288.000	736.177	80.003	19.992	103.750	19.986	2.137	0.485
1296.000	740.333	80.002	19.993	103.753	19.987	2.071	0.521
1304.000	744.432	80.004	19.994	103.746	19.992	1.705	0.523
1305.501	745.152	80.004	19.992	103.750	19.992	1.765	0.505

File: R13_Fiberglass_InsulationA_MCC_30K_min_220215_R3.txt
Sample ID:	C:\MCC\MCC Cal\Test\R13_Fiberglas_InsulationA_MCC_30K_min_220215_R3.txt
Sample Weight (mg):	4.42
Heating Rate (C/s):	0.5
Combustor Temp (C):	900
N2 Flow Rate (cc/min):	80
O2 Flow Rate (cc/min):	20
Calibration File:	C:\MCC\MCC Cal\Coeff1 JN10440_30_210304.txt.txt
T Correction Coefficients:	0	1.024463	0
Time Shift (s):	14
*
Time (s)	Temperature (C)	N2 flow rate (cc/min)	O2 flow rate (cc/min)	Flow Rate (cc/min)	Oxygen (%)	HRR (W/g)	Heating rate (C/s)
-0.001	114.947	80.006	19.993	103.684	20.210	-0.249	0.030
7.500	114.910	80.006	19.993	103.689	20.210	-0.241	0.018
15.000	114.944	80.007	19.993	103.696	20.211	-0.301	0.008
22.500	115.002	80.006	19.993	103.737	20.206	0.072	0.015
30.000	115.263	80.008	19.993	103.848	20.185	1.572	0.039
37.500	116.000	80.005	19.993	103.870	20.169	2.774	0.130
44.999	117.099	80.004	19.992	103.906	20.158	3.624	0.168
52.499	118.616	80.005	19.994	103.936	20.157	3.626	0.214
59.999	120.533	80.004	19.992	103.940	20.156	3.730	0.268
67.499	122.806	80.004	19.993	103.933	20.160	3.453	0.322
74.999	125.316	80.005	19.992	103.944	20.158	3.596	0.358
82.499	128.025	80.006	19.993	103.945	20.159	3.504	0.374
89.999	130.991	80.008	19.992	103.963	20.155	3.812	0.422
97.499	134.152	80.007	19.993	103.949	20.161	3.373	0.446
104.999	137.413	80.007	19.994	103.954	20.156	3.759	0.472
112.499	140.920	80.008	19.994	103.949	20.157	3.639	0.468
120.000	144.544	80.009	19.994	103.959	20.156	3.718	0.534
127.500	148.229	80.005	19.994	103.955	20.155	3.820	0.486
135.000	152.049	80.004	19.994	103.942	20.158	3.582	0.504
142.500	155.848	80.006	19.994	103.942	20.161	3.336	0.522
150.000	159.715	80.007	19.992	103.883	20.157	3.674	0.542
157.500	163.553	80.005	19.991	103.922	20.160	3.412	0.517
165.000	167.378	80.006	19.994	103.909	20.163	3.186	0.502
172.500	171.221	80.007	19.993	103.925	20.161	3.388	0.509
180.000	175.081	80.007	19.992	103.906	20.164	3.116	0.523
187.500	178.856	80.007	19.993	103.904	20.163	3.204	0.500
195.000	182.596	80.008	19.993	103.902	20.166	2.985	0.503
202.500	186.370	80.007	19.994	103.903	20.164	3.134	0.482
210.000	190.092	80.006	19.995	103.894	20.167	2.924	0.501
217.500	193.730	80.006	19.992	103.901	20.166	2.967	0.479
225.000	197.452	80.006	19.994	103.897	20.165	3.104	0.486
232.500	201.126	80.006	19.994	103.899	20.165	3.040	0.482
240.000	204.749	80.005	19.994	103.890	20.165	3.058	0.481
247.500	208.490	80.006	19.995	103.896	20.167	2.920	0.513
255.000	212.169	80.008	19.992	103.894	20.167	2.956	0.457
262.500	215.858	80.005	19.993	103.873	20.163	3.233	0.456
270.000	219.577	80.006	19.992	103.878	20.163	3.233	0.505
277.500	223.348	80.010	19.992	103.876	20.161	3.398	0.530
285.000	227.075	80.008	19.993	103.869	20.158	3.558	0.514
292.500	230.833	80.005	19.994	103.869	20.157	3.661	0.482
300.000	234.568	80.007	19.994	103.866	20.154	3.879	0.485
307.500	238.358	80.007	19.994	103.872	20.151	4.096	0.520
315.000	242.094	80.005	19.994	103.872	20.147	4.409	0.496
322.500	245.904	80.005	19.994	103.869	20.141	4.835	0.514
330.000	249.721	80.006	19.993	103.872	20.134	5.377	0.529
337.500	253.472	80.006	19.992	103.865	20.131	5.600	0.479
345.000	257.258	80.008	19.994	103.878	20.119	6.421	0.483
352.500	261.086	80.009	19.992	103.868	20.109	7.191	0.514
360.000	264.821	80.008	19.993	103.874	20.098	7.973	0.494
367.500	268.611	80.008	19.995	103.890	20.084	9.004	0.527
375.000	272.375	80.007	19.993	103.900	20.069	10.095	0.497
382.500	276.179	80.007	19.994	103.901	20.050	11.508	0.504
390.000	279.921	80.006	19.994	103.904	20.027	13.161	0.468
397.500	283.702	80.005	19.994	103.909	20.007	14.641	0.524
405.000	287.432	80.007	19.994	103.909	19.985	16.266	0.502
412.500	291.203	80.007	19.993	103.926	19.954	18.558	0.556
420.000	294.938	80.007	19.994	103.935	19.923	20.838	0.502
427.500	298.731	80.007	19.993	103.939	19.890	23.256	0.514
435.000	302.471	80.008	19.993	103.947	19.855	25.814	0.517
442.500	306.184	80.010	19.993	103.968	19.820	28.428	0.490
450.000	309.954	80.006	19.993	103.979	19.776	31.670	0.501
457.500	313.763	80.006	19.992	103.999	19.734	34.739	0.508
465.000	317.576	80.007	19.992	104.022	19.690	37.969	0.500
472.500	321.351	80.007	19.993	104.023	19.639	41.736	0.502
480.000	325.172	80.005	19.993	104.042	19.581	45.968	0.503
487.500	328.965	80.006	19.994	104.029	19.527	49.920	0.498
495.000	332.788	80.008	19.993	104.063	19.477	53.603	0.536
502.500	336.558	80.007	19.993	104.092	19.417	58.008	0.496
510.000	340.395	80.008	19.994	104.097	19.365	61.856	0.487
517.500	344.101	80.007	19.995	104.097	19.318	65.284	0.470
525.000	347.932	80.007	19.991	104.098	19.292	67.217	0.510
532.500	351.723	80.006	19.992	104.065	19.291	67.199	0.512
540.000	355.550	80.006	19.993	104.021	19.324	64.788	0.493
547.500	359.428	80.006	19.994	103.956	19.403	58.946	0.485
555.000	363.253	80.006	19.993	103.883	19.529	49.669	0.512
562.500	367.054	80.007	19.993	103.843	19.661	39.981	0.528
570.000	370.837	80.005	19.993	103.821	19.783	31.078	0.501
577.500	374.631	80.007	19.994	103.793	19.853	25.936	0.513
585.000	378.384	80.006	19.993	103.793	19.891	23.148	0.470
592.500	382.161	80.005	19.994	103.800	19.893	23.018	0.510
600.000	385.866	80.008	19.993	103.795	19.890	23.247	0.510
607.500	389.599	80.007	19.995	103.806	19.878	24.097	0.497
615.000	393.382	80.006	19.994	103.800	19.861	25.354	0.524
622.500	397.163	80.006	19.994	103.794	19.846	26.441	0.505
630.000	400.960	80.007	19.994	103.791	19.828	27.793	0.525
637.500	404.735	80.008	19.993	103.792	19.811	28.983	0.508
645.000	408.563	80.006	19.993	103.787	19.787	30.736	0.511
652.500	412.396	80.008	19.993	103.788	19.765	32.377	0.485
660.000	416.161	80.008	19.993	103.786	19.743	33.996	0.515
667.500	419.988	80.007	19.994	103.789	19.714	36.081	0.494
675.000	423.825	80.006	19.994	103.776	19.685	38.204	0.529
682.500	427.585	80.007	19.992	103.781	19.656	40.318	0.464
690.000	431.419	80.009	19.993	103.768	19.624	42.724	0.503
697.500	435.245	80.005	19.993	103.768	19.596	44.733	0.483
705.000	439.046	80.006	19.994	103.776	19.574	46.324	0.489
712.500	442.867	80.006	19.994	103.780	19.550	48.140	0.510
720.000	446.693	80.007	19.993	103.751	19.533	49.346	0.527
727.500	450.470	80.006	19.994	103.753	19.518	50.461	0.525
735.000	454.252	80.005	19.993	103.748	19.515	50.647	0.485
742.500	458.067	80.011	19.994	103.743	19.527	49.757	0.508
750.000	461.851	80.007	19.994	103.743	19.543	48.615	0.510
757.500	465.679	80.008	19.993	103.742	19.579	45.986	0.518
765.000	469.457	80.008	19.993	103.747	19.625	42.641	0.515
772.500	473.307	80.010	19.993	103.759	19.692	37.711	0.519
780.000	477.171	80.007	19.995	103.755	19.759	32.838	0.523
787.500	480.998	80.008	19.993	103.764	19.829	27.689	0.494
795.000	484.859	80.008	19.995	103.773	19.893	22.979	0.501
802.500	488.683	80.009	19.994	103.775	19.951	18.728	0.503
810.000	492.574	80.006	19.994	103.778	19.997	15.341	0.529
817.500	496.514	80.013	19.992	103.777	20.031	12.868	0.516
825.000	500.394	80.005	19.992	103.773	20.065	10.360	0.504
832.500	504.245	80.000	19.994	103.780	20.090	8.587	0.499
840.000	508.123	80.015	19.994	103.772	20.103	7.584	0.513
847.500	511.950	79.993	19.994	103.782	20.122	6.237	0.486
855.000	515.917	80.014	19.990	103.782	20.130	5.656	0.560
862.500	519.722	80.014	19.992	103.784	20.138	5.034	0.477
870.000	523.665	80.004	19.994	103.782	20.142	4.719	0.566
877.500	527.516	80.007	19.995	103.777	20.145	4.536	0.505
885.000	531.459	80.002	19.996	103.779	20.151	4.124	0.540
892.500	535.312	80.005	19.994	103.785	20.149	4.210	0.491
900.000	539.698	80.013	19.995	103.787	20.147	4.397	0.744
907.500	543.043	80.004	19.998	103.777	20.149	4.254	0.498
915.000	546.739	80.008	19.992	103.790	20.151	4.116	0.474
922.500	550.591	80.004	19.991	103.782	20.151	4.067	0.534
930.000	554.523	80.012	19.995	103.783	20.153	3.961	0.509
937.500	558.331	80.009	19.994	103.764	20.154	3.853	0.524
945.000	562.237	80.006	19.996	103.776	20.153	3.971	0.540
952.500	566.077	80.026	19.989	103.779	20.156	3.741	0.546
960.000	569.891	80.009	19.992	103.779	20.153	3.961	0.513
967.500	573.788	80.005	19.998	103.785	20.156	3.758	0.515
975.000	577.640	80.006	19.999	103.777	20.155	3.822	0.483
982.500	581.544	80.006	19.993	103.783	20.151	4.070	0.518
990.000	585.365	80.004	19.995	103.785	20.150	4.154	0.520
997.500	589.208	80.011	19.997	103.782	20.152	4.003	0.545
1005.000	593.016	80.004	19.993	103.787	20.150	4.140	0.510
1012.500	596.880	80.011	19.995	103.785	20.148	4.286	0.505
1020.000	600.787	80.017	19.992	103.785	20.150	4.202	0.522
1027.499	604.582	80.012	19.991	103.786	20.150	4.192	0.525
1035.000	608.423	80.002	19.996	103.777	20.148	4.308	0.501
1042.499	612.242	80.005	19.994	103.784	20.146	4.469	0.504
1049.999	616.113	80.003	19.991	103.779	20.150	4.166	0.544
1057.500	619.948	80.008	19.991	103.779	20.146	4.445	0.545
1064.999	623.726	80.007	19.994	103.778	20.144	4.584	0.480
1072.499	627.492	80.005	19.994	103.780	20.143	4.688	0.493
1079.999	631.301	80.010	19.992	103.775	20.143	4.662	0.503
1087.500	635.182	80.010	19.989	103.779	20.142	4.728	0.520
1094.999	639.001	80.009	19.993	103.785	20.141	4.799	0.522
1102.500	642.773	80.011	19.992	103.784	20.138	5.045	0.491
1109.999	646.619	80.008	19.997	103.783	20.139	4.967	0.510
1117.499	650.469	80.007	19.995	103.774	20.134	5.359	0.563
1124.999	654.283	80.007	19.993	103.778	20.138	5.080	0.521
1132.500	658.142	80.011	19.984	103.780	20.141	4.861	0.512
1139.999	661.945	80.010	19.991	103.783	20.138	5.052	0.512
1147.499	665.761	80.007	19.994	103.780	20.138	5.020	0.511
1154.999	669.565	80.004	19.993	103.782	20.140	4.913	0.493
1162.499	673.386	80.009	19.993	103.780	20.138	5.062	0.550
1170.000	677.235	80.009	19.992	103.783	20.137	5.134	0.493
1177.499	681.061	80.007	19.993	103.781	20.132	5.504	0.536
1184.999	684.872	80.010	19.991	103.777	20.130	5.658	0.526
1192.500	688.643	80.010	19.993	103.779	20.133	5.441	0.505
1200.000	692.472	80.007	19.992	103.776	20.132	5.498	0.504
1207.499	696.384	80.008	19.993	103.774	20.129	5.680	0.534
1214.999	700.160	80.009	19.992	103.769	20.127	5.827	0.499
1222.499	703.913	80.008	19.993	103.779	20.127	5.831	0.486
1229.999	707.691	80.009	19.993	103.783	20.127	5.885	0.501
1237.499	711.385	80.008	19.992	103.778	20.123	6.118	0.488
1245.000	715.152	80.009	19.991	103.783	20.122	6.205	0.538
1252.499	718.880	80.008	19.995	103.783	20.123	6.155	0.500
1259.999	722.671	80.007	19.993	103.776	20.119	6.412	0.524
1267.500	726.481	80.010	19.994	103.777	20.120	6.344	0.491
1274.999	730.238	80.009	19.993	103.777	20.118	6.532	0.503
1282.500	734.049	80.008	19.994	103.767	20.118	6.534	0.517
1289.999	737.720	80.007	19.994	103.776	20.114	6.803	0.462
1297.499	741.524	80.008	19.993	103.782	20.115	6.699	0.510
1301.499	743.560	80.007	19.993	103.780	20.114	6.787	0.500