Folder: fsri_materials_database/01_Data/Particleboard/STA/N2/10K_min (part 2)

File: Particleboard_STA_N2_10KData_220419_R3.csv
##Temp./Â°C,Time/min,Mass loss(subtr.2)/mg,DSC(subtr.2)/(mW/mg),Sensit./(uV/mW)
49.731,10.01,-0.01075,0.01982046,1.06051
53.031,11.33704,-0.01098186,0.12616,1.05983
56.331,11.79836,-0.01261799,0.17978,1.05912
59.631,12.19258,-0.01154764,0.21063,1.05839
62.931,12.565,-0.01246109,0.23002,1.05765
66.231,12.92575,-0.01254908,0.2466,1.05688
69.531,13.2805,-0.01513252,0.25791,1.05609
72.831,13.6305,-0.01483685,0.27308,1.05528
76.131,13.97585,-0.01641644,0.28284,1.05446
79.431,14.31966,-0.0200827,0.29076,1.05361
82.731,14.65886,-0.0203973,0.29607,1.05274
86.031,14.99373,-0.02435505,0.29717,1.05186
89.331,15.32685,-0.02572852,0.29914,1.05095
92.631,15.65586,-0.02570495,0.29586,1.05003
95.931,15.9833,-0.02724066,0.29101,1.04908
99.231,16.3095,-0.02360786,0.28254,1.04812
102.531,16.63371,-0.02752979,0.27938,1.04713
105.831,16.95779,-0.02786012,0.27525,1.04613
109.131,17.2808,-0.02851764,0.27221,1.04511
112.431,17.60409,-0.03280692,0.26963,1.04407
115.731,17.92693,-0.03155131,0.27269,1.04301
119.031,18.2489,-0.03084397,0.2721,1.04194
122.331,18.56946,-0.03258001,0.27672,1.04084
125.631,18.89031,-0.02984,0.27588,1.03972
128.931,19.21071,-0.03662943,0.27852,1.03859
132.231,19.52961,-0.03269012,0.28244,1.03744
135.531,19.84946,-0.03203993,0.28417,1.03627
138.831,20.16732,-0.03377688,0.28719,1.03508
142.131,20.48604,-0.03052758,0.29048,1.03388
145.431,20.80294,-0.03488996,0.29473,1.03265
148.731,21.1203,-0.03795221,0.29983,1.03141
152.031,21.43731,-0.03382511,0.30573,1.03015
155.331,21.75393,-0.03329092,0.31013,1.02887
158.631,22.07023,-0.03608053,0.32164,1.02758
161.931,22.3868,-0.03982435,0.32835,1.02626
165.231,22.70334,-0.04028908,0.34189,1.02494
168.531,23.0198,-0.03894042,0.35677,1.02359
171.831,23.3356,-0.04576397,0.37229,1.02222
175.131,23.65164,-0.04837092,0.38969,1.02084
178.431,23.96777,-0.05383622,0.40605,1.01944
181.731,24.2832,-0.05000472,0.42513,1.01803
185.031,24.5988,-0.0557249,0.44271,1.0166
188.331,24.91449,-0.06188779,0.4608,1.01515
191.631,25.22922,-0.06988041,0.47961,1.01368
194.931,25.54465,-0.07711586,0.49689,1.0122
198.231,25.85941,-0.07936392,0.50813,1.0107
201.531,26.17494,-0.08699913,0.51989,1.00919
204.831,26.49002,-0.09400134,0.52247,1.00766
208.131,26.805,-0.10375,0.53068,1.00611
211.431,27.1198,-0.11033,0.53219,1.00455
214.731,27.4347,-0.12025,0.53348,1.00297
218.031,27.7489,-0.12815,0.53201,1.00138
221.331,28.06349,-0.14012,0.52961,0.99977
224.631,28.3777,-0.14719,0.52625,0.99814
227.931,28.69293,-0.15732,0.52482,0.9965
231.231,29.00712,-0.17306,0.52931,0.99485
234.531,29.32165,-0.18097,0.52751,0.99317
237.831,29.63585,-0.19729,0.52747,0.99149
241.131,29.9504,-0.21136,0.52248,0.98979
244.431,30.26424,-0.22426,0.52288,0.98807
247.731,30.5783,-0.24244,0.52116,0.98634
251.031,30.8918,-0.2574,0.521,0.98459
254.331,31.2066,-0.27708,0.52273,0.98283
257.631,31.5206,-0.29686,0.52182,0.98106
260.931,31.83503,-0.32174,0.52221,0.97927
264.231,32.14868,-0.34233,0.51836,0.97747
267.531,32.46345,-0.3689,0.51323,0.97565
270.831,32.77758,-0.40323,0.50459,0.97382
274.131,33.09271,-0.43225,0.49443,0.97197
277.431,33.40757,-0.46909,0.47749,0.97011
280.731,33.72289,-0.50658,0.45616,0.96824
284.031,34.03785,-0.54455,0.4325,0.96636
287.331,34.35242,-0.58818,0.41037,0.96446
290.631,34.66829,-0.63441,0.39193,0.96254
293.931,34.98366,-0.68251,0.37896,0.96062
297.231,35.29927,-0.73772,0.36694,0.95868
300.531,35.61493,-0.79334,0.36465,0.95672
303.831,35.93079,-0.85364,0.36286,0.95476
307.131,36.247,-0.91852,0.3627,0.95278
310.431,36.5629,-0.98692,0.36586,0.95079
313.731,36.87965,-1.05969,0.36759,0.94878
317.031,37.1963,-1.13585,0.37015,0.94677
320.331,37.51334,-1.21807,0.37123,0.94474
323.631,37.83023,-1.3074,0.38089,0.9427
326.931,38.14793,-1.40496,0.38461,0.94064
330.231,38.46542,-1.50417,0.39028,0.93858
333.531,38.78307,-1.61053,0.39132,0.9365
336.831,39.10138,-1.72294,0.38775,0.93441
340.131,39.41908,-1.83499,0.3751,0.93231
343.431,39.73677,-1.94987,0.35462,0.9302
346.731,40.05458,-2.05576,0.32524,0.92808
350.031,40.37337,-2.15507,0.28563,0.92594
353.331,40.69194,-2.24248,0.24191,0.92379
356.631,41.01108,-2.3191,0.19775,0.92163
359.931,41.3301,-2.38065,0.15833,0.91947
363.231,41.64924,-2.42954,0.12375,0.91729
366.531,41.9688,-2.46631,0.09314507,0.91509
369.831,42.28849,-2.49582,0.0702141,0.91289
373.131,42.60842,-2.51708,0.05406052,0.91068
376.431,42.92861,-2.53627,0.03892576,0.90846
379.731,43.24832,-2.54784,0.02664126,0.90622
383.031,43.5689,-2.56395,0.01816215,0.90398
386.331,43.88876,-2.5775,0.01162495,0.90173
389.631,44.20961,-2.58903,0.003281258,0.89946
392.931,44.5302,-2.60077,-0.004341208,0.89719
396.231,44.85085,-2.60962,-0.01211999,0.8949
399.531,45.1726,-2.62531,-0.01451868,0.89261
402.831,45.49429,-2.63353,-0.01891428,0.89031
406.131,45.81602,-2.64666,-0.0236375,0.88799
409.431,46.1381,-2.65778,-0.02333307,0.88567
412.731,46.46035,-2.66965,-0.02011539,0.88334
416.031,46.78171,-2.67877,-0.01711287,0.881
419.331,47.10301,-2.68876,-0.01532992,0.87864
422.631,47.4258,-2.70012,-0.007301323,0.87629
425.931,47.74787,-2.71103,0.000776165,0.87392
429.231,48.06998,-2.72055,0.009157024,0.87154
432.531,48.393,-2.73138,0.01467192,0.86915
435.831,48.71625,-2.73703,0.0194456,0.86676
439.131,49.03945,-2.74638,0.02600505,0.86435
442.431,49.36251,-2.74888,0.02883512,0.86194
445.731,49.68496,-2.75841,0.03758906,0.85952
449.031,50.00866,-2.77374,0.04237405,0.85709
452.331,50.33251,-2.77743,0.04573884,0.85466
455.631,50.65728,-2.78279,0.05203595,0.85221
458.931,50.98141,-2.78394,0.05402873,0.84976
462.231,51.3052,-2.79803,0.05925584,0.8473
465.531,51.6293,-2.81341,0.06535884,0.84483
468.831,51.95355,-2.80939,0.06115595,0.84235
472.131,52.27798,-2.81619,0.06610484,0.83987
475.431,52.6025,-2.81616,0.06677328,0.83738
478.731,52.9272,-2.82199,0.07013113,0.83488
482.031,53.2534,-2.83171,0.07383265,0.83238
485.331,53.57886,-2.83244,0.06875242,0.82986
488.631,53.90498,-2.8378,0.07320109,0.82735
491.931,54.23118,-2.84143,0.07094596,0.82482
495.231,54.55724,-2.84605,0.07474282,0.82229
498.531,54.88377,-2.8513,0.07732179,0.81975
501.831,55.21066,-2.85629,0.08435594,0.8172
505.131,55.5372,-2.85888,0.08806296,0.81465
508.431,55.8628,-2.86408,0.1016,0.81209
511.731,56.18755,-2.86644,0.1106,0.80952
515.031,56.5125,-2.87168,0.11156,0.80695
518.331,56.83834,-2.87158,0.11669,0.80437
521.631,57.16476,-2.88063,0.12097,0.80179
524.931,57.4927,-2.87959,0.11787,0.7992
528.231,57.8215,-2.88614,0.11798,0.7966
531.531,58.15218,-2.88815,0.11371,0.794
534.831,58.4842,-2.89108,0.11121,0.7914
538.131,58.8152,-2.89481,0.10844,0.78878
541.431,59.1455,-2.89854,0.0989681,0.78617
544.731,59.47441,-2.89553,0.09435267,0.78354
548.031,59.802,-2.90796,0.09708014,0.78092
551.331,60.13064,-2.90351,0.0977626,0.77828
554.631,60.45926,-2.90877,0.09561912,0.77564
557.931,60.7881,-2.91386,0.09725248,0.773
561.231,61.1166,-2.91765,0.09619057,0.77035
564.531,61.44461,-2.91855,0.10293,0.7677
567.831,61.7725,-2.91754,0.1029,0.76504
571.131,62.1006,-2.92426,0.10697,0.76238
574.431,62.43036,-2.93016,0.10659,0.75972
577.731,62.76028,-2.9262,0.10486,0.75705
581.031,63.09038,-2.93037,0.10915,0.75437
584.331,63.42119,-2.93398,0.11601,0.75169
587.631,63.75139,-2.93444,0.11655,0.74901
590.931,64.08109,-2.93659,0.11367,0.74632
594.231,64.41163,-2.94218,0.11073,0.74363
597.531,64.74206,-2.94343,0.11049,0.74094
600.831,65.07223,-2.94608,0.1069,0.73824
604.131,65.40349,-2.94595,0.10183,0.73554
607.431,65.73361,-2.94595,0.1004,0.73283
610.731,66.064,-2.94866,0.09763425,0.73012
614.031,66.39541,-2.95117,0.09681577,0.72741
617.331,66.72652,-2.95242,0.09781689,0.7247
620.631,67.0578,-2.95637,0.09928672,0.72198
623.931,67.38935,-2.95999,0.09769013,0.71926
627.231,67.72021,-2.95868,0.09964432,0.71653
630.531,68.05114,-2.95999,0.1004,0.71381
633.831,68.38231,-2.96394,0.09611908,0.71108
637.131,68.71335,-2.96438,0.09272933,0.70835
640.431,69.0458,-2.96425,0.09469579,0.70561
643.731,69.37771,-2.9687,0.09484835,0.70287
647.031,69.70907,-2.97293,0.09419135,0.70013
650.331,70.04069,-2.96504,0.09033857,0.69739
653.631,70.37052,-2.97074,0.09271319,0.69465
656.931,70.70238,-2.97282,0.08994949,0.6919
660.231,71.03394,-2.9718,0.08926177,0.68916
663.531,71.3652,-2.97754,0.08994307,0.68641
666.831,71.69764,-2.97656,0.08483189,0.68365
670.131,72.03,-2.98182,0.08946652,0.6809
673.431,72.3616,-2.97765,0.08790604,0.67815
676.731,72.69355,-2.98326,0.08930133,0.67539
680.031,73.02565,-2.98566,0.09173191,0.67263
683.331,73.3582,-2.9828,0.09274342,0.66987
686.631,73.69108,-2.98424,0.09016788,0.66711
689.931,74.0233,-2.98557,0.0924469,0.66435
693.231,74.35553,-2.98555,0.0920142,0.66159
696.531,74.68933,-2.98961,0.09261895,0.65882
699.831,75.02246,-2.9873,0.09230123,0.65606
703.131,75.35616,-2.99007,0.09007955,0.65329
706.431,75.68986,-2.99147,0.09363062,0.65053
709.731,76.0236,-2.99146,0.09061588,0.64776
713.031,76.35759,-2.99421,0.0856016,0.64499
716.331,76.69117,-2.99388,0.08893788,0.64222
719.631,77.0249,-2.99544,0.09433903,0.63946
722.931,77.3573,-2.99684,0.09076418,0.63669
726.231,77.6901,-2.99684,0.09056186,0.63392
729.531,78.0231,-3.00079,0.08725896,0.63115
732.831,78.35765,-2.99543,0.08122077,0.62838
736.131,78.69203,-2.9982,0.07367915,0.62561
739.431,79.02542,-2.99937,0.07479317,0.62284
742.731,79.35959,-3.00769,0.07890448,0.62007
746.031,79.69375,-3.00441,0.07840677,0.61731
749.331,80.02934,-3.0031,0.07224114,0.61454
752.631,80.36395,-3.0031,0.08178527,0.61177
755.931,80.69794,-3.00441,0.08030631,0.609
759.231,81.03421,-3.00857,0.08138079,0.60624
762.531,81.3687,-3.00561,0.07853138,0.60347
765.831,81.703,-3.01099,0.08139149,0.60071
769.131,82.03662,-3.01051,0.07894884,0.59794
772.431,82.3695,-3.01275,0.07833186,0.59518
775.731,82.70365,-3.01143,0.07804522,0.59242
779.031,83.03721,-3.01143,0.07735938,0.58966
782.331,83.37133,-3.01143,0.07969589,0.5869
785.631,83.70727,-3.01253,0.07916733,0.58414
788.931,84.04352,-3.01538,0.07431226,0.58138
792.231,84.37886,-3.01279,0.0699554,0.57863
795.531,84.71391,-3.01385,0.07639118,0.57587
798.331,84.9987,-3.01777,0.07539356,0.57354