Folder: fsri_materials_database/01_Data/Particleboard/STA/N2/10K_min

Note: 01_Data/README.md
# Materials and Products Database
## 01_Data

Raw data generated from each apparatus are included here in plain-text format. The data is organized first by material, next by the short name of test apparatus used, and where applicable additional filtering by test settings.

### material.json

Each material directory contains a json file of the same name as the material. This file links the data stored in the repository as well as data and graphs produced by the accompanying scripts (__02_Scripts__) to the respective landing page for the material on the front-end website.

File: Particleboard_STA_N2_10KData_220418_R1.csv
##Temp./Â°C,Time/min,Mass loss(subtr.2)/mg,DSC(subtr.2)/(mW/mg),Sensit./(uV/mW)
49.624,10.00917,-0.0204,0.0159866,1.06053
52.924,11.33597,-0.02139594,0.12518,1.05985
56.224,11.79677,-0.02171211,0.1776,1.05914
59.524,12.1927,-0.02295416,0.20719,1.05842
62.824,12.5642,-0.02391457,0.22827,1.05767
66.124,12.92567,-0.02230972,0.24569,1.0569
69.424,13.28062,-0.02643052,0.25996,1.05612
72.724,13.6308,-0.02763005,0.27071,1.05531
76.024,13.9776,-0.02774033,0.28489,1.05448
79.324,14.31975,-0.03041632,0.29635,1.05364
82.624,14.65901,-0.03036741,0.30232,1.05277
85.924,14.9951,-0.03267811,0.30748,1.05189
89.224,15.32814,-0.03400093,0.30825,1.05098
92.524,15.6577,-0.03663973,0.30759,1.05006
95.824,15.98676,-0.03794988,0.30183,1.04911
99.124,16.31277,-0.03894,0.2946,1.04815
102.424,16.63715,-0.04025021,0.28659,1.04717
105.724,16.96085,-0.04092,0.28241,1.04617
109.024,17.28499,-0.04191475,0.27599,1.04514
112.324,17.6072,-0.04321323,0.27117,1.04411
115.624,17.92933,-0.04157037,0.27021,1.04305
118.924,18.25089,-0.04200066,0.2716,1.04197
122.224,18.5714,-0.04447403,0.2722,1.04087
125.524,18.89191,-0.04332,0.27145,1.03976
128.824,19.21203,-0.04331953,0.27529,1.03863
132.124,19.53165,-0.04464002,0.27703,1.03748
135.424,19.85112,-0.04381937,0.27824,1.03631
138.724,20.16984,-0.04595003,0.27802,1.03512
142.024,20.48817,-0.04562515,0.28318,1.03391
145.324,20.80657,-0.04451701,0.28776,1.03269
148.624,21.1245,-0.04694001,0.29396,1.03145
151.924,21.44153,-0.04541,0.30193,1.03019
155.224,21.7581,-0.04932198,0.30764,1.02891
158.524,22.07473,-0.04804184,0.31556,1.02762
161.824,22.3908,-0.05068,0.32809,1.02631
165.124,22.70779,-0.05068869,0.34076,1.02498
168.424,23.02477,-0.05145588,0.35728,1.02363
171.724,23.34082,-0.05546261,0.37042,1.02227
175.024,23.65695,-0.0555,0.38911,1.02089
178.324,23.97221,-0.06093043,0.40143,1.01949
181.624,24.28872,-0.06494053,0.41918,1.01808
184.924,24.60369,-0.06625226,0.43947,1.01664
188.224,24.91915,-0.07283002,0.45926,1.0152
191.524,25.233,-0.07808967,0.47602,1.01373
194.824,25.54864,-0.08332717,0.49471,1.01225
198.124,25.8636,-0.08752192,0.5059,1.01075
201.424,26.17836,-0.09520952,0.51778,1.00924
204.724,26.49398,-0.09917426,0.52375,1.00771
208.024,26.80912,-0.10771,0.53192,1.00616
211.324,27.1237,-0.11717,0.53136,1.0046
214.624,27.4381,-0.12571,0.53262,1.00302
217.924,27.7523,-0.13242,0.52809,1.00143
221.224,28.06695,-0.14198,0.52517,0.99982
224.524,28.3807,-0.15362,0.52315,0.9982
227.824,28.69523,-0.16202,0.52674,0.99656
231.124,29.0088,-0.17206,0.526,0.9949
234.424,29.3228,-0.18683,0.52468,0.99323
237.724,29.6372,-0.19814,0.52083,0.99154
241.024,29.95157,-0.21335,0.51618,0.98984
244.324,30.2656,-0.22792,0.51338,0.98813
247.624,30.5805,-0.24261,0.50971,0.9864
250.924,30.89504,-0.25971,0.51183,0.98465
254.224,31.20989,-0.2795,0.50996,0.98289
257.524,31.52491,-0.29594,0.50729,0.98112
260.824,31.8393,-0.31962,0.50163,0.97933
264.124,32.15396,-0.34121,0.49997,0.97753
267.424,32.4692,-0.36812,0.48731,0.97571
270.724,32.7847,-0.39896,0.47839,0.97388
274.024,33.0992,-0.43041,0.46519,0.97203
277.324,33.4144,-0.46604,0.44652,0.97018
280.624,33.72945,-0.5028,0.42395,0.9683
283.924,34.0449,-0.54019,0.39863,0.96642
287.224,34.36012,-0.58248,0.37025,0.96452
290.524,34.67575,-0.62895,0.34751,0.9626
293.824,34.99137,-0.67741,0.33426,0.96068
297.124,35.30708,-0.73181,0.32095,0.95874
300.424,35.62276,-0.78624,0.31353,0.95679
303.724,35.93804,-0.8455,0.31073,0.95482
307.024,36.25463,-0.90624,0.30752,0.95284
310.324,36.5707,-0.97483,0.30664,0.95085
313.624,36.88755,-1.04707,0.30706,0.94885
316.924,37.20479,-1.12543,0.30726,0.94683
320.224,37.52169,-1.20802,0.31081,0.9448
323.524,37.83939,-1.29755,0.31081,0.94276
326.824,38.15728,-1.39132,0.31194,0.94071
330.124,38.47503,-1.49014,0.31337,0.93865
333.424,38.79383,-1.59512,0.3082,0.93657
336.724,39.11157,-1.70325,0.30548,0.93448
340.024,39.43051,-1.81597,0.29345,0.93238
343.324,39.74893,-1.926,0.27627,0.93027
346.624,40.06732,-2.03467,0.25325,0.92814
349.924,40.38597,-2.13614,0.22144,0.92601
353.224,40.7046,-2.22884,0.18419,0.92386
356.524,41.02364,-2.306,0.14843,0.9217
359.824,41.34253,-2.37431,0.11514,0.91954
363.124,41.66225,-2.42726,0.08358178,0.91736
366.424,41.98165,-2.46508,0.05638979,0.91517
369.724,42.30115,-2.49776,0.03507611,0.91296
373.024,42.62102,-2.52312,0.01648512,0.91075
376.324,42.94061,-2.54228,0.003076522,0.90853
379.624,43.26122,-2.55748,-0.00832242,0.9063
382.924,43.58171,-2.5729,-0.01854129,0.90405
386.224,43.90159,-2.58463,-0.02916833,0.9018
389.524,44.2213,-2.59771,-0.03494559,0.89953
392.824,44.54205,-2.60967,-0.04041249,0.89726
396.124,44.86221,-2.62084,-0.04847511,0.89498
399.424,45.1835,-2.63207,-0.05400261,0.89268
402.724,45.50542,-2.64586,-0.05764315,0.89038
406.024,45.82747,-2.65711,-0.06092456,0.88807
409.324,46.14966,-2.66882,-0.06119875,0.88574
412.624,46.47207,-2.68304,-0.05566247,0.88341
415.924,46.79448,-2.69232,-0.05404441,0.88107
419.224,47.11712,-2.70362,-0.04912383,0.87872
422.524,47.44004,-2.71473,-0.04344126,0.87636
425.824,47.76236,-2.7232,-0.03795724,0.87399
429.124,48.08446,-2.73559,-0.02925594,0.87162
432.424,48.4062,-2.74302,-0.01887549,0.86923
435.724,48.72801,-2.75563,-0.01184147,0.86684
439.024,49.05022,-2.76271,-0.00355229,0.86443
442.324,49.372,-2.77178,0.00375091,0.86202
445.624,49.6957,-2.77839,0.008993615,0.8596
448.924,50.01952,-2.78909,0.01263656,0.85717
452.224,50.34362,-2.79442,0.01945763,0.85474
455.524,50.66733,-2.80044,0.02103849,0.85229
458.824,50.9918,-2.80993,0.02836418,0.84984
462.124,51.31664,-2.81312,0.0306099,0.84738
465.424,51.6413,-2.82073,0.02951657,0.84491
468.724,51.96581,-2.82769,0.03378757,0.84243
472.024,52.29156,-2.83427,0.0326284,0.83995
475.324,52.61564,-2.83825,0.0329994,0.83746
478.624,52.94248,-2.84508,0.03304737,0.83496
481.924,53.2672,-2.84937,0.0374254,0.83246
485.224,53.59255,-2.85566,0.03300657,0.82995
488.524,53.9173,-2.86032,0.03139705,0.82743
491.824,54.24318,-2.86429,0.03547529,0.8249
495.124,54.5687,-2.87004,0.03613879,0.82237
498.424,54.8958,-2.87558,0.03803867,0.81983
501.724,55.22299,-2.87752,0.04174855,0.81728
505.024,55.5499,-2.88358,0.0472846,0.81473
508.324,55.8765,-2.88639,0.05549809,0.81217
511.624,56.2036,-2.89029,0.0577695,0.80961
514.924,56.53055,-2.89283,0.0604355,0.80703
518.224,56.85795,-2.89939,0.06107849,0.80446
521.524,57.18496,-2.90239,0.06243776,0.80187
524.824,57.51339,-2.906,0.06157518,0.79928
528.124,57.84105,-2.90997,0.06204089,0.79669
531.424,58.16881,-2.91393,0.05967107,0.79409
534.724,58.4971,-2.91502,0.05761299,0.79148
538.024,58.8259,-2.92046,0.05421428,0.78887
541.324,59.15421,-2.92439,0.05339417,0.78625
544.624,59.4833,-2.92607,0.04110879,0.78363
547.924,59.81233,-2.92752,0.03349742,0.781
551.224,60.14043,-2.93146,0.02685165,0.77837
554.524,60.46875,-2.93541,0.02688194,0.77573
557.824,60.79665,-2.93689,0.02647001,0.77309
561.124,61.12387,-2.93961,0.02086937,0.77044
564.424,61.45411,-2.94324,0.02157071,0.76779
567.724,61.78365,-2.94463,0.02082623,0.76513
571.024,62.1128,-2.94858,0.01730535,0.76247
574.324,62.44206,-2.95042,0.01650184,0.7598
577.624,62.77191,-2.95417,0.01976074,0.75713
580.924,63.1021,-2.95615,0.01198423,0.75446
584.224,63.43189,-2.95807,0.01599943,0.75178
587.524,63.76243,-2.96174,0.0174053,0.7491
590.824,64.093,-2.96303,0.01853547,0.74641
594.124,64.42367,-2.96273,0.0147614,0.74372
597.424,64.75421,-2.96576,0.01022108,0.74102
600.724,65.0843,-2.96964,0.007896063,0.73833
604.024,65.41525,-2.97226,0.0061019,0.73562
607.324,65.7455,-2.97395,0.003187706,0.73292
610.624,66.07676,-2.97224,0.001025955,0.73021
613.924,66.40681,-2.97481,-0.002166452,0.7275
617.224,66.73835,-2.97787,-0.00220127,0.72478
620.524,67.0692,-2.97885,-0.001056861,0.72207
623.824,67.4012,-2.9828,-0.007358467,0.71935
627.124,67.73286,-2.98379,-0.01056926,0.71662
630.424,68.06339,-2.98544,-0.009009704,0.7139
633.724,68.3939,-2.98557,-0.01081145,0.71117
637.024,68.724,-2.98826,-0.009937007,0.70843
640.324,69.05475,-2.9895,-0.01287443,0.7057
643.624,69.3866,-2.99223,-0.01041212,0.70296
646.924,69.71776,-2.99288,-0.01116801,0.70022
650.224,70.04997,-2.99377,-0.0159502,0.69748
653.524,70.3819,-2.9964,-0.01621797,0.69474
656.824,70.71374,-2.99644,-0.01758512,0.69199
660.124,71.04528,-2.99885,-0.01315433,0.68924
663.424,71.37846,-2.99903,-0.02228248,0.68649
666.724,71.71076,-3.00037,-0.02854678,0.68374
670.024,72.04252,-3.002,-0.02731928,0.68099
673.324,72.3759,-3.00134,-0.02725748,0.67823
676.624,72.7085,-3.00331,-0.0258254,0.67548
679.924,73.04052,-3.00704,-0.02437262,0.67272
683.224,73.3728,-3.00784,-0.03020089,0.66996
686.524,73.70437,-3.00727,-0.03331856,0.6672
689.824,74.03766,-3.01058,-0.03862633,0.66444
693.124,74.36991,-3.00923,-0.03798668,0.66168
696.424,74.70167,-3.01303,-0.0383105,0.65891
699.724,75.0356,-3.01487,-0.03918056,0.65615
703.024,75.369,-3.01647,-0.04069787,0.65338
706.324,75.70211,-3.01648,-0.0440847,0.65062
709.624,76.03515,-3.01737,-0.04420854,0.64785
712.924,76.36855,-3.019,-0.0424538,0.64508
716.224,76.7029,-3.02162,-0.04803423,0.64231
719.524,77.0379,-3.02169,-0.04735089,0.63955
722.824,77.3727,-3.02167,-0.04831178,0.63678
726.124,77.70575,-3.02361,-0.04676828,0.63401
729.424,78.0406,-3.02522,-0.05170165,0.63124
732.724,78.376,-3.02334,-0.05662226,0.62847
736.024,78.71059,-3.02459,-0.0616283,0.6257
739.324,79.0441,-3.02657,-0.05859505,0.62293
742.624,79.37762,-3.0269,-0.05149612,0.62016
745.924,79.71135,-3.02881,-0.05633948,0.61739
749.224,80.0449,-3.03151,-0.05678378,0.61463
752.524,80.37912,-3.03128,-0.06580783,0.61186
755.824,80.71366,-3.03224,-0.06815122,0.60909
759.124,81.0484,-3.03261,-0.06539544,0.60633
762.424,81.38261,-3.03392,-0.07260131,0.60356
765.724,81.71733,-3.03574,-0.06940486,0.6008
769.024,82.05168,-3.03391,-0.06823142,0.59803
772.324,82.38558,-3.03655,-0.06666153,0.59527
775.624,82.72097,-3.03609,-0.06583235,0.59251
778.924,83.05547,-3.03839,-0.06962313,0.58975
782.224,83.39,-3.03651,-0.06532712,0.58699
785.524,83.7247,-3.03688,-0.06335663,0.58423
788.824,84.05943,-3.04051,-0.06433985,0.58147
792.124,84.39536,-3.03921,-0.06796941,0.57872
795.424,84.73043,-3.03392,-0.06776467,0.57596
798.024,84.99396,-3.03918,-0.07422098,0.57379

File: Particleboard_STA_N2_10KData_220419_R2.csv
##Temp./Â°C,Time/min,Mass loss(subtr.2)/mg,DSC(subtr.2)/(mW/mg),Sensit./(uV/mW)
49.692,10.00917,0.01272,-0.003956713,1.06052
52.992,11.3401,0.01893535,0.10623,1.05983
56.292,11.80078,0.01624948,0.15887,1.05913
59.592,12.1956,0.01980762,0.18902,1.0584
62.892,12.56846,0.01619367,0.20885,1.05765
66.192,12.93014,0.01602729,0.22441,1.05689
69.492,13.2848,0.01760171,0.23649,1.0561
72.792,13.6349,0.01453283,0.24818,1.05529
76.092,13.981,0.01667569,0.26052,1.05447
79.392,14.3226,0.01435984,0.27099,1.05362
82.692,14.6626,0.01254628,0.27958,1.05275
85.992,14.99802,0.01282992,0.28091,1.05187
89.292,15.3306,0.01239001,0.28112,1.05096
92.592,15.66,0.01106993,0.27954,1.05004
95.892,15.98744,0.009868515,0.27785,1.04909
99.192,16.31361,0.00624183,0.2754,1.04813
102.492,16.63791,0.0098546,0.27186,1.04715
105.792,16.96235,0.005392565,0.27085,1.04614
109.092,17.28531,0.01073905,0.26944,1.04512
112.392,17.608,0.006179483,0.27206,1.04408
115.692,17.9302,0.006801435,0.27361,1.04303
118.992,18.25264,0.00551176,0.27369,1.04195
122.292,18.57311,0.00417,0.28018,1.04085
125.592,18.89272,0.005479943,0.28305,1.03974
128.892,19.2137,0.00581371,0.28551,1.0386
132.192,19.53286,0.008057836,0.28608,1.03745
135.492,19.85117,0.006082645,0.29018,1.03628
138.792,20.1706,0.006537586,0.29334,1.0351
142.092,20.489,0.007133254,0.29571,1.03389
145.392,20.8075,0.007245572,0.29895,1.03267
148.692,21.1254,0.005700099,0.30547,1.03142
151.992,21.44249,0.00569991,0.31286,1.03016
155.292,21.7593,-0.00219454,0.32222,1.02889
158.592,22.07636,0.0004156443,0.32874,1.02759
161.892,22.39239,0.00178873,0.34231,1.02628
165.192,22.7086,-0.004363288,0.35585,1.02495
168.492,23.02445,-0.00340164,0.36766,1.0236
171.792,23.34023,-0.007336111,0.38645,1.02224
175.092,23.65429,-0.00735,0.39984,1.02086
178.392,23.97041,-0.00845829,0.41374,1.01946
181.692,24.28677,-0.01392328,0.43592,1.01805
184.992,24.60163,-0.01586212,0.45256,1.01661
188.292,24.91715,-0.02159587,0.46936,1.01517
191.592,25.23206,-0.02923293,0.48807,1.0137
194.892,25.54672,-0.03502485,0.50424,1.01222
198.192,25.8616,-0.0412744,0.5145,1.01072
201.492,26.17705,-0.04727879,0.52581,1.00921
204.792,26.49291,-0.05247192,0.5312,1.00768
208.092,26.80813,-0.06194521,0.53681,1.00613
211.392,27.1228,-0.0688708,0.53976,1.00457
214.692,27.438,-0.07522933,0.53638,1.00299
217.992,27.75188,-0.08710025,0.53431,1.0014
221.292,28.06672,-0.09632977,0.53297,0.99979
224.592,28.38072,-0.10443,0.53286,0.99816
227.892,28.69397,-0.11264,0.53283,0.99652
231.192,29.0098,-0.13323,0.53417,0.99487
234.492,29.32408,-0.13941,0.53168,0.99319
237.792,29.6384,-0.15128,0.53187,0.99151
241.092,29.95435,-0.16455,0.52604,0.98981
244.392,30.26973,-0.18141,0.52451,0.98809
247.692,30.5846,-0.1981,0.52179,0.98636
250.992,30.89948,-0.21401,0.52201,0.98462
254.292,31.21401,-0.23051,0.52077,0.98286
257.592,31.5289,-0.24896,0.52085,0.98108
260.892,31.843,-0.27023,0.52062,0.97929
264.192,32.15837,-0.29371,0.51882,0.97749
267.492,32.47267,-0.32297,0.51265,0.97567
270.792,32.78782,-0.35099,0.50727,0.97384
274.092,33.1017,-0.38519,0.49629,0.972
277.392,33.41706,-0.41945,0.48024,0.97014
280.692,33.73215,-0.45367,0.45774,0.96826
283.992,34.04926,-0.49755,0.43478,0.96638
287.292,34.36452,-0.53433,0.41039,0.96448
290.592,34.68027,-0.58544,0.39315,0.96256
293.892,34.99532,-0.63158,0.38077,0.96064
297.192,35.3112,-0.68236,0.37352,0.9587
300.492,35.6265,-0.73867,0.36601,0.95675
303.792,35.94311,-0.7994,0.36549,0.95478
307.092,36.2593,-0.86414,0.36534,0.9528
310.392,36.5762,-0.92906,0.36827,0.95081
313.692,36.8928,-0.99816,0.37203,0.94881
316.992,37.2093,-1.07923,0.37471,0.94679
320.292,37.52621,-1.16458,0.37976,0.94476
323.592,37.84325,-1.25086,0.38467,0.94272
326.892,38.16072,-1.34466,0.39059,0.94067
330.192,38.4777,-1.44405,0.39206,0.9386
333.492,38.79465,-1.55946,0.39152,0.93653
336.792,39.11208,-1.66661,0.38106,0.93444
340.092,39.4303,-1.77208,0.36242,0.93234
343.392,39.7492,-1.88442,0.3377,0.93022
346.692,40.06642,-1.99178,0.30081,0.9281
349.992,40.38615,-2.08639,0.25187,0.92596
353.292,40.70489,-2.17624,0.19977,0.92382
356.592,41.02412,-2.24852,0.14714,0.92166
359.892,41.34373,-2.30972,0.09952214,0.91949
363.192,41.66328,-2.35498,0.05995495,0.91731
366.492,41.98292,-2.39474,0.02859568,0.91512
369.792,42.30166,-2.41886,0.0040786,0.91292
373.092,42.6218,-2.44348,-0.01414778,0.91071
376.392,42.94186,-2.45599,-0.02681743,0.90848
379.692,43.26215,-2.47003,-0.03399095,0.90625
382.992,43.58276,-2.48297,-0.03421256,0.90401
386.292,43.903,-2.49545,-0.0376673,0.90175
389.592,44.22298,-2.50949,-0.0401559,0.89949
392.892,44.5437,-2.51611,-0.04085052,0.89721
396.192,44.86488,-2.53212,-0.04509598,0.89493
399.492,45.18615,-2.5409,-0.05252405,0.89264
402.792,45.50716,-2.55027,-0.050408,0.89033
406.092,45.8294,-2.56108,-0.04448962,0.88802
409.392,46.1516,-2.56854,-0.04032722,0.8857
412.692,46.47412,-2.57877,-0.03573622,0.88336
415.992,46.79585,-2.58914,-0.03293241,0.88102
419.292,47.11758,-2.60275,-0.02834057,0.87867
422.592,47.4384,-2.60922,-0.02895851,0.87631
425.892,47.76189,-2.62567,-0.02388847,0.87394
429.192,48.0877,-2.62886,-0.02064847,0.87157
432.492,48.411,-2.63869,-0.0156652,0.86918
435.792,48.735,-2.65104,-0.01137096,0.86679
439.092,49.0589,-2.65486,-0.006901959,0.86438
442.392,49.3825,-2.66101,-0.00489107,0.86197
445.692,49.70633,-2.67084,0.0004440214,0.85955
448.992,50.02864,-2.67629,0.003750547,0.85712
452.292,50.35314,-2.68523,0.00635082,0.85469
455.592,50.6783,-2.69223,0.006489744,0.85224
458.892,51.00293,-2.69762,0.008578945,0.84979
462.192,51.3266,-2.70179,0.008681314,0.84733
465.492,51.65125,-2.70781,0.008756732,0.84486
468.792,51.97575,-2.71435,0.006693959,0.84238
472.092,52.30118,-2.72395,0.01039922,0.8399
475.392,52.6259,-2.72524,0.004384527,0.83741
478.692,52.9505,-2.73054,0.004906219,0.83491
481.992,53.2769,-2.7336,0.0003169117,0.83241
485.292,53.6038,-2.74241,0.00169777,0.82989
488.592,53.93036,-2.74271,-0.004011789,0.82738
491.892,54.2555,-2.74766,-0.00602844,0.82485
495.192,54.58256,-2.75752,-0.00782967,0.82232
498.492,54.90897,-2.75619,-0.008611075,0.81978
501.792,55.23571,-2.75833,-0.01402483,0.81723
505.092,55.56345,-2.76658,-0.01222375,0.81468
508.392,55.8901,-2.77098,-0.002832402,0.81212
511.692,56.21545,-2.77265,0.000430128,0.80955
514.992,56.54156,-2.77539,0.004266182,0.80698
518.292,56.86821,-2.77868,0.0044286,0.8044
521.592,57.1941,-2.78236,0.00499648,0.80182
524.892,57.52299,-2.78098,0.003165755,0.79923
528.192,57.85069,-2.78824,-0.001110789,0.79664
531.492,58.17841,-2.79164,-0.00208968,0.79403
534.792,58.50575,-2.7898,-0.005317803,0.79143
538.092,58.83282,-2.79467,-0.009602336,0.78882
541.392,59.16075,-2.80149,-0.008943811,0.7862
544.692,59.48916,-2.80412,-0.02239502,0.78358
547.992,59.81743,-2.80555,-0.02602839,0.78095
551.292,60.146,-2.80514,-0.03113228,0.77831
554.592,60.4748,-2.81299,-0.03443181,0.77568
557.892,60.80424,-2.81301,-0.04015137,0.77303
561.192,61.133,-2.81633,-0.04055324,0.77038
564.492,61.4633,-2.81771,-0.0443739,0.76773
567.792,61.7931,-2.82411,-0.04901056,0.76508
571.092,62.12185,-2.82136,-0.0471571,0.76241
574.392,62.4505,-2.82414,-0.04990419,0.75975
577.692,62.7812,-2.83386,-0.05352752,0.75708
580.992,63.1109,-2.82845,-0.05404047,0.7544
584.292,63.44149,-2.8298,-0.05577341,0.75172
587.592,63.77175,-2.83542,-0.05713786,0.74904
590.892,64.103,-2.83212,-0.05733237,0.74635
594.192,64.43326,-2.84053,-0.05843546,0.74366
597.492,64.76355,-2.84017,-0.06030895,0.74097
600.792,65.09323,-2.8412,-0.05799136,0.73827
604.092,65.42405,-2.84958,-0.05516957,0.73557
607.392,65.75564,-2.84717,-0.05593776,0.73286
610.692,66.0873,-2.84598,-0.05962777,0.73016
613.992,66.41892,-2.84711,-0.06159509,0.72744
617.292,66.75013,-2.84965,-0.0609591,0.72473
620.592,67.08195,-2.8524,-0.06026703,0.72201
623.892,67.4128,-2.85675,-0.05726599,0.71929
627.192,67.74391,-2.85741,-0.05795153,0.71657
630.492,68.07477,-2.85891,-0.05161076,0.71384
633.792,68.40524,-2.85272,-0.05450198,0.71111
637.092,68.7359,-2.86058,-0.04848971,0.70838
640.392,69.0673,-2.85952,-0.04557447,0.70564
643.692,69.39796,-2.87181,-0.03890532,0.70291
646.992,69.7299,-2.86456,-0.03901407,0.70017
650.292,70.06155,-2.86587,-0.03809189,0.69743
653.592,70.3934,-2.87291,-0.03418363,0.69468
656.892,70.7256,-2.87088,-0.03288288,0.69194
660.192,71.05815,-2.87147,-0.0292777,0.68919
663.492,71.38993,-2.86517,-0.02544827,0.68644
666.792,71.7218,-2.86694,-0.01729622,0.68369
670.092,72.0531,-2.87517,-0.01126678,0.68093
673.392,72.3844,-2.87348,-0.001978282,0.67818
676.692,72.71728,-2.88035,-0.003378835,0.67542
679.992,73.04785,-2.8768,0.0008543598,0.67266
683.292,73.38067,-2.88236,0.01049742,0.6699
686.592,73.71432,-2.87625,0.009290264,0.66714
689.892,74.04781,-2.88192,0.01001732,0.66438
693.192,74.37992,-2.88535,0.01339581,0.66162
696.492,74.71382,-2.88413,0.01654016,0.65886
699.792,75.04725,-2.88957,0.02334218,0.65609
703.092,75.38064,-2.88399,0.02370306,0.65333
706.392,75.7141,-2.89083,0.02405878,0.65056
709.692,76.04813,-2.89023,0.03056157,0.64779
712.992,76.38256,-2.89003,0.02982913,0.64502
716.292,76.71646,-2.88858,0.03090917,0.64226
719.592,77.0508,-2.88968,0.03364007,0.63949
722.892,77.38549,-2.89462,0.03603252,0.63672
726.192,77.7199,-2.8978,0.03668622,0.63395
729.492,78.0526,-2.89085,0.03456278,0.63118
732.792,78.38605,-2.89703,0.03873876,0.62841
736.092,78.7208,-2.89889,0.03769933,0.62564
739.392,79.05496,-2.89472,0.04194075,0.62287
742.692,79.3887,-2.89806,0.04605223,0.62011
745.992,79.7231,-2.89867,0.04680935,0.61734
749.292,80.05656,-2.8999,0.04256774,0.61457
752.592,80.39233,-2.90417,0.04586959,0.6118
755.892,80.72731,-2.90739,0.0461839,0.60904
759.192,81.06219,-2.90405,0.04215917,0.60627
762.492,81.39639,-2.90927,0.04975499,0.6035
765.792,81.72963,-2.90515,0.04902201,0.60074
769.092,82.06406,-2.90778,0.04242087,0.59798
772.392,82.39825,-2.9079,0.04653736,0.59521
775.692,82.73226,-2.90778,0.04206621,0.59245
778.992,83.06863,-2.90767,0.04151358,0.58969
782.292,83.40409,-2.91228,0.04202679,0.58693
785.592,83.7379,-2.90997,0.04744045,0.58417
788.892,84.07305,-2.90907,0.0439975,0.58142
792.192,84.408,-2.91584,0.04868631,0.57866
795.492,84.74378,-2.9144,0.04650896,0.57591
797.992,84.99767,-2.91557,0.04964946,0.57382