Folder: fsri_materials_database/01_Data/Particleboard/STA/N2/30K_min (part 2)

File: Particleboard_STA_N2_30KData_220420_R3.csv
##Temp./Â°C,Time/min,Mass loss(subtr.2)/mg,DSC(subtr.2)/(mW/mg),Sensit./(uV/mW)
48.47,10.00583,-0.01952,0.01212057,1.07507
51.57,10.87417,-0.01754135,0.16825,1.0737
54.67,11.10373,-0.01861198,0.27854,1.07232
57.77,11.28083,-0.01996736,0.36453,1.07093
60.87,11.433,-0.02126402,0.43851,1.06953
63.97,11.57051,-0.01715776,0.49866,1.06812
67.07,11.70003,-0.01927981,0.55273,1.0667
70.17,11.82322,-0.01733353,0.6014,1.06526
73.27,11.94208,-0.0184774,0.64144,1.06382
76.37,12.05781,-0.02070317,0.68546,1.06237
79.47,12.1711,-0.02101186,0.72232,1.0609
82.57,12.28218,-0.02216491,0.75906,1.05943
85.67,12.39185,-0.02248222,0.78988,1.05795
88.77,12.49991,-0.02600964,0.82229,1.05646
91.87,12.6073,-0.02677387,0.85189,1.05495
94.97,12.7135,-0.02675485,0.87665,1.05344
98.07,12.8186,-0.02940038,0.89503,1.05192
101.17,12.92355,-0.03072306,0.91428,1.05039
104.27,13.02782,-0.0307334,0.92047,1.04885
107.37,13.13202,-0.03203466,0.9228,1.0473
110.47,13.23581,-0.0320343,0.92112,1.04574
113.57,13.33949,-0.03273676,0.9164,1.04417
116.67,13.44249,-0.03467294,0.90887,1.04259
119.77,13.5451,-0.03465978,0.9036,1.04101
122.87,13.64759,-0.03778594,0.89768,1.03941
125.97,13.74959,-0.03861148,0.89335,1.03781
129.07,13.8508,-0.0385034,0.88972,1.03619
132.17,13.95168,-0.0386102,0.89191,1.03457
135.27,14.052,-0.03992,0.89484,1.03294
138.37,14.15175,-0.03861007,0.90172,1.03131
141.47,14.25138,-0.03861,0.91204,1.02966
144.57,14.3506,-0.03864052,0.91934,1.02801
147.67,14.44941,-0.03871995,0.93115,1.02634
150.77,14.5476,-0.03996292,0.94139,1.02467
153.87,14.64596,-0.0415807,0.95498,1.02299
156.97,14.74368,-0.04256,0.97208,1.02131
160.07,14.84096,-0.04256,0.9868,1.01961
163.17,14.93893,-0.04189579,1.00415,1.01791
166.27,15.0362,-0.04321,1.02241,1.0162
169.37,15.133,-0.04424339,1.04395,1.01449
172.47,15.22985,-0.04486001,1.06703,1.01276
175.57,15.32661,-0.04491021,1.09477,1.01103
178.67,15.4226,-0.04584746,1.12918,1.00929
181.77,15.5184,-0.04848801,1.1669,1.00755
184.87,15.61423,-0.04979017,1.20517,1.00579
187.97,15.7095,-0.05365237,1.24563,1.00403
191.07,15.80449,-0.05821232,1.29066,1.00226
194.17,15.8998,-0.06141265,1.33812,1.00049
197.27,15.9946,-0.06522496,1.38931,0.99871
200.37,16.08936,-0.06886551,1.43804,0.99692
203.47,16.18417,-0.07142912,1.49162,0.99513
206.57,16.2786,-0.07535002,1.54551,0.99333
209.67,16.3732,-0.08129459,1.59496,0.99152
212.77,16.4677,-0.08567024,1.64198,0.9897
215.87,16.56189,-0.09287717,1.6796,0.98788
218.97,16.65612,-0.09853109,1.71898,0.98606
222.07,16.75014,-0.10601,1.74884,0.98422
225.17,16.8445,-0.11298,1.77041,0.98238
228.27,16.93841,-0.1208,1.78189,0.98054
231.37,17.03223,-0.12744,1.79088,0.97869
234.47,17.12591,-0.13656,1.79133,0.97683
237.57,17.21946,-0.14405,1.79162,0.97496
240.67,17.31297,-0.15296,1.79259,0.97309
243.77,17.40655,-0.16349,1.79337,0.97122
246.87,17.49999,-0.17391,1.78899,0.96934
249.97,17.59315,-0.18563,1.7819,0.96745
253.07,17.6864,-0.19741,1.77152,0.96556
256.17,17.77949,-0.21096,1.76113,0.96366
259.27,17.8724,-0.22254,1.75425,0.96176
262.37,17.96542,-0.23777,1.74641,0.95985
265.47,18.05811,-0.25324,1.74038,0.95793
268.57,18.1511,-0.26919,1.73285,0.95601
271.67,18.24384,-0.2858,1.72469,0.95409
274.77,18.33654,-0.30315,1.71499,0.95216
277.87,18.42878,-0.32362,1.69916,0.95022
280.97,18.5224,-0.34405,1.67822,0.94828
284.07,18.61521,-0.36801,1.65332,0.94634
287.17,18.70833,-0.39374,1.6211,0.94438
290.27,18.8012,-0.42034,1.57984,0.94243
293.37,18.89423,-0.45136,1.52681,0.94047
296.47,18.98733,-0.4837,1.46637,0.9385
299.57,19.08043,-0.51639,1.40722,0.93653
302.67,19.17366,-0.55182,1.34142,0.93456
305.77,19.2668,-0.58953,1.28061,0.93258
308.87,19.36015,-0.62882,1.22453,0.93059
311.97,19.45341,-0.67106,1.17612,0.9286
315.07,19.54681,-0.71639,1.135,0.92661
318.17,19.63971,-0.76402,1.10359,0.92461
321.27,19.73377,-0.81808,1.08067,0.92261
324.37,19.82742,-0.87266,1.06004,0.9206
327.47,19.92122,-0.92965,1.0457,0.91859
330.57,20.01501,-0.98961,1.03751,0.91657
333.67,20.10888,-1.05229,1.03198,0.91455
336.77,20.20334,-1.12129,1.02857,0.91253
339.87,20.29768,-1.19149,1.02584,0.9105
342.97,20.39206,-1.26727,1.02903,0.90847
346.07,20.48621,-1.34936,1.03104,0.90643
349.17,20.58138,-1.43531,1.03403,0.90439
352.27,20.67615,-1.52612,1.03421,0.90235
355.37,20.77091,-1.622,1.03274,0.9003
358.47,20.86593,-1.72118,1.02007,0.89824
361.57,20.9608,-1.82272,0.99235,0.89619
364.67,21.0564,-1.92667,0.9507,0.89412
367.77,21.15149,-2.02672,0.89487,0.89206
370.87,21.24684,-2.12464,0.82201,0.88999
373.97,21.34236,-2.21572,0.73677,0.88792
377.07,21.43785,-2.30038,0.64693,0.88584
380.17,21.53332,-2.36998,0.55249,0.88376
383.27,21.62903,-2.42865,0.46875,0.88168
386.37,21.72462,-2.47451,0.39566,0.87959
389.47,21.8205,-2.5146,0.33063,0.8775
392.57,21.91637,-2.5454,0.27499,0.87541
395.67,22.01234,-2.56922,0.22603,0.87331
398.77,22.10836,-2.58935,0.18469,0.87121
401.87,22.2046,-2.60461,0.15028,0.8691
404.97,22.30089,-2.61746,0.11563,0.86699
408.07,22.39709,-2.62612,0.08707332,0.86488
411.17,22.49383,-2.63713,0.06235805,0.86277
414.27,22.59052,-2.64835,0.03888163,0.86065
417.37,22.6871,-2.65955,0.01859339,0.85852
420.47,22.78381,-2.67212,-0.000420713,0.8564
423.57,22.88072,-2.68162,-0.01531422,0.85427
426.67,22.97749,-2.69187,-0.02904216,0.85214
429.77,23.07475,-2.70233,-0.03386189,0.85
432.87,23.1719,-2.71224,-0.04107127,0.84786
435.97,23.26902,-2.72262,-0.03951013,0.84572
439.07,23.36637,-2.73322,-0.03534126,0.84358
442.17,23.46387,-2.74269,-0.03073998,0.84143
445.27,23.56135,-2.75194,-0.01753653,0.83928
448.37,23.6591,-2.76222,-0.00406881,0.83712
451.47,23.75702,-2.7696,0.01575187,0.83497
454.57,23.85482,-2.78074,0.03459481,0.83281
457.67,23.95298,-2.78736,0.05497723,0.83064
460.77,24.05115,-2.79414,0.07185172,0.82848
463.87,24.14932,-2.80026,0.08897904,0.82631
466.97,24.24782,-2.80955,0.10891,0.82414
470.07,24.34629,-2.81446,0.1254,0.82196
473.17,24.44491,-2.82109,0.13409,0.81978
476.27,24.5435,-2.82688,0.1496,0.8176
479.37,24.64249,-2.83618,0.1615,0.81542
482.47,24.7411,-2.84282,0.17304,0.81323
485.57,24.8403,-2.84969,0.17817,0.81104
488.67,24.93919,-2.85425,0.18865,0.80885
491.77,25.03828,-2.86014,0.19564,0.80666
494.87,25.13758,-2.86353,0.19831,0.80446
497.97,25.2367,-2.86735,0.20168,0.80226
501.07,25.33599,-2.87077,0.20517,0.80006
504.17,25.43526,-2.87908,0.21119,0.79785
507.27,25.5346,-2.88648,0.217,0.79565
510.37,25.63419,-2.8894,0.21836,0.79343
513.47,25.73377,-2.89018,0.21901,0.79122
516.57,25.83338,-2.89234,0.22118,0.78901
519.67,25.933,-2.89572,0.22076,0.78679
522.77,26.0329,-2.89979,0.22166,0.78457
525.87,26.13268,-2.90679,0.22523,0.78234
528.97,26.2321,-2.91294,0.22836,0.78012
532.07,26.33241,-2.91491,0.22625,0.77789
535.17,26.4326,-2.91711,0.22469,0.77566
538.27,26.53255,-2.92204,0.22588,0.77343
541.37,26.63267,-2.92576,0.22944,0.77119
544.47,26.7328,-2.9271,0.23308,0.76895
547.57,26.8332,-2.93373,0.24176,0.76671
550.67,26.93344,-2.93841,0.2458,0.76447
553.77,27.0339,-2.93829,0.25007,0.76222
556.87,27.1343,-2.93993,0.25995,0.75998
559.97,27.2348,-2.94256,0.26812,0.75773
563.07,27.3353,-2.94659,0.27267,0.75548
566.17,27.43579,-2.95131,0.2752,0.75322
569.27,27.5366,-2.95396,0.27863,0.75097
572.37,27.6374,-2.95659,0.28256,0.74871
575.47,27.7381,-2.95867,0.28057,0.74645
578.57,27.8391,-2.9613,0.27991,0.74419
581.67,27.94,-2.96531,0.27949,0.74192
584.77,28.04095,-2.96623,0.28179,0.73965
587.87,28.14201,-2.96874,0.27427,0.73738
590.97,28.24318,-2.97151,0.27387,0.73511
594.07,28.3444,-2.97425,0.27024,0.73284
597.17,28.4459,-2.97688,0.26754,0.73057
600.27,28.5473,-2.98098,0.25976,0.72829
603.37,28.64876,-2.98225,0.25384,0.72601
606.47,28.7504,-2.98239,0.2517,0.72373
609.57,28.8519,-2.985,0.24927,0.72145
612.67,28.9535,-2.98643,0.24403,0.71916
615.77,29.05538,-2.99032,0.24139,0.71687
618.87,29.15705,-2.993,0.24061,0.71459
621.97,29.25935,-2.99301,0.23352,0.7123
625.07,29.36113,-2.997,0.23305,0.71
628.17,29.46317,-2.99695,0.23161,0.70771
631.27,29.56506,-2.99695,0.22579,0.70541
634.37,29.66712,-2.99828,0.22709,0.70312
637.47,29.76918,-3.00058,0.22684,0.70082
640.57,29.8712,-3.00099,0.22281,0.69852
643.67,29.973,-3.00517,0.21733,0.69621
646.77,30.075,-3.00657,0.21344,0.69391
649.87,30.1769,-3.00858,0.21542,0.6916
652.97,30.2789,-3.01044,0.21593,0.6893
656.07,30.38095,-3.01045,0.21321,0.68699
659.17,30.4829,-3.01045,0.20937,0.68468
662.27,30.58512,-3.01308,0.2115,0.68237
665.37,30.68725,-3.01571,0.21099,0.68005
668.47,30.78939,-3.0181,0.21074,0.67774
671.57,30.8915,-3.01834,0.2062,0.67542
674.67,30.9938,-3.01784,0.20371,0.6731
677.77,31.09608,-3.02088,0.19945,0.67078
680.87,31.1982,-3.02139,0.19923,0.66846
683.97,31.30085,-3.0242,0.19832,0.66614
687.07,31.4034,-3.02503,0.19315,0.66382
690.17,31.506,-3.02634,0.19131,0.66149
693.27,31.60872,-3.02635,0.18739,0.65917
696.37,31.7114,-3.02898,0.18165,0.65684
699.47,31.81403,-3.02767,0.17533,0.65451
702.57,31.9168,-3.03095,0.16991,0.65219
705.67,32.01957,-3.03293,0.16567,0.64986
708.77,32.12283,-3.03323,0.16305,0.64752
711.87,32.22585,-3.03249,0.156,0.64519
714.97,32.32898,-3.03051,0.15307,0.64286
718.07,32.43209,-3.03314,0.14966,0.64052
721.17,32.5353,-3.03609,0.15083,0.63819
724.27,32.6386,-3.03827,0.14622,0.63585
727.37,32.74175,-3.03712,0.14363,0.63351
730.47,32.84525,-3.03789,0.13459,0.63118
733.57,32.94818,-3.03918,0.13367,0.62884
736.67,33.05173,-3.04141,0.13231,0.6265
739.77,33.1552,-3.04189,0.13224,0.62416
742.87,33.2584,-3.04444,0.12714,0.62182
745.97,33.36175,-3.0432,0.12414,0.61947
749.07,33.46517,-3.04346,0.12455,0.61713
752.17,33.5687,-3.04844,0.118,0.61479
755.27,33.67222,-3.04676,0.11955,0.61244
758.37,33.77541,-3.04793,0.11323,0.6101
761.47,33.87903,-3.0518,0.10871,0.60776
764.57,33.9825,-3.04744,0.11191,0.60541
767.67,34.08578,-3.0507,0.11242,0.60306
770.77,34.18965,-3.05169,0.10745,0.60072
773.87,34.29322,-3.05201,0.10852,0.59837
776.97,34.39683,-3.05333,0.10604,0.59602
780.07,34.50059,-3.05465,0.1065,0.59368
783.17,34.6043,-3.05463,0.10827,0.59133
786.27,34.7079,-3.05718,0.10853,0.58898
789.37,34.81179,-3.0598,0.11209,0.58663
792.47,34.91565,-3.06112,0.11163,0.58429
794.87,34.99607,-3.06112,0.11017,0.58247