Folder: fsri_materials_database/01_Data/Particleboard/STA/N2/30K_min

Note: 01_Data/README.md
# Materials and Products Database
## 01_Data

Raw data generated from each apparatus are included here in plain-text format. The data is organized first by material, next by the short name of test apparatus used, and where applicable additional filtering by test settings.

### material.json

Each material directory contains a json file of the same name as the material. This file links the data stored in the repository as well as data and graphs produced by the accompanying scripts (__02_Scripts__) to the respective landing page for the material on the front-end website.

File: Particleboard_STA_N2_30KData_220419_R1.csv
##Temp./Â°C,Time/min,Mass loss(subtr.2)/mg,DSC(subtr.2)/(mW/mg),Sensit./(uV/mW)
48.413,10.00583,-0.0351,0.01717737,1.07509
51.613,10.88231,-0.03862656,0.17832,1.07368
54.813,11.11726,-0.03843314,0.29328,1.07226
58.013,11.29751,-0.04018245,0.38367,1.07082
61.213,11.45282,-0.03571414,0.45875,1.06937
64.413,11.594,-0.03735007,0.52359,1.06792
67.613,11.7264,-0.04392955,0.58295,1.06645
70.813,11.85242,-0.04111765,0.6344,1.06497
74.013,11.9743,-0.0436795,0.68347,1.06347
77.213,12.09305,-0.04298784,0.7287,1.06197
80.413,12.20934,-0.04168357,0.77019,1.06046
83.613,12.32346,-0.04485638,0.80759,1.05893
86.813,12.43604,-0.04474641,0.8462,1.0574
90.013,12.54723,-0.04606984,0.8801,1.05585
93.213,12.65738,-0.05077765,0.9095,1.0543
96.413,12.7665,-0.0507834,0.93188,1.05273
99.613,12.87519,-0.05326957,0.95187,1.05116
102.813,12.983,-0.05473141,0.96377,1.04957
106.013,13.09028,-0.05473,0.97266,1.04798
109.213,13.19785,-0.05464062,0.9718,1.04637
112.413,13.3046,-0.0547303,0.96585,1.04476
115.613,13.41148,-0.06030512,0.96196,1.04313
118.813,13.5177,-0.0638558,0.95367,1.0415
122.013,13.6234,-0.06234397,0.94471,1.03985
125.213,13.7282,-0.06372004,0.93838,1.0382
128.413,13.83341,-0.06414308,0.93884,1.03654
131.613,13.9377,-0.06636023,0.93709,1.03486
134.813,14.0413,-0.06504999,0.94175,1.03318
138.013,14.14473,-0.06632725,0.94957,1.03149
141.213,14.2474,-0.0676843,0.95787,1.0298
144.413,14.3498,-0.06636,0.96922,1.02809
147.613,14.45174,-0.06767944,0.98069,1.02637
150.813,14.5533,-0.06636008,0.99275,1.02465
154.013,14.65449,-0.06768,1.00393,1.02292
157.213,14.7557,-0.06635955,1.02093,1.02118
160.413,14.8563,-0.07009626,1.03787,1.01943
163.613,14.95704,-0.06899639,1.0585,1.01767
166.813,15.0571,-0.07157631,1.07589,1.0159
170.013,15.1573,-0.07260328,1.10096,1.01413
173.213,15.2571,-0.07534079,1.12635,1.01235
176.413,15.35663,-0.07535,1.15922,1.01056
179.613,15.4559,-0.07535,1.19418,1.00876
182.813,15.5548,-0.07672196,1.23365,1.00696
186.013,15.6531,-0.08007924,1.27712,1.00514
189.213,15.75162,-0.08757909,1.32301,1.00332
192.413,15.84949,-0.09301696,1.37769,1.0015
195.613,15.94785,-0.09574995,1.42779,0.99966
198.813,16.0458,-0.09311986,1.48098,0.99782
202.013,16.1438,-0.09178932,1.53391,0.99597
205.213,16.2412,-0.10068,1.58957,0.99411
208.413,16.33895,-0.10215,1.64445,0.99225
211.613,16.4364,-0.10925,1.69975,0.99038
214.813,16.53389,-0.12583,1.75009,0.9885
218.013,16.63121,-0.13118,1.79515,0.98662
221.213,16.72849,-0.13305,1.82958,0.98473
224.413,16.8256,-0.14577,1.85786,0.98283
227.613,16.92259,-0.14877,1.87346,0.98093
230.813,17.01965,-0.16008,1.88321,0.97902
234.013,17.11657,-0.16795,1.88877,0.9771
237.213,17.21332,-0.17488,1.89012,0.97518
240.413,17.31002,-0.18641,1.89403,0.97325
243.613,17.40653,-0.1945,1.89583,0.97131
246.813,17.5033,-0.20656,1.88987,0.96937
250.013,17.59985,-0.21841,1.88324,0.96742
253.213,17.6963,-0.23302,1.87605,0.96547
256.413,17.79285,-0.24508,1.8657,0.96351
259.613,17.88917,-0.25927,1.85708,0.96155
262.813,17.98515,-0.27847,1.85046,0.95957
266.013,18.08181,-0.29143,1.84648,0.9576
269.213,18.17784,-0.31415,1.83896,0.95561
272.413,18.27441,-0.3344,1.83066,0.95363
275.613,18.3708,-0.3536,1.82004,0.95163
278.813,18.46722,-0.37353,1.80449,0.94963
282.013,18.56338,-0.39784,1.78412,0.94763
285.213,18.6599,-0.42053,1.75192,0.94562
288.413,18.75625,-0.44753,1.71155,0.9436
291.613,18.85254,-0.4789,1.66333,0.94158
294.813,18.94908,-0.5158,1.60576,0.93955
298.013,19.04547,-0.54633,1.54364,0.93752
301.213,19.14171,-0.58453,1.47651,0.93549
304.413,19.23801,-0.62478,1.40988,0.93344
307.613,19.33377,-0.66619,1.35081,0.9314
310.813,19.43083,-0.71708,1.29816,0.92935
314.013,19.5273,-0.76314,1.24996,0.92729
317.213,19.62333,-0.80612,1.21217,0.92523
320.413,19.7202,-0.85689,1.18173,0.92316
323.613,19.81675,-0.91628,1.16092,0.92109
326.813,19.91337,-0.97689,1.14563,0.91902
330.013,20.00999,-1.03587,1.13604,0.91694
333.213,20.10686,-1.10057,1.12776,0.91485
336.413,20.20371,-1.17488,1.12357,0.91276
339.613,20.30074,-1.2523,1.12424,0.91067
342.813,20.39795,-1.33421,1.12191,0.90857
346.013,20.4953,-1.4206,1.12285,0.90647
349.213,20.5928,-1.50955,1.12535,0.90436
352.413,20.69025,-1.60509,1.12604,0.90225
355.613,20.78806,-1.70822,1.12308,0.90014
358.813,20.88585,-1.81466,1.1111,0.89802
362.013,20.98388,-1.92531,1.08596,0.89589
365.213,21.08211,-2.03311,1.04601,0.89376
368.413,21.1804,-2.14212,0.98631,0.89163
371.613,21.27885,-2.23291,0.9151,0.8895
374.813,21.37743,-2.33332,0.82761,0.88735
378.013,21.47615,-2.41972,0.7359,0.88521
381.213,21.57488,-2.47945,0.6428,0.88306
384.413,21.67377,-2.53809,0.56077,0.88091
387.613,21.77273,-2.59086,0.48975,0.87875
390.813,21.8718,-2.62636,0.42843,0.87659
394.013,21.97095,-2.65769,0.37692,0.87443
397.213,22.07027,-2.68117,0.33183,0.87226
400.413,22.16979,-2.6899,0.28687,0.87009
403.613,22.2693,-2.70107,0.25174,0.86792
406.813,22.36891,-2.7227,0.21925,0.86574
410.013,22.46857,-2.72544,0.18282,0.86356
413.213,22.56835,-2.73651,0.15545,0.86137
416.413,22.6681,-2.7574,0.12844,0.85918
419.613,22.7681,-2.76872,0.10897,0.85699
422.813,22.86795,-2.78025,0.08651787,0.85479
426.013,22.96803,-2.79503,0.07137432,0.85259
429.213,23.06813,-2.80972,0.06375525,0.85039
432.413,23.1681,-2.81954,0.05304857,0.84818
435.613,23.26851,-2.8279,0.05442531,0.84597
438.813,23.36883,-2.83493,0.05405168,0.84376
442.013,23.46942,-2.83891,0.05723454,0.84154
445.213,23.57005,-2.85294,0.06622591,0.83932
448.413,23.67071,-2.86717,0.07941197,0.8371
451.613,23.77148,-2.87474,0.09708433,0.83487
454.813,23.87227,-2.88451,0.11309,0.83264
458.013,23.97344,-2.895,0.12342,0.8304
461.213,24.07463,-2.90386,0.1406,0.82817
464.413,24.17595,-2.91139,0.15691,0.82593
467.613,24.27737,-2.91522,0.1701,0.82369
470.813,24.3789,-2.92016,0.18659,0.82144
474.013,24.48045,-2.92948,0.19446,0.81919
477.213,24.58207,-2.93733,0.20466,0.81694
480.413,24.6836,-2.9454,0.21535,0.81469
483.613,24.78562,-2.95319,0.2204,0.81243
486.813,24.8875,-2.95545,0.22832,0.81017
490.013,24.98944,-2.96605,0.23306,0.8079
493.213,25.09163,-2.96971,0.2432,0.80564
496.413,25.19381,-2.9737,0.24342,0.80337
499.613,25.29617,-2.97598,0.24455,0.80109
502.813,25.39844,-2.98055,0.24599,0.79882
506.013,25.50079,-2.99033,0.24468,0.79654
509.213,25.60341,-2.99435,0.24967,0.79426
512.413,25.7059,-2.9952,0.24802,0.79198
515.613,25.8085,-3.00125,0.24663,0.78969
518.813,25.91133,-3.00693,0.24683,0.7874
522.013,26.01407,-3.01259,0.24725,0.78511
525.213,26.1169,-3.0174,0.24514,0.78281
528.413,26.2199,-3.02341,0.24513,0.78052
531.613,26.3229,-3.02327,0.24724,0.77822
534.813,26.426,-3.02997,0.24591,0.77592
538.013,26.5292,-3.03512,0.2451,0.77361
541.213,26.6322,-3.03684,0.24429,0.7713
544.413,26.7358,-3.03624,0.24437,0.76899
547.613,26.8391,-3.03961,0.24622,0.76668
550.813,26.9427,-3.04602,0.25221,0.76437
554.013,27.04601,-3.05423,0.25729,0.76205
557.213,27.1497,-3.05808,0.26329,0.75973
560.413,27.25344,-3.05802,0.26654,0.75741
563.613,27.35662,-3.06103,0.27002,0.75508
566.813,27.46094,-3.06473,0.27213,0.75275
570.013,27.565,-3.06737,0.27263,0.75043
573.213,27.669,-3.07058,0.27374,0.74809
576.413,27.77331,-3.07093,0.26791,0.74576
579.613,27.8774,-3.07743,0.27023,0.74342
582.813,27.98191,-3.0757,0.25885,0.74109
586.013,28.0865,-3.07619,0.25416,0.73874
589.213,28.19078,-3.07823,0.24624,0.7364
592.413,28.29563,-3.08446,0.23649,0.73406
595.613,28.4002,-3.08931,0.23214,0.73171
598.813,28.50497,-3.0915,0.22246,0.72936
602.013,28.60975,-3.09736,0.22033,0.72701
605.213,28.7146,-3.10241,0.21775,0.72465
608.413,28.81925,-3.10082,0.21125,0.7223
611.613,28.92418,-3.09595,0.20809,0.71994
614.813,29.02968,-3.09544,0.20276,0.71758
618.013,29.13472,-3.10528,0.19953,0.71522
621.213,29.2399,-3.10664,0.19685,0.71286
624.413,29.34484,-3.10529,0.1892,0.71049
627.613,29.45028,-3.10741,0.18995,0.70812
630.813,29.5557,-3.11564,0.18678,0.70575
634.013,29.6606,-3.11501,0.18174,0.70338
637.213,29.76588,-3.1164,0.17775,0.70101
640.413,29.87169,-3.11618,0.17771,0.69863
643.613,29.9771,-3.11477,0.17139,0.69626
646.813,30.08268,-3.11346,0.16958,0.69388
650.013,30.1882,-3.12353,0.17461,0.6915
653.213,30.29382,-3.12767,0.17377,0.68912
656.413,30.3994,-3.12901,0.17332,0.68673
659.613,30.5051,-3.13318,0.17002,0.68435
662.813,30.61032,-3.12912,0.16658,0.68196
666.013,30.71626,-3.12794,0.16255,0.67957
669.213,30.82181,-3.13432,0.15974,0.67718
672.413,30.9276,-3.13737,0.15994,0.67479
675.613,31.03357,-3.13889,0.15294,0.6724
678.813,31.1394,-3.14152,0.15344,0.67
682.013,31.24519,-3.14283,0.14979,0.66761
685.213,31.35105,-3.14283,0.14583,0.66521
688.413,31.45696,-3.14152,0.14256,0.66281
691.613,31.5629,-3.14282,0.13379,0.66041
694.813,31.6687,-3.14152,0.13012,0.65801
698.013,31.7747,-3.14289,0.12971,0.65561
701.213,31.88073,-3.14852,0.12766,0.65321
704.413,31.98681,-3.15238,0.12084,0.6508
707.613,32.093,-3.15023,0.12224,0.64839
710.813,32.19925,-3.1504,0.11204,0.64599
714.013,32.30546,-3.14407,0.10578,0.64358
717.213,32.41168,-3.14656,0.09884077,0.64117
720.413,32.518,-3.15229,0.09497856,0.63876
723.613,32.6243,-3.15419,0.08728908,0.63635
726.813,32.73016,-3.14863,0.0778476,0.63393
730.013,32.83728,-3.14744,0.07582783,0.63152
733.213,32.9439,-3.15548,0.07018593,0.62911
736.413,33.05062,-3.16016,0.06916993,0.62669
739.613,33.15722,-3.16543,0.06216121,0.62428
742.813,33.26382,-3.16545,0.05262275,0.62186
746.013,33.37053,-3.16874,0.0504976,0.61944
749.213,33.47736,-3.16283,0.0458448,0.61702
752.413,33.5841,-3.16346,0.04723621,0.6146
755.613,33.6908,-3.16479,0.04084111,0.61219
758.813,33.7975,-3.16828,0.03808132,0.60977
762.013,33.90428,-3.17014,0.03415646,0.60734
765.213,34.0111,-3.17011,0.03574452,0.60492
768.413,34.11788,-3.17013,0.03174735,0.6025
771.613,34.2248,-3.16883,0.0259705,0.60008
774.813,34.33163,-3.17454,0.02493983,0.59766
778.013,34.43867,-3.17476,0.02295533,0.59523
781.213,34.54541,-3.17607,0.0157414,0.59281
784.413,34.65283,-3.17311,0.01569304,0.59039
787.613,34.76007,-3.174,0.01471952,0.58796
790.813,34.86739,-3.17474,0.01418872,0.58554
794.013,34.97465,-3.17453,0.01464567,0.58312
794.713,34.9981,-3.17453,0.01047169,0.58259

File: Particleboard_STA_N2_30KData_220420_R2.csv
##Temp./Â°C,Time/min,Mass loss(subtr.2)/mg,DSC(subtr.2)/(mW/mg),Sensit./(uV/mW)
48.42,10.00667,0.0329,0.01245006,1.07509
51.52,10.8736,0.03486443,0.17694,1.07372
54.62,11.1028,0.03729933,0.29124,1.07234
57.72,11.2799,0.03608986,0.38257,1.07095
60.82,11.43142,0.03646139,0.46032,1.06955
63.92,11.56867,0.03512103,0.52893,1.06814
67.02,11.6972,0.03758504,0.58626,1.06672
70.12,11.81982,0.03796719,0.6418,1.06529
73.22,11.93829,0.03746358,0.68774,1.06384
76.32,12.05311,0.03762004,0.73208,1.06239
79.42,12.16612,0.03613178,0.7723,1.06093
82.52,12.27702,0.03754168,0.81153,1.05946
85.62,12.38602,0.03675605,0.8453,1.05797
88.72,12.49348,0.03508143,0.87912,1.05648
91.82,12.60018,0.03540505,0.90883,1.05498
94.92,12.70612,0.03571778,0.93691,1.05346
98.02,12.81133,0.03504059,0.95919,1.05194
101.12,12.91602,0.03255578,0.97778,1.05041
104.22,13.0206,0.03366849,0.99476,1.04887
107.32,13.12456,0.03240126,1.00328,1.04732
110.42,13.2284,0.02976483,1.01083,1.04576
113.52,13.33185,0.03104,1.01317,1.04419
116.62,13.4354,0.0297199,1.01348,1.04262
119.72,13.53822,0.02841004,1.01236,1.04103
122.82,13.64073,0.02709744,1.01027,1.03944
125.92,13.7427,0.02709,1.01048,1.03783
129.02,13.8445,0.02840086,1.0123,1.03622
132.12,13.9457,0.02709497,1.0139,1.0346
135.22,14.0463,0.02808001,1.0207,1.03297
138.32,14.1464,0.02711256,1.03197,1.03133
141.42,14.2459,0.02708793,1.04313,1.02969
144.52,14.3455,0.02606227,1.05113,1.02803
147.62,14.4445,0.02742,1.0662,1.02637
150.72,14.54304,0.02742001,1.07967,1.0247
153.82,14.64131,0.02709,1.09439,1.02302
156.92,14.73956,0.02577011,1.11418,1.02134
160.02,14.8371,0.02442123,1.13025,1.01964
163.12,14.9344,0.02578,1.14911,1.01794
166.22,15.0319,0.02479183,1.17099,1.01623
169.32,15.129,0.0244593,1.1935,1.01451
172.42,15.2258,0.02313695,1.2205,1.01279
175.52,15.32262,0.02183,1.25148,1.01106
178.62,15.41925,0.02183,1.28904,1.00932
181.72,15.5153,0.01985145,1.3302,1.00757
184.82,15.61116,0.01793878,1.36907,1.00582
187.92,15.7068,0.01656009,1.41632,1.00406
191.02,15.802,0.0137924,1.46175,1.00229
194.12,15.89729,0.01040428,1.51011,1.00052
197.22,15.99226,0.008855078,1.56247,0.99874
200.32,16.08718,0.004820807,1.6137,0.99695
203.42,16.18196,0.00286211,1.66935,0.99516
206.52,16.27671,-0.001888713,1.72313,0.99335
209.62,16.3714,-0.00902763,1.77632,0.99155
212.72,16.46568,-0.01424606,1.82517,0.98973
215.82,16.56022,-0.01979239,1.87207,0.98791
218.92,16.6545,-0.02656663,1.91088,0.98609
222.02,16.7487,-0.03301765,1.94257,0.98425
225.12,16.84275,-0.03861258,1.96737,0.98241
228.22,16.9366,-0.04546094,1.98544,0.98057
231.32,17.03068,-0.05365199,1.99384,0.97872
234.42,17.12441,-0.06285369,2.00036,0.97686
237.52,17.21819,-0.07156489,2.00302,0.97499
240.62,17.31185,-0.08127457,2.00406,0.97312
243.72,17.40557,-0.08975732,2.00645,0.97125
246.82,17.4989,-0.10117,2.00314,0.96937
249.92,17.59256,-0.11136,1.99793,0.96748
253.02,17.68581,-0.12264,1.98958,0.96559
256.12,17.7791,-0.13681,1.97927,0.96369
259.22,17.87236,-0.15081,1.97085,0.96179
262.32,17.9657,-0.16328,1.9646,0.95988
265.42,18.05888,-0.17864,1.95904,0.95796
268.52,18.15229,-0.19601,1.94918,0.95604
271.62,18.24563,-0.21325,1.94085,0.95412
274.72,18.3387,-0.23039,1.93007,0.95219
277.82,18.43185,-0.25066,1.91175,0.95025
280.92,18.52518,-0.27096,1.89346,0.94831
284.02,18.61861,-0.295,1.86613,0.94637
287.12,18.7118,-0.32079,1.83011,0.94442
290.22,18.80506,-0.3472,1.78668,0.94246
293.32,18.89834,-0.37802,1.73417,0.9405
296.42,18.99169,-0.40873,1.67288,0.93853
299.52,19.08492,-0.44144,1.60839,0.93656
302.62,19.17809,-0.47514,1.5432,0.93459
305.72,19.2714,-0.51574,1.48038,0.93261
308.82,19.36443,-0.55596,1.42314,0.93062
311.92,19.45788,-0.59778,1.3734,0.92864
315.02,19.55114,-0.64224,1.33485,0.92664
318.12,19.64454,-0.68909,1.30187,0.92464
321.22,19.7381,-0.7405,1.27758,0.92264
324.32,19.83166,-0.79379,1.25642,0.92063
327.42,19.92523,-0.85105,1.24407,0.91862
330.52,20.019,-0.90907,1.22983,0.91661
333.62,20.11298,-0.97325,1.22547,0.91459
336.72,20.2072,-1.04037,1.21553,0.91256
339.82,20.3013,-1.11165,1.2135,0.91053
342.92,20.39561,-1.18645,1.21379,0.9085
346.02,20.4902,-1.26595,1.21229,0.90646
349.12,20.5843,-1.35175,1.21319,0.90442
352.22,20.67943,-1.44507,1.20686,0.90238
355.32,20.77432,-1.54037,1.20514,0.90033
358.42,20.8692,-1.6385,1.19204,0.89828
361.52,20.96424,-1.73931,1.16132,0.89622
364.62,21.05922,-1.84066,1.11831,0.89416
367.72,21.15448,-1.93858,1.06005,0.89209
370.82,21.2497,-2.03476,0.99229,0.89002
373.92,21.34504,-2.12592,0.90683,0.88795
377.02,21.4402,-2.2033,0.8185,0.88588
380.12,21.53582,-2.27709,0.73296,0.8838
383.22,21.63135,-2.33425,0.65437,0.88171
386.32,21.7269,-2.38039,0.58805,0.87963
389.42,21.8226,-2.41624,0.52434,0.87753
392.52,21.91851,-2.44572,0.47686,0.87544
395.62,22.0146,-2.46865,0.43148,0.87334
398.72,22.1107,-2.48679,0.39668,0.87124
401.82,22.20692,-2.50112,0.36272,0.86914
404.92,22.3033,-2.51441,0.33139,0.86703
408.02,22.3996,-2.52636,0.3037,0.86491
411.12,22.49615,-2.53765,0.28121,0.8628
414.22,22.59296,-2.54928,0.25658,0.86068
417.32,22.68962,-2.55959,0.2385,0.85856
420.42,22.7863,-2.57057,0.22156,0.85643
423.52,22.88328,-2.58159,0.20488,0.8543
426.62,22.9803,-2.59222,0.19492,0.85217
429.72,23.07745,-2.60104,0.1871,0.85004
432.82,23.17445,-2.61268,0.18253,0.8479
435.92,23.27143,-2.62238,0.18318,0.84576
439.02,23.36882,-2.63258,0.19277,0.84361
442.12,23.46634,-2.64264,0.19843,0.84146
445.22,23.56383,-2.65073,0.21375,0.83931
448.32,23.662,-2.65965,0.22586,0.83716
451.42,23.75984,-2.66909,0.24369,0.835
454.52,23.85775,-2.67672,0.26305,0.83284
457.62,23.95561,-2.68608,0.28458,0.83068
460.72,24.05371,-2.69215,0.29927,0.82851
463.82,24.15179,-2.69901,0.3165,0.82634
466.92,24.25005,-2.70693,0.3353,0.82417
470.02,24.34858,-2.71422,0.35096,0.822
473.12,24.44718,-2.72027,0.36539,0.81982
476.22,24.54569,-2.72797,0.38,0.81764
479.32,24.64435,-2.73359,0.39363,0.81546
482.42,24.74318,-2.73793,0.40165,0.81327
485.52,24.8419,-2.74449,0.41184,0.81108
488.62,24.9407,-2.75102,0.41589,0.80889
491.72,25.0396,-2.75674,0.42258,0.80669
494.82,25.1385,-2.76166,0.42883,0.8045
497.92,25.2374,-2.76609,0.43335,0.8023
501.02,25.33681,-2.77215,0.43401,0.80009
504.12,25.4361,-2.77602,0.4391,0.79789
507.22,25.5353,-2.77875,0.44259,0.79568
510.32,25.6346,-2.78408,0.44543,0.79347
513.42,25.73405,-2.78991,0.44407,0.79126
516.52,25.8336,-2.79184,0.44638,0.78904
519.62,25.93313,-2.79567,0.45029,0.78682
522.72,26.03276,-2.79984,0.45208,0.7846
525.82,26.13254,-2.80455,0.45377,0.78238
528.92,26.2325,-2.80738,0.45326,0.78015
532.02,26.33213,-2.81039,0.45532,0.77793
535.12,26.43223,-2.81453,0.45927,0.77569
538.22,26.53241,-2.81773,0.45784,0.77346
541.32,26.6326,-2.82057,0.46129,0.77123
544.42,26.73263,-2.82434,0.46191,0.76899
547.52,26.833,-2.82749,0.46759,0.76675
550.62,26.9334,-2.83166,0.46924,0.76451
553.72,27.03374,-2.83572,0.47543,0.76226
556.82,27.13428,-2.83714,0.48363,0.76001
559.92,27.235,-2.8385,0.48481,0.75776
563.02,27.33545,-2.84126,0.49174,0.75551
566.12,27.43623,-2.84443,0.49532,0.75326
569.22,27.53711,-2.8491,0.50013,0.751
572.32,27.6379,-2.85173,0.50191,0.74874
575.42,27.73885,-2.8543,0.50524,0.74648
578.52,27.83982,-2.85567,0.50464,0.74422
581.62,27.9409,-2.85872,0.50823,0.74196
584.72,28.042,-2.86091,0.50851,0.73969
587.82,28.1431,-2.86456,0.50497,0.73742
590.92,28.24427,-2.865,0.50324,0.73515
594.02,28.3457,-2.86773,0.50064,0.73288
597.12,28.447,-2.87038,0.49704,0.7306
600.22,28.5485,-2.87313,0.48784,0.72833
603.32,28.64992,-2.87422,0.48435,0.72605
606.42,28.75139,-2.87719,0.47528,0.72377
609.52,28.8529,-2.8801,0.47099,0.72148
612.62,28.9547,-2.88329,0.46666,0.7192
615.72,29.0564,-2.88513,0.4617,0.71691
618.82,29.158,-2.8865,0.45494,0.71462
621.92,29.25992,-2.88913,0.44881,0.71233
625.02,29.36195,-2.88911,0.44738,0.71004
628.12,29.46347,-2.89045,0.4421,0.70775
631.22,29.56536,-2.89308,0.43596,0.70545
634.32,29.66732,-2.89308,0.42915,0.70315
637.42,29.76955,-2.89595,0.43048,0.70085
640.52,29.87176,-2.89856,0.42351,0.69855
643.62,29.9738,-2.89988,0.42162,0.69625
646.72,30.0761,-2.9012,0.41593,0.69395
649.82,30.1783,-2.90251,0.4111,0.69164
652.92,30.28074,-2.90487,0.40611,0.68933
656.02,30.3832,-2.90646,0.40262,0.68703
659.12,30.4856,-2.90653,0.39984,0.68472
662.22,30.5881,-2.90914,0.39426,0.6824
665.32,30.6908,-2.9091,0.39254,0.68009
668.42,30.7931,-2.91042,0.38757,0.67778
671.52,30.89593,-2.91192,0.38157,0.67546
674.62,30.99827,-2.91436,0.38075,0.67314
677.72,31.1009,-2.91571,0.3731,0.67082
680.82,31.2035,-2.917,0.36849,0.6685
683.92,31.306,-2.91831,0.36273,0.66618
687.02,31.4086,-2.91976,0.36018,0.66386
690.12,31.5111,-2.91985,0.35006,0.66153
693.22,31.61373,-2.92094,0.34781,0.65921
696.32,31.7163,-2.92228,0.34401,0.65688
699.42,31.8189,-2.92227,0.34342,0.65455
702.52,31.92138,-2.92365,0.33719,0.65222
705.62,32.02415,-2.9239,0.33424,0.64989
708.72,32.12699,-2.92522,0.33474,0.64756
711.82,32.2298,-2.92785,0.32657,0.64523
714.92,32.33252,-2.92883,0.32442,0.6429
718.02,32.43545,-2.92975,0.31627,0.64056
721.12,32.5383,-2.93142,0.31277,0.63823
724.22,32.64135,-2.93423,0.30738,0.63589
727.32,32.7447,-2.93422,0.30624,0.63355
730.42,32.84766,-2.93422,0.29768,0.63121
733.52,32.95078,-2.93436,0.2946,0.62888
736.62,33.05403,-2.93553,0.29949,0.62654
739.72,33.1572,-2.93586,0.29295,0.6242
742.82,33.26047,-2.93684,0.29218,0.62185
745.92,33.36368,-2.93816,0.28705,0.61951
749.02,33.46691,-2.93948,0.2862,0.61717
752.12,33.57036,-2.94079,0.27743,0.61483
755.22,33.6738,-2.94179,0.28219,0.61248
758.32,33.7772,-2.942,0.27639,0.61014
761.42,33.88061,-2.94212,0.26772,0.60779
764.52,33.98424,-2.9431,0.26536,0.60545
767.62,34.08769,-2.94311,0.25994,0.6031
770.72,34.19154,-2.94343,0.24982,0.60076
773.82,34.295,-2.94342,0.24491,0.59841
776.92,34.39906,-2.94606,0.23571,0.59606
780.02,34.503,-2.94743,0.23278,0.59371
783.12,34.6069,-2.94607,0.22898,0.59137
786.22,34.71078,-2.94836,0.22552,0.58902
789.32,34.8148,-2.94902,0.22552,0.58667
792.42,34.9189,-2.94903,0.22267,0.58432
794.82,34.99921,-2.94936,0.21929,0.58251