Folder: fsri_materials_database/01_Data/Particleboard/STA/N2/3K_min

Note: 01_Data/README.md
# Materials and Products Database
## 01_Data

Raw data generated from each apparatus are included here in plain-text format. The data is organized first by material, next by the short name of test apparatus used, and where applicable additional filtering by test settings.

### material.json

Each material directory contains a json file of the same name as the material. This file links the data stored in the repository as well as data and graphs produced by the accompanying scripts (__02_Scripts__) to the respective landing page for the material on the front-end website.

File: Particleboard_STA_N2_3KData_220418_R1.csv
##Temp./Â°C,Time/min,Mass loss(subtr.2)/mg,DSC(subtr.2)/(mW/mg),Sensit./(uV/mW)
50.308,10.0158,-0.00461,0.01517862,1.0503
53.608,12.34613,-0.006371149,0.06989115,1.04971
56.908,13.586,-0.00373148,0.07804291,1.0491
60.208,14.76351,-0.003159813,0.08442039,1.04848
63.508,15.9002,-0.00734765,0.09284903,1.04783
66.808,17.02432,-0.008523213,0.09488957,1.04717
70.108,18.13344,-0.008623094,0.09603278,1.0465
73.408,19.2397,-0.009331301,0.0972947,1.0458
76.708,20.3433,-0.01064,0.09452137,1.04509
80.008,21.44934,-0.01162969,0.09521365,1.04436
83.308,22.55143,-0.01195995,0.09346867,1.04362
86.608,23.65096,-0.01162995,0.0901592,1.04285
89.908,24.75074,-0.01064892,0.08796883,1.04207
93.208,25.84443,-0.01295647,0.08747679,1.04127
96.508,26.94009,-0.01034385,0.0822865,1.04046
99.808,28.03384,-0.01030919,0.08478008,1.03963
103.108,29.12592,-0.01227038,0.08495625,1.03878
106.408,30.2109,-0.009327906,0.08502991,1.03791
109.708,31.30268,-0.01165108,0.08780282,1.03703
113.008,32.39516,-0.01293333,0.08620621,1.03612
116.308,33.4878,-0.0152352,0.08838055,1.03521
119.608,34.5769,-0.0152498,0.0868785,1.03427
122.908,35.66505,-0.01624246,0.08767697,1.03332
126.208,36.75018,-0.01488469,0.09015949,1.03235
129.508,37.8358,-0.01623704,0.0885497,1.03136
132.808,38.9201,-0.01589931,0.09329067,1.03035
136.108,40.0041,-0.01590981,0.09499108,1.02933
139.408,41.08553,-0.01196213,0.09993403,1.02829
142.708,42.16973,-0.0093414,0.09918714,1.02724
146.008,43.25,-0.01052478,0.1009,1.02616
149.308,44.32869,-0.01257112,0.10343,1.02507
152.608,45.40549,-0.01839195,0.10939,1.02397
155.908,46.47977,-0.02400882,0.11644,1.02284
159.208,47.55924,-0.02697922,0.11848,1.0217
162.508,48.6383,-0.02764358,0.12322,1.02054
165.808,49.71575,-0.03158556,0.132,1.01937
169.108,50.79018,-0.03464295,0.13712,1.01817
172.408,51.86407,-0.03684965,0.14455,1.01696
175.708,52.94229,-0.04112709,0.1512,1.01574
179.008,54.0162,-0.05057688,0.1562,1.01449
182.308,55.08869,-0.05670777,0.16197,1.01323
185.608,56.16111,-0.06263085,0.16581,1.01195
188.908,57.2371,-0.06922384,0.16921,1.01066
192.208,58.3084,-0.07525608,0.16962,1.00935
195.508,59.376,-0.0849737,0.16995,1.00802
198.808,60.44786,-0.09349441,0.16738,1.00668
202.108,61.52092,-0.10344,0.16936,1.00531
205.408,62.59771,-0.11145,0.16324,1.00394
208.708,63.66888,-0.11836,0.16538,1.00254
212.008,64.7368,-0.12788,0.16166,1.00113
215.308,65.80731,-0.13978,0.16493,0.9997
218.608,66.87904,-0.1517,0.16589,0.99826
221.908,67.94663,-0.16617,0.1669,0.99679
225.208,69.01809,-0.18329,0.16936,0.99532
228.508,70.08641,-0.19777,0.17003,0.99382
231.808,71.15764,-0.21219,0.16981,0.99231
235.108,72.2284,-0.22922,0.16826,0.99078
238.408,73.29853,-0.24777,0.17088,0.98924
241.708,74.3684,-0.26696,0.16592,0.98768
245.008,75.43773,-0.29058,0.16825,0.9861
248.308,76.50534,-0.31493,0.17056,0.98451
251.608,77.57676,-0.34346,0.16591,0.9829
254.908,78.64979,-0.37539,0.16771,0.98127
258.208,79.71162,-0.40769,0.16632,0.97963
261.508,80.78366,-0.44574,0.16331,0.97797
264.808,81.85449,-0.48596,0.15558,0.9763
268.108,82.93176,-0.5302,0.14223,0.97461
271.408,83.99882,-0.57878,0.13634,0.9729
274.708,85.06691,-0.63125,0.13184,0.97118
278.008,86.13585,-0.68532,0.12516,0.96944
281.308,87.214,-0.7457,0.12212,0.96769
284.608,88.2846,-0.80865,0.1239,0.96592
287.908,89.35337,-0.87663,0.1255,0.96413
291.208,90.42793,-0.94867,0.12565,0.96233
294.508,91.4996,-1.02887,0.12886,0.96052
297.808,92.57349,-1.11099,0.1316,0.95868
301.108,93.6477,-1.20313,0.13695,0.95684
304.408,94.727,-1.29988,0.13856,0.95497
307.708,95.79691,-1.40434,0.14148,0.95309
311.008,96.86689,-1.51265,0.14064,0.9512
314.308,97.94488,-1.62747,0.13737,0.94929
317.608,99.02391,-1.74724,0.13524,0.94736
320.908,100.099,-1.86323,0.12928,0.94542
324.208,101.173,-1.97857,0.11944,0.94347
327.508,102.248,-2.08725,0.11071,0.9415
330.808,103.326,-2.18929,0.09780691,0.93951
334.108,104.401,-2.27658,0.08564125,0.93751
337.408,105.4804,-2.34834,0.07470371,0.9355
340.708,106.557,-2.40942,0.06426095,0.93347
344.008,107.636,-2.45341,0.05305146,0.93142
347.308,108.714,-2.49241,0.04531739,0.92936
350.608,109.794,-2.51853,0.03938633,0.92729
353.908,110.8756,-2.54118,0.03475311,0.9252
357.208,111.957,-2.55763,0.02885615,0.9231
360.508,113.038,-2.57416,0.03058727,0.92098
363.808,114.119,-2.58759,0.03215427,0.91885
367.108,115.202,-2.60115,0.02689701,0.9167
370.408,116.285,-2.61767,0.0292729,0.91454
373.708,117.371,-2.62603,0.02819216,0.91237
377.008,118.451,-2.63662,0.02550949,0.91018
380.308,119.536,-2.64955,0.02603409,0.90798
383.608,120.611,-2.66364,0.02619201,0.90576
386.908,121.697,-2.67925,0.02603766,0.90353
390.208,122.7746,-2.6889,0.024027,0.90129
393.508,123.857,-2.70016,0.02360292,0.89903
396.808,124.933,-2.70969,0.026225,0.89676
400.108,126.011,-2.71929,0.02698103,0.89448
403.408,127.092,-2.72924,0.02736408,0.89218
406.708,128.178,-2.74157,0.03095225,0.88987
410.008,129.265,-2.75082,0.03312455,0.88754
413.308,130.354,-2.76133,0.03407621,0.8852
416.608,131.444,-2.77273,0.03857893,0.88285
419.908,132.528,-2.77923,0.03854749,0.88049
423.208,133.6186,-2.78877,0.04265516,0.87811
426.508,134.708,-2.79915,0.04891036,0.87573
429.808,135.796,-2.80644,0.05050628,0.87332
433.108,136.885,-2.81105,0.05060494,0.87091
436.408,137.976,-2.81879,0.05053083,0.86848
439.708,139.0645,-2.82451,0.0523364,0.86604
443.008,140.155,-2.83462,0.05459037,0.86359
446.308,141.248,-2.83976,0.05348557,0.86113
449.608,142.335,-2.84613,0.05564014,0.85865
452.908,143.428,-2.8515,0.06069706,0.85617
456.208,144.5225,-2.8573,0.06177078,0.85367
459.508,145.616,-2.86138,0.0703174,0.85115
462.808,146.712,-2.86566,0.07296932,0.84863
466.108,147.809,-2.87057,0.07315032,0.8461
469.408,148.901,-2.87642,0.07786937,0.84355
472.708,149.999,-2.87849,0.07289743,0.84099
476.008,151.092,-2.88604,0.07509193,0.83842
479.308,152.181,-2.89206,0.07572105,0.83584
482.608,153.278,-2.89703,0.07437064,0.83325
485.908,154.375,-2.89878,0.07444767,0.83065
489.208,155.471,-2.90419,0.0706692,0.82804
492.508,156.5699,-2.90669,0.06274501,0.82541
495.808,157.665,-2.91025,0.06562536,0.82278
499.108,158.76,-2.91226,0.06135294,0.82013
502.408,159.862,-2.92104,0.06435773,0.81748
505.708,160.9664,-2.92469,0.05962996,0.81481
509.008,162.065,-2.92731,0.05806576,0.81214
512.308,163.156,-2.93158,0.05204304,0.80945
515.608,164.26,-2.93619,0.04336191,0.80675
518.908,165.36,-2.93647,0.04173849,0.80405
522.208,166.46,-2.9415,0.0400735,0.80133
525.508,167.5778,-2.94475,0.03524366,0.79861
528.808,168.692,-2.94727,0.03620297,0.79587
532.108,169.788,-2.94825,0.03754344,0.79313
535.408,170.888,-2.94978,0.03595372,0.79038
538.708,171.9934,-2.95307,0.04125935,0.78761
542.008,173.099,-2.95867,0.04272067,0.78484
545.308,174.2,-2.96098,0.04492367,0.78206
548.608,175.292,-2.95891,0.04461467,0.77927
551.908,176.397,-2.96196,0.04417926,0.77647
555.208,177.508,-2.96548,0.03728345,0.77367
558.508,178.615,-2.97166,0.0384367,0.77085
561.808,179.715,-2.97182,0.03676698,0.76803
565.108,180.8187,-2.97462,0.04075957,0.7652
568.408,181.925,-2.9769,0.04163301,0.76236
571.708,183.04,-2.98145,0.04574017,0.75951
575.008,184.1434,-2.9819,0.04916462,0.75666
578.308,185.242,-2.98512,0.04747532,0.7538
581.608,186.347,-2.98547,0.05074994,0.75093
584.908,187.456,-2.9895,0.05546832,0.74805
588.208,188.559,-2.99166,0.05771062,0.74516
591.508,189.665,-2.99222,0.05805998,0.74227
594.808,190.777,-2.99632,0.06502782,0.73937
598.108,191.882,-2.99652,0.06313817,0.73647
601.408,192.987,-3.00186,0.06810122,0.73355
604.708,194.098,-2.998,0.0677561,0.73063
608.008,195.2075,-3.00333,0.06813751,0.72771
611.308,196.311,-3.00472,0.07286451,0.72478
614.608,197.422,-3.00411,0.07445401,0.72184
617.908,198.5281,-3.00881,0.07871475,0.7189
621.208,199.639,-3.00998,0.08655835,0.71594
624.508,200.746,-3.01439,0.08980111,0.71299
627.808,201.857,-3.01432,0.09379023,0.71003
631.108,202.966,-3.02229,0.09555508,0.70706
634.408,204.0723,-3.02005,0.09904994,0.70409
637.708,205.179,-3.01929,0.09606534,0.70111
641.008,206.2963,-3.02364,0.097769,0.69813
644.308,207.407,-3.02344,0.0983122,0.69514
647.608,208.514,-3.02514,0.10116,0.69215
650.908,209.626,-3.02405,0.09819337,0.68915
654.208,210.737,-3.0242,0.09682389,0.68615
657.508,211.847,-3.02785,0.09570142,0.68314
660.808,212.957,-3.02866,0.10092,0.68013
664.108,214.07,-3.03064,0.0970534,0.67711
667.408,215.173,-3.0292,0.10173,0.67409
670.708,216.284,-3.02938,0.10257,0.67107
674.008,217.398,-3.03128,0.10774,0.66805
677.308,218.517,-3.0325,0.11252,0.66501
680.608,219.624,-3.03265,0.1138,0.66198
683.908,220.739,-3.0379,0.1149,0.65894
687.208,221.847,-3.0385,0.12384,0.6559
690.508,222.957,-3.03691,0.12391,0.65286
693.808,224.0721,-3.03471,0.12426,0.64981
697.108,225.183,-3.04284,0.12486,0.64676
700.408,226.298,-3.03872,0.12717,0.64371
703.708,227.417,-3.03798,0.12956,0.64066
707.008,228.532,-3.0416,0.12626,0.6376
710.308,229.649,-3.04521,0.12591,0.63454
713.608,230.769,-3.04187,0.1225,0.63148
716.908,231.875,-3.04209,0.11899,0.62842
720.208,232.99,-3.04491,0.1251,0.62535
723.508,234.108,-3.04356,0.12389,0.62229
726.808,235.223,-3.04368,0.12274,0.61922
730.108,236.344,-3.04805,0.11453,0.61615
733.408,237.459,-3.04924,0.11429,0.61308
736.708,238.57,-3.05113,0.11477,0.61001
740.008,239.687,-3.05093,0.11027,0.60694
743.308,240.808,-3.05384,0.1063,0.60386
746.608,241.925,-3.04926,0.09945836,0.60079
749.908,243.041,-3.05662,0.09754949,0.59772
753.208,244.156,-3.05903,0.09490869,0.59464
756.508,245.273,-3.05806,0.09613056,0.59157
759.808,246.392,-3.0565,0.09708344,0.58849
763.108,247.513,-3.06057,0.09259073,0.58541
766.408,248.633,-3.0609,0.08704853,0.58234
769.708,249.7435,-3.06023,0.09635005,0.57926
773.008,250.862,-3.06206,0.08637094,0.57619
776.308,251.978,-3.06431,0.07898529,0.57312
779.608,253.0966,-3.0577,0.06934986,0.57004
782.908,254.211,-3.06718,0.08079659,0.56697
786.208,255.328,-3.06703,0.07200965,0.5639
789.508,256.451,-3.06975,0.06590173,0.56083
792.808,257.566,-3.06694,0.06602315,0.55776
796.108,258.683,-3.06946,0.05132298,0.55469
799.408,259.7988,-3.07297,0.05257521,0.55163
799.908,259.97,-3.07493,0.0473835,0.55116