Folder: fsri_materials_database/01_Data/Gypsum_Wallboard_Gypsum_Core/STA/N2/10K_min (part 2)

File: Gypsum_Wallboard_Gypsum_Core_STA_N2_10KData_220218_R3.csv
##Temp./Â°C,Time/min,Mass loss(subtr.2)/mg,DSC(subtr.2)/(mW/mg),Sensit./(uV/mW)
49.763,10.00917,-0.02841,-0.00317746,1.07512
53.363,11.37781,-0.03109436,0.0870205,1.07325
56.963,11.86721,-0.03074972,0.12883,1.07137
60.563,12.28934,-0.0330148,0.1574,1.0695
64.163,12.69431,-0.03302634,0.17121,1.06763
67.763,13.08617,-0.03818156,0.18727,1.06576
71.363,13.4724,-0.03415059,0.20047,1.0639
74.963,13.85325,-0.03949942,0.21745,1.06204
78.563,14.2284,-0.04222989,0.24494,1.06017
82.163,14.5999,-0.04621806,0.28132,1.05831
85.763,14.9656,-0.0456838,0.33163,1.05646
89.363,15.3295,-0.05396404,0.40202,1.0546
92.963,15.6945,-0.06318263,0.49937,1.05275
96.563,16.05627,-0.07500696,0.63112,1.0509
100.163,16.4146,-0.08811982,0.79362,1.04905
103.763,16.77294,-0.11098,0.95605,1.0472
107.363,17.1315,-0.13594,1.13983,1.04536
110.963,17.48939,-0.16907,1.43655,1.04351
114.563,17.8495,-0.21692,2.07954,1.04167
118.163,18.21292,-0.28214,2.75598,1.03983
121.763,18.5781,-0.3643,3.29255,1.038
125.363,18.94135,-0.45365,3.31384,1.03616
128.963,19.29586,-0.5288,3.02541,1.03433
132.563,19.64846,-0.60049,3.21744,1.0325
136.163,19.99983,-0.66876,2.72871,1.03067
139.763,20.33683,-0.69092,0.93666,1.02884
143.363,20.66824,-0.69969,0.46033,1.02701
146.963,21.00331,-0.70496,0.32189,1.02518
150.563,21.34081,-0.70485,0.2674,1.02336
154.163,21.6804,-0.70912,0.23801,1.02154
157.763,22.02038,-0.71011,0.22536,1.01971
161.363,22.3615,-0.71303,0.21427,1.01789
164.963,22.7038,-0.71298,0.20555,1.01607
168.563,23.04632,-0.71323,0.20152,1.01426
172.163,23.3889,-0.71538,0.19836,1.01244
175.763,23.7339,-0.71723,0.19218,1.01062
179.363,24.07881,-0.71867,0.18988,1.00881
182.963,24.42321,-0.71944,0.18898,1.00699
186.563,24.76727,-0.72287,0.19065,1.00517
190.163,25.11047,-0.72031,0.18868,1.00336
193.763,25.45378,-0.71933,0.18751,1.00155
197.363,25.7972,-0.72514,0.18996,0.99973
200.963,26.14099,-0.72382,0.1906,0.99792
204.563,26.48495,-0.72415,0.1903,0.99611
208.163,26.82905,-0.72415,0.18818,0.99429
211.763,27.17271,-0.7278,0.19531,0.99248
215.363,27.5164,-0.7258,0.19544,0.99066
218.963,27.8602,-0.72843,0.19323,0.98885
222.563,28.2042,-0.72909,0.19256,0.98703
226.163,28.5483,-0.72602,0.19272,0.98522
229.763,28.8926,-0.7275,0.19432,0.9834
233.363,29.2363,-0.73084,0.19322,0.98158
236.963,29.5798,-0.72991,0.19183,0.97976
240.563,29.9231,-0.73051,0.19318,0.97795
244.163,30.26636,-0.73194,0.19322,0.97612
247.763,30.61073,-0.73293,0.19097,0.9743
251.363,30.95515,-0.73458,0.19105,0.97248
254.963,31.2993,-0.73424,0.18754,0.97065
258.563,31.64343,-0.73392,0.18571,0.96882
262.163,31.9887,-0.73392,0.18385,0.96699
265.763,32.3339,-0.73491,0.1841,0.96516
269.363,32.67905,-0.73622,0.18539,0.96333
272.963,33.02469,-0.73622,0.18675,0.96149
276.563,33.3692,-0.73754,0.18689,0.95965
280.163,33.7138,-0.73591,0.18597,0.95781
283.763,34.0578,-0.73688,0.18806,0.95596
287.363,34.40205,-0.7382,0.18748,0.95411
290.963,34.74649,-0.73951,0.18867,0.95226
294.563,35.09125,-0.73633,0.19096,0.95041
298.163,35.43688,-0.74028,0.1893,0.94855
301.763,35.78367,-0.74141,0.18572,0.94669
305.363,36.1299,-0.73908,0.1861,0.94482
308.963,36.47595,-0.74045,0.18695,0.94295
312.563,36.82079,-0.74135,0.1895,0.94108
316.163,37.16742,-0.74403,0.19078,0.9392
319.763,37.5133,-0.74368,0.18848,0.93732
323.363,37.85824,-0.74401,0.19162,0.93543
326.963,38.20386,-0.74304,0.18705,0.93354
330.563,38.55172,-0.74543,0.18595,0.93164
334.163,38.89842,-0.74434,0.18352,0.92974
337.763,39.24538,-0.74565,0.18033,0.92783
341.363,39.59256,-0.74703,0.17758,0.92592
344.963,39.9403,-0.74697,0.17233,0.924
348.563,40.28829,-0.74928,0.16796,0.92208
352.163,40.63692,-0.74928,0.15843,0.92015
355.763,40.9855,-0.74765,0.15378,0.91821
359.363,41.33384,-0.74905,0.1429,0.91627
362.963,41.68242,-0.75463,0.13264,0.91433
366.563,42.03091,-0.75235,0.11973,0.91237
370.163,42.3803,-0.75366,0.1006,0.91041
373.763,42.72997,-0.74841,0.08101589,0.90844
377.363,43.08055,-0.75537,0.06539373,0.90647
380.963,43.43057,-0.75213,0.05380349,0.90449
384.563,43.7821,-0.75607,0.05147685,0.9025
388.163,44.13557,-0.75476,0.05708862,0.90051
391.763,44.4876,-0.75476,0.07502558,0.8985
395.363,44.8399,-0.75641,0.09313835,0.89649
398.963,45.19222,-0.75607,0.11045,0.89447
402.563,45.54364,-0.75575,0.12798,0.89245
406.163,45.89454,-0.75805,0.14309,0.89041
409.763,46.24689,-0.75673,0.15254,0.88837
413.363,46.59957,-0.75673,0.16082,0.88632
416.963,46.9535,-0.75799,0.1644,0.88426
420.563,47.30703,-0.75969,0.17121,0.88219
424.163,47.6606,-0.76035,0.17462,0.88012
427.763,48.01367,-0.75904,0.17733,0.87803
431.363,48.36679,-0.75838,0.1831,0.87594
434.963,48.7187,-0.75871,0.18516,0.87384
438.563,49.07428,-0.76134,0.18387,0.87173
442.163,49.4288,-0.76068,0.18675,0.8696
445.763,49.78255,-0.76003,0.18623,0.86747
449.363,50.13584,-0.7632,0.19244,0.86533
452.963,50.48963,-0.76189,0.19421,0.86318
456.563,50.84391,-0.75928,0.19395,0.86102
460.163,51.19887,-0.76254,0.19754,0.85885
463.763,51.5548,-0.76188,0.19413,0.85668
467.363,51.91003,-0.76452,0.19343,0.85449
470.963,52.26562,-0.7622,0.19553,0.85229
474.563,52.6213,-0.76616,0.19801,0.85008
478.163,52.9763,-0.76425,0.1988,0.84786
481.763,53.333,-0.76518,0.19406,0.84562
485.363,53.68894,-0.76518,0.19687,0.84338
488.963,54.04504,-0.76682,0.19612,0.84113
492.563,54.40135,-0.76397,0.19482,0.83887
496.163,54.75731,-0.76611,0.19473,0.83659
499.763,55.11375,-0.76412,0.19247,0.83431
503.363,55.4704,-0.76533,0.19159,0.83201
506.963,55.8275,-0.76536,0.1848,0.82971
510.563,56.18459,-0.7666,0.19015,0.82739
514.163,56.5412,-0.76556,0.18797,0.82506
517.763,56.89829,-0.76561,0.18633,0.82272
521.363,57.256,-0.76542,0.18307,0.82037
524.963,57.6135,-0.76796,0.18039,0.818
528.563,57.97075,-0.76958,0.18111,0.81563
532.163,58.3283,-0.76823,0.17825,0.81324
535.763,58.68671,-0.76824,0.17471,0.81084
539.363,59.0445,-0.76951,0.17459,0.80843
542.963,59.40286,-0.77061,0.17519,0.80601
546.563,59.7624,-0.77351,0.17545,0.80358
550.163,60.12098,-0.76957,0.17094,0.80113
553.763,60.4806,-0.76858,0.17233,0.79868
557.363,60.84055,-0.76956,0.16901,0.79621
560.963,61.20081,-0.77088,0.17088,0.79373
564.563,61.56,-0.77356,0.17657,0.79123
568.163,61.9185,-0.77352,0.17702,0.78873
571.763,62.2774,-0.77351,0.18018,0.78621
575.363,62.63677,-0.77323,0.18093,0.78368
578.963,62.99624,-0.77483,0.17644,0.78114
582.563,63.35725,-0.77483,0.17744,0.77859
586.163,63.7183,-0.7768,0.17942,0.77603
589.763,64.079,-0.7768,0.17743,0.77345
593.363,64.4405,-0.77681,0.17348,0.77086
596.963,64.80179,-0.7791,0.17503,0.76826
600.563,65.16405,-0.78008,0.17333,0.76565
604.163,65.5247,-0.78075,0.17299,0.76302
607.763,65.88579,-0.78175,0.17302,0.76038
611.363,66.24636,-0.78398,0.17487,0.75773
614.963,66.60766,-0.78589,0.17935,0.75507
618.563,66.96908,-0.78635,0.18031,0.7524
622.163,67.3308,-0.78898,0.18069,0.74971
625.763,67.69166,-0.7903,0.18247,0.74702
629.363,68.05335,-0.79145,0.17827,0.74431
632.963,68.41484,-0.7965,0.18098,0.74159
636.563,68.77634,-0.79832,0.18536,0.73885
640.163,69.13808,-0.79951,0.19037,0.73611
643.763,69.49954,-0.80081,0.19177,0.73335
647.363,69.86039,-0.80469,0.194,0.73058
650.963,70.22104,-0.80927,0.19719,0.7278
654.563,70.58201,-0.81298,0.20414,0.72501
658.163,70.94331,-0.81519,0.20255,0.72221
661.763,71.30678,-0.8196,0.20308,0.71939
665.363,71.67062,-0.82307,0.20562,0.71656
668.963,72.03366,-0.82835,0.20584,0.71373
672.563,72.39712,-0.83234,0.20244,0.71088
676.163,72.75883,-0.83724,0.20108,0.70802
679.763,73.12143,-0.84251,0.193,0.70515
683.363,73.48419,-0.84776,0.18523,0.70226
686.963,73.84622,-0.85288,0.17031,0.69937
690.563,74.20984,-0.85435,0.16019,0.69646
694.163,74.5739,-0.85995,0.14415,0.69355
697.763,74.93813,-0.86522,0.12477,0.69062
701.363,75.3021,-0.86751,0.09966462,0.68769
704.963,75.66671,-0.87146,0.07230351,0.68474
708.563,76.0307,-0.87367,0.05056297,0.68178
712.163,76.3945,-0.87607,0.0300331,0.67881
715.763,76.7588,-0.8787,0.01375604,0.67583
719.363,77.12235,-0.88001,0.007610625,0.67284
722.963,77.48591,-0.88167,-0.007770253,0.66985
726.563,77.85099,-0.88429,-0.01492752,0.66684
730.163,78.21592,-0.88361,-0.01983797,0.66382
733.763,78.58122,-0.88627,-0.02380357,0.66079
737.363,78.9478,-0.88739,-0.02581541,0.65775
740.963,79.3132,-0.88966,-0.02918049,0.65471
744.563,79.6768,-0.89165,-0.0228848,0.65165
748.163,80.04043,-0.88868,-0.02692429,0.64858
751.763,80.40552,-0.89198,-0.02409053,0.64551
755.363,80.76958,-0.89329,-0.02997125,0.64242
758.963,81.13416,-0.89409,-0.03136084,0.63933
762.563,81.49988,-0.89727,-0.02927163,0.63623
766.163,81.86534,-0.89593,-0.0303808,0.63312
769.763,82.23036,-0.89857,-0.03130877,0.63
773.363,82.5955,-0.89944,-0.03247531,0.62688
776.963,82.9612,-0.89983,-0.0355336,0.62374
780.563,83.32591,-0.90382,-0.03164508,0.6206
784.163,83.6906,-0.90613,-0.03585394,0.61745
787.763,84.05604,-0.90876,-0.03370654,0.61429
791.363,84.42226,-0.90875,-0.03568327,0.61113
794.963,84.78715,-0.91307,-0.03282642,0.60796
798.563,85.15167,-0.9139,-0.03664237,0.60478
802.163,85.51621,-0.91693,-0.0385905,0.60159
805.763,85.8809,-0.91881,-0.03858953,0.5984
809.363,86.24707,-0.92224,-0.03583276,0.5952
812.963,86.61384,-0.92489,-0.04212145,0.59199
816.563,86.98031,-0.92751,-0.05009628,0.58878
820.163,87.34669,-0.92957,-0.05271344,0.58556
823.763,87.71334,-0.93278,-0.06670955,0.58234
827.363,88.07943,-0.9341,-0.07271836,0.57911
830.963,88.44718,-0.93792,-0.07982439,0.57588
834.563,88.81492,-0.93695,-0.0893594,0.57263
838.163,89.18183,-0.9433,-0.10623,0.56939
841.763,89.54818,-0.94331,-0.12605,0.56614
845.363,89.91473,-0.94294,-0.13523,0.56288
848.963,90.28171,-0.94582,-0.14124,0.55962
852.563,90.64757,-0.94759,-0.14608,0.55636
856.163,91.01422,-0.94627,-0.15389,0.55309
859.763,91.38074,-0.94792,-0.15597,0.54982
863.363,91.74852,-0.9489,-0.16025,0.54654
866.963,92.11502,-0.95055,-0.15891,0.54326
870.563,92.48062,-0.95121,-0.16552,0.53998
874.163,92.84746,-0.95251,-0.16951,0.53669
877.763,93.21455,-0.95252,-0.18067,0.5334
881.363,93.58219,-0.95121,-0.18163,0.53011
884.963,93.94972,-0.95318,-0.19139,0.52682
888.563,94.31727,-0.95417,-0.19226,0.52352
892.163,94.6843,-0.95449,-0.20193,0.52022
895.163,94.98968,-0.95514,-0.21204,0.51747