Folder: fsri_materials_database/01_Data/Gypsum_Wallboard_Gypsum_Core/STA/N2/10K_min

Note: 01_Data/README.md
# Materials and Products Database
## 01_Data

Raw data generated from each apparatus are included here in plain-text format. The data is organized first by material, next by the short name of test apparatus used, and where applicable additional filtering by test settings.

### material.json

Each material directory contains a json file of the same name as the material. This file links the data stored in the repository as well as data and graphs produced by the accompanying scripts (__02_Scripts__) to the respective landing page for the material on the front-end website.

File: Gypsum_Wallboard_Gypsum_Core_STA_N2_10KData_220218_R1.csv
##Temp./Â°C,Time/min,Mass loss(subtr.2)/mg,DSC(subtr.2)/(mW/mg),Sensit./(uV/mW)
49.614,10.01,0.01887,0.01291763,1.0752
52.614,11.28482,0.02120477,0.10739,1.07364
55.614,11.72004,0.0202899,0.15032,1.07208
58.614,12.0863,0.01747082,0.17897,1.07051
61.614,12.4309,0.01413779,0.19976,1.06896
64.614,12.7621,0.01561545,0.21713,1.0674
67.614,13.08809,0.0171317,0.23321,1.06584
70.614,13.40939,0.01612807,0.2495,1.06429
73.614,13.72758,0.01347806,0.26485,1.06273
76.614,14.04222,0.0069568,0.27859,1.06118
79.614,14.3546,0.01361433,0.29256,1.05963
82.614,14.66395,0.01044331,0.31322,1.05808
85.614,14.9707,0.007305737,0.34692,1.05653
88.614,15.2745,0.00466887,0.39301,1.05499
91.614,15.576,0.00560002,0.46044,1.05344
94.614,15.8766,-0.007445628,0.54569,1.0519
97.614,16.17529,-0.02018416,0.65867,1.05036
100.614,16.47426,-0.02725813,0.79105,1.04882
103.614,16.7717,-0.03513437,0.91303,1.04728
106.614,17.0697,-0.05359323,1.04188,1.04574
109.614,17.36703,-0.08259197,1.21828,1.0442
112.614,17.6658,-0.10903,1.78528,1.04267
115.614,17.9673,-0.15308,2.37706,1.04114
118.614,18.27166,-0.21122,2.98898,1.0396
121.614,18.57672,-0.28424,3.54362,1.03807
124.614,18.8813,-0.36439,3.75756,1.03654
127.614,19.18151,-0.4347,3.23838,1.03501
130.614,19.47468,-0.48974,2.98151,1.03349
133.614,19.76803,-0.54344,3.258,1.03196
136.614,20.06038,-0.60266,3.15104,1.03044
139.614,20.34309,-0.62874,1.37813,1.02891
142.614,20.6197,-0.6357,0.66789,1.02739
145.614,20.89633,-0.63931,0.44447,1.02587
148.614,21.17602,-0.64513,0.35617,1.02435
151.614,21.4585,-0.6514,0.3136,1.02283
154.614,21.7411,-0.64782,0.28581,1.02131
157.614,22.02494,-0.65509,0.26858,1.01979
160.614,22.31035,-0.6523,0.2582,1.01827
163.614,22.59522,-0.6593,0.25117,1.01676
166.614,22.88168,-0.6591,0.24553,1.01524
169.614,23.16756,-0.65767,0.24054,1.01372
172.614,23.45402,-0.6486,0.23356,1.01221
175.614,23.74004,-0.6569,0.23116,1.0107
178.614,24.02635,-0.66089,0.23002,1.00918
181.614,24.31215,-0.66075,0.22702,1.00767
184.614,24.59818,-0.66117,0.22608,1.00616
187.614,24.8831,-0.66273,0.22502,1.00465
190.614,25.16848,-0.66327,0.22437,1.00313
193.614,25.45399,-0.66109,0.22194,1.00162
196.614,25.73966,-0.65768,0.22005,1.00011
199.614,26.02532,-0.66316,0.21687,0.9986
202.614,26.3117,-0.6619,0.21896,0.99709
205.614,26.59828,-0.66586,0.21742,0.99558
208.614,26.88438,-0.65858,0.21616,0.99406
211.614,27.17013,-0.66382,0.2187,0.99255
214.614,27.4564,-0.66516,0.21693,0.99104
217.614,27.74223,-0.66956,0.21521,0.98953
220.614,28.02938,-0.6636,0.21213,0.98802
223.614,28.31601,-0.66524,0.21147,0.9865
226.614,28.6024,-0.67127,0.20837,0.98499
229.614,28.88895,-0.66311,0.20759,0.98348
232.614,29.17522,-0.6626,0.20886,0.98196
235.614,29.4609,-0.67017,0.20822,0.98045
238.614,29.74656,-0.66809,0.20816,0.97893
241.614,30.03175,-0.66386,0.20746,0.97741
244.614,30.316,-0.67033,0.20835,0.9759
247.614,30.6029,-0.66733,0.20795,0.97438
250.614,30.88901,-0.67005,0.20232,0.97286
253.614,31.17616,-0.66871,0.20334,0.97133
256.614,31.46326,-0.66992,0.2001,0.96981
259.614,31.75,-0.67127,0.19826,0.96829
262.614,32.03718,-0.66174,0.19648,0.96676
265.614,32.32353,-0.6737,0.19885,0.96524
268.614,32.61011,-0.66787,0.19821,0.96371
271.614,32.896,-0.66908,0.19917,0.96218
274.614,33.18257,-0.66868,0.20376,0.96065
277.614,33.46911,-0.67346,0.20224,0.95911
280.614,33.75533,-0.67083,0.20072,0.95758
283.614,34.04238,-0.67002,0.19908,0.95604
286.614,34.33025,-0.66459,0.19671,0.9545
289.614,34.61796,-0.6743,0.19679,0.95296
292.614,34.9067,-0.671,0.19357,0.95141
295.614,35.1952,-0.66728,0.18881,0.94986
298.614,35.48392,-0.66733,0.18999,0.94832
301.614,35.7718,-0.67261,0.19167,0.94676
304.614,36.05988,-0.67599,0.19326,0.94521
307.614,36.3475,-0.67597,0.19624,0.94365
310.614,36.63579,-0.67687,0.19319,0.94209
313.614,36.92395,-0.67099,0.18952,0.94053
316.614,37.2126,-0.67942,0.19432,0.93896
319.614,37.50203,-0.67223,0.19267,0.93739
322.614,37.79099,-0.67075,0.19024,0.93582
325.614,38.08025,-0.66974,0.18798,0.93425
328.614,38.36907,-0.6806,0.19097,0.93267
331.614,38.6576,-0.67348,0.19054,0.93109
334.614,38.94724,-0.67667,0.18954,0.9295
337.614,39.23706,-0.67719,0.18812,0.92791
340.614,39.52753,-0.67761,0.18472,0.92632
343.614,39.81713,-0.67785,0.17942,0.92472
346.614,40.10727,-0.68018,0.17729,0.92312
349.614,40.39739,-0.67393,0.17081,0.92152
352.614,40.68745,-0.67616,0.16431,0.91991
355.614,40.97781,-0.67764,0.15883,0.91829
358.614,41.26658,-0.67839,0.1502,0.91668
361.614,41.55753,-0.68529,0.14156,0.91506
364.614,41.84859,-0.6841,0.13015,0.91343
367.614,42.13967,-0.67994,0.11247,0.9118
370.614,42.43088,-0.67531,0.09888296,0.91016
373.614,42.72292,-0.68308,0.08238476,0.90853
376.614,43.01657,-0.67874,0.06378153,0.90688
379.614,43.3086,-0.68082,0.04751405,0.90523
382.614,43.60095,-0.68309,0.03558439,0.90358
385.614,43.89328,-0.68543,0.0287731,0.90192
388.614,44.18522,-0.68422,0.03010523,0.90025
391.614,44.4782,-0.68718,0.04356372,0.89859
394.614,44.77111,-0.67775,0.05603558,0.89691
397.614,45.06426,-0.68761,0.07568361,0.89523
400.614,45.35722,-0.68083,0.08932294,0.89355
403.614,45.65041,-0.68674,0.10758,0.89185
406.614,45.94451,-0.68406,0.12134,0.89016
409.614,46.23778,-0.68899,0.13546,0.88846
412.614,46.5314,-0.69398,0.14275,0.88675
415.614,46.82547,-0.67556,0.14916,0.88503
418.614,47.11919,-0.68544,0.15377,0.88332
421.614,47.41444,-0.68672,0.15823,0.88159
424.614,47.70836,-0.68017,0.16409,0.87986
427.614,48.0032,-0.68667,0.17127,0.87812
430.614,48.29745,-0.68707,0.17137,0.87638
433.614,48.59214,-0.68806,0.1784,0.87463
436.614,48.8872,-0.6866,0.17486,0.87287
439.614,49.18176,-0.67803,0.17571,0.87111
442.614,49.47724,-0.68356,0.17872,0.86934
445.614,49.77258,-0.68545,0.18352,0.86756
448.614,50.06805,-0.69045,0.18372,0.86578
451.614,50.36452,-0.6874,0.18497,0.86399
454.614,50.6608,-0.68313,0.18501,0.86219
457.614,50.95694,-0.69254,0.19208,0.86039
460.614,51.25294,-0.67971,0.18923,0.85858
463.614,51.54714,-0.68683,0.19054,0.85677
466.614,51.84458,-0.68597,0.19148,0.85494
469.614,52.1421,-0.68807,0.19028,0.85311
472.614,52.4397,-0.68356,0.19083,0.85127
475.614,52.73624,-0.68203,0.19123,0.84943
478.614,53.0337,-0.69281,0.19329,0.84758
481.614,53.3311,-0.69395,0.1963,0.84572
484.614,53.6281,-0.68703,0.19732,0.84385
487.614,53.92539,-0.67532,0.19126,0.84198
490.614,54.22245,-0.68632,0.19896,0.84009
493.614,54.51948,-0.69383,0.20382,0.83821
496.614,54.8172,-0.68486,0.20218,0.83631
499.614,55.11481,-0.69489,0.20558,0.8344
502.614,55.4127,-0.6863,0.20089,0.83249
505.614,55.711,-0.69678,0.20425,0.83057
508.614,56.00914,-0.69018,0.2,0.82865
511.614,56.3072,-0.68586,0.20122,0.82671
514.614,56.6061,-0.6948,0.20558,0.82477
517.614,56.9046,-0.692,0.20394,0.82282
520.614,57.20304,-0.68713,0.20323,0.82086
523.614,57.50229,-0.69968,0.20608,0.81889
526.614,57.8004,-0.69091,0.20516,0.81692
529.614,58.0984,-0.6852,0.2063,0.81493
532.614,58.3962,-0.68267,0.2075,0.81294
535.614,58.6946,-0.68956,0.20998,0.81094
538.614,58.9924,-0.69878,0.21493,0.80894
541.614,59.29079,-0.69106,0.21104,0.80692
544.614,59.5907,-0.6942,0.21277,0.8049
547.614,59.88941,-0.68727,0.21307,0.80287
550.614,60.18799,-0.69184,0.21081,0.80083
553.614,60.4864,-0.69192,0.21549,0.79878
556.614,60.7847,-0.69313,0.21548,0.79672
559.614,61.08399,-0.69283,0.21838,0.79466
562.614,61.38445,-0.69014,0.22115,0.79259
565.614,61.68467,-0.69177,0.22362,0.7905
568.614,61.98568,-0.69035,0.22332,0.78842
571.614,62.28676,-0.69313,0.22704,0.78632
574.614,62.58701,-0.69475,0.23046,0.78421
577.614,62.8871,-0.68971,0.23206,0.7821
580.614,63.18773,-0.69804,0.23548,0.77997
583.614,63.4873,-0.69443,0.23539,0.77784
586.614,63.78807,-0.69694,0.2381,0.7757
589.614,64.08925,-0.69365,0.24463,0.77356
592.614,64.39013,-0.70154,0.2491,0.7714
595.614,64.6914,-0.70064,0.24621,0.76924
598.614,64.9926,-0.69289,0.25103,0.76706
601.614,65.29371,-0.70166,0.25864,0.76488
604.614,65.59545,-0.7034,0.25888,0.76269
607.614,65.8961,-0.70206,0.26473,0.76049
610.614,66.19754,-0.70537,0.26696,0.75829
613.614,66.49842,-0.70594,0.27044,0.75607
616.614,66.8001,-0.70496,0.27686,0.75385
619.614,67.10138,-0.70725,0.28319,0.75162
622.614,67.4032,-0.71087,0.28634,0.74938
625.614,67.70434,-0.7153,0.29313,0.74713
628.614,68.0061,-0.70594,0.29499,0.74487
631.614,68.3079,-0.71581,0.3062,0.74261
634.614,68.60933,-0.71405,0.30669,0.74033
637.614,68.9111,-0.71663,0.31604,0.73805
640.614,69.21335,-0.72451,0.3269,0.73576
643.614,69.51639,-0.725,0.33083,0.73346
646.614,69.81827,-0.72604,0.33591,0.73116
649.614,70.12042,-0.7271,0.33803,0.72884
652.614,70.4222,-0.72871,0.34756,0.72652
655.614,70.72411,-0.73247,0.35203,0.72419
658.614,71.02625,-0.73669,0.3595,0.72185
661.614,71.32896,-0.73641,0.36258,0.71951
664.614,71.6323,-0.73944,0.37113,0.71715
667.614,71.9353,-0.74878,0.3751,0.71479
670.614,72.23898,-0.74869,0.37662,0.71242
673.614,72.5424,-0.75486,0.37416,0.71004
676.614,72.845,-0.75769,0.37151,0.70766
679.614,73.1473,-0.76287,0.36708,0.70526
682.614,73.4498,-0.7611,0.35975,0.70286
685.614,73.75203,-0.76893,0.35122,0.70046
688.614,74.05449,-0.77175,0.34051,0.69804
691.614,74.35582,-0.77545,0.33595,0.69561
694.614,74.6575,-0.77526,0.32373,0.69318
697.614,74.9602,-0.77966,0.31593,0.69074
700.614,75.26345,-0.78211,0.30127,0.6883
703.614,75.56655,-0.78238,0.2903,0.68584
706.614,75.8697,-0.78314,0.28009,0.68338
709.614,76.17322,-0.79379,0.26701,0.68092
712.614,76.47717,-0.78552,0.25733,0.67844
715.614,76.78154,-0.7936,0.25116,0.67596
718.614,77.08578,-0.78729,0.24784,0.67347
721.614,77.39066,-0.79686,0.24503,0.67097
724.614,77.69451,-0.80069,0.24686,0.66847
727.614,77.9997,-0.79292,0.24423,0.66596
730.614,78.30381,-0.79653,0.24542,0.66344
733.614,78.60744,-0.79759,0.24841,0.66092
736.614,78.9106,-0.80312,0.25607,0.65839
739.614,79.2127,-0.80126,0.25622,0.65585
742.614,79.51546,-0.79577,0.2534,0.6533
745.614,79.81855,-0.80957,0.26289,0.65075
747.314,79.99045,-0.80411,0.26489,0.64931

File: Gypsum_Wallboard_Gypsum_Core_STA_N2_10KData_220218_R2.csv
##Temp./Â°C,Time/min,Mass loss(subtr.2)/mg,DSC(subtr.2)/(mW/mg),Sensit./(uV/mW)
49.47,10.01,-0.02523,0.009531197,1.07528
52.77,11.33194,-0.02706548,0.10336,1.07356
56.07,11.79311,-0.02889817,0.1476,1.07184
59.37,12.18941,-0.03092943,0.17423,1.07012
62.67,12.56316,-0.03109822,0.19224,1.06841
65.97,12.9244,-0.03147804,0.21144,1.06669
69.27,13.28089,-0.03180988,0.226,1.06498
72.57,13.63296,-0.03590093,0.23988,1.06327
75.87,13.9808,-0.03678551,0.25844,1.06157
79.17,14.3232,-0.03795,0.27394,1.05986
82.47,14.66257,-0.04210421,0.29716,1.05816
85.77,14.99915,-0.04744182,0.33512,1.05645
89.07,15.33266,-0.05180413,0.39188,1.05475
92.37,15.66436,-0.05176943,0.47127,1.05305
95.67,15.994,-0.07209814,0.58012,1.05136
98.97,16.3227,-0.0796376,0.71648,1.04966
102.27,16.65016,-0.08873091,0.85681,1.04797
105.57,16.9775,-0.11082,1.00313,1.04628
108.87,17.3053,-0.13546,1.18611,1.04459
112.17,17.6341,-0.16724,1.63027,1.0429
115.47,17.96624,-0.21111,2.2888,1.04121
118.77,18.30027,-0.27229,2.92274,1.03952
122.07,18.6344,-0.358,3.44102,1.03784
125.37,18.96702,-0.43724,3.50082,1.03616
128.67,19.2916,-0.49828,3.0041,1.03448
131.97,19.61345,-0.57346,3.14725,1.0328
135.27,19.9364,-0.6344,3.27375,1.03112
138.57,20.25327,-0.67891,1.81776,1.02944
141.87,20.55819,-0.6907,0.73139,1.02777
145.17,20.86204,-0.69864,0.42359,1.02609
148.47,21.16895,-0.70254,0.31983,1.02442
151.77,21.4784,-0.70042,0.27141,1.02275
155.07,21.78924,-0.70839,0.24509,1.02108
158.37,22.1019,-0.709,0.22619,1.01941
161.67,22.41539,-0.71733,0.21243,1.01774
164.97,22.7298,-0.71855,0.20569,1.01607
168.27,23.0441,-0.71703,0.19937,1.0144
171.57,23.35839,-0.70798,0.19081,1.01274
174.87,23.67312,-0.71833,0.18901,1.01107
178.17,23.98724,-0.71441,0.18037,1.00941
181.47,24.30226,-0.71449,0.17786,1.00774
184.77,24.61727,-0.71728,0.17394,1.00608
188.07,24.93134,-0.72214,0.17464,1.00442
191.37,25.24575,-0.71845,0.16954,1.00275
194.67,25.5606,-0.72382,0.17032,1.00109
197.97,25.87582,-0.7223,0.16697,0.99943
201.27,26.18983,-0.7224,0.16719,0.99776
204.57,26.5034,-0.72634,0.16661,0.9961
207.87,26.81885,-0.7214,0.16243,0.99444
211.17,27.13413,-0.7283,0.16207,0.99278
214.47,27.44855,-0.72305,0.16207,0.99111
217.77,27.7626,-0.7264,0.16146,0.98945
221.07,28.07455,-0.72797,0.15965,0.98779
224.37,28.3905,-0.72942,0.16016,0.98612
227.67,28.705,-0.72996,0.15908,0.98446
230.97,29.0192,-0.73226,0.15619,0.98279
234.27,29.33338,-0.72881,0.15283,0.98113
237.57,29.64811,-0.73114,0.1503,0.97946
240.87,29.9635,-0.72948,0.14832,0.97779
244.17,30.27849,-0.73533,0.14797,0.97612
247.47,30.594,-0.73225,0.1451,0.97445
250.77,30.90839,-0.73144,0.14403,0.97278
254.07,31.2226,-0.73588,0.14511,0.9711
257.37,31.53775,-0.73551,0.14703,0.96943
260.67,31.852,-0.73476,0.1399,0.96775
263.97,32.16695,-0.73574,0.13935,0.96607
267.27,32.48215,-0.73414,0.13797,0.96439
270.57,32.7971,-0.73098,0.13476,0.96271
273.87,33.11244,-0.74161,0.13229,0.96103
277.17,33.4275,-0.7313,0.13093,0.95934
280.47,33.7429,-0.7411,0.1309,0.95765
283.77,34.05748,-0.73774,0.1305,0.95596
287.07,34.3731,-0.7406,0.12919,0.95426
290.37,34.68817,-0.74094,0.1273,0.95257
293.67,35.00393,-0.74082,0.127,0.95087
296.97,35.31994,-0.74115,0.12597,0.94916
300.27,35.63555,-0.74267,0.12362,0.94746
303.57,35.95205,-0.74126,0.12523,0.94575
306.87,36.26882,-0.74455,0.12258,0.94404
310.17,36.58573,-0.74221,0.12315,0.94232
313.47,36.90258,-0.74095,0.12043,0.9406
316.77,37.2194,-0.74674,0.12048,0.93888
320.07,37.5362,-0.74051,0.1187,0.93716
323.37,37.85304,-0.74359,0.12147,0.93543
326.67,38.17071,-0.74884,0.119,0.93369
329.97,38.4889,-0.74544,0.11597,0.93195
333.27,38.8069,-0.74831,0.11372,0.93021
336.57,39.12636,-0.74628,0.10828,0.92846
339.87,39.44525,-0.7498,0.10314,0.92671
343.17,39.76382,-0.74922,0.10488,0.92496
346.47,40.08245,-0.75009,0.09613497,0.9232
349.77,40.40101,-0.75103,0.09264901,0.92143
353.07,40.71983,-0.74869,0.08402247,0.91966
356.37,41.03905,-0.74618,0.07737074,0.91789
359.67,41.3585,-0.74795,0.06451073,0.91611
362.97,41.6783,-0.75052,0.05487384,0.91432
366.27,41.99853,-0.75709,0.04244678,0.91253
369.57,42.3197,-0.74828,0.02238853,0.91073
372.87,42.64117,-0.75311,0.006296591,0.90893
376.17,42.96379,-0.75903,-0.01401028,0.90712
379.47,43.28535,-0.75298,-0.0329924,0.90531
382.77,43.60686,-0.756,-0.04781007,0.90349
386.07,43.92886,-0.74805,-0.05163046,0.90167
389.37,44.24967,-0.76341,-0.04415852,0.89983
392.67,44.57162,-0.75001,-0.03365468,0.898
395.97,44.894,-0.75826,-0.01840689,0.89615
399.27,45.21695,-0.75824,0.0004622781,0.8943
402.57,45.53953,-0.75629,0.007225609,0.89244
405.87,45.86251,-0.75629,0.02483655,0.89058
409.17,46.18572,-0.75889,0.03567479,0.88871
412.47,46.50959,-0.75891,0.04829154,0.88683
415.77,46.83275,-0.75882,0.05822274,0.88495
419.07,47.15483,-0.75392,0.06411591,0.88305
422.37,47.4799,-0.7622,0.07043637,0.88115
425.67,47.80253,-0.76117,0.07605397,0.87925
428.97,48.12553,-0.75771,0.08065991,0.87733
432.27,48.44918,-0.7582,0.07967534,0.87541
435.57,48.77299,-0.76142,0.07995785,0.87348
438.87,49.0977,-0.76165,0.08269551,0.87155
442.17,49.42279,-0.76469,0.08226375,0.8696
445.47,49.74726,-0.76225,0.0854194,0.86765
448.77,50.07195,-0.76418,0.08729585,0.86569
452.07,50.39604,-0.76152,0.08785652,0.86372
455.37,50.72031,-0.75958,0.08774656,0.86174
458.67,51.04486,-0.76113,0.08891903,0.85976
461.97,51.37076,-0.76779,0.08972173,0.85776
465.27,51.69641,-0.76169,0.09042921,0.85576
468.57,52.02275,-0.76477,0.09174688,0.85375
471.87,52.34843,-0.76333,0.08846326,0.85173
475.17,52.674,-0.76781,0.09114857,0.8497
478.47,52.9994,-0.76782,0.0917526,0.84767
481.77,53.32506,-0.76769,0.09273389,0.84562
485.07,53.6503,-0.76638,0.09406411,0.84357
488.37,53.97565,-0.76901,0.09834738,0.8415
491.67,54.3019,-0.76835,0.09514259,0.83943
494.97,54.62855,-0.77065,0.09750784,0.83735
498.27,54.9558,-0.76933,0.0939107,0.83526
501.57,55.2831,-0.76802,0.09024964,0.83316
504.87,55.6104,-0.76933,0.09085547,0.83105
508.17,55.9376,-0.77196,0.09077482,0.82893
511.47,56.2646,-0.77493,0.09093975,0.8268
514.77,56.5914,-0.77326,0.09302827,0.82467
518.07,56.9178,-0.76988,0.09148312,0.82252
521.37,57.24615,-0.77341,0.0934434,0.82036
524.67,57.57396,-0.77549,0.09304804,0.8182
527.97,57.90139,-0.77131,0.08947625,0.81602
531.27,58.2297,-0.77361,0.09147693,0.81384
534.57,58.5589,-0.77705,0.09117763,0.81164
537.87,58.88723,-0.76986,0.09122599,0.80943
541.17,59.2156,-0.77497,0.09078059,0.80722
544.47,59.54563,-0.77967,0.0960688,0.805
547.77,59.87601,-0.77322,0.09438068,0.80276
551.07,60.20616,-0.77151,0.09622788,0.80052
554.37,60.53539,-0.77679,0.09932286,0.79826
557.67,60.8644,-0.77712,0.10064,0.796
560.97,61.1937,-0.77844,0.10269,0.79372
564.27,61.5234,-0.77841,0.10357,0.79144
567.57,61.85455,-0.77844,0.10507,0.78914
570.87,62.1853,-0.77685,0.10796,0.78684
574.17,62.5161,-0.78107,0.10701,0.78452
577.47,62.8466,-0.78116,0.10892,0.7822
580.77,63.17719,-0.78043,0.11171,0.77986
584.07,63.506,-0.78297,0.11633,0.77752
587.37,63.8353,-0.78688,0.12025,0.77516
590.67,64.16499,-0.78382,0.12369,0.7728
593.97,64.495,-0.78643,0.12425,0.77042
597.27,64.82602,-0.78755,0.12832,0.76804
600.57,65.1567,-0.79148,0.12823,0.76564
603.87,65.48828,-0.78996,0.13139,0.76323
607.17,65.81949,-0.78732,0.13069,0.76082
610.47,66.15089,-0.79127,0.13743,0.75839
613.77,66.48216,-0.79318,0.14453,0.75596
617.07,66.81434,-0.79315,0.1493,0.75351
620.37,67.14758,-0.79468,0.15008,0.75105
623.67,67.47946,-0.7951,0.15814,0.74859
626.97,67.81267,-0.79868,0.16458,0.74611
630.27,68.14453,-0.79992,0.17244,0.74362
633.57,68.4762,-0.80493,0.18193,0.74113
636.87,68.8086,-0.80674,0.1896,0.73862
640.17,69.1413,-0.80673,0.19452,0.7361
643.47,69.47456,-0.80909,0.20851,0.73358
646.77,69.8082,-0.81167,0.21077,0.73104
650.07,70.1411,-0.81774,0.22215,0.72849
653.37,70.47284,-0.8164,0.22659,0.72594
656.67,70.8049,-0.82132,0.23478,0.72337
659.97,71.13678,-0.82813,0.24503,0.72079
663.27,71.4692,-0.83005,0.24976,0.71821
666.57,71.80199,-0.83274,0.25907,0.71561
669.87,72.134,-0.83663,0.26186,0.71301
673.17,72.4666,-0.8462,0.26477,0.7104
676.47,72.79884,-0.84731,0.26153,0.70777
679.77,73.1319,-0.84824,0.25767,0.70514
683.07,73.46518,-0.85693,0.2516,0.7025
686.37,73.79895,-0.85648,0.24196,0.69985
689.67,74.13324,-0.86104,0.23582,0.69719
692.97,74.46685,-0.87048,0.22482,0.69452
696.27,74.7994,-0.87162,0.21275,0.69184
699.57,75.13226,-0.87835,0.20058,0.68915
702.87,75.4647,-0.87925,0.17853,0.68645
706.17,75.79786,-0.87794,0.15909,0.68375
709.47,76.1318,-0.88331,0.14179,0.68103
712.77,76.46553,-0.88429,0.12174,0.67831
716.07,76.80089,-0.88795,0.11479,0.67558
719.37,77.13571,-0.88657,0.10886,0.67284
722.67,77.47065,-0.89021,0.11102,0.67009
725.97,77.8057,-0.89153,0.10437,0.66733
729.27,78.14012,-0.89153,0.10479,0.66457
732.57,78.47378,-0.8918,0.10582,0.66179
735.87,78.80762,-0.89147,0.10649,0.65901
739.17,79.14184,-0.89593,0.11146,0.65622
742.47,79.47726,-0.89328,0.11091,0.65343
745.77,79.81179,-0.8946,0.11454,0.65062
749.07,80.14511,-0.89891,0.11939,0.64781
752.37,80.47944,-0.8957,0.11982,0.64499
755.67,80.81415,-0.90185,0.12747,0.64216
758.97,81.1495,-0.89472,0.12859,0.63933
762.27,81.48644,-0.90359,0.12752,0.63648
765.57,81.82292,-0.90379,0.1396,0.63363
768.87,82.15852,-0.9082,0.14161,0.63078
772.17,82.49461,-0.90381,0.1482,0.62791
775.47,82.83216,-0.90689,0.14588,0.62504
778.77,83.16929,-0.91047,0.15012,0.62217
782.07,83.50583,-0.91265,0.16204,0.61928
785.37,83.84151,-0.90829,0.16549,0.61639
788.67,84.1767,-0.91272,0.17098,0.6135
791.97,84.5112,-0.91927,0.17435,0.61059
795.27,84.84604,-0.91797,0.18319,0.60769
798.57,85.18048,-0.92092,0.18287,0.60477
801.87,85.51525,-0.92771,0.18414,0.60185
805.17,85.85125,-0.92595,0.17753,0.59893
808.47,86.18721,-0.9322,0.17804,0.59599
811.77,86.52242,-0.92959,0.18239,0.59306
815.07,86.8583,-0.93901,0.19183,0.59011
818.37,87.19367,-0.94678,0.20023,0.58717
821.67,87.52809,-0.93347,0.19479,0.58421
824.97,87.86476,-0.93794,0.20095,0.58126
828.27,88.20174,-0.93926,0.1966,0.5783
831.57,88.53656,-0.95098,0.19913,0.57533
834.87,88.87119,-0.9454,0.19983,0.57236
838.17,89.20658,-0.9544,0.20228,0.56938
841.47,89.54221,-0.95833,0.20501,0.5664
844.77,89.87804,-0.96095,0.19865,0.56342
845.87,89.99014,-0.96238,0.194,0.56242