Folder: fsri_materials_database/01_Data/Gypsum_Wallboard_Gypsum_Core/STA/N2/30K_min (part 2)

File: Gypsum_Wallboard_Gypsum_Core_STA_N2_30KData_220222_R3.csv
##Temp./Â°C,Time/min,Mass loss(subtr.2)/mg,DSC(subtr.2)/(mW/mg),Sensit./(uV/mW)
48.777,10.01,-0.00329,0.002427984,1.08891
52.377,10.90952,-0.00234876,0.1395,1.08588
55.977,11.15655,-0.002625363,0.23066,1.08287
59.577,11.34769,-0.003428142,0.30124,1.07988
63.177,11.51324,-0.004068706,0.35704,1.07692
66.777,11.66585,-0.00350174,0.40539,1.07398
70.377,11.80898,-0.003096834,0.44757,1.07106
73.977,11.9468,-0.00362367,0.48201,1.06817
77.577,12.08083,-0.003642818,0.52004,1.06529
81.177,12.21123,-0.004588038,0.55971,1.06244
84.777,12.3399,-0.00614946,0.59988,1.05961
88.377,12.46653,-0.00726709,0.64626,1.0568
91.977,12.59145,-0.008942624,0.70421,1.05402
95.577,12.71499,-0.01020159,0.78158,1.05125
99.177,12.83758,-0.01281185,0.87836,1.04851
102.777,12.9598,-0.01415225,1.01038,1.04579
106.377,13.08174,-0.02167509,1.17531,1.04309
109.977,13.20335,-0.02853437,1.35324,1.04042
113.577,13.32474,-0.03738738,1.53587,1.03776
117.177,13.44599,-0.04854228,1.80819,1.03513
120.777,13.56719,-0.06661987,2.57092,1.03252
124.377,13.6883,-0.09663633,3.54087,1.02993
127.977,13.81,-0.13305,4.73101,1.02736
131.577,13.9317,-0.1865,6.12291,1.02481
135.177,14.0542,-0.25453,7.56039,1.02228
138.777,14.17641,-0.33149,8.60885,1.01977
142.377,14.29768,-0.40773,8.59018,1.01728
145.977,14.4165,-0.46945,7.28204,1.01481
149.577,14.5327,-0.50998,6.78882,1.01236
153.177,14.6483,-0.55495,7.03226,1.00993
156.777,14.76341,-0.60551,7.15182,1.00753
160.377,14.8774,-0.64436,4.95843,1.00514
163.977,14.98889,-0.65578,3.10488,1.00277
167.577,15.09866,-0.66064,2.03661,1.00041
171.177,15.20769,-0.66447,1.44105,0.99808
174.777,15.3172,-0.66579,1.10253,0.99577
178.377,15.4266,-0.66843,0.91458,0.99347
181.977,15.5357,-0.66967,0.79717,0.99119
185.577,15.64515,-0.6724,0.72631,0.98893
189.177,15.75426,-0.6737,0.67962,0.98669
192.777,15.8634,-0.67511,0.65063,0.98447
196.377,15.9725,-0.67633,0.62882,0.98226
199.977,16.08165,-0.67633,0.61045,0.98007
203.577,16.19053,-0.67699,0.60231,0.97789
207.177,16.29969,-0.67828,0.58857,0.97573
210.777,16.40883,-0.67961,0.58074,0.97359
214.377,16.5175,-0.68091,0.57048,0.97146
217.977,16.6265,-0.68093,0.56725,0.96935
221.577,16.73518,-0.68225,0.56135,0.96725
225.177,16.84395,-0.68214,0.55753,0.96517
228.777,16.95244,-0.68356,0.55349,0.96311
232.377,17.0616,-0.68482,0.55034,0.96105
235.977,17.17052,-0.68488,0.54748,0.95901
239.577,17.2793,-0.68488,0.54503,0.95699
243.177,17.38808,-0.68751,0.5383,0.95498
246.777,17.49696,-0.68751,0.53658,0.95298
250.377,17.60565,-0.68751,0.53192,0.95099
253.977,17.71441,-0.68751,0.52709,0.94902
257.577,17.82302,-0.68883,0.52269,0.94705
261.177,17.93155,-0.68817,0.51789,0.9451
264.777,18.0401,-0.68817,0.51539,0.94316
268.377,18.1489,-0.68948,0.51122,0.94123
271.977,18.25723,-0.6895,0.50601,0.93932
275.577,18.3658,-0.68994,0.50032,0.93741
279.177,18.47435,-0.69015,0.49751,0.93551
282.777,18.58308,-0.69146,0.48998,0.93362
286.377,18.69177,-0.69015,0.48288,0.93174
289.977,18.80048,-0.69015,0.47802,0.92988
293.577,18.90944,-0.69146,0.47041,0.92801
297.177,19.01848,-0.69146,0.46421,0.92616
300.777,19.12742,-0.69146,0.46032,0.92432
304.377,19.23655,-0.69212,0.45668,0.92248
307.977,19.34574,-0.69311,0.45006,0.92065
311.577,19.4547,-0.69311,0.4466,0.91883
315.177,19.56417,-0.69345,0.44115,0.91701
318.777,19.6736,-0.69468,0.43759,0.9152
322.377,19.78296,-0.69606,0.43565,0.91339
325.977,19.89255,-0.69606,0.43167,0.91159
329.577,20.00235,-0.69604,0.42952,0.9098
333.177,20.11202,-0.69737,0.42638,0.90801
336.777,20.222,-0.69606,0.42205,0.90622
340.377,20.33204,-0.69606,0.41587,0.90444
343.977,20.44217,-0.69738,0.40926,0.90266
347.577,20.55242,-0.69736,0.40333,0.90088
351.177,20.66258,-0.69771,0.39705,0.89911
354.777,20.77321,-0.69705,0.39187,0.89734
358.377,20.884,-0.69837,0.37846,0.89557
361.977,20.99468,-0.69837,0.36527,0.89381
365.577,21.1053,-0.69837,0.35258,0.89204
369.177,21.21635,-0.69903,0.33411,0.89028
372.777,21.32728,-0.70087,0.31626,0.88852
376.377,21.43836,-0.70126,0.28871,0.88675
379.977,21.54949,-0.70033,0.25705,0.88499
383.577,21.66075,-0.70199,0.2183,0.88323
387.177,21.772,-0.70198,0.17174,0.88146
390.777,21.8835,-0.70233,0.11628,0.8797
394.377,21.9953,-0.70397,0.04653174,0.87793
397.977,22.10685,-0.70265,-0.01612513,0.87616
401.577,22.21866,-0.70397,-0.06971481,0.87439
405.177,22.33059,-0.706,-0.09713919,0.87262
408.777,22.44282,-0.70496,-0.09520445,0.87084
412.377,22.55517,-0.70496,-0.06091501,0.86906
415.977,22.66744,-0.70496,-0.003994124,0.86728
419.577,22.7803,-0.70596,0.05903533,0.86549
423.177,22.89291,-0.70594,0.12122,0.8637
426.777,23.00585,-0.70594,0.17048,0.8619
430.377,23.11883,-0.70594,0.21564,0.8601
433.977,23.2321,-0.70594,0.24801,0.8583
437.577,23.34555,-0.70587,0.28054,0.85649
441.177,23.45879,-0.70627,0.29948,0.85467
444.777,23.57228,-0.70759,0.31837,0.85285
448.377,23.68591,-0.70627,0.33439,0.85102
451.977,23.79961,-0.70757,0.34902,0.84918
455.577,23.9135,-0.70759,0.35862,0.84734
459.177,24.0275,-0.70759,0.37107,0.84549
462.777,24.14163,-0.70759,0.37921,0.84363
466.377,24.25584,-0.70858,0.38542,0.84176
469.977,24.37003,-0.70759,0.39551,0.83988
473.577,24.4844,-0.70759,0.40033,0.838
477.177,24.59879,-0.70627,0.40521,0.83611
480.777,24.71323,-0.70891,0.4065,0.83421
484.377,24.82803,-0.70891,0.4113,0.8323
487.977,24.94275,-0.70792,0.41425,0.83037
491.577,25.0574,-0.70659,0.41787,0.82844
495.177,25.17258,-0.70792,0.41734,0.8265
498.777,25.2877,-0.70606,0.41907,0.82455
502.377,25.40289,-0.70924,0.42395,0.82259
505.977,25.5185,-0.70792,0.42569,0.82062
509.577,25.6343,-0.70923,0.42527,0.81863
513.177,25.7499,-0.70923,0.42574,0.81663
516.777,25.8657,-0.71022,0.43087,0.81463
520.377,25.9815,-0.71023,0.4295,0.81261
523.977,26.09761,-0.71186,0.42958,0.81058
527.577,26.21369,-0.71055,0.43216,0.80853
531.177,26.3296,-0.71187,0.4334,0.80647
534.777,26.44565,-0.7122,0.43098,0.8044
538.377,26.56206,-0.71087,0.4365,0.80232
541.977,26.6783,-0.71242,0.4381,0.80022
545.577,26.79478,-0.71318,0.43821,0.79812
549.177,26.91132,-0.71186,0.43992,0.79599
552.777,27.028,-0.71186,0.43906,0.79385
556.377,27.14485,-0.71186,0.43988,0.7917
559.977,27.2615,-0.71186,0.44195,0.78954
563.577,27.3785,-0.71318,0.44613,0.78736
567.177,27.49545,-0.71318,0.44835,0.78516
570.777,27.61252,-0.71417,0.45453,0.78296
574.377,27.72997,-0.71417,0.45594,0.78073
577.977,27.8472,-0.71516,0.4601,0.77849
581.577,27.9645,-0.71515,0.46281,0.77624
585.177,28.08196,-0.71384,0.46796,0.77397
588.777,28.19942,-0.71289,0.4726,0.77169
592.377,28.3172,-0.71547,0.47544,0.76939
595.977,28.435,-0.71548,0.48729,0.76707
599.577,28.55289,-0.71548,0.48904,0.76474
603.177,28.6707,-0.71647,0.49986,0.76239
606.777,28.7888,-0.71647,0.50347,0.76003
610.377,28.90669,-0.71812,0.51073,0.75765
613.977,29.02507,-0.71811,0.51522,0.75525
617.577,29.1432,-0.72042,0.51881,0.75284
621.177,29.26168,-0.7191,0.52403,0.75041
624.777,29.38028,-0.72042,0.53124,0.74797
628.377,29.4987,-0.72174,0.53693,0.74551
631.977,29.6173,-0.72306,0.54578,0.74303
635.577,29.736,-0.72438,0.54865,0.74054
639.177,29.8549,-0.72568,0.56026,0.73803
642.777,29.9736,-0.72426,0.57003,0.7355
646.377,30.0925,-0.72563,0.57319,0.73295
649.977,30.2115,-0.72569,0.58254,0.73039
653.577,30.33039,-0.73007,0.59866,0.72782
657.177,30.44926,-0.73138,0.61398,0.72522
660.777,30.5682,-0.73272,0.62645,0.72261
664.377,30.687,-0.73536,0.64292,0.71998
667.977,30.8059,-0.73673,0.6633,0.71734
671.577,30.9249,-0.74007,0.68224,0.71467
675.177,31.0439,-0.74015,0.70159,0.712
678.777,31.16275,-0.74268,0.7181,0.7093
682.377,31.28203,-0.74532,0.73759,0.70659
685.977,31.4013,-0.74805,0.75472,0.70386
689.577,31.52034,-0.75126,0.77896,0.70111
693.177,31.6395,-0.75355,0.79803,0.69835
696.777,31.7591,-0.7564,0.82341,0.69557
700.377,31.8785,-0.76059,0.84164,0.69277
703.977,31.99802,-0.76455,0.86529,0.68996
707.577,32.11773,-0.76983,0.88209,0.68713
711.177,32.23745,-0.77439,0.90542,0.68429
714.777,32.35715,-0.77937,0.92626,0.68143
718.377,32.47719,-0.78494,0.94598,0.67855
721.977,32.59704,-0.78837,0.96105,0.67565
725.577,32.71703,-0.79471,0.96215,0.67274
729.177,32.83698,-0.79957,0.96345,0.66981
732.777,32.95708,-0.80373,0.95484,0.66687
736.377,33.07736,-0.80834,0.92811,0.66391
739.977,33.19764,-0.81394,0.89527,0.66094
743.577,33.3177,-0.81745,0.83578,0.65795
747.177,33.43781,-0.82181,0.77571,0.65494
750.777,33.55833,-0.82527,0.7096,0.65192
754.377,33.67877,-0.82782,0.65791,0.64889
757.977,33.79914,-0.82948,0.6137,0.64583
761.577,33.91973,-0.8312,0.58258,0.64277
765.177,34.04052,-0.83251,0.56608,0.63969
768.777,34.16091,-0.83389,0.55096,0.63659
772.377,34.2815,-0.83549,0.54524,0.63348
775.977,34.40204,-0.83647,0.54494,0.63035
779.577,34.52254,-0.83649,0.55027,0.62721
783.177,34.64307,-0.8391,0.559,0.62406
786.777,34.76377,-0.84042,0.56825,0.62089
790.377,34.88446,-0.84173,0.57644,0.61771
793.977,35.00516,-0.84305,0.58387,0.61451
797.577,35.12571,-0.84437,0.59344,0.6113
801.177,35.2461,-0.84436,0.60505,0.60808
804.777,35.36711,-0.84568,0.61325,0.60485
808.377,35.48782,-0.8458,0.62709,0.6016
811.977,35.6083,-0.84883,0.64193,0.59834
815.577,35.72965,-0.84963,0.65337,0.59506
819.177,35.85053,-0.85097,0.67443,0.59178
822.777,35.97148,-0.85357,0.68302,0.58848
826.377,36.09235,-0.85621,0.70095,0.58517
829.977,36.21326,-0.85688,0.71671,0.58185
833.577,36.33432,-0.85883,0.73383,0.57852
837.177,36.45559,-0.86299,0.75246,0.57517
840.777,36.5768,-0.86553,0.76722,0.57182
844.377,36.69835,-0.86818,0.78624,0.56845
847.977,36.81966,-0.86949,0.80498,0.56508
851.577,36.94124,-0.87371,0.82021,0.56169
855.177,37.06277,-0.87629,0.83663,0.55829
858.777,37.18416,-0.87873,0.85521,0.55489
862.377,37.30578,-0.88147,0.877,0.55147
865.977,37.4274,-0.8845,0.90433,0.54804
869.577,37.54899,-0.88701,0.92977,0.54461
873.177,37.67037,-0.89121,0.95167,0.54117
876.777,37.792,-0.89414,0.96309,0.53771
880.377,37.9134,-0.89673,0.97139,0.53425
883.977,38.03477,-0.90111,0.98527,0.53079
887.577,38.15638,-0.90415,1.00312,0.52731
891.177,38.278,-0.90823,1.03768,0.52383
892.777,38.33253,-0.90973,1.05603,0.52227