Folder: fsri_materials_database/01_Data/Gypsum_Wallboard_Gypsum_Core/STA/N2/30K_min

Note: 01_Data/README.md
# Materials and Products Database
## 01_Data

Raw data generated from each apparatus are included here in plain-text format. The data is organized first by material, next by the short name of test apparatus used, and where applicable additional filtering by test settings.

### material.json

Each material directory contains a json file of the same name as the material. This file links the data stored in the repository as well as data and graphs produced by the accompanying scripts (__02_Scripts__) to the respective landing page for the material on the front-end website.

File: Gypsum_Wallboard_Gypsum_Core_STA_N2_30KData_220221_R1.csv
##Temp./Â°C,Time/min,Mass loss(subtr.2)/mg,DSC(subtr.2)/(mW/mg),Sensit./(uV/mW)
48.902,10.00917,-0.00165,0.00583937,1.0888
52.502,10.90735,-0.000190572,0.15706,1.08577
56.102,11.15431,0.00179087,0.25303,1.08277
59.702,11.3447,-0.000950436,0.32715,1.07978
63.302,11.51118,-0.0006426595,0.38598,1.07682
66.902,11.66363,-0.0008225624,0.43877,1.07388
70.502,11.80737,-0.000723939,0.4822,1.07096
74.102,11.94546,-0.000775033,0.52767,1.06807
77.702,12.0791,-0.00175948,0.56594,1.06519
81.302,12.2097,-0.00380423,0.60961,1.06234
84.902,12.3382,-0.003856728,0.65698,1.05951
88.502,12.464,-0.006344568,0.71487,1.05671
92.102,12.58879,-0.006689397,0.78854,1.05392
95.702,12.71214,-0.009333361,0.88443,1.05116
99.302,12.83479,-0.01149207,1.01333,1.04842
102.902,12.95685,-0.01700426,1.18073,1.0457
106.502,13.07864,-0.02289321,1.3864,1.043
110.102,13.20041,-0.03368751,1.61926,1.04033
113.702,13.32196,-0.04519537,1.85998,1.03767
117.302,13.44299,-0.06116362,2.17111,1.03504
120.902,13.56405,-0.08070959,3.00564,1.03243
124.502,13.68539,-0.11562,4.12447,1.02984
128.102,13.8072,-0.16126,5.44585,1.02727
131.702,13.9293,-0.22075,6.89204,1.02472
135.302,14.0519,-0.29142,8.19251,1.02219
138.902,14.1736,-0.3712,8.72764,1.01968
142.502,14.29376,-0.43752,7.82685,1.01719
146.102,14.4116,-0.48646,7.2124,1.01473
149.702,14.52806,-0.5354,7.49134,1.01228
153.302,14.6441,-0.59133,7.57957,1.00985
156.902,14.75835,-0.63047,4.96993,1.00744
160.502,14.87045,-0.63707,3.07818,1.00505
164.102,14.9804,-0.64192,2.03511,1.00268
167.702,15.09002,-0.6473,1.45902,1.00033
171.302,15.19935,-0.64858,1.14115,0.998
174.902,15.3093,-0.64991,0.95625,0.99569
178.502,15.4191,-0.65121,0.84816,0.99339
182.102,15.5283,-0.65382,0.7817,0.99112
185.702,15.6383,-0.65516,0.74245,0.98886
189.302,15.74779,-0.65648,0.71306,0.98661
192.902,15.85709,-0.65648,0.68928,0.98439
196.502,15.96691,-0.6578,0.67219,0.98218
200.102,16.0762,-0.66042,0.66301,0.97999
203.702,16.18583,-0.66042,0.64965,0.97782
207.302,16.2956,-0.66174,0.64009,0.97566
210.902,16.40511,-0.66313,0.63126,0.97352
214.502,16.51444,-0.66305,0.62484,0.97139
218.102,16.6237,-0.66305,0.61571,0.96928
221.702,16.7331,-0.66437,0.61564,0.96718
225.302,16.84214,-0.6657,0.61005,0.9651
228.902,16.95097,-0.66569,0.60446,0.96303
232.502,17.06009,-0.66569,0.6021,0.96098
236.102,17.1689,-0.66569,0.59878,0.95894
239.702,17.2776,-0.66569,0.60063,0.95692
243.302,17.38663,-0.66569,0.59281,0.95491
246.902,17.49532,-0.66635,0.59101,0.95291
250.502,17.60398,-0.66635,0.58863,0.95092
254.102,17.71265,-0.66734,0.58748,0.94895
257.702,17.82134,-0.66865,0.58665,0.94698
261.302,17.92987,-0.66865,0.57729,0.94503
264.902,18.03856,-0.66898,0.57885,0.9431
268.502,18.14743,-0.6703,0.5717,0.94117
272.102,18.25599,-0.6703,0.56494,0.93925
275.702,18.36477,-0.6703,0.5622,0.93734
279.302,18.47371,-0.6703,0.56092,0.93545
282.902,18.58259,-0.6703,0.55435,0.93356
286.502,18.69152,-0.6703,0.55259,0.93168
290.102,18.80029,-0.67161,0.53974,0.92981
293.702,18.90926,-0.67161,0.53338,0.92795
297.302,19.01824,-0.67161,0.5311,0.9261
300.902,19.12734,-0.67293,0.52695,0.92425
304.502,19.23643,-0.67194,0.52228,0.92242
308.102,19.3456,-0.67425,0.51804,0.92059
311.702,19.45465,-0.67293,0.51753,0.91876
315.302,19.5642,-0.67327,0.5157,0.91694
318.902,19.67377,-0.67255,0.50988,0.91513
322.502,19.78334,-0.67392,0.50595,0.91333
326.102,19.89285,-0.67392,0.50419,0.91153
329.702,20.00284,-0.67589,0.49856,0.90973
333.302,20.11284,-0.67589,0.49936,0.90794
336.902,20.22308,-0.67589,0.49589,0.90616
340.502,20.33322,-0.67589,0.48627,0.90438
344.102,20.44349,-0.67589,0.47818,0.9026
347.702,20.554,-0.67688,0.47883,0.90082
351.302,20.6645,-0.67688,0.46952,0.89905
354.902,20.77498,-0.67589,0.46241,0.89728
358.502,20.8858,-0.67721,0.44535,0.89551
362.102,20.99652,-0.67655,0.43576,0.89375
365.702,21.10745,-0.67595,0.41577,0.89198
369.302,21.21837,-0.67776,0.39871,0.89022
372.902,21.32956,-0.68039,0.36901,0.88845
376.502,21.44078,-0.67972,0.34216,0.88669
380.102,21.55189,-0.68104,0.29702,0.88493
383.702,21.66324,-0.68238,0.25374,0.88316
387.302,21.77457,-0.68096,0.20385,0.8814
390.902,21.88606,-0.67962,0.13848,0.87964
394.502,21.99769,-0.68236,0.07318037,0.87787
398.102,22.10949,-0.6817,0.01869599,0.8761
401.702,22.2214,-0.68319,-0.01651771,0.87433
405.302,22.3335,-0.68169,-0.0136613,0.87256
408.902,22.44575,-0.68071,0.02292576,0.87078
412.502,22.55838,-0.68337,0.07664232,0.869
416.102,22.6712,-0.68203,0.14238,0.86722
419.702,22.78406,-0.68336,0.20588,0.86543
423.302,22.89697,-0.68335,0.25915,0.86364
426.902,23.00995,-0.68335,0.30455,0.86184
430.502,23.12323,-0.68335,0.34157,0.86004
434.102,23.2365,-0.68335,0.36735,0.85824
437.702,23.34999,-0.68334,0.39102,0.85642
441.302,23.46343,-0.68467,0.40542,0.85461
444.902,23.57712,-0.68401,0.42174,0.85278
448.502,23.69054,-0.68401,0.43338,0.85095
452.102,23.80455,-0.68467,0.43982,0.84912
455.702,23.91834,-0.68467,0.44641,0.84727
459.302,24.03246,-0.68598,0.45556,0.84542
462.902,24.1467,-0.68607,0.46153,0.84356
466.502,24.26093,-0.68467,0.46995,0.84169
470.102,24.37521,-0.68598,0.47223,0.83982
473.702,24.48978,-0.68598,0.47323,0.83794
477.302,24.60455,-0.68631,0.47633,0.83604
480.902,24.7191,-0.68763,0.48017,0.83414
484.502,24.83387,-0.68763,0.4836,0.83223
488.102,24.94869,-0.68763,0.48197,0.83031
491.702,25.0639,-0.68631,0.48216,0.82838
495.302,25.17892,-0.68631,0.48458,0.82643
498.902,25.29413,-0.68863,0.48943,0.82448
502.502,25.40952,-0.6876,0.48413,0.82252
506.102,25.52486,-0.6873,0.48865,0.82055
509.702,25.64034,-0.6873,0.4776,0.81856
513.302,25.75587,-0.6873,0.48663,0.81657
516.902,25.87128,-0.68533,0.4793,0.81456
520.502,25.98704,-0.68665,0.48164,0.81254
524.102,26.10289,-0.689,0.48079,0.8105
527.702,26.21878,-0.68894,0.47983,0.80846
531.302,26.33472,-0.6876,0.48473,0.8064
534.902,26.4507,-0.68763,0.48279,0.80433
538.502,26.5668,-0.68762,0.48594,0.80225
542.102,26.68303,-0.68894,0.48484,0.80015
545.702,26.79932,-0.68763,0.4819,0.79804
549.302,26.91566,-0.68957,0.48345,0.79592
552.902,27.03195,-0.68939,0.4865,0.79378
556.502,27.14886,-0.68938,0.48503,0.79163
560.102,27.2657,-0.6907,0.48395,0.78946
563.702,27.3823,-0.6907,0.48315,0.78728
567.302,27.499,-0.68939,0.48179,0.78509
570.902,27.6162,-0.68939,0.4893,0.78288
574.502,27.7332,-0.68939,0.49707,0.78065
578.102,27.85036,-0.6884,0.49968,0.77842
581.702,27.96756,-0.6907,0.50037,0.77616
585.302,28.08482,-0.68965,0.50325,0.77389
588.902,28.2022,-0.69067,0.50475,0.77161
592.502,28.3198,-0.69202,0.51126,0.76931
596.102,28.4375,-0.69269,0.51976,0.76699
599.702,28.55515,-0.69334,0.51966,0.76466
603.302,28.67312,-0.69465,0.53157,0.76231
606.902,28.79113,-0.69464,0.53637,0.75995
610.502,28.9093,-0.69597,0.53583,0.75757
614.102,29.02735,-0.69564,0.54001,0.75517
617.702,29.14548,-0.69598,0.54729,0.75276
621.302,29.2637,-0.69728,0.55194,0.75033
624.902,29.3821,-0.6973,0.55595,0.74788
628.502,29.5006,-0.69906,0.56194,0.74542
632.102,29.619,-0.69991,0.57307,0.74294
635.702,29.73746,-0.70081,0.58901,0.74045
639.302,29.8559,-0.70163,0.59285,0.73794
642.902,29.9747,-0.70287,0.60226,0.73541
646.502,30.0934,-0.70289,0.61498,0.73287
650.102,30.2123,-0.7055,0.63479,0.7303
653.702,30.3311,-0.70822,0.64782,0.72773
657.302,30.45018,-0.70781,0.66788,0.72513
660.902,30.56908,-0.71122,0.68341,0.72252
664.502,30.6881,-0.71253,0.7033,0.71989
668.102,30.80712,-0.71404,0.71675,0.71724
671.702,30.92629,-0.71757,0.74206,0.71458
675.302,31.04556,-0.71839,0.76395,0.7119
678.902,31.16487,-0.72172,0.78577,0.70921
682.502,31.28408,-0.7238,0.80971,0.70649
686.102,31.4032,-0.72634,0.83319,0.70376
689.702,31.52242,-0.72994,0.86005,0.70102
693.302,31.64187,-0.73326,0.88584,0.69825
696.902,31.7613,-0.73726,0.9067,0.69547
700.502,31.8808,-0.74263,0.92759,0.69268
704.102,32.00036,-0.74761,0.94825,0.68986
707.702,32.12008,-0.75188,0.96319,0.68703
711.302,32.23972,-0.75427,0.97031,0.68419
714.902,32.35962,-0.76319,0.96632,0.68133
718.502,32.47965,-0.76741,0.95928,0.67845
722.102,32.5998,-0.77115,0.94397,0.67555
725.702,32.71987,-0.77678,0.92086,0.67264
729.302,32.8401,-0.77934,0.89391,0.66971
732.902,32.96021,-0.78512,0.85728,0.66677
736.502,33.08056,-0.78934,0.81252,0.66381
740.102,33.20078,-0.79278,0.756,0.66084
743.702,33.3209,-0.79525,0.69524,0.65784
747.302,33.44121,-0.79597,0.64499,0.65484
750.902,33.56154,-0.79894,0.60774,0.65182
754.502,33.68186,-0.80208,0.58165,0.64878
758.102,33.80231,-0.80248,0.56243,0.64573
761.702,33.92273,-0.80319,0.54749,0.64266
765.302,34.04325,-0.80426,0.5465,0.63958
768.902,34.16383,-0.80706,0.54117,0.63648
772.502,34.28463,-0.8073,0.54495,0.63337
776.102,34.40567,-0.80861,0.54786,0.63024
779.702,34.52697,-0.80993,0.55135,0.6271
783.302,34.64824,-0.81125,0.55447,0.62395
786.902,34.7693,-0.81388,0.55862,0.62078
790.502,34.89062,-0.81355,0.56215,0.6176
794.102,35.0117,-0.81619,0.5715,0.6144
797.702,35.13292,-0.81755,0.5795,0.61119
801.302,35.2543,-0.81882,0.58579,0.60797
804.902,35.3754,-0.82016,0.60146,0.60473
808.502,35.49667,-0.82146,0.61077,0.60149
812.102,35.61781,-0.82278,0.61838,0.59822
815.702,35.73908,-0.82639,0.63437,0.59495
819.302,35.86043,-0.82637,0.65193,0.59166
822.902,35.98162,-0.82803,0.66248,0.58837
826.502,36.10298,-0.83067,0.6823,0.58506
830.102,36.2242,-0.83283,0.69567,0.58173
833.702,36.3457,-0.83562,0.70901,0.5784
837.302,36.46707,-0.83824,0.72309,0.57506
840.902,36.58851,-0.84093,0.73146,0.5717
844.502,36.71013,-0.8436,0.74913,0.56834
848.102,36.83185,-0.84637,0.77118,0.56496
851.702,36.9534,-0.84762,0.78481,0.56157
855.302,37.07495,-0.8519,0.80234,0.55818
858.902,37.1967,-0.85445,0.81779,0.55477
862.502,37.31819,-0.85861,0.83304,0.55135
866.102,37.4398,-0.86044,0.83619,0.54793
869.702,37.56143,-0.86506,0.84212,0.54449
873.302,37.68294,-0.86718,0.85588,0.54105
876.902,37.80435,-0.87087,0.86765,0.53759
880.502,37.9263,-0.87354,0.89886,0.53413
884.102,38.04777,-0.87763,0.93764,0.53066
887.702,38.16918,-0.88254,0.96771,0.52719
891.302,38.29087,-0.88705,0.94922,0.5237
892.502,38.33191,-0.88738,0.92719,0.52254

File: Gypsum_Wallboard_Gypsum_Core_STA_N2_30KData_220221_R2.csv
##Temp./Â°C,Time/min,Mass loss(subtr.2)/mg,DSC(subtr.2)/(mW/mg),Sensit./(uV/mW)
48.721,10.00917,-0.00548,-0.002409997,1.08895
52.321,10.90962,-0.004489037,0.12924,1.08592
55.921,11.156,-0.006175806,0.2213,1.08292
59.521,11.3466,-0.003977551,0.29417,1.07993
63.121,11.512,-0.004779816,0.35162,1.07697
66.721,11.66371,-0.00374242,0.3991,1.07403
70.321,11.80671,-0.005100665,0.43836,1.07111
73.921,11.94397,-0.004880782,0.47509,1.06821
77.521,12.07751,-0.0056247,0.5128,1.06534
81.121,12.20769,-0.006970211,0.55131,1.06248
84.721,12.3355,-0.008109003,0.59042,1.05965
88.321,12.46167,-0.008524309,0.64016,1.05685
91.921,12.58608,-0.01129184,0.70292,1.05406
95.521,12.7095,-0.01261148,0.78084,1.0513
99.121,12.83197,-0.0152466,0.88119,1.04855
102.721,12.95385,-0.01885479,1.01554,1.04583
106.321,13.07578,-0.02557385,1.17608,1.04314
109.921,13.19749,-0.03269649,1.35798,1.04046
113.521,13.31895,-0.04363364,1.55082,1.0378
117.121,13.44036,-0.05531765,1.80331,1.03517
120.721,13.56119,-0.07220707,2.53061,1.03256
124.321,13.68259,-0.10164,3.49089,1.02997
127.921,13.80395,-0.1408,4.64361,1.02739
131.521,13.92574,-0.19336,5.97855,1.02484
135.121,14.0481,-0.25843,7.33373,1.02232
138.721,14.17022,-0.33346,8.33,1.01981
142.321,14.29146,-0.40922,8.41642,1.01732
145.921,14.41049,-0.47128,7.3754,1.01485
149.521,14.5274,-0.51625,6.87312,1.0124
153.121,14.643,-0.56431,6.89812,1.00997
156.721,14.75815,-0.60907,6.59964,1.00756
160.321,14.87221,-0.64888,5.57753,1.00517
163.921,14.98449,-0.66879,3.57803,1.0028
167.521,15.0945,-0.67682,2.31589,1.00045
171.121,15.20434,-0.68004,1.5916,0.99812
174.721,15.31369,-0.68269,1.1849,0.9958
178.321,15.423,-0.68396,0.95505,0.99351
181.921,15.5324,-0.6869,0.81615,0.99123
185.521,15.64156,-0.69165,0.73156,0.98897
189.121,15.7509,-0.69066,0.6794,0.98673
192.721,15.86014,-0.69201,0.64279,0.9845
196.321,15.9695,-0.69332,0.61403,0.98229
199.921,16.07884,-0.69431,0.59508,0.9801
203.521,16.1882,-0.69465,0.58245,0.97793
207.121,16.2974,-0.69762,0.5716,0.97577
210.721,16.40692,-0.6976,0.55945,0.97362
214.321,16.5161,-0.6976,0.55022,0.9715
217.921,16.62539,-0.6976,0.54316,0.96938
221.521,16.7346,-0.69943,0.54053,0.96729
225.121,16.8435,-0.70135,0.5369,0.96521
228.721,16.9527,-0.7033,0.5296,0.96314
232.321,17.0619,-0.70185,0.52313,0.96108
235.921,17.17064,-0.70295,0.52095,0.95905
239.521,17.2793,-0.70429,0.51689,0.95702
243.121,17.3883,-0.7043,0.51508,0.95501
246.721,17.49706,-0.7056,0.50887,0.95301
250.321,17.6058,-0.70429,0.50399,0.95102
253.921,17.71446,-0.70526,0.50162,0.94905
257.521,17.8231,-0.70594,0.49756,0.94708
261.121,17.93147,-0.70692,0.49193,0.94513
264.721,18.0401,-0.70826,0.48834,0.94319
268.321,18.1482,-0.7095,0.48303,0.94126
271.921,18.2573,-0.70831,0.47749,0.93935
275.521,18.36603,-0.70692,0.47275,0.93744
279.121,18.47455,-0.70691,0.4686,0.93554
282.721,18.58332,-0.70956,0.46181,0.93365
286.321,18.6921,-0.70826,0.45729,0.93177
289.921,18.80076,-0.70924,0.45372,0.9299
293.521,18.90995,-0.70927,0.45032,0.92804
297.121,19.0189,-0.70923,0.44425,0.92619
300.721,19.12803,-0.71055,0.44141,0.92435
304.321,19.23733,-0.70855,0.44013,0.92251
307.921,19.3466,-0.70857,0.43937,0.92068
311.521,19.45573,-0.70958,0.43437,0.91885
315.121,19.5652,-0.7111,0.43437,0.91704
318.721,19.6746,-0.71186,0.4366,0.91523
322.321,19.78416,-0.7112,0.42876,0.91342
325.921,19.8938,-0.7112,0.42874,0.91162
329.521,20.00349,-0.71118,0.4227,0.90982
333.121,20.11317,-0.7112,0.42203,0.90803
336.721,20.22312,-0.71252,0.41966,0.90625
340.321,20.33297,-0.7127,0.41635,0.90447
343.921,20.44308,-0.71384,0.41389,0.90269
347.521,20.55326,-0.71515,0.41214,0.90091
351.121,20.6635,-0.71515,0.40626,0.89914
354.721,20.7738,-0.71515,0.40167,0.89737
358.321,20.88395,-0.71543,0.39274,0.8956
361.921,20.9944,-0.71649,0.38108,0.89384
365.521,21.105,-0.71646,0.36854,0.89207
369.121,21.21559,-0.71603,0.35324,0.89031
372.721,21.32643,-0.71842,0.33422,0.88854
376.321,21.43739,-0.71613,0.30944,0.88678
379.921,21.54832,-0.71613,0.27965,0.88502
383.521,21.65939,-0.71679,0.2389,0.88325
387.121,21.77071,-0.71679,0.18826,0.88149
390.721,21.8821,-0.7191,0.12889,0.87972
394.321,21.99344,-0.7191,0.05846897,0.87796
397.921,22.10495,-0.71912,-0.01612349,0.87619
401.521,22.21666,-0.72009,-0.08385346,0.87442
405.121,22.3285,-0.71981,-0.12603,0.87264
408.721,22.44032,-0.7191,-0.13183,0.87087
412.321,22.55256,-0.72042,-0.0978798,0.86909
415.921,22.6649,-0.72042,-0.03688039,0.86731
419.521,22.77722,-0.72042,0.03202316,0.86552
423.121,22.88992,-0.72041,0.09766112,0.86373
426.721,23.00253,-0.72108,0.15781,0.86193
430.321,23.11545,-0.72235,0.20404,0.86013
433.921,23.22866,-0.72108,0.24031,0.85833
437.521,23.3417,-0.72108,0.27063,0.85652
441.121,23.45509,-0.72108,0.29102,0.8547
444.721,23.5685,-0.72173,0.3058,0.85287
448.321,23.6819,-0.72173,0.32049,0.85105
451.921,23.79571,-0.72173,0.33239,0.84921
455.521,23.9093,-0.72173,0.33916,0.84737
459.121,24.02325,-0.72186,0.3489,0.84551
462.721,24.13738,-0.72206,0.35455,0.84366
466.321,24.25142,-0.72208,0.35899,0.84179
469.921,24.36574,-0.72348,0.36467,0.83991
473.521,24.4802,-0.72348,0.36746,0.83803
477.121,24.5948,-0.72381,0.37144,0.83614
480.721,24.70956,-0.72425,0.37663,0.83424
484.321,24.8243,-0.72385,0.37626,0.83233
487.921,24.93915,-0.72227,0.37856,0.8304
491.521,25.05394,-0.72326,0.37939,0.82847
495.121,25.16891,-0.72326,0.38286,0.82653
498.721,25.28406,-0.7246,0.38496,0.82458
502.321,25.3991,-0.72458,0.38284,0.82262
505.921,25.51459,-0.72317,0.38496,0.82065
509.521,25.62987,-0.72293,0.38287,0.81866
513.121,25.74537,-0.72475,0.38392,0.81667
516.721,25.86111,-0.72392,0.38003,0.81466
520.321,25.977,-0.72525,0.38246,0.81264
523.921,26.09286,-0.72656,0.3824,0.81061
527.521,26.2089,-0.72845,0.3802,0.80856
531.121,26.32481,-0.72524,0.37567,0.80651
534.721,26.4411,-0.72524,0.37768,0.80444
538.321,26.5575,-0.72656,0.37414,0.80235
541.921,26.67404,-0.72789,0.3726,0.80026
545.521,26.7905,-0.72658,0.37178,0.79815
549.121,26.90715,-0.72787,0.37373,0.79603
552.721,27.0239,-0.72892,0.37277,0.79389
556.321,27.141,-0.72886,0.36965,0.79174
559.921,27.2578,-0.72886,0.37394,0.78957
563.521,27.375,-0.72886,0.37366,0.78739
567.121,27.49209,-0.72886,0.37556,0.7852
570.721,27.6094,-0.72886,0.37754,0.78299
574.321,27.7267,-0.7301,0.38274,0.78077
577.921,27.8441,-0.72972,0.38635,0.77853
581.521,27.9616,-0.72974,0.3854,0.77627
585.121,28.07902,-0.72941,0.39424,0.77401
588.721,28.1966,-0.72842,0.39993,0.77172
592.321,28.3141,-0.72965,0.40439,0.76942
595.921,28.43208,-0.73105,0.41044,0.76711
599.521,28.54993,-0.73233,0.41923,0.76478
603.121,28.66788,-0.73171,0.42312,0.76243
606.721,28.7858,-0.73171,0.42932,0.76007
610.321,28.9042,-0.73303,0.43529,0.75769
613.921,29.02257,-0.73331,0.44586,0.75529
617.521,29.141,-0.73434,0.45072,0.75288
621.121,29.2596,-0.73566,0.45533,0.75045
624.721,29.37817,-0.73566,0.46195,0.74801
628.321,29.4967,-0.73703,0.46879,0.74555
631.921,29.61538,-0.73829,0.47853,0.74307
635.521,29.734,-0.73829,0.48419,0.74058
639.121,29.8528,-0.73951,0.49538,0.73807
642.721,29.9718,-0.74092,0.50561,0.73554
646.321,30.0907,-0.74321,0.51495,0.73299
649.921,30.20952,-0.74225,0.52663,0.73043
653.521,30.32848,-0.74356,0.54075,0.72786
657.121,30.44738,-0.74487,0.55214,0.72526
660.721,30.5666,-0.7473,0.56742,0.72265
664.321,30.6856,-0.74883,0.58486,0.72002
667.921,30.80445,-0.75074,0.60401,0.71738
671.521,30.92365,-0.75305,0.6211,0.71472
675.121,31.0427,-0.7534,0.63977,0.71204
678.721,31.1617,-0.75738,0.65988,0.70934
682.321,31.2807,-0.75987,0.68085,0.70663
685.921,31.3998,-0.76302,0.6987,0.7039
689.521,31.51892,-0.76537,0.72244,0.70116
693.121,31.6381,-0.77087,0.73801,0.69839
696.721,31.75736,-0.77478,0.76556,0.69561
700.321,31.8767,-0.77614,0.78309,0.69282
703.921,31.9963,-0.77974,0.8023,0.69001
707.521,32.1158,-0.7861,0.8224,0.68718
711.121,32.23538,-0.79104,0.8432,0.68433
714.721,32.35538,-0.79515,0.86412,0.68147
718.321,32.47535,-0.80005,0.87317,0.67859
721.921,32.5953,-0.80559,0.88413,0.6757
725.521,32.71548,-0.81164,0.87637,0.67279
729.121,32.8357,-0.81714,0.87427,0.66986
732.721,32.9559,-0.81945,0.86237,0.66692
736.321,33.07634,-0.8256,0.84927,0.66396
739.921,33.19664,-0.83109,0.81552,0.66098
743.521,33.3169,-0.83429,0.77549,0.658
747.121,33.43737,-0.83841,0.72454,0.65499
750.721,33.55795,-0.84126,0.66921,0.65197
754.321,33.67866,-0.8452,0.61192,0.64893
757.921,33.79918,-0.84787,0.56653,0.64588
761.521,33.91977,-0.84933,0.52945,0.64281
765.121,34.04033,-0.8506,0.50534,0.63973
768.721,34.1611,-0.85123,0.48197,0.63664
772.321,34.28153,-0.8539,0.47559,0.63353
775.921,34.40214,-0.85455,0.47675,0.6304
779.521,34.52281,-0.85682,0.47568,0.62726
783.121,34.6434,-0.8572,0.47999,0.62411
786.721,34.76389,-0.85745,0.48834,0.62094
790.321,34.88435,-0.85983,0.49303,0.61776
793.921,35.00472,-0.85965,0.49533,0.61456
797.521,35.12518,-0.86244,0.50067,0.61135
801.121,35.2459,-0.86378,0.50822,0.60813
804.721,35.36647,-0.86423,0.51977,0.6049
808.321,35.48729,-0.86633,0.53476,0.60165
811.921,35.60817,-0.86773,0.54013,0.59839
815.521,35.72887,-0.86904,0.55025,0.59512
819.121,35.8499,-0.8704,0.55546,0.59183
822.721,35.97097,-0.87303,0.57247,0.58853
826.321,36.09215,-0.87411,0.58891,0.58522
829.921,36.21312,-0.87693,0.60551,0.5819
833.521,36.3343,-0.87904,0.61623,0.57857
837.121,36.45562,-0.88071,0.62925,0.57523
840.721,36.57667,-0.88354,0.64156,0.57187
844.321,36.69791,-0.88549,0.65529,0.56851
847.921,36.81905,-0.88813,0.66938,0.56513
851.521,36.94092,-0.89039,0.68866,0.56174
855.121,37.06248,-0.89137,0.70197,0.55835
858.721,37.18373,-0.8955,0.72075,0.55494
862.321,37.3054,-0.89818,0.74081,0.55152
865.921,37.4272,-0.90388,0.75243,0.5481
869.521,37.54896,-0.90468,0.77368,0.54466
873.121,37.67075,-0.90799,0.78727,0.54122
876.721,37.7924,-0.91097,0.79676,0.53777
880.321,37.9138,-0.91499,0.806,0.53431
883.921,38.0353,-0.91677,0.81586,0.53084
887.521,38.1569,-0.92246,0.82323,0.52736
891.121,38.27837,-0.92436,0.83564,0.52388
892.721,38.3324,-0.92695,0.85103,0.52233