Folder: fsri_materials_database/01_Data/Gypsum_Wallboard_Gypsum_Core/STA/N2/3K_min

Note: 01_Data/README.md
# Materials and Products Database
## 01_Data

Raw data generated from each apparatus are included here in plain-text format. The data is organized first by material, next by the short name of test apparatus used, and where applicable additional filtering by test settings.

### material.json

Each material directory contains a json file of the same name as the material. This file links the data stored in the repository as well as data and graphs produced by the accompanying scripts (__02_Scripts__) to the respective landing page for the material on the front-end website.

File: Gypsum_Wallboard_Gypsum_Core_STA_N2_3KData_220221_R1.csv
##Temp./Â°C,Time/min,Mass loss(subtr.2)/mg,DSC(subtr.2)/(mW/mg),Sensit./(uV/mW)
50.093,10.0158,-0.06286,0.01788343,1.04802
53.893,12.52489,-0.07323266,0.06185486,1.04634
57.693,13.9347,-0.0812536,0.06728824,1.04467
61.493,15.2737,-0.08613221,0.07103247,1.04301
65.293,16.57553,-0.0916915,0.07896716,1.04135
69.093,17.8665,-0.09697503,0.09011579,1.0397
72.893,19.13975,-0.1034,0.10504,1.03806
76.693,20.4139,-0.11159,0.13302,1.03642
80.493,21.68562,-0.12349,0.16842,1.0348
84.293,22.9626,-0.13976,0.22031,1.03317
88.093,24.2415,-0.16017,0.30008,1.03156
91.893,25.5171,-0.18946,0.39895,1.02995
95.693,26.7838,-0.22698,0.51116,1.02835
99.493,28.0515,-0.27851,0.62764,1.02675
103.293,29.32599,-0.34279,0.81754,1.02516
107.093,30.6015,-0.43107,1.04182,1.02357
110.893,31.87012,-0.53162,1.15258,1.02199
114.693,33.1331,-0.63525,1.22838,1.02041
118.493,34.38084,-0.72373,1.04415,1.01884
122.293,35.5895,-0.77066,0.26971,1.01727
126.093,36.7948,-0.7812,0.11412,1.01571
129.893,38.02564,-0.78547,0.08248345,1.01415
133.693,39.27035,-0.78843,0.06531901,1.01259
137.493,40.51432,-0.79074,0.05961798,1.01104
141.293,41.763,-0.79496,0.05550522,1.00949
145.093,43.004,-0.79733,0.05249553,1.00795
148.893,44.24481,-0.79884,0.0522026,1.0064
152.693,45.4895,-0.80017,0.04802089,1.00486
156.493,46.7314,-0.80214,0.04604903,1.00332
160.293,47.96767,-0.80453,0.04408838,1.00179
164.093,49.20364,-0.80541,0.04571831,1.00025
167.893,50.45022,-0.80774,0.04335399,0.99872
171.693,51.6881,-0.80807,0.04443742,0.99718
175.493,52.92514,-0.80971,0.04147763,0.99565
179.293,54.16256,-0.81172,0.04410519,0.99412
183.093,55.40185,-0.81103,0.0438616,0.99259
186.893,56.6425,-0.81376,0.04000905,0.99105
190.693,57.87956,-0.81192,0.04518187,0.98952
194.493,59.10909,-0.81559,0.04619737,0.98799
198.293,60.34656,-0.81558,0.04114558,0.98645
202.093,61.58036,-0.81764,0.04421482,0.98492
205.893,62.81876,-0.81827,0.03935086,0.98338
209.693,64.05982,-0.81947,0.04076572,0.98184
213.493,65.29171,-0.81925,0.04076181,0.9803
217.293,66.52723,-0.82112,0.03870463,0.97876
221.093,67.76175,-0.82278,0.04113612,0.97722
224.893,68.99286,-0.82035,0.03643961,0.97567
228.693,70.23043,-0.82232,0.03666597,0.97412
232.493,71.4684,-0.82496,0.03460027,0.97256
236.293,72.70558,-0.82334,0.03184325,0.971
240.093,73.94283,-0.82381,0.03180971,0.96944
243.893,75.17659,-0.82364,0.0313802,0.96787
247.693,76.40905,-0.82628,0.03085084,0.9663
251.493,77.6489,-0.82726,0.02962252,0.96472
255.293,78.88441,-0.82764,0.0255946,0.96314
259.093,80.11402,-0.82584,0.02253619,0.96155
262.893,81.35146,-0.82549,0.01965641,0.95996
266.693,82.59,-0.8298,0.02374733,0.95836
270.493,83.82826,-0.82883,0.02061689,0.95675
274.293,85.06495,-0.82718,0.02115077,0.95514
278.093,86.30123,-0.83012,0.01872789,0.95352
281.893,87.5317,-0.83078,0.01988074,0.95189
285.693,88.76134,-0.82975,0.02125144,0.95026
289.493,90.00078,-0.8301,0.02021238,0.94861
293.293,91.24628,-0.83127,0.02041164,0.94696
297.093,92.4858,-0.83112,0.0201377,0.9453
300.893,93.7158,-0.8311,0.02106122,0.94363
304.693,94.95182,-0.8311,0.01903881,0.94196
308.493,96.1972,-0.83142,0.01662542,0.94027
312.293,97.43202,-0.83142,0.01779563,0.93857
316.093,98.67179,-0.83274,0.01709852,0.93687
319.893,99.91646,-0.83142,0.01720357,0.93515
323.693,101.16,-0.83505,0.0152388,0.93342
327.493,102.407,-0.83302,0.01353791,0.93169
331.293,103.6555,-0.83505,0.012803,0.92994
335.093,104.894,-0.83439,0.006910975,0.92818
338.893,106.144,-0.83604,0.00644467,0.92641
342.693,107.382,-0.83505,0.001231195,0.92463
346.493,108.624,-0.83742,-0.005671301,0.92283
350.293,109.867,-0.83736,-0.009509469,0.92102
354.093,111.115,-0.83702,-0.01625261,0.91921
357.893,112.355,-0.83801,-0.02064081,0.91737
361.693,113.615,-0.83834,-0.02590802,0.91553
365.493,114.861,-0.839,-0.02423071,0.91367
369.293,116.106,-0.84064,-0.02327902,0.9118
373.093,117.3502,-0.83933,-0.01671494,0.90991
376.893,118.596,-0.84031,-0.01288873,0.90801
380.693,119.843,-0.84065,-0.01010778,0.9061
384.493,121.099,-0.83834,-0.008170165,0.90417
388.293,122.353,-0.84032,-0.00129546,0.90223
392.093,123.6086,-0.84126,-0.00264404,0.90028
395.893,124.859,-0.84099,0.00371792,0.8983
399.693,126.109,-0.84115,0.0032701,0.89632
403.493,127.359,-0.84229,0.003857997,0.89431
407.293,128.601,-0.83929,0.00497624,0.8923
411.093,129.857,-0.8406,0.004213474,0.89026
414.893,131.114,-0.83965,0.00711878,0.88821
418.693,132.362,-0.83966,0.007611665,0.88615
422.493,133.6193,-0.84044,0.00596746,0.88407
426.293,134.885,-0.84032,0.00196438,0.88197
430.093,136.139,-0.84072,0.00331415,0.87985
433.893,137.396,-0.8423,0.00361417,0.87772
437.693,138.653,-0.8423,0.001435,0.87557
441.493,139.916,-0.84098,0.001319896,0.87341
445.293,141.177,-0.84125,0.00491121,0.87122
449.093,142.432,-0.84196,0.004796335,0.86902
452.893,143.695,-0.84232,0.002240564,0.8668
456.693,144.9492,-0.84295,0.00503632,0.86457
460.493,146.2096,-0.84295,0.00314595,0.86231
464.293,147.469,-0.84395,0.003109662,0.86004
468.093,148.727,-0.84263,0.003166958,0.85775
471.893,149.991,-0.8446,0.0009222662,0.85544
475.693,151.25,-0.84518,0.001459328,0.85311
479.493,152.512,-0.84293,0.0007294678,0.85077
483.293,153.779,-0.84503,-0.002328157,0.84841
487.093,155.0404,-0.8459,-0.00143346,0.84602
490.893,156.303,-0.84656,-0.00142473,0.84362
494.693,157.568,-0.84665,-0.003798427,0.8412
498.493,158.834,-0.84629,-0.004115901,0.83876
502.293,160.096,-0.84769,-0.00287213,0.8363
506.093,161.354,-0.85034,-0.0007070766,0.83383
509.893,162.614,-0.85019,-0.000338863,0.83133
513.693,163.884,-0.85019,-0.0013251,0.82881
517.493,165.154,-0.85152,0.00154144,0.82628
521.293,166.418,-0.8515,-0.001461052,0.82372
525.093,167.685,-0.85158,-0.00270654,0.82115
528.893,168.957,-0.85316,-0.00331498,0.81856
532.693,170.221,-0.85321,-0.004743366,0.81594
536.493,171.486,-0.85249,-0.00522317,0.81331
540.293,172.749,-0.85348,-0.007692099,0.81066
544.093,174.017,-0.8545,-0.006312248,0.80799
547.893,175.292,-0.8544,-0.00533332,0.8053
551.693,176.573,-0.8564,-0.008242324,0.80259
555.493,177.8423,-0.85874,-0.003270527,0.79986
559.293,179.111,-0.85999,-0.008648543,0.79711
563.093,180.384,-0.86072,-0.007182239,0.79434
566.893,181.651,-0.86069,-0.009119836,0.79155
570.693,182.926,-0.86368,-0.005345319,0.78874
574.493,184.205,-0.86403,-0.002521516,0.78592
578.293,185.48,-0.86598,-0.005308265,0.78307
582.093,186.746,-0.86796,-0.002416826,0.7802
585.893,188.017,-0.86928,0.0009047966,0.77732
589.693,189.3,-0.87026,-0.0003317975,0.77441
593.493,190.577,-0.87396,0.000806554,0.77149
597.293,191.848,-0.87488,0.002217415,0.76855
601.093,193.129,-0.87947,0.005895718,0.76558
604.893,194.405,-0.88243,0.007780316,0.7626
608.693,195.685,-0.88509,0.005133612,0.7596
612.493,196.9493,-0.88835,0.01026497,0.75658
616.293,198.2349,-0.89066,0.009364572,0.75354
620.093,199.508,-0.89366,0.01128844,0.75049
623.893,200.787,-0.89653,0.007084544,0.74741
627.693,202.067,-0.90152,0.01038178,0.74432
631.493,203.3407,-0.90381,0.0118152,0.7412
635.293,204.618,-0.90908,0.01148966,0.73807
639.093,205.896,-0.9143,0.009987281,0.73492
642.893,207.176,-0.91697,0.009562384,0.73176
646.693,208.4609,-0.92263,0.007179926,0.72857
650.493,209.743,-0.9249,0.004628098,0.72537
654.293,211.022,-0.9316,0.000309706,0.72215
658.093,212.294,-0.93276,-0.003085309,0.71891
661.893,213.58,-0.93639,-0.01048808,0.71565
665.693,214.86,-0.94232,-0.0149004,0.71238
669.493,216.137,-0.94488,-0.02316873,0.70909
673.293,217.422,-0.9466,-0.02933415,0.70578
677.093,218.707,-0.94858,-0.03463861,0.70246
680.893,219.984,-0.95088,-0.03897036,0.69912
684.693,221.266,-0.95219,-0.04069472,0.69576
688.493,222.551,-0.95286,-0.04930793,0.69239
692.293,223.834,-0.95417,-0.0512533,0.689
696.093,225.118,-0.95287,-0.05722793,0.6856
699.893,226.403,-0.95383,-0.05227412,0.68218
703.693,227.692,-0.95468,-0.05737184,0.67874
707.493,228.973,-0.95614,-0.06145476,0.67529
711.293,230.251,-0.95811,-0.06104603,0.67182
715.093,231.545,-0.95716,-0.05951798,0.66834
718.893,232.831,-0.95909,-0.06203848,0.66484
722.693,234.111,-0.95981,-0.06358142,0.66133
726.493,235.393,-0.95845,-0.06420204,0.65781
730.293,236.6775,-0.96075,-0.06245075,0.65427
734.093,237.954,-0.9598,-0.06582323,0.65072
737.893,239.245,-0.96075,-0.06506033,0.64715
741.693,240.5349,-0.96142,-0.06321704,0.64357
745.493,241.812,-0.9614,-0.06768307,0.63998
749.293,243.1,-0.96208,-0.06671386,0.63637
753.093,244.391,-0.96088,-0.07491839,0.63275
756.893,245.6737,-0.9617,-0.07202632,0.62912
760.693,246.961,-0.96239,-0.06837389,0.62548
764.493,248.257,-0.9624,-0.06973744,0.62183
768.293,249.544,-0.96311,-0.07002894,0.61816
772.093,250.83,-0.96239,-0.07023386,0.61448
775.893,252.104,-0.96314,-0.0793919,0.6108
779.693,253.3974,-0.96204,-0.07674532,0.6071
783.493,254.695,-0.96074,-0.08126352,0.60339
787.293,255.979,-0.96174,-0.0870082,0.59967
791.093,257.263,-0.96174,-0.08650587,0.59594
794.893,258.555,-0.96173,-0.09004776,0.5922
798.693,259.845,-0.96174,-0.09192413,0.58845
802.493,261.134,-0.96075,-0.09443136,0.58469
806.293,262.419,-0.95965,-0.09181405,0.58093
810.093,263.705,-0.96108,-0.09704009,0.57715
813.893,264.997,-0.96173,-0.09965938,0.57337
817.693,266.288,-0.95887,-0.1018,0.56957
821.493,267.576,-0.95844,-0.10733,0.56578
825.293,268.868,-0.95845,-0.11094,0.56197
829.093,270.159,-0.9574,-0.11192,0.55816
832.893,271.455,-0.95779,-0.11091,0.55434
836.693,272.739,-0.95746,-0.11594,0.55051
840.493,274.029,-0.95926,-0.1169,0.54668
844.293,275.322,-0.95975,-0.12525,0.54284
848.093,276.616,-0.95943,-0.12925,0.53899
851.893,277.8917,-0.96108,-0.13273,0.53514
855.693,279.189,-0.96108,-0.13678,0.53129
859.493,280.491,-0.96107,-0.14137,0.52743
863.293,281.78,-0.96237,-0.14197,0.52357
867.093,283.068,-0.96109,-0.14931,0.5197
870.893,284.366,-0.96239,-0.15041,0.51583
874.693,285.667,-0.96371,-0.15645,0.51195
878.493,286.95,-0.96308,-0.16114,0.50807
882.293,288.232,-0.96371,-0.16675,0.50419
886.093,289.5298,-0.96269,-0.18412,0.50031
889.893,290.828,-0.9624,-0.1769,0.49643
893.693,292.112,-0.9647,-0.18223,0.49254
897.193,293.307,-0.96503,-0.19123,0.48896