Folder: fsri_materials_database/01_Data/Polyester_Microfiber_81A/MCC

Note: 01_Data/README.md
# Materials and Products Database
## 01_Data

Raw data generated from each apparatus are included here in plain-text format. The data is organized first by material, next by the short name of test apparatus used, and where applicable additional filtering by test settings.

### material.json

Each material directory contains a json file of the same name as the material. This file links the data stored in the repository as well as data and graphs produced by the accompanying scripts (__02_Scripts__) to the respective landing page for the material on the front-end website.

File: Polyester_Microfiber_81A_MCC_30K_min_220228_R2.txt
Sample ID:	C:\MCC\MCC Cal\Test\Polyester_Microfiber_81A_MCC_30K_min_220228_R2.txt
Sample Weight (mg):	4.24
Heating Rate (C/s):	0.5
Combustor Temp (C):	900
N2 Flow Rate (cc/min):	80
O2 Flow Rate (cc/min):	20
Calibration File:	C:\MCC\MCC Cal\Coeff1 JN10440_30_210304.txt.txt
T Correction Coefficients:	0	1.024463	0
Time Shift (s):	14
*
Time (s)	Temperature (C)	N2 flow rate (cc/min)	O2 flow rate (cc/min)	Flow Rate (cc/min)	Oxygen (%)	HRR (W/g)	Heating rate (C/s)
0.000	112.856	80.009	19.994	103.791	20.024	-0.329	0.077
7.500	113.298	80.008	19.992	103.795	20.024	-0.333	0.078
15.000	113.741	80.007	19.994	103.832	20.017	0.169	0.071
22.500	114.230	80.009	19.992	103.859	20.012	0.596	0.083
30.000	114.851	80.010	19.993	103.925	20.000	1.491	0.094
37.501	115.811	80.010	19.992	103.952	19.989	2.374	0.133
45.000	117.129	80.010	19.993	103.926	19.984	2.705	0.237
52.501	118.780	80.011	19.995	103.991	19.985	2.659	0.237
60.000	120.751	80.010	19.993	104.015	19.984	2.691	0.291
67.500	123.068	80.009	19.993	104.075	19.977	3.286	0.316
75.000	125.648	80.007	19.994	104.024	19.973	3.540	0.360
82.501	128.383	80.007	19.996	104.027	19.974	3.503	0.355
90.000	131.375	80.007	19.994	104.030	19.971	3.708	0.404
97.500	134.624	80.007	19.994	104.031	19.973	3.603	0.442
105.001	137.968	80.008	19.992	104.025	19.968	3.922	0.449
112.500	141.489	80.010	19.994	104.025	19.968	3.924	0.470
120.000	145.143	80.011	19.993	104.023	19.966	4.082	0.513
127.501	148.870	80.009	19.993	104.018	19.970	3.800	0.517
135.000	152.611	80.011	19.992	103.998	19.969	3.885	0.504
142.500	156.375	80.011	19.993	104.000	19.973	3.579	0.507
150.000	160.190	80.008	19.995	103.989	19.972	3.635	0.495
157.500	164.022	80.009	19.994	103.982	19.967	4.008	0.528
165.000	167.801	80.009	19.993	103.985	19.971	3.724	0.470
172.500	171.591	80.006	19.995	103.982	19.973	3.574	0.520
180.000	175.372	80.007	19.995	103.960	19.976	3.369	0.500
187.500	179.026	80.007	19.993	103.954	19.973	3.550	0.469
195.000	182.822	80.011	19.994	103.961	19.971	3.709	0.514
202.500	186.542	80.010	19.991	103.945	19.972	3.680	0.534
210.000	190.236	80.010	19.992	103.950	19.974	3.515	0.492
217.500	193.906	80.011	19.993	103.948	19.974	3.515	0.517
225.000	197.608	80.010	19.993	103.946	19.982	2.915	0.501
232.500	201.313	80.008	19.994	103.948	19.977	3.247	0.500
240.000	205.039	80.010	19.993	103.939	19.981	2.939	0.526
247.500	208.746	80.004	19.994	103.943	19.981	2.931	0.532
255.000	212.447	80.008	19.995	103.944	19.983	2.841	0.484
262.500	216.161	80.008	19.994	103.933	19.978	3.223	0.465
270.000	219.860	80.006	19.994	103.920	19.976	3.372	0.469
277.500	223.658	80.010	19.994	103.942	19.980	3.018	0.531
285.000	227.385	80.008	19.994	103.917	19.979	3.072	0.508
292.500	231.277	80.009	19.994	103.921	19.981	2.948	0.557
300.000	235.067	80.009	19.992	103.850	19.978	3.153	0.495
307.500	238.868	80.009	19.994	103.933	19.982	2.874	0.483
315.000	242.602	80.008	19.994	103.905	19.987	2.534	0.531
322.500	246.327	80.008	19.993	103.907	19.982	2.893	0.498
330.000	250.104	80.008	19.994	103.832	19.979	3.136	0.513
337.500	253.857	80.009	19.993	103.906	19.984	2.707	0.513
345.000	257.506	80.008	19.993	103.899	19.984	2.692	0.465
352.500	261.167	80.007	19.994	103.900	19.986	2.574	0.469
360.000	264.852	80.011	19.993	103.892	19.983	2.819	0.509
367.500	268.543	80.010	19.995	103.889	19.985	2.648	0.465
375.000	272.305	80.007	19.994	103.895	19.981	2.935	0.495
382.500	276.082	80.010	19.996	103.889	19.980	3.004	0.489
390.000	279.811	80.011	19.993	103.887	19.983	2.838	0.523
397.500	283.589	80.009	19.994	103.878	19.981	2.944	0.523
405.000	287.310	80.008	19.993	103.887	19.982	2.881	0.532
412.500	291.095	80.009	19.995	103.881	19.980	3.027	0.503
420.000	294.834	80.008	19.992	103.881	19.978	3.217	0.517
427.500	298.568	80.009	19.993	103.892	19.974	3.496	0.473
435.000	302.325	80.009	19.992	103.871	19.978	3.220	0.491
442.500	306.066	80.010	19.992	103.889	19.977	3.292	0.522
450.000	309.852	80.008	19.992	103.876	19.975	3.450	0.490
457.500	313.805	80.009	19.993	103.868	19.972	3.672	0.520
465.000	317.467	80.011	19.995	103.869	19.972	3.654	0.447
472.500	321.175	80.010	19.996	103.873	19.968	3.925	0.501
480.001	324.930	80.009	19.993	103.869	19.968	3.943	0.458
487.500	328.630	80.007	19.994	103.870	19.963	4.341	0.504
495.000	332.369	80.009	19.994	103.872	19.960	4.579	0.492
502.500	336.084	80.009	19.994	103.868	19.958	4.745	0.482
510.000	339.827	80.008	19.993	103.871	19.950	5.318	0.504
517.500	343.559	80.010	19.994	103.871	19.945	5.681	0.498
525.000	347.381	80.011	19.994	103.875	19.940	6.101	0.532
532.500	351.186	80.009	19.994	103.878	19.933	6.627	0.517
540.000	355.038	80.008	19.994	103.874	19.926	7.196	0.498
547.500	358.908	80.010	19.993	103.876	19.914	8.061	0.505
555.000	362.742	80.011	19.992	103.879	19.905	8.736	0.517
562.500	366.593	80.008	19.993	103.876	19.891	9.801	0.533
570.000	370.488	80.008	19.994	103.876	19.874	11.098	0.532
577.500	374.331	80.009	19.993	103.895	19.859	12.303	0.550
585.000	378.277	80.009	19.993	103.902	19.830	14.493	0.529
592.500	382.260	80.009	19.994	103.904	19.811	15.949	0.502
600.000	386.161	80.009	19.993	103.918	19.791	17.526	0.531
607.500	390.115	80.009	19.993	103.926	19.753	20.382	0.484
615.000	394.032	80.011	19.993	103.944	19.708	23.845	0.521
622.500	397.740	80.009	19.992	103.984	19.643	28.863	0.465
630.000	401.426	80.011	19.993	104.005	19.555	35.550	0.516
637.500	405.230	80.012	19.994	104.039	19.407	46.964	0.509
645.000	409.010	80.010	19.994	103.963	19.307	54.587	0.501
652.500	412.819	80.009	19.994	104.160	19.215	61.725	0.447
660.000	416.561	80.010	19.994	104.167	19.064	73.295	0.492
667.500	420.289	80.010	19.995	104.242	18.859	89.167	0.506
675.000	424.048	80.009	19.993	104.291	18.663	104.215	0.477
682.500	427.811	80.007	19.993	104.425	18.409	123.886	0.470
690.000	431.601	80.008	19.993	104.455	18.205	139.615	0.480
697.500	435.425	80.011	19.994	104.528	18.041	152.321	0.499
705.000	439.175	80.009	19.993	104.575	17.906	162.716	0.463
712.500	442.982	80.011	19.993	104.579	17.800	170.835	0.468
720.000	446.729	80.012	19.993	104.674	17.799	170.901	0.475
727.500	450.533	80.010	19.993	104.605	17.929	160.745	0.496
735.000	454.331	80.008	19.994	104.509	18.194	140.156	0.503
742.500	458.160	80.009	19.994	104.413	18.555	112.374	0.529
750.001	462.008	80.008	19.994	104.297	18.966	80.760	0.513
757.500	465.818	80.008	19.994	104.182	19.290	55.858	0.547
765.000	469.614	80.007	19.995	104.076	19.503	39.522	0.522
772.500	473.459	80.008	19.995	104.021	19.643	28.772	0.511
780.000	477.395	80.011	19.993	103.979	19.738	21.513	0.504
787.500	481.355	80.009	19.993	103.937	19.809	16.116	0.536
795.000	485.272	80.010	19.993	103.904	19.862	12.017	0.538
802.500	489.162	80.012	19.993	103.878	19.902	8.990	0.510
810.000	493.044	80.010	19.993	103.867	19.919	7.712	0.524
817.500	496.928	80.008	19.992	103.860	19.936	6.360	0.519
825.000	500.745	80.010	19.995	103.837	19.943	5.872	0.516
832.500	504.552	80.010	19.994	103.845	19.949	5.435	0.489
840.000	508.436	80.010	19.994	103.827	19.956	4.893	0.511
847.500	512.306	80.008	19.994	103.831	19.954	5.033	0.497
855.000	516.197	80.008	19.993	103.827	19.958	4.685	0.497
862.500	520.061	80.010	19.995	103.825	19.956	4.845	0.518
870.000	523.932	80.011	19.994	103.827	19.952	5.174	0.516
877.500	527.758	80.011	19.993	103.827	19.954	4.993	0.508
885.000	531.560	80.011	19.992	103.828	19.957	4.785	0.502
892.500	535.387	80.011	19.993	103.829	19.952	5.161	0.526
900.001	539.167	80.011	19.992	103.825	19.952	5.162	0.493
907.500	542.903	80.011	19.993	103.826	19.955	4.964	0.503
915.000	546.680	80.009	19.993	103.819	19.951	5.220	0.525
922.500	550.548	80.009	19.994	103.816	19.951	5.247	0.507
930.000	554.458	80.008	19.994	103.822	19.953	5.091	0.539
937.500	558.385	80.008	19.993	103.827	19.950	5.330	0.545
945.000	562.320	80.011	19.993	103.823	19.952	5.166	0.536
952.500	566.240	80.009	19.996	103.829	19.947	5.579	0.513
960.000	570.137	80.012	19.995	103.823	19.950	5.313	0.504
967.500	573.997	80.011	19.994	103.817	19.945	5.738	0.519
975.000	577.870	80.011	19.993	103.815	19.948	5.469	0.485
982.500	581.689	80.010	19.993	103.799	19.952	5.132	0.538
990.000	585.486	80.008	19.994	103.805	19.947	5.544	0.495
997.500	589.297	80.009	19.993	103.819	19.950	5.288	0.508
1005.000	593.067	80.010	19.993	103.819	19.950	5.290	0.469
1012.500	596.942	80.009	19.993	103.826	19.947	5.550	0.492
1020.000	600.728	80.008	19.993	103.827	19.948	5.442	0.491
1027.500	604.499	80.011	19.994	103.817	19.944	5.780	0.492
1035.000	608.305	80.010	19.994	103.809	19.948	5.499	0.493
1042.500	612.117	80.010	19.993	103.818	19.943	5.875	0.536
1050.001	616.005	80.012	19.994	103.821	19.944	5.758	0.525
1057.500	619.909	80.011	19.995	103.804	19.946	5.623	0.537
1065.001	623.856	80.010	19.994	103.793	19.942	5.904	0.522
1072.501	627.852	80.009	19.994	103.805	19.947	5.558	0.533
1080.000	631.780	80.009	19.994	103.795	19.944	5.805	0.543
1087.501	635.666	80.008	19.994	103.804	19.945	5.739	0.492
1095.000	639.517	80.009	19.993	103.791	19.946	5.645	0.513
1102.500	643.300	80.010	19.993	103.797	19.949	5.376	0.486
1110.000	647.038	80.011	19.993	103.796	19.950	5.292	0.495
1117.500	650.821	80.010	19.993	103.794	19.952	5.179	0.520
1125.000	654.593	80.010	19.994	103.797	19.948	5.444	0.524
1132.500	658.377	80.011	19.993	103.807	19.952	5.166	0.529
1140.000	662.121	80.012	19.992	103.790	19.946	5.602	0.533
1147.500	665.967	80.007	19.994	103.790	19.954	4.987	0.508
1155.001	669.817	80.008	19.995	103.791	19.951	5.262	0.488
1162.500	673.747	80.009	19.994	103.787	19.951	5.243	0.533
1170.000	677.612	80.010	19.992	103.788	19.950	5.358	0.489
1177.500	681.493	80.010	19.993	103.793	19.950	5.354	0.500
1185.001	685.320	80.010	19.993	103.788	19.949	5.433	0.490
1192.500	689.212	80.011	19.993	103.791	19.946	5.626	0.531
1200.000	692.898	80.012	19.993	103.792	19.948	5.458	0.492
1207.501	696.680	80.010	19.994	103.792	19.948	5.460	0.495
1215.000	700.353	80.012	19.993	103.792	19.952	5.195	0.504
1222.500	704.051	80.012	19.993	103.790	19.948	5.495	0.482
1230.001	707.859	80.010	19.993	103.792	19.950	5.343	0.475
1237.500	711.695	80.011	19.994	103.794	19.948	5.452	0.549
1245.000	715.576	80.011	19.993	103.796	19.948	5.501	0.522
1252.500	719.521	80.009	19.995	103.787	19.951	5.241	0.529
1260.000	723.438	80.011	19.995	103.788	19.950	5.358	0.510
1267.500	727.334	80.009	19.994	103.794	19.948	5.464	0.502
1275.001	731.178	80.013	19.992	103.791	19.950	5.287	0.505
1282.500	735.024	80.010	19.992	103.791	19.943	5.868	0.497
1290.000	738.814	80.010	19.992	103.792	19.944	5.809	0.501
1297.500	742.592	80.011	19.993	103.790	19.946	5.632	0.543
1299.500	743.531	80.012	19.994	103.789	19.947	5.547	0.519