Folder: fsri_materials_database/01_Data/Polyester_Batting/FTIR/ATR

Note: 01_Data/README.md
# Materials and Products Database
## 01_Data

Raw data generated from each apparatus are included here in plain-text format. The data is organized first by material, next by the short name of test apparatus used, and where applicable additional filtering by test settings.

### material.json

Each material directory contains a json file of the same name as the material. This file links the data stored in the repository as well as data and graphs produced by the accompanying scripts (__02_Scripts__) to the respective landing page for the material on the front-end website.

File: Polyester_Batting_ATR_210608_R5.tst
4497.79,-0.00555
4484.29,-0.00519
4470.79,-0.00513
4457.29,-0.00516
4443.79,-0.00486
4430.28,-0.00489
4416.78,-0.00473
4403.28,-0.00459
4389.78,-0.00463
4376.28,-0.00465
4362.78,-0.00451
4349.28,-0.00447
4335.78,-0.00435
4322.28,-0.00417
4308.77,-0.00412
4295.27,-0.00420
4281.77,-0.00418
4268.27,-0.00386
4254.77,-0.00398
4241.27,-0.00402
4227.77,-0.00409
4214.27,-0.00397
4200.77,-0.00355
4187.26,-0.00359
4173.76,-0.00371
4160.26,-0.00361
4146.76,-0.00363
4133.26,-0.00331
4119.76,-0.00326
4106.26,-0.00293
4092.76,-0.00313
4079.26,-0.00283
4065.75,-0.00311
4052.25,-0.00282
4038.75,-0.00285
4025.25,-0.00250
4011.75,-0.00241
3998.25,-0.00248
3984.75,-0.00216
3971.25,-0.00144
3957.75,-0.00121
3944.25,-0.00006
3930.74,0.00121
3917.24,0.00093
3903.74,0.00573
3890.24,0.00141
3876.74,0.00030
3863.24,0.00466
3849.74,0.00243
3836.24,0.00482
3822.74,0.00434
3809.23,0.00038
3795.73,0.00072
3782.23,0.00053
3768.73,0.00240
3755.23,0.00460
3741.73,0.00588
3728.23,0.00385
3714.73,0.00282
3701.23,0.00089
3687.72,0.00355
3674.22,0.00577
3660.72,0.00038
3647.22,0.00622
3633.72,0.00245
3620.22,0.00539
3606.72,0.00265
3593.22,0.00227
3579.72,0.00107
3566.21,0.00680
3552.71,0.00186
3539.21,0.00004
3525.71,0.00356
3512.21,0.00015
3498.71,0.00007
3485.21,-0.00000
3471.71,-0.00107
3458.21,-0.00065
3444.7,0.00042
3431.2,-0.00051
3417.7,-0.00064
3404.2,-0.00097
3390.7,-0.00075
3377.2,-0.00107
3363.7,-0.00052
3350.2,-0.00108
3336.7,-0.00039
3323.2,-0.00063
3309.69,-0.00018
3296.19,-0.00041
3282.69,-0.00022
3269.19,-0.00033
3255.69,-0.00005
3242.19,0.00001
3228.69,0.00013
3215.19,0.00015
3201.69,0.00030
3188.18,0.00023
3174.68,0.00038
3161.18,0.00030
3147.68,0.00061
3134.18,0.00091
3120.68,0.00136
3107.18,0.00126
3093.68,0.00150
3080.18,0.00199
3066.67,0.00210
3053.17,0.00199
3039.67,0.00159
3026.17,0.00180
3012.67,0.00255
2999.17,0.00267
2985.67,0.00321
2972.17,0.00481
2958.67,0.00531
2945.16,0.00438
2931.66,0.00440
2918.16,0.00488
2904.66,0.00456
2891.16,0.00404
2877.66,0.00380
2864.16,0.00389
2850.66,0.00423
2837.16,0.00323
2823.66,0.00302
2810.15,0.00299
2796.65,0.00298
2783.15,0.00300
2769.65,0.00302
2756.15,0.00308
2742.65,0.00309
2729.15,0.00314
2715.65,0.00310
2702.15,0.00313
2688.64,0.00324
2675.14,0.00319
2661.64,0.00333
2648.14,0.00321
2634.64,0.00312
2621.14,0.00306
2607.64,0.00297
2594.14,0.00316
2580.64,0.00331
2567.13,0.00316
2553.63,0.00318
2540.13,0.00328
2526.63,0.00328
2513.13,0.00315
2499.63,0.00335
2486.13,0.00332
2472.63,0.00337
2459.13,0.00345
2445.62,0.00331
2432.12,0.00365
2418.62,0.00366
2405.12,0.00390
2391.62,0.00404
2378.12,0.00454
2364.62,-0.00243
2351.12,0.00257
2337.62,-0.00089
2324.12,0.00270
2310.61,0.00516
2297.11,0.00469
2283.61,0.00441
2270.11,0.00397
2256.61,0.00399
2243.11,0.00424
2229.61,0.00409
2216.11,0.00389
2202.61,0.00354
2189.1,0.00306
2175.6,0.00291
2162.1,0.00298
2148.6,0.00366
2135.1,0.00409
2121.6,0.00376
2108.1,0.00360
2094.6,0.00415
2081.1,0.00429
2067.59,0.00491
2054.09,0.00444
2040.59,0.00506
2027.09,0.00441
2013.59,0.00483
2000.09,0.00478
1986.59,0.00581
1973.09,0.00514
1959.59,0.00573
1946.08,0.00677
1932.58,0.00569
1919.08,0.00714
1905.58,0.00561
1892.08,0.00601
1878.58,0.00501
1865.08,0.00661
1851.58,0.00539
1838.08,0.00650
1824.57,0.00765
1811.07,0.00756
1797.57,0.00881
1784.07,0.00715
1770.57,0.01016
1757.07,0.00888
1743.57,0.02004
1730.07,0.04526
1716.57,0.07357
1703.07,0.06066
1689.56,0.03631
1676.06,0.02809
1662.56,0.02110
1649.06,0.02210
1635.56,0.01848
1622.06,0.01604
1608.56,0.01541
1595.06,0.01221
1581.56,0.01303
1568.05,0.01444
1554.55,0.01769
1541.05,0.02486
1527.55,0.01793
1514.05,0.01778
1500.55,0.01815
1487.05,0.01505
1473.55,0.01996
1460.05,0.01763
1446.54,0.01691
1433.04,0.01619
1419.54,0.01631
1406.04,0.02687
1392.54,0.01729
1379.04,0.01603
1365.54,0.01600
1352.04,0.01200
1338.54,0.02846
1325.03,0.01244
1311.53,0.01947
1298.03,0.02559
1284.53,0.03696
1271.03,0.05024
1257.53,0.06106
1244.03,0.07064
1230.53,0.07091
1217.03,0.06110
1203.53,0.04331
1190.02,0.03149
1176.52,0.02756
1163.02,0.02330
1149.52,0.02413
1136.02,0.03595
1122.52,0.05406
1109.02,0.05863
1095.52,0.07406
1082.02,0.06968
1068.51,0.05636
1055.01,0.04538
1041.51,0.04584
1028.01,0.04054
1014.51,0.05996
1001.01,0.04307
987.508,0.03866
974.007,0.03966
960.506,0.03862
947.005,0.03504
933.503,0.03503
920.002,0.03279
906.501,0.03189
893,0.03349
879.499,0.03688
865.998,0.04180
852.497,0.03830
838.996,0.03867
825.495,0.03486
811.994,0.03277
798.493,0.03237
784.992,0.03152
771.49,0.02804
757.989,0.02231
744.488,0.01967
730.987,0.06129
717.486,0.08191
703.985,0.05947
690.484,0.04735
676.983,0.04353
663.482,0.04020
649.981,0.03886
636.48,0.03876
622.979,0.03461
609.477,0.03714
599.834,0.03814