Folder: fsri_materials_database/01_Data/Polyester_Batting/FTIR/IS

Note: 01_Data/README.md
# Materials and Products Database
## 01_Data

Raw data generated from each apparatus are included here in plain-text format. The data is organized first by material, next by the short name of test apparatus used, and where applicable additional filtering by test settings.

### material.json

Each material directory contains a json file of the same name as the material. This file links the data stored in the repository as well as data and graphs produced by the accompanying scripts (__02_Scripts__) to the respective landing page for the material on the front-end website.

File: Polyester_Batting_IS_REFLECT_REF_210623_R1.dpt
5996.41,0.99924
5977.12,1.00273
5957.84,1.00781
5938.55,1.01128
5919.26,1.01055
5899.97,1.00672
5880.69,1.00608
5861.4,1.00877
5842.11,1.00313
5822.82,1.01459
5803.54,1.00858
5784.25,1.00935
5764.96,1.00551
5745.68,1.00904
5726.39,1.01250
5707.1,1.00312
5687.81,1.00811
5668.53,1.00393
5649.24,1.00281
5629.95,1.01001
5610.66,1.00797
5591.38,1.00853
5572.09,1.00630
5552.8,1.00313
5533.52,1.00809
5514.23,1.00410
5494.94,1.00242
5475.65,1.00292
5456.37,1.00743
5437.08,1.00309
5417.79,1.00905
5398.5,1.00808
5379.22,1.00754
5359.93,1.00158
5340.64,1.00723
5321.36,1.00109
5302.07,1.00685
5282.78,1.01174
5263.49,1.00601
5244.21,1.00411
5224.92,1.00011
5205.63,1.00774
5186.34,1.00678
5167.06,1.00650
5147.77,1.00647
5128.48,1.00328
5109.2,1.00295
5089.91,1.00599
5070.62,1.00488
5051.33,1.00726
5032.05,1.00490
5012.76,1.00408
4993.47,1.00561
4974.18,1.00604
4954.9,1.00494
4935.61,1.00143
4916.32,1.00455
4897.04,1.00441
4877.75,1.00401
4858.46,1.00612
4839.17,1.00481
4819.89,1.00672
4800.6,1.00496
4781.31,1.00540
4762.02,1.00416
4742.74,1.00392
4723.45,1.00280
4704.16,1.00418
4684.88,1.00457
4665.59,1.00440
4646.3,1.00578
4627.01,1.00557
4607.73,1.00434
4588.44,1.00485
4569.15,1.00647
4549.87,1.00647
4530.58,1.00538
4511.29,1.00049
4492,1.00343
4472.72,1.00451
4453.43,1.00323
4434.14,1.00315
4414.85,1.00348
4395.57,1.00472
4376.28,1.00425
4356.99,1.00373
4337.71,1.00317
4318.42,1.00333
4299.13,1.00533
4279.84,1.00383
4260.56,1.00336
4241.27,1.00343
4221.98,1.00222
4202.69,1.00263
4183.41,1.00290
4164.12,1.00256
4144.83,1.00262
4125.55,1.00375
4106.26,1.00167
4086.97,1.00210
4067.68,1.00329
4048.4,1.00258
4029.11,1.00318
4009.82,1.00279
3990.53,1.00285
3971.25,1.00349
3951.96,1.00265
3932.67,1.00303
3913.39,1.00265
3894.1,1.00228
3874.81,1.00153
3855.52,1.00048
3836.24,1.00146
3816.95,1.00127
3797.66,1.00171
3778.37,1.00338
3759.09,1.00232
3739.8,1.00014
3720.51,1.00021
3701.23,1.00038
3681.94,1.00002
3662.65,1.00089
3643.36,1.00024
3624.08,1.00045
3604.79,1.00241
3585.5,1.00176
3566.21,1.00176
3546.93,1.00099
3527.64,1.00114
3508.35,0.99956
3489.07,1.00075
3469.78,1.00068
3450.49,1.00144
3431.2,1.00037
3411.92,0.99964
3392.63,1.00103
3373.34,1.00223
3354.05,1.00053
3334.77,1.00048
3315.48,1.00193
3296.19,1.00138
3276.91,0.99965
3257.62,1.00116
3238.33,1.00130
3219.04,1.00018
3199.76,1.00138
3180.47,1.00043
3161.18,1.00138
3141.89,1.00117
3122.61,1.00115
3103.32,1.00121
3084.03,1.00098
3064.75,1.00118
3045.46,1.00110
3026.17,1.00171
3006.88,1.00128
2987.6,1.00167
2968.31,1.00136
2949.02,1.00236
2929.74,1.00155
2910.45,1.00109
2891.16,1.00112
2871.87,1.00078
2852.59,1.00138
2833.3,1.00176
2814.01,1.00140
2794.72,1.00164
2775.44,1.00178
2756.15,1.00206
2736.86,1.00131
2717.58,1.00128
2698.29,1.00151
2679,1.00105
2659.71,1.00125
2640.43,1.00134
2621.14,1.00152
2601.85,1.00091
2582.56,1.00148
2563.28,1.00075
2543.99,1.00172
2524.7,1.00079
2505.42,1.00128
2486.13,1.00155
2466.84,1.00085
2447.55,1.00102
2428.27,1.00131
2408.98,1.00077
2389.69,1.00080
2370.4,0.99996
2351.12,0.99922
2331.83,1.00194
2312.54,1.00201
2293.26,0.99999
2273.97,1.00112
2254.68,1.00101
2235.39,1.00065
2216.11,1.00074
2196.82,1.00063
2177.53,1.00040
2158.24,1.00046
2138.96,1.00096
2119.67,1.00021
2100.38,1.00014
2081.1,1.00095
2061.81,1.00051
2042.52,1.00143
2023.23,1.00054
2003.95,0.99994
1984.66,1.00120
1965.37,1.00026
1946.08,1.00044
1926.8,1.00040
1907.51,1.00066
1888.22,1.00057
1868.94,1.00133
1849.65,1.00063
1830.36,1.00030
1811.07,1.00044
1791.79,1.00046
1772.5,1.00006
1753.21,0.99891
1733.92,0.99944
1714.64,0.99986
1695.35,0.99818
1676.06,0.99896
1656.78,0.99894
1637.49,0.99966
1618.2,1.00006
1598.91,0.99980
1579.63,0.99918
1560.34,0.99837
1541.05,1.00154
1521.76,0.99856
1502.48,0.99823
1483.19,0.99792
1463.9,0.99819
1444.62,0.99868
1425.33,0.99932
1406.04,0.99931
1386.75,0.99887
1367.47,0.99886
1348.18,1.00058
1328.89,1.00017
1309.61,0.99971
1290.32,1.00031
1271.03,0.99988
1251.74,0.99945
1232.46,1.00011
1213.17,1.00071
1193.88,1.00104
1174.59,1.00071
1155.31,1.00066
1136.02,1.00096
1116.73,0.99889
1097.45,1.00067
1078.16,0.99886
1058.87,1.00140
1039.58,0.99989
1020.3,1.00047
1001.01,1.00021
981.722,1.00038
962.434,1.00081
943.147,0.99830
923.86,0.99966
904.573,1.00002
885.285,1.00103
865.998,0.99995
846.711,0.99859
827.424,1.00072
808.136,0.99959
788.849,0.99938
769.562,0.99855
750.274,1.00012
730.987,0.99880
711.7,0.99742
692.413,0.99965
673.125,0.99869
653.838,1.00021
634.551,0.99777
615.264,0.99952
595.976,1.00079
576.689,0.99824
557.402,0.99940
538.115,0.99732
518.827,1.00263
499.54,0.99927
480.253,1.00012
460.966,0.99575
441.678,1.00067
422.391,1.00242
403.104,1.00750
399.246,0.99575