Folder: fsri_materials_database/01_Data/OSB/Cone

Note: 01_Data/README.md
# Materials and Products Database
## 01_Data

Raw data generated from each apparatus are included here in plain-text format. The data is organized first by material, next by the short name of test apparatus used, and where applicable additional filtering by test settings.

### material.json

Each material directory contains a json file of the same name as the material. This file links the data stored in the repository as well as data and graphs produced by the accompanying scripts (__02_Scripts__) to the respective landing page for the material on the front-end website.

File: OSB_Cone_HF25Scalar_210324_R1.csv
LABORATORY,FSRI
TEST IDENT,OSB-HF25-1
OPERATOR,Morrissey
MATERIAL,5/8 inch OSB
ORIENTATION,Horizontal
HEAT FLUX,25
SURF AREA,0.01
C FACTOR,0.0386052
SPEC HOLDER DIFF,-97.5
SPECIMEN MASS,107.8
SCAN TIME,0.25
O2 DELAY TIME,11
CO DELAY TIME,11
CO2 DELAY TIME,8
FLOW FACTOR,1
SCAN COUNT,4923
TIME TO IGN,174.25
END OF TEST SCAN,4443
END OF TEST TIME,1110.75
TEST STATUS,1
PRE TEST CMT,test w/o retainer frame or grid

File: OSB_Cone_HF25Scalar_210324_R3.csv
LABORATORY,FSRI
TEST IDENT,OSB-HF25-3
OPERATOR,Morrissey
MATERIAL,5/8 inch OSB
ORIENTATION,Horizontal
HEAT FLUX,25
SURF AREA,0.01
C FACTOR,0.0386052
SPEC HOLDER DIFF,-86.9
SPECIMEN MASS,108.5
SCAN TIME,0.25
O2 DELAY TIME,11
CO DELAY TIME,11
CO2 DELAY TIME,8
FLOW FACTOR,1
SCAN COUNT,5065
TIME TO IGN,173.75
END OF TEST SCAN,4585
END OF TEST TIME,1146.25
TEST STATUS,1
PRE TEST CMT,test w/o retainer grid or frame

File: OSB_Cone_HF25Scan_210324_R1.csv
Names,Time,Stack TC,Smoke TC,Exh Press,Smoke Comp,Smoke Meas,CO Meter,CO2 Meter,O2 Meter,Sample Mass,Ext Coeff,Start Test,Flame Verif
Chan Gain,,500,500,1,1,1,1,1,1,1,1,1.0,1.0
Offset,,0,0,0.194005,0,0,0,0,0,0,0,0.0,0.0
Gain,,1,1,25.011,13.5067,16.616,1,1,1,1.00091,1.04608,1.0,1.0
Units,sec,C,C,Pa,%,%,%,%,%,g,/m,,
Baseline,,19.3885,20.7331,168.415,101.533,101.007,0.000382504,0.0554388,20.9393,-0.8044,0.0477379,,
52,12.75,17.9675,19.6398,168.907,101.171,100.603,-0.000139949,0.0560661,20.9398,576.435,0.051593,0.0,0.0
104,25.75,17.6636,19.9212,168.762,101.703,101.062,0.000332799,0.0560572,20.9423,576.275,0.0580138,0.0,0.0
156,38.75,18.1565,19.9698,165.965,101.508,100.845,0.000471077,0.0570265,20.9413,576.144,0.0601332,0.0,0.0
208,51.75,18.8407,19.7967,166.892,100.376,99.532,0.000252956,0.0574363,20.9376,575.994,0.0775186,0.0,0.0
260,64.75,18.7534,20.0041,168.197,99.897,98.889,0.000259809,0.057399,20.938,575.804,0.0930608,0.0,0.0
312,77.75,18.4116,19.9678,173.085,100.856,99.7521,0.000112015,0.055426,20.9435,575.704,0.101009,0.0,0.0
364,90.75,18.5627,19.6843,161.51,100.982,99.7019,0.000397919,0.0558234,20.9429,575.524,0.117021,0.0,0.0
416,103.75,18.9084,20.9042,167.495,101.296,99.636,0.000711769,0.0556616,20.9429,575.364,0.151625,0.0,0.0
468,116.75,18.3612,20.3762,166.582,101.122,99.4433,0.000495431,0.0564399,20.9441,575.194,0.153654,0.0,0.0
520,129.75,18.7464,19.5991,169.886,101.66,99.7932,0.000727681,0.0571217,20.9427,575.023,0.17007,0.0,0.0
572,142.75,19.3614,21.2018,166.027,100.071,97.847,0.00128181,0.0624107,20.9363,574.783,0.20623,0.0,0.0
624,155.75,19.3486,21.3453,163.841,100.336,97.8642,0.00163538,0.0646712,20.934,574.623,0.228885,0.0,0.0
676,168.75,19.2994,21.1764,167.932,101.151,97.6082,0.00147809,0.060828,20.9393,574.273,0.327115,0.0,0.0
728,181.75,24.8078,30.8217,152.476,100.503,99.2993,0.00216095,0.299018,20.647,573.332,0.110562,0.0,1.0
780,194.75,35.8265,46.863,152.623,101.467,100.52,0.00341341,0.44996,20.4866,571.45,0.0861052,0.0,0.0
832,207.75,40.1992,51.946,149.234,101.235,100.177,0.00391933,0.452155,20.484,569.578,0.0964029,0.0,0.0
884,220.75,41.8336,52.6247,149.967,101.254,101.425,0.0033723,0.431071,20.5069,567.797,-0.0155188,0.0,0.0
936,233.75,42.6801,53.5976,153.61,101.698,100.429,0.00339176,0.411365,20.5297,566.025,0.115245,0.0,0.0
988,246.75,42.6279,52.7147,149.235,101.777,100.969,0.0029243,0.396104,20.5503,564.414,0.0731821,0.0,0.0
1040,259.75,42.7529,52.5244,153.723,101.385,100.412,0.00294618,0.383025,20.5645,562.762,0.0885117,0.0,0.0
1092,272.75,42.1322,50.8886,152.515,100.786,100.099,0.00277714,0.352574,20.6034,561.261,0.0627432,0.0,0.0
1144,285.75,42.2165,50.0899,151.753,100.254,100.248,0.00242647,0.333122,20.6216,559.85,0.000509733,0.0,0.0
1196,298.75,41.4041,48.4609,154.525,100.001,100.599,0.00244394,0.32244,20.6325,558.468,-0.0547178,0.0,0.0
1248,311.75,41.5967,48.0054,152.76,100.019,99.6608,0.00253409,0.30681,20.653,557.127,0.0328864,0.0,0.0
1300,324.75,40.4273,46.6152,152.637,100.158,100.301,0.00224015,0.289831,20.6703,555.866,-0.013073,0.0,0.0
1352,337.75,39.2941,45.1806,155.642,100.456,100.53,0.0023437,0.276763,20.6861,554.695,-0.00680207,0.0,0.0
1404,350.75,38.9531,44.8055,154.975,100.788,100.615,0.00197914,0.268934,20.6985,553.474,0.0158148,0.0,0.0
1456,363.75,38.6233,43.974,155.416,101.042,101.3,0.00192898,0.260271,20.7088,552.303,-0.0234098,0.0,0.0
1508,376.75,38.8152,43.1992,158.21,101.175,101.951,0.00216242,0.255705,20.7132,551.212,-0.0701152,0.0,0.0
1560,389.75,38.2638,42.3167,158.847,101.259,101.595,0.00185629,0.250956,20.7159,550.131,-0.0304351,0.0,0.0
1612,402.75,37.6585,42.1436,159.54,101.305,101.591,0.00210713,0.24698,20.7198,549.04,-0.0258771,0.0,0.0
1664,415.75,36.8683,41.1659,157.493,101.32,102.199,0.00187509,0.244086,20.7226,548.019,-0.0792112,0.0,0.0
1716,428.75,37.2736,41.1946,157.344,101.329,101.947,0.00168116,0.240714,20.7286,546.938,-0.0558172,0.0,0.0
1768,441.75,37.2522,41.0884,156.733,101.32,101.459,0.00160851,0.238359,20.7318,545.937,-0.0126173,0.0,0.0
1820,454.75,37.1977,41.0147,157.417,101.323,101.996,0.00186793,0.234389,20.7368,544.916,-0.0607661,0.0,0.0
1872,467.75,36.4652,40.152,154.858,101.307,101.642,0.00169163,0.23316,20.7386,543.945,-0.0302781,0.0,0.0
1924,480.75,36.1393,39.7229,158.84,101.278,101.824,0.00112632,0.230848,20.7421,542.954,-0.0493031,0.0,0.0
1976,493.75,36.2236,39.8262,160.642,101.28,101.703,0.00127305,0.228916,20.7453,542.013,-0.0382423,0.0,0.0
2028,506.75,35.7139,39.6657,155.507,101.301,102.288,0.00161708,0.226934,20.7475,541.0625,-0.0890585,0.0,0.0
2080,519.75,35.3491,38.7815,155.522,101.331,101.88,0.00143358,0.222744,20.7515,540.122,-0.049566,0.0,0.0
2132,532.75,35.3805,38.7621,158.189,101.337,102.025,0.00149606,0.220095,20.7538,539.211,-0.0620969,0.0,0.0
2184,545.75,35.4008,38.3301,153.665,101.308,102.213,0.00150974,0.219511,20.7541,538.32,-0.0816516,0.0,0.0
2236,558.75,34.6819,38.2539,152.413,101.219,101.559,0.00158115,0.218516,20.7572,537.419,-0.0307973,0.0,0.0
2288,571.75,34.8788,38.1695,156.705,101.085,101.738,0.00127234,0.217872,20.7573,536.548,-0.0591547,0.0,0.0
2340,584.75,34.9314,37.8815,161.578,100.896,101.856,0.00148983,0.216568,20.756,535.678,-0.0869209,0.0,0.0
2392,597.75,34.2493,38.0989,158,100.712,101.246,0.00130257,0.217151,20.7554,534.817,-0.0485636,0.0,0.0
2444,610.75,34.3789,37.6323,161.156,100.528,101.599,0.00153855,0.216451,20.7565,533.976,-0.0972595,0.0,0.0
2496,623.75,34.3434,37.6416,156.294,100.378,100.436,0.00134185,0.216729,20.7535,533.155,-0.00526142,0.0,0.0
2548,636.75,34.6186,37.6995,155.759,100.23,100.692,0.00152057,0.217117,20.7555,532.325,-0.0421266,0.0,0.0
2600,649.75,34.0443,37.276,162.662,100.109,101.16,0.00159258,0.21608,20.7552,531.504,-0.0958191,0.0,0.0
2652,662.75,33.9833,37.922,158.415,100.052,100.352,0.00138646,0.219572,20.7528,530.663,-0.02743,0.0,0.0
2704,675.75,34.2772,37.9234,156.489,100.059,100.559,0.00136395,0.221987,20.7481,529.862,-0.045762,0.0,0.0
2756,688.75,34.2544,38.0025,156.252,100.106,100.724,0.0016494,0.224663,20.7457,529.052,-0.0564792,0.0,0.0
2808,701.75,34.6694,38.4654,156.464,100.269,100.72,0.00152978,0.231322,20.7374,528.211,-0.0412053,0.0,0.0
2860,714.75,35.0514,38.689,158.652,100.54,101.096,0.00148866,0.235192,20.7333,527.36,-0.0506697,0.0,0.0
2912,727.75,35.1703,38.7556,159.953,100.921,101.315,0.00112553,0.240819,20.7256,526.489,-0.0357909,0.0,0.0
2964,740.75,35.7909,39.9676,157.361,101.3,101.42,0.00150356,0.248223,20.7167,525.548,-0.0108396,0.0,0.0
3016,753.75,35.6468,39.779,155.729,101.61,101.503,0.00179091,0.254742,20.7089,524.668,0.00968228,0.0,0.0
3068,766.75,36.9198,41.3915,162.02,101.827,101.735,0.0015117,0.267251,20.6966,523.687,0.00830753,0.0,0.0
3120,779.75,36.9271,41.7411,160.761,101.904,101.357,0.00193531,0.274651,20.6881,522.666,0.0493051,0.0,0.0
3172,792.75,37.4293,42.5789,156.9,101.89,101.692,0.0017546,0.286881,20.672,521.615,0.0178773,0.0,0.0
3224,805.75,38.6227,43.9869,151.734,101.761,100.46,0.00176029,0.297904,20.6588,520.494,0.118072,0.0,0.0
3276,818.75,39.2761,45.0722,152.482,101.556,100.563,0.00192604,0.310948,20.6431,519.323,0.0901453,0.0,0.0
3328,831.75,40.5212,46.0475,155.995,101.348,99.3997,0.00217233,0.3215,20.6312,518.062,0.178153,0.0,0.0
3380,844.75,41.1877,47.4416,156.49,101.188,98.7435,0.00220676,0.338715,20.6105,516.8,0.224399,0.0,0.0
3432,857.75,42.126,47.9474,152.563,101.156,99.3728,0.0025669,0.349119,20.5965,515.439,0.163227,0.0,0.0
3484,870.75,42.6706,49.2576,150.371,101.42,98.134,0.00278775,0.366874,20.5739,514.028,0.302274,0.0,0.0
3536,883.75,43.7447,50.3383,153.456,101.583,97.8947,0.00305302,0.378857,20.559,512.527,0.339362,0.0,0.0
3588,896.75,44.8487,51.3588,149.482,101.641,97.4175,0.0030523,0.390639,20.545,510.995,0.389447,0.0,0.0
3640,909.75,45.4585,53.0539,156.854,101.601,97.6087,0.0032563,0.398215,20.5365,509.474,0.367809,0.0,0.0
3692,922.75,46.4971,53.3569,145.214,101.498,95.844,0.00382709,0.407079,20.5274,507.862,0.525946,0.0,0.0
3744,935.75,46.9013,54.1384,150.838,101.308,96.7411,0.0039929,0.41503,20.5175,506.291,0.423306,0.0,0.0
3796,948.75,47.4926,55.2222,153.187,101.038,95.7091,0.00455356,0.424755,20.5025,504.649,0.497224,0.0,0.0
3848,961.75,48.2654,56.3361,146.882,100.766,93.6889,0.00543483,0.4394,20.485,502.898,0.668244,0.0,0.0
3900,974.75,49.4912,57.3527,149.818,100.707,92.871,0.0061628,0.435176,20.4845,501.236,0.74326,0.0,0.0
3952,987.75,48.7232,56.4705,150.518,100.746,92.8264,0.00601152,0.411017,20.5122,499.645,0.751238,0.0,0.0
4004,1000.75,48.0146,54.2183,151.56,100.763,94.0165,0.00451875,0.372301,20.5511,498.284,0.635916,0.0,0.0
4056,1013.75,45.9245,51.991,154.017,100.784,94.6509,0.00394821,0.323208,20.6017,497.153,0.576125,0.0,0.0
4108,1026.75,44.7156,49.3631,158.082,100.792,95.5824,0.00561009,0.296819,20.6267,496.212,0.486972,0.0,0.0
4160,1039.75,41.4161,44.394,158.055,100.766,97.1427,0.00600755,0.243283,20.6924,495.451,0.336064,0.0,0.0
4212,1052.75,38.9503,41.0072,163.387,100.782,100.445,0.00712009,0.209442,20.7348,494.901,0.0307488,0.0,0.0
4264,1065.75,36.5758,37.7921,160.457,100.756,101.224,0.00772297,0.178568,20.7744,494.47,-0.0425239,0.0,0.0
4316,1078.75,34.9557,35.4886,161.277,100.738,101.045,0.00921368,0.163689,20.7929,494.09,-0.0278601,0.0,0.0
4368,1091.75,33.1218,33.0753,160.68,100.735,100.878,0.0100503,0.151715,20.8111,493.749,-0.0130061,0.0,0.0
4420,1104.75,31.5889,31.7496,160.816,100.719,100.62,0.0101377,0.14553,20.8148,493.449,0.00908345,0.0,0.0
4472,1117.75,29.5652,29.4253,160.844,100.712,100.647,0.0108353,0.141203,20.821,493.169,0.00594877,0.0,0.0
4524,1130.75,29.0877,29.175,162.66,100.695,100.617,0.0108669,0.14017,20.8247,492.959,0.00706155,0.0,0.0
4576,1143.75,28.381,28.3539,166.295,100.743,100.462,0.0109247,0.136303,20.8289,492.749,0.0256549,0.0,0.0
4628,1156.75,27.27,26.1658,165.117,100.891,100.598,0.0061388,0.114426,20.8647,-0.880802,0.0266813,0.0,0.0
4680,1169.75,24.556,22.7453,160.661,101.057,100.652,0.000149133,0.0630183,20.9282,-0.880802,0.036913,0.0,0.0
4732,1182.75,22.6842,22.1633,164.48,101.07,100.533,0.000257044,0.0599124,20.9322,-0.860784,0.0488503,0.0,0.0
4784,1195.75,22.6193,21.568,164.193,101.104,100.556,0.000354675,0.0619237,20.9313,-0.90082,0.0497991,0.0,0.0
4836,1208.75,22.3837,21.3019,167.317,101.012,100.631,0.000430173,0.0596465,20.9334,-0.880802,0.0346814,0.0,0.0
4888,1221.75,21.5693,20.8447,164.654,100.8,100.462,,0.0582201,,-0.90082,0.0307967,0.0,0.0
4923,1230.5,21.277,20.6524,170.221,100.725,100.18,,,,-0.90082,0.0497534,0.0,0.0

File: OSB_Cone_HF25Scan_210324_R2.csv
Names,Time,Stack TC,Smoke TC,Exh Press,Smoke Comp,Smoke Meas,CO Meter,CO2 Meter,O2 Meter,Sample Mass,Ext Coeff,Start Test,Flame Verif
Chan Gain,,500,500,1,1,1,1,1,1,1,1,1.0,1.0
Offset,,0,0,0.194005,0,0,0,0,0,0,0,0.0,0.0
Gain,,1,1,25.011,13.5067,16.616,1,1,1,1.00091,1.04608,1.0,1.0
Units,sec,C,C,Pa,%,%,%,%,%,g,/m,,
Baseline,,20.0591,21.3286,168.281,101.555,101.013,0.00036083,0.0597322,20.9309,-1.03236,0.0490421,,
61,15,18.2752,19.6147,171.86,101.075,100.502,0.000755914,0.0644168,20.9276,571.34,0.0522162,0.0,0.0
122,30.25,18.6879,19.8479,167.385,101.246,100.51,0.000562759,0.0620158,20.93,571.17,0.0669076,0.0,0.0
183,45.5,18.6098,19.6194,171.019,101.331,100.384,0.000246619,0.0601159,20.9325,571,0.0862103,0.0,0.0
244,60.75,18.185,19.6097,164.192,101.282,100.22,0.000560224,0.0600965,20.9302,570.85,0.0967504,0.0,0.0
305,76,18.3683,19.9313,169.219,101.126,100.05,0.000415974,0.0607188,20.9277,570.73,0.098153,0.0,0.0
366,91.25,18.7396,20.1214,172.309,100.895,99.3008,0.000584398,0.0611778,20.9263,570.569,0.146179,0.0,0.0
427,106.5,18.9982,20.3478,167.757,100.639,98.6086,0.00079427,0.0613614,20.9317,570.379,0.187018,0.0,0.0
488,121.75,19.1668,20.7699,168.277,100.381,98.0797,0.000985144,0.0616242,20.9318,570.169,0.212771,0.0,0.0
549,137,20.6097,23.2812,160.166,100.171,99.4407,0.00175256,0.067442,20.856,569.709,0.067153,0.0,1.0
610,152.25,32.0034,41.9961,154.669,100.01,98.4489,0.00262366,0.249872,20.5489,567.747,0.144362,0.0,0.0
671,167.5,37.9688,49.1556,153.806,100.011,98.2379,0.00362017,0.380968,20.516,565.645,0.164158,0.0,0.0
732,182.75,39.1925,49.2502,154.466,100.152,98.7187,0.00357846,0.396039,20.5561,563.733,0.13229,0.0,0.0
793,198,39.0315,48.4422,158.047,100.346,98.9428,0.00317395,0.376809,20.5871,562.002,0.129214,0.0,0.0
854,213.25,38.5574,47.551,160.533,100.584,98.4803,0.0029368,0.351746,20.6137,560.39,0.193964,0.0,0.0
915,228.5,38.395,45.7233,158.091,100.79,100.207,0.00260246,0.33012,20.633,558.839,0.0532222,0.0,0.0
976,243.75,37.7936,44.701,154.542,100.97,100.477,0.00238383,0.31489,20.6517,557.377,0.0448911,0.0,0.0
1037,259,37.6706,43.5434,156.982,101.08,100.916,0.00251593,0.29874,20.6717,556.026,0.0148341,0.0,0.0
1098,274.25,37.2109,42.6237,154.891,101.145,101.377,0.0016606,0.282759,20.6849,554.715,-0.0210348,0.0,0.0
1159,289.5,36.265,41.7715,161.504,101.228,101.136,0.00213384,0.270126,20.6998,553.484,0.00831518,0.0,0.0
1220,304.75,35.7703,40.5596,157.768,101.311,101.199,0.00178119,0.257333,20.7126,552.333,0.0101565,0.0,0.0
1281,320,34.7277,39.5858,163.335,101.36,101.574,0.00182164,0.245913,20.7253,551.262,-0.0193185,0.0,0.0
1342,335.25,34.5454,38.9002,152.979,101.402,101.581,0.00165167,0.235581,20.7377,550.181,-0.0161626,0.0,0.0
1403,350.5,34.1486,38.3214,158.904,101.46,101.622,0.00164182,0.226832,20.7447,549.13,-0.0146434,0.0,0.0
1464,365.75,33.6043,37.3579,154.766,101.49,101.82,0.00152212,0.221607,20.7524,548.129,-0.0298167,0.0,0.0
1525,381,34.0658,37.8625,165.973,101.512,101.593,0.00204237,0.2176,20.7538,547.128,-0.00726185,0.0,0.0
1586,396.25,33.4806,37.145,162.062,101.51,101.609,0.00251391,0.213329,20.7604,546.147,-0.00886853,0.0,0.0
1647,411.5,33.3529,36.2492,164.564,101.523,101.571,0.002346,0.207819,20.7619,545.176,-0.00436124,0.0,0.0
1708,426.75,32.824,36.202,162.449,101.503,102.333,0.0022567,0.202733,20.7695,544.265,-0.0747464,0.0,0.0
1769,442,32.2675,35.1384,159.998,101.449,101.485,0.00274666,0.196893,20.7792,543.375,-0.00320398,0.0,0.0
1830,457.25,31.741,34.6432,165.818,101.348,101.334,0.00257279,0.191797,20.784,542.474,0.00128412,0.0,0.0
1891,472.5,31.847,34.731,160.776,101.305,101.382,0.00286774,0.188082,20.7855,541.623,-0.00691263,0.0,0.0
1952,487.75,30.651,33.0928,160.282,101.298,101.244,0.00331373,0.184311,20.7872,540.742,0.00494519,0.0,0.0
2013,503,30.8672,33.1525,164.541,101.279,101.487,0.0036055,0.181165,20.7925,539.952,-0.0188439,0.0,0.0
2074,518.25,30.3776,32.7855,159.381,101.223,101.23,0.00335301,0.17907,20.7926,539.131,-0.000650334,0.0,0.0
2135,533.5,30.1585,33.149,157.039,101.183,101.321,0.00369474,0.176745,20.7988,538.34,-0.0125368,0.0,0.0
2196,548.75,30.0341,32.731,160.804,101.099,100.883,0.0038239,0.173939,20.7985,537.569,0.0196731,0.0,0.0
2257,564,29.1831,31.3369,163.967,101.06,101.055,0.00403149,0.171567,20.8009,536.789,0.000495514,0.0,0.0
2318,579.25,29.2302,31.8135,162.093,101.036,100.987,0.0042501,0.16892,20.8063,536.038,0.00445975,0.0,0.0
2379,594.5,29.1193,31.5901,164.596,100.925,100.964,0.00390663,0.167228,20.8045,535.307,-0.00350436,0.0,0.0
2440,609.75,29.3388,31.4772,160.393,100.793,100.672,0.00422979,0.167802,20.8035,534.547,0.0110033,0.0,0.0
2501,625,28.9966,31.313,160.262,100.671,100.66,0.00443776,0.16795,20.8037,533.816,0.000952719,0.0,0.0
2562,640.25,28.6706,30.9472,159.803,100.562,100.471,0.0043066,0.168767,20.8034,533.075,0.00833266,0.0,0.0
2623,655.5,28.8643,31.4259,162.042,100.43,100.233,0.00402977,0.169531,20.8013,532.355,0.0180738,0.0,0.0
2684,670.75,29.0683,31.5618,164.205,100.289,100.253,0.00407536,0.170407,20.8032,531.624,0.00332698,0.0,0.0
2745,686,29.2948,31.6662,161.232,100.161,100.235,0.0041295,0.170905,20.8034,530.923,-0.00682287,0.0,0.0
2806,701.25,29.0107,31.7536,158.221,100.087,99.9113,0.00413147,0.171182,20.8016,530.183,0.0160889,0.0,0.0
2867,716.5,28.8075,31.5375,163.68,100.042,99.8084,0.00420448,0.17268,20.8008,529.472,0.0214652,0.0,0.0
2928,731.75,28.348,31.1333,158.694,100.022,100.14,0.00304603,0.176415,20.7924,528.761,-0.0107882,0.0,0.0
2989,747,29.167,31.8495,160.456,100.002,100.063,0.00329396,0.177585,20.7935,528.051,-0.00557555,0.0,0.0
3050,762.25,29.0379,32.407,160.707,100.001,100.117,0.00271508,0.177691,20.7924,527.35,-0.0106168,0.0,0.0
3111,777.5,28.7133,31.2032,162.822,100.018,100.092,0.00266196,0.179734,20.7924,526.639,-0.00678839,0.0,0.0
3172,792.75,29.5413,32.7197,162.08,100.002,100.141,0.00224407,0.183152,20.7859,525.909,-0.0127257,0.0,0.0
3233,808,29.3985,32.5053,163.503,100.004,100.124,0.00212161,0.186709,20.7842,525.138,-0.0109656,0.0,0.0
3294,823.25,29.4787,32.5162,157.922,100.005,100.16,0.00191323,0.189802,20.7794,524.357,-0.0141504,0.0,0.0
3355,838.5,30.3857,33.5495,163.177,100.01,100.379,0.00149306,0.193801,20.7763,523.567,-0.0337902,0.0,0.0
3416,853.75,30.3153,33.9067,156.462,100.006,99.9575,0.00153622,0.19831,20.7689,522.766,0.00444226,0.0,0.0
3477,869,31.0415,34.5075,156.917,100.006,99.9301,0.00150145,0.203826,20.7603,521.895,0.00695662,0.0,0.0
3538,884.25,31.6741,35.5078,161.839,99.9988,100.308,0.00134167,0.210736,20.7544,521.034,-0.0283105,0.0,0.0
3599,899.5,31.9306,36.5143,159.577,100.012,100.562,0.00157201,0.219117,20.7419,520.043,-0.0502737,0.0,0.0
3660,914.75,33.0272,37.6015,156.437,100.005,99.9549,0.00170408,0.228347,20.7313,519.073,0.00459861,0.0,0.0
3721,930,33.5439,38.2847,163.344,100.009,100.054,0.00159936,0.239716,20.7142,517.992,-0.00414236,0.0,0.0
3782,945.25,34.7511,39.1315,162.191,100.027,99.7206,0.00137561,0.252049,20.7019,516.861,0.0281722,0.0,0.0
3843,960.5,35.2376,40.3391,156.999,100.05,99.2374,0.0020395,0.264309,20.6881,515.679,0.0747902,0.0,0.0
3904,975.75,36.5574,42.1531,150.806,100.076,98.8637,0.00195452,0.27887,20.6695,514.398,0.111831,0.0,0.0
3965,991,37.492,43.4146,153.015,100.081,99.781,0.00213779,0.29354,20.6506,513.047,0.0275364,0.0,0.0
4026,1006.25,38.5206,44.6784,155.477,100.071,98.3505,0.00201844,0.311002,20.6308,511.556,0.159094,0.0,0.0
4087,1021.5,39.4866,45.8561,157.325,100.07,97.2644,0.00233042,0.32601,20.6147,510.064,0.260958,0.0,0.0
4148,1036.75,40.9599,47.2389,149.853,100.067,96.484,0.00312664,0.339538,20.5982,508.483,0.334614,0.0,0.0
4209,1052,41.9007,48.9922,150.547,100.031,96.4409,0.00298553,0.35541,20.5749,506.771,0.335351,0.0,0.0
4270,1067.25,43.5227,50.8613,147.984,100.018,95.557,0.00385284,0.375949,20.5501,505.03,0.418698,0.0,0.0
4331,1082.5,45.324,52.7163,152.26,100.01,95.8582,0.00484835,0.392432,20.5321,503.208,0.389026,0.0,0.0
4392,1097.75,45.2715,52.5419,150.507,100.001,94.5885,0.00439082,0.394985,20.5359,501.446,0.51059,0.0,0.0
4453,1113,45.0732,51.8642,151.755,99.9988,93.5277,0.00389343,0.38239,20.5565,499.775,0.613892,0.0,0.0
4514,1128.25,44.3639,50.7818,159.31,100.002,95.0804,0.00387872,0.364834,20.5762,498.294,0.46311,0.0,0.0
4575,1143.5,43.6652,49.5111,153.752,99.9964,95.1128,0.00308431,0.342901,20.6005,496.912,0.459449,0.0,0.0
4636,1158.75,42.6215,47.8056,155.345,99.9993,95.9667,0.00305514,0.315989,20.6318,495.731,0.377699,0.0,0.0
4697,1174,41.0382,44.8312,156.085,100.018,96.3227,0.00422259,0.285246,20.6648,494.76,0.345465,0.0,0.0
4758,1189.25,39.2824,42.7582,159.894,99.9795,97.4337,0.00567795,0.254704,20.702,493.92,0.236674,0.0,0.0
4819,1204.5,36.7784,39.7492,157.577,99.9947,99.5797,0.00657019,0.225057,20.7354,493.219,0.0381658,0.0,0.0
4880,1219.75,35.6049,37.0718,159.679,99.991,99.819,0.00749679,0.205079,20.7569,492.608,0.0157973,0.0,0.0
4941,1235,34.1628,35.7439,158.757,100.01,99.8109,0.00716484,0.191052,20.7723,492.048,0.0182452,0.0,0.0
5002,1250.25,32.5326,33.7655,160.902,100.001,99.9777,0.00764564,0.176832,20.7918,491.598,0.00216453,0.0,0.0
5063,1265.5,31.1711,32.0964,162.025,100.001,99.9722,0.00796707,0.163339,20.8071,491.227,0.00263806,0.0,0.0
5124,1280.75,29.8459,30.4596,162.022,100.019,99.9321,0.00790857,0.151161,20.8176,490.867,0.00797965,0.0,0.0
5185,1296,28.4439,28.6774,164.941,100.045,99.6892,0.0104335,0.14018,20.8324,490.587,0.0326543,0.0,0.0
5246,1311.25,27.6108,27.5973,165.076,100.079,99.7673,0.0110976,0.139313,20.8246,490.296,0.0286073,0.0,0.0
5307,1326.5,25.8963,26.0518,167.54,100.132,99.8946,0.0110505,0.137214,20.8324,490.036,0.0217435,0.0,0.0
5368,1341.75,25.6244,26.2162,166.215,100.199,99.923,0.0106475,0.131996,20.8389,489.796,0.0253288,0.0,0.0
5429,1357,25.1214,25.0006,159.6,100.275,99.9047,0.0106963,0.131392,20.8347,489.496,0.0339098,0.0,0.0
5490,1372.25,24.1933,24.7451,172.617,100.348,99.856,0.0100643,0.131337,20.839,489.285,0.0451316,0.0,0.0
5551,1387.5,22.9363,23.2889,169.313,100.435,100.242,0.0101256,0.131705,20.8348,489.045,0.0176142,0.0,0.0
5612,1402.75,23.1059,23.9456,165.694,100.517,100.097,0.00974253,0.135986,20.8264,488.795,0.0384654,0.0,0.0
5673,1418,22.8765,23.5953,163.405,100.557,100.067,0.00914263,0.134563,20.8401,488.555,0.0448203,0.0,0.0
5734,1433.25,23.0183,23.8897,166.672,100.664,100.141,0.0092703,0.129025,20.8418,488.365,0.0478177,0.0,0.0
5781,1445,23.3977,24.1206,166.895,100.75,100.252,,,,488.184,0.0454495,0.0,0.0

File: OSB_Cone_HF50Scalar_210326_R1.csv
LABORATORY,FSRI
TEST IDENT,OSB_HF50_1
OPERATOR,Dow
MATERIAL,"5/8"" thick OSB"
ORIENTATION,Horizontal
HEAT FLUX,50
SURF AREA,0.01
C FACTOR,0.0386052
SPEC HOLDER DIFF,-90.33
SPECIMEN MASS,101.32
SCAN TIME,0.25
O2 DELAY TIME,11
CO DELAY TIME,11
CO2 DELAY TIME,8
FLOW FACTOR,1
SCAN COUNT,3587
TIME TO IGN,25.5
END OF TEST SCAN,3107
END OF TEST TIME,776.75
TEST STATUS,1
PRE TEST CMT,without frame or grid

File: OSB_Cone_HF50Scalar_210326_R2.csv
LABORATORY,FSRI
TEST IDENT,OSB_HF50_2
OPERATOR,Dow
MATERIAL,"5/8"" thick OSB"
ORIENTATION,Horizontal
HEAT FLUX,50
SURF AREA,0.01
C FACTOR,0.0386052
SPEC HOLDER DIFF,-86.97
SPECIMEN MASS,101.42
SCAN TIME,0.25
O2 DELAY TIME,11
CO DELAY TIME,11
CO2 DELAY TIME,8
FLOW FACTOR,1
SCAN COUNT,3458
TIME TO IGN,21
END OF TEST SCAN,2978
END OF TEST TIME,744.5
TEST STATUS,1
PRE TEST CMT,without retainer frame or grid

File: OSB_Cone_HF50Scalar_210326_R3.csv
LABORATORY,FSRI
TEST IDENT,OSB_HF50_3
OPERATOR,Dow
MATERIAL,"5/8"" thick OSB"
ORIENTATION,Horizontal
HEAT FLUX,50
SURF AREA,0.01
C FACTOR,0.0386052
SPEC HOLDER DIFF,-97.64
SPECIMEN MASS,100.6
SCAN TIME,0.25
O2 DELAY TIME,11
CO DELAY TIME,11
CO2 DELAY TIME,8
FLOW FACTOR,1
SCAN COUNT,3425
TIME TO IGN,22.25
END OF TEST SCAN,2945
END OF TEST TIME,736.25
TEST STATUS,1
PRE TEST CMT,without frame or grid
POST TEST CMT,sample lifted to approximately 30 degree angle near end of test as layers delaminated and bottom layers curled