Folder: fsri_materials_database/01_Data/OSB/Cone (part 4)

File: OSB_Cone_HF75Scan_210325_R2.csv
Names,Time,Stack TC,Smoke TC,Exh Press,Smoke Comp,Smoke Meas,CO Meter,CO2 Meter,O2 Meter,Sample Mass,Ext Coeff,Start Test,Flame Verif
Chan Gain,,500,500,1,1,1,1,1,1,1,1,1.0,1.0
Offset,,0,0,0.138348,0,0,0,0,0,0,0,0.0,0.0
Gain,,1,1,25.011,13.5067,16.616,1,1,1,1.00091,1.04608,1.0,1.0
Units,sec,C,C,Pa,%,%,%,%,%,g,/m,,
Baseline,,40.029,43.6143,157.394,100.708,98.3884,-0.000571502,0.0834608,20.8692,-0.603425,0.213787,,
37,9,37.8525,42.2627,149.839,101.153,95.3466,0.000317382,0.0997314,20.7586,584.342,0.542413,0.0,1.0
74,18.25,49.963,62.0625,137.808,101.212,90.1191,0.00501239,0.334155,20.2208,582.34,1.06524,0.0,0.0
111,27.5,61.0404,79.4372,135.043,101.291,90.7885,0.00771774,0.614507,20.0347,580.198,1.00447,0.0,0.0
148,36.75,68.4314,89.0691,130.291,101.334,91.8761,0.00795963,0.739962,20.0191,577.946,0.899039,0.0,0.0
185,46,72.303,93.6038,130.556,101.375,89.6085,0.008106,0.76614,20.0393,575.834,1.13209,0.0,0.0
222,55.25,74.5969,96.0193,133.21,101.41,90.9046,0.00878394,0.759194,20.0605,573.712,1.00349,0.0,0.0
259,64.5,76.014,96.4709,135.895,101.427,90.4964,0.00820455,0.740328,20.0947,571.66,1.04636,0.0,0.0
296,73.75,76.343,95.9673,128.088,101.447,90.2895,0.00857242,0.712106,20.1369,569.729,1.06915,0.0,0.0
333,83,77.5003,95.7952,133.135,101.444,91.7473,0.00825151,0.689508,20.1546,567.867,0.921909,0.0,0.0
370,92.25,76.6748,94.8023,131.529,101.409,92.4943,0.00778761,0.661411,20.1922,566.055,0.844376,0.0,0.0
407,101.5,76.496,93.1595,131.965,101.43,91.5607,0.00724647,0.633041,20.2253,564.394,0.939361,0.0,0.0
444,110.75,76.1379,91.5497,134.34,101.399,93.945,0.00672908,0.599857,20.2739,562.792,0.700672,0.0,0.0
481,120,75.137,90.1195,139.607,101.371,93.6063,0.00601328,0.566288,20.31,561.251,0.731244,0.0,0.0
518,129.25,74.4207,87.9484,144.27,101.369,93.4993,0.00508927,0.537347,20.3362,559.81,0.741513,0.0,0.0
555,138.5,73.8915,87.3931,140.952,101.349,93.6088,0.00486333,0.514942,20.3607,558.398,0.729016,0.0,0.0
592,147.75,74.5063,85.4184,138.488,101.348,94.3841,0.00490761,0.498902,20.3803,557.007,0.653216,0.0,0.0
629,157,72.9742,85.3629,140.711,101.347,93.8233,0.00470809,0.483407,20.3948,555.696,0.707791,0.0,0.0
666,166.25,72.8358,84.1294,138.849,101.348,94.3841,0.0044393,0.471397,20.406,554.355,0.653178,0.0,0.0
703,175.5,72.3242,83.5015,140.212,101.354,94.6488,0.00405666,0.460803,20.4159,553.023,0.628077,0.0,0.0
740,184.75,72.6601,83.4589,135.794,101.335,94.9688,0.0037755,0.455478,20.4192,551.792,0.595355,0.0,0.0
777,194,72.206,83.1014,139.779,101.304,95.9825,0.00380755,0.448021,20.433,550.541,0.495133,0.0,0.0
814,203.25,71.7412,82.4267,139.867,101.302,94.8299,0.00336564,0.440463,20.4397,549.25,0.605841,0.0,0.0
851,212.5,72.2243,82.0179,138.254,101.241,96.0687,0.0032869,0.434942,20.4464,548.039,0.481181,0.0,0.0
888,221.75,71.7367,81.3307,139.692,101.182,95.6483,0.00347789,0.430769,20.4546,546.868,0.516077,0.0,0.0
925,231,71.7714,81.8509,135.966,101.084,96.5225,0.00330006,0.424852,20.4602,545.567,0.423727,0.0,0.0
962,240.25,71.8684,81.2643,142.269,100.992,96.3176,0.00328112,0.421778,20.4604,544.456,0.434837,0.0,0.0
999,249.5,71.7466,81.2129,136.364,100.89,95.769,0.00278332,0.418092,20.4627,543.245,0.477965,0.0,0.0
1036,258.75,70.8539,80.0972,138.944,100.769,95.0317,0.0028295,0.415075,20.4698,542.073,0.537928,0.0,0.0
1073,268,71.2521,80.6333,143.588,100.673,95.2715,0.00301346,0.413108,20.4694,540.912,0.506011,0.0,0.0
1110,277.25,71.0164,80.0543,136.105,100.59,93.9932,0.00314941,0.4125,20.4707,539.721,0.622452,0.0,0.0
1147,286.5,70.8286,79.8212,146.167,100.53,94.6281,0.00333799,0.413825,20.47,538.58,0.55519,0.0,0.0
1184,295.75,70.7097,79.8298,140.522,100.458,93.8162,0.00307239,0.413539,20.4699,537.459,0.627704,0.0,0.0
1221,305,71.1559,79.9298,139.337,100.414,94.2685,0.00310572,0.413743,20.4671,536.278,0.579541,0.0,0.0
1258,314.25,71.1313,79.279,140.788,100.353,93.8101,0.00337519,0.413986,20.468,535.147,0.618694,0.0,0.0
1295,323.5,70.65,79.2201,139.11,100.339,93.6276,0.00350159,0.412173,20.4702,534.086,0.635249,0.0,0.0
1332,332.75,70.4538,79.42,142.27,100.322,93.8761,0.00325902,0.411609,20.4702,532.935,0.609421,0.0,0.0
1369,342,70.777,78.7077,139.095,100.331,93.5677,0.00287933,0.4108,20.4722,531.824,0.640398,0.0,0.0
1406,351.25,70.4382,79.029,143.807,100.367,93.1053,0.00351079,0.410612,20.4724,530.713,0.689142,0.0,0.0
1443,360.5,70.789,78.837,142.032,100.379,92.4856,0.00372085,0.411501,20.4706,529.572,0.75151,0.0,0.0
1480,369.75,70.3333,79.5356,142.386,100.428,93.1195,0.00360146,0.41459,20.4647,528.451,0.693356,0.0,0.0
1517,379,70.7436,79.5146,144.792,100.457,92.8943,0.00411499,0.415933,20.4642,527.36,0.718206,0.0,0.0
1554,388.25,70.9931,79.3256,139.8,100.457,92.1555,0.00371468,0.417583,20.4627,526.239,0.791439,0.0,0.0
1591,397.5,70.6878,79.3592,138.659,100.477,92.8441,0.00403596,0.418528,20.4621,525.118,0.724973,0.0,0.0
1628,406.75,70.5833,79.4468,141.623,100.53,92.6581,0.00353532,0.418682,20.4621,524.007,0.748201,0.0,0.0
1665,416,70.6399,79.2746,146.513,100.597,92.0338,0.00376701,0.419108,20.4584,522.926,0.816357,0.0,0.0
1702,425.25,70.3997,79.0359,138.383,100.682,92.3112,0.0037119,0.418752,20.4617,521.855,0.796486,0.0,0.0
1739,434.5,71.02,79.5461,139.871,100.775,92.5374,0.00372779,0.418905,20.4565,520.774,0.782482,0.0,0.0
1776,443.75,69.9428,78.5014,138.815,100.879,92.9826,0.00408266,0.418086,20.462,519.653,0.747931,0.0,0.0
1813,453,70.8504,78.9321,136.45,100.986,93.1697,0.00384823,0.417029,20.4595,518.632,0.739265,0.0,0.0
1850,462.25,71.1964,79.6389,141.662,101.052,92.5571,0.0040576,0.418525,20.4557,517.531,0.805708,0.0,0.0
1887,471.5,70.1909,79.075,143.14,101.152,92.8132,0.00457283,0.420325,20.4546,516.4,0.789483,0.0,0.0
1924,480.75,71.0341,79.0366,140.173,101.197,92.4664,0.0042383,0.424664,20.4491,515.299,0.827914,0.0,0.0
1961,490,70.778,79.7162,137.363,101.225,91.8193,0.00420252,0.428993,20.4419,514.228,0.89489,0.0,0.0
1998,499.25,71.2096,79.919,140.906,101.28,91.2976,0.00474447,0.436178,20.4326,513.067,0.952191,0.0,0.0
2035,508.5,71.2058,80.4623,140.311,101.315,91.6992,0.00499667,0.444246,20.4225,511.946,0.915051,0.0,0.0
2072,517.75,71.9356,80.7741,138.571,101.366,91.9253,0.00456395,0.450544,20.4137,510.785,0.897038,0.0,0.0
2109,527,72.5473,81.6647,138.173,101.412,90.7317,0.00507718,0.45654,20.404,509.634,1.02119,0.0,0.0
2146,536.25,72.4123,81.7277,137.293,101.442,91.1814,0.00498189,0.457892,20.4053,508.443,0.978535,0.0,0.0
2183,545.5,72.0317,81.5729,140.738,101.494,92.1844,0.0042663,0.453729,20.4133,507.362,0.882807,0.0,0.0
2220,554.75,71.8844,80.5103,137.987,101.514,91.9329,0.00391943,0.441667,20.4326,506.311,0.909665,0.0,0.0
2257,564,71.4048,80.0013,141.269,101.549,90.9142,0.00324512,0.423964,20.455,505.39,1.01512,0.0,0.0
2294,573.25,70.3635,78.4762,143.15,101.585,94.2503,0.00279429,0.402096,20.4837,504.419,0.68771,0.0,0.0
2331,582.5,69.6154,77.3837,146.705,101.597,94.9252,0.00213282,0.380284,20.5088,503.658,0.623315,0.0,0.0
2368,591.75,68.8698,75.6839,142.409,101.608,96.4946,0.00156078,0.356049,20.5442,502.878,0.473851,0.0,0.0
2405,601,67.2279,73.967,149.424,101.613,97.1979,0.00139335,0.328651,20.5759,502.287,0.407658,0.0,0.0
2442,610.25,65.9129,71.5109,152.383,101.61,98.1862,0.00107555,0.297929,20.6157,501.797,0.31453,0.0,0.0
2479,619.5,63.6902,68.7715,142.147,101.618,99.7044,0.00169343,0.265277,20.653,501.376,0.174401,0.0,0.0
2516,628.75,62.1014,66.1867,148.654,101.609,100.216,0.00214329,0.231079,20.6907,501.126,0.126735,0.0,0.0
2553,638,60.4068,63.1973,145.224,101.591,100.407,0.00287097,0.203908,20.7164,500.946,0.107526,0.0,0.0
2590,647.25,58.2574,60.9723,150.05,101.584,100.115,0.00305047,0.18733,20.7306,500.786,0.13367,0.0,0.0
2627,656.5,56.8545,59.5359,156.56,101.547,100.399,0.00288962,0.179128,20.7365,500.566,0.104404,0.0,0.0
2664,665.75,56.2149,58.591,150.089,101.491,99.9032,0.00346337,0.174284,20.7408,500.476,0.144654,0.0,0.0
2701,675,55.4217,57.1418,150.218,101.47,100.063,0.00408381,0.171178,20.7417,500.275,0.128093,0.0,0.0
2738,684.25,55.0144,57.688,151.228,101.396,99.8647,0.00414577,0.169727,20.7409,500.165,0.139618,0.0,0.0
2775,693.5,54.4077,56.4691,149.747,101.354,100.273,0.00415103,0.168834,20.7422,499.935,0.0983814,0.0,0.0
2812,702.75,53.3475,55.6358,147.049,101.283,99.7911,0.00463233,0.167406,20.7455,499.815,0.136151,0.0,0.0
2849,712,53.1095,55.6769,147.78,101.211,99.6917,0.00476151,0.166638,20.7447,499.685,0.138756,0.0,0.0
2886,721.25,52.8289,55.1474,149.648,101.178,99.8119,0.00478413,0.166334,20.747,499.565,0.124712,0.0,0.0
2923,730.5,52.4022,54.8201,150.672,101.096,99.3535,0.00571925,0.165385,20.7482,499.435,0.159546,0.0,0.0
2960,739.75,51.9898,54.3906,152.568,101.033,99.7962,0.00590743,0.164752,20.7501,499.325,0.113026,0.0,0.0
2997,749,51.3941,53.9626,154.301,101.005,99.4316,0.00613599,0.164483,20.7518,499.154,0.144028,0.0,0.0
3034,758.25,50.5989,53.5098,152.572,100.973,99.0219,0.00653665,0.164647,20.751,499.054,0.179033,0.0,0.0
3071,767.5,50.504,53.235,153.067,100.942,99.14,0.00729356,0.166083,20.7492,498.934,0.165243,0.0,0.0
3108,776.75,50.6152,53.343,152.365,100.996,98.9636,0.00742588,0.166057,20.7523,498.774,0.186573,0.0,0.0
3145,786,49.6169,52.2817,152.807,101.063,99.421,0.00797316,0.164976,20.7551,498.674,0.150326,0.0,0.0
3182,795.25,48.7033,51.943,154.74,101.139,99.0883,0.00844637,0.164326,20.7543,498.574,0.187962,0.0,0.0
3219,804.5,49.0217,51.6831,154.051,101.216,99.4022,0.0089042,0.16352,20.7565,498.464,0.165894,0.0,0.0
3256,813.75,48.3265,51.3291,150.166,101.326,99.1441,0.00915441,0.163578,20.7571,498.334,0.199762,0.0,0.0
3293,823,48.6201,51.4714,151.614,101.444,99.6978,0.00951887,0.162679,20.7568,498.204,0.159324,0.0,0.0
3330,832.25,48.2042,51.3238,154.24,101.513,99.7034,0.00988469,0.162574,20.7586,498.083,0.165072,0.0,0.0
3367,841.5,47.4936,50.7993,152.662,101.564,99.6329,0.0104326,0.162299,20.7573,497.953,0.176143,0.0,0.0
3404,850.75,47.4005,50.5987,152.758,101.627,99.6603,0.0105249,0.161985,20.758,497.843,0.179355,0.0,0.0
3441,860,47.4638,50.8422,152.253,101.643,99.996,0.0109165,0.162001,20.7579,497.723,0.149913,0.0,0.0
3478,869.25,47.2409,50.3448,147.128,101.665,99.6826,0.0111745,0.161361,20.7574,497.623,0.180724,0.0,0.0
3515,878.5,47.5611,50.0226,149.306,101.655,100.088,0.0119985,0.161325,20.7574,497.503,0.14249,0.0,0.0
3552,887.75,46.9955,50.1532,154.412,101.655,99.7075,0.0119706,0.161004,20.7574,497.393,0.177544,0.0,0.0
3589,897,46.4107,49.8123,150.173,101.658,99.8981,,,,497.293,0.160275,0.0,0.0
3601,900,46.4682,50.1121,154.728,101.652,99.7222,,,,497.223,0.175857,0.0,0.0

File: OSB_Cone_HF75Scan_210325_R3.csv
Names,Time,Stack TC,Smoke TC,Exh Press,Smoke Comp,Smoke Meas,CO Meter,CO2 Meter,O2 Meter,Sample Mass,Ext Coeff,Start Test,Flame Verif
Chan Gain,,500,500,1,1,1,1,1,1,1,1,1.0,1.0
Offset,,0,0,0.138348,0,0,0,0,0,0,0,0.0,0.0
Gain,,1,1,25.011,13.5067,16.616,1,1,1,1.00091,1.04608,1.0,1.0
Units,sec,C,C,Pa,%,%,%,%,%,g,/m,,
Baseline,,40.7977,44.1696,157.343,101.592,99.2218,-0.000554827,0.0819311,20.8674,-0.907033,0.216627,,
34,8.25,37.6532,40.5114,154.183,101.613,95.7487,0.000359277,0.0863897,20.8607,567.727,0.545431,0.0,0.0
68,16.75,43.3984,51.2961,130.667,101.618,96.4069,0.00271356,0.197419,20.532,566.466,0.483016,0.0,1.0
102,25.25,56.5339,72.3256,128.707,101.612,93.3208,0.00514173,0.54906,20.0872,564.434,0.781072,0.0,0.0
136,33.75,65.3549,85.1634,134.534,101.639,92.0896,0.00706726,0.729273,20.013,562.342,0.905396,0.0,0.0
170,42.25,70.5265,91.7903,135.067,101.611,92.44,0.00742347,0.769279,20.0201,560.4,0.867979,0.0,0.0
204,50.75,73.5419,95.9091,130.969,101.6,92.7341,0.00739037,0.765382,20.0353,558.478,0.837863,0.0,0.0
238,59.25,76.0072,98.7145,130.382,101.58,92.2605,0.00782699,0.767778,20.0403,556.557,0.883061,0.0,0.0
272,67.75,77.5175,98.8705,132.647,101.548,92.7985,0.00728867,0.745525,20.0756,554.705,0.826802,0.0,0.0
306,76.25,77.8638,97.5507,135.01,101.557,92.0668,0.00667165,0.714218,20.1223,552.963,0.900187,0.0,0.0
340,84.75,78.0567,96.8334,139.519,101.552,90.4619,0.00701966,0.684593,20.1585,551.252,1.06115,0.0,0.0
374,93.25,77.9146,95.9301,135.038,101.552,90.3635,0.00745324,0.652291,20.1953,549.62,1.07117,0.0,0.0
408,101.75,77.3823,94.119,130.744,101.548,90.9629,0.00709169,0.623925,20.2247,548.079,1.01013,0.0,0.0
442,110.25,76.86,93.209,138.98,101.539,92.3305,0.00683869,0.59959,20.247,546.608,0.872343,0.0,0.0
476,118.75,76.7573,92.0393,132.136,101.549,92.5881,0.00643891,0.578702,20.2753,545.136,0.847672,0.0,0.0
510,127.25,76.1572,90.5008,138.275,101.577,90.0851,0.00657999,0.561013,20.2996,543.715,1.10172,0.0,0.0
544,135.75,76.2232,89.8966,136.825,101.613,92.1591,0.00625282,0.546545,20.307,542.324,0.896094,0.0,0.0
578,144.25,75.6554,88.7088,135.484,101.69,92.3021,0.00597143,0.53346,20.3254,540.912,0.888863,0.0,0.0
612,152.75,75.6348,88.678,133.918,101.735,93.1144,0.0056904,0.525241,20.335,539.571,0.812437,0.0,0.0
646,161.25,75.4505,87.6469,141.526,101.808,93.8482,0.00496894,0.515244,20.3487,538.23,0.747028,0.0,0.0
680,169.75,75.0983,86.977,137.059,101.874,94.0845,0.00490142,0.502949,20.3625,536.999,0.729932,0.0,0.0
714,178.25,74.6768,86.455,135.996,101.913,93.6753,0.00483599,0.491883,20.3695,535.728,0.773456,0.0,0.0
748,186.75,75.3106,86.3451,141.596,101.967,94.2969,0.00446502,0.48478,20.382,534.386,0.717583,0.0,0.0
782,195.25,74.6926,85.7748,137.506,102.017,94.6559,0.0042165,0.476492,20.3902,533.175,0.687237,0.0,0.0
816,203.75,74.0661,85.5528,140.44,102.045,94.5748,0.00383455,0.469943,20.399,532.054,0.697591,0.0,0.0
850,212.25,74.2576,84.9078,141.721,102.086,95.337,0.00377718,0.463951,20.4093,530.793,0.627608,0.0,0.0
884,220.75,73.5521,84.3381,139.231,102.088,95.0565,0.00380898,0.457659,20.4134,529.612,0.654823,0.0,0.0
918,229.25,73.6464,84.6204,140.128,102.115,95.2137,0.00377205,0.456521,20.4152,528.411,0.642144,0.0,0.0
952,237.75,73.9289,84.093,136.66,102.125,95.7517,0.00373163,0.453255,20.4189,527.28,0.591327,0.0,0.0
986,246.25,73.6809,83.6789,139.87,102.139,95.8258,0.00381,0.450191,20.4207,526.109,0.585458,0.0,0.0
1020,254.75,73.6674,83.4513,140.087,102.161,96.0529,0.00388496,0.4473,20.4262,524.958,0.56573,0.0,0.0
1054,263.25,73.8079,83.1824,138.652,102.153,95.8045,0.00370574,0.445399,20.4239,523.867,0.58872,0.0,0.0
1088,271.75,73.3787,82.4611,138.239,102.174,95.5454,0.00374771,0.443795,20.4273,522.756,0.61546,0.0,0.0
1122,280.25,73.0959,82.5919,140.612,102.183,95.2528,0.00341919,0.44305,20.429,521.625,0.644416,0.0,0.0
1156,288.75,73.579,82.7201,133.65,102.172,95.9561,0.00394125,0.443227,20.4273,520.504,0.575987,0.0,0.0
1190,297.25,73.6006,83.1378,135.727,102.185,95.9267,0.00404885,0.446688,20.4202,519.413,0.579946,0.0,0.0
1224,305.75,73.7168,83.0267,139.841,102.177,95.5667,0.00381019,0.447821,20.4198,518.282,0.613748,0.0,0.0
1258,314.25,73.7729,82.8099,139.784,102.173,94.5743,0.0042481,0.44746,20.4196,517.191,0.709123,0.0,0.0
1292,322.75,73.4908,82.3649,137.359,102.169,94.7543,0.00463497,0.446581,20.4224,516.1,0.691376,0.0,0.0
1326,331.25,73.4072,82.4352,137.701,102.141,94.2802,0.00406376,0.447868,20.4216,515.009,0.734814,0.0,0.0
1360,339.75,73.1417,82.3824,141.465,102.119,95.1595,0.0041403,0.447192,20.4242,513.898,0.647707,0.0,0.0
1394,348.25,73.4838,82.3123,138.342,102.092,94.7279,0.00416026,0.444549,20.4269,512.867,0.686932,0.0,0.0
1428,356.75,73.4844,82.6445,137.578,102.048,94.5195,0.00423103,0.442971,20.4291,511.806,0.703251,0.0,0.0
1462,365.25,73.1964,82.1744,137.669,102.033,94.1504,0.0039887,0.440704,20.4313,510.755,0.737788,0.0,0.0
1496,373.75,73.036,81.4669,138.254,102.014,94.05,0.00426436,0.438325,20.4337,509.694,0.745874,0.0,0.0
1530,382.25,73.2148,81.6706,137.657,102.002,95.6285,0.0039389,0.436238,20.4364,508.683,0.592064,0.0,0.0
1564,390.75,72.8312,81.4938,141.457,101.987,93.657,0.00366819,0.433852,20.4377,507.622,0.781885,0.0,0.0
1598,399.25,73.0877,81.4408,138.053,101.952,94.0464,0.00386653,0.433379,20.4379,506.621,0.740619,0.0,0.0
1632,407.75,72.6545,81.5957,137.94,101.952,94.6184,0.00399311,0.434679,20.4339,505.59,0.684979,0.0,0.0
1666,416.25,73.0025,81.9409,137.086,101.892,93.3132,0.00367971,0.441336,20.4256,504.519,0.807023,0.0,0.0
1700,424.75,73.1622,82.2957,141.306,101.853,93.8639,0.00408961,0.446845,20.4144,503.478,0.749577,0.0,0.0
1734,433.25,73.7354,82.7459,141.219,101.779,91.5866,0.00412758,0.454792,20.4062,502.437,0.968225,0.0,0.0
1768,441.75,74.0589,83.1635,141.37,101.721,92.6864,0.00463192,0.462317,20.3971,501.286,0.853445,0.0,0.0
1802,450.25,74.5909,83.6973,135.745,101.655,92.6621,0.00499448,0.469362,20.3872,500.165,0.849941,0.0,0.0
1836,458.75,74.6714,84.243,140.385,101.564,91.9476,0.00573847,0.476986,20.3755,499.074,0.912742,0.0,0.0
1870,467.25,74.712,84.9603,135.7,101.425,91.5683,0.00588983,0.484654,20.3684,497.903,0.938114,0.0,0.0
1904,475.75,75.5107,85.6672,136.792,101.3,90.8823,0.00627041,0.491359,20.3609,496.702,0.995781,0.0,0.0
1938,484.25,75.6826,86.0742,136.053,101.183,91.2565,0.0061355,0.493507,20.358,495.551,0.947501,0.0,0.0
1972,492.75,76.0178,86.1132,136.182,101.082,90.7099,0.00602978,0.496494,20.3543,494.42,0.993432,0.0,0.0
2006,501.25,75.8903,85.9313,133.105,101.01,90.3372,0.0057456,0.490851,20.3627,493.279,1.02474,0.0,0.0
2040,509.75,75.7457,85.3417,138.244,100.932,90.1921,0.00494975,0.479395,20.3812,492.238,1.03233,0.0,0.0
2074,518.25,74.8781,83.7807,140.793,100.841,91.5481,0.00363829,0.454912,20.4194,491.287,0.887189,0.0,0.0
2108,526.75,73.0376,81.5872,138.205,100.73,92.1124,0.00243019,0.40956,20.4836,490.517,0.820661,0.0,0.0
2142,535.25,71.3938,78.122,138.823,100.627,95.2259,0.0018353,0.350413,20.5564,490.016,0.506199,0.0,0.0
2176,543.75,68.2845,74.1374,155.622,100.548,97.847,0.00170462,0.289735,20.6284,489.646,0.249857,0.0,0.0
2210,552.25,65.7007,70.1215,148.415,100.457,99.708,0.0022932,0.239341,20.6817,489.466,0.0686558,0.0,0.0
2244,560.75,63.554,66.7692,149.855,100.417,99.315,0.00242918,0.207077,20.7104,489.275,0.101279,0.0,0.0
2278,569.25,61.6843,64.1934,153.599,100.402,98.9788,0.00261074,0.190399,20.7232,489.075,0.130963,0.0,0.0
2312,577.75,60.1673,62.7586,147.995,100.421,99.5219,0.00287179,0.181316,20.7302,488.905,0.082523,0.0,0.0
2346,586.25,59.1416,61.1443,151.363,100.45,98.9727,0.00290454,0.175328,20.7362,488.795,0.135971,0.0,0.0
2380,594.75,58.096,59.9334,150.566,100.496,99.2257,0.00344338,0.17239,20.7379,488.645,0.116683,0.0,0.0
2414,603.25,57.4671,59.143,153.515,100.576,98.9179,0.00330338,0.169914,20.7413,488.465,0.152527,0.0,0.0
2448,611.75,56.5566,58.7297,152.078,100.635,98.8829,0.00361137,0.168109,20.7423,488.355,0.161188,0.0,0.0
2482,620.25,55.9473,57.8589,152.959,100.7,99.2166,0.0036256,0.166546,20.7445,488.244,0.136212,0.0,0.0
2516,628.75,55.3152,57.5589,150.741,100.781,98.9098,0.00436988,0.165474,20.7478,488.124,0.171951,0.0,0.0
2550,637.25,54.8226,56.5098,154.925,100.814,98.9504,0.00431486,0.164559,20.7499,488.034,0.171227,0.0,0.0
2584,645.75,54.288,56.5537,149.442,100.876,99.319,0.00465937,0.163542,20.7515,487.884,0.142768,0.0,0.0
2618,654.25,53.6331,56.1016,149.507,100.939,99.3951,0.00489959,0.163356,20.751,487.754,0.141479,0.0,0.0
2652,662.75,53.4083,55.4701,150.107,100.998,99.6938,0.00545445,0.163765,20.7506,487.644,0.119266,0.0,0.0
2686,671.25,52.7815,55.5625,149.567,101.081,99.2866,0.00610165,0.163714,20.7506,487.544,0.164384,0.0,0.0
2720,679.75,52.8974,55.4437,154,101.139,99.208,0.00627785,0.162618,20.7543,487.424,0.17685,0.0,0.0
2754,688.25,51.6049,54.2151,154.113,101.211,99.2262,0.00683735,0.161094,20.7556,487.324,0.181741,0.0,0.0
2788,696.75,51.8683,54.6803,155.648,101.282,99.5036,0.00685361,0.160587,20.7559,487.173,0.162589,0.0,0.0
2822,705.25,51.8386,54.6788,153.983,101.306,99.7678,0.00726415,0.160342,20.756,487.123,0.140386,0.0,0.0
2856,713.75,50.2331,52.7995,152.099,101.352,99.5812,0.00767602,0.159348,20.7591,486.983,0.161746,0.0,0.0
2890,722.25,50.0936,52.2719,148.379,101.378,99.6055,0.00769318,0.158857,20.7584,486.893,0.161817,0.0,0.0
2924,730.75,49.4718,52.2994,146.99,101.376,99.5837,0.00798967,0.15843,20.7593,486.783,0.163714,0.0,0.0
2958,739.25,49.1938,52.3853,152.629,101.413,99.7673,0.00819394,0.157703,20.7613,486.683,0.150136,0.0,0.0
2992,747.75,48.6227,52.0133,149.476,101.424,99.6273,0.00852069,0.156863,20.7603,486.603,0.163987,0.0,0.0
3026,756.25,48.6661,51.674,154.369,101.47,100.222,0.00867824,0.156485,20.7602,486.493,0.113578,0.0,0.0
3060,764.75,48.4503,51.6064,153.142,101.504,99.5082,0.00913983,0.156015,20.7616,486.383,0.182238,0.0,0.0
3094,773.25,48.0676,50.9201,152.376,101.526,99.712,0.00927182,0.155178,20.7645,486.313,0.165434,0.0,0.0
3128,781.75,48.1403,50.8197,153.478,101.563,99.8571,0.00968169,0.155503,20.7642,486.203,0.155449,0.0,0.0
3162,790.25,47.7454,50.9223,153.537,101.568,99.7911,0.00981187,0.155315,20.7637,486.082,0.161994,0.0,0.0
3196,798.75,46.9433,50.7961,153.127,101.583,100.175,0.010091,0.154323,20.7654,485.952,0.128021,0.0,0.0
3230,807.25,46.967,50.3098,151.221,101.623,99.709,0.0103337,0.154112,20.7659,485.862,0.174502,0.0,0.0
3264,815.75,46.7197,50.2375,156.589,101.634,99.6573,,0.153222,,485.762,0.180267,0.0,0.0
3298,824.25,47.092,50.1165,151.131,101.652,100.124,,,,485.702,0.138976,0.0,0.0
3303,825.5,46.9555,50.0676,154.322,101.656,99.6862,,,,485.672,0.179579,0.0,0.0