Folder: fsri_materials_database/01_Data/OSB/Cone (part 3)

File: OSB_Cone_HF50Scan_210326_R3.csv
Names,Time,Stack TC,Smoke TC,Exh Press,Smoke Comp,Smoke Meas,CO Meter,CO2 Meter,O2 Meter,Sample Mass,Ext Coeff,Start Test,Flame Verif
Chan Gain,,500,500,1,1,1,1,1,1,1,1,1.0,1.0
Offset,,0,0,0.138348,0,0,0,0,0,0,0,0.0,0.0
Gain,,1,1,25.011,13.5067,16.616,1,1,1,1.00091,1.04608,1.0,1.0
Units,sec,C,C,Pa,%,%,%,%,%,g,/m,,
Baseline,,33.8175,35.9975,158.201,102.249,98.3098,-0.00128992,0.0610175,20.9306,-0.0134706,0.360547,,
36,8.75,31.5826,33.8099,161.391,102.261,97.7932,-0.00129197,0.0623669,20.925,570.009,0.409956,0.0,0.0
72,17.75,31.9548,34.3451,156.723,102.267,96.0494,-0.000741379,0.0642105,20.9249,569.709,0.575542,0.0,0.0
108,26.75,34.03,38.8443,144.217,102.257,98.2537,0.000409065,0.133436,20.7125,568.888,0.366448,0.0,0.0
144,35.75,44.4856,54.8382,137.322,102.251,98.0767,0.00144804,0.363304,20.4161,567.346,0.38251,0.0,0.0
180,44.75,50.9235,64.2087,141.504,102.259,95.4095,0.0028364,0.486803,20.3419,565.735,0.636179,0.0,0.0
216,53.75,55.3644,70.4108,136.132,102.265,94.5241,0.00368501,0.533544,20.3284,564.164,0.722283,0.0,0.0
252,62.75,57.7479,74.076,137.181,102.263,92.1515,0.00466538,0.548707,20.3246,562.652,0.955401,0.0,0.0
288,71.75,59.8927,75.2503,141.309,102.264,93.3127,0.00401942,0.549907,20.3376,561.131,0.840532,0.0,0.0
324,80.75,61.355,76.8897,138.828,102.267,94.8659,0.00418403,0.541081,20.3515,559.639,0.689312,0.0,0.0
360,89.75,61.4433,76.2138,141.741,102.267,94.304,0.00434797,0.52694,20.375,558.198,0.74382,0.0,0.0
396,98.75,61.7279,75.8946,140.658,102.258,94.197,0.00441094,0.511822,20.3934,556.767,0.753423,0.0,0.0
432,107.75,61.6509,75.3576,141.824,102.253,93.6048,0.00416209,0.494211,20.4164,555.416,0.810856,0.0,0.0
468,116.75,62.3554,74.9868,143.763,102.262,95.2497,0.00402584,0.473903,20.4422,554.114,0.651814,0.0,0.0
504,125.75,61.5333,74.4955,139.604,102.272,92.8396,0.00413647,0.458786,20.4547,552.853,0.887914,0.0,0.0
540,134.75,61.2565,72.8777,141.239,102.277,93.4293,0.003885,0.446328,20.4747,551.572,0.83029,0.0,0.0
576,143.75,60.7766,71.3522,142.53,102.268,94.2533,0.00340286,0.429731,20.4975,550.401,0.74883,0.0,0.0
612,152.75,60.4147,70.293,142.244,102.287,95.6163,0.00291382,0.414117,20.5141,549.23,0.618856,0.0,0.0
648,161.75,60.4269,69.5996,141.241,102.265,96.3521,0.00272735,0.397566,20.533,548.099,0.546556,0.0,0.0
684,170.75,59.7649,68.6901,144.962,102.262,96.1255,0.0025047,0.387148,20.5399,546.978,0.567871,0.0,0.0
720,179.75,59.6583,68.4034,142.995,102.231,96.3065,0.00233368,0.37924,20.5477,545.907,0.547795,0.0,0.0
756,188.75,59.2758,68.0145,148.548,102.22,95.6387,0.00201012,0.370956,20.5552,544.896,0.610685,0.0,0.0
792,197.75,58.7324,67.2087,141.345,102.212,96.8435,0.00186711,0.364577,20.5647,543.855,0.49507,0.0,0.0
828,206.75,58.9873,66.999,145.147,102.204,95.9825,0.00173435,0.357115,20.5742,542.814,0.576316,0.0,0.0
864,215.75,59.054,66.7617,144.458,102.199,96.848,0.00175856,0.349395,20.583,541.843,0.493453,0.0,0.0
900,224.75,58.3141,65.3132,144.479,102.176,96.591,0.00169219,0.344791,20.5851,540.872,0.515771,0.0,0.0
936,233.75,58.4105,66.436,142.365,102.161,96.8349,0.00144958,0.338511,20.5966,539.901,0.491297,0.0,0.0
972,242.75,58.321,65.2557,144.911,102.121,97.0275,0.00146607,0.332855,20.6018,538.891,0.469501,0.0,0.0
1008,251.75,58.2087,65.1759,145.142,102.082,97.6097,0.00111262,0.327732,20.6108,537.98,0.411057,0.0,0.0
1044,260.75,57.6177,64.4503,143.685,102.04,97.1634,0.00118367,0.323001,20.6146,537.069,0.449396,0.0,0.0
1080,269.75,58.0626,64.171,138.927,102.026,97.6036,0.000834326,0.3185,20.6202,536.168,0.406625,0.0,0.0
1116,278.75,57.1509,64.0966,147.913,101.996,98.4677,0.000957281,0.316232,20.6217,535.237,0.323041,0.0,0.0
1152,287.75,57.6338,64.0884,148.486,101.979,97.4286,0.000651688,0.311523,20.6283,534.396,0.418897,0.0,0.0
1188,296.75,56.6665,63.2315,145.435,101.948,97.6878,0.000587722,0.306641,20.6361,533.396,0.391706,0.0,0.0
1224,305.75,56.8279,62.9399,139.04,101.929,97.4717,0.000744211,0.305801,20.6316,532.635,0.410313,0.0,0.0
1260,314.75,56.8199,62.3068,147.258,101.913,98.8829,0.000443776,0.305388,20.636,531.794,0.276929,0.0,0.0
1296,323.75,56.0139,62.3834,148.879,101.845,98.4585,0.000357574,0.303157,20.638,530.913,0.31031,0.0,0.0
1332,332.75,56.8809,63.125,147.167,101.775,98.7871,0.00048242,0.302015,20.6397,530.052,0.273458,0.0,0.0
1368,341.75,56.0767,62.2335,145.362,101.757,98.1959,0.000336715,0.299551,20.6432,529.252,0.326872,0.0,0.0
1404,350.75,56.5395,62.1523,142.633,101.746,97.9266,0.000460614,0.299114,20.6443,528.471,0.3511,0.0,0.0
1440,359.75,55.717,62.0891,142.064,101.763,97.9601,0.000646528,0.298341,20.6439,527.63,0.349527,0.0,0.0
1476,368.75,56.0815,61.7338,141.698,101.739,98.0671,0.000420216,0.298569,20.6414,526.82,0.337279,0.0,0.0
1512,377.75,55.8571,61.6377,148.82,101.761,98.2669,0.000654589,0.299912,20.643,525.969,0.320612,0.0,0.0
1548,386.75,55.955,61.7354,147.284,101.77,98.8125,0.000515996,0.301364,20.6397,525.168,0.270621,0.0,0.0
1584,395.75,56.1985,62.043,141.368,101.769,97.6797,0.000582348,0.303286,20.6386,524.347,0.376314,0.0,0.0
1620,404.75,56.0757,61.9382,140.35,101.759,97.779,0.000689865,0.305243,20.6356,523.466,0.366128,0.0,0.0
1656,413.75,56.668,62.0231,145.01,101.755,97.3303,0.000774066,0.307842,20.6302,522.686,0.407968,0.0,0.0
1692,422.75,56.2276,62.4367,146.455,101.79,97.3932,0.000732272,0.311264,20.6235,521.835,0.405201,0.0,0.0
1728,431.75,56.16,62.2422,145.639,101.784,97.0199,0.000686405,0.315456,20.6225,520.984,0.439911,0.0,0.0
1764,440.75,56.52,62.8503,143.367,101.786,95.9515,0.00144531,0.319593,20.6172,520.154,0.541633,0.0,0.0
1800,449.75,56.8765,63.0249,144.181,101.769,95.7274,0.00104308,0.325354,20.6063,519.253,0.561605,0.0,0.0
1836,458.75,57.6852,63.5953,142.493,101.725,95.8557,0.00140363,0.331438,20.599,518.352,0.545302,0.0,0.0
1872,467.75,57.6731,63.8186,145.029,101.681,94.6788,0.00132675,0.337831,20.5901,517.461,0.65476,0.0,0.0
1908,476.75,57.0969,63.9964,147.107,101.636,94.4526,0.00118241,0.343798,20.5836,516.5,0.672612,0.0,0.0
1944,485.75,57.9177,64.6693,149.063,101.636,94.0728,0.00162226,0.350038,20.5781,515.589,0.709548,0.0,0.0
1980,494.75,58.5603,65.4776,141.067,101.644,93.5617,0.00202099,0.358862,20.5671,514.598,0.760284,0.0,0.0
2016,503.75,59.003,66.1335,141.924,101.607,93.0977,0.00219288,0.367949,20.5547,513.608,0.802554,0.0,0.0
2052,512.75,59.1277,66.7584,142.944,101.55,93.9202,0.00222284,0.37216,20.552,512.587,0.716741,0.0,0.0
2088,521.75,59.704,66.8208,142.96,101.483,93.3269,0.002096,0.375754,20.5492,511.586,0.768779,0.0,0.0
2124,530.75,60.2914,67.3642,143.008,101.401,91.8721,0.00224529,0.382678,20.5334,510.565,0.905526,0.0,0.0
2160,539.75,60.5766,67.7381,137.311,101.303,92.1809,0.00314379,0.386574,20.5321,509.534,0.865927,0.0,0.0
2196,548.75,60.7507,68.3639,144.373,101.186,92.4131,0.00284327,0.388662,20.5311,508.503,0.832191,0.0,0.0
2232,557.75,61.1112,68.5077,137.624,101.126,92.3939,0.00317009,0.395166,20.5205,507.382,0.828645,0.0,0.0
2268,566.75,61.8265,69.4356,143.285,101.048,91.9319,0.00365217,0.401102,20.5123,506.351,0.867604,0.0,0.0
2304,575.75,61.4755,68.9548,141.439,100.982,91.3229,0.00331897,0.407205,20.5021,505.3,0.922565,0.0,0.0
2340,584.75,62.2572,70.1911,147.041,100.931,91.3554,0.00404355,0.414673,20.4904,504.189,0.914659,0.0,0.0
2376,593.75,62.4941,70.6533,144.821,100.883,92.0379,0.00481378,0.42377,20.4759,502.998,0.841972,0.0,0.0
2412,602.75,63.087,71.9769,134.49,100.829,90.5136,0.00480786,0.433221,20.4641,501.837,0.990377,0.0,0.0
2448,611.75,64.0877,72.672,138.819,100.773,91.6611,0.00493251,0.439612,20.4564,500.676,0.869634,0.0,0.0
2484,620.75,64.3325,73.1553,140.768,100.729,90.8407,0.00494325,0.441437,20.4577,499.545,0.948159,0.0,0.0
2520,629.75,64.5193,73.1994,137.707,100.707,91.864,0.00460938,0.439284,20.4632,498.414,0.843381,0.0,0.0
2556,638.75,64.9206,73.3288,136.332,100.693,91.3138,0.00470121,0.434846,20.4676,497.333,0.897227,0.0,0.0
2592,647.75,64.0201,72.9477,140.732,100.695,91.3625,0.00456796,0.42626,20.4823,496.242,0.892524,0.0,0.0
2628,656.75,64.4129,72.3409,138.867,100.686,91.5039,0.00331723,0.411403,20.5068,495.201,0.877461,0.0,0.0
2664,665.75,63.7183,70.8365,143.029,100.697,91.7159,0.0026218,0.391641,20.5283,494.35,0.857244,0.0,0.0
2700,674.75,62.3469,69.5924,147.202,100.711,92.4669,0.00220257,0.363478,20.5675,493.569,0.783654,0.0,0.0
2736,683.75,61.3661,66.9476,145.256,100.709,93.0079,0.00180864,0.327399,20.6121,492.909,0.729931,0.0,0.0
2772,692.75,59.1196,64.5663,145.991,100.721,94.3203,0.00149099,0.280566,20.6749,492.458,0.602451,0.0,0.0
2808,701.75,56.7885,60.8331,145.801,100.735,96.4566,0.00225993,0.239729,20.7123,492.018,0.398286,0.0,0.0
2844,710.75,54.5954,57.852,148.393,100.738,98.4403,0.00307045,0.214476,20.7321,491.728,0.211713,0.0,0.0
2880,719.75,53.2594,55.3649,152.732,100.725,97.9591,0.00361001,0.196737,20.7478,491.517,0.255478,0.0,0.0
2916,728.75,51.9145,53.6525,152.48,100.722,97.8566,0.00430916,0.188133,20.7561,491.227,0.264815,0.0,0.0
2952,737.75,49.1367,50.8614,152.202,100.71,97.7628,0.00435597,0.180452,20.7655,490.997,0.272564,0.0,0.0
2988,746.75,48.2994,49.778,149.069,100.69,97.9342,0.0051311,0.176339,20.7691,490.767,0.254613,0.0,0.0
3024,755.75,47.3766,49.0501,151.15,100.655,97.8962,0.00540213,0.172674,20.7713,490.557,0.255059,0.0,0.0
3060,764.75,46.6572,48.0487,151.47,100.625,97.4292,0.00573879,0.169206,20.7766,490.336,0.29612,0.0,0.0
3096,773.75,46.0823,47.0935,155.303,100.583,97.7801,0.0056944,0.165672,20.7798,490.236,0.259334,0.0,0.0
3132,782.75,44.8642,46.6757,151.123,100.582,97.849,0.00600666,0.163681,20.7805,490.036,0.252751,0.0,0.0
3168,791.75,44.8001,45.9473,153.588,100.545,97.1422,0.00699988,0.161605,20.785,489.836,0.315933,0.0,0.0
3204,800.75,43.8119,45.6503,152.859,100.533,97.5894,0.00750023,0.160121,20.7878,489.696,0.272655,0.0,0.0
3240,809.75,44.0937,45.102,153.44,100.537,97.4388,0.00777965,0.159987,20.7905,489.536,0.28724,0.0,0.0
3276,818.75,43.4061,45.0224,152.285,100.545,97.3977,0.00751934,0.159252,20.7925,489.415,0.291824,0.0,0.0
3312,827.75,43.1827,44.2601,150.954,100.549,97.8074,0.00799003,0.161342,20.7848,489.205,0.253643,0.0,0.0
3348,836.75,42.8477,43.9835,154.111,100.526,97.2892,0.00837376,0.162818,20.7854,489.085,0.300361,0.0,0.0
3384,845.75,42.2718,44.4897,160.308,100.517,97.1797,,0.161445,,488.925,0.309869,0.0,0.0
3420,854.75,42.2999,43.6829,154.542,100.515,96.9515,,,,488.765,0.331214,0.0,0.0
3425,856,41.332,43.3852,151.4,100.516,97.4692,,,,488.845,0.282457,0.0,0.0

File: OSB_Cone_HF75Scalar_210325_R3.csv
LABORATORY,FSRI
TEST IDENT,OSB_HF75_3
OPERATOR,Morrissey
MATERIAL,5/8 inch OSB
ORIENTATION,Horizontal
HEAT FLUX,75
SURF AREA,0.01
C FACTOR,0.0386052
SPEC HOLDER DIFF,-97.54
SPECIMEN MASS,99.67
SCAN TIME,0.25
O2 DELAY TIME,11
CO DELAY TIME,11
CO2 DELAY TIME,8
FLOW FACTOR,1
SCAN COUNT,3303
TIME TO IGN,12.25
END OF TEST SCAN,2823
END OF TEST TIME,705.75
TEST STATUS,1
PRE TEST CMT,Test w/o frame or grid

File: OSB_Cone_HF75Scan_210325_R1.csv
Names,Time,Stack TC,Smoke TC,Exh Press,Smoke Comp,Smoke Meas,CO Meter,CO2 Meter,O2 Meter,Sample Mass,Ext Coeff,Start Test,Flame Verif
Chan Gain,,500,500,1,1,1,1,1,1,1,1,1.0,1.0
Offset,,0,0,0.138348,0,0,0,0,0,0,0,0.0,0.0
Gain,,1,1,25.011,13.5067,16.616,1,1,1,1.00091,1.04608,1.0,1.0
Units,sec,C,C,Pa,%,%,%,%,%,g,/m,,
Baseline,,39.2611,42.655,157.643,100.444,100.531,-0.000400138,0.0813323,20.8696,-0.0739841,-0.0079345,,
33,8,37.5423,41.2722,152.072,100.449,98.1837,6.79765e-06,0.0850369,20.8664,578.517,0.209304,0.0,0.0
66,16.25,43.204,50.8659,135.071,100.424,98.7587,0.00218319,0.330978,20.4795,577.376,0.15346,0.0,0.0
99,24.5,54.5711,69.0597,130.879,100.389,95.4571,0.00491985,0.659836,20.1288,575.524,0.462268,0.0,0.0
132,32.75,62.5939,80.8756,135.039,100.447,91.7636,0.00708174,0.746952,20.0604,573.622,0.829687,0.0,0.0
165,41,67.0574,87.056,127.079,100.432,91.7448,0.00695713,0.737781,20.0851,571.881,0.830131,0.0,0.0
198,49.25,68.8509,90.504,134.954,100.424,91.7286,0.00692307,0.72038,20.1112,570.049,0.831039,0.0,0.0
231,57.5,71.2351,91.5782,128.075,100.433,95.0418,0.00686113,0.698227,20.1383,568.327,0.50627,0.0,0.0
264,65.75,72.8134,92.461,133.442,100.428,94.5119,0.00674946,0.678257,20.1621,566.636,0.557159,0.0,0.0
297,74,73.6602,92.4632,131.286,100.437,93.8198,0.00643833,0.652111,20.1927,565.034,0.625362,0.0,0.0
330,82.25,73.8394,92.4855,138.195,100.402,94.5226,0.00617865,0.628332,20.2202,563.473,0.553752,0.0,0.0
363,90.5,74.5077,91.9143,135.209,100.355,93.9374,0.00620401,0.61498,20.2337,561.922,0.606366,0.0,0.0
396,98.75,74.4576,91.2889,139.877,100.327,94.663,0.00640557,0.600779,20.2508,560.43,0.533231,0.0,0.0
429,107,74.3115,89.9013,132.602,100.303,93.5262,0.0055482,0.57883,20.2776,558.969,0.641912,0.0,0.0
462,115.25,73.8217,88.8253,136.399,100.284,93.2473,0.00570358,0.553192,20.3078,557.588,0.667544,0.0,0.0
495,123.5,72.1115,88.0213,136.002,100.275,93.3867,0.00516021,0.519562,20.3496,556.246,0.65304,0.0,0.0
528,131.75,72.7993,85.8416,139.948,100.263,93.981,0.00506199,0.499221,20.3743,555.035,0.593774,0.0,0.0
561,140,71.7787,84.1462,138.642,100.275,93.5257,0.00467029,0.476278,20.4016,553.834,0.639398,0.0,0.0
594,148.25,71.2514,83.5538,141.122,100.259,95.0611,0.00450375,0.466114,20.4121,552.653,0.488541,0.0,0.0
627,156.5,70.7751,82.439,139.046,100.248,96.7634,0.00415769,0.454397,20.4278,551.452,0.32466,0.0,0.0
660,164.75,70.5483,81.3259,141.441,100.244,95.1453,0.00380521,0.444169,20.4394,550.371,0.479023,0.0,0.0
693,173,70.4652,81.2619,144.16,100.24,96.6898,0.00354379,0.442097,20.4404,549.22,0.330842,0.0,0.0
726,181.25,70.2489,80.9355,142.57,100.223,96.2938,0.00348668,0.439395,20.4421,548.049,0.367031,0.0,0.0
759,189.5,70.5537,80.815,138.704,100.245,95.6417,0.00366533,0.432359,20.4527,546.938,0.431384,0.0,0.0
792,197.75,70.4406,80.1063,141.425,100.228,96.2213,0.00293539,0.424971,20.4603,545.817,0.374396,0.0,0.0
825,206,70.05,80.0913,144.875,100.265,96.1544,0.0031819,0.422758,20.4631,544.726,0.38414,0.0,0.0
858,214.25,69.9839,79.8316,145.04,100.321,96.1356,0.0033255,0.419516,20.4668,543.645,0.391059,0.0,0.0
891,222.5,69.7812,79.714,145.113,100.373,96.2101,0.00300531,0.413293,20.4734,542.564,0.388697,0.0,0.0
924,230.75,69.6731,79.0647,140.941,100.474,95.9525,0.00292931,0.415396,20.4673,541.563,0.422526,0.0,0.0
957,239,69.9418,79.2262,135.836,100.559,97.4089,0.00283862,0.413764,20.4703,540.492,0.292015,0.0,0.0
990,247.25,69.7608,78.9617,145.611,100.607,96.5286,0.00255855,0.414809,20.4684,539.421,0.379753,0.0,0.0
1023,255.5,69.5838,78.9431,137.042,100.733,96.6772,0.00259833,0.41269,20.4712,538.38,0.377138,0.0,0.0
1056,263.75,69.5929,78.7088,138.234,100.838,96.9535,0.00297786,0.41209,20.4754,537.279,0.360439,0.0,0.0
1089,272,69.5223,78.8171,139.481,100.954,97.0002,0.0026474,0.410703,20.4747,536.268,0.366634,0.0,0.0
1122,280.25,69.622,78.9051,141.082,101.09,97.4489,0.00283899,0.409053,20.4793,535.227,0.336559,0.0,0.0
1155,288.5,69.3113,78.3862,140.219,101.198,96.9637,0.00277247,0.410062,20.4773,534.176,0.392204,0.0,0.0
1188,296.75,69.8253,78.9998,140.432,101.283,97.3511,0.00232969,0.409756,20.4787,533.195,0.363348,0.0,0.0
1221,305,69.6369,78.8789,139.035,101.361,97.6715,0.00286354,0.409247,20.48,532.204,0.340246,0.0,0.0
1254,313.25,69.389,78.37,138.843,101.411,98.2628,0.00262295,0.409991,20.4766,531.174,0.289342,0.0,0.0
1287,321.5,69.7331,78.4662,139.932,101.471,97.6401,0.00322886,0.408924,20.4767,530.163,0.353121,0.0,0.0
1320,329.75,69.8566,78.355,140.865,101.515,98.2243,0.00295119,0.41151,20.4748,529.162,0.302373,0.0,0.0
1353,338,69.643,78.6636,143.234,101.531,97.2755,0.00288854,0.412273,20.4742,528.151,0.392852,0.0,0.0
1386,346.25,69.671,78.6417,140.311,101.554,97.5149,0.00307331,0.415768,20.4692,527.17,0.372425,0.0,0.0
1419,354.5,69.489,78.9099,139.787,101.545,95.9475,0.00331046,0.417058,20.4684,526.129,0.520294,0.0,0.0
1452,362.75,69.533,78.4069,139.133,101.55,95.7107,0.0032025,0.414178,20.4703,525.158,0.543379,0.0,0.0
1485,371,69.6201,78.3766,140.794,101.522,96.4257,0.00307321,0.415424,20.468,524.137,0.472627,0.0,0.0
1518,379.25,69.4908,78.3397,143.8,101.488,96.1554,0.00289908,0.414515,20.4702,523.206,0.495254,0.0,0.0
1551,387.5,69.6722,78.5402,137.113,101.458,96.2406,0.00348721,0.412315,20.4715,522.215,0.484481,0.0,0.0
1584,395.75,69.6091,78.3642,142.461,101.385,97.1006,0.00339073,0.415022,20.4679,521.234,0.396209,0.0,0.0
1617,404,69.1507,77.7227,140.174,101.311,95.9297,0.00333411,0.414638,20.4689,520.264,0.50081,0.0,0.0
1650,412.25,70.1326,76.6072,144.162,101.254,95.4957,0.00344591,0.415654,20.4673,519.283,0.537234,0.0,0.0
1683,420.5,69.5947,78.5756,146.758,101.175,95.2056,0.00313736,0.418192,20.4644,518.292,0.558047,0.0,0.0
1716,428.75,69.7878,77.9929,143.363,101.078,95.8435,0.00355275,0.418396,20.4636,517.361,0.487979,0.0,0.0
1749,437,70.7266,78.5839,139.539,100.996,94.8512,0.00351934,0.420257,20.4615,516.37,0.575996,0.0,0.0
1782,445.25,69.8746,77.5562,136.226,100.946,94.5631,0.00378489,0.416561,20.4661,515.399,0.59937,0.0,0.0
1815,453.5,69.4328,78.1821,138.435,100.901,94.5236,0.00371869,0.419789,20.4624,514.448,0.599124,0.0,0.0
1848,461.75,69.6198,77.932,143.911,100.98,94.0951,0.00375061,0.415057,20.4653,513.487,0.647971,0.0,0.0
1881,470,69.7107,78.3029,140.614,101.131,94.7548,0.00363831,0.419354,20.4615,512.527,0.59756,0.0,0.0
1914,478.25,69.3369,78.5071,144.72,101.301,94.5773,0.00415908,0.416984,20.4615,511.586,0.630159,0.0,0.0
1947,486.5,69.6767,77.9742,140.741,101.461,94.2817,0.00417284,0.418369,20.4582,510.615,0.673437,0.0,0.0
1980,494.75,69.6525,78.0658,139.433,101.568,94.483,0.0041464,0.419673,20.4573,509.714,0.663552,0.0,0.0
2013,503,70.6638,78.3818,140.457,101.657,94.8674,0.00447697,0.421548,20.4546,508.773,0.634264,0.0,0.0
2046,511.25,70.1144,78.1786,139.694,101.766,93.9019,0.00416063,0.425655,20.4494,507.812,0.73802,0.0,0.0
2079,519.5,69.5318,78.9029,137.956,101.785,94.1357,0.00457945,0.429065,20.4431,506.821,0.716915,0.0,0.0
2112,527.75,70.8864,78.9593,144.495,101.825,94.4724,0.00429455,0.435207,20.4346,505.84,0.687719,0.0,0.0
2145,536,70.9103,79.1695,138.882,101.84,94.2462,0.00450899,0.434596,20.4373,504.87,0.71105,0.0,0.0
2178,544.25,70.0297,79.9331,141.907,101.813,94.1894,0.0040164,0.430365,20.4424,503.889,0.714203,0.0,0.0
2211,552.5,70.2788,79.2786,142.595,101.784,94.4562,0.00382495,0.427295,20.4426,502.958,0.685617,0.0,0.0
2244,560.75,70.1457,79.5049,145.536,101.747,94.8507,0.0040222,0.424094,20.4487,502.017,0.64399,0.0,0.0
2277,569,69.4493,79.5772,140.998,101.685,95.2457,0.00294086,0.41555,20.4619,501.166,0.600315,0.0,0.0
2310,577.25,69.1972,77.9436,143.295,101.628,95.4947,0.00262247,0.396012,20.4835,500.345,0.571224,0.0,0.0
2343,585.5,69.175,76.0122,146.896,101.579,95.3091,0.00235298,0.36426,20.5159,499.615,0.584608,0.0,0.0
2376,593.75,67.0424,74.8063,144.498,101.545,97.1249,0.00163912,0.321116,20.5682,499.064,0.408336,0.0,0.0
2409,602,65.8502,71.4875,148.43,101.535,100.346,0.000788519,0.276447,20.6233,498.574,0.108024,0.0,0.0
2442,610.25,63.6,69.0829,146.81,101.497,101.123,0.000857404,0.234294,20.6707,498.264,0.0338782,0.0,0.0
2475,618.5,61.2772,65.62,148.777,101.468,102.143,0.00140809,0.204498,20.7063,498.033,-0.0608922,0.0,0.0
2508,626.75,59.7711,62.9967,146.555,101.374,102.815,0.00208009,0.185407,20.7281,497.853,-0.129519,0.0,0.0
2541,635,58.2391,60.8477,147.54,101.301,102.663,0.00203314,0.176978,20.7371,497.673,-0.122539,0.0,0.0
2574,643.25,57.1668,59.2573,149.002,101.349,102.899,0.00268701,0.174721,20.7393,497.553,-0.139252,0.0,0.0
2607,651.5,56.0477,58.4043,150.924,101.381,102.585,0.00270381,0.173571,20.7415,497.423,-0.108345,0.0,0.0
2640,659.75,55.5296,57.1608,149.252,101.416,102.64,0.00290197,0.169454,20.7473,497.283,-0.110125,0.0,0.0
2673,668,54.4117,56.4756,149.391,101.433,102.317,0.00278082,0.166581,20.7515,497.163,-0.0796277,0.0,0.0
2706,676.25,53.9877,54.9463,150.35,101.462,102.346,0.0026343,0.165154,20.753,497.082,-0.0796095,0.0,0.0
2739,684.5,53.0528,55.0145,147.656,101.479,102.563,0.00310438,0.163851,20.7537,496.932,-0.0975188,0.0,0.0
2772,692.75,52.4508,54.8852,151.227,101.516,102.507,0.00344203,0.162394,20.7562,496.762,-0.0890905,0.0,0.0
2805,701,51.8493,54.2773,152.146,101.512,101.91,0.00354186,0.162497,20.7564,496.652,-0.0359259,0.0,0.0
2838,709.25,51.3961,53.8452,153.175,101.528,102.436,0.00367073,0.164064,20.7541,496.612,-0.0816157,0.0,0.0
2871,717.5,51.3792,53.4005,149.21,101.549,101.914,0.00412138,0.171104,20.7481,496.432,-0.0329301,0.0,0.0
2904,725.75,51.139,53.3924,151.387,101.557,102.241,0.00450287,0.16586,20.7566,496.352,-0.0616691,0.0,0.0
2937,734,50.6872,53.2511,153.594,101.572,102.307,0.00451408,0.161158,20.7616,496.202,-0.06616,0.0,0.0
2970,742.25,49.6676,52.8944,151.273,101.603,102.614,0.00473144,0.161721,20.7615,496.112,-0.0908049,0.0,0.0
3003,750.5,50.3566,52.3571,155.112,101.655,102.097,0.00541844,0.161461,20.7609,496.052,-0.0398297,0.0,0.0
3036,758.75,49.2063,51.7993,152.849,101.705,102.186,0.00538003,0.158675,20.7641,495.931,-0.0432646,0.0,0.0
3069,767,49.1644,52.233,152.898,101.741,102.522,0.00568609,0.158447,20.7654,495.821,-0.0702144,0.0,0.0
3102,775.25,49.5422,51.5837,151.836,101.783,102.443,0.00606102,0.158326,20.7647,495.721,-0.0593408,0.0,0.0
3135,783.5,48.9961,51.7416,154.65,101.84,102.239,,,,495.621,-0.0358996,0.0,0.0
3155,788.5,48.5619,51.5977,152.071,101.876,102.427,,,,495.561,-0.0495753,0.0,0.0