Folder: fsri_materials_database/01_Data/OSB/Cone (part 2)

File: OSB_Cone_HF50Scan_210326_R1.csv
Names,Time,Stack TC,Smoke TC,Exh Press,Smoke Comp,Smoke Meas,CO Meter,CO2 Meter,O2 Meter,Sample Mass,Ext Coeff,Start Test,Flame Verif
Chan Gain,,500,500,1,1,1,1,1,1,1,1,1.0,1.0
Offset,,0,0,0.138348,0,0,0,0,0,0,0,0.0,0.0
Gain,,1,1,25.011,13.5067,16.616,1,1,1,1.00091,1.04608,1.0,1.0
Units,sec,C,C,Pa,%,%,%,%,%,g,/m,,
Baseline,,26.4898,29.0399,165.48,102.035,98.9212,-0.00121969,0.0472496,20.9595,-0.012845,0.28437,,
37,9,25.1129,27.3321,168.374,101.723,97.923,-0.000938668,0.0595728,20.9408,577.826,0.349315,0.0,0.0
74,18.25,25.768,28.3478,161.023,101.81,96.9809,-0.000614959,0.0590777,20.9453,577.556,0.445871,0.0,0.0
111,27.5,26.8018,31.0426,146.198,101.916,99.2268,0.00063661,0.0869977,20.8063,576.935,0.245414,0.0,1.0
148,36.75,37.8305,48.2333,143.829,102.056,95.9201,0.00249287,0.36399,20.4022,575.304,0.568985,0.0,0.0
185,46,45.0532,58.305,135.475,102.207,94.2594,0.00370578,0.479749,20.3681,573.712,0.742835,0.0,0.0
222,55.25,49.1208,64.3162,137.402,102.325,95.803,0.0035493,0.513789,20.3673,572.101,0.604329,0.0,0.0
259,64.5,52.479,67.4988,143.591,102.438,94.9267,0.00401297,0.52029,20.3842,570.509,0.698765,0.0,0.0
296,73.75,54.0146,69.4861,142.444,102.479,95.2203,0.0043609,0.51492,20.3947,568.918,0.674082,0.0,0.0
333,83,55.6225,70.2702,146.999,102.476,97.3703,0.0040972,0.514382,20.3926,567.366,0.468937,0.0,0.0
370,92.25,56.687,71.1729,139.271,102.392,97.1782,0.00452064,0.516367,20.3955,565.745,0.479534,0.0,0.0
407,101.5,57.5801,71.6017,142.348,102.219,97.384,0.00428929,0.509392,20.4086,564.254,0.444624,0.0,0.0
444,110.75,58.0013,71.5872,137.06,102.023,94.8283,0.00416331,0.497384,20.4255,562.782,0.671059,0.0,0.0
481,120,58.0427,70.6942,145.249,101.79,96.2416,0.00421623,0.479912,20.4516,561.351,0.514346,0.0,0.0
518,129.25,57.8005,69.7474,145.975,101.525,94.3765,0.00348542,0.458616,20.4746,559.93,0.669951,0.0,0.0
555,138.5,57.8824,69.2907,146.208,101.25,94.4212,0.00383209,0.442923,20.4928,558.628,0.640731,0.0,0.0
592,147.75,57.7878,68.2897,145.369,100.957,94.4769,0.00355204,0.42963,20.5102,557.337,0.60875,0.0,0.0
629,157,56.9937,67.1873,145.181,100.728,93.7554,0.00319051,0.414018,20.5285,556.116,0.658249,0.0,0.0
666,166.25,56.7023,66.5738,145.999,100.624,94.6139,0.00313492,0.399738,20.5474,554.885,0.565103,0.0,0.0
703,175.5,56.5694,65.5565,142.602,100.633,96.7624,0.00278939,0.385659,20.5608,553.734,0.359927,0.0,0.0
740,184.75,56.8586,65.8931,146.007,100.78,94.9272,0.00257338,0.375065,20.5742,552.563,0.548958,0.0,0.0
777,194,55.3971,63.8023,147.69,101.043,95.0773,0.00256024,0.366452,20.5818,551.502,0.558449,0.0,0.0
814,203.25,55.6865,63.7338,146.561,101.364,96.1569,0.0024101,0.358716,20.5899,550.401,0.483958,0.0,0.0
851,212.5,55.6695,63.6273,144.117,101.662,94.9222,0.00178469,0.350944,20.5988,549.34,0.629489,0.0,0.0
888,221.75,55.0967,62.7183,152.127,101.844,98.5888,0.00189061,0.34443,20.6057,548.279,0.298098,0.0,0.0
925,231,54.8245,62.2885,147.326,101.892,96.9692,0.00164113,0.337882,20.6168,547.228,0.454401,0.0,0.0
962,240.25,54.8474,61.9351,146.717,101.854,97.5514,0.00184233,0.33152,20.6216,546.187,0.396064,0.0,0.0
999,249.5,54.5595,61.413,148.133,101.657,97.3932,0.00154102,0.326613,20.6295,545.226,0.393153,0.0,0.0
1036,258.75,54.5697,61.4995,145.986,101.358,96.4546,0.00120497,0.321427,20.6339,544.225,0.455001,0.0,0.0
1073,268,54.3509,60.9918,146.471,101.355,98.2669,0.00118081,0.317628,20.6366,543.255,0.283927,0.0,0.0
1110,277.25,54.3051,61.102,149.681,101.928,97.7522,0.00110411,0.315048,20.6419,542.334,0.38384,0.0,0.0
1147,286.5,54.0836,60.3709,146.903,102.159,97.7091,0.00084109,0.31127,20.6446,541.373,0.408681,0.0,0.0
1184,295.75,53.5672,60.2724,148.272,101.956,96.9895,0.00109263,0.308953,20.648,540.432,0.458197,0.0,0.0
1221,305,53.3315,59.5727,150.161,101.722,98.4702,0.00106003,0.306758,20.6493,539.521,0.298149,0.0,0.0
1258,314.25,54.0856,59.8111,154.768,102.06,97.5346,0.00101578,0.303422,20.6514,538.64,0.41615,0.0,0.0
1295,323.5,53.8668,59.9137,150.081,102.344,98.2456,0.000740558,0.300694,20.657,537.729,0.375045,0.0,0.0
1332,332.75,53.5725,59.2303,149.327,102.468,99.0645,0.000967268,0.299462,20.658,536.859,0.309954,0.0,0.0
1369,342,52.9435,59.6611,151.338,102.32,98.6852,0.000644507,0.298976,20.6593,535.988,0.33193,0.0,0.0
1406,351.25,53.1988,59.1138,144.943,101.921,98.3769,0.000414454,0.29886,20.658,535.087,0.32479,0.0,0.0
1443,360.5,53.5702,59.8313,149.959,101.48,97.1361,0.000602646,0.298621,20.6583,534.226,0.401433,0.0,0.0
1480,369.75,53.2134,59.2651,152.83,101,96.4561,0.000826842,0.300153,20.6562,533.326,0.422445,0.0,0.0
1517,379,53.6286,59.6643,152.221,100.705,97.2076,0.000600368,0.301954,20.6524,532.455,0.324341,0.0,0.0
1554,388.25,53.8506,59.6474,152.111,100.672,96.9921,0.000755038,0.304357,20.6502,531.574,0.341739,0.0,0.0
1591,397.5,54.0644,60.0678,150.012,100.93,96.5707,0.00144401,0.306824,20.6493,530.663,0.405181,0.0,0.0
1628,406.75,53.7747,60.3189,151.131,101.328,97.1954,0.00111966,0.309473,20.6448,529.792,0.382103,0.0,0.0
1665,416,54.3155,60.5493,145.378,101.759,97.8049,0.000836702,0.311775,20.6422,528.871,0.363665,0.0,0.0
1702,425.25,54.6928,60.5078,148.623,101.915,96.8247,0.00108219,0.314271,20.6383,527.951,0.470165,0.0,0.0
1739,434.5,53.9018,59.8972,148.615,101.842,96.1199,0.00117734,0.318313,20.6334,527.02,0.530637,0.0,0.0
1776,443.75,54.3623,60.8268,145.424,101.56,95.2959,0.000931326,0.320245,20.6314,526.119,0.584202,0.0,0.0
1813,453,54.6487,60.6316,145.474,101.274,96.0043,0.00143674,0.3239,20.6277,525.148,0.490322,0.0,0.0
1850,462.25,54.9765,61.2202,147.871,101.701,96.4373,0.00137159,0.327486,20.6248,524.237,0.487674,0.0,0.0
1887,471.5,54.822,61.0823,151.875,102.087,96.5342,0.00159113,0.329399,20.6216,523.256,0.513244,0.0,0.0
1924,480.75,54.6996,60.5735,150.893,102.089,96.1579,0.00180308,0.330763,20.6191,522.325,0.549189,0.0,0.0
1961,490,55.1296,61.6051,146.544,101.764,95.8861,0.00167422,0.334144,20.6132,521.335,0.545921,0.0,0.0
1998,499.25,55.6457,62.3488,145.768,101.804,95.4586,0.00178239,0.338109,20.6091,520.404,0.590562,0.0,0.0
2035,508.5,55.5946,62.5978,144.496,102.097,96.3384,0.00195107,0.340961,20.6059,519.433,0.53272,0.0,0.0
2072,517.75,56.152,62.945,147.384,102.358,95.8993,0.00212358,0.344618,20.5989,518.442,0.5981,0.0,0.0
2109,527,56.6096,63.0443,144.018,102.472,95.7487,0.00211037,0.349603,20.592,517.451,0.622715,0.0,0.0
2146,536.25,56.6217,63.4456,149.734,102.414,95.234,0.00253423,0.354608,20.587,516.41,0.666966,0.0,0.0
2183,545.5,56.9904,63.9778,151.52,102.093,94.3578,0.00265768,0.358587,20.5804,515.379,0.72297,0.0,0.0
2220,554.75,57.2239,64.1094,143.713,101.673,94.4597,0.00247464,0.362948,20.5769,514.338,0.675235,0.0,0.0
2257,564,57.1784,64.7336,149.697,101.183,92.0977,0.0025722,0.37116,20.5639,513.297,0.863338,0.0,0.0
2294,573.25,58.0984,65.2517,151.675,100.831,91.2048,0.00318059,0.376442,20.5545,512.166,0.920763,0.0,0.0
2331,582.5,57.7081,65.8359,142.878,100.694,90.5719,0.00383261,0.384692,20.5435,511.075,0.972155,0.0,0.0
2368,591.75,59.1328,66.8896,144.731,100.791,90.5491,0.00440372,0.394079,20.5302,509.934,0.983252,0.0,0.0
2405,601,59.2501,67.5218,147.44,101.021,91.0942,0.00435636,0.400463,20.5245,508.793,0.949094,0.0,0.0
2442,610.25,60.0107,67.9019,143.882,101.357,90.4807,0.00528474,0.405803,20.5171,507.632,1.04157,0.0,0.0
2479,619.5,60.4588,68.3079,145.805,101.678,91.9502,0.00462853,0.407099,20.5139,506.491,0.922799,0.0,0.0
2516,628.75,60.7875,68.3497,143.658,101.916,90.9923,0.00440493,0.407229,20.5198,505.33,1.04033,0.0,0.0
2553,638,60.2522,68.6241,152.697,101.997,92.4689,0.00379547,0.402495,20.5282,504.259,0.899887,0.0,0.0
2590,647.25,60.6712,68.3305,143.746,101.846,91.3549,0.00358892,0.393272,20.5343,503.188,0.997528,0.0,0.0
2627,656.5,60.3776,67.3243,147.942,101.585,92.5947,0.0025483,0.372752,20.5686,502.247,0.850332,0.0,0.0
2664,665.75,59.1516,65.5814,141.611,101.323,94.051,0.00161511,0.337084,20.6191,501.436,0.683385,0.0,0.0
2701,675,57.6697,63.0938,151.087,101.508,97.0778,0.00108392,0.289094,20.6782,500.836,0.409476,0.0,0.0
2738,684.25,55.0828,59.4055,155.706,101.943,97.0615,0.000764754,0.240046,20.7328,500.355,0.450275,0.0,0.0
2775,693.5,53.1305,56.9008,150.785,102.144,98.9524,0.000956103,0.202116,20.7724,500.065,0.291318,0.0,0.0
2812,702.75,50.6015,53.129,155.839,102.118,100.562,0.00177062,0.170729,20.8154,499.825,0.140852,0.0,0.0
2849,712,48.7841,50.4884,154.803,101.883,99.8241,0.00231035,0.152068,20.833,499.635,0.187296,0.0,0.0
2886,721.25,47.4413,48.5803,158.643,102.011,100.538,0.0026784,0.142179,20.8393,499.435,0.133484,0.0,0.0
2923,730.5,46.2619,47.2463,156.884,101.722,100.424,0.00276572,0.135358,20.8448,499.294,0.117865,0.0,0.0
2960,739.75,45.0834,46.0301,155.705,101.928,99.5178,0.00311056,0.131829,20.8498,499.375,0.219613,0.0,0.0
2997,749,44.2845,44.678,157.29,102.147,100.539,0.00335907,0.130433,20.8513,499.034,0.14561,0.0,0.0
3034,758.25,43.7391,44.8902,156.872,102.353,100.253,0.00345459,0.130373,20.8467,498.874,0.190291,0.0,0.0
3071,767.5,43.3074,44.3772,158.185,102.492,100.224,0.00380821,0.129765,20.8513,498.694,0.205345,0.0,0.0
3108,776.75,41.8238,43.6019,159.5,102.556,100.332,0.00382049,0.131663,20.8474,498.594,0.201206,0.0,0.0
3145,786,41.3282,42.3994,161.873,102.574,100.475,0.00427176,0.12838,20.8541,498.444,0.189688,0.0,0.0
3182,795.25,40.8732,41.93,155.009,102.475,100.41,0.00398255,0.122096,20.8635,498.314,0.186762,0.0,0.0
3219,804.5,40.4711,41.1933,155.905,102.293,100.157,0.00411411,0.120876,20.8652,498.184,0.193669,0.0,0.0
3256,813.75,40.7927,41.2706,154.866,102.054,99.7561,0.00390955,0.119614,20.8641,498.083,0.208938,0.0,0.0
3293,823,39.675,41.5651,156.63,101.725,99.101,0.0047977,0.118681,20.8657,497.943,0.239814,0.0,0.0
3330,832.25,40.0121,40.8746,155.739,101.436,99.4631,0.00477412,0.117658,20.867,497.833,0.180213,0.0,0.0
3367,841.5,39.4851,40.9095,158.64,101.137,99.0838,0.0048268,0.116689,20.8666,497.713,0.188236,0.0,0.0
3404,850.75,39.3609,39.9706,156.797,100.94,99.0077,0.00509886,0.116286,20.8665,497.583,0.177352,0.0,0.0
3441,860,38.462,39.7104,155.794,100.864,98.3784,0.00542074,0.115646,20.8688,497.483,0.229,0.0,0.0
3478,869.25,38.4675,40.0154,158.972,100.905,98.2309,0.00546733,0.11481,20.8717,497.373,0.246448,0.0,0.0
3515,878.5,38.108,39.9751,159.64,101.061,98.5559,0.00549572,0.113844,20.8727,497.263,0.23033,0.0,0.0
3552,887.75,37.9161,39.6153,163.625,101.288,98.5676,,0.113395,,497.153,0.249843,0.0,0.0
3587,896.5,37.9235,39.7539,164.489,101.522,98.8642,,,,497.072,0.243418,0.0,0.0

File: OSB_Cone_HF50Scan_210326_R2.csv
Names,Time,Stack TC,Smoke TC,Exh Press,Smoke Comp,Smoke Meas,CO Meter,CO2 Meter,O2 Meter,Sample Mass,Ext Coeff,Start Test,Flame Verif
Chan Gain,,500,500,1,1,1,1,1,1,1,1,1.0,1.0
Offset,,0,0,0.138348,0,0,0,0,0,0,0,0.0,0.0
Gain,,1,1,25.011,13.5067,16.616,1,1,1,1.00091,1.04608,1.0,1.0
Units,sec,C,C,Pa,%,%,%,%,%,g,/m,,
Baseline,,33.5848,35.9077,158.946,101.97,98.0553,-0.00108137,0.0626455,20.9271,-0.0205604,0.359185,,
36,8.75,31.2471,33.4938,157.702,101.956,97.3617,-0.00104735,0.0662438,20.9221,581.429,0.423125,0.0,0.0
72,17.75,31.7227,34.1127,160.876,101.962,95.4713,-0.000696813,0.0658877,20.9257,581.169,0.603562,0.0,0.0
108,26.75,35.2682,41.6803,145.208,101.973,96.8384,0.00099137,0.15601,20.6322,580.148,0.474063,0.0,0.0
144,35.75,44.8429,55.5579,137.273,101.99,95.7984,0.00239314,0.357769,20.4165,578.687,0.574703,0.0,0.0
180,44.75,50.6025,63.989,141.144,102.024,94.3603,0.00350789,0.459833,20.3703,577.085,0.716498,0.0,0.0
216,53.75,54.043,68.7304,137.943,102.052,95.16,0.00404218,0.505926,20.3582,575.554,0.641656,0.0,0.0
252,62.75,56.8675,71.4667,137.778,102.087,95.8942,0.00361502,0.525637,20.3477,574.033,0.574201,0.0,0.0
288,71.75,58.3963,73.9832,137.615,102.137,95.3714,0.00382409,0.535522,20.3503,572.501,0.628921,0.0,0.0
324,80.75,59.8082,75.4803,136.741,102.186,94.8573,0.00428015,0.535165,20.3563,570.99,0.682858,0.0,0.0
360,89.75,61.0096,75.4665,137.099,102.225,94.8912,0.00379584,0.528606,20.3717,569.528,0.683125,0.0,0.0
396,98.75,61.9159,75.7585,142.841,102.228,93.7219,0.00412781,0.516668,20.3879,568.077,0.797198,0.0,0.0
432,107.75,61.8804,74.9827,138.62,102.232,93.6124,0.00390042,0.500488,20.4135,566.686,0.80826,0.0,0.0
468,116.75,62.2325,74.5039,137.685,102.235,93.3786,0.00393377,0.483087,20.4331,565.355,0.831426,0.0,0.0
504,125.75,61.8102,73.9362,138.51,102.233,94.8101,0.00379676,0.46547,20.4534,564.053,0.691639,0.0,0.0
540,134.75,61.877,73.1814,145.53,102.224,94.1676,0.00376602,0.450544,20.4677,562.822,0.753255,0.0,0.0
576,143.75,61.4905,72.4354,144.902,102.218,93.8172,0.00381639,0.438172,20.4809,561.611,0.786907,0.0,0.0
612,152.75,61.1901,71.2777,140.432,102.203,94.7563,0.00327851,0.427156,20.4925,560.38,0.694179,0.0,0.0
648,161.75,61.1585,70.7783,143.604,102.176,95.1737,0.00295435,0.419315,20.4994,559.209,0.651486,0.0,0.0
684,170.75,60.7056,70.1784,143.969,102.167,95.1904,0.00293349,0.412707,20.5041,558.028,0.64902,0.0,0.0
720,179.75,61.0257,69.9607,142.13,102.094,94.84,0.00270273,0.404943,20.516,556.877,0.676267,0.0,0.0
756,188.75,60.6116,69.0914,145.099,102.04,95.4531,0.00271169,0.392959,20.5332,555.756,0.612325,0.0,0.0
792,197.75,60.1457,68.2614,145.763,101.964,95.304,0.0024643,0.384339,20.5425,554.665,0.619845,0.0,0.0
828,206.75,59.4362,68.2908,145.753,101.899,95.7624,0.00237382,0.378402,20.5458,553.614,0.569952,0.0,0.0
864,215.75,59.5718,67.2575,139.581,101.85,95.0717,0.0016388,0.37342,20.5533,552.553,0.63199,0.0,0.0
900,224.75,59.1135,67.4039,139.549,101.773,95.3304,0.00183774,0.369016,20.5591,551.482,0.600079,0.0,0.0
936,233.75,59.4252,67.3655,145.559,101.663,95.8151,0.00188987,0.367622,20.5582,550.431,0.543644,0.0,0.0
972,242.75,59.6104,66.656,145.539,101.525,95.4566,0.00200488,0.363983,20.5635,549.38,0.565571,0.0,0.0
1008,251.75,58.9163,66.9767,147.513,101.392,94.909,0.00187726,0.362897,20.5637,548.419,0.606325,0.0,0.0
1044,260.75,59.3167,65.9798,140.2,101.275,95.6975,0.0016882,0.360073,20.5667,547.378,0.519804,0.0,0.0
1080,269.75,59.4205,66.9512,150.628,101.147,94.9901,0.00145069,0.358179,20.5697,546.337,0.576299,0.0,0.0
1116,278.75,59.1269,66.3397,141.643,101.054,95.2315,0.00137561,0.355808,20.5735,545.376,0.544519,0.0,0.0
1152,287.75,59.14,66.2427,141.947,101.004,94.6585,0.00144931,0.354283,20.5737,544.396,0.595405,0.0,0.0
1188,296.75,58.5611,66.5905,139.758,100.946,95.1245,0.00132145,0.35171,20.5786,543.385,0.545024,0.0,0.0
1224,305.75,59.595,65.4277,146.426,100.867,95.1022,0.000977309,0.349716,20.5809,542.464,0.540054,0.0,0.0
1260,314.75,59.2028,65.7534,142.493,100.778,95.2999,0.0015016,0.347952,20.5805,541.553,0.512889,0.0,0.0
1296,323.75,58.3381,66.2068,146.783,100.706,94.5997,0.00111637,0.34701,20.5857,540.552,0.573995,0.0,0.0
1332,332.75,58.8367,65.2471,148.619,100.617,95.1701,0.00106234,0.345636,20.5887,539.611,0.510673,0.0,0.0
1368,341.75,58.2348,65.2477,143.572,100.562,93.9683,0.0013692,0.343522,20.5893,538.7,0.622282,0.0,0.0
1404,350.75,58.2354,65.3628,147.806,100.51,94.4876,0.000997296,0.341738,20.5898,537.76,0.567014,0.0,0.0
1440,359.75,58.7045,65.6163,141.053,100.454,94.3598,0.00126486,0.342461,20.5868,536.799,0.574313,0.0,0.0
1476,368.75,57.765,65.7458,144.92,100.425,95.194,0.00105272,0.342777,20.5889,535.878,0.490841,0.0,0.0
1512,377.75,58.3971,65.7239,140.678,100.425,94.5129,0.00120509,0.345478,20.5833,534.897,0.556722,0.0,0.0
1548,386.75,58.9217,65.8431,146.819,100.432,94.0581,0.00172921,0.347901,20.5823,533.996,0.60163,0.0,0.0
1584,395.75,59.0351,65.4657,142.441,100.446,93.802,0.00162266,0.349347,20.5796,533.035,0.627965,0.0,0.0
1620,404.75,59.2231,65.646,143.989,100.465,93.4288,0.00161073,0.353057,20.573,532.064,0.666315,0.0,0.0
1656,413.75,59.3951,66.7705,141.238,100.493,93.6545,0.00147302,0.356225,20.5692,531.113,0.64674,0.0,0.0
1692,422.75,59.4495,65.9585,139.655,100.535,94.802,0.00155073,0.357109,20.5705,530.123,0.538791,0.0,0.0
1728,431.75,59.5882,66.7004,144.099,100.578,94.0069,0.00160534,0.359176,20.5696,529.192,0.61995,0.0,0.0
1764,440.75,59.4897,66.4568,142.297,100.648,93.7686,0.00157379,0.359518,20.5703,528.251,0.649709,0.0,0.0
1800,449.75,59.1604,66.6175,143.834,100.731,93.2143,0.00180776,0.35878,20.5707,527.3,0.711619,0.0,0.0
1836,458.75,59.7785,66.1531,142.396,100.805,92.6261,0.0016427,0.359112,20.5688,526.369,0.776426,0.0,0.0
1872,467.75,59.4481,66.571,147.743,100.888,93.8877,0.00182426,0.359786,20.5672,525.428,0.659825,0.0,0.0
1908,476.75,59.7837,66.552,141.436,100.971,92.8898,0.00165871,0.359739,20.5662,524.497,0.76545,0.0,0.0
1944,485.75,59.0106,66.3388,141.201,101.054,93.6124,0.00161494,0.360913,20.5651,523.537,0.701946,0.0,0.0
1980,494.75,60.1381,66.6471,144.939,101.108,93.514,0.00169118,0.363212,20.5614,522.596,0.716496,0.0,0.0
2016,503.75,60.2426,66.2461,143.317,101.185,93.405,0.00201399,0.361879,20.5653,521.635,0.734156,0.0,0.0
2052,512.75,60.1601,66.7674,140.909,101.262,92.5054,0.00195062,0.363624,20.5605,520.704,0.829943,0.0,0.0
2088,521.75,60.3459,67.4856,141.455,101.346,93.8608,0.0016642,0.366373,20.5562,519.733,0.704085,0.0,0.0
2124,530.75,60.5217,67.3777,142.76,101.423,94.7437,0.00201359,0.369188,20.5518,518.772,0.625156,0.0,0.0
2160,539.75,60.4698,67.7428,144.282,101.48,93.3375,0.00193657,0.373884,20.5448,517.831,0.767508,0.0,0.0
2196,548.75,60.8359,68.0156,144.605,101.543,92.9775,0.00223502,0.378386,20.539,516.83,0.808598,0.0,0.0
2232,557.75,60.9015,68.3584,145.753,101.591,94.6798,0.00219577,0.382606,20.5359,515.81,0.646512,0.0,0.0
2268,566.75,61.4435,68.5248,142.237,101.623,92.4623,0.00211122,0.388552,20.5287,514.789,0.866845,0.0,0.0
2304,575.75,61.9595,69.6723,137.733,101.639,93.3081,0.0024026,0.39514,20.5193,513.778,0.784739,0.0,0.0
2340,584.75,61.9293,69.7947,143.374,101.668,93.1266,0.00274322,0.401341,20.5107,512.687,0.805213,0.0,0.0
2376,593.75,62.6869,70.6328,145.899,101.686,92.6631,0.00226464,0.408427,20.5018,511.636,0.852594,0.0,0.0
2412,602.75,62.6796,71.1623,136.813,101.696,93.0115,0.00302642,0.412917,20.4978,510.555,0.819129,0.0,0.0
2448,611.75,63.5916,71.4549,142.144,101.716,92.8959,0.00317946,0.416363,20.4917,509.444,0.832326,0.0,0.0
2484,620.75,63.753,71.4958,142.2,101.71,92.1124,0.00341987,0.417402,20.4904,508.353,0.909485,0.0,0.0
2520,629.75,63.5732,71.4571,141.039,101.706,91.5607,0.00347636,0.416156,20.4921,507.312,0.964237,0.0,0.0
2556,638.75,63.5598,71.6403,146.344,101.696,91.1794,0.00333292,0.412501,20.4982,506.291,1.00164,0.0,0.0
2592,647.75,63.5527,70.9658,141.341,101.69,92.2641,0.00305276,0.402954,20.5122,505.36,0.892607,0.0,0.0
2628,656.75,62.7708,69.5853,144.865,101.668,91.0734,0.00233207,0.382897,20.546,504.469,1.00978,0.0,0.0
2664,665.75,61.3553,67.6648,146.708,101.651,93.5784,0.00155558,0.352002,20.5915,503.759,0.759314,0.0,0.0
2700,674.75,58.9667,64.6808,145.478,101.611,94.2939,0.00127508,0.311292,20.6429,503.248,0.685774,0.0,0.0
2736,683.75,57.4064,61.2347,147.783,101.552,97.0235,0.00101258,0.265439,20.7027,502.858,0.418555,0.0,0.0
2772,692.75,55.2398,58.05,149.494,101.499,97.7684,0.00191201,0.226435,20.7391,502.557,0.343644,0.0,0.0
2808,701.75,52.621,55.2894,153.094,101.409,98.4352,0.00307251,0.196271,20.7716,502.357,0.27307,0.0,0.0
2844,710.75,50.9139,52.7194,151.163,101.322,98.5701,0.00350744,0.177588,20.7833,502.177,0.252706,0.0,0.0
2880,719.75,49.3101,50.6235,151.623,101.237,97.991,0.00370599,0.16627,20.797,502.057,0.299081,0.0,0.0
2916,728.75,48.9491,49.7075,151.073,101.138,98.0148,0.00393374,0.158982,20.8018,501.837,0.28784,0.0,0.0
2952,737.75,48.0093,48.3651,153.423,101.08,98.1507,0.0043027,0.15401,20.8071,501.707,0.26989,0.0,0.0
2988,746.75,45.2792,46.2436,154.202,101.055,97.8374,0.00423973,0.151434,20.8074,501.577,0.296952,0.0,0.0
3024,755.75,44.3179,45.2147,158.491,101.023,97.7035,0.00449781,0.149206,20.8113,501.426,0.306558,0.0,0.0
3060,764.75,44.569,44.9566,150.321,101.132,97.7182,0.00428075,0.146386,20.8146,501.296,0.315131,0.0,0.0
3096,773.75,43.4126,44.8803,152.521,101.244,98.028,0.00491237,0.144829,20.8161,501.126,0.296251,0.0,0.0
3132,782.75,42.7535,44.0497,153.719,101.338,98.0671,0.00474623,0.142728,20.8188,500.996,0.30111,0.0,0.0
3168,791.75,42.5664,43.2133,153.017,101.439,98.1725,0.0048109,0.141304,20.821,500.866,0.300385,0.0,0.0
3204,800.75,42.214,43.2729,155.655,101.502,98.5721,0.00509873,0.140742,20.822,500.766,0.268779,0.0,0.0
3240,809.75,41.7569,42.5797,156.781,101.577,98.313,0.00494475,0.139435,20.8231,500.656,0.299712,0.0,0.0
3276,818.75,41.1765,42.6648,152.379,101.649,98.2324,0.00563448,0.138205,20.8236,500.536,0.313754,0.0,0.0
3312,827.75,40.2447,42.441,154.023,101.694,98.6669,0.00535367,0.137404,20.824,500.446,0.277304,0.0,0.0
3348,836.75,40.6337,42.4024,154.936,101.741,98.2988,0.00548837,0.136938,20.8269,500.305,0.315846,0.0,0.0
3384,845.75,40.2898,41.6348,154.16,101.789,98.239,0.00553078,0.135851,20.8272,500.185,0.325707,0.0,0.0
3420,854.75,40.054,41.5214,149.317,101.838,98.4484,,0.135931,,500.075,0.310623,0.0,0.0
3456,863.75,39.5914,41.5343,155.775,101.868,98.4575,,,,500.015,0.312484,0.0,0.0
3458,864.25,39.3121,41.3389,154.762,101.876,98.6051,,,,500.035,0.29941,0.0,0.0