Folder: fsri_materials_database/01_Data/OSB/HFM

Note: 01_Data/README.md
# Materials and Products Database
## 01_Data

Raw data generated from each apparatus are included here in plain-text format. The data is organized first by material, next by the short name of test apparatus used, and where applicable additional filtering by test settings.

### material.json

Each material directory contains a json file of the same name as the material. This file links the data stored in the repository as well as data and graphs produced by the accompanying scripts (__02_Scripts__) to the respective landing page for the material on the front-end website.

File: OSB_Density_Dry_210312_R1.csv
Length,20.4
Width,20.24
Thickness,1.635
Volume,0.000675085
Mass,372.96
Sample Density [kg/m3],552.464

File: OSB_Density_Dry_210312_R2.csv
Length,20.64
Width,20.16
Thickness,1.62
Volume,0.000674086
Mass,387.88
Sample Density [kg/m3],575.416

File: OSB_Density_Dry_R3.csv
,OSB_DRY_3
Length,20.8
Width,20.16
Thickness,1.63
Volume,0.000683505
Mass,401.25
Sample Density [kg/m3],587.048

File: OSB_Density_Wet_210302_R3.csv
Length,20.8
Width,20.16
Thickness,1.63
Volume,0.000683505
Mass,419.92
Sample Density [kg/m3],614.363

File: OSB_Density_Wet_R1.csv
,OSB_WET_1
Length,20.4
Width,20.24
Thickness,1.635
Volume,0.000675085
Mass,390.46
Sample Density [kg/m3],578.386

File: OSB_Density_Wet_R2.csv
,OSB_WET_2
Length,20.64
Width,20.16
Thickness,1.62
Volume,0.000674086
Mass,406.075
Sample Density [kg/m3],602.408