Folder: fsri_materials_database/01_Data/OSB/MCC

Note: 01_Data/README.md
# Materials and Products Database
## 01_Data

Raw data generated from each apparatus are included here in plain-text format. The data is organized first by material, next by the short name of test apparatus used, and where applicable additional filtering by test settings.

### material.json

Each material directory contains a json file of the same name as the material. This file links the data stored in the repository as well as data and graphs produced by the accompanying scripts (__02_Scripts__) to the respective landing page for the material on the front-end website.

File: OSB_MCC_30K_min_210308_R1.txt
Sample ID:	C:\MCC\MCC Cal\Test\OSB_30_1.txt
Sample Weight (mg):	4.63
Heating Rate (C/s):	0.5
Combustor Temp (C):	900
N2 Flow Rate (cc/min):	80
O2 Flow Rate (cc/min):	20
Calibration File:	C:\MCC\MCC Cal\Coeff1 JN10440_30_210304.txt.txt
T Correction Coefficients:	0	1.024463	0
Time Shift (s):	14
*
Time (s)	Temperature (C)	N2 flow rate (cc/min)	O2 flow rate (cc/min)	Flow Rate (cc/min)	Oxygen (%)	HRR (W/g)	Heating rate (C/s)
0.000	106.120	79.995	19.992	99.720	20.512	-0.098	0.016
7.499	106.129	79.995	19.990	99.715	20.515	-0.285	0.006
14.999	106.134	79.994	19.992	99.795	20.509	0.118	0.013
22.500	106.416	79.996	19.991	99.868	20.485	1.703	0.022
29.999	107.043	79.995	19.991	99.891	20.474	2.422	0.067
37.499	108.048	79.993	19.992	99.939	20.468	2.831	0.118
45.000	109.513	79.995	19.992	99.955	20.462	3.262	0.231
52.500	111.337	79.994	19.992	99.965	20.457	3.595	0.260
59.999	113.538	79.996	19.994	100.003	20.449	4.110	0.347
67.499	115.967	79.996	19.993	99.988	20.454	3.826	0.363
74.999	118.702	79.997	19.991	99.990	20.448	4.182	0.383
82.499	121.641	79.996	19.992	99.992	20.450	4.033	0.393
89.999	124.767	79.994	19.991	99.986	20.452	3.926	0.418
97.499	128.045	79.993	19.991	99.998	20.454	3.783	0.442
104.999	131.347	79.996	19.992	99.986	20.454	3.821	0.433
112.499	134.841	79.993	19.992	99.995	20.450	4.087	0.461
120.000	138.369	79.995	19.992	99.998	20.456	3.677	0.459
127.499	142.019	79.996	19.992	99.996	20.453	3.852	0.475
134.999	145.765	79.995	19.992	100.001	20.455	3.745	0.526
142.499	149.542	79.995	19.992	99.994	20.455	3.725	0.523
149.999	153.267	79.997	19.993	99.990	20.455	3.749	0.516
157.499	156.959	79.996	19.991	99.990	20.458	3.501	0.499
164.999	160.756	79.996	19.992	99.986	20.457	3.584	0.511
172.499	164.540	79.994	19.992	99.976	20.455	3.702	0.546
179.999	168.279	79.993	19.991	99.960	20.456	3.654	0.485
187.499	172.086	79.995	19.991	99.969	20.456	3.650	0.509
194.999	175.849	79.993	19.991	99.972	20.450	4.089	0.531
202.499	179.563	79.995	19.991	99.957	20.451	4.021	0.475
209.999	183.293	79.996	19.991	99.953	20.446	4.314	0.499
217.500	187.075	79.995	19.992	99.976	20.440	4.755	0.508
224.999	190.737	79.996	19.991	99.960	20.439	4.805	0.469
232.499	194.458	79.996	19.993	99.954	20.434	5.153	0.490
239.999	198.162	79.995	19.992	99.954	20.428	5.577	0.489
247.499	201.878	79.995	19.992	99.954	20.421	6.027	0.511
254.999	205.579	79.994	19.991	99.956	20.430	5.387	0.492
262.500	209.300	79.996	19.992	99.963	20.413	6.526	0.497
270.000	213.008	79.993	19.991	99.954	20.402	7.287	0.494
277.500	216.788	79.996	19.991	99.962	20.402	7.281	0.558
285.000	220.521	79.997	19.991	99.963	20.397	7.638	0.535
292.500	224.194	79.995	19.991	99.969	20.384	8.486	0.483
300.000	228.028	79.996	19.992	99.962	20.388	8.219	0.541
307.500	231.695	79.997	19.992	99.959	20.385	8.451	0.550
315.000	235.483	79.998	19.992	99.960	20.377	8.949	0.483
322.500	239.221	79.995	19.993	99.962	20.368	9.558	0.484
330.000	242.870	79.992	19.993	99.975	20.363	9.918	0.472
337.500	246.560	79.995	19.992	99.977	20.355	10.451	0.482
345.000	250.322	79.993	19.992	99.990	20.351	10.706	0.516
352.500	254.045	79.995	19.991	99.991	20.340	11.494	0.492
360.000	257.832	79.995	19.993	99.994	20.323	12.648	0.519
367.500	261.515	79.997	19.992	99.997	20.307	13.693	0.471
375.000	265.244	79.996	19.991	100.002	20.294	14.568	0.527
382.500	269.022	79.995	19.992	100.015	20.279	15.617	0.527
390.000	272.809	79.995	19.992	100.021	20.262	16.717	0.489
397.500	276.603	79.998	19.992	100.019	20.235	18.571	0.508
405.000	280.342	79.995	19.991	100.030	20.215	19.906	0.488
412.500	284.093	79.994	19.993	100.030	20.191	21.505	0.491
420.000	287.841	79.997	19.992	100.061	20.162	23.464	0.503
427.500	291.604	79.993	19.991	100.065	20.136	25.212	0.497
435.000	295.448	79.992	19.993	100.062	20.106	27.261	0.549
442.500	299.212	79.997	19.992	100.070	20.075	29.352	0.509
450.000	302.984	79.997	19.991	100.079	20.049	31.136	0.493
457.500	306.757	79.998	19.992	100.093	20.016	33.355	0.478
465.000	310.559	79.994	19.991	100.106	19.985	35.459	0.519
472.500	314.427	79.999	19.991	100.108	19.946	38.093	0.506
480.000	318.200	79.994	19.992	100.110	19.908	40.612	0.504
487.500	321.996	79.993	19.990	100.135	19.874	42.941	0.490
495.000	325.753	79.993	19.992	100.144	19.835	45.551	0.452
502.500	329.542	79.993	19.992	100.146	19.795	48.286	0.518
510.000	333.365	79.993	19.991	100.154	19.765	50.307	0.518
517.500	337.111	79.994	19.991	100.181	19.725	53.045	0.483
525.000	340.982	79.996	19.992	100.183	19.686	55.633	0.519
532.500	344.722	79.996	19.991	100.188	19.643	58.586	0.489
540.000	348.573	79.997	19.990	100.190	19.610	60.810	0.503
547.500	352.300	79.996	19.991	100.197	19.578	62.975	0.502
555.000	356.116	79.996	19.991	100.201	19.553	64.608	0.498
562.500	359.898	79.996	19.992	100.191	19.535	65.833	0.523
570.000	363.671	79.993	19.992	100.179	19.544	65.228	0.452
577.500	367.465	79.995	19.991	100.158	19.580	62.763	0.505
585.000	371.292	79.994	19.993	100.106	19.646	58.265	0.521
592.500	375.110	79.994	19.993	100.054	19.748	51.356	0.512
600.000	378.944	79.994	19.991	100.008	19.879	42.537	0.518
607.500	382.710	79.997	19.991	99.966	20.011	33.638	0.535
615.000	386.566	79.996	19.991	99.951	20.129	25.670	0.531
622.500	390.354	79.995	19.991	99.940	20.220	19.518	0.486
630.000	394.233	79.998	19.992	99.926	20.281	15.422	0.485
637.500	398.089	79.995	19.991	99.921	20.314	13.194	0.539
645.000	401.820	79.994	19.992	99.936	20.332	12.040	0.470
652.500	405.648	79.995	19.992	99.971	20.338	11.591	0.506
660.000	409.459	79.994	19.991	99.914	20.346	11.036	0.521
667.500	413.258	79.992	19.992	99.918	20.347	11.019	0.520
675.000	416.997	79.993	19.992	99.917	20.350	10.813	0.527
682.500	420.794	79.995	19.991	99.931	20.353	10.624	0.539
690.000	424.609	79.996	19.990	99.915	20.357	10.319	0.540
697.500	428.437	79.994	19.992	99.915	20.363	9.893	0.527
705.000	432.265	79.997	19.992	99.914	20.366	9.751	0.536
712.500	436.138	79.997	19.991	99.918	20.372	9.325	0.525
720.000	439.954	79.994	19.991	99.924	20.377	8.959	0.514
727.500	443.770	79.994	19.992	99.922	20.382	8.607	0.502
735.000	447.546	79.993	19.991	99.914	20.395	7.732	0.539
742.500	451.388	79.993	19.992	99.914	20.399	7.490	0.536
750.000	455.189	79.994	19.992	99.916	20.410	6.742	0.528
757.500	459.014	79.994	19.993	99.911	20.410	6.736	0.521
765.000	462.789	79.997	19.992	99.910	20.415	6.415	0.507
772.500	466.567	79.997	19.990	99.910	20.417	6.290	0.512
780.000	470.348	79.994	19.991	99.910	20.424	5.794	0.529
787.500	474.131	79.997	19.992	99.912	20.431	5.357	0.486
795.000	477.964	79.997	19.991	99.914	20.429	5.462	0.519
802.500	481.754	79.994	19.991	99.918	20.436	5.005	0.504
810.000	485.552	79.994	19.991	99.918	20.447	4.240	0.512
817.500	489.399	79.996	19.993	99.912	20.439	4.791	0.500
825.000	493.265	79.994	19.991	99.913	20.441	4.660	0.464
832.500	496.983	79.993	19.991	99.911	20.436	4.979	0.263
840.000	500.936	79.992	19.991	99.914	20.442	4.625	0.433
847.500	504.846	79.996	19.992	99.910	20.441	4.638	0.501
855.001	508.797	79.995	19.991	99.911	20.447	4.281	0.536
862.500	512.723	79.997	19.991	99.913	20.441	4.677	0.571
870.000	516.726	79.997	19.992	99.915	20.449	4.105	0.515
877.500	520.745	79.996	19.991	99.910	20.446	4.308	0.532
885.000	524.718	79.995	19.991	99.913	20.448	4.200	0.533
892.500	528.732	79.995	19.991	99.912	20.450	4.054	0.542
900.000	532.729	79.995	19.992	99.908	20.453	3.871	0.539
907.500	536.716	79.995	19.992	99.906	20.451	4.008	0.534
915.000	540.678	79.993	19.992	99.905	20.452	3.921	0.541
922.500	544.482	79.997	19.992	99.908	20.454	3.794	0.518
930.000	548.271	79.996	19.992	99.907	20.451	4.024	0.502
937.500	552.126	79.996	19.991	99.914	20.459	3.466	0.494
945.000	555.918	79.998	19.991	99.908	20.452	3.949	0.501
952.500	559.735	79.998	19.991	99.910	20.458	3.550	0.478
960.000	563.618	79.996	19.992	99.904	20.459	3.456	0.515
967.500	567.482	79.995	19.991	99.912	20.459	3.458	0.537
975.000	571.279	79.996	19.991	99.908	20.458	3.526	0.512
982.500	575.187	79.995	19.992	99.898	20.458	3.493	0.484
990.000	579.003	79.993	19.993	99.903	20.457	3.578	0.527
997.500	582.804	79.995	19.991	99.901	20.455	3.698	0.479
1005.000	586.638	79.997	19.992	99.897	20.464	3.123	0.501
1012.500	590.464	79.996	19.993	99.898	20.456	3.666	0.482
1020.000	594.311	79.996	19.992	99.895	20.459	3.468	0.535
1027.499	598.156	79.998	19.991	99.911	20.466	2.999	0.513
1034.999	602.029	79.997	19.991	99.909	20.459	3.488	0.522
1042.499	605.799	79.994	19.991	99.898	20.463	3.207	0.515
1050.000	609.622	79.994	19.992	99.904	20.452	3.917	0.488
1057.499	613.487	79.996	19.992	99.912	20.457	3.558	0.523
1064.999	617.315	79.995	19.991	99.899	20.461	3.307	0.502
1072.499	621.128	79.992	19.992	99.896	20.458	3.497	0.526
1080.000	624.984	79.998	19.992	99.895	20.461	3.298	0.549
1087.499	628.784	79.996	19.992	99.905	20.462	3.257	0.516
1094.999	632.672	79.996	19.991	99.908	20.459	3.438	0.496
1102.499	636.509	79.996	19.993	99.895	20.458	3.517	0.498
1110.000	640.356	79.998	19.992	99.901	20.461	3.336	0.488
1117.500	644.123	79.995	19.991	99.901	20.458	3.522	0.498
1125.000	647.943	79.994	19.991	99.906	20.460	3.362	0.510
1132.501	651.761	79.995	19.992	99.888	20.459	3.446	0.504
1140.001	655.622	79.995	19.991	99.890	20.459	3.467	0.501
1147.500	659.460	79.995	19.991	99.900	20.456	3.655	0.481
1155.000	663.298	79.994	19.992	99.887	20.465	3.024	0.515
1162.500	667.086	79.996	19.992	99.895	20.463	3.170	0.532
1170.000	670.914	79.997	19.992	99.896	20.460	3.382	0.502
1177.500	674.763	79.996	19.992	99.904	20.462	3.246	0.547
1185.000	678.502	79.996	19.992	99.910	20.461	3.345	0.469
1192.500	682.263	79.996	19.992	99.890	20.462	3.278	0.516
1200.000	686.021	79.996	19.992	99.889	20.457	3.615	0.494
1207.500	689.849	79.996	19.991	99.890	20.456	3.676	0.506
1215.000	693.561	79.994	19.992	99.893	20.459	3.469	0.492
1222.500	697.419	79.994	19.992	99.908	20.457	3.611	0.492
1230.000	701.262	79.993	19.990	99.891	20.458	3.532	0.548
1237.500	705.124	79.996	19.992	99.903	20.458	3.498	0.504
1245.000	708.971	79.996	19.992	99.882	20.458	3.535	0.523
1252.501	712.826	79.995	19.992	99.887	20.462	3.259	0.517
1260.000	716.704	79.998	19.992	99.897	20.458	3.544	0.528
1267.500	720.499	79.998	19.992	99.903	20.459	3.469	0.492
1275.000	724.247	79.996	19.993	99.882	20.458	3.494	0.526
1282.500	727.941	79.992	19.991	99.890	20.454	3.767	0.504
1290.000	731.660	79.993	19.991	99.892	20.459	3.476	0.520
1297.500	735.376	79.992	19.991	99.894	20.459	3.485	0.508
1305.000	739.171	79.994	19.992	99.884	20.455	3.734	0.517
1312.500	742.946	79.993	19.991	99.883	20.453	3.889	0.506
1314.001	743.684	79.994	19.991	99.880	20.451	4.023	0.505

File: OSB_MCC_30K_min_210308_R2.txt
Sample ID:	C:\MCC\MCC Cal\Test\OSB_30_2.txt
Sample Weight (mg):	4.63
Heating Rate (C/s):	0.5
Combustor Temp (C):	900
N2 Flow Rate (cc/min):	80
O2 Flow Rate (cc/min):	20
Calibration File:	C:\MCC\MCC Cal\Coeff1 JN10440_30_210304.txt.txt
T Correction Coefficients:	0	1.024463	0
Time Shift (s):	14
*
Time (s)	Temperature (C)	N2 flow rate (cc/min)	O2 flow rate (cc/min)	Flow Rate (cc/min)	Oxygen (%)	HRR (W/g)	Heating rate (C/s)
0.000	110.777	79.998	19.992	99.361	20.628	-0.163	-0.024
7.500	110.734	79.995	19.991	99.338	20.629	-0.268	-0.010
15.001	110.661	79.998	19.991	99.370	20.626	-0.024	-0.015
22.500	110.676	79.995	19.991	99.439	20.620	0.323	-0.011
30.000	111.058	79.996	19.992	99.490	20.612	0.871	0.066
37.501	111.789	79.995	19.992	99.558	20.598	1.845	0.140
45.000	112.962	79.994	19.991	99.573	20.587	2.588	0.157
52.500	114.509	79.994	19.991	99.599	20.582	2.931	0.201
60.000	116.533	79.996	19.991	99.606	20.583	2.834	0.320
67.501	118.749	79.995	19.992	99.611	20.583	2.840	0.302
75.000	121.295	79.999	19.991	99.621	20.583	2.847	0.339
82.500	123.967	79.996	19.991	99.618	20.580	3.042	0.351
90.000	126.862	79.997	19.991	99.619	20.574	3.469	0.393
97.500	129.835	80.001	19.991	99.621	20.580	3.004	0.400
105.000	132.907	79.996	19.992	99.637	20.582	2.910	0.419
112.500	136.154	79.994	19.991	99.637	20.578	3.179	0.460
120.000	139.498	79.995	19.993	99.638	20.579	3.118	0.467
127.500	142.930	79.996	19.992	99.641	20.578	3.162	0.468
135.000	146.460	79.997	19.991	99.639	20.578	3.162	0.475
142.500	150.019	79.995	19.991	99.641	20.574	3.472	0.462
150.000	153.647	79.995	19.991	99.613	20.574	3.422	0.496
157.500	157.315	79.994	19.991	99.655	20.573	3.540	0.519
165.000	161.072	79.994	19.991	99.643	20.572	3.602	0.530
172.500	164.831	79.995	19.991	99.661	20.564	4.078	0.482
180.000	168.628	79.996	19.991	99.641	20.563	4.155	0.480
187.500	172.466	79.995	19.991	99.654	20.562	4.252	0.508
195.000	176.315	79.995	19.991	99.642	20.565	4.072	0.513
202.500	180.114	79.995	19.992	99.638	20.560	4.374	0.505
210.000	183.899	79.995	19.993	99.641	20.557	4.565	0.493
217.500	187.718	79.993	19.993	99.643	20.555	4.737	0.513
225.000	191.394	79.995	19.991	99.651	20.550	5.082	0.491
232.500	195.145	79.999	19.991	99.671	20.549	5.143	0.501
240.000	198.803	79.999	19.991	99.658	20.537	5.902	0.460
247.500	202.514	79.999	19.992	99.651	20.533	6.193	0.478
255.000	206.178	79.999	19.991	99.655	20.528	6.534	0.500
262.500	209.826	80.000	19.991	99.664	20.520	7.046	0.490
270.000	213.491	79.994	19.991	99.670	20.520	7.063	0.470
277.500	217.124	79.993	19.992	99.677	20.511	7.701	0.445
285.000	220.824	79.995	19.991	99.678	20.510	7.771	0.473
292.500	224.482	79.992	19.991	99.682	20.497	8.617	0.507
300.000	228.250	79.992	19.993	99.686	20.495	8.756	0.509
307.500	231.894	79.995	19.991	99.684	20.492	8.959	0.485
315.000	235.712	79.998	19.991	99.700	20.485	9.441	0.520
322.500	239.437	79.998	19.991	99.702	20.478	9.924	0.480
330.000	243.140	79.995	19.992	99.704	20.475	10.082	0.476
337.500	246.942	79.998	19.991	99.716	20.468	10.564	0.515
345.000	250.829	79.996	19.990	99.719	20.460	11.132	0.516
352.500	254.528	79.996	19.991	99.748	20.447	12.004	0.499
360.000	258.363	79.994	19.992	99.689	20.431	13.028	0.535
367.500	262.092	79.994	19.991	99.783	20.415	14.116	0.499
375.000	265.837	79.996	19.991	99.755	20.401	15.065	0.514
382.500	269.631	79.994	19.993	99.792	20.379	16.581	0.537
390.000	273.393	79.996	19.992	99.769	20.359	17.903	0.499
397.500	277.153	79.996	19.992	99.793	20.337	19.392	0.508
405.000	280.859	79.994	19.991	99.802	20.319	20.580	0.496
412.500	284.667	79.997	19.991	99.819	20.294	22.278	0.530
420.000	288.416	79.998	19.991	99.828	20.269	23.934	0.481
427.500	292.210	79.997	19.990	99.834	20.241	25.851	0.501
435.000	295.990	79.994	19.991	99.785	20.212	27.816	0.513
442.500	299.745	79.995	19.992	99.858	20.182	29.832	0.480
450.000	303.533	79.996	19.992	99.867	20.147	32.214	0.526
457.500	307.269	79.994	19.991	99.875	20.110	34.675	0.473
465.000	311.099	79.994	19.992	99.890	20.078	36.845	0.536
472.500	314.925	79.997	19.992	99.904	20.040	39.375	0.529
480.000	318.734	79.996	19.992	99.914	20.004	41.860	0.540
487.500	322.486	79.994	19.991	99.935	19.967	44.304	0.493
495.000	326.300	79.998	19.991	99.947	19.930	46.824	0.524
502.500	330.126	79.995	19.991	99.947	19.892	49.405	0.482
510.000	333.971	79.997	19.991	99.972	19.857	51.729	0.527
517.500	337.783	79.996	19.991	99.972	19.815	54.583	0.543
525.000	341.612	79.998	19.992	99.999	19.773	57.434	0.515
532.500	345.363	79.994	19.991	100.011	19.733	60.131	0.527
540.000	349.116	79.994	19.992	100.029	19.701	62.289	0.476
547.500	352.956	79.995	19.992	100.035	19.664	64.790	0.495
555.000	356.745	79.996	19.992	100.030	19.634	66.843	0.486
562.500	360.514	79.996	19.993	100.034	19.621	67.694	0.504
570.000	364.320	79.996	19.991	100.028	19.628	67.183	0.499
577.500	368.163	79.997	19.991	99.988	19.655	65.355	0.551
585.000	371.904	79.997	19.992	99.951	19.725	60.565	0.514
592.500	375.705	79.994	19.991	99.910	19.835	53.180	0.509
600.000	379.469	79.996	19.991	99.861	19.969	44.144	0.525
607.500	383.251	79.993	19.991	99.816	20.101	35.286	0.478
615.000	387.102	79.995	19.992	99.804	20.221	27.169	0.470
622.500	390.915	79.994	19.992	99.791	20.317	20.759	0.518
630.000	394.816	79.995	19.991	99.792	20.377	16.721	0.515
637.500	398.717	79.990	19.992	99.797	20.421	13.758	0.529
645.000	402.531	79.994	19.992	99.790	20.434	12.849	0.516
652.500	406.367	79.995	19.991	99.795	20.448	11.902	0.506
660.000	410.188	79.997	19.991	99.795	20.458	11.264	0.510
667.500	413.991	79.995	19.991	99.799	20.462	10.958	0.500
675.000	417.782	79.994	19.991	99.799	20.463	10.917	0.494
682.500	421.559	79.996	19.991	99.797	20.466	10.695	0.494
690.000	425.340	79.996	19.992	99.795	20.471	10.348	0.546
697.500	429.085	79.994	19.991	99.795	20.477	9.947	0.462
705.000	432.874	79.994	19.992	99.812	20.485	9.412	0.471
712.500	436.694	79.995	19.992	99.806	20.489	9.181	0.544
720.000	440.476	79.996	19.992	99.804	20.491	9.035	0.489
727.500	444.245	79.995	19.992	99.809	20.496	8.682	0.494
735.000	447.986	79.995	19.992	99.819	20.502	8.292	0.494
742.500	451.715	79.997	19.991	99.802	20.504	8.146	0.461
750.000	455.545	79.994	19.990	99.801	20.515	7.397	0.507
757.500	459.333	79.995	19.991	99.820	20.520	7.051	0.492
765.000	463.186	79.995	19.991	99.830	20.530	6.421	0.494
772.500	467.031	79.998	19.991	99.818	20.534	6.156	0.493
780.000	470.900	79.995	19.990	99.833	20.540	5.707	0.510
787.500	474.824	79.995	19.992	99.825	20.539	5.793	0.497
795.000	478.682	79.997	19.991	99.829	20.547	5.276	0.537
802.500	482.535	79.994	19.992	99.837	20.549	5.159	0.528
810.000	486.378	79.997	19.992	99.826	20.556	4.625	0.517
817.500	490.185	79.995	19.992	99.829	20.555	4.716	0.505
825.000	494.112	79.996	19.992	99.832	20.553	4.826	0.538
832.500	497.902	79.995	19.992	99.833	20.555	4.707	0.523
840.000	501.714	79.995	19.991	99.835	20.558	4.537	0.509
847.500	505.529	79.995	19.992	99.837	20.558	4.521	0.486
855.001	509.328	79.994	19.991	99.835	20.575	3.388	0.568
862.500	513.421	79.994	19.991	99.840	20.576	3.310	0.738
870.000	516.565	79.996	19.991	99.841	20.570	3.701	0.322
877.500	520.745	79.995	19.992	99.834	20.568	3.878	0.358
885.000	524.755	79.995	19.991	99.842	20.569	3.750	0.533
892.500	528.573	79.998	19.992	99.835	20.571	3.666	0.506
900.000	532.572	79.996	19.992	99.833	20.568	3.872	0.511
907.500	536.516	79.994	19.993	99.834	20.574	3.430	0.488
915.000	540.316	79.995	19.992	99.843	20.576	3.312	0.490
922.500	544.238	79.995	19.991	99.838	20.575	3.386	0.544
930.000	548.116	79.995	19.991	99.841	20.572	3.548	0.536
937.500	551.875	79.994	19.991	99.835	20.575	3.411	0.524
945.000	555.718	79.996	19.991	99.837	20.578	3.192	0.500
952.500	559.589	79.998	19.990	99.835	20.582	2.923	0.540
960.000	563.420	79.996	19.992	99.837	20.582	2.927	0.512
967.500	567.167	79.997	19.992	99.837	20.584	2.750	0.509
975.000	570.986	79.996	19.991	99.843	20.581	2.973	0.522
982.501	574.869	79.995	19.992	99.850	20.582	2.935	0.543
990.000	578.667	79.994	19.992	99.851	20.581	2.984	0.525
997.500	582.448	79.995	19.993	99.844	20.585	2.693	0.497
1005.000	586.226	79.996	19.991	99.843	20.579	3.134	0.479
1012.500	590.030	79.995	19.992	99.839	20.579	3.100	0.488
1020.000	593.878	79.994	19.993	99.835	20.585	2.732	0.550
1027.501	597.701	79.994	19.992	99.836	20.585	2.686	0.504
1035.000	601.564	79.997	19.991	99.839	20.589	2.469	0.490
1042.501	605.445	79.995	19.991	99.847	20.586	2.657	0.535
1050.000	609.247	79.995	19.991	99.846	20.584	2.745	0.496
1057.501	613.057	79.996	19.991	99.841	20.590	2.367	0.508
1065.000	616.872	79.996	19.991	99.839	20.593	2.146	0.505
1072.500	620.717	79.994	19.992	99.840	20.587	2.577	0.507
1080.000	624.525	79.994	19.992	99.833	20.586	2.645	0.477
1087.500	628.293	79.995	19.991	99.834	20.586	2.625	0.492
1095.000	632.099	79.993	19.991	99.839	20.586	2.666	0.495
1102.500	636.005	79.995	19.991	99.841	20.583	2.809	0.533
1110.000	639.836	79.994	19.991	99.837	20.589	2.467	0.508
1117.500	643.624	79.994	19.990	99.843	20.589	2.437	0.513
1125.000	647.498	79.997	19.991	99.837	20.589	2.413	0.492
1132.501	651.339	79.998	19.991	99.841	20.586	2.629	0.482
1140.001	655.216	79.996	19.991	99.837	20.589	2.450	0.542
1147.501	659.015	79.994	19.991	99.840	20.593	2.190	0.524
1155.000	662.831	79.993	19.991	99.837	20.581	2.966	0.490
1162.500	666.579	79.994	19.992	99.836	20.597	1.923	0.455
1170.001	670.253	79.994	19.992	99.835	20.596	1.953	0.302
1177.501	674.125	79.994	19.991	99.837	20.596	1.978	0.455
1185.000	677.822	79.993	19.990	99.839	20.595	2.035	0.461
1192.500	681.636	79.999	19.992	99.836	20.590	2.378	0.516
1200.000	685.366	79.995	19.992	99.835	20.595	2.013	0.471
1207.500	689.091	79.997	19.991	99.833	20.595	2.010	0.514
1215.000	692.977	79.998	19.990	99.834	20.593	2.170	0.506
1222.500	696.791	79.995	19.992	99.835	20.590	2.336	0.533
1230.000	700.595	79.995	19.991	99.836	20.590	2.387	0.512
1237.500	704.501	79.995	19.990	99.836	20.593	2.174	0.537
1245.001	708.344	79.997	19.992	99.837	20.592	2.264	0.516
1252.500	712.170	79.991	19.993	99.832	20.591	2.277	0.444
1260.000	716.057	79.994	19.992	99.833	20.593	2.163	0.513
1267.500	719.897	79.996	19.991	99.832	20.596	1.980	0.502
1275.001	723.758	79.997	19.991	99.832	20.596	1.945	0.498
1282.501	727.646	79.994	19.991	99.834	20.594	2.076	0.486
1290.000	731.400	79.997	19.991	99.834	20.596	1.951	0.516
1297.500	735.154	79.998	19.990	99.832	20.598	1.822	0.504
1305.001	738.902	79.995	19.992	99.836	20.597	1.918	0.477
1312.501	742.691	79.995	19.992	99.835	20.593	2.159	0.504
1314.500	743.737	79.994	19.992	99.835	20.595	2.019	0.544