Folder: fsri_materials_database/01_Data/OSB/MCC (part 2)

File: OSB_MCC_30K_min_210308_R3.txt
Sample ID:	C:\MCC\MCC Cal\Test\OSB_30_3.txt
Sample Weight (mg):	4.19
Heating Rate (C/s):	0.5
Combustor Temp (C):	900
N2 Flow Rate (cc/min):	80
O2 Flow Rate (cc/min):	20
Calibration File:	C:\MCC\MCC Cal\Coeff1 JN10440_30_210304.txt.txt
T Correction Coefficients:	0	1.024463	0
Time Shift (s):	14
*
Time (s)	Temperature (C)	N2 flow rate (cc/min)	O2 flow rate (cc/min)	Flow Rate (cc/min)	Oxygen (%)	HRR (W/g)	Heating rate (C/s)
0.000	106.168	80.013	19.992	99.715	20.665	-0.157	0.000
7.500	106.195	80.013	19.993	99.714	20.662	0.079	0.026
15.000	106.158	80.002	19.994	99.715	20.659	0.334	-0.007
22.500	106.243	80.004	19.993	99.844	20.645	1.341	0.016
30.000	106.643	80.011	19.992	99.918	20.632	2.303	0.086
37.500	107.611	80.008	19.992	99.954	20.616	3.531	0.136
45.000	109.057	80.011	19.991	99.991	20.610	3.951	0.209
52.500	110.881	80.013	19.993	99.994	20.603	4.523	0.292
60.000	113.135	80.015	19.992	100.023	20.602	4.578	0.270
67.500	115.776	80.014	19.994	100.015	20.601	4.676	0.354
75.000	118.694	80.012	19.992	100.025	20.603	4.528	0.411
82.501	121.851	80.013	19.992	100.020	20.597	4.954	0.421
90.000	125.171	80.013	19.993	100.030	20.594	5.135	0.440
97.501	128.641	80.011	19.993	100.028	20.597	4.929	0.481
105.001	132.221	80.012	19.994	100.014	20.596	5.023	0.496
112.501	135.960	80.013	19.992	100.030	20.596	5.033	0.496
120.000	139.758	80.013	19.996	100.025	20.597	4.933	0.522
127.500	143.660	80.013	19.994	100.004	20.600	4.750	0.545
135.000	147.527	80.014	19.993	100.003	20.593	5.256	0.540
142.500	151.421	80.015	19.994	99.995	20.595	5.086	0.531
150.000	155.258	80.013	19.992	99.990	20.595	5.088	0.519
157.500	159.100	80.012	19.993	99.991	20.595	5.058	0.492
165.000	162.901	80.012	19.993	99.985	20.594	5.125	0.525
172.500	166.739	80.014	19.994	99.988	20.592	5.278	0.503
180.000	170.532	80.012	19.993	99.987	20.590	5.440	0.500
187.500	174.208	80.012	19.994	99.968	20.582	6.041	0.482
195.000	177.904	80.013	19.994	99.979	20.581	6.139	0.512
202.501	181.545	80.014	19.993	99.978	20.578	6.380	0.503
210.000	185.241	80.013	19.994	99.980	20.576	6.504	0.516
217.500	188.919	80.013	19.994	99.974	20.571	6.842	0.517
225.000	192.559	80.015	19.991	99.963	20.564	7.361	0.511
232.500	196.163	80.014	19.992	99.973	20.565	7.290	0.496
240.000	199.833	80.012	19.993	99.959	20.558	7.820	0.519
247.501	203.478	80.012	19.993	99.956	20.554	8.101	0.496
255.000	207.133	80.012	19.993	99.972	20.547	8.692	0.495
262.500	210.847	80.015	19.993	99.962	20.543	8.957	0.498
270.000	214.535	80.011	19.994	99.970	20.537	9.417	0.523
277.500	218.348	80.013	19.996	99.973	20.530	9.902	0.556
285.000	222.003	80.013	19.993	99.968	20.527	10.170	0.544
292.500	225.740	80.014	19.992	99.986	20.522	10.537	0.486
300.000	229.509	80.013	19.994	99.983	20.517	10.908	0.493
307.500	233.242	80.016	19.994	99.971	20.514	11.120	0.494
315.000	237.058	80.016	19.992	99.986	20.509	11.524	0.519
322.500	240.744	80.014	19.994	99.989	20.501	12.073	0.473
330.000	244.516	80.013	19.993	99.987	20.494	12.594	0.484
337.501	248.276	80.014	19.994	99.987	20.483	13.433	0.487
345.000	252.055	80.014	19.993	99.989	20.477	13.846	0.486
352.500	255.839	80.012	19.993	100.000	20.467	14.617	0.505
360.001	259.609	80.013	19.995	100.006	20.455	15.492	0.486
367.500	263.404	80.014	19.994	99.999	20.433	17.169	0.506
375.000	267.163	80.012	19.993	100.016	20.420	18.122	0.502
382.500	270.947	80.015	19.993	100.015	20.398	19.757	0.507
390.000	274.700	80.014	19.993	100.006	20.380	21.085	0.478
397.500	278.474	80.013	19.994	100.025	20.360	22.569	0.476
405.000	282.224	80.013	19.993	100.029	20.337	24.331	0.503
412.500	285.991	80.010	19.992	100.035	20.314	25.993	0.554
420.000	289.762	80.013	19.992	100.034	20.295	27.444	0.516
427.500	293.459	80.013	19.994	100.062	20.270	29.335	0.471
435.000	297.271	80.011	19.992	100.071	20.237	31.739	0.508
442.500	300.969	80.013	19.993	100.069	20.208	33.925	0.469
450.000	304.709	80.015	19.993	100.081	20.183	35.787	0.500
457.500	308.497	80.013	19.993	100.100	20.153	38.026	0.523
465.001	312.290	80.014	19.993	100.098	20.117	40.688	0.502
472.500	316.081	80.014	19.992	100.108	20.080	43.477	0.512
480.001	319.873	80.012	19.993	100.114	20.046	46.046	0.514
487.500	323.637	80.000	19.991	100.114	20.017	48.206	0.510
495.000	327.404	80.000	19.992	100.141	19.986	50.540	0.527
502.500	331.219	79.993	19.992	100.146	19.949	53.242	0.496
510.001	335.084	79.994	19.993	100.144	19.914	55.849	0.501
517.501	338.860	79.993	19.992	100.155	19.875	58.780	0.475
525.000	342.641	79.994	19.993	100.172	19.845	61.013	0.536
532.500	346.432	79.995	19.993	100.183	19.808	63.791	0.503
540.000	350.235	79.995	19.994	100.183	19.774	66.319	0.477
547.500	354.073	79.994	19.994	100.186	19.746	68.458	0.494
555.000	357.870	79.995	19.993	100.187	19.720	70.329	0.528
562.500	361.650	79.995	19.993	100.186	19.713	70.892	0.513
570.000	365.459	79.993	19.994	100.156	19.728	69.682	0.556
577.500	369.239	80.013	19.993	100.128	19.773	66.329	0.505
585.000	373.069	80.014	19.993	100.073	19.847	60.830	0.533
592.501	376.873	80.013	19.992	100.033	19.948	53.263	0.539
600.000	380.682	80.011	19.992	99.990	20.067	44.373	0.489
607.500	384.512	80.013	19.993	99.953	20.188	35.409	0.509
615.000	388.293	80.014	19.992	99.948	20.292	27.629	0.529
622.500	392.163	80.007	19.992	99.949	20.362	22.401	0.530
630.000	396.067	79.999	19.991	99.917	20.409	18.900	0.541
637.500	399.918	79.997	19.993	99.927	20.434	17.043	0.527
645.000	403.729	79.995	19.993	99.927	20.444	16.330	0.520
652.500	407.468	79.993	19.995	99.933	20.450	15.864	0.495
660.000	411.301	79.992	19.995	99.940	20.459	15.182	0.497
667.500	415.095	79.992	19.994	99.936	20.458	15.289	0.488
675.000	418.976	79.991	19.991	99.932	20.462	14.952	0.517
682.500	422.757	79.996	19.993	99.916	20.467	14.626	0.469
690.000	426.536	80.005	19.994	99.916	20.471	14.340	0.498
697.500	430.384	80.013	19.994	99.914	20.472	14.235	0.500
705.000	434.191	80.012	19.992	99.922	20.475	13.993	0.500
712.500	437.993	80.013	19.991	99.925	20.482	13.511	0.531
720.000	441.791	80.011	19.993	99.912	20.488	13.045	0.515
727.500	445.524	79.996	19.993	99.909	20.489	12.989	0.475
735.000	449.379	79.993	19.995	99.913	20.491	12.835	0.541
742.500	453.157	79.993	19.992	99.923	20.506	11.724	0.433
750.000	456.936	79.990	19.993	99.922	20.512	11.267	0.547
757.500	460.679	79.992	19.994	99.920	20.514	11.143	0.397
765.000	464.616	79.991	19.993	99.910	20.511	11.326	0.506
772.500	468.441	79.993	19.990	99.917	20.516	10.953	0.524
780.000	472.225	79.994	19.992	99.910	20.521	10.618	0.512
787.500	476.133	79.992	19.992	99.919	20.527	10.105	0.541
795.000	479.998	79.994	19.991	99.917	20.524	10.344	0.513
802.500	483.895	79.995	19.993	99.911	20.532	9.802	0.492
810.000	487.794	79.995	19.993	99.911	20.529	9.970	0.563
817.500	491.683	79.991	19.992	99.913	20.528	10.075	0.504
825.000	495.587	79.992	19.993	99.912	20.532	9.790	0.523
832.500	499.493	79.994	19.994	99.911	20.533	9.700	0.547
840.000	503.402	80.011	19.992	99.913	20.537	9.397	0.524
847.500	507.288	80.010	19.993	99.908	20.537	9.391	0.558
855.000	511.166	80.015	19.994	99.915	20.538	9.293	0.531
862.500	515.080	80.013	19.992	99.912	20.542	9.020	0.514
870.000	518.972	80.013	19.992	99.914	20.527	10.167	0.525
877.500	522.876	80.012	19.991	99.912	20.535	9.554	0.520
885.000	526.675	80.010	19.993	99.911	20.527	10.136	0.507
892.500	530.587	80.013	19.992	99.903	20.534	9.633	0.541
900.000	534.421	80.012	19.993	99.909	20.531	9.814	0.473
907.500	538.259	79.998	19.992	99.909	20.533	9.692	0.499
915.000	542.143	79.994	19.994	99.910	20.528	10.063	0.492
922.500	545.918	79.992	19.993	99.908	20.530	9.935	0.459
930.000	549.799	79.992	19.993	99.912	20.539	9.224	0.540
937.500	553.645	79.994	19.995	99.911	20.537	9.432	0.549
945.000	557.515	79.992	19.991	99.911	20.533	9.698	0.461
952.501	561.307	79.995	19.991	99.914	20.528	10.040	0.494
960.000	565.119	79.995	19.992	99.907	20.530	9.936	0.529
967.500	568.878	79.994	19.992	99.910	20.536	9.454	0.533
975.000	572.655	79.996	19.993	99.898	20.529	10.004	0.491
982.500	576.551	80.011	19.993	99.909	20.531	9.871	0.496
990.000	580.376	80.014	19.994	99.909	20.532	9.774	0.518
997.500	584.142	80.014	19.996	99.910	20.533	9.675	0.487
1005.000	587.941	80.013	19.992	99.896	20.530	9.923	0.500
1012.500	591.746	80.012	19.992	99.906	20.532	9.732	0.515
1020.000	595.661	80.012	19.994	99.904	20.532	9.741	0.546
1027.501	599.464	80.003	19.995	99.905	20.531	9.814	0.506
1035.000	603.328	79.995	19.993	99.905	20.527	10.114	0.498
1042.502	607.173	79.995	19.992	99.905	20.527	10.141	0.523
1050.001	610.996	79.996	19.993	99.904	20.532	9.783	0.499
1057.500	614.881	79.995	19.993	99.894	20.530	9.938	0.527
1065.000	618.688	79.993	19.992	99.894	20.528	10.101	0.520
1072.501	622.548	79.995	19.991	99.894	20.526	10.211	0.542
1080.000	626.290	79.993	19.992	99.884	20.523	10.458	0.512
1087.500	630.110	79.994	19.992	99.901	20.524	10.363	0.525
1095.000	633.921	79.994	19.994	99.905	20.523	10.404	0.549
1102.500	637.796	79.994	19.993	99.896	20.526	10.181	0.524
1110.000	641.613	79.995	19.993	99.902	20.524	10.379	0.484
1117.500	645.466	79.996	19.993	99.891	20.523	10.407	0.510
1125.000	649.351	79.993	19.993	99.884	20.522	10.511	0.534
1132.501	653.159	79.994	19.992	99.883	20.528	10.079	0.491
1140.001	656.980	79.996	19.992	99.897	20.524	10.390	0.427
1147.501	660.805	79.993	19.993	99.877	20.523	10.438	0.509
1155.001	664.564	79.995	19.991	99.875	20.525	10.307	0.491
1162.500	668.377	79.995	19.992	99.874	20.521	10.567	0.510
1170.001	672.148	79.994	19.991	99.873	20.520	10.638	0.505
1177.500	675.947	79.996	19.993	99.888	20.525	10.299	0.467
1185.000	679.748	79.994	19.993	99.874	20.525	10.270	0.500
1192.500	683.587	79.994	19.992	99.880	20.520	10.670	0.559
1200.000	687.367	79.994	19.994	99.877	20.520	10.687	0.480
1207.501	691.113	79.994	19.993	99.883	20.517	10.871	0.518
1215.000	694.912	79.995	19.993	99.877	20.521	10.607	0.550
1222.501	698.686	79.995	19.992	99.869	20.520	10.668	0.517
1230.000	702.522	79.994	19.993	99.870	20.517	10.902	0.484
1237.501	706.319	79.992	19.993	99.868	20.510	11.369	0.523
1245.000	710.171	79.994	19.992	99.871	20.514	11.098	0.540
1252.501	713.952	79.994	19.992	99.881	20.513	11.171	0.522
1260.000	717.847	79.992	19.993	99.876	20.516	10.953	0.508
1267.500	721.673	79.992	19.993	99.876	20.511	11.356	0.530
1275.000	725.523	79.994	19.992	99.873	20.510	11.425	0.520
1282.501	729.293	79.996	19.993	99.871	20.506	11.728	0.512
1290.000	733.099	79.994	19.993	99.868	20.509	11.509	0.473
1297.500	736.835	79.996	19.993	99.869	20.507	11.629	0.505
1305.000	740.688	79.999	19.992	99.869	20.511	11.297	0.516
1310.500	743.475	79.997	19.992	99.867	20.509	11.505	0.506