Folder: fsri_materials_database/01_Data/PETG/Cone (part 4)

File: PETG_Cone_HF25Scan_220215_R1.csv
Names,Time,Stack TC,Smoke TC,Exh Press,Smoke Comp,Smoke Meas,CO Meter,CO2 Meter,O2 Meter,Sample Mass,Ext Coeff,Start Test,Flame Verif
Chan Gain,,500,500,1,1,1,1,1,1,1,1,1.0,1.0
Offset,,0,0,0.140898,0,0,0,0,0,0,0,0.0,0.0
Gain,,1,1,25.011,12.9668,12.6588,1,1,1,1.00088,1.01977,1.0,1.0
Units,sec,C,C,Pa,%,%,%,%,%,g,/m,,
Baseline,,16.1088,16.989,165.907,98.5469,101.386,-0.000477459,0.067648,20.9775,-871.594,-0.254017,,
22,5.25,14.9206,15.907,164.881,97.2164,99.7737,-0.000641339,0.074883,20.9691,33.6395,-0.232266,0.0,0.0
44,10.75,14.8182,15.7575,162.012,97.3177,100.407,-0.000438364,0.0819891,20.9592,33.6796,-0.279503,0.0,0.0
66,16.25,14.8759,16.089,166.757,97.7728,100.956,-0.00068739,0.0860145,20.9562,33.6896,-0.286614,0.0,0.0
88,21.75,15.2269,15.5633,168.157,98.3703,101.375,-0.000501722,0.081885,20.9605,33.6796,-0.269141,0.0,0.0
110,27.25,15.3468,16.4317,164.993,98.8796,101.907,-0.000339193,0.0789041,20.9639,33.6996,-0.269765,0.0,0.0
132,32.75,16.1227,16.6155,170.992,99.1459,102.43,-0.000352882,0.0748388,20.9698,33.6596,-0.291502,0.0,0.0
154,38.25,15.2595,16.5392,170.295,99.1863,102.387,-0.000576916,0.0692781,20.9762,33.6596,-0.284116,0.0,0.0
176,43.75,15.7533,16.6052,167.21,99.0616,102.11,-0.000638709,0.0705567,20.9742,33.6596,-0.271098,0.0,0.0
198,49.25,14.9454,16.4428,167.669,98.7882,102.036,-0.000508402,0.0811278,20.9596,33.6596,-0.289324,0.0,0.0
220,54.75,16.0246,16.6498,166.416,98.5634,101.816,-0.000694553,0.0822126,20.9575,33.6496,-0.290408,0.0,0.0
242,60.25,15.3366,16.9218,162.53,98.4736,101.685,-0.000670682,0.0818236,20.9581,33.6395,-0.287086,0.0,0.0
264,65.75,15.7063,16.1293,163.604,98.8468,102.107,-0.000716924,0.0774255,20.9623,33.6496,-0.290252,0.0,0.0
286,71.25,15.8908,17.1456,167.627,98.9876,102.447,-0.000764139,0.0766481,20.9642,33.6395,-0.307313,0.0,0.0
308,76.75,16.0008,17.0669,166.541,98.8448,102.143,-0.000845274,0.0747795,20.9675,33.6395,-0.293612,0.0,0.0
330,82.25,16.3436,16.8576,168.854,98.4685,101.731,-0.000504521,0.074105,20.97,33.6295,-0.291595,0.0,0.0
352,87.75,16.3368,17.4269,166.618,98.1851,101.508,-0.000513416,0.0747134,20.9703,33.6195,-0.297716,0.0,0.0
374,93.25,16.1942,17.2176,167.717,98.2995,101.787,-0.000647229,0.0772602,20.9649,33.6195,-0.311882,0.0,0.0
396,98.75,16.4144,17.2902,166.667,98.4048,101.757,-0.000505046,0.0796612,20.9619,33.5895,-0.299661,0.0,0.0
418,104.25,16.5911,17.4895,164.123,98.4946,101.808,-0.000368891,0.0783448,20.9637,33.5895,-0.295981,0.0,0.0
440,109.75,16.1085,17.3326,157.348,98.5041,101.609,-0.00035238,0.0761895,20.9658,33.5995,-0.277654,0.0,0.0
462,115.25,16.4041,17.4881,167.047,98.2924,101.466,-0.000634461,0.0742464,20.9699,33.5795,-0.284239,0.0,0.0
484,120.75,15.6795,17.5804,164.409,97.9434,101.104,-0.000687883,0.0718193,20.9743,33.5795,-0.28409,0.0,0.0
506,126.25,16.7047,17.8234,161.15,97.5073,100.595,-0.000632682,0.0694447,20.9772,33.5695,-0.278843,0.0,0.0
528,131.75,16.6306,17.3148,164.958,97.2291,100.109,-0.000557241,0.070181,20.975,33.5495,-0.26108,0.0,0.0
550,137.25,16.6423,17.6775,162.715,97.1895,99.8869,-0.000449782,0.0685576,20.9782,33.5395,-0.244885,0.0,0.0
572,142.75,16.5811,18.2149,164.568,97.4258,100.308,-0.000695432,0.0668117,20.9814,33.5395,-0.260799,0.0,0.0
594,148.25,16.7209,17.8183,161.397,97.8678,100.659,-0.000379596,0.0663022,20.9838,33.5294,-0.251567,0.0,0.0
616,153.75,16.015,17.2068,167.391,98.3755,101.053,-0.000656323,0.0662835,20.9816,33.5595,-0.240232,0.0,0.0
638,159.25,16.7826,17.3435,159.181,98.8317,101.424,-0.000478871,0.0661734,20.9811,33.5495,-0.231643,0.0,0.0
660,164.75,16.0326,17.4053,165.291,99.1222,101.714,-0.000691125,0.0661888,20.9823,33.5395,-0.230909,0.0,0.0
682,170.25,15.9198,17.5529,164.488,99.1922,101.824,-0.000741517,0.0660452,20.9827,33.5194,-0.234268,0.0,0.0
704,175.75,16.2439,17.6564,163.903,99.0514,101.404,-0.000907942,0.0659661,20.9825,33.5094,-0.210015,0.0,0.0
726,181.25,16.7856,17.614,164.369,98.7846,101.663,-0.000544459,0.0658168,20.9826,33.5094,-0.256904,0.0,0.0
748,186.75,17.0208,17.9008,156.831,98.5163,100.539,-0.000259501,0.066065,20.9831,33.4794,-0.181764,0.0,0.0
770,192.25,16.6838,17.523,161.145,98.6093,100.859,-0.00074391,0.0662772,20.9816,33.4694,-0.201807,0.0,0.0
792,197.75,17.1978,18.4102,161.006,98.9544,101.032,-0.00065325,0.0662063,20.9808,33.4694,-0.185897,0.0,0.0
814,203.25,16.5644,17.8164,165.372,98.9481,101.167,-0.000628155,0.0661532,20.9824,33.4494,-0.198364,0.0,0.0
836,208.75,16.9806,17.6615,167.476,98.6121,100.262,-0.000562296,0.0662496,20.9809,33.4394,-0.148428,0.0,0.0
858,214.25,17.5707,18.2604,164.029,98.1931,99.8363,-0.000587918,0.0666408,20.9817,33.4294,-0.14846,0.0,0.0
880,219.75,16.8718,18.2289,167.257,98.2057,100.308,-0.000559696,0.066753,20.9821,33.3993,-0.189436,0.0,0.0
902,225.25,16.7784,18.3284,166.98,98.2991,99.584,-0.000338343,0.066905,20.9801,33.3793,-0.116173,0.0,0.0
924,230.75,17.3254,18.5438,159.487,98.3786,100.222,-0.000198027,0.0670515,20.9794,33.3493,-0.166082,0.0,0.0
946,236.25,17.4614,18.3607,165.034,98.4431,100.243,-0.000341253,0.0667715,20.9802,33.3293,-0.162045,0.0,0.0
968,241.75,17.2251,18.4557,162.468,98.4538,99.6424,-0.000297959,0.069383,20.9763,33.3093,-0.107342,0.0,0.0
990,247.25,17.4667,18.6451,158.668,98.4578,93.1909,0.00135266,0.120605,20.8956,33.2092,0.491798,0.0,1.0
1012,252.75,19.8495,22.0609,145.421,98.3565,81.9749,0.00579294,0.280647,20.6871,32.7187,1.62971,0.0,0.0
1034,258.25,23.6325,26.4844,146.029,98.1942,71.6,0.0108242,0.452912,20.462,32.1983,2.82541,0.0,0.0
1056,263.75,28.3891,33.1108,138.517,97.9643,67.0225,0.0143032,0.57303,20.3021,31.4276,3.39542,0.0,0.0
1078,269.25,32.8071,39.0105,140.073,97.7138,63.1574,0.0176697,0.669679,20.1762,30.6269,3.90386,0.0,0.0
1100,274.75,37.2104,45.1494,140.136,97.4515,62.2921,0.0211824,0.769293,20.0373,29.6861,4.00322,0.0,0.0
1122,280.25,43.1704,52.2275,129.497,97.2532,58.4359,0.0247438,0.891457,19.9018,28.6852,4.55665,0.0,0.0
1144,285.75,48.4766,59.6101,119.779,97.1306,52.4615,0.0292211,1.03224,19.712,27.4541,5.51012,0.0,0.0
1166,291.25,55.3183,68.8482,120.556,97.0621,49.0796,0.0355439,1.23308,19.4499,26.0128,6.09988,0.0,0.0
1188,296.75,62.7254,79.4467,107.301,97.0629,46.5956,0.0444139,1.51272,19.0908,24.3013,6.56456,0.0,0.0
1210,302.25,71.4949,91.3703,113.625,97.1448,42.9063,0.0556649,1.78797,18.7906,22.3997,7.30999,0.0,0.0
1232,307.75,82.0179,105.773,105.203,97.3288,42.9635,0.0684858,2.16505,18.3076,20.2278,7.315,0.0,0.0
1254,313.25,93.0285,122.147,114.179,97.6236,40.6483,0.0885219,2.67868,17.7052,17.6555,7.83757,0.0,0.0
1276,318.75,106.213,141.351,92.2556,97.9346,39.3333,0.109793,3.25147,17.1317,14.6829,8.16021,0.0,0.0
1298,324.25,118.246,158.944,92.4197,98.2659,40.0024,0.126934,3.67154,16.7608,11.5602,8.03952,0.0,0.0
1320,329.75,127.883,172.523,94.0943,98.531,44.518,0.125571,3.65087,16.9099,8.37736,7.10687,0.0,0.0
1342,335.25,128.003,170.77,122.11,98.7221,46.4589,0.0872506,2.70623,18.0654,5.93521,6.74247,0.0,0.0
1364,340.75,120.433,158.754,133.323,98.9109,55.9341,0.0518283,1.67912,19.1546,4.41388,5.09925,0.0,0.0
1386,346.25,113.01,146.376,133.688,99.0114,66.076,0.030793,1.10462,19.7995,3.3029,3.61775,0.0,0.0
1408,351.75,104.431,133.282,142.236,99.0624,71.0024,0.0192693,0.744965,20.2056,2.54223,2.97913,0.0,0.0
1430,357.25,95.7048,120.622,146.124,99.0351,78.4988,0.0116781,0.541782,20.4546,1.96172,2.07881,0.0,0.0
1452,362.75,88.2856,109.078,149.846,98.9544,85.8563,0.00705836,0.404302,20.6088,1.58139,1.2701,0.0,0.0
1474,368.25,81.572,98.7028,146.249,98.8523,90.8602,0.00460503,0.307135,20.7151,1.32116,0.754133,0.0,0.0
1496,373.75,75.0827,89.428,151.34,98.7486,95.6011,0.00278371,0.239736,20.7898,1.12098,0.289768,0.0,0.0
1518,379.25,69.5442,81.2347,154.085,98.6442,97.3982,0.00218206,0.182577,20.8571,1.04091,0.113703,0.0,0.0
1540,384.75,64.2989,73.2222,159.531,98.5476,98.6773,0.00279525,0.132011,20.9097,1.01089,-0.0117682,0.0,0.0
1562,390.25,59.2414,67.059,157.255,98.5211,97.4469,0.00276013,0.0939295,20.9523,0.99087,0.0980675,0.0,0.0
1584,395.75,54.9705,61.2493,160.502,98.5255,98.9899,0.0022947,0.0778539,20.9658,0.980861,-0.0420672,0.0,0.0
1606,401.25,51.5238,56.1925,162.037,98.5627,98.9787,0.0012331,0.072536,20.9707,0.960844,-0.0376772,0.0,0.0
1628,406.75,49.2292,52.3056,154.612,98.6216,99.5427,0.000715219,0.0705443,20.9724,0.970853,-0.0831578,0.0,0.0
1650,412.25,46.2591,49.0429,160.021,98.6881,99.421,0.000292091,0.069785,20.9727,0.970853,-0.0661879,0.0,0.0
1672,417.75,43.3788,45.3344,160.659,98.7922,100.014,0.00025144,0.0693358,20.9732,0.980861,-0.109921,0.0,0.0
1694,423.25,42.4079,43.1012,158.957,98.8764,100.262,6.9947e-05,0.0686635,20.974,0.970853,-0.124447,0.0,0.0
1716,428.75,40.3136,40.7552,156.335,98.9825,100.143,0.000143459,0.0682353,20.9747,0.970853,-0.10427,0.0,0.0
1738,434.25,38.0012,38.0921,157.885,99.0296,100.485,0.000154521,0.0679107,20.9736,0.980861,-0.130537,0.0,0.0
1760,439.75,37.6092,37.5033,160.379,99.0126,100.134,9.03456e-05,0.0679023,20.9759,0.970853,-0.100725,0.0,0.0
1782,445.25,36.6798,36.0082,158.256,98.8994,100.922,-4.82285e-05,0.0676434,20.9749,0.970853,-0.181117,0.0,0.0
1804,450.75,35.8305,34.7907,157.967,98.6723,100.025,3.24764e-05,0.0671957,20.9766,0.980861,-0.121821,0.0,0.0
1826,456.25,35.0901,34.084,161.372,98.3193,99.8154,0.000293592,0.0668435,20.977,0.970853,-0.135098,0.0,0.0
1848,461.75,34.1605,33.0458,152.838,97.9085,99.3785,0.000215808,0.0666191,20.977,0.980861,-0.133305,0.0,0.0
1870,467.25,32.9742,32.2313,160.954,97.5033,99.3097,0.000105965,0.0666956,20.9782,0.980861,-0.164212,0.0,0.0
1892,472.75,32.5193,31.2395,162.734,97.1682,98.0167,0.000104637,0.0664605,20.9779,0.980861,-0.0777821,0.0,0.0
1914,478.25,31.7646,30.9489,159.978,96.9968,98.7527,-8.00877e-05,0.0659169,20.9786,0.970853,-0.160484,0.0,0.0
1936,483.75,31.4519,29.89,158.527,97.0245,98.2458,-4.72216e-05,0.0656804,20.98,0.99087,-0.111899,0.0,0.0
1958,489.25,30.8164,29.3016,156.171,97.2718,98.6348,0.000220027,0.0656388,20.9813,0.980861,-0.124476,0.0,0.0
1980,494.75,30.6152,29.2098,159.692,97.6933,98.9172,,0.0652309,,0.960844,-0.111378,0.0,0.0
2002,500.25,30.2463,28.7368,157.745,98.0771,98.5626,,,,0.980861,-0.0441717,0.0,0.0
2023,505.5,28.7642,27.592,161.284,98.3359,99.8301,,,,0.99087,-0.134901,0.0,0.0

File: PETG_Cone_HF50Scalar_220215_R1.csv
LABORATORY,FSRI
TEST IDENT,PET-G_HF50_1
OPERATOR,Dow
MATERIAL,PET-G
ORIENTATION,Horizontal
HEAT FLUX,50
SURF AREA,0.01
C FACTOR,0.0393671
SPEC HOLDER DIFF,305.96
SPECIMEN MASS,34.5
SCAN TIME,0.25
O2 DELAY TIME,11
CO DELAY TIME,11
CO2 DELAY TIME,8
FLOW FACTOR,1
SCAN COUNT,1086
TIME TO IGN,59
END OF TEST SCAN,606
END OF TEST TIME,151.5
TEST STATUS,1
PRE TEST CMT,Dimensions: 98.57 x 99.24 x 2.61 mm
POST TEST CMT,Sample warped during test with corners lifting up.

File: PETG_Cone_HF50Scalar_220215_R2.csv
LABORATORY,FSRI
TEST IDENT,PET-G_HF50_2
OPERATOR,Dow
MATERIAL,PET-G
ORIENTATION,Horizontal
HEAT FLUX,50
SURF AREA,0.01
C FACTOR,0.0393671
SPEC HOLDER DIFF,304.73
SPECIMEN MASS,34.6
SCAN TIME,0.25
O2 DELAY TIME,11
CO DELAY TIME,11
CO2 DELAY TIME,8
FLOW FACTOR,1
SCAN COUNT,1100
TIME TO IGN,60.5
END OF TEST SCAN,620
END OF TEST TIME,155
TEST STATUS,1
PRE TEST CMT,Dimensions: 98.86 x 99.07 x 2.59 mm
POST TEST CMT,Sample warped near the end of the test with corners rising up.

File: PETG_Cone_HF50Scan_220215_R2.csv
Names,Time,Stack TC,Smoke TC,Exh Press,Smoke Comp,Smoke Meas,CO Meter,CO2 Meter,O2 Meter,Sample Mass,Ext Coeff,Start Test,Flame Verif
Chan Gain,,500,500,1,1,1,1,1,1,1,1,1.0,1.0
Offset,,0,0,0.140898,0,0,0,0,0,0,0,0.0,0.0
Gain,,1,1,25.011,12.9668,12.6588,1,1,1,1.00088,1.01977,1.0,1.0
Units,sec,C,C,Pa,%,%,%,%,%,g,/m,,
Baseline,,35.6038,36.2219,153.702,98.2994,99.3528,-0.00117878,0.0652744,20.9758,-872.0625,-0.0951957,,
12,2.75,32.7997,33.047,152.41,98.3612,98.9609,-0.00137332,0.0759969,20.9626,34.2601,-0.0543705,0.0,0.0
24,5.75,32.1719,32.9856,153.175,98.2671,99.3746,-0.00141182,0.0749096,20.9637,34.18,-0.100261,0.0,0.0
36,8.75,32.6737,33.7331,157.004,98.1523,99.2108,-0.00146568,0.0733519,20.9657,34.0899,-0.0959575,0.0,0.0
48,11.75,32.4586,34.0453,156.128,98.0288,98.733,-0.00147662,0.0719134,20.9675,34.11,-0.0640245,0.0,0.0
60,14.75,33.0138,33.4228,153.431,97.9481,98.631,-0.00149238,0.0701892,20.9716,34.14,-0.0621495,0.0,0.0
72,17.75,33.1483,33.6727,152.941,98.0906,98.0337,-0.00134678,0.0676482,20.9754,34.19,0.00518318,0.0,0.0
84,20.75,33.239,33.7648,155.411,98.493,98.9427,-0.00109911,0.0658508,20.9777,34.15,-0.0407533,0.0,0.0
96,23.75,33.0062,33.9559,153.335,98.7205,100.058,-0.000935171,0.0650894,20.9788,34.13,-0.120415,0.0,0.0
108,26.75,32.4045,33.5241,152.921,98.7744,100.189,-0.00091339,0.0644882,20.9805,34.16,-0.127172,0.0,0.0
120,29.75,32.6486,34.2231,151.252,98.6157,98.8342,-0.000890363,0.0640387,20.981,34.14,-0.0197993,0.0,0.0
132,32.75,33.0973,33.6291,155.861,98.294,98.641,-0.000888002,0.0637305,20.9812,34.13,-0.0315299,0.0,0.0
144,35.75,32.9016,33.7122,152.389,98.3648,98.2192,-0.000958369,0.0639296,20.9812,34.12,0.0132526,0.0,0.0
156,38.75,32.1892,33.4359,154.46,98.5706,97.8008,-0.00104826,0.0641891,20.9796,34.11,0.0701313,0.0,0.0
168,41.75,33.0582,33.4343,154.924,98.7906,98.2899,-0.00103057,0.0647638,20.9795,34.13,0.0454534,0.0,0.0
180,44.75,33.0278,33.8892,155.904,98.9694,97.8773,-0.000956517,0.0651967,20.9796,34.0699,0.0992635,0.0,0.0
192,47.75,33.086,33.9713,152.183,99.0379,98.7106,-0.000823297,0.0653796,20.9796,34.0499,0.0296141,0.0,0.0
204,50.75,32.855,34.2541,151.629,98.9429,96.969,-0.000762481,0.0654506,20.9796,34.0799,0.180261,0.0,0.0
216,53.75,33.3887,34.3531,151.806,98.6976,96.3305,-0.000708948,0.0653268,20.9791,34.0299,0.217155,0.0,0.0
228,56.75,33.4508,34.3433,151.737,98.2817,95.9461,-0.0005999,0.0651566,20.9788,34.0199,0.215147,0.0,0.0
240,59.75,32.6815,34.6616,152.377,97.8009,95.1418,-0.000264833,0.0675846,20.9735,33.9698,0.246584,0.0,0.0
252,62.75,33.9322,35.442,146.46,97.4068,85.4985,0.00125647,0.111772,20.8993,33.7997,1.16644,0.0,1.0
264,65.75,35.1233,37.1503,139.913,97.1373,74.1192,0.00459981,0.237139,20.7457,33.5294,2.41928,0.0,0.0
276,68.75,36.7702,39.8832,134.19,97.1159,65.4823,0.009385,0.37449,20.5762,33.1691,3.52559,0.0,0.0
288,71.75,39.7858,43.2666,124.537,97.3185,63.611,0.0135578,0.52814,20.3537,32.7488,3.80359,0.0,0.0
300,74.75,42.9679,48.3655,127.688,97.6276,58.1338,0.0174854,0.649348,20.2048,32.2784,4.63738,0.0,0.0
312,77.75,46.3478,53.1682,116.6,97.994,59.737,0.0216837,0.770455,20.0315,31.7078,4.42754,0.0,0.0
324,80.75,50.3594,58.3731,123.015,98.2706,55.5323,0.0265306,0.908124,19.8533,31.0873,5.10564,0.0,0.0
336,83.75,54.9443,64.6751,115.641,98.3925,49.0727,0.0334827,1.07485,19.6316,30.3467,6.22293,0.0,0.0
348,86.75,59.7099,72.9223,116.019,98.3137,43.67,0.0426833,1.33472,19.3315,29.3558,7.25915,0.0,0.0
360,89.75,67.7995,82.6473,103.699,98.1111,37.0606,0.0580514,1.71957,18.9027,28.1447,8.70871,0.0,0.0
372,92.75,75.8057,95.1343,100.941,97.9188,33.3809,0.0775749,2.2022,18.3099,26.7435,9.62657,0.0,0.0
384,95.75,84.6225,109.962,89.4109,98.237,32.5986,0.102393,2.7141,17.6695,25.1921,9.86772,0.0,0.0
396,98.75,95.6514,125.935,94.1981,98.6948,29.223,0.133279,3.32684,16.8542,23.4906,10.8872,0.0,0.0
408,101.75,106.314,143.929,81.859,98.7336,30.8803,0.161676,3.96609,16.1793,21.4789,10.3972,0.0,0.0
420,104.75,117.812,161.387,99.3548,98.3929,31.4423,0.189799,4.49609,15.5972,19.337,10.205,0.0,0.0
432,107.75,129.28,180.391,74.6445,98.3941,28.1776,0.223762,5.14287,14.9182,17.075,11.1857,0.0,0.0
444,110.75,140.933,201.006,80.1348,98.7067,28.7536,0.259254,5.92218,14.0499,14.5528,11.0331,0.0,0.0
456,113.75,152.508,220.07,74.8873,98.9718,29.0244,0.276844,6.36925,13.6672,12.0606,10.9732,0.0,0.0
468,116.75,161.582,233.256,85.9891,99.0347,33.761,0.264197,6.17973,13.8132,9.7886,9.62665,0.0,0.0
480,119.75,165.77,239.258,79.4707,98.8211,34.8025,0.225094,5.51875,14.6898,7.91695,9.33554,0.0,0.0
492,122.75,168.445,241.177,88.3598,98.3739,35.9754,0.182652,4.78056,15.4807,6.08534,8.99848,0.0,0.0
504,125.75,168.129,237.896,96.8642,97.8547,39.3862,0.142121,3.93786,16.5123,4.6641,8.14087,0.0,0.0
516,128.75,165.474,230.433,112.499,97.3696,41.3931,0.106,3.01982,17.5167,3.54311,7.65184,0.0,0.0
528,131.75,159.911,219.155,121.176,97.142,44.3059,0.073545,2.18052,18.5087,2.68236,7.02259,0.0,0.0
540,134.75,152.559,207.267,126.392,97.2196,53.3712,0.0492836,1.50102,19.2474,2.10185,5.36452,0.0,0.0
552,137.75,146.311,194.875,131.603,97.5528,59.4206,0.0324947,1.07734,19.7197,1.69149,4.43468,0.0,0.0
564,140.75,139.184,183.954,131.696,97.9529,66.9951,0.0214019,0.778242,20.1129,1.3712,3.39804,0.0,0.0
576,143.75,133.669,172.901,137.805,98.2694,72.1323,0.0139293,0.586133,20.3533,1.08095,2.76599,0.0,0.0
588,146.75,125.728,162.604,141.843,98.3929,82.3504,0.00869711,0.446423,20.5313,0.950835,1.59214,0.0,0.0
600,149.75,121.057,153.853,141.988,98.2718,91.5537,0.00569655,0.327458,20.6733,0.9108,0.633436,0.0,0.0
612,152.75,115.397,144.201,142.246,98.0344,93.5011,0.00467291,0.226928,20.7874,0.880774,0.423518,0.0,0.0
624,155.75,109.023,135.968,143.258,97.844,93.5104,0.00477647,0.16038,20.871,0.820721,0.405247,0.0,0.0
636,158.75,104.665,128.075,146.76,98.2932,93.3083,0.00564554,0.121043,20.9093,0.83073,0.465563,0.0,0.0
648,161.75,99.9673,121.237,147.886,98.6541,93.9863,0.00744334,0.10177,20.9284,0.760668,0.433584,0.0,0.0
660,164.75,95.7983,114.901,142.346,98.6746,94.3672,0.00891453,0.0928851,20.937,0.810712,0.39927,0.0,0.0
672,167.75,92.3175,109.306,145.268,98.3593,94.0968,0.0101105,0.089099,20.9399,0.810712,0.396302,0.0,0.0
684,170.75,89.0697,103.993,149.967,98.3102,94.2374,0.0107778,0.0885963,20.9395,0.780686,0.378481,0.0,0.0
696,173.75,85.564,99.2068,144.975,98.5812,95.2476,0.011073,0.0899477,20.9372,0.780686,0.307729,0.0,0.0
708,176.75,82.6817,94.6382,147.724,98.8278,94.1775,0.0111161,0.0917678,20.9351,0.750659,0.43114,0.0,0.0
720,179.75,80.6742,91.3145,148.259,98.99,94.5982,0.0108062,0.0936391,20.935,0.770677,0.405943,0.0,0.0
732,182.75,78.4945,87.8262,148.718,98.9904,93.8607,0.0103504,0.0953484,20.9335,0.680598,0.475989,0.0,0.0
744,185.75,75.7605,84.7582,148.755,98.8456,94.8428,0.010058,0.0968134,20.9303,0.710624,0.369787,0.0,0.0
756,188.75,74.3956,81.2,145.779,98.5666,94.1064,0.0100171,0.0980829,20.9284,0.680598,0.414223,0.0,0.0
768,191.75,72.4804,79.2412,145.983,98.2477,95.2874,0.00994905,0.0988877,20.9272,0.66058,0.27367,0.0,0.0
780,194.75,70.7224,76.5661,145.949,98.2061,93.7282,0.00997191,0.0993072,20.9256,0.650571,0.417469,0.0,0.0
792,197.75,68.8062,74.1207,147.089,97.9248,93.6684,0.00997992,0.0997788,20.9248,0.630554,0.397521,0.0,0.0
804,200.75,66.6991,71.517,146.391,97.6636,93.4694,0.00999451,0.10059,20.9241,0.58051,0.392652,0.0,0.0
816,203.75,66.1837,70.4171,149.62,97.4511,93.9044,0.0098906,0.101332,20.9238,0.540475,0.331634,0.0,0.0
828,206.75,65.1952,68.4876,146.039,97.2861,92.8517,0.00980036,0.101684,20.923,0.540475,0.417321,0.0,0.0
840,209.75,63.52,66.5773,144.982,97.2018,93.9013,0.00969112,0.102043,20.9221,0.520457,0.309015,0.0,0.0
852,212.75,62.0385,64.7925,148.118,97.1587,93.6854,0.00950223,0.102289,20.9224,0.470413,0.32564,0.0,0.0
864,215.75,62.1486,64.0473,146.228,97.1856,93.3898,0.0096317,0.102196,20.9224,0.480422,0.35638,0.0,0.0
876,218.75,60.9001,63.1783,148.591,97.2493,93.5613,0.00980372,0.102329,20.9224,0.480422,0.345829,0.0,0.0
888,221.75,59.7402,61.8636,144.132,97.3419,94.2741,0.00979656,0.102034,20.9224,0.460404,0.286455,0.0,0.0
900,224.75,59.3101,60.8299,152.931,97.4831,94.7952,0.00968064,0.10162,20.9224,0.440387,0.250114,0.0,0.0
912,227.75,58.42,59.5229,145.551,97.6165,94.0388,0.00971957,0.101364,20.9224,0.430378,0.334006,0.0,0.0
924,230.75,57.9607,58.5417,145.562,97.7463,94.3966,0.0100262,0.101074,20.9212,0.370325,0.311929,0.0,0.0
936,233.75,57.6891,58.0024,146.269,97.8864,93.8689,0.0104787,0.100383,20.921,0.370325,0.374887,0.0,0.0
948,236.75,56.0062,57.069,151.301,98.0292,93.9793,0.0102911,0.0999935,20.922,0.320281,0.377411,0.0,0.0
960,239.75,55.3989,56.0952,144.312,98.1396,95.34,0.00997679,0.0994875,20.9237,0.340299,0.2589,0.0,0.0
972,242.75,55.4128,56.18,151.238,98.2417,94.7636,0.00997215,0.0993105,20.9252,0.320281,0.322443,0.0,0.0
984,245.75,54.4375,55.0622,143.513,98.3165,95.3083,0.00979607,0.0987139,20.9264,0.33029,0.27798,0.0,0.0
996,248.75,54.1429,54.2991,142.64,98.3798,94.7056,0.00975321,0.0979951,20.9268,0.290255,0.340481,0.0,0.0
1008,251.75,53.126,52.8651,145.603,98.417,95.4446,0.00978362,0.0978621,20.9276,0.25022,0.27433,0.0,0.0
1020,254.75,53.2338,53.0554,145.89,98.4467,95.2047,0.00975278,0.0970841,20.9311,0.230202,0.29954,0.0,0.0
1032,257.75,52.7407,52.5327,148.226,98.44,95.2808,0.0098473,0.0966939,20.9324,0.230202,0.291781,0.0,0.0
1044,260.75,51.9643,51.9953,144.677,98.434,95.6896,0.00988763,0.0963394,20.9328,0.240211,0.252951,0.0,0.0
1056,263.75,51.8601,51.7849,147.35,98.3949,95.8143,0.00971667,0.0958517,20.9346,0.180158,0.237733,0.0,0.0
1068,266.75,51.8131,51.6552,145.348,98.3502,95.7166,,0.095511,,0.180158,0.242796,0.0,0.0
1080,269.75,51.8002,50.5455,148.386,98.2892,96.2976,,,,0.170149,0.183116,0.0,0.0
1092,272.75,50.1228,51.0738,147.488,98.2441,96.3529,,,,0.140123,0.17388,0.0,0.0
1100,274.75,50.332,50.4811,148.141,98.2144,96.084,,,,0.150132,0.196174,0.0,0.0