Folder: fsri_materials_database/01_Data/PETG/Cone (part 5)

File: PETG_Cone_HF50Scan_220215_R3.csv
Names,Time,Stack TC,Smoke TC,Exh Press,Smoke Comp,Smoke Meas,CO Meter,CO2 Meter,O2 Meter,Sample Mass,Ext Coeff,Start Test,Flame Verif
Chan Gain,,500,500,1,1,1,1,1,1,1,1,1.0,1.0
Offset,,0,0,0.140898,0,0,0,0,0,0,0,0.0,0.0
Gain,,1,1,25.011,12.9668,12.6588,1,1,1,1.00088,1.01977,1.0,1.0
Units,sec,C,C,Pa,%,%,%,%,%,g,/m,,
Baseline,,33.4012,34.4143,153.711,97.9056,99.7984,-0.00101251,0.067362,20.9687,-872.131,-0.171238,,
12,2.75,30.4721,31.685,159.06,98.4467,100.966,-0.00106079,0.0763497,20.9577,35.1809,-0.226059,0.0,0.0
24,5.75,30.8013,32.3457,153.754,98.4392,100.702,-0.00110238,0.0755684,20.9576,35.1609,-0.203335,0.0,0.0
36,8.75,31.409,31.9703,160.943,98.4111,100.183,-0.00114227,0.0744874,20.9584,35.1909,-0.159649,0.0,0.0
48,11.75,30.395,32.4949,151.599,98.3775,100.624,-0.00109405,0.0730272,20.9614,35.1609,-0.201943,0.0,0.0
60,14.75,30.9539,32.1816,157.671,98.3359,100.329,-0.00108367,0.0716661,20.9627,35.1409,-0.179514,0.0,0.0
72,17.75,31.3452,32.325,152.911,98.2773,100.238,-0.00112891,0.070549,20.9631,35.1909,-0.176712,0.0,0.0
84,20.75,31.3712,32.504,150.649,98.2037,100.082,-0.00119276,0.0700663,20.9649,35.2009,-0.169439,0.0,0.0
96,23.75,31.4168,32.7969,152.995,98.1428,100.697,-0.00130195,0.0707195,20.9655,35.1609,-0.229829,0.0,0.0
108,26.75,31.5768,32.1545,151.47,98.0981,100.087,-0.00137391,0.0709626,20.9657,35.1709,-0.179518,0.0,0.0
120,29.75,31.9934,32.5454,152.48,98.0518,99.4237,-0.00114199,0.0707068,20.9657,35.1609,-0.124294,0.0,0.0
132,32.75,31.3214,32.5307,150.971,97.9976,99.715,-0.0010121,0.0702418,20.9672,35.1609,-0.15541,0.0,0.0
144,35.75,31.5668,33.1236,155.857,97.9588,99.6269,-0.00109255,0.0692373,20.968,35.1309,-0.151047,0.0,0.0
156,38.75,31.2768,33.5114,154.221,97.9402,99.1336,-0.00102511,0.0682036,20.9716,35.1309,-0.108339,0.0,0.0
168,41.75,31.4822,33.0286,150.505,97.9303,99.5516,-0.000820381,0.0672418,20.9739,35.1409,-0.146882,0.0,0.0
180,44.75,31.5203,33.4443,153.137,97.9382,98.6542,-0.00071505,0.0668208,20.9746,35.1309,-0.065155,0.0,0.0
192,47.75,31.8455,33.255,151.644,97.9346,98.8952,-0.000661248,0.0674679,20.9742,35.1208,-0.0873118,0.0,0.0
204,50.75,32.1463,32.983,153.782,97.9572,97.4682,-0.000607152,0.0685037,20.973,35.1008,0.0447701,0.0,0.0
216,53.75,32.0682,33.7816,151.202,98.0237,96.9915,-0.00047916,0.0687952,20.9727,35.0808,0.094698,0.0,0.0
228,56.75,31.4801,33.08,151.732,98.0209,96.9733,-0.000128566,0.069106,20.972,35.0508,0.0961191,0.0,0.0
240,59.75,32.0418,33.6518,148.71,98.0617,93.4713,0.000939329,0.0924912,20.9188,34.9607,0.428855,0.0,1.0
252,62.75,33.0718,34.8427,142.083,98.1139,80.9299,0.00380548,0.195091,20.7861,34.7205,1.72238,0.0,1.0
264,65.75,34.9627,38.251,136.141,98.1626,68.9174,0.00769059,0.343525,20.6251,34.4002,3.16411,0.0,0.0
276,68.75,38.1871,41.6223,127.619,98.2275,62.2055,0.0123153,0.48206,20.443,33.9298,4.08661,0.0,0.0
288,71.75,41.2633,46.0905,125.109,98.2841,62.4111,0.0169512,0.635108,20.2267,33.3993,4.06225,0.0,0.0
300,74.75,45.2632,51.5693,120.924,98.3391,57.5663,0.0208522,0.769721,20.0372,32.8889,4.79009,0.0,0.0
312,77.75,49.1073,57.1108,118.86,98.3909,54.6496,0.0258108,0.893682,19.8869,32.2583,5.25992,0.0,0.0
324,80.75,53.6324,63.5684,121.776,98.4297,51.3265,0.0338044,1.06146,19.6344,31.4376,5.82463,0.0,0.0
336,83.75,59.4893,71.2274,109.955,98.4491,41.5762,0.0479939,1.34613,19.2921,30.4367,7.71098,0.0,0.0
348,86.75,66.7063,82.5516,99.928,98.4598,37.2116,0.0688484,1.79958,18.723,29.1656,8.70406,0.0,0.0
360,89.75,76.0714,96.5803,90.0016,98.4606,32.4951,0.0971683,2.33829,18.1727,27.5742,9.91652,0.0,0.0
372,92.75,87.2903,113.657,77.429,98.4293,30.135,0.135391,3.04656,17.318,25.7526,10.5881,0.0,0.0
384,95.75,99.4279,132.536,81.4476,98.3668,30.1076,0.171256,3.8395,16.3443,23.8509,10.5906,0.0,0.0
396,98.75,112.261,152.517,76.3237,98.3046,28.3468,0.200543,4.45003,15.6916,21.7791,11.124,0.0,0.0
408,101.75,124.353,172.89,67.1217,98.2318,33.1487,0.233668,5.04037,15.0024,19.407,9.71756,0.0,0.0
420,104.75,137.949,195.385,75.0636,98.1519,31.2272,0.260559,5.80045,14.2155,17.025,10.2444,0.0,0.0
432,107.75,148.526,212.399,70.1183,98.0728,30.3645,0.271267,6.10112,13.9271,14.5628,10.4878,0.0,0.0
444,110.75,157.308,225.094,72.9539,98.0268,31.717,0.259737,5.95681,14.0291,12.4209,10.0938,0.0,0.0
456,113.75,162.07,232.667,87.7324,98.1602,34.1875,0.220802,5.51722,14.6043,10.5292,9.43501,0.0,0.0
468,116.75,164.659,233.503,89.0574,98.4993,36.8558,0.17933,4.61126,15.7197,8.83776,8.7936,0.0,0.0
480,119.75,165.435,230.82,96.0361,98.7478,40.1816,0.142582,3.84629,16.512,7.41651,8.04329,0.0,0.0
492,122.75,164.02,227.467,96.4116,98.8563,44.423,0.116827,3.22157,17.2088,6.04531,7.15547,0.0,0.0
504,125.75,161.898,221.345,109.372,98.8389,46.4952,0.0940275,2.72502,17.8162,4.8943,6.74606,0.0,0.0
516,128.75,157.299,213.83,117.537,98.6857,48.0961,0.0709164,2.19509,18.5057,3.97349,6.42937,0.0,0.0
528,131.75,152.017,204.375,118.482,98.3284,53.6223,0.0530098,1.68515,19.0156,3.20281,5.42398,0.0,0.0
540,134.75,146.625,194.771,127.397,98.4641,60.9539,0.0373237,1.298,19.4911,2.72239,4.28996,0.0,0.0
552,137.75,140.393,183.108,135.904,98.6541,72.0589,0.025056,0.926011,19.952,2.3921,2.81004,0.0,0.0
564,140.75,134.18,172.468,136.616,98.8911,75.2009,0.0167672,0.655808,20.2652,2.17191,2.44974,0.0,0.0
576,143.75,127.558,163.013,137.098,99.0684,83.5712,0.0114947,0.475969,20.4849,1.97173,1.5217,0.0,0.0
588,146.75,121.641,153.142,141.617,99.1238,94.7288,0.00872017,0.336753,20.6509,1.94171,0.405682,0.0,0.0
600,149.75,115.851,143.942,144.674,99.0351,95.0753,0.00796152,0.227448,20.7837,1.9317,0.365017,0.0,0.0
612,152.75,110.334,135.843,145.262,98.8021,96.3227,0.00871581,0.161339,20.855,1.90167,0.227337,0.0,0.0
624,155.75,104.698,128.177,141.012,98.4819,94.4854,0.0100679,0.126258,20.8973,1.9317,0.370583,0.0,0.0
636,158.75,100.033,121.221,146.014,98.0755,94.3823,0.0110232,0.108169,20.9139,1.92169,0.343363,0.0,0.0
648,161.75,96.1191,114.84,144.025,97.6509,93.8426,0.0118981,0.100094,20.9227,1.90167,0.355849,0.0,0.0
660,164.75,92.265,109.013,143.413,97.3185,93.1495,0.0122778,0.0974204,20.9257,1.88165,0.391655,0.0,0.0
672,167.75,89.3013,104.41,146.008,97.1777,93.6595,0.0123734,0.097661,20.9259,1.84162,0.329861,0.0,0.0
684,170.75,85.8974,99.673,146.49,97.2382,94.3997,0.0122094,0.0984186,20.9249,1.83161,0.265016,0.0,0.0
696,173.75,82.8644,95.3048,145.357,97.4776,94.3904,0.0122464,0.0986398,20.9246,1.81159,0.287892,0.0,0.0
708,176.75,80.7183,91.5249,148.517,97.8029,94.7357,0.0125167,0.0995885,20.9229,1.79157,0.285022,0.0,0.0
720,179.75,77.6517,88.0942,150.985,98.1685,94.7771,0.0124377,0.10025,20.9226,1.79157,0.3145,0.0,0.0
732,182.75,75.8135,84.8551,145.664,98.3949,94.6971,0.0122722,0.100974,20.9224,1.72151,0.342652,0.0,0.0
744,185.75,73.7829,81.5773,144.319,98.4507,96.0515,0.0121507,0.102049,20.9219,1.73152,0.220687,0.0,0.0
756,188.75,71.7231,79.1202,146.899,98.3304,93.9187,0.0120614,0.102087,20.9212,1.7115,0.410622,0.0,0.0
768,191.75,70.2416,76.7247,146.607,98.1361,94.5194,0.0117583,0.102647,20.92,1.68148,0.335894,0.0,0.0
780,194.75,68.838,74.2552,143.211,97.9552,94.0578,0.0113231,0.103099,20.9196,1.66146,0.363193,0.0,0.0
792,197.75,66.1376,71.2638,149.513,98.3438,94.9699,0.0110237,0.103055,20.9209,1.62142,0.312283,0.0,0.0
804,200.75,65.3793,70.0444,149.007,98.768,95.343,0.0109189,0.102934,20.9215,1.58139,0.315704,0.0,0.0
816,203.75,64.5684,68.3951,144.635,98.7894,95.8881,0.0111195,0.10293,20.9214,1.56137,0.266642,0.0,0.0
828,206.75,63.4905,66.6755,143.277,98.4708,95.5478,0.0112469,0.102668,20.9219,1.58139,0.269558,0.0,0.0
840,209.75,62.5995,65.973,142.894,98.4661,94.8551,0.0112508,0.102631,20.9221,1.53134,0.334212,0.0,0.0
852,212.75,61.8241,64.0563,147.382,98.7364,95.7661,0.0111609,0.102588,20.9222,1.51133,0.273235,0.0,0.0
864,215.75,60.7055,63.0485,142.953,98.9845,94.8729,0.0110743,0.102375,20.9226,1.50132,0.379506,0.0,0.0
876,218.75,59.7433,61.8021,149.929,99.1028,96.5851,0.0110859,0.102037,20.9239,1.4813,0.230196,0.0,0.0
888,221.75,58.9002,60.4585,143.73,98.9651,95.5462,0.0110385,0.101665,20.9243,1.4813,0.314489,0.0,0.0
900,224.75,58.2873,60.1473,152.619,98.5943,94.1088,0.0109398,0.101282,20.9244,1.44127,0.416516,0.0,0.0
912,227.75,57.2113,58.9133,143.93,98.0613,94.5812,0.0108581,0.100734,20.9231,1.44127,0.323228,0.0,0.0
924,230.75,56.7926,58.1698,146.048,97.5563,94.3321,0.0108419,0.10003,20.9239,1.42125,0.300644,0.0,0.0
936,233.75,56.3326,57.1628,143.66,97.2441,94.677,0.0108516,0.100225,20.9241,1.40123,0.239315,0.0,0.0
948,236.75,54.4733,55.4394,146.907,97.2433,93.2844,0.0108374,0.100255,20.9238,1.35119,0.371803,0.0,0.0
960,239.75,54.5997,55.7899,145.253,97.5176,94.9146,0.0108943,0.0998917,20.9249,1.3712,0.242014,0.0,0.0
972,242.75,54.1634,55.1167,144.741,97.9208,94.6662,0.0109697,0.0994304,20.9255,1.35119,0.302369,0.0,0.0
984,245.75,54.0639,54.6755,149.89,98.2876,93.9685,0.010919,0.0989585,20.9256,1.33117,0.401988,0.0,0.0
996,248.75,53.4367,53.6918,143.784,98.4673,94.589,0.0109112,0.0991568,20.9256,1.32116,0.359457,0.0,0.0
1008,251.75,53.3877,53.7267,142.09,98.3921,95.639,0.0104858,0.0992748,20.9253,1.33117,0.253871,0.0,0.0
1020,254.75,52.7837,53.1686,145.688,98.121,94.6631,0.00977701,0.0986589,20.9268,1.26111,0.320934,0.0,0.0
1032,257.75,52.3991,52.6779,145.47,97.9137,94.5302,0.00928902,0.0982171,20.9275,1.2511,0.314577,0.0,0.0
1044,260.75,52.2347,51.9205,144.687,98.4491,94.6593,0.00903774,0.097812,20.9282,1.23108,0.351156,0.0,0.0
1056,263.75,51.7968,52.0182,151.27,98.7728,95.0896,,0.0971963,,1.24109,0.339943,0.0,0.0
1068,266.75,50.5981,50.4653,147.547,98.588,95.8568,,,,1.21106,0.251305,0.0,0.0
1080,269.75,50.6706,51.2066,144.293,98.3644,94.8891,,,,1.18104,0.321762,0.0,0.0
1092,272.75,50.0732,50.1131,147.814,98.7182,95.0471,,,,1.19105,0.338994,0.0,0.0
1098,274.25,50.1926,50.3846,143.744,98.8974,95.7305,,,,1.19105,0.291135,0.0,0.0

File: PETG_Cone_HF75Scalar_220215_R2.csv
LABORATORY,FSRI
TEST IDENT,PET-G_HF75_2
OPERATOR,Dow
MATERIAL,PET-G
ORIENTATION,Horizontal
HEAT FLUX,75
SURF AREA,0.01
C FACTOR,0.0393671
SPEC HOLDER DIFF,304.94
SPECIMEN MASS,34.4
SCAN TIME,0.25
O2 DELAY TIME,11
CO DELAY TIME,11
CO2 DELAY TIME,8
FLOW FACTOR,1
SCAN COUNT,903
TIME TO IGN,29.75
END OF TEST SCAN,423
END OF TEST TIME,105.75
TEST STATUS,1
PRE TEST CMT,Dimensions: 99.04 x 99.22 x 2.64 mm