Folder: fsri_materials_database/01_Data/PETG/Cone (part 3)

File: PET-G_Cone_HF75Scan_220215_R2.csv
Names,Time,Stack TC,Smoke TC,Exh Press,Smoke Comp,Smoke Meas,CO Meter,CO2 Meter,O2 Meter,Sample Mass,Ext Coeff,Start Test,Flame Verif
Chan Gain,,500,500,1,1,1,1,1,1,1,1,1.0,1.0
Offset,,0,0,0.140898,0,0,0,0,0,0,0,0.0,0.0
Gain,,1,1,25.011,12.9668,12.6588,1,1,1,1.00088,1.01977,1.0,1.0
Units,sec,C,C,Pa,%,%,%,%,%,g,/m,,
Baseline,,42.9077,44.9,148.259,97.9762,95.4573,-0.002516,0.0734043,20.9591,-872.593,0.233117,,
10,2.25,39.379,40.6702,145.986,98.5045,97.0007,-0.00256709,0.0882063,20.9395,33.4594,0.137611,0.0,0.0
20,4.75,39.7206,41.2242,149.371,98.548,95.8835,-0.00253211,0.0855659,20.9449,33.3993,0.245191,0.0,0.0
30,7.25,39.6801,41.8041,145.735,98.6778,97.4311,-0.00251884,0.0850308,20.946,33.4193,0.113738,0.0,0.0
40,9.75,39.8048,41.9434,148.774,98.8313,96.2737,-0.00263102,0.0847487,20.9468,33.4394,0.234544,0.0,0.0
50,12.25,39.3409,41.5244,149.536,98.9081,96.3482,-0.00279769,0.082546,20.9486,33.4193,0.234566,0.0,0.0
60,14.75,40.6025,42.1839,145.908,98.9607,97.3785,-0.00280865,0.0800726,20.9509,33.2092,0.144175,0.0,0.0
70,17.25,40.3315,41.5399,147.583,98.9619,96.7291,-0.0025784,0.0795689,20.9508,33.4093,0.204137,0.0,0.0
80,19.75,40.3836,41.9727,146.012,98.9544,96.4147,-0.00230255,0.0810565,20.9489,33.3993,0.232584,0.0,0.0
90,22.25,39.9307,42.1717,147.767,98.8701,96.0388,-0.00207501,0.0837691,20.9455,33.3793,0.259904,0.0,0.0
100,24.75,40.3724,42.6379,144.651,98.7518,95.384,-0.00193832,0.0889493,20.9401,33.3493,0.310393,0.0,0.0
110,27.25,40.4038,42.3972,145.111,98.6054,94.3796,-0.00191829,0.0918889,20.9401,33.3093,0.391817,0.0,0.0
120,29.75,40.3852,42.2419,152.032,98.3751,92.3777,-0.00126716,0.0958156,20.9326,33.2992,0.562682,0.0,1.0
130,32.25,41.2994,43.2944,140.246,98.1357,79.8401,0.00104218,0.147432,20.8348,33.1091,1.84564,0.0,1.0
140,34.75,42.3617,45.1389,135.096,98.106,67.8419,0.00474559,0.283102,20.6533,32.9089,3.29965,0.0,0.0
150,37.25,44.5303,47.9125,128.405,98.1646,59.0721,0.00961982,0.437107,20.4663,32.5186,4.54321,0.0,0.0
160,39.75,47.2622,51.2981,125.605,98.2136,56.699,0.0145105,0.583131,20.246,32.1482,4.91447,0.0,0.0
170,42.25,49.6749,55.2609,109.63,98.2959,47.6124,0.020221,0.745478,20.0477,31.6178,6.48438,0.0,0.0
180,44.75,53.9912,61.5491,115.366,98.3375,42.9762,0.0277878,0.935204,19.7621,30.9272,7.40458,0.0,0.0
190,47.25,57.6794,67.1343,105.077,98.4146,37.2746,0.0356045,1.20084,19.47,30.1765,8.68483,0.0,0.0
200,49.75,64.1521,76.3474,109.451,98.4946,35.139,0.0462029,1.49403,19.1712,29.3558,9.21987,0.0,0.0
210,52.25,69.6944,84.3792,95.6873,98.5583,35.4709,0.0592733,1.73648,18.8125,28.3549,9.14157,0.0,0.0
220,54.75,75.5871,93.0232,89.7703,98.6256,28.7795,0.0766957,2.03866,18.4139,27.2239,11.0177,0.0,0.0
230,57.25,83.0265,104.008,90.8168,98.6315,24.484,0.106692,2.51693,17.8704,25.7526,12.4642,0.0,0.0
240,59.75,92.3103,118.544,84.8236,98.6632,24.5589,0.152549,3.23538,16.9227,24.2913,12.4397,0.0,0.0
250,62.25,103.991,137.717,58.0418,98.6481,26.6621,0.202157,4.30374,15.6918,22.3096,11.7033,0.0,0.0
260,64.75,117.028,159.864,77.3221,98.6355,24.1321,0.243049,5.42014,14.6427,20.2077,12.594,0.0,0.0
270,67.25,131.229,186.464,68.6292,98.5935,33.3253,0.267908,6.54038,13.3332,17.9358,9.70292,0.0,0.0
280,69.75,144.818,209.648,101.026,98.5361,24.6714,0.285223,7.3361,12.4853,15.8639,12.3873,0.0,0.0
290,72.25,157.224,231.352,55.207,98.4649,25.755,0.299826,7.76006,12.1417,13.5519,11.9963,0.0,0.0
300,74.75,166.881,248.611,69.5794,98.3838,18.4741,0.313266,7.75131,12.1248,11.3199,14.9611,0.0,0.0
310,77.25,175.211,260.87,57.5846,98.2674,21.8412,0.31877,7.5249,12.335,9.16805,13.4528,0.0,0.0
320,79.75,181.303,269.656,60.0286,98.1749,22.2557,0.306355,7.15923,12.8261,6.99614,13.2762,0.0,0.0
330,82.25,186.116,275.187,85.293,98.072,22.6737,0.277951,6.44409,13.7393,5.20457,13.1004,0.0,0.0
340,84.75,188.469,276.424,83.3405,97.9422,25.9663,0.232351,5.61265,14.6288,3.66322,11.8756,0.0,0.0
350,87.25,188.409,273.402,95.6239,97.8393,27.5718,0.178356,4.69252,15.8345,2.38209,11.3296,0.0,0.0
360,89.75,185.942,266.119,97.9114,97.7269,31.6324,0.128675,3.61361,17.0367,1.43126,10.0903,0.0,0.0
370,92.25,181.148,255.673,113.817,97.6331,47.4274,0.0893418,2.61036,17.982,0.690607,6.45869,0.0,0.0
380,94.75,174.382,243.219,120.949,97.5476,55.9368,0.0582843,1.77522,18.8969,0.370325,4.97467,0.0,0.0
390,97.25,167.351,230.797,127.897,97.4804,64.6984,0.03655,1.23667,19.5613,0.130114,3.66682,0.0,0.0
400,99.75,160.832,218.733,134.809,97.4163,78.3605,0.0219959,0.830754,20.0406,-0.0400352,1.94716,0.0,0.0
410,102.25,153.885,206.649,137.67,97.3969,90.2328,0.0130726,0.540487,20.3966,-0.0700615,0.683429,0.0,0.0
420,104.75,147.242,195.327,134.461,97.3739,91.5734,0.00824584,0.360425,20.6069,-0.130114,0.549405,0.0,0.0
430,107.25,140.449,184.413,140.486,97.4103,92.2398,0.00570299,0.262966,20.7306,-0.100088,0.487888,0.0,0.0
440,109.75,135.105,175.391,134.809,97.4163,91.9238,0.00445214,0.209666,20.7995,-0.130114,0.519132,0.0,0.0
450,112.25,129.711,165.993,136.888,97.4903,91.9064,0.00387866,0.182844,20.8334,-0.120105,0.527616,0.0,0.0
460,114.75,124.033,157.806,137.817,97.5615,92.3394,0.00369775,0.168267,20.8531,-0.130114,0.492098,0.0,0.0
470,117.25,120.22,151.491,140.608,97.6727,92.6303,0.00362466,0.159998,20.8608,-0.160141,0.47415,0.0,0.0
480,119.75,116.419,144.63,136.417,97.7863,92.0207,0.00337917,0.155062,20.8614,-0.180158,0.543611,0.0,0.0
490,122.25,112.453,138.229,136.566,97.9346,93.3995,0.00315756,0.150052,20.8674,-0.210185,0.42414,0.0,0.0
500,124.75,109.016,133.289,138.257,98.0803,92.9792,0.00298966,0.146637,20.8716,-0.230202,0.477777,0.0,0.0
510,127.25,105.529,127.751,139.212,98.2477,93.0128,0.00287861,0.144412,20.8732,-0.230202,0.489798,0.0,0.0
520,129.75,102.205,123.153,136.459,98.4052,93.019,0.00269164,0.14279,20.8755,-0.270237,0.503531,0.0,0.0
530,132.25,99.7789,118.779,140.208,98.5615,93.6873,0.00249064,0.140842,20.8778,-0.290255,0.453688,0.0,0.0
540,134.75,96.9753,114.57,137.069,98.7217,94.4483,0.0023515,0.139349,20.8796,-0.320281,0.395849,0.0,0.0
550,137.25,94.8159,111.026,137.222,98.8515,94.1594,0.00243193,0.138127,20.8802,-0.33029,0.435013,0.0,0.0
560,139.75,92.5099,106.63,137.179,99.0039,94.3317,0.00254235,0.136628,20.8826,-0.380334,0.432436,0.0,0.0
570,142.25,89.9744,103.632,139.118,99.0941,93.491,0.00254749,0.135875,20.8829,-0.41036,0.520657,0.0,0.0
580,144.75,88.7347,101.158,137.514,99.1768,94.4394,0.00249175,0.13537,20.884,-0.370325,0.437831,0.0,0.0
590,147.25,86.5121,98.3865,140.994,99.229,93.8403,0.00255733,0.134411,20.8848,-0.41036,0.499477,0.0,0.0
600,149.75,84.4171,95.0875,137.948,99.2817,94.1335,0.00262868,0.132514,20.8875,-0.450396,0.476313,0.0,0.0
610,152.25,83.389,93.3841,139.21,99.271,94.033,0.00271203,0.130547,20.8903,-0.440387,0.4849,0.0,0.0
620,154.75,81.4923,90.4957,140.024,99.2738,94.3,0.00279868,0.129177,20.8915,-0.470413,0.459791,0.0,0.0
630,157.25,80.3985,89.0227,141.488,99.2108,94.2876,0.00279226,0.127895,20.8928,-0.470413,0.455294,0.0,0.0
640,159.75,79.0579,87.084,139.205,99.1574,94.5194,0.00264196,0.126459,20.8953,-0.520457,0.428511,0.0,0.0
650,162.25,77.8984,85.2336,138.451,99.0731,94.9266,0.00243122,0.124734,20.8962,-0.530466,0.382451,0.0,0.0
660,164.75,76.9484,83.303,143.826,98.9738,93.977,0.00241868,0.12364,20.8969,-0.560492,0.463412,0.0,0.0
670,167.25,75.4059,81.9528,143.039,98.8713,94.1856,0.00254518,0.122579,20.8978,-0.570501,0.434308,0.0,0.0
680,169.75,74.078,80.3907,144.796,98.774,94.2868,0.00269242,0.121833,20.8992,-0.58051,0.415889,0.0,0.0
690,172.25,73.6536,78.9582,142.112,98.6636,93.284,0.00267903,0.121141,20.9001,-0.600527,0.501541,0.0,0.0
700,174.75,72.523,77.5822,138.602,98.5682,93.8851,0.00264843,0.120179,20.9001,-0.610536,0.435434,0.0,0.0
710,177.25,71.882,76.2592,143.31,98.4922,93.6123,0.00270138,0.119431,20.9003,-0.620545,0.454559,0.0,0.0
720,179.75,70.9156,75.0523,143.382,98.5401,94.1192,0.00275857,0.118222,20.9014,-0.630554,0.410605,0.0,0.0
730,182.25,70.7991,73.8976,140.305,98.7387,94.5248,0.00291119,0.116723,20.9024,-0.610536,0.39015,0.0,0.0
740,184.75,69.2676,72.5569,140.147,98.8701,94.5287,0.00304636,0.115406,20.9036,-0.630554,0.401679,0.0,0.0
750,187.25,68.8779,71.899,138.186,98.9512,94.5503,0.00307988,0.114535,20.9054,-0.680598,0.406968,0.0,0.0
760,189.75,67.9841,71.3882,140.139,98.9908,95.2542,0.00308345,0.113578,20.9066,-0.670589,0.3442,0.0,0.0
770,192.25,67.9277,70.4431,137.938,98.9888,94.9324,0.00304468,0.112544,20.9088,-0.700615,0.374292,0.0,0.0
780,194.75,67.4455,69.5313,142.516,98.9235,94.4808,0.00288838,0.111193,20.91,-0.670589,0.411045,0.0,0.0
790,197.25,66.4801,68.8435,144.286,98.8266,94.8316,0.00284991,0.110052,20.9117,-0.720633,0.369125,0.0,0.0
800,199.75,65.8111,68.3405,143.426,98.6786,94.2807,0.00291522,0.108713,20.9143,-0.750659,0.407835,0.0,0.0
810,202.25,65.8541,67.5927,143.221,98.4807,94.4661,0.00280727,0.107413,20.9164,-0.770677,0.372304,0.0,0.0
820,204.75,64.9099,67.3458,140.295,98.2437,95.1537,0.00260761,0.106211,20.9182,-0.780686,0.285868,0.0,0.0
830,207.25,64.8416,66.1609,142.814,98.1218,93.685,0.00252655,0.104782,20.92,-0.790694,0.413919,0.0,0.0
840,209.75,64.2024,65.7113,141.47,98.1559,94.5638,0.00256397,0.10388,20.9214,-0.810712,0.333495,0.0,0.0
850,212.25,63.6646,65.203,139.747,98.2271,94.8188,0.00250719,0.103141,20.9228,-0.780686,0.315897,0.0,0.0
860,214.75,63.2577,64.5585,141.194,98.3173,95.5856,,0.102741,,-0.810712,0.252057,0.0,0.0
870,217.25,63.1685,64.0567,140.975,98.3703,94.295,,0.102104,,-0.810712,0.37849,0.0,0.0
880,219.75,62.3935,63.5198,141.989,98.4491,95.6316,,,,-0.840738,0.259737,0.0,0.0
890,222.25,62.1648,62.4541,141.436,98.5191,94.8339,,,,-0.820721,0.341031,0.0,0.0
900,224.75,60.8714,62.6398,140.782,98.5923,95.0753,,,,-0.820721,0.324931,0.0,0.0
903,225.5,61.9292,62.6563,145.476,98.6113,95.9747,,,,-0.840738,0.242435,0.0,0.0

File: PET-G_Cone_HF75Scan_220215_R3.csv
Names,Time,Stack TC,Smoke TC,Exh Press,Smoke Comp,Smoke Meas,CO Meter,CO2 Meter,O2 Meter,Sample Mass,Ext Coeff,Start Test,Flame Verif
Chan Gain,,500,500,1,1,1,1,1,1,1,1,1.0,1.0
Offset,,0,0,0.140898,0,0,0,0,0,0,0,0.0,0.0
Gain,,1,1,25.011,12.9668,12.6588,1,1,1,1.00088,1.01977,1.0,1.0
Units,sec,C,C,Pa,%,%,%,%,%,g,/m,,
Baseline,,41.9741,44.4631,146.625,98.066,96.0541,-0.00235871,0.0717387,20.961,-873.267,0.185554,,
10,2.25,39.3608,41.4245,148.717,98.6746,97.0077,-0.0024476,0.0821174,20.951,29.2557,0.152409,0.0,0.0
20,4.75,40.1262,41.9952,146.032,98.7138,97.054,-0.00256928,0.084558,20.9473,29.1856,0.151686,0.0,0.0
30,7.25,39.9837,41.9422,151.348,98.7431,97.8363,-0.00266358,0.085234,20.9461,29.2157,0.082525,0.0,0.0
40,9.75,39.8153,42.3064,145.373,98.7344,96.6527,-0.00258133,0.0848297,20.9465,29.1356,0.190621,0.0,0.0
50,12.25,40.4257,42.4058,142.711,98.7194,97.5489,-0.00251015,0.0833676,20.9474,29.1356,0.106692,0.0,0.0
60,14.75,39.9333,42.0078,149.405,98.6501,95.8221,-0.00245411,0.0817104,20.9485,29.1756,0.260186,0.0,0.0
70,17.25,40.0838,41.8919,148.375,98.6082,96.2208,-0.0021709,0.0811571,20.9488,29.1756,0.21924,0.0,0.0
80,19.75,40.2916,42.3358,147.708,98.4902,97.3457,-0.00200643,0.0819146,20.9475,29.1556,0.104559,0.0,0.0
90,22.25,40.2367,42.3479,149.082,98.4055,95.7888,-0.00193265,0.0830255,20.9458,29.1256,0.241085,0.0,0.0
100,24.75,40.0457,42.0287,150.129,98.2793,95.8812,-0.00194946,0.0841151,20.9449,29.1156,0.220984,0.0,0.0
110,27.25,40.5822,42.7953,145.796,98.1788,95.4895,-0.00181426,0.0841898,20.9435,29.1456,0.248452,0.0,0.0
120,29.75,40.6343,43.4088,143.803,98.0336,94.9471,-0.00118124,0.0953949,20.9316,29.0855,0.286165,0.0,1.0
130,32.25,40.6811,43.8482,138.449,97.9271,74.8196,0.0011087,0.153763,20.8295,28.9254,2.40759,0.0,1.0
140,34.75,42.0349,45.1642,132.952,97.791,64.0131,0.00498154,0.290813,20.6266,28.7152,3.79054,0.0,0.0
150,37.25,44.0238,48.4714,134.105,97.7032,60.8167,0.00959185,0.44135,20.4715,28.3549,4.24071,0.0,0.0
160,39.75,46.5648,52.3626,129.313,97.6038,55.6988,0.0142648,0.568315,20.3093,27.9045,5.01796,0.0,0.0
170,42.25,49.4375,56.4666,119.77,97.5492,51.0255,0.0190126,0.722622,20.0947,27.4441,5.79686,0.0,0.0
180,44.75,53.3067,61.3316,115.581,97.4966,45.6012,0.025835,0.90562,19.8615,26.8736,6.7974,0.0,0.0
190,47.25,58.2114,67.5506,111.979,97.4669,43.7295,0.0335098,1.12671,19.5511,26.133,7.16959,0.0,0.0
200,49.75,62.5214,74.7793,109.036,97.4748,36.0511,0.0432516,1.36244,19.2583,25.3823,8.89754,0.0,0.0
210,52.25,67.8267,82.0961,99.4372,97.4772,32.7238,0.0546793,1.60142,19.0065,24.3714,9.76399,0.0,0.0
220,54.75,73.1265,89.9105,103.638,97.5275,28.018,0.0710859,1.87257,18.6021,23.3105,11.1574,0.0,0.0
230,57.25,80.1001,99.243,93.5486,97.5654,26.8467,0.099119,2.31337,18.116,21.9893,11.5429,0.0,0.0
240,59.75,88.6844,114.03,76.9809,97.6671,24.4334,0.140859,2.9825,17.4571,20.438,12.3948,0.0,0.0
250,62.25,99.7293,130.961,83.1741,97.7467,22.3272,0.195633,3.8713,16.4725,18.4762,13.2085,0.0,0.0
260,64.75,111.586,152.339,68.2788,97.848,20.3017,0.241678,5.06073,15.3311,16.4945,14.0684,0.0,0.0
270,67.25,126.337,176.3,80.379,97.96,23.1068,0.274852,6.04756,13.9033,14.4127,12.9209,0.0,0.0
280,69.75,138.072,197.219,76.8244,98.0858,27.0986,0.291486,6.80687,13.0398,12.0606,11.5069,0.0,0.0
290,72.25,150.149,218.128,61.7856,98.2279,24.4682,0.300915,7.30613,12.5642,9.91871,12.4333,0.0,0.0
300,74.75,160.439,235.195,54.92,98.3719,26.1162,0.304491,7.41793,12.4426,7.77683,11.8633,0.0,0.0
310,77.25,168.069,247.075,73.0096,98.5338,25.6275,0.297832,7.13204,12.8006,5.74505,12.047,0.0,0.0
320,79.75,175.192,257.085,88.3606,98.6525,21.6643,0.281011,6.75636,13.2744,3.76331,13.5606,0.0,0.0
330,82.25,179.279,261.551,71.148,98.8092,24.3245,0.256381,6.09196,13.928,2.03178,12.5388,0.0,0.0
340,84.75,182.143,263.894,82.7963,98.9081,27.7801,0.219912,5.39794,14.579,0.450396,11.3594,0.0,0.0
350,87.25,182.79,262.067,83.9748,99.0426,28.4971,0.179568,4.61771,15.5288,-0.880774,11.1436,0.0,0.0
360,89.75,181.679,258.567,100.852,99.1289,31.4659,0.139805,3.85529,16.497,-1.97173,10.2649,0.0,0.0
370,92.25,180.116,251.373,102.741,99.2314,41.1783,0.10454,3.09644,17.3469,-2.82248,7.86781,0.0,0.0
380,94.75,175.225,242.836,110.371,99.2805,44.7514,0.0738274,2.37113,18.1887,-3.5331,7.12789,0.0,0.0
390,97.25,169.941,231.631,117.433,99.3382,50.0601,0.0508813,1.70667,18.9465,-4.00352,6.13029,0.0,0.0
400,99.75,162.959,220.687,130.704,99.3565,74.4881,0.0319494,1.16018,19.6239,-4.20369,2.57692,0.0,0.0
410,102.25,156.509,208.944,133.908,99.3766,91.6402,0.0184088,0.727877,20.1656,-4.25374,0.724994,0.0,0.0
420,104.75,149.017,197.032,133.93,99.3466,93.8287,0.0109213,0.449867,20.4691,-4.26374,0.51117,0.0,0.0
430,107.25,142.618,186.714,134.676,99.3343,94.4294,0.00692907,0.299219,20.6386,-4.27375,0.452977,0.0,0.0
440,109.75,136.554,177.429,137.599,99.292,93.5544,0.00489815,0.22551,20.7521,-4.29377,0.53244,0.0,0.0
450,112.25,131.117,168.258,136.068,99.2377,93.6699,0.0040113,0.188561,20.8075,-4.30378,0.516516,0.0,0.0
460,114.75,126.691,160.663,136.284,99.1788,93.8851,0.00347631,0.171904,20.8375,-4.37384,0.490675,0.0,0.0
470,117.25,122.34,153.178,135.82,99.1115,94.3378,0.00332,0.161615,20.8547,-4.36383,0.441569,0.0,0.0
480,119.75,117.561,146.846,138.149,99.0399,94.5333,0.00324579,0.155416,20.8639,-4.35382,0.416586,0.0,0.0
490,122.25,114.468,140.312,135.997,98.9805,93.9191,0.00296314,0.150955,20.87,-4.42389,0.469537,0.0,0.0
500,124.75,110.35,134.889,135.477,98.8947,94.7423,0.002693,0.147985,20.873,-4.43389,0.383705,0.0,0.0
510,127.25,107.257,129.93,137.338,98.8222,94.6272,0.00266306,0.145928,20.8755,-4.45391,0.388028,0.0,0.0
520,129.75,104.072,124.956,133.137,98.7514,92.9796,0.00270578,0.144208,20.875,-4.46392,0.538742,0.0,0.0
530,132.25,101.428,120.466,138.921,98.6885,93.8774,0.00262605,0.142921,20.8741,-4.49395,0.447079,0.0,0.0
540,134.75,98.6421,116.249,133.273,98.6465,92.8525,0.00262732,0.142352,20.875,-4.53398,0.541474,0.0,0.0
550,137.25,96.4659,112.66,136.021,98.5769,94.4425,0.00265834,0.142055,20.8753,-4.53398,0.383267,0.0,0.0
560,139.75,94.4786,108.805,133.375,98.5634,93.6166,0.00259153,0.141441,20.8768,-4.59404,0.46062,0.0,0.0
570,142.25,91.9363,106.105,136.703,98.6707,93.3887,0.00264975,0.140495,20.8775,-4.58403,0.492153,0.0,0.0
580,144.75,90.039,102.942,136.2,98.8056,93.9859,0.00262573,0.139644,20.8777,-4.64408,0.447353,0.0,0.0
590,147.25,88.6234,100.968,139.532,98.8923,95.1275,0.00255684,0.13896,20.8778,-4.63407,0.347198,0.0,0.0
600,149.75,86.5164,97.6478,138.256,98.973,94.6222,0.0024721,0.137972,20.8796,-4.70413,0.40214,0.0,0.0
610,152.25,84.7462,95.4957,134.012,99.0284,94.4124,0.00250115,0.136568,20.8821,-4.67411,0.426999,0.0,0.0
620,154.75,83.0733,92.8505,133.064,99.0553,94.6566,0.00268006,0.135018,20.8825,-4.63407,0.406327,0.0,0.0
630,157.25,81.1192,90.6321,133.569,99.0818,93.9963,0.00270356,0.133406,20.885,-4.65409,0.471331,0.0,0.0
640,159.75,81.2358,89.1174,135.456,99.0644,94.2478,0.00272505,0.131869,20.8879,-4.6641,0.445858,0.0,0.0
650,162.25,80.129,87.541,139.531,99.0423,94.9992,0.00285639,0.129895,20.8915,-4.72415,0.372823,0.0,0.0
660,164.75,78.484,85.2808,135.683,98.9948,94.4248,0.00293736,0.12807,20.8949,-4.74417,0.422789,0.0,0.0
670,167.25,76.907,83.4412,136.708,98.939,94.1176,0.00306106,0.126163,20.8973,-4.77419,0.446888,0.0,0.0
680,169.75,76.3811,82.3358,137.089,98.8341,94.8219,0.00317255,0.124492,20.8994,-4.81423,0.370716,0.0,0.0
690,172.25,75.4185,81.4928,138.721,98.7625,94.4734,0.00318165,0.123109,20.9018,-4.80422,0.397164,0.0,0.0
700,174.75,74.1687,79.5863,137.712,98.6398,94.3139,0.00313664,0.122316,20.9027,-4.80422,0.401166,0.0,0.0
710,177.25,73.6094,78.3609,139.421,98.533,94.9428,0.00316343,0.121756,20.903,-4.83425,0.332019,0.0,0.0
720,179.75,72.8559,77.5999,138.396,98.3822,94.0045,0.00323763,0.121151,20.9032,-4.85426,0.407172,0.0,0.0
730,182.25,71.7673,76.6196,136.73,98.2449,95.2326,0.00313055,0.119925,20.9041,-4.82424,0.27857,0.0,0.0
740,184.75,71.5692,75.568,140.334,98.1954,93.3299,0.00296224,0.118743,20.9062,-4.82424,0.45459,0.0,0.0
750,187.25,70.4567,74.218,138.33,98.2097,94.4294,0.00288712,0.117456,20.9086,-4.87428,0.351124,0.0,0.0
760,189.75,70.0807,73.8157,136.755,98.2386,94.3487,0.00280743,0.115725,20.9095,-4.91432,0.361406,0.0,0.0
770,192.25,69.1544,72.6887,139.215,98.2619,94.4433,0.00278347,0.113864,20.9118,-4.85426,0.354563,0.0,0.0
780,194.75,68.473,71.9107,134.22,98.3042,93.7472,0.00277422,0.112338,20.9142,-4.92432,0.424598,0.0,0.0
790,197.25,67.7002,70.7801,137.103,98.3494,94.0315,0.00282371,0.109827,20.9173,-4.96436,0.401612,0.0,0.0
800,199.75,67.4445,70.8033,138.382,98.3984,94.2926,0.00295094,0.107851,20.9178,-4.95435,0.381265,0.0,0.0
810,202.25,66.8327,69.6991,139.138,98.4305,94.859,0.00281548,0.107171,20.9179,-5.02441,0.330612,0.0,0.0
820,204.75,66.326,68.6144,143.06,98.4886,95.6475,0.00260423,0.107244,20.9176,-5.02441,0.261849,0.0,0.0
830,207.25,66.3587,68.6811,133.627,98.5191,94.8281,0.00255587,0.10752,20.9163,-5.02441,0.341578,0.0,0.0
840,209.75,65.8065,67.9501,133.124,98.5884,94.2042,0.00251041,0.108617,20.9154,-5.03442,0.406913,0.0,0.0
850,212.25,65.0068,68.0647,137.873,98.6204,94.4908,0.0024098,0.109639,20.9133,-5.03442,0.382642,0.0,0.0
860,214.75,65.1264,67.3173,139.359,98.6659,95.0147,,0.11045,,-5.07446,0.337315,0.0,0.0
870,217.25,64.9787,67.0141,133.549,98.6806,95.0865,,,,-5.09447,0.33188,0.0,0.0
880,219.75,64.4474,66.4448,140.54,98.7095,94.8231,,,,-5.11449,0.359318,0.0,0.0
890,222.25,63.9245,65.614,139.782,98.7075,94.3112,,,,-5.10448,0.407558,0.0,0.0
898,224.25,63.7501,65.1094,140.536,98.6996,95.7954,,,,-5.09447,0.267159,0.0,0.0

File: PETG_Cone_HF25Scalar_220215_R3.csv
LABORATORY,FSRI
TEST IDENT,PET-G_HF25_3
OPERATOR,Dow
MATERIAL,PET-G
ORIENTATION,Horizontal
HEAT FLUX,25
SURF AREA,0.01
C FACTOR,0.0393671
SPEC HOLDER DIFF,303.47
SPECIMEN MASS,34.6
SCAN TIME,0.25
O2 DELAY TIME,11
CO DELAY TIME,11
CO2 DELAY TIME,8
FLOW FACTOR,1
SCAN COUNT,1997
TIME TO IGN,250
END OF TEST SCAN,1517
END OF TEST TIME,379.25
TEST STATUS,1
PRE TEST CMT,Dimensions: 99.25 x 99.02 x 2.58 mm
POST TEST CMT,Sample warped near the end of the test with corners rising up.