Folder: fsri_materials_database/01_Data/PETG/MCC (part 2)

File: PETG_MCC_30K_min_210927_R3.txt
Sample ID:	C:\MCC\MCC Cal\Test\PETG_MCC_30K_min_210927_R3.txt
Sample Weight (mg):	4.56
Heating Rate (C/s):	0.5
Combustor Temp (C):	900
N2 Flow Rate (cc/min):	80
O2 Flow Rate (cc/min):	20
Calibration File:	C:\MCC\MCC Cal\Coeff1 JN10440_30_210304.txt.txt
T Correction Coefficients:	0	1.024463	0
Time Shift (s):	14
*
Time (s)	Temperature (C)	N2 flow rate (cc/min)	O2 flow rate (cc/min)	Flow Rate (cc/min)	Oxygen (%)	HRR (W/g)	Heating rate (C/s)
0.000	107.369	80.000	19.996	99.982	20.151	-0.075	0.000
8.000	107.376	80.002	19.995	99.983	20.150	-0.024	0.012
16.000	107.321	80.000	19.997	100.011	20.151	-0.052	-0.020
24.000	107.471	80.000	19.996	100.085	20.137	0.902	0.022
32.000	108.017	79.998	19.995	100.150	20.120	2.051	0.091
40.000	108.946	79.999	19.995	100.182	20.113	2.504	0.151
48.000	110.351	79.998	19.994	100.198	20.113	2.505	0.198
56.000	112.128	79.998	19.996	100.207	20.110	2.721	0.234
64.000	114.308	80.001	19.995	100.221	20.104	3.116	0.306
72.000	116.661	80.001	19.997	100.219	20.105	3.099	0.326
80.000	119.339	79.999	19.997	100.222	20.104	3.158	0.336
88.001	122.221	80.001	19.996	100.235	20.103	3.182	0.388
96.000	125.365	80.001	19.994	100.230	20.097	3.605	0.391
104.000	128.590	79.998	19.996	100.236	20.099	3.510	0.435
112.000	132.019	80.000	19.997	100.226	20.103	3.242	0.410
120.000	135.490	79.999	19.995	100.219	20.100	3.413	0.441
128.000	139.150	79.999	19.995	100.228	20.101	3.361	0.472
136.000	142.852	80.000	19.995	100.230	20.100	3.448	0.475
144.000	146.683	79.999	19.995	100.243	20.100	3.442	0.485
152.000	150.585	80.000	19.994	100.217	20.098	3.526	0.492
160.000	154.484	79.999	19.994	100.224	20.102	3.266	0.457
168.000	158.544	80.000	19.994	100.222	20.100	3.402	0.530
176.000	162.563	80.000	19.997	100.217	20.101	3.377	0.513
184.000	166.621	80.000	19.996	100.214	20.102	3.253	0.523
192.000	170.669	80.000	19.996	100.199	20.101	3.353	0.509
200.000	174.676	79.998	19.996	100.188	20.105	3.104	0.524
208.000	178.686	79.998	19.996	100.191	20.104	3.173	0.510
216.000	182.706	80.000	19.995	100.191	20.110	2.733	0.496
224.000	186.720	79.998	19.995	100.183	20.108	2.870	0.503
232.000	190.694	79.999	19.995	100.182	20.106	2.982	0.478
240.000	194.669	80.001	19.995	100.179	20.110	2.697	0.477
248.000	198.571	80.001	19.996	100.167	20.111	2.643	0.498
256.000	202.444	80.003	19.996	100.175	20.107	2.903	0.474
264.000	206.338	79.997	19.996	100.153	20.110	2.714	0.503
272.000	210.230	79.999	19.996	100.176	20.111	2.630	0.508
280.000	214.116	79.999	19.995	100.164	20.110	2.738	0.472
288.000	218.043	80.000	19.995	100.170	20.112	2.618	0.488
296.000	221.937	79.997	19.996	100.168	20.110	2.757	0.509
304.000	225.915	80.000	19.996	100.153	20.108	2.843	0.496
312.000	229.915	80.002	19.995	100.164	20.110	2.742	0.494
320.000	233.957	79.999	19.996	100.157	20.109	2.785	0.480
328.000	238.015	80.002	19.995	100.154	20.113	2.526	0.507
336.000	242.007	80.002	19.995	100.149	20.111	2.627	0.516
344.000	246.013	80.001	19.995	100.138	20.113	2.513	0.489
352.000	250.070	79.999	19.995	100.141	20.113	2.513	0.524
360.000	254.090	79.999	19.996	100.141	20.113	2.498	0.487
368.000	258.037	79.999	19.995	100.147	20.113	2.525	0.503
376.000	261.999	80.000	19.996	100.155	20.111	2.676	0.508
384.000	265.979	79.999	19.996	100.140	20.115	2.377	0.511
392.000	269.909	80.002	19.996	100.138	20.116	2.349	0.487
400.000	273.945	80.002	19.994	100.140	20.115	2.397	0.496
408.000	277.859	80.001	19.994	100.145	20.113	2.506	0.460
416.000	281.844	80.002	19.994	100.141	20.113	2.526	0.519
424.000	285.839	79.999	19.994	100.132	20.113	2.502	0.486
432.000	289.825	80.000	19.993	100.137	20.114	2.472	0.528
440.000	293.896	80.001	19.994	100.134	20.114	2.421	0.487
448.000	297.891	80.001	19.996	100.132	20.115	2.388	0.484
456.000	301.904	79.999	19.996	100.136	20.112	2.604	0.488
464.000	305.984	80.000	19.995	100.137	20.114	2.460	0.523
472.000	310.031	80.000	19.995	100.118	20.116	2.301	0.511
480.000	314.143	80.001	19.996	100.113	20.110	2.754	0.527
488.000	318.228	80.000	19.996	100.125	20.115	2.387	0.482
496.000	322.237	80.002	19.994	100.103	20.112	2.591	0.544
504.000	326.268	80.001	19.994	100.121	20.112	2.608	0.513
512.000	330.370	80.000	19.995	100.113	20.113	2.501	0.472
520.000	334.348	79.999	19.994	100.108	20.114	2.454	0.436
528.000	338.470	80.000	19.996	100.109	20.110	2.757	0.499
536.000	342.596	79.999	19.994	100.113	20.111	2.688	0.528
544.000	346.650	79.999	19.996	100.109	20.108	2.894	0.487
552.000	350.761	79.999	19.995	100.106	20.108	2.862	0.494
560.000	354.892	80.002	19.996	100.102	20.110	2.718	0.530
568.000	359.015	80.000	19.995	100.102	20.111	2.654	0.513
576.000	363.081	80.001	19.996	100.103	20.107	2.946	0.521
584.000	367.153	80.002	19.996	100.101	20.104	3.131	0.470
592.000	371.207	79.999	19.995	100.103	20.097	3.619	0.487
600.000	375.323	79.999	19.995	100.113	20.087	4.305	0.527
608.000	379.453	79.998	19.994	100.113	20.072	5.310	0.500
616.000	383.560	79.998	19.996	100.131	20.054	6.575	0.529
624.000	387.732	80.000	19.996	100.128	20.042	7.411	0.556
632.000	391.906	79.999	19.995	100.143	20.003	10.074	0.537
640.000	396.065	80.001	19.995	100.144	19.963	12.810	0.489
648.000	400.139	80.000	19.995	100.170	19.913	16.217	0.492
656.000	404.217	80.000	19.995	100.198	19.840	21.275	0.483
664.000	408.277	80.001	19.995	100.225	19.743	27.915	0.525
672.000	412.306	79.999	19.996	100.267	19.617	36.563	0.499
680.000	416.287	79.999	19.996	100.310	19.479	46.055	0.540
688.000	420.231	80.000	19.995	100.377	19.311	57.634	0.515
696.000	424.211	80.001	19.996	100.421	19.129	70.231	0.493
704.000	428.173	79.999	19.995	100.491	18.903	85.854	0.506
712.000	432.104	80.000	19.995	100.592	18.646	103.629	0.454
720.000	436.127	80.001	19.995	100.672	18.359	123.575	0.480
728.000	440.050	79.999	19.995	100.808	18.018	147.174	0.507
736.000	444.008	79.999	19.995	100.905	17.708	168.750	0.505
744.000	448.004	80.001	19.994	101.008	17.498	183.312	0.494
752.000	452.091	79.999	19.995	100.979	17.434	187.651	0.504
760.000	456.118	79.999	19.996	101.002	17.470	184.984	0.504
768.000	460.237	80.000	19.996	100.930	17.631	173.548	0.508
776.000	464.267	80.002	19.996	100.779	18.017	146.693	0.514
784.000	468.238	79.999	19.995	100.586	18.548	110.021	0.502
792.000	472.285	79.999	19.995	100.429	19.154	68.326	0.522
800.000	476.455	80.002	19.996	100.312	19.566	40.052	0.531
808.000	480.582	80.000	19.995	100.196	19.785	25.029	0.511
816.000	484.653	79.999	19.995	100.185	19.903	16.890	0.503
824.000	488.747	80.003	19.995	100.142	19.972	12.180	0.480
832.000	492.844	80.001	19.994	100.140	20.017	9.119	0.519
840.000	496.955	79.998	19.994	100.117	20.038	7.641	0.494
848.000	500.985	80.000	19.995	100.114	20.055	6.526	0.519
856.000	505.046	79.999	19.996	100.105	20.064	5.887	0.508
864.000	509.146	79.999	19.996	100.112	20.066	5.709	0.532
872.000	513.192	80.000	19.996	100.110	20.069	5.516	0.519
880.000	517.348	80.000	19.995	100.105	20.074	5.172	0.548
888.000	521.505	80.001	19.994	100.097	20.079	4.839	0.520
896.000	525.696	80.000	19.997	100.102	20.081	4.714	0.506
904.000	529.802	80.003	19.994	100.101	20.082	4.652	0.483
912.000	533.953	80.002	19.994	100.095	20.083	4.549	0.497
920.000	538.038	79.999	19.997	100.089	20.081	4.736	0.500
928.000	542.187	79.999	19.996	100.104	20.081	4.685	0.516
936.000	546.206	80.000	19.995	100.076	20.078	4.949	0.504
944.000	550.305	79.997	19.995	100.072	20.079	4.870	0.523
952.000	554.370	79.997	19.995	100.087	20.078	4.932	0.507
960.000	558.442	79.999	19.995	100.066	20.078	4.930	0.480
968.000	562.533	80.002	19.994	100.075	20.080	4.774	0.495
976.000	566.596	79.999	19.996	100.072	20.074	5.173	0.507
984.000	570.656	80.001	19.995	100.084	20.073	5.233	0.515
992.000	574.721	80.001	19.995	100.082	20.070	5.490	0.534
1000.000	578.778	79.999	19.994	100.072	20.073	5.242	0.527
1008.000	582.763	79.998	19.995	100.094	20.071	5.413	0.473
1016.000	586.785	80.000	19.995	100.083	20.063	5.948	0.522
1024.000	590.918	80.000	19.995	100.072	20.060	6.162	0.470
1032.000	595.076	79.998	19.995	100.068	20.064	5.911	0.507
1040.000	599.235	79.999	19.998	100.087	20.058	6.260	0.535
1048.000	603.316	79.998	19.995	100.076	20.061	6.096	0.537
1056.000	607.446	79.999	19.995	100.083	20.060	6.163	0.518
1064.000	611.556	80.000	19.995	100.075	20.059	6.223	0.529
1072.000	615.660	80.002	19.996	100.079	20.061	6.094	0.520
1080.000	619.764	80.002	19.996	100.073	20.057	6.370	0.516
1088.000	623.816	80.000	19.994	100.071	20.057	6.342	0.482
1096.000	627.903	80.000	19.995	100.064	20.056	6.393	0.515
1104.000	632.010	80.000	19.994	100.071	20.055	6.460	0.515
1112.000	636.124	80.000	19.996	100.065	20.055	6.488	0.500
1120.000	640.129	79.999	19.993	100.067	20.057	6.380	0.496
1128.000	644.198	79.997	19.995	100.065	20.054	6.580	0.510
1136.000	648.265	79.999	19.996	100.064	20.052	6.676	0.496
1144.000	652.333	80.001	19.995	100.064	20.057	6.325	0.515
1152.000	656.479	80.004	19.993	100.063	20.057	6.388	0.545
1160.000	660.607	80.001	19.994	100.062	20.056	6.404	0.545
1168.000	664.630	80.002	19.996	100.073	20.054	6.538	0.510
1176.000	668.717	79.999	19.995	100.067	20.056	6.447	0.501
1184.000	672.779	79.999	19.993	100.065	20.061	6.086	0.498
1192.000	676.846	79.999	19.994	100.072	20.061	6.105	0.511
1200.000	680.930	79.999	19.996	100.069	20.056	6.454	0.521
1208.000	685.050	80.001	19.996	100.072	20.051	6.747	0.505
1216.000	689.156	80.002	19.994	100.069	20.057	6.361	0.475
1224.000	693.361	80.001	19.996	100.076	20.056	6.447	0.505
1232.000	697.486	79.999	19.995	100.063	20.051	6.796	0.511
1240.000	701.605	80.001	19.994	100.072	20.054	6.570	0.490
1248.000	705.673	80.000	19.995	100.072	20.051	6.741	0.498
1256.000	709.747	79.999	19.996	100.069	20.051	6.770	0.521
1264.000	713.782	79.999	19.994	100.067	20.052	6.711	0.503
1272.000	717.846	80.000	19.995	100.069	20.044	7.268	0.504
1280.001	721.901	79.998	19.994	100.074	20.051	6.783	0.494
1288.000	725.943	80.002	19.997	100.062	20.049	6.884	0.499
1296.000	729.919	80.002	19.995	100.065	20.052	6.684	0.512
1304.000	733.907	80.001	19.994	100.071	20.048	6.951	0.524
1312.000	737.878	80.002	19.993	100.066	20.047	7.047	0.484
1320.000	741.901	80.002	19.995	100.063	20.040	7.543	0.493
1323.500	743.658	80.001	19.995	100.076	20.040	7.501	0.496