Folder: fsri_materials_database/01_Data/TREX_Board/MCC

Note: 01_Data/README.md
# Materials and Products Database
## 01_Data

Raw data generated from each apparatus are included here in plain-text format. The data is organized first by material, next by the short name of test apparatus used, and where applicable additional filtering by test settings.

### material.json

Each material directory contains a json file of the same name as the material. This file links the data stored in the repository as well as data and graphs produced by the accompanying scripts (__02_Scripts__) to the respective landing page for the material on the front-end website.

File: TREX_Board_30K_min_210609_R1.txt
Sample ID:	C:\MCC\MCC Cal\Test\TREX_Board\TREX_Board_30_1.txt
Sample Weight (mg):	4.91
Heating Rate (C/s):	0.5
Combustor Temp (C):	900
N2 Flow Rate (cc/min):	80
O2 Flow Rate (cc/min):	20
Calibration File:	C:\MCC\MCC Cal\Coeff1 JN10440_30_210304.txt.txt
T Correction Coefficients:	0	1.024463	0
Time Shift (s):	14
*
Time (s)	Temperature (C)	N2 flow rate (cc/min)	O2 flow rate (cc/min)	Flow Rate (cc/min)	Oxygen (%)	HRR (W/g)	Heating rate (C/s)
0.000	107.836	79.981	19.992	99.901	20.105	0.183	-0.006
8.000	107.868	79.982	19.993	99.912	20.108	-0.002	0.012
16.000	107.801	79.980	19.991	99.918	20.106	0.117	-0.015
24.000	107.857	79.980	19.992	99.973	20.097	0.702	0.023
32.000	108.225	79.982	19.992	100.052	20.078	1.890	0.080
39.999	109.009	79.983	19.993	100.070	20.074	2.158	0.116
47.999	110.164	79.982	19.993	100.106	20.066	2.652	0.144
55.999	111.721	79.984	19.994	100.107	20.065	2.699	0.219
63.999	113.683	79.982	19.992	100.109	20.065	2.749	0.240
71.999	115.824	79.982	19.992	100.113	20.066	2.646	0.275
79.999	118.267	79.981	19.993	100.110	20.063	2.822	0.328
87.999	120.823	79.982	19.993	100.115	20.065	2.718	0.318
95.999	123.586	79.982	19.993	100.115	20.061	2.949	0.341
103.999	126.485	79.982	19.992	100.119	20.062	2.902	0.362
111.999	129.536	79.982	19.992	100.138	20.061	2.968	0.382
119.999	132.749	79.982	19.992	100.145	20.060	3.042	0.406
127.999	136.121	79.983	19.992	100.148	20.055	3.355	0.407
136.000	139.642	79.982	19.993	100.149	20.055	3.358	0.455
144.000	143.286	79.982	19.993	100.147	20.057	3.211	0.457
152.000	147.005	79.981	19.993	100.152	20.057	3.239	0.450
160.000	150.924	79.981	19.993	100.149	20.055	3.375	0.466
168.000	154.860	79.980	19.992	100.146	20.055	3.367	0.509
176.000	158.878	79.980	19.993	100.147	20.057	3.261	0.510
184.000	162.910	79.982	19.993	100.142	20.055	3.328	0.510
192.000	167.018	79.983	19.992	100.116	20.057	3.248	0.494
200.000	171.141	79.983	19.992	100.117	20.058	3.181	0.529
208.000	175.184	79.982	19.992	100.114	20.055	3.334	0.519
216.000	179.219	79.984	19.992	100.110	20.054	3.405	0.476
224.000	183.195	79.981	19.992	100.104	20.059	3.089	0.522
232.000	187.168	79.980	19.994	100.103	20.055	3.334	0.483
240.000	191.123	79.981	19.991	100.092	20.053	3.486	0.508
248.000	195.035	79.982	19.991	100.095	20.055	3.327	0.519
256.000	198.908	79.979	19.991	100.097	20.053	3.481	0.491
264.000	202.743	79.980	19.992	100.099	20.050	3.667	0.485
272.000	206.653	79.983	19.991	100.086	20.048	3.793	0.498
280.000	210.580	79.981	19.991	100.095	20.050	3.684	0.490
288.000	214.434	79.983	19.992	100.102	20.044	4.071	0.486
296.000	218.336	79.982	19.992	100.090	20.043	4.125	0.490
304.000	222.296	79.984	19.991	100.087	20.035	4.603	0.434
312.000	226.231	79.980	19.992	100.099	20.029	5.022	0.469
320.000	230.280	79.980	19.994	100.097	20.019	5.620	0.529
328.000	234.265	79.981	19.992	100.100	20.012	6.083	0.501
336.000	238.326	79.980	19.992	100.101	20.001	6.777	0.501
344.000	242.313	79.980	19.992	100.096	19.988	7.601	0.479
352.000	246.365	79.983	19.992	100.100	19.976	8.404	0.519
360.000	250.408	79.981	19.992	100.105	19.961	9.364	0.521
368.000	254.455	79.982	19.992	100.108	19.939	10.725	0.512
376.000	258.459	79.983	19.993	100.107	19.924	11.716	0.493
384.000	262.397	79.980	19.993	100.108	19.896	13.473	0.495
392.000	266.473	79.980	19.992	100.119	19.875	14.806	0.508
400.000	270.405	79.979	19.992	100.121	19.855	16.104	0.540
408.000	274.389	79.981	19.994	100.122	19.829	17.766	0.522
416.000	278.388	79.980	19.992	100.067	19.809	19.002	0.535
424.000	282.264	79.981	19.993	100.143	19.796	19.817	0.495
432.000	286.238	79.983	19.993	100.130	19.781	20.812	0.507
440.000	290.189	79.982	19.992	100.142	19.766	21.727	0.450
448.000	294.215	79.981	19.992	100.145	19.760	22.164	0.485
456.000	298.183	79.981	19.991	100.090	19.755	22.464	0.468
464.000	302.196	79.982	19.992	100.141	19.746	23.042	0.510
472.000	306.281	79.982	19.994	100.137	19.736	23.648	0.492
480.000	310.324	79.982	19.993	100.144	19.722	24.561	0.507
488.000	314.395	79.981	19.993	100.146	19.713	25.146	0.505
496.000	318.481	79.980	19.994	100.151	19.700	25.956	0.531
504.000	322.497	79.981	19.993	100.151	19.684	26.975	0.513
512.000	326.532	79.981	19.991	100.151	19.653	28.966	0.494
520.000	330.619	79.981	19.991	100.190	19.631	30.349	0.491
528.000	334.668	79.982	19.992	100.185	19.594	32.686	0.501
536.000	338.648	79.984	19.993	100.191	19.552	35.411	0.519
544.000	342.618	79.982	19.992	100.206	19.515	37.739	0.509
552.000	346.765	79.983	19.993	100.212	19.473	40.414	0.731
560.000	350.465	79.982	19.993	100.224	19.431	43.113	0.563
568.000	354.724	79.980	19.993	100.222	19.408	44.579	0.505
576.000	358.696	79.979	19.991	100.212	19.409	44.487	0.469
584.000	362.715	79.981	19.993	100.188	19.439	42.546	0.475
592.000	366.658	79.983	19.992	100.149	19.499	38.707	0.489
600.000	370.633	79.982	19.993	100.106	19.593	32.714	0.451
608.000	374.656	79.983	19.993	100.070	19.699	25.961	0.483
616.000	378.644	79.985	19.993	100.053	19.797	19.743	0.480
624.000	382.670	79.983	19.991	100.029	19.875	14.783	0.507
632.000	386.652	79.981	19.992	100.033	19.930	11.322	0.491
640.000	390.752	79.983	19.994	100.030	19.956	9.659	0.522
648.000	394.840	79.981	19.992	100.018	19.965	9.045	0.535
656.000	398.923	79.981	19.993	100.023	19.963	9.176	0.497
664.000	402.998	79.981	19.993	100.010	19.951	9.964	0.505
672.000	407.025	79.981	19.993	100.007	19.930	11.286	0.496
680.000	411.047	79.983	19.993	99.992	19.895	13.489	0.455
688.000	415.015	79.983	19.992	100.004	19.861	15.693	0.483
696.000	419.110	79.982	19.991	99.993	19.812	18.795	0.528
704.000	423.088	79.982	19.993	99.990	19.745	23.080	0.479
712.000	427.174	79.980	19.991	99.992	19.660	28.465	0.503
720.000	431.187	79.982	19.993	99.985	19.548	35.525	0.511
728.000	435.259	79.982	19.993	99.953	19.408	44.408	0.495
736.000	439.358	79.982	19.993	99.951	19.240	55.067	0.519
744.000	443.367	79.982	19.993	99.928	19.030	68.424	0.508
752.000	447.382	79.984	19.993	99.906	18.777	84.429	0.488
760.000	451.501	79.981	19.992	99.876	18.473	103.672	0.499
768.000	455.598	79.984	19.992	99.836	18.136	125.000	0.520
776.000	459.717	79.983	19.991	99.794	17.763	148.588	0.512
784.000	463.881	79.983	19.992	99.726	17.388	172.147	0.511
792.000	467.994	79.981	19.991	99.656	17.058	192.914	0.537
800.000	472.124	79.982	19.991	99.580	16.857	205.587	0.529
808.000	476.276	79.981	19.992	99.541	16.869	204.843	0.517
816.000	480.378	79.982	19.993	99.517	17.160	186.569	0.538
824.000	484.501	79.982	19.993	99.558	17.713	151.687	0.530
832.000	488.570	79.983	19.992	99.641	18.396	108.554	0.489
840.000	492.681	79.982	19.992	99.753	19.024	68.791	0.528
848.000	496.815	79.983	19.994	99.846	19.497	38.814	0.504
856.000	500.861	79.986	19.992	99.922	19.800	19.549	0.503
864.000	504.946	79.983	19.992	99.955	19.959	9.474	0.547
872.000	508.996	79.983	19.992	99.974	20.026	5.181	0.491
880.000	513.013	79.983	19.992	99.992	20.049	3.758	0.514
888.000	517.065	79.982	19.992	99.992	20.050	3.650	0.495
896.000	521.093	79.982	19.992	99.995	20.052	3.543	0.532
904.000	525.117	79.982	19.993	99.998	20.056	3.303	0.472
912.000	529.167	79.983	19.992	99.989	20.053	3.482	0.512
920.000	533.209	79.982	19.992	99.984	20.057	3.224	0.488
928.000	537.338	79.985	19.992	99.991	20.052	3.543	0.518
936.000	541.371	79.984	19.993	99.988	20.052	3.541	0.493
944.000	545.506	79.982	19.991	99.989	20.061	2.998	0.525
952.000	549.527	79.984	19.992	99.995	20.055	3.348	0.479
960.000	553.671	79.983	19.992	99.995	20.058	3.191	0.510
968.000	557.822	79.982	19.993	99.996	20.055	3.370	0.505
976.000	562.001	79.983	19.992	99.992	20.053	3.474	0.539
984.000	566.127	79.983	19.993	99.993	20.060	3.063	0.522
992.000	570.286	79.983	19.992	99.990	20.060	3.032	0.563
1000.000	574.478	79.983	19.993	99.987	20.055	3.346	0.528
1008.000	578.546	79.983	19.993	99.992	20.063	2.839	0.472
1016.000	582.686	79.985	19.993	99.986	20.062	2.880	0.498
1024.000	586.792	79.982	19.993	99.991	20.061	2.943	0.500
1031.999	590.885	79.984	19.992	100.000	20.061	2.986	0.505
1040.000	595.083	79.983	19.991	99.991	20.064	2.777	0.539
1048.000	599.165	79.982	19.992	99.990	20.063	2.834	0.478
1055.999	603.168	79.982	19.992	99.989	20.064	2.813	0.480
1063.999	607.194	79.984	19.993	99.974	20.069	2.451	0.489
1072.000	611.237	79.984	19.991	99.993	20.064	2.775	0.529
1079.999	615.325	79.982	19.993	99.990	20.068	2.541	0.511
1087.999	619.309	79.984	19.993	99.991	20.062	2.927	0.507
1095.999	623.303	79.986	19.992	99.985	20.067	2.570	0.492
1103.999	627.282	79.981	19.993	99.987	20.068	2.535	0.491
1111.999	631.334	79.982	19.994	99.990	20.068	2.532	0.524
1119.999	635.410	79.984	19.993	99.989	20.067	2.565	0.530
1127.999	639.488	79.984	19.993	99.988	20.061	2.991	0.515
1135.999	643.551	79.983	19.993	99.993	20.067	2.611	0.478
1143.999	647.653	79.983	19.992	99.985	20.062	2.939	0.547
1151.999	651.866	79.984	19.991	99.989	20.065	2.744	0.502
1159.999	656.027	79.984	19.993	99.985	20.070	2.373	0.516
1167.999	660.102	79.984	19.992	99.987	20.067	2.587	0.521
1175.999	664.211	79.985	19.992	99.971	20.066	2.626	0.492
1183.999	668.263	79.982	19.993	99.979	20.065	2.709	0.517
1192.000	672.246	79.983	19.994	99.981	20.066	2.658	0.515
1200.001	676.288	79.982	19.993	99.978	20.064	2.811	0.511
1207.999	680.330	79.981	19.993	99.978	20.068	2.499	0.487
1216.000	684.425	79.979	19.992	99.994	20.065	2.711	0.513
1223.999	688.541	79.983	19.992	99.995	20.069	2.452	0.521
1231.999	692.634	79.984	19.992	99.978	20.069	2.440	0.542
1239.999	696.742	79.985	19.993	99.983	20.066	2.661	0.514
1247.999	700.761	79.985	19.992	99.975	20.070	2.399	0.512
1255.999	704.739	79.984	19.993	99.985	20.069	2.463	0.490
1263.999	708.770	79.985	19.993	99.990	20.067	2.569	0.494
1271.999	712.810	79.982	19.992	99.984	20.065	2.721	0.533
1279.999	716.838	79.983	19.992	99.965	20.069	2.461	0.513
1287.999	720.959	79.981	19.994	99.984	20.066	2.632	0.502
1295.999	725.060	79.983	19.992	99.966	20.070	2.414	0.511
1303.999	729.215	79.984	19.993	99.987	20.069	2.447	0.513
1311.999	733.306	79.984	19.992	99.972	20.071	2.362	0.530
1319.999	737.340	79.983	19.992	99.968	20.071	2.359	0.532
1328.000	741.393	79.985	19.993	99.967	20.073	2.214	0.520
1332.500	743.613	79.984	19.992	99.968	20.069	2.466	0.465