Folder: fsri_materials_database/01_Data/PVC/Cone (part 2)

File: PVC_Cone_HF25Scan_220218_R3.csv
Names,Time,Stack TC,Smoke TC,Exh Press,Smoke Comp,Smoke Meas,CO Meter,CO2 Meter,O2 Meter,Sample Mass,Ext Coeff,Start Test,Flame Verif
Chan Gain,,500,500,1,1,1,1,1,1,1,1,1.0,1.0
Offset,,0,0,0.132436,0,0,0,0,0,0,0,0.0,0.0
Gain,,1,1,25.011,15.4219,15.1528,1,1,1,1.00089,1.02113,1.0,1.0
Units,sec,C,C,Pa,%,%,%,%,%,g,/m,,
Baseline,,23.1981,24.3825,162.565,115.519,115.855,-0.00877037,0.0516708,20.9817,-479.564,-0.0260204,,
18,4.25,21.9495,22.5128,166.794,116.225,116.615,-0.00859542,0.0518198,20.9842,436.336,-0.030052,0.0,0.0
36,8.75,21.8949,23.106,161.434,116.299,116.799,-0.00854597,0.0512975,20.9858,436.376,-0.0384136,0.0,0.0
54,13.25,21.6193,22.9487,167.982,116.384,116.782,-0.00862944,0.0509851,20.9865,436.346,-0.0305073,0.0,0.0
72,17.75,21.8123,23.0158,164.23,116.453,116.981,-0.00859518,0.0506934,20.9851,436.406,-0.0405297,0.0,0.0
90,22.25,21.7908,23.1715,162.982,116.539,117.178,-0.00843733,0.0504004,20.9868,436.487,-0.049015,0.0,0.0
108,26.75,22.0467,22.7977,159.495,116.596,116.843,-0.00878276,0.0505437,20.9852,436.406,-0.0189738,0.0,0.0
126,31.25,21.2873,22.6107,165.3,116.665,116.734,-0.00899236,0.0506444,20.9862,436.397,-0.00529031,0.0,0.0
144,35.75,21.5705,22.261,162.834,116.718,117.042,-0.00880889,0.0504275,20.9871,436.427,-0.024845,0.0,0.0
162,40.25,21.9386,23.3902,163.107,116.744,117.184,-0.00890893,0.050482,20.9872,436.386,-0.033645,0.0,0.0
180,44.75,22.1057,23.4512,162.264,116.784,117.22,-0.00867394,0.0505224,20.9851,436.306,-0.0333685,0.0,0.0
198,49.25,22.2985,23.134,167.844,116.766,117.249,-0.00882381,0.0504551,20.9844,436.417,-0.0370374,0.0,0.0
216,53.75,21.8352,23.4897,163.281,116.799,117.339,-0.00885449,0.0506555,20.9832,436.276,-0.0413621,0.0,0.0
234,58.25,22.5186,23.3918,165.561,116.816,117.229,-0.00875025,0.0505922,20.9831,436.406,-0.0315863,0.0,0.0
252,62.75,22.4059,23.4546,162.629,116.833,116.995,-0.00863277,0.0506748,20.9831,436.286,-0.0124259,0.0,0.0
270,67.25,22.3859,23.362,163.939,116.872,116.991,-0.00878037,0.0509109,20.9825,436.406,-0.00914919,0.0,0.0
288,71.75,22.3331,23.4877,163.417,116.872,116.728,-0.00879435,0.0510254,20.982,436.316,0.0110192,0.0,0.0
306,76.25,22.2739,23.6403,158.895,116.897,116.586,-0.00890495,0.0508814,20.9803,436.326,0.0238674,0.0,0.0
324,80.75,22.331,23.7382,161.416,116.897,116.283,-0.00889423,0.0511226,20.9808,436.266,0.0471689,0.0,0.0
342,85.25,22.232,23.3124,162.286,116.915,115.195,-0.00860203,0.0521526,20.9793,436.206,0.13275,0.0,0.0
360,89.75,22.7081,23.3904,163.811,116.904,113.978,-0.00863667,0.053107,20.9823,436.176,0.227026,0.0,0.0
378,94.25,22.6449,24.1317,160.201,116.891,113.463,-0.00867002,0.0534498,20.9833,435.996,0.266628,0.0,0.0
396,98.75,22.9912,23.9865,159.337,116.877,113.575,-0.00857129,0.0535797,20.9835,435.906,0.256679,0.0,0.0
414,103.25,22.779,24.3157,165.035,116.849,113.667,-0.00844622,0.0536068,20.9819,435.616,0.247333,0.0,0.0
432,107.75,23.2326,24.7897,166.099,116.857,114.054,-0.00821741,0.0538689,20.9813,435.466,0.217497,0.0,0.0
450,112.25,23.125,24.9134,164.3,116.811,113.101,-0.00804832,0.054474,20.9787,435.145,0.289124,0.0,0.0
468,116.75,23.6819,25.0285,158.5,116.812,111.305,-0.00779666,0.0552738,20.9782,434.985,0.432583,0.0,0.0
486,121.25,23.143,24.8544,161.834,116.806,111.881,-0.00767528,0.0558263,20.9782,434.735,0.385864,0.0,0.0
504,125.75,23.3705,24.8062,160.482,116.816,110.874,-0.00791689,0.0559716,20.9779,434.565,0.467619,0.0,0.0
522,130.25,23.6454,25.519,157.796,116.816,110.85,-0.00823235,0.0557795,20.9774,434.285,0.469564,0.0,0.0
540,134.75,23.8169,25.5257,163.631,116.832,110.635,-0.00835158,0.0564013,20.9772,434.014,0.488219,0.0,0.0
558,139.25,23.5687,25.447,159.257,116.845,111.14,-0.00820724,0.058417,20.9749,433.784,0.448365,0.0,0.0
576,143.75,23.9164,25.7971,160.606,116.865,110.977,-0.00825182,0.0586304,20.9748,433.564,0.463046,0.0,0.0
594,148.25,24.0013,25.4683,166.492,116.896,110.603,-0.00809107,0.0585222,20.9751,433.264,0.495635,0.0,0.0
612,152.75,24.2743,25.534,160.971,116.91,111.772,-0.0079269,0.0597871,20.972,433.084,0.40254,0.0,0.0
630,157.25,24.4641,26.1839,160.735,116.919,110.951,-0.00806104,0.0607332,20.972,432.933,0.469284,0.0,0.0
648,161.75,24.3187,25.8155,158.368,116.914,110.992,-0.00768683,0.0608752,20.9732,432.653,0.465565,0.0,0.0
666,166.25,24.3262,25.9694,165.887,116.907,111.108,-0.00774795,0.0616545,20.9733,432.443,0.4557,0.0,0.0
684,170.75,24.21,25.8607,162.226,116.848,110.389,-0.00759349,0.0605023,20.9737,432.203,0.509385,0.0,0.0
702,175.25,24.6574,26.0706,164.924,116.772,112.727,-0.00755741,0.0583668,20.9761,431.983,0.315805,0.0,0.0
720,179.75,24.9669,26.2697,161.399,116.673,110.745,-0.00752628,0.0560774,20.978,431.782,0.467071,0.0,0.0
738,184.25,24.5674,26.1316,164.138,116.509,110.978,-0.00745824,0.0556125,20.9779,431.672,0.43566,0.0,0.0
756,188.75,24.9707,26.5344,161.505,116.301,111.167,-0.00773922,0.0563282,20.9766,431.482,0.404401,0.0,0.0
774,193.25,24.5693,26.3039,162.524,116.015,109.633,-0.00795354,0.0569097,20.9764,431.292,0.506787,0.0,0.0
792,197.75,24.9141,27.0118,163.042,115.696,109.906,-0.00791429,0.0560961,20.9783,431.112,0.459852,0.0,0.0
810,202.25,25.1953,26.4692,161.551,115.355,109.629,-0.00807844,0.0548964,20.9793,430.922,0.456037,0.0,0.0
828,206.75,25.1727,26.8944,161.684,114.995,108.516,-0.00771259,0.0560942,20.978,430.751,0.519482,0.0,0.0
846,211.25,24.7553,26.5033,159.787,114.725,109.885,-0.00768902,0.0602129,20.9713,430.641,0.386136,0.0,0.0
864,215.75,24.8672,26.7297,159.383,114.483,108.775,-0.00768311,0.063016,20.9672,430.451,0.45812,0.0,0.0
882,220.25,24.7782,26.8865,159.619,114.418,110.624,-0.00803773,0.0599728,20.9723,430.301,0.302037,0.0,0.0
900,224.75,24.7962,26.9106,156.254,114.473,109.953,-0.00825439,0.0572851,20.9749,430.131,0.360842,0.0,0.0
918,229.25,24.6757,26.828,162.723,114.736,110.866,-0.00810608,0.0558205,20.9774,429.951,0.307347,0.0,0.0
936,233.75,24.9653,26.7447,163.211,115.047,110.113,-0.00796107,0.0556848,20.9794,429.751,0.39267,0.0,0.0
954,238.25,25.3187,26.6422,159.782,115.416,109.19,-0.00807089,0.0545395,20.982,429.661,0.496751,0.0,0.0
972,242.75,25.0517,27.0962,160.187,115.759,111.474,-0.0081374,0.0536753,20.9825,429.51,0.337912,0.0,0.0
990,247.25,24.9637,26.2997,160.166,116.016,110.391,-0.00784952,0.0540328,20.9802,429.42,0.445184,0.0,0.0
1008,251.75,25.4327,27.0047,158.219,116.192,107.396,-0.00537506,0.0651817,20.962,429.2,0.70515,0.0,1.0
1026,256.25,25.1712,27.0187,154.554,116.265,87.323,-0.00124748,0.103297,20.8814,429.09,2.56407,0.0,1.0
1044,260.75,26.4837,28.2477,158.036,116.255,84.1281,0.00166658,0.138506,20.8237,428.77,2.89714,0.0,0.0
1062,265.25,27.4697,29.0697,150.265,116.106,86.7547,0.00207448,0.15361,20.802,428.429,2.6103,0.0,0.0
1080,269.75,28.2213,30.1703,152.383,115.978,88.7283,0.00210903,0.162387,20.7946,428.109,2.39893,0.0,0.0
1098,274.25,28.6569,31.1967,153.133,116.065,87.7267,0.00186775,0.159961,20.8056,427.839,2.50737,0.0,0.0
1116,278.75,29.2776,31.8069,158.113,116.552,101.121,0.000705386,0.155998,20.8196,427.569,1.27203,0.0,0.0
1134,283.25,29.1554,31.82,155.371,116.777,104.992,-0.000881949,0.146103,20.8427,427.358,0.952893,0.0,0.0
1152,287.75,29.8058,32.6591,151.461,116.757,108.437,-0.00186735,0.131165,20.8707,427.078,0.662185,0.0,0.0
1170,292.25,30.1872,33.1728,158.123,116.491,109.777,-0.00322388,0.111086,20.9038,426.858,0.53174,0.0,0.0
1188,296.75,29.8129,32.3844,158.368,116.072,110.463,-0.00489315,0.0915824,20.9335,426.818,0.443656,0.0,0.0
1206,301.25,28.8276,31.117,158.555,116.268,107.998,-0.00643774,0.073976,20.9592,426.608,0.660914,0.0,0.0
1224,305.75,27.3442,29.5003,162.516,116.504,110.89,-0.00748481,0.0614863,20.9742,426.528,0.442393,0.0,0.0
1242,310.25,27.8729,30.0396,162.25,116.788,112.059,-0.00762132,0.0569034,20.9788,426.378,0.370214,0.0,0.0
1260,314.75,27.6313,30.0164,164.738,116.902,112.441,-0.00810158,0.0548457,20.9829,426.247,0.348501,0.0,0.0
1278,319.25,27.1976,29.1327,164.804,116.924,113.166,-0.00825443,0.053366,20.9844,426.087,0.292656,0.0,0.0
1296,323.75,26.9076,29.0913,163.463,116.817,113.603,-0.00828139,0.0526773,20.985,426.027,0.249945,0.0,0.0
1314,328.25,26.1805,28.495,164.817,116.59,113.426,-0.0081229,0.0519741,20.9851,425.837,0.246437,0.0,0.0
1332,332.75,26.2243,27.9865,159.937,116.303,113.889,-0.00829155,0.0516998,20.9851,425.827,0.187874,0.0,0.0
1350,337.25,25.9975,27.7904,161.69,115.931,112.497,-0.0085154,0.051702,20.9857,425.787,0.269304,0.0,0.0
1368,341.75,26.0051,27.6474,162.089,115.576,112.147,-0.00848479,0.0518312,20.9851,425.527,0.26976,0.0,0.0
1386,346.25,25.2532,27.5925,162.526,115.225,112.356,-0.00846394,0.051938,20.9842,425.477,0.225866,0.0,0.0
1404,350.75,25.8848,27.4429,163.286,114.931,111.66,-0.0086868,0.0517079,20.9833,425.357,0.258626,0.0,0.0
1422,355.25,24.9289,26.9359,162.171,114.676,111.431,-0.00827783,0.0517928,20.983,425.307,0.257104,0.0,0.0
1440,359.75,25.2324,26.8383,161.171,114.506,111.273,-0.00800431,0.0517984,20.9824,425.076,0.256545,0.0,0.0
1458,364.25,24.6981,26.5186,161.779,114.425,111.11,-0.00808798,0.0517901,20.9828,425.127,0.263324,0.0,0.0
1476,368.75,25.1403,26.4463,162.501,114.412,111.64,-0.00810502,0.0519946,20.9841,424.956,0.219672,0.0,0.0
1494,373.25,24.6439,26.3305,163.341,114.451,111.527,-0.00811544,0.0522136,20.9845,425.026,0.231749,0.0,0.0
1512,377.75,24.8961,26.5929,165.331,114.502,112.095,-0.00818437,0.0519271,20.9846,424.886,0.190272,0.0,0.0
1530,382.25,24.7785,26.0067,157.198,114.612,112.432,-0.00822883,0.0520441,20.9846,424.786,0.172023,0.0,0.0
1548,386.75,24.4651,26.3782,163.666,114.707,112.834,-0.00813968,0.0519553,20.9847,424.676,0.147418,0.0,0.0
1566,391.25,24.5026,25.6646,164.959,114.826,111.541,-0.00812557,0.0520362,20.9838,424.646,0.260018,0.0,0.0
1584,395.75,25.0072,26.042,161.669,114.976,112.166,-0.00828216,0.0519683,20.9835,424.526,0.221692,0.0,0.0
1602,400.25,24.3948,25.8329,161.046,115.076,112.382,-0.00819508,0.0517001,20.9834,424.386,0.212196,0.0,0.0
1620,404.75,24.477,25.5878,157.011,115.212,112.665,-0.00827384,0.0518764,20.9834,424.366,0.200286,0.0,0.0
1638,409.25,24.4081,25.5807,159.958,115.318,112.139,-0.00820482,0.051852,20.9823,424.236,0.250413,0.0,0.0
1656,413.75,23.7683,25.6418,164.897,115.458,113.141,,0.051921,,424.166,0.181578,0.0,0.0
1674,418.25,23.9532,26.1943,163.473,115.562,113.241,,,,424.046,0.181739,0.0,0.0
1688,421.75,24.6563,25.8001,160.934,115.638,113.255,,,,424.066,0.18644,0.0,0.0

File: PVC_Cone_HF50Scalar_220210_R2.csv
LABORATORY,FSRI
TEST IDENT,PVC_HF50_2
OPERATOR,Dow
MATERIAL,PVC
ORIENTATION,Horizontal
HEAT FLUX,50
SURF AREA,0.01
C FACTOR,0.0393671
SPEC HOLDER DIFF,303.15
SPECIMEN MASS,44.1
SCAN TIME,0.25
O2 DELAY TIME,11
CO DELAY TIME,11
CO2 DELAY TIME,8
FLOW FACTOR,1
SCAN COUNT,2923
TIME TO IGN,47.25
END OF TEST SCAN,2443
END OF TEST TIME,610.75
TEST STATUS,1
PRE TEST CMT,Dimensions: 99.10 x 98.91 x 3.12 mm; 60 mm spacing
POST TEST CMT,"Sample shriveled prior to ignition, reducing exposed surface area. Sample expanded in height throughout test, reaching several centemeters above calibrated surface height, thereby increasing incident heat flux."

File: PVC_Cone_HF50Scalar_220210_R3.csv
LABORATORY,FSRI
TEST IDENT,PVC_HF50_3
OPERATOR,Dow
MATERIAL,PVC
ORIENTATION,Horizontal
HEAT FLUX,50
SURF AREA,0.01
C FACTOR,0.0393671
SPEC HOLDER DIFF,303.7
SPECIMEN MASS,43.5
SCAN TIME,0.25
O2 DELAY TIME,11
CO DELAY TIME,11
CO2 DELAY TIME,8
FLOW FACTOR,1
SCAN COUNT,2919
TIME TO IGN,48.75
END OF TEST SCAN,2439
END OF TEST TIME,609.75
TEST STATUS,1
PRE TEST CMT,Dimensions: 98.45 x 99.10 x 3.14 mm; 60 mm spacing
POST TEST CMT,"Sample shriveled prior to ignition, reducing exposed surface area. Sample expanded in height throughout test, reaching several centemeters above calibrated surface height, thereby increasing incident heat flux. Near end of test sample fell on its side."

File: PVC_Cone_HF50Scalar_220218_R1.csv
LABORATORY,FSRI
TEST IDENT,PVC_HF50_1
OPERATOR,Dow
MATERIAL,PVC
ORIENTATION,Horizontal
HEAT FLUX,50
SURF AREA,0.01
C FACTOR,0.0385692
SPEC HOLDER DIFF,305.55
SPECIMEN MASS,45.5
SCAN TIME,0.25
O2 DELAY TIME,11
CO DELAY TIME,11
CO2 DELAY TIME,8
FLOW FACTOR,1
SCAN COUNT,2592
TIME TO IGN,42
END OF TEST SCAN,2112
END OF TEST TIME,528
TEST STATUS,1
PRE TEST CMT,Dimensions: 101.46 x 100.28 x 3.10 mm; 60 mm spacing
POST TEST CMT,"Sample shriveled prior to ignition, reducing exposed surface area. Sample expanded in height throughout test, reaching several centemeters above calibrated surface height, thereby increasing incident heat flux."

File: PVC_Cone_HF50Scan_220210_R2.csv
Names,Time,Stack TC,Smoke TC,Exh Press,Smoke Comp,Smoke Meas,CO Meter,CO2 Meter,O2 Meter,Sample Mass,Ext Coeff,Start Test,Flame Verif
Chan Gain,,500,500,1,1,1,1,1,1,1,1,1.0,1.0
Offset,,0,0,0.140898,0,0,0,0,0,0,0,0.0,0.0
Gain,,1,1,25.011,12.9668,12.6588,1,1,1,1.00088,1.01977,1.0,1.0
Units,sec,C,C,Pa,%,%,%,%,%,g,/m,,
Baseline,,31.4326,33.682,156.833,98.7105,100.399,0.000372068,0.0681269,20.9785,-870.109,-0.151648,,
30,7.25,31.5625,33.1538,157.94,98.7178,98.7983,7.66181e-05,0.0685378,20.9814,43.8986,-0.00729159,0.0,0.0
60,14.75,31.7389,33.679,156.474,98.2777,97.9024,-0.000304623,0.0659033,20.9844,43.8685,0.0342299,0.0,0.0
90,22.25,32.4986,33.6797,155.037,97.8195,98.3042,1.92473e-05,0.0652572,20.9833,43.8285,-0.0442119,0.0,0.0
120,29.75,32.4857,34.1011,155.523,97.5089,90.2583,0.00160488,0.0673101,20.9784,43.5182,0.691181,0.0,0.0
150,37.25,33.0173,35.4982,160.666,97.3379,87.0712,0.00639534,0.0828585,20.9583,42.5774,0.997067,0.0,0.0
180,44.75,36.0496,38.8442,141.126,97.277,83.8455,0.0179345,0.164829,20.8045,41.3763,1.32916,0.0,0.0
210,52.25,40.1012,43.6796,143.042,97.2999,28.5759,0.0383041,0.287497,20.5659,39.875,10.9601,0.0,0.0
240,59.75,43.0091,47.5225,145.152,97.3696,42.4118,0.036354,0.27506,20.6002,38.5939,7.43435,0.0,0.0
270,67.25,44.885,49.6524,147.621,97.4479,60.0982,0.0340107,0.235166,20.681,37.4129,4.32363,0.0,0.0
300,74.75,45.9829,51.6519,145.086,97.4816,66.3704,0.0291156,0.241356,20.6757,36.3119,3.43869,0.0,0.0
330,82.25,46.9175,53.229,145.436,97.5045,65.48,0.0268421,0.255004,20.6689,35.2209,3.56163,0.0,0.0
360,89.75,48.1843,53.7832,143.075,97.4614,66.7552,0.027229,0.254723,20.6688,34.18,3.38513,0.0,0.0
390,97.25,48.703,54.9647,139.899,97.3961,69.2794,0.0267068,0.257131,20.6649,33.1992,3.04713,0.0,0.0
420,104.75,49.7,55.3101,146.678,97.3605,69.8249,0.0250213,0.257021,20.6704,32.2683,2.9737,0.0,0.0
450,112.25,49.7711,55.7949,144.763,97.2983,71.5046,0.0235876,0.246961,20.6892,31.3776,2.75535,0.0,0.0
480,119.75,49.388,56.0759,147.964,97.2793,75.1282,0.0217852,0.237844,20.7051,30.6069,2.31139,0.0,0.0
510,127.25,49.4254,55.8128,146.244,97.2837,77.0927,0.0200477,0.227954,20.7225,29.7962,2.0809,0.0,0.0
540,134.75,49.5443,55.2801,149.281,97.3415,79.8896,0.0184392,0.218655,20.7422,29.0956,1.76742,0.0,0.0
570,142.25,48.8322,55.2703,146.972,97.461,82.2832,0.0155694,0.209262,20.7569,28.425,1.51431,0.0,0.0
600,149.75,48.7335,54.2496,154.138,97.6569,84.3492,0.0141862,0.195379,20.7805,27.8445,1.31044,0.0,0.0
630,157.25,48.3123,53.3934,145.631,97.9386,84.9113,0.0139629,0.186021,20.794,27.294,1.2768,0.0,0.0
660,164.75,47.7449,53.5063,147.634,98.2777,84.9457,0.013643,0.180053,20.8056,26.7135,1.3041,0.0,0.0
690,172.25,47.804,52.571,148.441,98.6141,87.3355,0.0124345,0.177893,20.8087,26.213,1.08648,0.0,0.0
720,179.75,46.9536,51.6953,152.461,98.9366,90.4411,0.0121152,0.169983,20.8189,25.6826,0.80312,0.0,0.0
750,187.25,47.1323,51.4923,147.25,99.1182,91.6553,0.0106665,0.169151,20.824,25.2722,0.700232,0.0,0.0
780,194.75,46.3067,51.1684,151.722,99.1463,87.2273,0.0112298,0.158335,20.8388,24.7918,1.14571,0.0,0.0
810,202.25,47.0131,50.1047,150.048,98.937,87.2655,0.0116861,0.150086,20.8475,24.3814,1.12289,0.0,0.0
840,209.75,46.0931,50.4001,154.708,98.6584,87.6947,0.011433,0.150136,20.8479,23.891,1.05377,0.0,0.0
870,217.25,45.6706,49.9922,151.44,98.3842,89.9613,0.0109834,0.148433,20.8511,23.4406,0.800616,0.0,0.0
900,224.75,45.7785,49.7022,149.541,98.7055,89.6908,0.0108184,0.147537,20.8538,23.0102,0.856714,0.0,0.0
930,232.25,45.3521,49.0537,146.632,98.8503,88.8919,0.0107371,0.142817,20.8626,22.6199,0.949865,0.0,0.0
960,239.75,45.2499,49.0583,148.685,98.5504,90.6825,0.0100043,0.139006,20.8703,22.1995,0.744283,0.0,0.0
990,247.25,45.1141,48.8341,148.836,97.9695,92.9374,0.00947405,0.134374,20.8765,21.8292,0.471682,0.0,0.0
1020,254.75,44.2585,48.7071,152.327,98.1824,92.2741,0.00947116,0.130973,20.8809,21.4388,0.555172,0.0,0.0
1050,262.25,44.7437,47.966,151.169,98.4238,92.9873,0.00905797,0.130376,20.8808,21.0585,0.508269,0.0,0.0
1080,269.75,44.7541,47.9542,147.55,98.5405,93.5807,0.00877948,0.138116,20.8703,20.6381,0.461971,0.0,0.0
1110,277.25,44.0378,48.2905,148.34,98.3604,90.5411,0.00912587,0.138012,20.8685,20.3178,0.740983,0.0,0.0
1140,284.75,43.8934,47.5755,155.355,97.9972,86.8437,0.0105865,0.140232,20.8629,19.8775,1.08086,0.0,0.0
1170,292.25,44.374,47.5236,148.604,97.6193,87.1095,0.011704,0.144932,20.854,19.4471,1.01896,0.0,0.0
1200,299.75,44.7175,48.6353,150.215,97.3169,84.8642,0.0120099,0.147345,20.8471,18.9566,1.2248,0.0,0.0
1230,307.25,45.2923,48.6036,147.97,97.2722,84.9496,0.0130042,0.152147,20.8386,18.4962,1.2117,0.0,0.0
1260,314.75,45.2006,49.2501,145.31,97.4341,83.3437,0.0127329,0.156696,20.8338,18.0559,1.39729,0.0,0.0
1290,322.25,45.2437,49.7182,150.432,97.793,84.1769,0.0127323,0.159852,20.8285,17.5254,1.34119,0.0,0.0
1320,329.75,46.0946,50.0913,146.206,98.2536,86.2658,0.0131634,0.160359,20.8279,17.045,1.16396,0.0,0.0
1350,337.25,46.2396,50.292,149.775,98.6841,89.0407,0.0132951,0.15716,20.8338,16.5045,0.919858,0.0,0.0
1380,344.75,46.4296,49.7132,148.448,99.0288,90.766,0.0127215,0.148696,20.8473,16.0741,0.779375,0.0,0.0
1410,352.25,46.0431,49.9809,147.784,99.161,91.8345,0.0110755,0.145738,20.8548,15.6638,0.686611,0.0,0.0
1440,359.75,46.3011,49.7357,155.923,99.0383,90.6644,0.0111065,0.141414,20.864,15.2434,0.790251,0.0,0.0
1470,367.25,45.6255,49.3027,148.452,98.7316,88.8815,0.0116111,0.143438,20.856,14.8631,0.940166,0.0,0.0
1500,374.75,45.8923,50.0167,144.516,98.3885,81.7397,0.0135504,0.157264,20.8279,14.4127,1.65833,0.0,0.0
1530,382.25,47.0536,50.7582,150.148,98.774,68.7347,0.017142,0.185424,20.776,13.8522,3.2434,0.0,0.0
1560,389.75,47.6633,51.5101,146.452,98.8313,77.1375,0.0183843,0.201949,20.7482,13.3017,2.21688,0.0,0.0
1590,397.25,48.1983,53.2473,150.68,98.3434,80.3045,0.0164401,0.199185,20.7621,12.8012,1.81268,0.0,0.0
1620,404.75,48.8197,52.9229,151.097,98.0728,81.448,0.0157934,0.184737,20.7853,12.2908,1.66155,0.0,0.0
1650,412.25,49.1677,53.388,145.299,98.2734,78.4583,0.0157222,0.190802,20.7729,11.8404,2.01437,0.0,0.0
1680,419.75,48.9767,54.156,149.634,98.4989,76.9397,0.0170037,0.200956,20.7558,11.2699,2.20971,0.0,0.0
1710,427.25,49.561,54.0988,145.857,98.476,77.8205,0.0167704,0.197993,20.7609,10.7995,2.10581,0.0,0.0
1740,434.75,49.6,54.4501,151.468,98.1832,78.444,0.0151876,0.189702,20.7802,10.3991,2.00778,0.0,0.0
1770,442.25,49.3774,53.9496,150.097,97.7443,80.629,0.01384,0.171742,20.8107,10.0188,1.72195,0.0,0.0
1800,449.75,48.9327,53.3793,149.53,97.3292,82.0128,0.0127818,0.155777,20.8336,9.68851,1.53166,0.0,0.0
1830,457.25,48.1115,52.3804,150.538,97.2378,82.8136,0.012559,0.144161,20.8524,9.40826,1.43633,0.0,0.0
1860,464.75,47.3548,51.2467,151.028,97.461,83.7578,0.0122402,0.136038,20.8639,9.11801,1.35542,0.0,0.0
1890,472.25,47.3981,50.6072,152.276,97.9283,86.423,0.0118584,0.128791,20.8752,8.8778,1.11801,0.0,0.0
1920,479.75,46.1726,50.4174,151.325,98.4633,88.6262,0.0108757,0.125885,20.8813,8.69764,0.941561,0.0,0.0
1950,487.25,46.0969,49.9075,147.106,98.8642,89.2454,0.00989016,0.122924,20.8877,8.49746,0.915617,0.0,0.0
1980,494.75,45.9841,48.8236,151.731,99.1068,91.4965,0.00926006,0.120991,20.8918,8.33732,0.714707,0.0,0.0
2010,502.25,45.2344,48.5652,146.061,99.1546,92.1003,0.00853781,0.118055,20.8979,8.16717,0.660188,0.0,0.0
2040,509.75,45.32,47.8234,150.635,99.0138,91.0333,0.00836063,0.118218,20.8972,8.01704,0.751709,0.0,0.0
2070,517.25,44.5338,47.6737,154.356,98.7898,91.3597,0.00812253,0.118979,20.8966,7.87692,0.699432,0.0,0.0
2100,524.75,44.4833,47.5717,152.063,98.5061,90.1764,0.0078074,0.12296,20.8922,7.75681,0.790321,0.0,0.0
2130,532.25,44.5118,47.3499,150.674,98.3881,91.3578,0.00721643,0.126773,20.8856,7.63671,0.663177,0.0,0.0
2160,539.75,44.597,47.2172,146.601,98.7787,92.9475,0.00693503,0.129637,20.8809,7.49658,0.544301,0.0,0.0
2190,547.25,44.1928,47.4994,147.532,98.8887,93.0448,0.00647794,0.133162,20.8733,7.37648,0.544893,0.0,0.0
2220,554.75,44.3273,47.5225,147.882,98.7846,92.441,0.00601704,0.135746,20.8718,7.24636,0.593713,0.0,0.0
2250,562.25,44.0849,47.0918,151.698,98.4439,91.8697,0.00579805,0.140178,20.865,7.13627,0.618268,0.0,0.0
2280,569.75,44.5024,47.8749,148.93,98.0458,91.6232,0.00524611,0.143165,20.8603,7.02617,0.606053,0.0,0.0
2310,577.25,44.7786,47.5007,149.762,98.1202,94.0033,0.00515228,0.143479,20.8605,6.88605,0.383431,0.0,0.0
2340,584.75,44.668,47.3962,152.334,98.2758,95.819,0.00485582,0.138352,20.8706,6.836,0.226465,0.0,0.0
2370,592.25,44.5049,46.7329,152.37,98.4301,97.5976,0.00478126,0.127577,20.8888,6.72591,0.0759793,0.0,0.0
2400,599.75,43.7628,46.2767,150.399,98.4879,99.11,0.0057402,0.112646,20.9163,6.67586,-0.0563314,0.0,0.0
2430,607.25,43.2893,45.4482,154.371,98.3961,99.8255,0.00888471,0.096001,20.9371,6.66585,-0.129016,0.0,0.0
2460,614.75,41.7261,44.3261,151.783,98.1416,99.1158,0.0070904,0.089529,20.9478,6.64584,-0.0883585,0.0,0.0
2490,622.25,41.4024,43.9215,156.372,97.7867,99.044,0.00505848,0.0881245,20.9528,6.62582,-0.114283,0.0,0.0
2520,629.75,41.1705,43.644,152.737,97.4329,99.1931,0.00362778,0.0873421,20.955,6.54575,-0.160162,0.0,0.0
2550,637.25,40.47,42.9955,152.918,97.1986,98.0983,0.00312255,0.0868706,20.957,6.55576,-0.0824141,0.0,0.0
2580,644.75,40.2098,42.5129,155.807,97.2307,99.042,0.00247471,0.0867918,20.9569,6.53574,-0.165113,0.0,0.0
2610,652.25,40.477,42.7099,158.39,97.5864,98.5074,0.00206356,0.0866129,20.9562,6.52573,-0.0840232,0.0,0.0
2640,659.75,40.0816,41.9347,153.281,98.0941,99.506,0.00152899,0.0860468,20.9561,6.46568,-0.127833,0.0,0.0
2670,667.25,40.2977,42.0584,154.559,98.6604,100.267,0.00144647,0.0862188,20.9551,6.47569,-0.144532,0.0,0.0
2700,674.75,40.097,41.5057,158.234,99.0343,102.033,0.00133074,0.0869079,20.9551,6.40563,-0.266793,0.0,0.0
2730,682.25,39.8242,41.7179,155.31,99.144,101.341,0.00148978,0.0866134,20.9554,6.42564,-0.196066,0.0,0.0
2760,689.75,39.6216,41.3803,153.365,98.9825,101.444,0.00144101,0.0862271,20.9545,6.41563,-0.219711,0.0,0.0
2790,697.25,39.7445,41.9074,152.829,98.6928,101.235,0.0014145,0.0870817,20.953,6.38561,-0.227512,0.0,0.0
2820,704.75,39.8591,41.7081,159.089,98.474,100.11,0.00156807,0.0871549,20.9559,6.40563,-0.147375,0.0,0.0
2850,712.25,39.9753,41.6949,152.636,98.3759,99.1135,0.00123557,0.0869365,20.9555,6.38561,-0.0668223,0.0,0.0
2880,719.75,39.6092,41.7591,151.484,98.6279,100.176,,0.0872701,,6.36559,-0.139337,0.0,0.0
2910,727.25,39.7444,42.0977,154.603,98.7751,99.146,,,,6.31555,-0.0335179,0.0,0.0
2923,730.5,39.0314,40.9302,158,98.8112,99.6972,,,,6.28552,-0.0798573,0.0,0.0