Folder: fsri_materials_database/01_Data/PVC/Cone (part 3)

File: PVC_Cone_HF50Scan_220210_R3.csv
Names,Time,Stack TC,Smoke TC,Exh Press,Smoke Comp,Smoke Meas,CO Meter,CO2 Meter,O2 Meter,Sample Mass,Ext Coeff,Start Test,Flame Verif
Chan Gain,,500,500,1,1,1,1,1,1,1,1,1.0,1.0
Offset,,0,0,0.140898,0,0,0,0,0,0,0,0.0,0.0
Gain,,1,1,25.011,12.9668,12.6588,1,1,1,1.00088,1.01977,1.0,1.0
Units,sec,C,C,Pa,%,%,%,%,%,g,/m,,
Baseline,,35.1602,37.1519,156.097,97.9369,100.298,0.00027194,0.0659782,20.9844,-870.531,-0.213068,,
30,7.25,33.4845,35.0315,158.589,98.8745,100.57,0.000677066,0.0725558,20.9743,43.5182,-0.152054,0.0,0.0
60,14.75,33.2528,35.5514,155.38,98.233,100.692,0.000218556,0.0724991,20.973,43.5282,-0.221198,0.0,0.0
90,22.25,33.6594,34.8812,158.38,98.214,100.604,3.07761e-05,0.0703406,20.9746,43.4782,-0.21503,0.0,0.0
120,29.75,34.2779,35.9121,153.814,98.4431,95.5424,0.00139399,0.0722383,20.9722,43.1479,0.267549,0.0,0.0
150,37.25,34.8024,36.9438,158.303,98.3327,90.8988,0.00503682,0.0856009,20.955,42.137,0.70319,0.0,0.0
180,44.75,37.1935,40.6906,143.731,97.795,84.406,0.0157512,0.172062,20.801,40.9059,1.31706,0.0,0.0
210,52.25,41.834,45.6987,141.18,97.2596,26.3534,0.0359567,0.30634,20.5496,39.5447,11.6807,0.0,1.0
240,59.75,44.436,49.4573,147.854,97.1381,46.8209,0.0355158,0.284948,20.5915,38.2236,6.52835,0.0,0.0
270,67.25,46.1358,51.7389,147.401,97.5045,70.6651,0.0309922,0.245226,20.6757,37.1626,2.87992,0.0,0.0
300,74.75,47.0178,53.1473,143.839,98.1072,81.2015,0.0245977,0.239728,20.7028,36.1417,1.6918,0.0,0.0
330,82.25,48.2271,54.3461,145.41,98.6849,73.1086,0.0251355,0.257633,20.6722,35.1108,2.68348,0.0,0.0
360,89.75,49.361,55.9605,145.97,99.0434,68.3781,0.0275484,0.268093,20.6546,34.14,3.3143,0.0,0.0
390,97.25,50.8248,56.8372,144.675,99.1076,70.8142,0.0266311,0.264291,20.6627,33.0791,3.00694,0.0,0.0
420,104.75,50.0916,57.0285,146.721,98.9896,68.7355,0.0255844,0.252926,20.6818,32.0982,3.26281,0.0,0.0
450,112.25,51.4407,57.5954,150.788,98.7573,72.3467,0.0243023,0.244707,20.6995,31.2274,2.78375,0.0,0.0
480,119.75,51.4692,57.9935,146.905,98.5326,74.8319,0.0222724,0.239775,20.7105,30.4868,2.46124,0.0,0.0
510,127.25,51.2316,57.4889,146.882,98.3775,76.7612,0.0205255,0.227037,20.7341,29.596,2.21945,0.0,0.0
540,134.75,51.6033,57.2141,143.637,98.4447,79.9112,0.017646,0.219668,20.7485,28.9254,1.86581,0.0,0.0
570,142.25,51.1246,57.061,144.469,98.6137,85.5491,0.0156838,0.212348,20.7607,28.2848,1.2713,0.0,0.0
600,149.75,50.7086,57.038,141.442,98.6632,84.7699,0.0136993,0.204689,20.7738,27.6543,1.35764,0.0,0.0
630,157.25,50.5951,56.7085,150.116,98.6533,88.5122,0.0134937,0.194356,20.7928,27.0638,0.970311,0.0,0.0
660,164.75,50.2767,55.889,148.573,98.6129,88.2889,0.0124962,0.183269,20.8104,26.5733,0.989245,0.0,0.0
690,172.25,50.2906,55.582,142.739,98.4277,89.0086,0.011325,0.177449,20.8172,26.0629,0.899807,0.0,0.0
720,179.75,49.9823,55.0315,146.898,98.3972,90.5508,0.0104261,0.172463,20.8256,25.4824,0.743374,0.0,0.0
750,187.25,49.3711,54.4428,149.874,98.563,93.4246,0.0110749,0.166906,20.8331,25.082,0.478949,0.0,0.0
780,194.75,48.7814,53.7993,147.703,98.7941,93.4505,0.010581,0.160708,20.8422,24.7017,0.497421,0.0,0.0
810,202.25,48.2302,52.8174,147.139,99.0426,90.7625,0.0103468,0.154996,20.8513,24.2013,0.780969,0.0,0.0
840,209.75,48.3017,53.3559,149.197,99.1099,92.7443,0.00911024,0.155088,20.8559,23.7609,0.593822,0.0,0.0
870,217.25,48.1768,52.3962,154.703,98.846,94.5434,0.0085149,0.151743,20.8603,23.3505,0.398106,0.0,0.0
900,224.75,48.0847,52.2807,153.122,98.218,91.2346,0.00904139,0.147251,20.8656,22.9201,0.659768,0.0,0.0
930,232.25,48.0091,51.8791,148.179,97.4796,91.5158,0.00921,0.142492,20.8722,22.4898,0.56473,0.0,0.0
960,239.75,47.5787,51.974,146.606,97.1226,89.4896,0.00979535,0.139514,20.8718,22.1394,0.732198,0.0,0.0
990,247.25,47.2375,51.2896,151.405,97.3905,89.9825,0.0100036,0.138902,20.8723,21.7091,0.7077,0.0,0.0
1020,254.75,47.1519,50.7168,146.83,98.0284,90.8235,0.0100941,0.13986,20.8711,21.2286,0.682881,0.0,0.0
1050,262.25,46.8706,50.7448,146.749,98.4388,90.1463,0.00983492,0.137686,20.8734,20.8683,0.787198,0.0,0.0
1080,269.75,47.2938,50.5286,148.127,98.3078,91.7233,0.0099003,0.136333,20.8768,20.518,0.620159,0.0,0.0
1110,277.25,46.9392,50.633,149.684,98.049,91.262,0.00962742,0.135297,20.8788,20.0676,0.641677,0.0,0.0
1140,284.75,47.1576,50.8466,148.059,98.882,93.5544,0.00959183,0.13557,20.8779,19.6973,0.495429,0.0,0.0
1170,292.25,47.0848,50.5922,148.61,98.3925,89.8759,0.010421,0.140605,20.8687,19.1969,0.809865,0.0,0.0
1200,299.75,47.4649,50.701,150.476,99.0209,84.0394,0.0126228,0.152,20.8439,18.6264,1.46744,0.0,0.0
1230,307.25,47.824,51.6028,149.825,98.8313,84.4655,0.0143559,0.160166,20.8294,18.1359,1.40506,0.0,0.0
1260,314.75,48.049,52.0088,145.719,97.6834,80.0619,0.014689,0.168337,20.8159,17.5554,1.77951,0.0,0.0
1290,322.25,48.6318,53.1434,149.31,97.1658,77.6103,0.015291,0.179146,20.7946,16.9349,2.01018,0.0,0.0
1320,329.75,49.3004,53.7261,148.393,97.9188,77.7154,0.0150664,0.183713,20.7905,16.4545,2.06714,0.0,0.0
1350,337.25,49.9237,54.4083,152.16,98.4697,78.4011,0.0147445,0.182537,20.7916,15.954,2.03874,0.0,0.0
1380,344.75,50.4158,54.3478,144.532,98.0542,75.2005,0.0146106,0.179323,20.797,15.3735,2.37376,0.0,0.0
1410,352.25,50.4558,55.219,147.042,98.8325,73.8553,0.0150917,0.178599,20.7956,14.813,2.60594,0.0,0.0
1440,359.75,50.6785,55.1464,144.983,98.4218,76.9493,0.0147587,0.179684,20.7944,14.3526,2.20158,0.0,0.0
1470,367.25,50.4305,55.2856,149.062,99.1,73.0865,0.0159968,0.186344,20.7802,13.8221,2.72373,0.0,0.0
1500,374.75,51.3086,55.0727,142.591,98.3794,74.6789,0.0177424,0.199763,20.7553,13.2717,2.46564,0.0,0.0
1530,382.25,51.7045,56.4628,145.69,97.182,81.2019,0.0163831,0.204189,20.7558,12.6711,1.607,0.0,0.0
1560,389.75,51.6702,56.8188,151.677,97.8421,80.2578,0.016016,0.202239,20.7625,12.2207,1.77217,0.0,0.0
1590,397.25,52.068,56.4779,146.647,98.4534,83.1022,0.0150046,0.18574,20.7937,11.7904,1.51635,0.0,0.0
1620,404.75,50.6922,56.0089,144.219,97.96,82.0116,0.0142184,0.165314,20.8211,11.44,1.58957,0.0,0.0
1650,412.25,50.7891,55.4747,148.196,98.7217,85.6013,0.0134359,0.149061,20.8471,11.0397,1.27565,0.0,0.0
1680,419.75,50.0464,54.5011,152.957,98.9105,80.0206,0.0132868,0.138743,20.8627,10.6894,1.8958,0.0,0.0
1710,427.25,49.9595,53.8394,145.164,98.7023,81.0988,0.0128485,0.128628,20.8751,10.4292,1.75723,0.0,0.0
1740,434.75,49.4623,53.2962,153.225,97.2449,80.34,0.0120963,0.121818,20.8902,10.1689,1.70824,0.0,0.0
1770,442.25,48.735,52.2843,152.749,97.882,80.8063,0.0110887,0.114486,20.902,9.9087,1.71489,0.0,0.0
1800,449.75,48.2339,51.8922,149.247,98.3929,78.0816,0.0102529,0.114823,20.8979,9.64847,2.06829,0.0,0.0
1830,457.25,48.1826,51.3699,152.78,98.4784,76.271,0.0098468,0.131076,20.8718,9.31818,2.28593,0.0,0.0
1860,464.75,48.3335,51.3059,148.919,98.3818,74.9733,0.0092604,0.135006,20.8667,9.05796,2.43066,0.0,0.0
1890,472.25,47.7234,51.1597,152.163,99.0921,78.1017,0.0082096,0.131916,20.874,8.74768,2.12933,0.0,0.0
1920,479.75,47.4857,51.0244,151.619,98.0478,80.9647,0.00728364,0.129646,20.8797,8.5375,1.71251,0.0,0.0
1950,487.25,47.7929,50.8135,153.447,97.2433,82.1635,0.00625201,0.125502,20.8862,8.29729,1.50734,0.0,0.0
1980,494.75,47.1098,50.5825,150.761,98.0193,84.8418,0.00584994,0.121997,20.8941,8.10712,1.2915,0.0,0.0
2010,502.25,46.8357,50.2736,149.507,98.4993,86.1827,0.00522329,0.119026,20.8991,7.92696,1.19492,0.0,0.0
2040,509.75,46.6175,49.8696,155.792,98.1202,87.0874,0.00492218,0.119362,20.8996,7.80686,1.06701,0.0,0.0
2070,517.25,46.5358,49.6566,149.816,97.9315,87.366,0.00419268,0.119305,20.8996,7.68675,1.02122,0.0,0.0
2100,524.75,46.1013,48.9627,149.603,98.6877,90.7949,0.00388376,0.119171,20.8996,7.58666,0.745656,0.0,0.0
2130,532.25,45.9868,48.7509,151.556,98.7391,91.1585,0.00336332,0.119426,20.9018,7.49658,0.714572,0.0,0.0
2160,539.75,45.6469,48.53,146.605,98.3312,92.0141,0.00319026,0.117998,20.9057,7.41651,0.593958,0.0,0.0
2190,547.25,45.6536,48.3251,151.073,98.5785,92.2158,0.00320644,0.11833,20.9062,7.31643,0.596846,0.0,0.0
2220,554.75,45.5497,48.1298,154.187,98.8891,93.9114,0.00290726,0.117751,20.9083,7.23636,0.462007,0.0,0.0
2250,562.25,45.3125,47.7332,147.813,99.1016,94.3336,0.00297956,0.115178,20.9131,7.13627,0.44108,0.0,0.0
2280,569.75,45.06,47.3878,150.819,99.1194,96.1485,0.00284383,0.110652,20.9196,7.06621,0.272219,0.0,0.0
2310,577.25,44.3401,47.1682,149.671,99.0399,96.5456,0.00284791,0.107377,20.9245,6.98614,0.228166,0.0,0.0
2340,584.75,44.0741,46.4096,151.917,98.8294,96.3451,0.00318268,0.102702,20.9325,6.95611,0.227728,0.0,0.0
2370,592.25,44.0768,46.2671,152.773,98.6066,96.3649,0.00340887,0.0981791,20.9404,6.90607,0.205711,0.0,0.0
2400,599.75,43.4819,45.7576,148.96,98.4542,97.1491,0.00322629,0.0936322,20.9459,6.85602,0.119376,0.0,0.0
2430,607.25,42.8757,45.3823,151.925,98.3098,97.6988,0.00341351,0.0887342,20.954,6.836,0.0557674,0.0,0.0
2460,614.75,42.4268,44.2928,153.131,98.2397,96.558,0.00337902,0.0858508,20.9577,6.81599,0.154458,0.0,0.0
2490,622.25,41.905,44.1842,152.841,98.2101,96.3328,0.0031357,0.0866304,20.9581,6.73592,0.172645,0.0,0.0
2520,629.75,41.5287,43.8961,152.577,98.2382,97.8441,0.00243138,0.0845417,20.9618,6.72591,0.0359591,0.0,0.0
2550,637.25,41.4718,43.5915,153.302,98.3181,96.9787,0.00250155,0.0831841,20.9646,6.70589,0.122701,0.0,0.0
2580,644.75,41.2136,42.7213,159.27,98.4613,98.2624,0.00211428,0.0820572,20.9679,6.66585,0.0180886,0.0,0.0
2610,652.25,40.7858,42.3193,154.778,98.6268,97.2553,0.00185032,0.0818522,20.9687,6.66585,0.125262,0.0,0.0
2640,659.75,40.9611,43.1723,153.49,98.8171,98.5502,0.00210463,0.0817164,20.9655,6.64584,0.0241887,0.0,0.0
2670,667.25,40.9152,42.6766,152.265,98.9936,98.0024,0.00177134,0.0820677,20.9639,6.65585,0.090013,0.0,0.0
2700,674.75,40.7238,42.3562,155.399,99.121,98.1655,0.00167128,0.0820474,20.9619,6.64584,0.086651,0.0,0.0
2730,682.25,40.0897,41.5907,150.281,99.1542,98.3374,0.00174092,0.0820432,20.9647,6.6058,0.0739986,0.0,0.0
2760,689.75,40.5591,41.9167,158.108,99.0707,99.1606,0.00153268,0.0824212,20.9652,6.57578,-0.0081118,0.0,0.0
2790,697.25,40.2804,41.946,154.466,98.8622,98.8713,0.0015868,0.0826751,20.9638,6.57578,-0.000820607,0.0,0.0
2820,704.75,39.4965,41.4339,149.536,98.6442,98.8122,0.00140776,0.0828818,20.9655,6.56577,-0.0152225,0.0,0.0
2850,712.25,40.1527,41.9656,158.107,98.4305,99.4198,0.00126785,0.0828828,20.9636,6.52573,-0.0894641,0.0,0.0
2880,719.75,38.759,41.4012,150.039,98.476,98.8593,,0.0834213,,6.52573,-0.0347515,0.0,0.0
2910,727.25,39.166,41.0048,153.456,98.7676,98.9709,,,,6.4857,-0.0183951,0.0,0.0
2919,729.5,39.8182,41.6108,154.395,98.8088,98.9026,,,,6.50571,-0.00848591,0.0,0.0

File: PVC_Cone_HF50Scan_220218_R1.csv
Names,Time,Stack TC,Smoke TC,Exh Press,Smoke Comp,Smoke Meas,CO Meter,CO2 Meter,O2 Meter,Sample Mass,Ext Coeff,Start Test,Flame Verif
Chan Gain,,500,500,1,1,1,1,1,1,1,1,1.0,1.0
Offset,,0,0,0.132436,0,0,0,0,0,0,0,0.0,0.0
Gain,,1,1,25.011,15.4219,15.1528,1,1,1,1.00089,1.02113,1.0,1.0
Units,sec,C,C,Pa,%,%,%,%,%,g,/m,,
Baseline,,43.7099,44.4862,151.952,116.002,111.822,-0.00804017,0.0503392,20.9867,-479.634,0.328806,,
27,6.5,40.6708,41.8228,151.178,116.143,112.32,-0.00827588,0.0512595,20.9893,438.338,0.299874,0.0,0.0
54,13.25,41.1428,41.9538,153.28,116.273,113.079,-0.00824802,0.0513307,20.9895,438.298,0.249464,0.0,0.0
81,20,41.4568,42.3345,153.967,116.352,111.114,-0.00790581,0.0496044,20.9907,438.308,0.412636,0.0,0.0
108,26.75,41.3476,42.8676,151.865,116.372,103.009,-0.00548026,0.052644,20.9828,437.768,1.09254,0.0,0.0
135,33.5,41.9292,43.9119,146.149,116.393,96.7658,-0.000240643,0.0741417,20.9456,436.617,1.65424,0.0,0.0
162,40.25,44.8249,46.7304,143.201,116.44,96.0536,0.0167988,0.176745,20.727,435.346,1.72399,0.0,0.0
189,47,48.3713,51.0872,133.422,116.456,34.332,0.0383076,0.310221,20.4526,433.804,10.9407,0.0,1.0
216,53.75,51.9424,55.5969,139.364,116.471,55.2217,0.0372924,0.304482,20.5091,432.463,6.68463,0.0,0.0
243,60.5,53.9766,58.5115,138.933,116.491,63.5797,0.035866,0.288495,20.5714,431.262,5.42378,0.0,0.0
270,67.25,56.0577,60.6514,139.851,116.495,60.0088,0.0334144,0.289231,20.5754,430.081,5.94185,0.0,0.0
297,74,57.5248,62.2686,146.433,116.492,61.7605,0.0314918,0.281987,20.5839,428.78,5.68392,0.0,0.0
324,80.75,58.4929,63.86,140.938,116.475,58.5827,0.0304451,0.278257,20.5947,427.679,6.15578,0.0,0.0
351,87.5,59.5978,65.0149,140.453,116.479,61.4978,0.0301604,0.27441,20.6015,426.568,5.72104,0.0,0.0
378,94.25,60.6142,65.8784,143.217,116.468,60.4254,0.0277547,0.260963,20.6285,425.537,5.87782,0.0,0.0
405,101,60.6933,66.6911,138.643,116.419,62.886,0.0253603,0.248473,20.6493,424.556,5.5165,0.0,0.0
432,107.75,61.6,66.8862,138.867,116.372,62.5073,0.0219948,0.235565,20.6751,423.655,5.56702,0.0,0.0
459,114.5,61.5947,67.0071,138.003,116.293,69.4164,0.0202105,0.223583,20.6973,422.794,4.62182,0.0,0.0
486,121.25,61.1604,66.6028,138.59,116.213,74.0994,0.0190773,0.214384,20.7115,421.954,4.03088,0.0,0.0
513,128,61.5571,66.8551,137.235,116.121,76.2021,0.0180137,0.203057,20.7331,421.233,3.77318,0.0,0.0
540,134.75,60.8851,66.2794,142.395,116.012,76.8675,0.0161104,0.191597,20.7501,420.492,3.68691,0.0,0.0
567,141.5,60.6808,65.7584,138.272,115.92,76.5003,0.015792,0.186492,20.756,419.812,3.72271,0.0,0.0
594,148.25,59.696,64.9288,141.926,115.912,74.265,0.0150648,0.184172,20.7582,419.181,3.98769,0.0,0.0
621,155,60.4133,65.1934,144.827,116.131,75.5847,0.0140825,0.182314,20.7609,418.481,3.8468,0.0,0.0
648,161.75,59.9875,64.7447,143.003,116.296,76.0032,0.0125907,0.181048,20.7668,417.84,3.81011,0.0,0.0
675,168.5,60.1617,64.8525,143.627,116.419,83.4455,0.0117088,0.175252,20.776,417.24,2.98279,0.0,0.0
702,175.25,59.837,64.4844,142.019,116.494,83.2324,0.0115016,0.176166,20.7776,416.579,3.01143,0.0,0.0
729,182,59.6304,64.6274,144.228,116.539,83.6055,0.0124793,0.17751,20.7734,415.918,2.97483,0.0,0.0
756,188.75,59.7211,64.2777,141.07,116.53,87.5029,0.0126993,0.179069,20.7678,415.208,2.56603,0.0,0.0
783,195.5,59.6599,64.0565,144.118,116.473,85.8294,0.0126384,0.184119,20.7639,414.607,2.73466,0.0,0.0
810,202.25,59.4693,63.7603,144.932,116.348,85.7304,0.0133779,0.181806,20.7697,413.927,2.73533,0.0,0.0
837,209,59.3867,63.8878,142.769,116.165,81.2083,0.0133434,0.179063,20.7715,413.256,3.20665,0.0,0.0
864,215.75,59.2931,63.3744,146.645,115.949,83.1491,0.0141319,0.177408,20.7705,412.585,2.97842,0.0,0.0
891,222.5,59.3683,63.3541,139.504,115.65,77.9575,0.0167836,0.192435,20.7321,411.825,3.5328,0.0,0.0
918,229.25,59.9948,64.2045,141.187,115.58,77.692,0.0190403,0.208937,20.7086,411.194,3.55792,0.0,0.0
945,236,60.0904,64.3541,142.516,115.611,80.2784,0.0188995,0.207222,20.7143,410.474,3.267,0.0,0.0
972,242.75,58.8031,63.4667,144.536,115.655,74.7935,0.0176399,0.194354,20.7402,409.793,3.90428,0.0,0.0
999,249.5,60.0447,64.2219,143.917,115.719,79.4488,0.0160487,0.178718,20.7708,409.172,3.36842,0.0,0.0
1026,256.25,59.7839,63.8499,145.091,115.768,84.5101,0.013399,0.161424,20.7979,408.642,2.81899,0.0,0.0
1053,263,59.15,62.9834,140.778,115.816,83.5547,0.0119203,0.154036,20.8098,408.091,2.92455,0.0,0.0
1080,269.75,58.6999,62.7982,146.486,115.852,88.1133,0.0104536,0.145798,20.8235,407.621,2.45152,0.0,0.0
1107,276.5,58.5069,62.3118,144.054,115.89,92.1276,0.00928883,0.139534,20.8314,407.121,2.05541,0.0,0.0
1134,283.25,57.5228,61.6407,145.254,115.912,86.8171,0.00897373,0.143835,20.8222,406.68,2.58888,0.0,0.0
1161,290,56.8413,60.5943,143.848,115.959,87.8349,0.00871613,0.142673,20.8255,406.24,2.48816,0.0,0.0
1188,296.75,57.3763,61.005,144.129,115.978,88.5706,0.00827477,0.135879,20.8391,405.839,2.4149,0.0,0.0
1215,303.5,57.0255,60.0651,149.052,116.007,93.1792,0.00706362,0.128994,20.8492,405.479,1.96276,0.0,0.0
1242,310.25,56.7958,59.9931,149.44,115.971,93.877,0.00643346,0.127071,20.8524,405.029,1.89317,0.0,0.0
1269,317,55.9104,59.0384,146.57,115.918,95.4821,0.00640641,0.124856,20.8531,404.718,1.73721,0.0,0.0
1296,323.75,55.7934,59.079,147.095,115.832,93.0146,0.00653771,0.126958,20.8487,404.368,1.96511,0.0,0.0
1323,330.5,55.0626,58.2934,148.39,115.744,94.4902,0.00629699,0.127193,20.8484,404.048,1.81732,0.0,0.0
1350,337.25,55.688,58.6868,146.432,115.671,91.169,0.00618949,0.125657,20.8511,403.738,2.13213,0.0,0.0
1377,344,55.5268,58.1638,147.269,115.613,90.0134,0.00545315,0.125148,20.8507,403.437,2.24191,0.0,0.0
1404,350.75,54.6971,57.8739,146.342,115.563,92.2701,0.00561175,0.127556,20.8468,403.117,2.01622,0.0,0.0
1431,357.5,54.2407,56.9103,146.66,115.502,94.8509,0.00488246,0.125966,20.8508,402.837,1.76441,0.0,0.0
1458,364.25,54.2286,57.2532,145.448,115.426,89.0664,0.00485058,0.132303,20.8362,402.557,2.32213,0.0,0.0
1485,371,54.8363,57.7363,145.922,115.375,85.7891,0.00498023,0.145415,20.8111,402.266,2.65398,0.0,0.0
1512,377.75,54.6839,57.6046,143.526,115.31,87.4978,0.00486387,0.151307,20.8022,401.956,2.47233,0.0,0.0
1539,384.5,54.4531,57.2742,146.351,115.247,87.6763,0.0046967,0.149985,20.812,401.696,2.44914,0.0,0.0
1566,391.25,54.6259,57.5743,145.699,115.215,91.6966,0.00389165,0.146616,20.8195,401.446,2.04506,0.0,0.0
1593,398,54.3025,57.2504,148.266,115.214,90.1286,0.00292472,0.141036,20.8331,401.215,2.19949,0.0,0.0
1620,404.75,54.239,57.106,154.235,115.213,97.3484,0.00200529,0.134373,20.8446,400.975,1.50917,0.0,0.0
1647,411.5,54.1805,56.8164,146.379,115.225,92.8638,0.00135151,0.130456,20.8524,400.805,1.93253,0.0,0.0
1674,418.25,53.5601,56.1802,144.471,115.235,96.0217,0.000808677,0.127904,20.8562,400.625,1.63377,0.0,0.0
1701,425,53.5374,55.7823,147.852,115.276,96.8236,0.000897373,0.126539,20.859,400.465,1.56246,0.0,0.0
1728,431.75,52.74,55.3412,145.202,115.339,98.5669,4.40212e-05,0.126633,20.8586,400.315,1.40755,0.0,0.0
1755,438.5,52.8224,55.475,149.898,115.388,95.5024,-0.000488742,0.125261,20.8631,400.184,1.69422,0.0,0.0
1782,445.25,52.5313,55.2034,147.191,115.417,100.76,-0.000501916,0.12505,20.8648,400.094,1.21653,0.0,0.0
1809,452,52.5863,55.1654,151.458,115.443,100.93,-0.00173588,0.124473,20.865,399.964,1.20342,0.0,0.0
1836,458.75,52.1239,54.6921,151.202,115.46,105.799,-0.00192011,0.119931,20.875,399.874,0.782733,0.0,0.0
1863,465.5,51.9858,54.3079,148.781,115.487,104.325,-0.002674,0.11614,20.8818,399.764,0.910501,0.0,0.0
1890,472.25,51.4908,54.2191,147.579,115.502,105.625,-0.00313651,0.114355,20.8854,399.694,0.800717,0.0,0.0
1917,479,51.3029,53.7764,148.859,115.547,106.715,-0.00372981,0.111062,20.8913,399.644,0.712261,0.0,0.0
1944,485.75,51.3474,53.4609,152.521,115.536,107.093,-0.0038347,0.107311,20.8987,399.564,0.679692,0.0,0.0
1971,492.5,50.288,52.5829,148.595,115.531,107.792,-0.00434208,0.103108,20.9064,399.524,0.621075,0.0,0.0
1998,499.25,50.7174,52.9438,149.245,115.534,107.342,-0.00468004,0.0989153,20.9115,399.474,0.658725,0.0,0.0
2025,506,50.0827,52.2112,148.753,115.522,110.307,-0.00488251,0.0945702,20.9203,399.464,0.413744,0.0,0.0
2052,512.75,49.544,51.645,148.37,115.504,111.454,-0.00475142,0.0900753,20.9269,399.404,0.31975,0.0,0.0
2079,519.5,48.9856,50.9367,150.768,115.507,111.141,-0.00468962,0.0843371,20.9357,399.354,0.345164,0.0,0.0
2106,526.25,48.3306,50.1536,148.469,115.515,110.795,-0.00478137,0.0809724,20.9409,399.364,0.373668,0.0,0.0
2133,533,48.102,49.8232,150.997,115.5,111.487,-0.00480058,0.0777611,20.9449,399.334,0.316747,0.0,0.0
2160,539.75,47.7709,50.0614,149.333,115.479,111.354,-0.0051252,0.0767965,20.9479,399.334,0.325809,0.0,0.0
2187,546.5,47.5901,49.2616,150.53,115.481,110.526,-0.00602561,0.0763278,20.9489,399.324,0.392861,0.0,0.0
2214,553.25,47.0556,49.0886,150.791,115.459,110.983,-0.00620794,0.0755627,20.9495,399.274,0.354123,0.0,0.0
2241,560,47.4609,48.3961,148.377,115.435,111.044,-0.00662352,0.0745726,20.9515,399.304,0.347371,0.0,0.0
2268,566.75,46.2376,48.4893,151.074,115.402,111.797,-0.00681641,0.0742233,20.9531,399.254,0.28422,0.0,0.0
2295,573.5,46.6874,48.4133,148.138,115.382,111.267,-0.00677858,0.0741794,20.9533,399.234,0.325318,0.0,0.0
2322,580.25,46.9417,48.4971,150.947,115.366,111.138,-0.00717226,0.0742761,20.9526,399.244,0.334394,0.0,0.0
2349,587,46.189,48.2069,147.727,115.35,110.955,-0.00719454,0.0745728,20.952,399.224,0.347923,0.0,0.0
2376,593.75,46.0925,47.7481,151.414,115.347,112.534,-0.0075853,0.075652,20.9498,399.214,0.221117,0.0,0.0
2403,600.5,45.664,47.9313,148.372,115.346,111.219,-0.00758737,0.0766023,20.949,399.184,0.326303,0.0,0.0
2430,607.25,45.7261,47.7566,149.996,115.327,111.05,-0.00727577,0.0773591,20.9477,399.184,0.338482,0.0,0.0
2457,614,45.7694,47.5141,149.36,115.312,112.281,-0.00715946,0.0767888,20.9468,399.164,0.238606,0.0,0.0
2484,620.75,45.2672,46.9296,154.447,115.307,111.138,-0.00734511,0.0760889,20.9479,399.164,0.329863,0.0,0.0
2511,627.5,45.3188,47.4445,153.85,115.334,111.457,-0.00728546,0.075758,20.948,399.133,0.306304,0.0,0.0
2538,634.25,44.8192,47.5824,148.476,115.375,111.164,-0.00728749,0.0759871,20.9488,399.073,0.333038,0.0,0.0
2565,641,45.2128,47.0205,151.2,115.425,111.311,,,,399.073,0.325108,0.0,0.0
2592,647.75,45.1923,47.034,147.855,115.477,111.097,,,,399.073,0.346296,0.0,0.0

File: PVC_Cone_HF75Scalar_220210_R1.csv
LABORATORY,FSRI
TEST IDENT,PVC_HF75_1
OPERATOR,Dow
MATERIAL,PVC
ORIENTATION,Horizontal
HEAT FLUX,75
SURF AREA,0.01
C FACTOR,0.0393671
SPEC HOLDER DIFF,303.22
SPECIMEN MASS,43.5
SCAN TIME,0.25
O2 DELAY TIME,11
CO DELAY TIME,11
CO2 DELAY TIME,8
FLOW FACTOR,1
SCAN COUNT,1892
TIME TO IGN,24.5
END OF TEST SCAN,1412
END OF TEST TIME,353
TEST STATUS,1
PRE TEST CMT,Dimensions: 98.49 x 98.91 x 3.13 mm
POST TEST CMT,"Sample shriveled prior to ignition, reducing exposed surface area. Sample expanded in height throughout test, reaching several centemeters above calibrated surface height, thereby increasing incident heat flux. Near end of test sample fell on its side."

File: PVC_Cone_HF75Scalar_220210_R2.csv
LABORATORY,FSRI
TEST IDENT,PVC_HF75_2
OPERATOR,Dow
MATERIAL,PVC
ORIENTATION,Horizontal
HEAT FLUX,75
SURF AREA,0.01
C FACTOR,0.0393671
SPEC HOLDER DIFF,303.6
SPECIMEN MASS,43.4
SCAN TIME,0.25
O2 DELAY TIME,11
CO DELAY TIME,11
CO2 DELAY TIME,8
FLOW FACTOR,1
SCAN COUNT,1779
TIME TO IGN,23.25
END OF TEST SCAN,1299
END OF TEST TIME,324.75
TEST STATUS,1
PRE TEST CMT,Dimensions: 98.88 x 98.79 x 3.12 mm; 60 mm spacing
POST TEST CMT,"Sample shriveled prior to ignition, reducing exposed surface area. Sample expanded in height throughout test, reaching several centemeters above calibrated surface height, thereby increasing incident heat flux. Sample fell on its side mid test after becoming unbalanced due to height expansion."

File: PVC_Cone_HF75Scalar_220210_R3.csv
LABORATORY,FSRI
TEST IDENT,PVC_HF75_3
OPERATOR,Dow
MATERIAL,PVC
ORIENTATION,Horizontal
HEAT FLUX,75
SURF AREA,0.01
C FACTOR,0.0393671
SPEC HOLDER DIFF,303.11
SPECIMEN MASS,43.4
SCAN TIME,0.25
O2 DELAY TIME,11
CO DELAY TIME,11
CO2 DELAY TIME,8
FLOW FACTOR,1
SCAN COUNT,1922
TIME TO IGN,23.25
END OF TEST SCAN,1442
END OF TEST TIME,360.5
TEST STATUS,1
PRE TEST CMT,Dimensions: 98.99 x 98.76 x 3.12 mm
POST TEST CMT,"Sample expanded in height throughout test, reaching several centemeters above calibrated surface height, thereby increasing incident heat flux. "