Folder: fsri_materials_database/01_Data/PVC/Cone

Note: 01_Data/README.md
# Materials and Products Database
## 01_Data

Raw data generated from each apparatus are included here in plain-text format. The data is organized first by material, next by the short name of test apparatus used, and where applicable additional filtering by test settings.

### material.json

Each material directory contains a json file of the same name as the material. This file links the data stored in the repository as well as data and graphs produced by the accompanying scripts (__02_Scripts__) to the respective landing page for the material on the front-end website.

File: PVC_Cone_HF25Scalar_220218_R1.csv
LABORATORY,FSRI
TEST IDENT,PVC_HF25_1
OPERATOR,Dow
MATERIAL,PVC
ORIENTATION,Horizontal
HEAT FLUX,25
SURF AREA,0.01
C FACTOR,0.0385692
SPEC HOLDER DIFF,305.6
SPECIMEN MASS,46.1
SCAN TIME,0.25
O2 DELAY TIME,11
CO DELAY TIME,11
CO2 DELAY TIME,8
FLOW FACTOR,1
SCAN COUNT,1455
TIME TO IGN,204.75
END OF TEST SCAN,975
END OF TEST TIME,243.75
TEST STATUS,1
PRE TEST CMT,Dimensions: 101.65 x 100.90 x 3.09 mm; 60 mm spacing
POST TEST CMT, Self extinguished after full surface burning. Unburned sample remained.

File: PVC_Cone_HF25Scalar_220218_R2.csv
LABORATORY,FSRI
TEST IDENT,PVC_HF25_2
OPERATOR,Dow
MATERIAL,PVC
ORIENTATION,Horizontal
HEAT FLUX,25
SURF AREA,0.01
C FACTOR,0.0385692
SPEC HOLDER DIFF,306
SPECIMEN MASS,46.3
SCAN TIME,0.25
O2 DELAY TIME,11
CO DELAY TIME,11
CO2 DELAY TIME,8
FLOW FACTOR,1
SCAN COUNT,3347
TIME TO IGN,321
END OF TEST SCAN,2867
END OF TEST TIME,716.75
TEST STATUS,1
PRE TEST CMT,Dimensions: 100.64 x 101.59 x 3.05 mm; 60 mm spacing
POST TEST CMT,"Sample self extinguished at approximately 6:20 with unburned material remaining. Spark ignitor was reinserted, but sample did not reignite after another 6 minutes."

File: PVC_Cone_HF25Scalar_220218_R3.csv
LABORATORY,FSRI
TEST IDENT,PVC_HF25_3
OPERATOR,Dow
MATERIAL,PVC
ORIENTATION,Horizontal
HEAT FLUX,25
SURF AREA,0.01
C FACTOR,0.0385692
SPEC HOLDER DIFF,305.33
SPECIMEN MASS,43.7
SCAN TIME,0.25
O2 DELAY TIME,11
CO DELAY TIME,11
CO2 DELAY TIME,8
FLOW FACTOR,1
SCAN COUNT,1688
TIME TO IGN,251
END OF TEST SCAN,1208
END OF TEST TIME,302
TEST STATUS,1
PRE TEST CMT,Dimensions: 98.97 x 99.17 x 3.14 mm; 60 mm spacing
POST TEST CMT,Sample self extinguished at approximately 6 minutes with unburned material remaining.

File: PVC_Cone_HF25Scan_220218_R1.csv
Names,Time,Stack TC,Smoke TC,Exh Press,Smoke Comp,Smoke Meas,CO Meter,CO2 Meter,O2 Meter,Sample Mass,Ext Coeff,Start Test,Flame Verif
Chan Gain,,500,500,1,1,1,1,1,1,1,1,1.0,1.0
Offset,,0,0,0.132436,0,0,0,0,0,0,0,0.0,0.0
Gain,,1,1,25.011,15.4219,15.1528,1,1,1,1.00089,1.02113,1.0,1.0
Units,sec,C,C,Pa,%,%,%,%,%,g,/m,,
Baseline,,26.395,26.5992,161.89,115.114,112.967,-0.00838998,0.059658,20.9674,-479.515,0.168645,,
15,3.5,24.4408,24.5616,162.84,115.185,112.984,-0.00829988,0.060149,20.9711,439.339,0.17283,0.0,0.0
30,7.25,24.3181,24.5644,160.371,115.233,113.429,-0.00822113,0.0642404,20.9638,439.309,0.141293,0.0,0.0
45,11,24.3344,24.4552,161.235,115.265,113.093,-0.00804569,0.0680503,20.9586,439.299,0.170366,0.0,0.0
60,14.75,24.8089,24.7848,164.621,115.303,113.08,-0.00827002,0.068279,20.9584,439.229,0.174391,0.0,0.0
75,18.5,24.7041,25.151,159.635,115.375,112.68,-0.00876917,0.0664614,20.9601,439.319,0.211686,0.0,0.0
90,22.25,25.0688,24.9797,154.612,115.491,113.659,-0.0086806,0.0663995,20.9589,439.319,0.143223,0.0,0.0
105,26,25.0093,24.6469,158.495,115.59,114.035,-0.0084895,0.0704724,20.954,439.279,0.121269,0.0,0.0
120,29.75,24.8197,25.0055,161.684,115.673,113.528,-0.00857611,0.0736584,20.9478,439.269,0.167658,0.0,0.0
135,33.5,24.9945,25.1923,161.415,115.777,113.761,-0.0086455,0.0785493,20.9421,439.269,0.157374,0.0,0.0
150,37.25,24.7313,25.3533,160.867,115.904,113.739,-0.00836152,0.0857995,20.9315,439.299,0.168912,0.0,0.0
165,41,24.8803,25.1973,159.31,116.054,114.734,-0.00841082,0.0933166,20.9244,439.269,0.102477,0.0,0.0
180,44.75,24.2916,25.1177,161.277,116.182,114.156,-0.00839752,0.0910348,20.9301,439.259,0.157521,0.0,0.0
195,48.5,24.2916,24.891,157.633,116.311,114.04,-0.00845191,0.0840534,20.9365,439.279,0.176642,0.0,0.0
210,52.25,24.9805,25.056,165.121,116.408,114.411,-0.00854913,0.0811289,20.9396,439.259,0.155023,0.0,0.0
225,56,25.1208,25.4272,160.416,116.504,114.049,-0.00860978,0.0816141,20.9386,439.249,0.190764,0.0,0.0
240,59.75,24.8714,25.0103,159.611,116.624,113.761,-0.00852588,0.0823596,20.9367,439.229,0.222568,0.0,0.0
255,63.5,25.0891,25.6416,164.957,116.755,114.543,-0.00840491,0.0831198,20.9362,439.239,0.171288,0.0,0.0
270,67.25,25.1935,25.9073,159.491,116.833,114.351,-0.00814852,0.0850866,20.9361,439.229,0.192336,0.0,0.0
285,71,24.975,25.363,167.478,116.917,114.978,-0.00814079,0.0835894,20.9383,439.229,0.149737,0.0,0.0
300,74.75,24.1328,25.1338,162.64,116.989,114.045,-0.00812112,0.080735,20.9427,439.239,0.228282,0.0,0.0
315,78.5,25.325,25.562,164.881,117.08,113.843,-0.00821391,0.0764613,20.9482,439.219,0.25112,0.0,0.0
330,82.25,25.1703,25.4918,160.024,117.149,112.151,-0.0082535,0.075347,20.949,439.209,0.390503,0.0,0.0
345,86,24.6308,25.7566,161.368,117.193,110.907,-0.00824913,0.0787788,20.9462,439.119,0.493827,0.0,0.0
360,89.75,25.1213,26.0388,163.108,117.21,110.505,-0.00829923,0.0818315,20.9425,438.989,0.527637,0.0,0.0
375,93.5,25.6881,26.2704,159.671,117.225,110.908,-0.00851407,0.0831403,20.9416,438.859,0.496234,0.0,0.0
390,97.25,25.9547,26.7825,162.192,117.249,111.039,-0.00831438,0.0840757,20.9439,438.699,0.48747,0.0,0.0
405,101,25.7073,26.8278,161.159,117.283,109.767,-0.00803441,0.0834102,20.9478,438.478,0.593234,0.0,0.0
420,104.75,25.6832,26.2911,156.053,117.279,109.621,-0.00795442,0.083391,20.9491,438.298,0.604805,0.0,0.0
435,108.5,26.0269,26.8999,163.401,117.275,109.184,-0.00801925,0.082993,20.9494,438.058,0.640296,0.0,0.0
450,112.25,25.8085,26.5701,159.62,117.289,109.218,-0.00791021,0.0828809,20.9494,437.828,0.638606,0.0,0.0
465,116,26.0837,26.518,160.381,117.3,108.169,-0.00779786,0.0819084,20.9508,437.618,0.725935,0.0,0.0
480,119.75,26.1765,26.7781,164.236,117.306,109.048,-0.00811801,0.0800072,20.9512,437.377,0.653828,0.0,0.0
495,123.5,25.5547,26.3795,161.744,117.3,108.124,-0.00831221,0.078814,20.9511,437.147,0.729612,0.0,0.0
510,127.25,26.1052,27.2539,162.057,117.285,106.832,-0.00814453,0.0775982,20.9518,436.877,0.836104,0.0,0.0
525,131,26.2668,27.0281,159.989,117.286,107.886,-0.00790883,0.0760714,20.9543,436.637,0.748286,0.0,0.0
540,134.75,26.1413,27.2177,159.718,117.295,108.322,-0.00799587,0.0749595,20.9565,436.406,0.712874,0.0,0.0
555,138.5,26.3122,26.7434,160.44,117.301,109.222,-0.00806716,0.074445,20.9559,436.176,0.639198,0.0,0.0
570,142.25,26.1135,27.0241,163.846,117.286,107.988,-0.00787253,0.0752305,20.957,435.916,0.739844,0.0,0.0
585,146,26.1549,26.6797,160.518,117.271,108.518,-0.00781078,0.0756729,20.9578,435.706,0.694843,0.0,0.0
600,149.75,25.2241,26.3507,159.286,117.283,108.541,-0.00781529,0.0757169,20.9579,435.486,0.69387,0.0,0.0
615,153.5,26.3504,26.7709,161.386,117.321,109.964,-0.00776741,0.0745132,20.9599,435.276,0.580046,0.0,0.0
630,157.25,26.0575,26.7765,159.435,117.316,107.478,-0.00782424,0.0710941,20.9643,435.045,0.78455,0.0,0.0
645,161,26.0399,27.4297,159.25,117.33,109.395,-0.00796655,0.0681462,20.9667,434.865,0.627292,0.0,0.0
660,164.75,26.1169,27.3741,157.742,117.336,108.866,-0.00800787,0.0662465,20.9688,434.645,0.671069,0.0,0.0
675,168.5,26.0473,26.8962,163.275,117.359,109.742,-0.00784221,0.0659659,20.9693,434.475,0.601019,0.0,0.0
690,172.25,26.4068,26.5982,163.475,117.381,108.579,-0.00757724,0.066934,20.9678,434.275,0.698213,0.0,0.0
705,176,25.9203,27.4503,160.077,117.395,109.196,-0.00746081,0.0683512,20.9655,434.115,0.648544,0.0,0.0
720,179.75,25.8552,27.313,161.841,117.399,109.268,-0.00729421,0.0697468,20.9632,433.944,0.642878,0.0,0.0
735,183.5,25.9452,27.0685,159.287,117.388,110.614,-0.00714754,0.070163,20.9627,433.774,0.532379,0.0,0.0
750,187.25,26.4641,27.1425,160.348,117.383,109.693,-0.00703256,0.0700082,20.9622,433.604,0.60689,0.0,0.0
765,191,26.4352,27.2175,162.127,117.394,107.874,-0.0074248,0.0689864,20.9634,433.454,0.757548,0.0,0.0
780,194.75,26.8533,27.5178,160.31,117.392,110.486,-0.00776105,0.0679936,20.965,433.304,0.543084,0.0,0.0
795,198.5,26.018,27.1608,162.127,117.387,108.997,-0.00759517,0.0664441,20.9654,433.144,0.664223,0.0,0.0
810,202.25,26.6505,27.7008,159.275,117.349,109.637,-0.0058882,0.0686359,20.9527,432.993,0.608912,0.0,0.0
825,206,26.8605,27.7012,153.712,117.361,85.7484,-0.00154641,0.0960231,20.8852,432.853,2.81108,0.0,1.0
840,209.75,26.6015,27.4556,157.201,117.331,70.7237,0.0030478,0.131653,20.8256,432.493,4.53431,0.0,1.0
855,213.5,28.1515,28.9998,150.552,117.31,68.8578,0.00684325,0.161923,20.7777,432.133,4.77218,0.0,0.0
870,217.25,28.2617,30.0146,152.329,117.287,69.4197,0.00873607,0.181433,20.7482,431.772,4.69767,0.0,0.0
885,221,29.7231,30.4981,157.516,117.258,71.5982,0.00929954,0.185706,20.746,431.432,4.4187,0.0,0.0
900,224.75,30.0837,32.045,151.171,117.235,78.3806,0.00901113,0.179562,20.7629,431.092,3.60621,0.0,0.0
915,228.5,30.9564,32.6645,153.966,117.229,88.8879,0.00749814,0.171947,20.7805,430.812,2.47897,0.0,0.0
930,232.25,31.3013,33.0778,153.719,117.21,95.7605,0.00526424,0.163467,20.802,430.551,1.81041,0.0,0.0
945,236,31.5431,33.948,157.289,117.178,104.493,0.000831869,0.142374,20.8522,430.321,1.02626,0.0,0.0
960,239.75,31.2516,33.3352,160.093,117.134,108.203,-0.00300011,0.115326,20.9045,430.121,0.710409,0.0,0.0
975,243.5,31.1387,32.9827,161.144,117.09,107.396,-0.00571312,0.0929317,20.9412,429.971,0.774109,0.0,0.0
990,247.25,30.043,31.4054,162.687,117.045,109.337,-0.00705096,0.0770279,20.9628,429.811,0.610226,0.0,0.0
1005,251,29.5691,31.2936,160.087,116.994,109.905,-0.00745382,0.0685806,20.9717,429.741,0.559897,0.0,0.0
1020,254.75,28.4318,30.1525,160.2,116.952,109.802,-0.00771026,0.0662428,20.9724,429.58,0.565061,0.0,0.0
1035,258.5,28.2573,30.3296,160.484,116.911,110.57,-0.00778346,0.0655165,20.9704,429.46,0.499487,0.0,0.0
1050,262.25,28.4384,30.2505,159.438,116.878,110.906,-0.00774577,0.063993,20.9709,429.32,0.469806,0.0,0.0
1065,266,28.8484,30.3041,157.866,116.869,110.621,-0.00780864,0.0640084,20.9698,429.2,0.492082,0.0,0.0
1080,269.75,27.8881,29.6891,160.712,116.848,110.838,-0.00803244,0.0645383,20.9687,429.09,0.472988,0.0,0.0
1095,273.5,27.6919,29.4361,161.309,116.832,111.538,-0.00813823,0.0643647,20.9704,429,0.415361,0.0,0.0
1110,277.25,27.6067,29.0851,161.397,116.796,111.662,-0.00812321,0.0642323,20.9713,428.89,0.402598,0.0,0.0
1125,281,27.2733,28.8228,159.964,116.765,111.513,-0.00820352,0.0632175,20.97,428.78,0.412242,0.0,0.0
1140,284.75,27.5249,28.5238,158.646,116.758,111.49,-0.00831735,0.062521,20.9692,428.69,0.413521,0.0,0.0
1155,288.5,27.0321,28.627,161.358,116.732,110.843,-0.0082208,0.0641002,20.9661,428.6,0.463698,0.0,0.0
1170,292.25,26.8795,28.3844,161.996,116.704,112.146,-0.00823804,0.0682616,20.9609,428.479,0.356875,0.0,0.0
1185,296,26.7953,28.0538,165.863,116.685,110.782,-0.00826843,0.0716817,20.9595,428.419,0.465057,0.0,0.0
1200,299.75,27.5434,28.0084,164.156,116.662,111.342,-0.00818275,0.0712944,20.96,428.329,0.418049,0.0,0.0
1215,303.5,26.8221,27.3687,158.565,116.64,111.09,-0.0079235,0.0706829,20.9617,428.209,0.436683,0.0,0.0
1230,307.25,26.793,27.8213,160.644,116.629,111.374,-0.00802619,0.0706153,20.9633,428.159,0.412952,0.0,0.0
1245,311,26.6995,27.7744,160.594,116.616,111.572,-0.00826352,0.0690973,20.9658,428.069,0.396072,0.0,0.0
1260,314.75,26.2319,27.4578,163.805,116.597,112.175,-0.00831805,0.0669146,20.9677,427.929,0.346347,0.0,0.0
1275,318.5,26.3117,27.1371,160.258,116.591,111.811,-0.00847491,0.0642094,20.9701,427.859,0.374984,0.0,0.0
1290,322.25,25.6045,27.1624,162.612,116.575,111.197,-0.00856677,0.0615183,20.9732,427.739,0.42305,0.0,0.0
1305,326,26.0589,26.8016,161.028,116.581,110.21,-0.00850569,0.0594472,20.9747,427.629,0.503365,0.0,0.0
1320,329.75,25.2743,26.3846,163.051,116.567,111.076,-0.00838534,0.0575028,20.9755,427.549,0.432163,0.0,0.0
1335,333.5,25.3664,25.8335,159.832,116.553,111.226,-0.0081513,0.0565433,20.9763,427.439,0.419039,0.0,0.0
1350,337.25,26.1963,26.4856,161.65,116.574,112.286,-0.00824524,0.0558895,20.9777,427.358,0.33568,0.0,0.0
1365,341,25.8456,26.9184,161.406,116.591,110.402,-0.00816651,0.0553625,20.9784,427.278,0.488541,0.0,0.0
1380,344.75,25.8728,26.7754,160.027,116.579,111.439,-0.00778094,0.0548309,20.9799,427.168,0.403914,0.0,0.0
1395,348.5,25.8253,27.0381,160.093,116.584,112.132,-0.0079336,0.054547,20.98,427.058,0.348733,0.0,0.0
1410,352.25,25.6382,26.6464,158.413,116.565,111.214,-0.00822989,0.0543376,20.9792,426.978,0.420911,0.0,0.0
1425,356,25.4334,26.2731,163.234,116.563,111.621,,,,426.888,0.388053,0.0,0.0
1440,359.75,25.4208,26.503,161.602,116.556,112.062,,,,426.798,0.352252,0.0,0.0
1455,363.5,26.0101,26.3296,157.562,116.54,111.535,,,,426.708,0.393185,0.0,0.0

File: PVC_Cone_HF25Scan_220218_R2.csv
Names,Time,Stack TC,Smoke TC,Exh Press,Smoke Comp,Smoke Meas,CO Meter,CO2 Meter,O2 Meter,Sample Mass,Ext Coeff,Start Test,Flame Verif
Chan Gain,,500,500,1,1,1,1,1,1,1,1,1.0,1.0
Offset,,0,0,0.132436,0,0,0,0,0,0,0,0.0,0.0
Gain,,1,1,25.011,15.4219,15.1528,1,1,1,1.00089,1.02113,1.0,1.0
Units,sec,C,C,Pa,%,%,%,%,%,g,/m,,
Baseline,,23.5566,24.3785,162.569,116.31,115.696,-0.00891854,0.0563413,20.975,-479.497,0.0474623,,
35,8.5,22.4201,22.9922,158.607,116.092,115.359,-0.0089041,0.0547469,20.9799,439.409,0.0567415,0.0,0.0
70,17.25,21.3451,22.659,163.37,115.994,115.097,-0.00889924,0.0589029,20.9738,439.399,0.0695317,0.0,0.0
105,26,22.4252,22.8822,163.743,115.839,115.57,-0.00897903,0.0537417,20.9815,439.379,0.0208275,0.0,0.0
140,34.75,22.6393,23.3837,162.902,115.654,114.969,-0.00900254,0.0520188,20.9843,439.419,0.0532277,0.0,0.0
175,43.5,22.905,23.6568,165.794,115.395,115.306,-0.00888027,0.0522715,20.9836,439.329,0.00685897,0.0,0.0
210,52.25,22.8377,23.2204,158.553,115.173,115.071,-0.00876753,0.0517164,20.9843,439.299,0.00790347,0.0,0.0
245,61,21.9729,23.5387,158.797,114.976,113.832,-0.00888803,0.0508823,20.9876,439.319,0.089582,0.0,0.0
280,69.75,22.8606,23.9873,165.177,114.777,114.278,-0.00879818,0.0505547,20.9878,439.279,0.0389768,0.0,0.0
315,78.5,23.3437,24.0075,160.367,114.665,113.556,-0.00870006,0.0504851,20.9868,439.339,0.0870635,0.0,0.0
350,87.25,22.6053,24.4684,162.001,114.62,112.449,-0.00899257,0.0519014,20.9865,439.149,0.171285,0.0,0.0
385,96,23.0777,23.6946,162.005,114.611,110.284,-0.00830581,0.052902,20.9864,438.779,0.344694,0.0,0.0
420,104.75,23.1132,24.2938,160.748,114.727,109.513,-0.00794999,0.0532959,20.9837,438.268,0.416604,0.0,0.0
455,113.5,23.7174,25.325,160.297,114.888,109.148,-0.00796497,0.0541154,20.9833,437.818,0.459091,0.0,0.0
490,122.25,23.8249,25.2527,159.238,115.135,108.488,-0.00807838,0.0546267,20.9824,437.217,0.532689,0.0,0.0
525,131,23.7952,25.6081,157.472,115.448,108.541,-0.00777039,0.0540115,20.982,436.707,0.552616,0.0,0.0
560,139.75,24.0443,25.2832,162.057,115.779,110.178,-0.00767411,0.0533907,20.9836,436.126,0.444128,0.0,0.0
595,148.5,24.1736,25.5541,158.468,116.102,111.065,-0.00820594,0.0533091,20.9834,435.586,0.397256,0.0,0.0
630,157.25,24.0036,25.247,160.254,116.288,109.817,-0.00787777,0.0534511,20.9823,435.115,0.512886,0.0,0.0
665,166,23.9144,25.0912,163.733,116.461,110.569,-0.00767143,0.0542075,20.9826,434.715,0.465022,0.0,0.0
700,174.75,23.6554,25.624,160.599,116.706,111.293,-0.00758523,0.055078,20.9813,434.245,0.425389,0.0,0.0
735,183.5,24.6683,25.7057,157.687,116.902,110.95,-0.00755576,0.0565624,20.9795,433.914,0.468097,0.0,0.0
770,192.25,24.7031,26.7119,159.321,117.028,111.798,-0.00766128,0.0541356,20.9831,433.394,0.409511,0.0,0.0
805,201,24.8264,26.1624,164.031,117.056,111.79,-0.00764395,0.0558718,20.9818,433.034,0.41234,0.0,0.0
840,209.75,24.5279,26.2762,156.137,117.036,111.068,-0.00737756,0.0556216,20.9768,432.713,0.468817,0.0,0.0
875,218.5,25.1686,26.3986,163.101,116.937,111.882,-0.00709572,0.0577427,20.9737,432.333,0.39589,0.0,0.0
910,227.25,25.0582,26.3245,161.286,116.784,110.811,-0.0073697,0.0575598,20.9746,432.073,0.47025,0.0,0.0
945,236,24.6862,26.5263,157.265,116.647,111.238,-0.00715621,0.057712,20.976,431.792,0.425266,0.0,0.0
980,244.75,25.1415,26.744,165.02,116.504,112.105,-0.00717933,0.0584377,20.9753,431.502,0.344798,0.0,0.0
1015,253.5,24.4603,26.3279,160.441,116.403,111.238,-0.00752668,0.0560704,20.979,431.132,0.406563,0.0,0.0
1050,262.25,25.2542,26.4946,160.135,116.327,111.309,-0.00774669,0.055203,20.9793,430.912,0.394924,0.0,0.0
1085,271,25.2507,26.3659,163.848,116.271,111.154,-0.00801702,0.0529109,20.9828,430.641,0.403196,0.0,0.0
1120,279.75,24.8221,27.0117,161.648,116.217,111.548,-0.00795978,0.0535622,20.9819,430.401,0.367296,0.0,0.0
1155,288.5,25.2536,26.8906,158.347,116.162,110.93,-0.00804962,0.0540382,20.9803,430.151,0.412761,0.0,0.0
1190,297.25,24.9641,27.1352,157.547,116.175,112.28,-0.00783957,0.0535116,20.9828,429.881,0.305477,0.0,0.0
1225,306,24.7555,26.3852,157.433,116.357,112.161,-0.00772895,0.0540146,20.9819,429.58,0.328959,0.0,0.0
1260,314.75,25.0062,26.5864,159.563,116.553,111.016,-0.00746091,0.0584162,20.9753,429.37,0.435963,0.0,0.0
1295,323.5,25.0295,26.7045,158.174,116.687,105.128,-0.00484443,0.0721122,20.9499,429.04,0.934368,0.0,1.0
1330,332.25,26.199,27.7631,153.831,116.774,74.4324,0.00269829,0.144841,20.8031,428.62,4.0339,0.0,0.0
1365,341,28.153,30.2538,155.693,116.833,86.0023,0.00366534,0.161633,20.7883,428.049,2.74427,0.0,0.0
1400,349.75,29.1027,31.7057,163.043,116.85,91.2351,0.00329535,0.157691,20.8052,427.459,2.21647,0.0,0.0
1435,358.5,30.6204,33.1042,156.807,116.873,102.28,0.00151665,0.153034,20.8219,426.878,1.19467,0.0,0.0
1470,367.25,30.7101,33.5787,157.765,116.872,106.944,-0.000912163,0.137424,20.8574,426.398,0.795149,0.0,0.0
1505,376,30.9016,33.0808,157.815,116.868,108.228,-0.00389056,0.0966743,20.9243,426.067,0.688021,0.0,0.0
1540,384.75,30.0968,32.2357,160.773,116.85,110.884,-0.0062273,0.069129,20.9639,425.827,0.469434,0.0,0.0
1575,393.5,28.6165,31.5972,163.495,116.795,112.268,-0.00724761,0.0582314,20.9762,425.547,0.354136,0.0,0.0
1610,402.25,27.9519,30.403,162.499,116.728,112.302,-0.00775646,0.0548394,20.9806,425.267,0.346207,0.0,0.0
1645,411,27.3843,29.6578,162.246,116.669,113.752,-0.00834119,0.0537888,20.9806,425.056,0.226802,0.0,0.0
1680,419.75,27.5679,28.6458,163.302,116.578,113.571,-0.00802024,0.0536235,20.9794,424.866,0.234074,0.0,0.0
1715,428.5,26.3593,28.3988,156.946,116.46,113.62,-0.0079055,0.0533369,20.9795,424.716,0.221129,0.0,0.0
1750,437.25,26.289,28.4024,159.319,116.247,113.54,-0.00815596,0.0533741,20.9815,424.436,0.211097,0.0,0.0
1785,446,26.3495,27.8533,159.67,116.06,113.473,-0.00825096,0.052906,20.9827,424.276,0.201907,0.0,0.0
1820,454.75,25.9489,28.1368,159.216,115.995,114,-0.0076079,0.052721,20.9837,424.116,0.155341,0.0,0.0
1855,463.5,25.9863,27.2826,160.59,116.031,113.759,-0.00770803,0.0526196,20.9825,423.865,0.177161,0.0,0.0
1890,472.25,25.6102,26.6956,162.631,116.054,113.145,-0.00790626,0.0527262,20.9808,423.765,0.227389,0.0,0.0
1925,481,25.2399,26.8703,159.987,116.064,113.777,-0.00814212,0.0529088,20.9807,423.605,0.178283,0.0,0.0
1960,489.75,25.533,27.3844,162.289,116.095,113.315,-0.00802859,0.0529873,20.9803,423.465,0.217124,0.0,0.0
1995,498.5,25.7272,26.7842,160.162,116.107,113.518,-0.00819675,0.0527669,20.981,423.195,0.202036,0.0,0.0
2030,507.25,25.1504,26.485,157.904,116.105,113.043,-0.00817018,0.0532311,20.9806,422.955,0.239442,0.0,0.0
2065,516,25.371,26.8897,159.97,116.134,113.788,-0.00744781,0.0529659,20.9799,422.834,0.182749,0.0,0.0
2100,524.75,25.2932,26.304,159.438,116.136,113.132,-0.00794291,0.0529228,20.9795,422.674,0.234696,0.0,0.0
2135,533.5,24.6832,26.4682,161.463,116.134,113.735,-0.00791503,0.0529308,20.981,422.504,0.186972,0.0,0.0
2170,542.25,25.2773,25.733,165.895,116.156,114.733,-0.00797192,0.0527284,20.9799,422.324,0.110356,0.0,0.0
2205,551,25.1824,26.7481,157.889,116.151,113.365,-0.00798708,0.0528425,20.9814,422.134,0.217497,0.0,0.0
2240,559.75,25.2888,26.7338,160.555,116.143,113.682,-0.00763853,0.0527635,20.9811,421.974,0.191887,0.0,0.0
2275,568.5,24.9629,26.9177,166.356,116.143,113.445,-0.00766974,0.0529452,20.9816,421.784,0.210598,0.0,0.0
2310,577.25,24.6693,26.8018,155.063,116.145,113.247,-0.00798756,0.0529191,20.9815,421.543,0.226384,0.0,0.0
2345,586,25.1097,26.7011,159.54,116.16,112.51,-0.00849982,0.0528268,20.98,421.533,0.285964,0.0,0.0
2380,594.75,25.5288,27.0579,159.011,116.148,113.399,-0.00780613,0.0527232,20.98,421.293,0.214503,0.0,0.0
2415,603.5,25.2911,27.0013,163.111,116.148,112.634,-0.00776202,0.0527212,20.9807,421.143,0.275195,0.0,0.0
2450,612.25,25.0402,27.1336,158.579,116.146,112.657,-0.00774073,0.0527142,20.9797,420.863,0.273248,0.0,0.0
2485,621,25.1933,26.6927,162.173,116.124,112.475,-0.0077888,0.0527987,20.9814,420.683,0.286003,0.0,0.0
2520,629.75,25.407,26.5534,158.81,116.138,113.022,-0.00794486,0.0529849,20.982,420.582,0.243559,0.0,0.0
2555,638.5,25.7209,26.6212,157.024,116.138,112.638,-0.00798473,0.0528988,20.982,420.412,0.274139,0.0,0.0
2590,647.25,25.0591,26.5496,163.292,116.167,112.855,-0.00775761,0.0528177,20.9813,420.162,0.259123,0.0,0.0
2625,656,24.6997,26.2414,162.853,116.205,113.463,-0.00787311,0.0534539,20.979,420.082,0.213891,0.0,0.0
2660,664.75,24.7695,26.7474,161.215,116.223,113.523,-0.00797947,0.0530734,20.9791,419.922,0.210561,0.0,0.0
2695,673.5,25.3026,26.844,163.417,116.258,113.882,-0.00758992,0.0532062,20.9795,419.652,0.184976,0.0,0.0
2730,682.25,25.3917,27.159,160.292,116.287,113.852,-0.00775224,0.0537879,20.9795,419.502,0.18948,0.0,0.0
2765,691,24.9855,26.8289,161.342,116.319,113.591,-0.00741441,0.0540266,20.9787,419.401,0.212559,0.0,0.0
2800,699.75,25.2539,26.8361,161.199,116.305,112.77,-0.00722595,0.0536413,20.9789,419.251,0.276432,0.0,0.0
2835,708.5,25.3204,26.8723,163.568,116.313,114.745,-0.00748894,0.056859,20.9737,419.051,0.121603,0.0,0.0
2870,717.25,24.6996,26.6863,163.668,116.357,113.241,-0.00760353,0.0549113,20.9765,418.861,0.243104,0.0,0.0
2905,726,24.7633,26.543,159.721,116.35,112.495,-0.00767378,0.0537255,20.9788,418.641,0.301793,0.0,0.0
2940,734.75,24.6085,26.197,158.504,116.35,113.209,-0.00745501,0.0536142,20.9793,418.511,0.245086,0.0,0.0
2975,743.5,24.9269,26.2421,163.285,116.339,113.801,-0.00774817,0.0534473,20.9781,418.381,0.197578,0.0,0.0
3010,752.25,24.6602,26.2817,163.881,116.311,113.558,-0.00781392,0.0535763,20.9781,418.14,0.214533,0.0,0.0
3045,761,24.9616,26.304,157.201,116.283,113.17,-0.00745324,0.0533878,20.9806,418.04,0.243049,0.0,0.0
3080,769.75,24.4012,26.3262,159.036,116.236,112.409,-0.00773671,0.0533594,20.979,417.84,0.299907,0.0,0.0
3115,778.5,24.2521,26.0009,160.548,116.192,113.391,-0.00753743,0.0535161,20.9789,417.75,0.218535,0.0,0.0
3150,787.25,25.0417,25.8412,161.916,116.09,112.199,-0.00735274,0.053655,20.9787,417.54,0.305365,0.0,0.0
3185,796,24.8034,25.8866,163.6,115.967,112.585,-0.00760669,0.053424,20.9788,417.4,0.265184,0.0,0.0
3220,804.75,25.1091,26.1,159.872,115.838,112.144,-0.00786696,0.0536315,20.9797,417.179,0.290275,0.0,0.0
3255,813.5,24.6403,26.2212,156.639,115.681,112.243,-0.00742738,0.05362,20.9787,417.039,0.27021,0.0,0.0
3290,822.25,24.7954,26.4334,159.504,115.583,112.315,-0.00768615,0.0534511,20.9779,416.819,0.256946,0.0,0.0
3325,831,24.9894,26.615,164.189,115.411,112.628,,,,416.719,0.218582,0.0,0.0
3347,836.5,24.8475,25.9322,158.542,115.35,111.696,,,,416.579,0.288355,0.0,0.0