Folder: fsri_materials_database/01_Data/PVC/Cone (part 4)

File: PVC_Cone_HF75Scan_220210_R1.csv
Names,Time,Stack TC,Smoke TC,Exh Press,Smoke Comp,Smoke Meas,CO Meter,CO2 Meter,O2 Meter,Sample Mass,Ext Coeff,Start Test,Flame Verif
Chan Gain,,500,500,1,1,1,1,1,1,1,1,1.0,1.0
Offset,,0,0,0.140898,0,0,0,0,0,0,0,0.0,0.0
Gain,,1,1,25.011,12.9668,12.6588,1,1,1,1.00088,1.01977,1.0,1.0
Units,sec,C,C,Pa,%,%,%,%,%,g,/m,,
Baseline,,43.8862,47.0906,151.339,98.1509,99.718,0.000233018,0.0724049,20.9689,-871.468,-0.141594,,
20,4.75,42.0663,45.1363,155.493,98.4071,99.6667,0.000121719,0.0799545,20.96,42.0369,-0.11377,0.0,0.0
40,9.75,42.643,45.2044,153.003,98.0561,100.022,0.000315429,0.0784191,20.9604,42.0069,-0.177541,0.0,0.0
60,14.75,42.5757,45.517,153.063,97.6521,91.0198,0.00219899,0.0797167,20.9557,41.6666,0.629166,0.0,0.0
80,19.75,44.4805,47.6455,140.264,97.3233,78.3818,0.0175137,0.142062,20.8641,40.5356,1.93619,0.0,0.0
100,24.75,48.7056,54.1116,138.025,97.2457,28.8888,0.0482678,0.342844,20.4665,39.3145,10.8577,0.0,1.0
120,29.75,52.4901,59.0807,132.202,97.4661,50.5237,0.0567513,0.436772,20.3188,37.8432,5.87764,0.0,0.0
140,34.75,54.7214,61.9781,138.204,97.939,71.3551,0.0356492,0.379252,20.4886,36.8624,2.83278,0.0,0.0
160,39.75,57.0926,65.0326,140.255,98.4799,81.1648,0.0285266,0.360168,20.5431,35.9215,1.72977,0.0,0.0
180,44.75,60.0843,68.5288,131.364,98.9255,53.9507,0.0383787,0.451644,20.384,34.8106,5.42352,0.0,0.0
200,49.75,61.6933,71.0415,135.002,99.144,28.5855,0.0502746,0.421031,20.3924,33.5294,11.1251,0.0,0.0
220,54.75,62.9903,72.491,133.46,99.1368,33.5057,0.0505948,0.370273,20.4554,32.3884,9.70378,0.0,0.0
240,59.75,64.5933,74.5302,136.662,98.914,39.2571,0.047019,0.333249,20.5185,31.3575,8.26654,0.0,0.0
260,64.75,65.1435,74.5124,137.456,98.6161,42.3628,0.0438219,0.320116,20.5417,30.2966,7.5585,0.0,0.0
280,69.75,65.4136,75.3408,138.697,98.3612,41.3858,0.0422682,0.305468,20.565,29.3658,7.74407,0.0,0.0
300,74.75,65.8566,75.716,135.18,98.7835,46.7108,0.0410001,0.300582,20.5742,28.3749,6.69966,0.0,0.0
320,79.75,66.6597,76.2736,136.499,98.884,48.1436,0.0391789,0.294428,20.5864,27.4441,6.43849,0.0,0.0
340,84.75,65.9593,75.5543,136.226,98.6386,47.0986,0.0379993,0.286355,20.5997,26.6634,6.61257,0.0,0.0
360,89.75,66.5261,75.876,135.98,98.0617,52.6504,0.0375163,0.284481,20.6049,25.7626,5.56331,0.0,0.0
380,94.75,66.9771,76.5614,139.052,98.1384,49.4123,0.0368393,0.280906,20.6123,24.9219,6.13812,0.0,0.0
400,99.75,66.8428,76.2512,138.448,98.2932,50.6767,0.0356726,0.271104,20.6272,24.1612,5.92618,0.0,0.0
420,104.75,67.0538,76.4548,136.025,98.4285,57.1915,0.0337579,0.262944,20.644,23.4506,4.85664,0.0,0.0
440,109.75,67.1174,76.3408,138.286,98.5049,60.1302,0.0310426,0.248167,20.6694,22.75,4.41536,0.0,0.0
460,114.75,66.9112,76.0087,140.612,98.4273,58.6082,0.0297922,0.237232,20.6878,22.1795,4.63766,0.0,0.0
480,119.75,66.433,75.4737,133.82,98.2374,61.5979,0.029174,0.233188,20.6915,21.5089,4.17532,0.0,0.0
500,124.75,66.55,75.3574,136.074,97.9861,63.7848,0.0277431,0.231603,20.6976,20.9384,3.84033,0.0,0.0
520,129.75,66.3779,74.942,140.337,97.7404,67.8689,0.0266557,0.227923,20.7023,20.4079,3.26269,0.0,0.0
540,134.75,66.6825,74.9443,138.274,97.4859,66.404,0.0260602,0.22756,20.7059,19.8174,3.43456,0.0,0.0
560,139.75,66.4928,74.5861,138.752,97.2884,66.0548,0.0262926,0.228794,20.704,19.2969,3.46359,0.0,0.0
580,144.75,66.7296,74.6087,135.365,97.1939,65.5143,0.0270398,0.231884,20.6981,18.7164,3.52839,0.0,0.0
600,149.75,66.454,74.2145,139.546,97.1978,65.9775,0.0269169,0.234222,20.6944,18.0559,3.46573,0.0,0.0
620,154.75,66.3055,74.2713,138.424,97.2501,64.0266,0.02739,0.237473,20.6853,17.4954,3.73903,0.0,0.0
640,159.75,66.5261,74.4932,139.248,97.3312,61.7582,0.0285102,0.241521,20.6773,16.8348,4.06917,0.0,0.0
660,164.75,66.8204,74.5278,134.007,97.4139,62.7421,0.0294771,0.244448,20.6707,16.2443,3.93537,0.0,0.0
680,169.75,66.8089,74.814,138.773,97.4812,64.9866,0.0296746,0.245864,20.6688,15.6838,3.62713,0.0,0.0
700,174.75,66.6297,74.4209,136.447,97.4875,65.3482,0.0295925,0.2452,20.6715,15.0532,3.57808,0.0,0.0
720,179.75,67.0737,74.9291,138.521,97.4618,67.1125,0.0292117,0.244886,20.6748,14.4127,3.33741,0.0,0.0
740,184.75,67.3245,74.9656,139.889,97.4206,65.9354,0.0291001,0.245336,20.6771,13.7921,3.49192,0.0,0.0
760,189.75,67.642,75.3577,134.202,97.3411,67.6151,0.0285248,0.247984,20.6751,13.2516,3.25958,0.0,0.0
780,194.75,67.1409,74.8229,132.479,97.2754,62.3323,0.0278076,0.247635,20.6753,12.6511,3.98127,0.0,0.0
800,199.75,67.5341,75.354,134.198,97.2006,64.2569,0.026382,0.244901,20.678,12.0906,3.70237,0.0,0.0
820,204.75,67.8039,75.4946,144.636,97.2038,64.119,0.026073,0.243985,20.6804,11.4901,3.72188,0.0,0.0
840,209.75,67.6439,75.2702,137.265,97.2738,65.0573,0.0259024,0.237924,20.6916,10.9796,3.59836,0.0,0.0
860,214.75,67.296,74.8462,138.439,97.4634,65.2061,0.0255182,0.230556,20.6999,10.4692,3.59535,0.0,0.0
880,219.75,67.2966,74.445,140.736,97.7115,74.2382,0.0239969,0.221386,20.7177,10.0688,2.45765,0.0,0.0
900,224.75,66.9611,74.3003,139.561,98.0011,76.823,0.0236048,0.212734,20.735,9.63846,2.17796,0.0,0.0
920,229.75,66.5895,73.6325,141.911,98.2777,78.2501,0.0236958,0.201579,20.7527,9.2181,2.03853,0.0,0.0
940,234.75,66.5972,73.4733,135.561,98.476,78.0268,0.0225672,0.195189,20.762,8.7677,2.08212,0.0,0.0
960,239.75,66.0746,72.8324,141.896,98.4981,79.3051,0.021083,0.192857,20.7669,8.44742,1.93877,0.0,0.0
980,244.75,65.6855,72.4393,143.336,98.3426,79.5859,0.0198852,0.19029,20.772,8.10712,1.89301,0.0,0.0
1000,249.75,65.557,71.8578,138.202,98.1713,75.2576,0.0198414,0.186144,20.7792,7.76682,2.37764,0.0,0.0
1020,254.75,65.3934,71.7353,141.714,98.0494,77.9738,0.0190594,0.185662,20.7817,7.44654,2.04936,0.0,0.0
1040,259.75,65.3378,71.4731,140.904,98.6861,75.7008,0.0185721,0.181982,20.7868,7.16629,2.37191,0.0,0.0
1060,264.75,64.9837,71.1853,144.205,98.9022,79.9576,0.0181456,0.179485,20.7916,6.86603,1.90209,0.0,0.0
1080,269.75,64.562,70.6965,137.838,98.6632,77.3028,0.0173177,0.175184,20.7978,6.62582,2.1825,0.0,0.0
1100,274.75,64.6134,70.61,144.417,98.4708,78.8504,0.0163026,0.1717,20.8024,6.33556,1.98773,0.0,0.0
1120,279.75,64.1481,69.8475,141.891,98.8171,78.6221,0.0157656,0.169409,20.8068,6.13539,2.04506,0.0,0.0
1140,284.75,63.6885,69.5439,145.982,99.1111,81.2826,0.0145046,0.167101,20.8109,5.86515,1.77394,0.0,0.0
1160,289.75,63.6985,69.3485,141.681,99.1155,78.0608,0.0132454,0.167073,20.8125,5.61493,2.13613,0.0,0.0
1180,294.75,63.1724,68.8026,139.782,98.7815,79.3727,0.0124121,0.164815,20.8166,5.4648,1.95684,0.0,0.0
1200,299.75,63.1671,68.4158,142.864,98.1468,82.7711,0.0113873,0.162816,20.8208,5.30466,1.52415,0.0,0.0
1220,304.75,62.8151,67.9409,145.065,97.5188,82.1403,0.0106229,0.162187,20.8234,5.09447,1.53516,0.0,0.0
1240,309.75,62.4109,67.8498,140.418,97.2216,83.6736,0.00968544,0.160847,20.8259,4.99439,1.34242,0.0,0.0
1260,314.75,62.333,67.4786,146.213,97.4258,85.4827,0.00915987,0.157574,20.8336,4.87428,1.16984,0.0,0.0
1280,319.75,61.3041,66.3185,144.984,97.9655,86.8769,0.00868237,0.155285,20.8406,4.72415,1.07454,0.0,0.0
1300,324.75,61.8396,66.8348,144.078,98.4202,87.9053,0.00787898,0.149521,20.8504,4.60404,1.0107,0.0,0.0
1320,329.75,61.3487,65.9703,145.096,98.4942,90.6145,0.00674258,0.145306,20.8584,4.54399,0.74589,0.0,0.0
1340,334.75,60.9027,65.5762,146.861,98.2018,93.5668,0.00568567,0.140045,20.8681,4.51396,0.432498,0.0,0.0
1360,339.75,60.6217,65.0945,145.032,98.1365,95.4682,0.00550922,0.133495,20.881,4.42389,0.246585,0.0,0.0
1380,344.75,60.1393,64.416,143.605,98.846,96.1126,0.00533646,0.127507,20.8926,4.36383,0.250851,0.0,0.0
1400,349.75,59.6939,63.7407,142.907,98.6184,97.3643,0.00595805,0.120286,20.9032,4.3238,0.114494,0.0,0.0
1420,354.75,58.3546,62.3218,141.065,98.6062,98.1137,0.00583947,0.112969,20.9165,4.3238,0.0447882,0.0,0.0
1440,359.75,58.063,61.6986,144.848,99.0692,98.6797,0.00567439,0.112073,20.9203,4.29377,0.0352379,0.0,0.0
1460,364.75,57.3578,61.2943,151.129,99.0719,97.8302,0.0055078,0.110378,20.9209,4.24373,0.112831,0.0,0.0
1480,369.75,57.1714,60.5703,149.009,98.442,97.5655,0.00470323,0.105559,20.9274,4.2137,0.0799973,0.0,0.0
1500,374.75,56.3851,59.8807,147.99,97.6379,96.7759,0.00390955,0.100674,20.9349,4.19368,0.079322,0.0,0.0
1520,379.75,55.6096,59.7753,146.482,97.2354,94.99,0.00318166,0.0976531,20.9385,4.2137,0.208998,0.0,0.0
1540,384.75,55.4787,59.4815,146.709,97.5963,95.7962,0.00268957,0.0972435,20.9399,4.15365,0.166533,0.0,0.0
1560,389.75,55.6619,58.3187,146.914,98.2453,96.7844,0.00214624,0.0968753,20.9409,4.13363,0.134015,0.0,0.0
1580,394.75,55.574,58.5693,146.986,98.5076,96.8547,0.00186448,0.0957329,20.9439,4.11361,0.151375,0.0,0.0
1600,399.75,54.6966,58.0388,146.324,98.2124,96.6747,0.00171391,0.0933086,20.9484,4.12362,0.14117,0.0,0.0
1620,404.75,54.6221,57.7688,145.886,98.1194,96.8037,0.00127215,0.0923018,20.9487,4.08359,0.120764,0.0,0.0
1640,409.75,54.633,57.9209,148.617,98.8246,97.6049,0.00118862,0.0922535,20.9489,4.05356,0.11109,0.0,0.0
1660,414.75,54.4042,57.6145,151.785,98.3414,97.6351,0.00151819,0.0929767,20.9492,4.02353,0.0644859,0.0,0.0
1680,419.75,55.0796,57.3428,148.272,98.7941,97.9267,0.00159894,0.0937141,20.9492,4.00352,0.0788875,0.0,0.0
1700,424.75,54.4311,56.6832,148.077,99.1356,98.186,0.00151943,0.0935,20.9492,4.01353,0.0861071,0.0,0.0
1720,429.75,53.9974,56.9743,149.753,98.7205,96.7771,0.001381,0.0929158,20.9492,3.94346,0.177861,0.0,0.0
1740,434.75,53.6042,56.96,144.184,97.7372,95.7178,0.00106182,0.0927476,20.9502,3.97349,0.186762,0.0,0.0
1760,439.75,53.5398,56.5115,149.383,97.2619,96.7519,0.000963228,0.0926217,20.9499,3.93345,0.0470288,0.0,0.0
1780,444.75,54.2042,56.7569,146.144,97.7142,96.3467,0.00117719,0.0921616,20.9504,3.92345,0.126077,0.0,0.0
1800,449.75,53.4403,56.418,148.146,98.3889,97.1054,0.000957889,0.0919279,20.9505,3.90343,0.117462,0.0,0.0
1820,454.75,52.957,56.6024,149.482,98.4689,97.0857,0.000840545,0.0918792,20.9504,3.90343,0.126542,0.0,0.0
1840,459.75,53.0436,56.5416,140.33,98.0126,96.2602,0.000999026,0.0919696,20.9499,3.85338,0.161388,0.0,0.0
1860,464.75,52.9456,55.3578,146.968,98.7063,96.4777,,0.0913935,,3.92345,0.204287,0.0,0.0
1880,469.75,53.3583,56.8382,148.981,98.5286,96.14,,,,3.83337,0.219531,0.0,0.0
1892,472.75,53.4573,56.4335,144.663,98.4954,97.8943,,,,3.80334,0.0547585,0.0,0.0

File: PVC_Cone_HF75Scan_220210_R2.csv
Names,Time,Stack TC,Smoke TC,Exh Press,Smoke Comp,Smoke Meas,CO Meter,CO2 Meter,O2 Meter,Sample Mass,Ext Coeff,Start Test,Flame Verif
Chan Gain,,500,500,1,1,1,1,1,1,1,1,1.0,1.0
Offset,,0,0,0.140898,0,0,0,0,0,0,0,0.0,0.0
Gain,,1,1,25.011,12.9668,12.6588,1,1,1,1.00088,1.01977,1.0,1.0
Units,sec,C,C,Pa,%,%,%,%,%,g,/m,,
Baseline,,47.9387,50.5723,149.955,98.8686,98.7801,-0.000172506,0.0658335,20.9802,-865.195,0.00813307,,
18,4.25,45.645,48.6501,149.644,98.383,99.5891,-0.000177454,0.0736813,20.9685,42.1971,-0.108992,0.0,0.0
36,8.75,46.078,48.8071,145.991,98.5326,98.1674,-0.000159262,0.0732107,20.9692,42.137,0.0332143,0.0,0.0
54,13.25,46.8176,49.0339,150.243,98.6086,92.2954,0.00115418,0.0724861,20.9714,41.9368,0.591857,0.0,0.0
72,17.75,47.0779,50.1382,142.333,98.5998,82.2083,0.0107315,0.0986562,20.9252,41.0961,1.62639,0.0,0.0
90,22.25,50.7431,54.2326,130.906,98.4962,68.207,0.0353463,0.255516,20.618,39.7449,3.28715,0.0,0.0
108,26.75,54.3922,59.8624,133.311,98.2801,29.8028,0.0586061,0.416156,20.3523,38.6339,10.6737,0.0,1.0
126,31.25,56.9255,63.3935,135.981,98.0474,73.1646,0.056505,0.46452,20.287,37.4329,2.61866,0.0,0.0
144,35.75,60.238,67.5396,136.874,97.7752,39.8208,0.0555596,0.485411,20.279,36.5021,8.03543,0.0,0.0
162,40.25,62.4467,70.878,136.929,97.5457,27.4865,0.0668388,0.480879,20.2657,35.251,11.3304,0.0,0.0
180,44.75,64.8921,72.8081,136.831,97.3985,27.8492,0.0650431,0.415989,20.3484,33.9999,11.1996,0.0,0.0
198,49.25,66.1562,75.2837,134.213,97.3886,31.1062,0.0603765,0.372189,20.4129,32.8188,10.2093,0.0,0.0
216,53.75,67.0384,76.5568,139.128,97.4954,30.6349,0.0556868,0.349541,20.4503,31.838,10.3557,0.0,0.0
234,58.25,68.0918,77.4176,137.15,97.7087,32.237,0.0519392,0.334229,20.4761,30.797,9.91927,0.0,0.0
252,62.75,68.3984,78.0922,135.147,98.0189,34.2196,0.0489214,0.321079,20.5061,29.7561,9.41374,0.0,0.0
270,67.25,69.3931,78.5352,137.998,98.3652,38.3211,0.0457467,0.308794,20.5296,28.7853,8.43265,0.0,0.0
288,71.75,69.6872,79.196,137.338,98.7217,40.0495,0.0428536,0.29294,20.5603,27.9345,8.07039,0.0,0.0
306,76.25,69.0608,79.0448,139.526,98.9936,38.5498,0.0414395,0.285261,20.5739,27.0738,8.43638,0.0,0.0
324,80.75,70.1275,78.7695,136.319,99.1709,45.1983,0.0398868,0.281625,20.5801,26.243,7.02911,0.0,0.0
342,85.25,69.7526,79.1117,135.578,99.2235,40.9214,0.038066,0.278531,20.592,25.4223,7.92308,0.0,0.0
360,89.75,69.8242,79.2259,138.376,99.1776,47.1477,0.0374086,0.274515,20.6001,24.6817,6.652,0.0,0.0
378,94.25,69.664,78.7079,136.588,99.0169,47.8515,0.03607,0.267054,20.6144,23.961,6.50494,0.0,0.0
396,98.75,69.6208,78.9213,136.294,98.8104,49.6672,0.0360385,0.258314,20.6272,23.2104,6.15311,0.0,0.0
414,103.25,69.9617,78.7708,139.38,98.6149,53.6262,0.0356168,0.253389,20.6356,22.5598,5.44936,0.0,0.0
432,107.75,69.913,78.3731,137.844,98.4534,55.0367,0.0343192,0.246267,20.6479,21.8892,5.20247,0.0,0.0
450,112.25,69.4765,78.5233,140.73,98.5832,56.1852,0.0333353,0.240046,20.66,21.3187,5.0295,0.0,0.0
468,116.75,69.0887,77.3274,134.033,98.8167,58.6468,0.0329259,0.232808,20.6718,20.6882,4.66708,0.0,0.0
486,121.25,68.8156,77.729,134.1,98.9045,58.5166,0.032718,0.228213,20.6773,20.0476,4.69491,0.0,0.0
504,125.75,68.6548,77.5389,140.81,98.8428,59.2375,0.0327644,0.227193,20.679,19.5071,4.5798,0.0,0.0
522,130.25,69.2873,76.9731,138.473,98.6782,58.7298,0.0337,0.230571,20.6753,18.8766,4.64188,0.0,0.0
540,134.75,68.7466,77.3432,136.721,98.4012,54.932,0.0357782,0.231725,20.6709,18.236,5.21475,0.0,0.0
558,139.25,68.8213,77.217,138.08,98.0174,55.773,0.0380608,0.236608,20.6577,17.6455,5.04387,0.0,0.0
576,143.75,69.3691,76.6604,136.361,98.0993,49.9914,0.039412,0.247421,20.6361,17.0149,6.03032,0.0,0.0
594,148.25,69.1435,77.1651,139.043,98.1903,51.391,0.0396402,0.26082,20.6131,16.3544,5.79161,0.0,0.0
612,152.75,68.7445,77.6345,132.327,98.2849,48.2309,0.0392355,0.271749,20.5998,15.6537,6.36792,0.0,0.0
630,157.25,69.7116,77.5044,138.921,98.4214,50.9796,0.0373456,0.267651,20.6094,14.9331,5.88454,0.0,0.0
648,161.75,70.1479,77.5446,140.259,98.5346,61.2397,0.0358354,0.259499,20.6275,14.2525,4.2545,0.0,0.0
666,166.25,69.6895,77.3108,139.725,98.5998,54.6955,0.0360638,0.256422,20.631,13.662,5.27138,0.0,0.0
684,170.75,69.488,77.3923,135.996,98.6192,54.6283,0.0357581,0.257845,20.6312,12.9814,5.28414,0.0,0.0
702,175.25,69.2804,77.4296,139.135,98.6141,61.3927,0.0338799,0.250109,20.6429,12.3508,4.2394,0.0,0.0
720,179.75,69.1397,76.4749,140.195,98.5433,64.1665,0.0312867,0.241101,20.6639,11.7503,3.83768,0.0,0.0
738,184.25,68.7131,76.3668,137.944,98.4352,55.6841,0.0295867,0.231174,20.6804,11.33,5.09619,0.0,0.0
756,188.75,68.6585,75.9339,137.376,98.3023,63.7574,0.028094,0.220841,20.698,10.7795,3.87299,0.0,0.0
774,193.25,68.4219,75.3176,142.102,98.1693,62.2322,0.026038,0.213683,20.7101,10.279,4.07747,0.0,0.0
792,197.75,67.8786,75.2863,137.181,97.9976,63.079,0.0244526,0.2091,20.7176,9.85866,3.94091,0.0,0.0
810,202.25,67.7821,74.7353,142.691,97.8405,63.7141,0.0230658,0.202432,20.7337,9.42828,3.83694,0.0,0.0
828,206.75,67.3754,74.1837,139.208,97.7008,64.9098,0.0219167,0.198057,20.7402,9.05796,3.65785,0.0,0.0
846,211.25,66.7089,73.2241,138.202,97.5734,66.4485,0.0207435,0.19465,20.7466,8.6576,3.4366,0.0,0.0
864,215.75,66.3284,73.1005,137.706,97.4831,69.1133,0.0198721,0.191157,20.753,8.27727,3.07659,0.0,0.0
882,220.25,66.603,73.0101,140.814,97.4242,69.7677,0.0188337,0.185789,20.7635,7.967,2.98688,0.0,0.0
900,224.75,66.3784,72.1154,138.827,97.3648,70.562,0.0179942,0.181104,20.7724,7.65672,2.88016,0.0,0.0
918,229.25,66.1115,72.0365,142.616,97.3581,71.2438,0.0169729,0.178419,20.7772,7.35646,2.79352,0.0,0.0
936,233.75,65.5039,71.4294,139.78,97.389,71.3574,0.0162303,0.176131,20.781,7.08622,2.78211,0.0,0.0
954,238.25,65.3343,70.7775,144.715,97.4495,74.436,0.0162133,0.173895,20.7842,6.80598,2.40983,0.0,0.0
972,242.75,65.0045,70.4905,142.248,97.518,74.1126,0.0156065,0.173372,20.7855,6.57578,2.45506,0.0,0.0
990,247.25,64.7045,70.0324,145.763,97.6446,76.9968,0.0152687,0.170908,20.7911,6.29553,2.12514,0.0,0.0
1008,251.75,64.1233,69.688,138.97,97.7673,76.7353,0.0160344,0.162537,20.8054,6.08534,2.16681,0.0,0.0
1026,256.25,63.8555,69.0332,144.164,97.9212,76.7778,0.0160404,0.157027,20.8135,5.87516,2.17593,0.0,0.0
1044,260.75,63.5218,68.628,144.106,98.0751,77.6984,0.0154017,0.155302,20.8169,5.68499,2.08336,0.0,0.0
1062,265.25,63.2236,68.2348,147.075,98.2358,80.1071,0.0141363,0.153246,20.8222,5.49483,1.8249,0.0,0.0
1080,269.75,62.7647,67.5959,142.569,98.3925,79.2726,0.0116682,0.154725,20.8216,5.31467,1.93283,0.0,0.0
1098,274.25,62.9632,67.379,144.124,98.5373,81.2008,0.0103826,0.155167,20.8232,5.15453,1.73102,0.0,0.0
1116,278.75,62.4799,67.1604,144.922,98.6909,82.2307,0.00946781,0.155371,20.8244,4.98438,1.6322,0.0,0.0
1134,283.25,62.3858,66.635,144.108,98.8108,85.0454,0.00842057,0.152315,20.8312,4.87428,1.34199,0.0,0.0
1152,287.75,62.1654,66.7436,145.009,98.9524,86.1155,0.00756596,0.148429,20.8377,4.71414,1.24296,0.0,0.0
1170,292.25,61.5878,66.1755,143.257,99.0593,88.3588,0.00680921,0.144577,20.8469,4.67411,1.02256,0.0,0.0
1188,296.75,61.1522,65.7228,141.661,99.1345,91.155,0.00616335,0.141308,20.8534,4.554,0.750657,0.0,0.0
1206,301.25,61.0858,65.4423,144.97,99.193,88.8058,0.00545555,0.139473,20.8574,4.51396,0.989496,0.0,0.0
1224,305.75,60.9988,65.26,146.447,99.2294,94.6879,0.0049464,0.137414,20.8625,4.41388,0.41908,0.0,0.0
1242,310.25,60.8081,64.8889,146.502,99.2136,95.8151,0.00438808,0.135044,20.8691,4.36383,0.311785,0.0,0.0
1260,314.75,59.9642,65.2676,141.552,99.1768,96.6252,0.00400867,0.133067,20.8736,4.25374,0.233153,0.0,0.0
1278,319.25,60.1287,64.0973,144.158,99.1072,95.8035,0.00423296,0.129989,20.8785,4.28376,0.303266,0.0,0.0
1296,323.75,59.441,63.7145,147.095,98.9817,98.6831,0.00434827,0.1244,20.8876,4.27375,0.0270246,0.0,0.0
1314,328.25,58.8788,62.5489,144.327,98.8563,97.9221,0.00445474,0.118887,20.8991,4.23372,0.0849337,0.0,0.0
1332,332.75,58.4128,61.7265,149.248,98.7008,97.7502,0.00447807,0.114713,20.9046,4.17367,0.0865687,0.0,0.0
1350,337.25,57.6551,61.5414,144.665,98.5536,98.563,0.0044064,0.112864,20.9072,4.16366,-0.0008574,0.0,0.0
1368,341.75,56.995,60.8236,147.938,98.4566,97.6918,0.00430867,0.110759,20.9105,4.13363,0.0697525,0.0,0.0
1386,346.25,57.3578,60.6744,146.665,98.5318,98.1543,0.00374867,0.108297,20.9153,4.07358,0.0343382,0.0,0.0
1404,350.75,56.8957,60.3834,147.184,98.7534,98.4127,0.00293909,0.10556,20.9194,4.06357,0.0309117,0.0,0.0
1422,355.25,56.3923,59.6821,147.875,98.8677,98.3795,0.00224228,0.103725,20.9204,4.04355,0.0442852,0.0,0.0
1440,359.75,56.4995,59.7482,144.836,98.9251,98.1485,0.00174615,0.102654,20.9222,4.06357,0.0705058,0.0,0.0
1458,364.25,56.5445,59.3049,147.177,98.8804,98.3667,0.00146118,0.101913,20.9249,4.03354,0.0465907,0.0,0.0
1476,368.75,55.5482,59.438,143.403,98.7581,99.0413,0.00107067,0.101229,20.9268,4.01353,-0.0256076,0.0,0.0
1494,373.25,55.6609,58.4945,145.52,98.565,98.872,0.00104888,0.100567,20.9286,3.97349,-0.0278205,0.0,0.0
1512,377.75,55.6967,59.0171,139.279,98.2758,97.3349,0.00110451,0.100542,20.9286,3.9835,0.0860522,0.0,0.0
1530,382.25,55.7656,58.2268,146.863,98.0304,97.6965,0.000945206,0.0999949,20.9299,3.97349,0.0305228,0.0,0.0
1548,386.75,55.2096,58.1835,149.846,98.1179,98.5727,0.000882817,0.100167,20.9283,3.95347,-0.0413671,0.0,0.0
1566,391.25,54.3692,57.9527,144.315,98.2172,97.0761,0.000766556,0.0999059,20.9292,3.95347,0.10454,0.0,0.0
1584,395.75,54.8402,57.6527,146.066,98.2801,97.9912,0.000657112,0.0993161,20.9311,3.93345,0.0263303,0.0,0.0
1602,400.25,54.9934,58.4752,146.211,98.3505,99.0042,0.000756596,0.0989491,20.933,3.91344,-0.0592523,0.0,0.0
1620,404.75,55.2245,58.3338,143.568,98.4443,99.3445,0.000744375,0.0993508,20.9333,3.91344,-0.0814251,0.0,0.0
1638,409.25,55.4807,58.1232,148.964,98.4962,99.1784,0.000628593,0.0990386,20.9318,3.88341,-0.0617457,0.0,0.0
1656,413.75,54.898,58.065,144.85,98.5571,98.0341,0.000697756,0.0976579,20.9331,3.92345,0.0475931,0.0,0.0
1674,418.25,54.9587,58.0933,145.438,98.6002,98.2439,0.000602839,0.0957568,20.9372,3.8734,0.0323877,0.0,0.0
1692,422.75,54.8679,57.6701,144.778,98.5892,98.6329,0.000799797,0.0948922,20.9403,3.89342,-0.00396937,0.0,0.0
1710,427.25,53.9737,57.4461,149.72,98.5903,97.2348,0.000856508,0.0944408,20.9418,3.88341,0.123842,0.0,0.0
1728,431.75,54.4095,57.5626,143.671,98.6145,99.3379,0.00076815,0.0944958,20.9424,3.90343,-0.0653854,0.0,0.0
1746,436.25,54.2592,57.6966,143.082,98.5832,98.3192,,0.0943801,,3.79333,0.0239877,0.0,0.0
1764,440.75,54.4217,58.0413,145.323,98.6101,98.6337,,,,3.79333,-0.00213619,0.0,0.0
1779,444.5,53.6882,57.9566,145.095,98.5923,98.5537,,,,3.79333,0.0035034,0.0,0.0