Folder: fsri_materials_database/01_Data/PVC/Cone (part 5)

File: PVC_Cone_HF75Scan_220210_R3.csv
Names,Time,Stack TC,Smoke TC,Exh Press,Smoke Comp,Smoke Meas,CO Meter,CO2 Meter,O2 Meter,Sample Mass,Ext Coeff,Start Test,Flame Verif
Chan Gain,,500,500,1,1,1,1,1,1,1,1,1.0,1.0
Offset,,0,0,0.140898,0,0,0,0,0,0,0,0.0,0.0
Gain,,1,1,25.011,12.9668,12.6588,1,1,1,1.00088,1.01977,1.0,1.0
Units,sec,C,C,Pa,%,%,%,%,%,g,/m,,
Baseline,,48.3095,51.135,149.746,98.4185,98.5487,-0.000260341,0.0654588,20.9773,-871.876,-0.0116756,,
20,4.75,46.0572,48.827,148.826,98.5583,99.0691,-0.000300453,0.0704606,20.968,41.4564,-0.0462392,0.0,0.0
40,9.75,46.9026,49.6619,151.181,98.5725,99.62,-0.000207427,0.0702007,20.9695,41.3663,-0.0945505,0.0,0.0
60,14.75,46.8426,49.4526,149.471,98.5741,90.5203,0.00336604,0.0737224,20.962,40.986,0.762457,0.0,0.0
80,19.75,49.0322,51.9869,140.493,98.5274,79.2352,0.0205042,0.152824,20.8143,39.815,1.94932,0.0,0.0
100,24.75,53.4128,58.1635,131.738,98.44,25.8801,0.0527088,0.36259,20.4588,38.4137,11.9507,0.0,1.0
120,29.75,56.9392,63.2209,135.373,98.3015,48.9367,0.0625405,0.441688,20.2988,36.9625,6.23947,0.0,0.0
140,34.75,60.1645,67.4575,135.814,98.1436,72.9583,0.0535696,0.465883,20.2957,35.8915,2.65268,0.0,0.0
160,39.75,62.7375,70.928,129.491,97.954,22.2615,0.0621403,0.481846,20.2775,34.5103,13.2538,0.0,0.0
180,44.75,65.7509,74.3099,133.754,97.7491,27.0789,0.0672019,0.434061,20.3015,33.0991,11.4827,0.0,0.0
200,49.75,66.9091,76.6564,139.068,97.5785,28.8923,0.0617884,0.369448,20.4048,31.8179,10.8872,0.0,0.0
220,54.75,68.0248,77.9856,134.705,97.4448,33.9824,0.0551724,0.336764,20.4628,30.6769,9.42341,0.0,0.0
240,59.75,68.9705,79.1423,135.471,97.3375,35.9198,0.0513113,0.323531,20.4874,29.586,8.91758,0.0,0.0
260,64.75,69.5451,79.447,134.87,97.3597,36.4158,0.0481059,0.310371,20.5155,28.415,8.79693,0.0,0.0
280,69.75,69.9008,80.8605,134.708,97.4732,37.3414,0.0456444,0.300075,20.5333,27.4041,8.58283,0.0,0.0
300,74.75,70.6941,80.9542,134.245,97.6762,39.2649,0.0424825,0.28956,20.5523,26.4332,8.15214,0.0,0.0
320,79.75,70.5938,80.7541,135.32,97.9992,40.3821,0.0400194,0.281384,20.5684,25.4423,7.93069,0.0,0.0
340,84.75,70.8668,80.9729,139.622,98.3695,42.6907,0.0380147,0.275203,20.583,24.6016,7.46711,0.0,0.0
360,89.75,71.0301,81.2022,134.946,98.6778,45.9725,0.0376031,0.272292,20.5921,23.6508,6.8326,0.0,0.0
380,94.75,71.0228,81.0394,138.048,98.9489,48.5373,0.0362832,0.26803,20.6021,22.8501,6.37151,0.0,0.0
400,99.75,70.8549,80.493,136.495,99.123,53.3469,0.0360112,0.259989,20.617,22.1294,5.54204,0.0,0.0
420,104.75,70.4038,79.9083,136.128,99.1903,56.0407,0.0370275,0.260308,20.6164,21.3287,5.10744,0.0,0.0
440,109.75,70.5807,80.2275,141.65,99.1107,62.5602,0.0368732,0.260331,20.6182,20.6481,4.11583,0.0,0.0
460,114.75,70.3198,79.7817,137.862,98.8903,60.3999,0.0360197,0.253829,20.6298,19.9375,4.41026,0.0,0.0
480,119.75,70.6478,79.3763,137.831,98.6295,60.1221,0.0345336,0.253728,20.6316,19.327,4.42788,0.0,0.0
500,124.75,69.9216,79.206,138.467,98.404,64.2855,0.0315656,0.24859,20.643,18.6864,3.80846,0.0,0.0
520,129.75,70.1418,78.7867,141.004,98.6461,67.4683,0.0291447,0.244813,20.655,18.0859,3.39816,0.0,0.0
540,134.75,70.1155,78.1619,141.714,98.8578,67.2659,0.0272515,0.242786,20.6638,17.5654,3.44422,0.0,0.0
560,139.75,69.3739,77.9763,139.942,98.785,71.0908,0.026454,0.241776,20.6672,16.9549,2.94291,0.0,0.0
580,144.75,69.6845,77.734,138.606,98.4293,68.3213,0.0273287,0.239681,20.6685,16.3844,3.26609,0.0,0.0
600,149.75,69.1144,78.5441,140.216,98.0063,66.1595,0.0295221,0.245532,20.6566,15.7338,3.51519,0.0,0.0
620,154.75,69.2044,77.6646,137.565,98.1551,63.8767,0.0290326,0.248689,20.6525,15.1333,3.84285,0.0,0.0
640,159.75,69.5305,77.4964,138.5,98.379,67.8268,0.0289504,0.250905,20.6479,14.4727,3.3265,0.0,0.0
660,164.75,69.8356,77.3908,141.45,98.5603,64.547,0.0296839,0.249792,20.6446,13.8722,3.78633,0.0,0.0
680,169.75,69.6213,77.2646,142.247,98.567,66.4998,0.0291421,0.251163,20.6438,13.3217,3.52032,0.0,0.0
700,174.75,69.0839,76.736,141.465,98.4111,69.7689,0.0286534,0.241028,20.6635,12.7812,3.07689,0.0,0.0
720,179.75,69.0794,76.4148,138.491,98.1274,67.5665,0.027981,0.234675,20.6768,12.2107,3.33799,0.0,0.0
740,184.75,69.2276,76.0366,141.534,97.7997,69.5769,0.0274785,0.224497,20.6924,11.7103,3.04579,0.0,0.0
760,189.75,68.7155,75.7241,139.599,97.4954,71.041,0.0272453,0.221366,20.6969,11.2098,2.83163,0.0,0.0
780,194.75,68.3392,75.6998,137.999,97.3371,67.0055,0.027053,0.219156,20.6979,10.7194,3.34024,0.0,0.0
800,199.75,68.4618,75.4045,138.324,97.3977,71.4447,0.0268567,0.219389,20.6974,10.279,2.77197,0.0,0.0
820,204.75,67.8845,74.5795,138.738,97.6687,71.5687,0.0253618,0.216145,20.7035,9.82863,2.78132,0.0,0.0
840,209.75,67.8974,74.3916,139.943,98.0652,72.1926,0.024539,0.211058,20.7149,9.42828,2.73991,0.0,0.0
860,214.75,67.0085,73.9269,141.818,98.5112,78.5081,0.0233115,0.204123,20.7273,9.03794,2.03031,0.0,0.0
880,219.75,67.4738,73.4272,142.626,98.8907,74.366,0.0230953,0.195676,20.7422,8.66761,2.54956,0.0,0.0
900,224.75,67.2402,73.2774,142.172,99.136,77.5365,0.0225532,0.190675,20.7518,8.31731,2.19826,0.0,0.0
920,229.75,66.2848,73.223,139.737,99.2053,79.3746,0.0208315,0.185778,20.7617,7.98701,1.99492,0.0,0.0
940,234.75,66.6235,72.4778,138.484,99.1111,79.9533,0.0188468,0.18521,20.7659,7.63671,1.92144,0.0,0.0
960,239.75,66.3019,72.4072,147.493,98.9073,83.3993,0.0187857,0.183454,20.7683,7.37648,1.52557,0.0,0.0
980,244.75,66.4405,71.7743,143.866,98.645,82.3894,0.0178133,0.17895,20.7753,7.04619,1.61079,0.0,0.0
1000,249.75,65.8194,71.9852,141.556,98.4317,81.2371,0.017477,0.176067,20.7788,6.75593,1.71742,0.0,0.0
1020,254.75,65.9697,70.8829,140.624,98.6477,84.4945,0.016815,0.173394,20.7834,6.52573,1.38535,0.0,0.0
1040,259.75,65.3507,71.2354,142.691,98.8741,82.7719,0.0159934,0.173244,20.785,6.23548,1.59011,0.0,0.0
1060,264.75,65.4269,70.9405,145.248,98.8614,81.2255,0.0152284,0.170736,20.7886,6.0353,1.75767,0.0,0.0
1080,269.75,64.5305,70.9645,145.27,98.62,83.2869,0.0145448,0.166624,20.7954,5.84513,1.51162,0.0,0.0
1100,274.75,64.6801,69.9729,140.939,98.1384,82.7035,0.014031,0.16369,20.8,5.67498,1.5307,0.0,0.0
1120,279.75,64.2718,69.6501,143.019,98.0838,84.2534,0.0132159,0.161474,20.804,5.51484,1.35963,0.0,0.0
1140,284.75,63.7567,69.165,139.177,98.2441,80.0086,0.012524,0.159469,20.8092,5.36471,1.83667,0.0,0.0
1160,289.75,63.7869,68.73,150.851,98.4344,86.197,0.0114382,0.156611,20.814,5.16454,1.18754,0.0,0.0
1180,294.75,63.941,68.1696,141.083,98.5464,84.9449,0.0108857,0.155678,20.8184,4.99439,1.3286,0.0,0.0
1200,299.75,63.2896,68.1306,149.007,98.5512,87.4363,0.0101143,0.154222,20.8219,4.90431,1.07045,0.0,0.0
1220,304.75,63.123,67.6267,147.661,98.4388,87.8195,0.00920255,0.151187,20.8299,4.70413,1.02112,0.0,0.0
1240,309.75,62.8731,67.003,144.32,98.1804,86.0421,0.00846341,0.147839,20.8361,4.57402,1.18052,0.0,0.0
1260,314.75,63.0007,66.4451,142.764,97.8812,86.3337,0.00778862,0.143277,20.8426,4.46392,1.12295,0.0,0.0
1280,319.75,61.743,66.7664,143.448,97.5821,91.5386,0.00729482,0.140406,20.8502,4.39386,0.571903,0.0,0.0
1300,324.75,62.3214,65.5947,144.104,97.3605,90.742,0.00602307,0.138216,20.8552,4.29377,0.629751,0.0,0.0
1320,329.75,61.4592,65.7991,146.89,97.2964,91.3949,0.00535373,0.134904,20.8612,4.24373,0.559729,0.0,0.0
1340,334.75,60.9833,65.3444,143.233,97.3878,91.2999,0.00493948,0.131182,20.8676,4.19368,0.577435,0.0,0.0
1360,339.75,60.6305,64.8892,143.304,97.662,94.3514,0.0041721,0.129595,20.8736,4.0936,0.308497,0.0,0.0
1380,344.75,60.3045,64.3729,143.82,98.0336,94.7524,0.0037562,0.127113,20.8793,4.03354,0.304528,0.0,0.0
1400,349.75,60.2758,63.6261,146.668,98.3957,95.0456,0.0035642,0.125478,20.8825,3.95347,0.309868,0.0,0.0
1420,354.75,59.7567,63.2794,142.388,98.7471,95.8596,0.00314394,0.121414,20.891,3.94346,0.265475,0.0,0.0
1440,359.75,59.0176,63.095,145.172,99.0161,98.8952,0.00335392,0.116192,20.8957,3.89342,0.01093,0.0,0.0
1460,364.75,58.5409,61.7855,147.079,99.1455,100.034,0.00390905,0.109476,20.9069,3.89342,-0.0798116,0.0,0.0
1480,369.75,57.9961,61.1135,140.557,99.1855,99.968,0.00381932,0.105812,20.914,3.8734,-0.070298,0.0,0.0
1500,374.75,57.5458,60.9327,147.117,99.14,99.8259,0.00343629,0.103885,20.9185,3.86339,-0.0616722,0.0,0.0
1520,379.75,56.2088,59.6381,146.439,99.0612,99.4164,0.00298451,0.100157,20.9238,3.81335,-0.0320104,0.0,0.0
1540,384.75,57.2975,60.1409,148.938,98.9718,99.1147,0.00236704,0.0971873,20.9289,3.78332,-0.0129006,0.0,0.0
1560,389.75,56.7186,59.52,149.461,98.8654,99.2588,0.00212454,0.0951388,20.9317,3.80334,-0.0355224,0.0,0.0
1580,394.75,56.5321,59.6484,147.519,98.8021,98.7117,0.00180356,0.093456,20.9364,3.77331,0.00818169,0.0,0.0
1600,399.75,56.0858,59.1174,141.897,98.766,99.0494,0.00129194,0.0922713,20.9388,3.77331,-0.0256241,0.0,0.0
1620,404.75,55.7622,58.8413,143.368,98.7126,98.432,0.00104596,0.0918495,20.9408,3.74329,0.0254638,0.0,0.0
1640,409.75,55.2226,58.346,150.791,98.6727,98.325,0.000979999,0.0911832,20.9399,3.77331,0.0315716,0.0,0.0
1660,414.75,55.351,58.4307,150.167,98.6454,98.2721,0.00108646,0.0906319,20.9415,3.73328,0.0339122,0.0,0.0
1680,419.75,55.3599,58.291,149.084,98.6612,98.7963,0.000966563,0.0906468,20.9414,3.70325,-0.0122455,0.0,0.0
1700,424.75,55.4075,58.0207,143.303,98.7075,98.4869,0.00100347,0.0909179,20.9419,3.65321,0.0200136,0.0,0.0
1720,429.75,55.0069,58.1592,146.754,98.7712,98.6206,0.000935102,0.0910138,20.9392,3.65321,0.0136529,0.0,0.0
1740,434.75,54.8669,57.9533,147.979,98.8662,99.0069,0.000749589,0.0914722,20.938,3.6432,-0.0127223,0.0,0.0
1760,439.75,55.0484,57.9359,143.985,98.9884,98.8921,0.000577157,0.0920984,20.9372,3.60316,0.00870692,0.0,0.0
1780,444.75,53.8627,57.3089,151.017,99.0992,99.8467,0.000710001,0.0924383,20.9374,3.58315,-0.0672203,0.0,0.0
1800,449.75,54.664,57.733,144.1,99.174,98.675,0.000717174,0.0923177,20.937,3.57314,0.0451224,0.0,0.0
1820,454.75,54.4982,57.56,146.415,99.2152,97.9928,0.000684629,0.0926563,20.9383,3.5331,0.110897,0.0,0.0
1840,459.75,54.9826,57.8628,148.584,99.1531,98.872,0.000689691,0.0926636,20.9392,3.56313,0.0253872,0.0,0.0
1860,464.75,54.9946,57.5863,150.851,98.9778,97.5817,0.000774684,0.0926439,20.9393,3.51309,0.127065,0.0,0.0
1880,469.75,54.6833,57.4491,148.323,98.6829,98.5518,,0.0924761,,3.52309,0.011897,0.0,0.0
1900,474.75,53.9937,57.7187,151.492,98.3019,96.5236,,,,3.49307,0.163299,0.0,0.0
1920,479.75,54.4501,57.387,144.313,97.8686,96.3084,,,,3.47305,0.143746,0.0,0.0
1922,480.25,53.9331,56.8229,146.496,97.8322,98.3397,,,,3.46304,-0.0462879,0.0,0.0