Folder: fsri_materials_database/01_Data/PVC/HFM

Note: 01_Data/README.md
# Materials and Products Database
## 01_Data

Raw data generated from each apparatus are included here in plain-text format. The data is organized first by material, next by the short name of test apparatus used, and where applicable additional filtering by test settings.

### material.json

Each material directory contains a json file of the same name as the material. This file links the data stored in the repository as well as data and graphs produced by the accompanying scripts (__02_Scripts__) to the respective landing page for the material on the front-end website.

File: PVC_Density_Wet_R1.csv
,PVC_WET_1
Sample Mass [g],182.3
Sample Volume [cm3],131.6
Sample Density [kg/m3],1385

File: PVC_Density_Wet_R2.csv
,PVC_WET_2
Sample Mass [g],181.4
Sample Volume [cm3],130.7
Sample Density [kg/m3],1388

File: PVC_Density_Wet_R3.csv
,PVC_WET_3
Sample Mass [g],180.4
Sample Volume [cm3],129.7
Sample Density [kg/m3],1391