Folder: fsri_materials_database/01_Data/PP/Cone (part 5)

File: PP_Cone_HF75Scan_220204_R3.csv
Names,Time,Stack TC,Smoke TC,Exh Press,Smoke Comp,Smoke Meas,CO Meter,CO2 Meter,O2 Meter,Sample Mass,Ext Coeff,Start Test,Flame Verif
Chan Gain,,500,500,1,1,1,1,1,1,1,1,1.0,1.0
Offset,,0,0,0.14021,0,0,0,0,0,0,0,0.0,0.0
Gain,,1,1,25.011,13.3046,13.3037,1,1,1,1.00093,1.10262,1.0,1.0
Units,sec,C,C,Pa,%,%,%,%,%,g,/m,,
Baseline,,59.5171,58.7178,127.543,100.259,98.3813,0.000626929,0.124113,20.8225,-872.024,0.183076,,
10,2.25,53.4425,52.0406,127.161,100.369,98.1246,0.00068952,0.12737,20.8212,26.6747,0.218747,0.0,0.0
20,4.75,53.0624,52.3009,128.63,100.346,99.1448,0.000640067,0.127086,20.8215,26.7748,0.116469,0.0,0.0
30,7.25,53.3368,52.5002,129.092,100.356,99.207,0.000651073,0.12761,20.8195,26.7548,0.11135,0.0,0.0
40,9.75,53.3763,52.7847,128.464,100.342,97.7697,0.000673131,0.130155,20.8164,26.6848,0.251165,0.0,0.0
50,12.25,53.6794,52.7632,127.318,100.324,98.6909,0.000675833,0.132358,20.8144,26.7048,0.158698,0.0,0.0
60,14.75,53.5641,53.5169,125.31,100.311,96.7746,0.000838813,0.133014,20.8131,26.6647,0.347175,0.0,0.0
70,17.25,53.877,52.6438,125.147,100.281,97.8176,0.00126975,0.13825,20.7927,26.6647,0.240555,0.0,1.0
80,19.75,53.7462,53.6105,119.514,100.273,98.1839,0.00166681,0.162675,20.7169,26.5046,0.203629,0.0,1.0
90,22.25,55.2714,55.6087,114.425,100.25,89.392,0.00256062,0.210196,20.6072,26.4545,1.10874,0.0,0.0
100,24.75,57.1631,58.6095,109.814,100.236,85.557,0.00441569,0.284076,20.4266,26.2443,1.53156,0.0,0.0
110,27.25,60.2147,62.2677,108.529,100.236,80.5584,0.00664825,0.386986,20.22,26.0742,2.11378,0.0,0.0
120,29.75,63.1994,67.0659,102.343,100.226,76.8443,0.00910035,0.503818,19.9792,25.864,2.56937,0.0,0.0
130,32.25,67.6828,71.8043,97.8256,100.218,74.1725,0.0116201,0.622337,19.7491,25.6138,2.91083,0.0,0.0
140,34.75,71.5434,78.6587,96.2662,100.221,72.8619,0.014304,0.742174,19.5679,25.2134,3.08357,0.0,0.0
150,37.25,76.4993,85.8817,99.2484,100.209,73.7868,0.0173679,0.871807,19.3363,24.803,2.96039,0.0,0.0
160,39.75,81.7366,93.2825,98.3317,100.23,64.9604,0.0206734,1.01182,19.0803,24.3826,4.19471,0.0,0.0
170,42.25,86.8013,101.436,82.8815,100.194,63.0539,0.0251286,1.14505,18.8101,23.9022,4.47938,0.0,0.0
180,44.75,93.3422,110.376,82.4876,100.208,62.5046,0.0295365,1.32139,18.4913,23.4618,4.56534,0.0,0.0
190,47.25,99.6519,119.295,80.5687,100.208,60.8721,0.0339108,1.49789,18.2135,22.9613,4.82132,0.0,0.0
200,49.75,106.332,129.916,79.4147,100.203,59.3947,0.0400606,1.68069,17.8888,22.4008,5.05849,0.0,0.0
210,52.25,113.33,140.394,82.7257,100.187,56.5494,0.046283,1.88182,17.4869,21.7802,5.53172,0.0,0.0
220,54.75,120.579,151.976,65.0475,100.185,56.7703,0.0542574,2.11221,17.0787,21.1696,5.49378,0.0,0.0
230,57.25,128.769,164.35,76.2959,100.183,54.485,0.0632937,2.39658,16.6507,20.3289,5.89104,0.0,0.0
240,59.75,137.692,178.745,86.6528,100.182,56.0221,0.0727848,2.77293,16.0155,19.5481,5.62187,0.0,0.0
250,62.25,147.415,194.843,52.3344,100.177,57.9615,0.0801207,3.24896,15.2004,18.6173,5.29223,0.0,0.0
260,64.75,157.467,212.426,59.0062,100.156,61.7681,0.0854765,3.68698,14.4264,17.5463,4.67492,0.0,0.0
270,67.25,167.303,229.447,65.4124,100.165,55.6343,0.0893642,4.13782,13.7112,16.5454,5.6874,0.0,0.0
280,69.75,177.143,246.668,63.0905,100.167,55.6287,0.094751,4.55165,13.0883,15.5144,5.68854,0.0,0.0
290,72.25,185.841,262.516,50.1293,100.176,61.4693,0.10144,4.91487,12.5257,14.2432,4.72379,0.0,0.0
300,74.75,194.929,278.877,73.0711,100.185,53.5569,0.105993,5.35632,11.8653,12.982,6.05737,0.0,0.0
310,77.25,204.557,295.932,78.6262,100.206,56.0062,0.110002,5.87357,10.9918,11.6608,5.62692,0.0,0.0
320,79.75,213.391,312.272,72.1185,100.203,58.6858,0.112171,6.37698,10.3398,10.5598,5.17458,0.0,0.0
330,82.25,223.656,330.377,50.4728,100.219,63.1976,0.110874,6.90789,9.55445,9.24858,4.45971,0.0,0.0
340,84.75,232.714,346.284,49.7942,100.244,70.9607,0.106607,7.51929,8.7494,7.77722,3.34154,0.0,0.0
350,87.25,242.628,364.124,52.9969,100.251,70.6602,0.10274,8.04958,7.84,6.55608,3.38324,0.0,0.0
360,89.75,251.492,380.619,46.2794,100.284,80.0424,0.102691,8.55873,7.14113,4.90455,2.18056,0.0,0.0
370,92.25,260.869,399.056,47.9609,100.306,62.3605,0.100559,9.07521,6.31064,3.48323,4.59711,0.0,0.0
380,94.75,268.991,413.454,58.1193,100.309,67.3708,0.0991929,9.40808,5.97456,2.16201,3.84991,0.0,0.0
390,97.25,273.97,419.907,64.8926,100.33,65.7302,0.103101,9.26314,6.31089,1.01094,4.09044,0.0,0.0
400,99.75,276.914,423.666,58.8406,100.378,55.6388,0.110281,8.82519,7.20189,-0.120111,5.70718,0.0,0.0
410,102.25,277.672,419.556,79.7955,100.417,50.4713,0.115202,8.01293,8.72296,-0.98091,6.65374,0.0,0.0
420,104.75,274.612,410.02,71.6819,100.463,51.9702,0.106824,7.00403,10.3333,-1.59148,6.37505,0.0,0.0
430,107.25,268.194,394.678,75.9395,100.498,54.094,0.0848037,5.72021,12.8348,-1.99185,5.99106,0.0,0.0
440,109.75,258.157,373.722,92.3484,100.54,71.7109,0.0616067,4.28483,15.0761,-2.25209,3.26829,0.0,0.0
450,112.25,245.655,350.949,102.095,100.567,81.3334,0.0396874,3.08353,16.9901,-2.32215,2.05309,0.0,0.0
460,114.75,232.995,329.009,110.119,100.618,96.9939,0.0245825,2.08665,18.5349,-2.32215,0.354801,0.0,0.0
470,117.25,220.326,307.011,110.233,100.654,98.5062,0.0152059,1.38769,19.4665,-2.29213,0.20863,0.0,0.0
480,119.75,208.863,287.678,114.647,100.691,100.048,0.00980288,0.956671,19.9968,-2.30214,0.0619894,0.0,0.0
490,122.25,198.617,270.256,111.572,100.728,100.073,0.00659824,0.679219,20.3295,-2.32215,0.0630273,0.0,0.0
500,124.75,189.82,256.091,112.568,100.76,100.312,0.00471062,0.502802,20.5082,-2.36219,0.0430989,0.0,0.0
510,127.25,181.622,241.836,114.285,100.793,100.509,0.00357531,0.393738,20.6091,-2.34217,0.0272497,0.0,0.0
520,129.75,174.329,229.246,112.248,100.814,100.377,0.00275484,0.322439,20.6792,-2.32215,0.0419429,0.0,0.0
530,132.25,167.687,217.366,114.128,100.843,99.7051,0.00219812,0.279523,20.7158,-2.33216,0.109749,0.0,0.0
540,134.75,161.89,206.839,113.503,100.864,100.68,0.00188574,0.246112,20.7396,-2.34217,0.0176318,0.0,0.0
550,137.25,156.66,197.769,114.993,100.884,100.325,0.00168136,0.222332,20.7539,-2.34217,0.0536891,0.0,0.0
560,139.75,151.077,188.804,114.219,100.905,100.421,0.00146387,0.205924,20.7621,-2.34217,0.0464788,0.0,0.0
570,142.25,147.109,180.687,116.977,100.897,100.03,0.00119322,0.193687,20.7693,-2.32215,0.0835092,0.0,0.0
580,144.75,142.414,174.592,116.132,100.896,99.8208,0.00120395,0.184121,20.7749,-2.33216,0.103669,0.0,0.0
590,147.25,138.865,167.22,117.293,100.917,100.128,0.00126932,0.176764,20.7821,-2.33216,0.0758817,0.0,0.0
600,149.75,135.868,162.125,117.489,100.912,100.439,0.00110921,0.169901,20.7823,-2.33216,0.0454586,0.0,0.0
610,152.25,132.541,156.849,118.864,100.929,100.172,0.000812489,0.164963,20.7835,-2.36219,0.0727753,0.0,0.0
620,154.75,129.028,150.798,114.159,100.931,99.8586,0.000760482,0.160642,20.7879,-2.34217,0.103358,0.0,0.0
630,157.25,126.609,146.962,116.564,100.929,99.5391,0.000879756,0.156703,20.7915,-2.31214,0.134122,0.0,0.0
640,159.75,124.566,142.647,116.045,100.92,99.5983,0.000936853,0.153536,20.7934,-2.29213,0.12747,0.0,0.0
650,162.25,122.394,139.017,114.711,100.922,99.6324,0.000837206,0.150967,20.7971,-2.28212,0.124431,0.0,0.0
660,164.75,120.221,135.534,117.514,100.922,99.697,0.000722718,0.148551,20.7993,-2.30214,0.118127,0.0,0.0
670,167.25,118.115,132.308,113.964,100.932,99.2772,0.000680127,0.14667,20.8022,-2.32215,0.159874,0.0,0.0
680,169.75,116.06,129.23,116.961,100.925,99.2784,0.000598943,0.144884,20.8032,-2.28212,0.159094,0.0,0.0
690,172.25,114.468,126.054,120.072,100.933,98.8468,0.000558328,0.143324,20.8029,-2.31214,0.20197,0.0,0.0
700,174.75,112.503,123.312,116.205,100.944,99.2472,0.00070479,0.142109,20.7995,-2.28212,0.163969,0.0,0.0
710,177.25,111.333,120.417,118.171,100.931,99.2098,0.000770643,0.14093,20.8,-2.30214,0.166325,0.0,0.0
720,179.75,109.558,117.728,116.254,100.932,98.9703,0.000714106,0.13982,20.8008,-2.27211,0.189824,0.0,0.0
730,182.25,108.329,115.814,117.52,100.934,99.3016,0.000566461,0.138894,20.8014,-2.33216,0.157735,0.0,0.0
740,184.75,106.005,113.237,118.69,100.924,99.371,0.000582888,0.137626,20.8042,-2.31214,0.150002,0.0,0.0
750,187.25,105.989,111.837,116.96,100.904,98.7567,0.000677571,0.136266,20.8066,-2.31214,0.20807,0.0,0.0
760,189.75,104.56,110.31,117.688,100.905,98.6597,0.000625759,0.134841,20.8094,-2.29213,0.217694,0.0,0.0
770,192.25,103.302,108.117,117.011,100.887,99.1286,0.000500452,0.133372,20.8118,-2.33216,0.17008,0.0,0.0
780,194.75,102.166,106.917,122.026,100.872,98.5346,0.00045677,0.132199,20.8142,-2.33216,0.22673,0.0,0.0
790,197.25,100.589,104.448,117.903,100.857,98.611,0.000444022,0.13147,20.8134,-2.32215,0.217839,0.0,0.0
800,199.75,99.773,103.703,117.23,100.84,98.5838,0.000331162,0.130862,20.813,-2.34217,0.218833,0.0,0.0
810,202.25,99.3061,102.483,119.431,100.81,100.049,0.000197147,0.130601,20.8129,-2.32215,0.0732925,0.0,0.0
820,204.75,98.0878,100.776,116.969,100.781,98.5265,0.000191107,0.130278,20.8129,-2.35218,0.218801,0.0,0.0
830,207.25,97.5991,99.3483,118.15,100.75,97.9959,0.000499492,0.13018,20.8121,-2.33216,0.268034,0.0,0.0
840,209.75,96.7037,98.4227,119.522,100.72,97.8412,0.000627285,0.130186,20.8105,-2.35218,0.280467,0.0,0.0
850,212.25,95.5324,97.4686,120.496,100.697,97.6345,0.000536217,0.130331,20.8099,-2.33216,0.298694,0.0,0.0
860,214.75,94.74,96.7804,120.224,100.65,97.9066,0.000559303,0.130381,20.8083,-2.31214,0.267299,0.0,0.0
870,217.25,93.4535,95.7449,119.585,100.598,97.5209,0.000729657,0.130357,20.8061,-2.30214,0.300442,0.0,0.0
880,219.75,92.9322,94.6674,119.073,100.559,97.9086,0.00075034,0.13043,20.8069,-2.31214,0.258315,0.0,0.0
890,222.25,91.936,92.7915,120.078,100.536,97.5793,0.000516137,0.130511,20.8073,-2.29213,0.288749,0.0,0.0
900,224.75,92.0751,92.9554,120.468,100.507,97.8842,0.000442514,0.130898,20.8074,-2.29213,0.255761,0.0,0.0
910,227.25,91.6097,92.0851,121.338,100.497,97.1542,0.000550736,0.13116,20.8084,-2.31214,0.327186,0.0,0.0
920,229.75,91.0499,90.3996,120.385,100.465,97.3771,0.000579493,0.130765,20.8099,-2.33216,0.301934,0.0,0.0
930,232.25,89.7804,90.4628,119.577,100.453,97.5026,,0.130322,,-2.32215,0.288346,0.0,0.0
940,234.75,89.1629,89.0203,122.74,100.421,97.3292,,,,-2.33216,0.302431,0.0,0.0
950,237.25,88.7138,88.7491,120.27,100.408,97.609,,,,-2.33216,0.27346,0.0,0.0
960,239.75,88.2547,87.8593,121.582,100.397,97.3763,,,,-2.32215,0.295483,0.0,0.0
965,241,88.2808,87.928,119.119,100.397,97.1904,,,,-2.31214,0.31401,0.0,0.0