Folder: fsri_materials_database/01_Data/PP/Cone

Note: 01_Data/README.md
# Materials and Products Database
## 01_Data

Raw data generated from each apparatus are included here in plain-text format. The data is organized first by material, next by the short name of test apparatus used, and where applicable additional filtering by test settings.

### material.json

Each material directory contains a json file of the same name as the material. This file links the data stored in the repository as well as data and graphs produced by the accompanying scripts (__02_Scripts__) to the respective landing page for the material on the front-end website.

File: PP_Cone_HF25Scalar_220203_R1.csv
LABORATORY,FSRI
TEST IDENT,PP_HF25_1
OPERATOR,Dow
MATERIAL,polypropylene
ORIENTATION,Horizontal
HEAT FLUX,25
SURF AREA,0.01
C FACTOR,0.0415673
SPEC HOLDER DIFF,304.03
SPECIMEN MASS,29.2
SCAN TIME,0.25
O2 DELAY TIME,11
CO DELAY TIME,11
CO2 DELAY TIME,8
FLOW FACTOR,1
SCAN COUNT,1744
TIME TO IGN,114.75
END OF TEST SCAN,1264
END OF TEST TIME,316
TEST STATUS,1
PRE TEST CMT,Dimensions: 100.11 x 99.35 x 3.06 mm

File: PP_Cone_HF25Scalar_220203_R2.csv
LABORATORY,FSRI
TEST IDENT,PP_HF25_2
OPERATOR,Dow
MATERIAL,polypropylene
ORIENTATION,Horizontal
HEAT FLUX,25
SURF AREA,0.01
C FACTOR,0.0415673
SPEC HOLDER DIFF,303.2
SPECIMEN MASS,28.6
SCAN TIME,0.25
O2 DELAY TIME,11
CO DELAY TIME,11
CO2 DELAY TIME,8
FLOW FACTOR,1
SCAN COUNT,1798
TIME TO IGN,116.25
END OF TEST SCAN,1318
END OF TEST TIME,329.5
TEST STATUS,1
PRE TEST CMT,Dimensions: 100.07 x 99.10 x 2.99 mm

File: PP_Cone_HF25Scalar_220203_R3.csv
LABORATORY,FSRI
TEST IDENT,PP_HF25_3
OPERATOR,Dow
MATERIAL,polypropylene
ORIENTATION,Horizontal
HEAT FLUX,25
SURF AREA,0.01
C FACTOR,0.0415673
SPEC HOLDER DIFF,304.16
SPECIMEN MASS,28.5
SCAN TIME,0.25
O2 DELAY TIME,11
CO DELAY TIME,11
CO2 DELAY TIME,8
FLOW FACTOR,1
SCAN COUNT,1679
TIME TO IGN,107.5
END OF TEST SCAN,1199
END OF TEST TIME,299.75
TEST STATUS,1
PRE TEST CMT,Dimensions: 98.47 x 99.80 x 3.06 mm

File: PP_Cone_HF25Scan_220203_R1.csv
Names,Time,Stack TC,Smoke TC,Exh Press,Smoke Comp,Smoke Meas,CO Meter,CO2 Meter,O2 Meter,Sample Mass,Ext Coeff,Start Test,Flame Verif
Chan Gain,,500,500,1,1,1,1,1,1,1,1,1.0,1.0
Offset,,0,0,0.14021,0,0,0,0,0,0,0,0.0,0.0
Gain,,1,1,25.011,13.3046,13.3037,1,1,1,1.00093,1.10262,1.0,1.0
Units,sec,C,C,Pa,%,%,%,%,%,g,/m,,
Baseline,,16.7869,17.9104,144.929,100.482,106.399,0.00266438,0.115968,20.8692,-869.987,-0.553478,,
18,4.25,15.4327,15.9122,145.065,99.1847,104.719,0.00236265,0.124525,20.8589,30.218,-0.525178,0.0,0.0
36,8.75,15.3793,16.3972,143.163,99.0048,104.655,0.00237892,0.126204,20.8559,30.208,-0.536771,0.0,0.0
54,13.25,15.4025,16.8813,141.106,98.935,104.989,0.00208135,0.124297,20.8598,30.208,-0.574464,0.0,0.0
72,17.75,15.8541,17.0116,146.489,98.9744,104.931,0.00211203,0.121238,20.8648,30.188,-0.565264,0.0,0.0
90,22.25,15.5391,16.5935,143.028,99.1315,104.847,0.0025583,0.120121,20.8649,30.178,-0.542134,0.0,0.0
108,26.75,16.1264,16.7073,148.552,99.3792,105.494,0.00269697,0.122746,20.8613,30.158,-0.577516,0.0,0.0
126,31.25,16.011,17.2064,145.433,99.7231,105.858,0.00276954,0.12679,20.8538,30.178,-0.577472,0.0,0.0
144,35.75,16.011,16.9175,147.801,100.066,106.07,0.00251658,0.1304,20.8511,30.168,-0.563561,0.0,0.0
162,40.25,15.7945,17.6027,145.625,100.423,106.272,0.00243469,0.129991,20.8525,30.178,-0.547469,0.0,0.0
180,44.75,16.0311,16.8949,144.085,100.726,106.529,0.00272341,0.128104,20.8547,30.148,-0.541853,0.0,0.0
198,49.25,16.3143,17.3833,143.892,100.931,106.818,0.00274372,0.126751,20.8583,30.168,-0.548281,0.0,0.0
216,53.75,16.4394,17.3336,149.697,101.041,107.16,0.00243006,0.123434,20.8657,30.168,-0.568759,0.0,0.0
234,58.25,15.978,17.4135,140.4,101.012,107.104,0.00241377,0.120353,20.8692,30.138,-0.566385,0.0,0.0
252,62.75,16.4151,18.0403,144.676,100.912,107.102,0.00241824,0.118786,20.8691,30.148,-0.575885,0.0,0.0
270,67.25,16.4284,17.1355,146.002,100.71,106.755,0.00250683,0.118703,20.8678,30.158,-0.563771,0.0,0.0
288,71.75,16.4886,17.2883,142.68,100.515,106.544,0.00226384,0.1187,20.8672,30.128,-0.563397,0.0,0.0
306,76.25,16.5721,17.7792,144.343,100.329,106.275,0.00239615,0.118587,20.8689,30.158,-0.55684,0.0,0.0
324,80.75,16.6525,17.8003,144.121,100.396,106.191,0.00242186,0.117481,20.8696,30.138,-0.542809,0.0,0.0
342,85.25,16.4125,17.916,146.893,100.723,105.999,0.00249361,0.118079,20.867,30.128,-0.493865,0.0,0.0
360,89.75,15.8662,17.9267,144.404,100.873,105.482,0.00263007,0.117258,20.8684,30.148,-0.432214,0.0,0.0
378,94.25,16.7779,18.1169,146.3,100.818,105.319,0.00245935,0.116202,20.8687,30.128,-0.422417,0.0,0.0
396,98.75,16.8159,17.74,144.291,100.559,104.572,0.00272529,0.115405,20.8698,30.0979,-0.37845,0.0,0.0
414,103.25,16.5167,17.4532,150.294,100.125,103.743,0.0029258,0.114527,20.87,30.0679,-0.343265,0.0,0.0
432,107.75,16.9705,17.9995,143.047,100.11,103.647,0.00283158,0.113965,20.8697,30.0579,-0.335895,0.0,0.0
450,112.25,16.6116,17.9459,141.122,100.221,103.781,0.00296105,0.113932,20.8683,30.0279,-0.337608,0.0,0.0
468,116.75,17.6012,19.2324,134.285,100.313,105.23,0.00322987,0.134682,20.819,29.9077,-0.462903,0.0,1.0
486,121.25,18.9628,20.9095,133.758,100.367,104.089,0.00315853,0.186434,20.7218,29.7676,-0.352113,0.0,1.0
504,125.75,20.8889,23.5338,136.451,100.364,102.017,0.00334764,0.234005,20.6378,29.6575,-0.158009,0.0,0.0
522,130.25,22.7492,25.937,132.133,100.333,98.0905,0.00384591,0.274292,20.5694,29.5374,0.218627,0.0,0.0
540,134.75,24.4467,28.2158,129.511,100.225,95.3796,0.00496896,0.308137,20.5073,29.3672,0.479231,0.0,0.0
558,139.25,26.6511,32.3191,127.435,100.039,95.2712,0.00597339,0.344854,20.439,29.127,0.472307,0.0,0.0
576,143.75,28.9848,35.1061,124.578,99.7945,94.0127,0.00660099,0.382164,20.3925,28.8768,0.577271,0.0,0.0
594,148.25,32.0137,38.097,132.41,99.531,89.0961,0.00747733,0.420171,20.3178,28.6466,1.07123,0.0,0.0
612,152.75,35.1337,41.9881,122.321,99.3,88.6186,0.00830179,0.465256,20.2319,28.3463,1.10072,0.0,0.0
630,157.25,38.102,46.0968,123.585,99.0901,87.9861,0.00904535,0.508728,20.1509,28.016,1.14954,0.0,0.0
648,161.75,40.9468,50.6986,115.556,98.9508,85.2245,0.00971147,0.560052,20.0594,27.6657,1.44438,0.0,0.0
666,166.25,44.4143,55.3053,116.211,98.9005,80.8231,0.0108413,0.612302,19.9838,27.3053,1.95233,0.0,0.0
684,170.75,48.299,60.1805,117.829,98.9569,79.9742,0.0123327,0.667867,19.8711,26.895,2.05998,0.0,0.0
702,175.25,51.9603,66.1174,105.126,99.1043,79.4699,0.0128977,0.733208,19.7582,26.4145,2.13555,0.0,0.0
720,179.75,56.3004,71.3405,113.433,99.3012,77.7266,0.0138397,0.801461,19.6396,25.914,2.36929,0.0,0.0
738,184.25,60.2035,77.2167,112.956,99.5769,77.8139,0.015094,0.865976,19.5258,25.3836,2.38525,0.0,0.0
756,188.75,65.0294,83.7325,107.57,99.8396,75.0632,0.0164805,0.930855,19.4365,24.783,2.75882,0.0,0.0
774,193.25,69.0028,89.3336,105.896,100.129,75.7944,0.0181914,0.99964,19.3152,24.2325,2.69302,0.0,0.0
792,197.75,74.0195,96.4869,97.0814,100.353,76.9377,0.0192993,1.07157,19.1769,23.5418,2.56984,0.0,0.0
810,202.25,79.0195,103.146,102.59,100.569,74.6507,0.0207296,1.13954,19.0772,22.8612,2.88254,0.0,0.0
828,206.75,83.8046,109.596,98.9453,100.772,71.9196,0.0225322,1.2072,18.9519,22.1606,3.26254,0.0,0.0
846,211.25,88.0845,116.156,92.1598,100.898,74.0121,0.0242735,1.28642,18.8336,21.55,2.99718,0.0,0.0
864,215.75,93.3439,123.843,86.5314,100.972,70.4418,0.0258565,1.36965,18.6908,20.7092,3.48251,0.0,0.0
882,220.25,99.3335,131.358,88.1206,101.022,68.7573,0.0279416,1.45288,18.5329,19.9485,3.72143,0.0,0.0
900,224.75,104.318,138.503,101.282,101.037,69.9676,0.0300954,1.54587,18.3731,19.1378,3.55406,0.0,0.0
918,229.25,110.008,146.343,87.8321,100.978,68.9916,0.0330413,1.64572,18.2124,18.2069,3.68425,0.0,0.0
936,233.75,115.611,154.673,85.0637,100.918,66.4703,0.0354046,1.7623,18.0228,17.3361,4.03861,0.0,0.0
954,238.25,121.353,163.054,89.3807,100.805,65.6003,0.0375316,1.87148,17.8537,16.3852,4.15519,0.0,0.0
972,242.75,127.211,171.383,77.0829,100.691,64.6137,0.0401704,1.9849,17.6533,15.4143,4.29087,0.0,0.0
990,247.25,132.998,178.59,84.0424,100.571,64.2934,0.0427329,2.09821,17.4653,14.4134,4.32739,0.0,0.0
1008,251.75,139.003,188.039,80.9839,100.46,63.3072,0.0443137,2.20316,17.298,13.2923,4.46615,0.0,0.0
1026,256.25,143.434,194.352,80.1558,100.359,60.5241,0.0462318,2.28537,17.2037,12.0912,4.89133,0.0,0.0
1044,260.75,149.881,202.747,84.0218,100.287,65.1314,0.0501478,2.42601,16.9644,11.0102,4.17481,0.0,0.0
1062,265.25,154.83,211.318,67.6083,100.329,59.2627,0.0535699,2.56796,16.7317,9.82912,5.0921,0.0,0.0
1080,269.75,160.742,220.145,73.5161,100.525,61.1007,0.0574712,2.70581,16.4857,8.68806,4.81562,0.0,0.0
1098,274.25,166.645,227.968,82.4281,100.678,58.5997,0.0614651,2.83832,16.278,7.34682,5.23449,0.0,0.0
1116,278.75,172.078,236.555,75.6677,100.786,60.0203,0.062779,2.94069,16.1428,6.16572,5.01318,0.0,0.0
1134,283.25,175.261,241.186,68.1861,100.857,59.8782,0.0600835,2.93459,16.2064,5.01465,5.04296,0.0,0.0
1152,287.75,178.102,244.022,90.0952,100.903,60.2367,0.0575458,2.85066,16.3924,3.81354,4.98963,0.0,0.0
1170,292.25,178.802,242.238,81.0381,100.89,65.1095,0.0509783,2.64999,16.7601,2.90269,4.23604,0.0,0.0
1188,296.75,175.276,234.767,86.9383,100.884,69.942,0.0403722,2.2895,17.4945,2.11196,3.54293,0.0,0.0
1206,301.25,167.687,221.923,98.566,100.872,75.4899,0.0303481,1.82789,18.1562,1.52141,2.8035,0.0,0.0
1224,305.75,157.872,205.499,105.843,100.852,75.8383,0.0224306,1.41297,18.9149,1.13105,2.75703,0.0,0.0
1242,310.25,146.912,187.088,120.705,100.849,77.4229,0.0155809,1.00948,19.641,0.890826,2.55678,0.0,0.0
1260,314.75,133.239,167.48,130.133,100.816,98.101,0.00893193,0.672557,20.1949,0.880817,0.264051,0.0,0.0
1278,319.25,120.646,148.515,130.298,100.784,98.643,0.00487354,0.41099,20.6158,0.870808,0.207683,0.0,0.0
1296,323.75,109.555,134.025,127.956,100.754,99.2252,0.00336336,0.268546,20.7746,0.910845,0.147842,0.0,0.0
1314,328.25,101.618,120.774,133.597,100.723,99.7912,0.00298959,0.202053,20.826,0.900836,0.0899072,0.0,0.0
1332,332.75,94.4364,109.921,135.458,100.723,99.3263,0.00288053,0.165346,20.8496,0.890826,0.135029,0.0,0.0
1350,337.25,88.4517,100.145,131.682,100.697,99.252,0.00272489,0.146452,20.8595,0.910845,0.139772,0.0,0.0
1368,341.75,82.4045,92.1416,133.535,100.655,100.02,0.00251864,0.135774,20.8647,0.910845,0.0612264,0.0,0.0
1386,346.25,78.8247,85.6432,135.173,100.636,100.095,0.00240204,0.12974,20.866,0.900836,0.0521319,0.0,0.0
1404,350.75,74.4718,79.218,135.153,100.601,100.214,0.0024324,0.125641,20.8649,0.910845,0.0372486,0.0,0.0
1422,355.25,71.2889,74.7452,137.105,100.572,99.7364,0.00247358,0.123069,20.8654,0.910845,0.0806682,0.0,0.0
1440,359.75,67.5243,69.8445,132.136,100.517,100.147,0.00250217,0.121029,20.8662,0.920854,0.0356715,0.0,0.0
1458,364.25,65.9884,66.4301,132.232,100.49,99.5943,0.00262751,0.119276,20.8682,0.920854,0.0866053,0.0,0.0
1476,368.75,63.4212,62.7987,131.123,100.494,101.088,0.00271178,0.117962,20.8699,0.910845,-0.0569441,0.0,0.0
1494,373.25,61.6202,60.2935,134.062,100.46,101.45,0.00243226,0.11706,20.8699,0.930864,-0.0947769,0.0,0.0
1512,377.75,59.6542,57.4853,135.521,100.453,100.759,0.00233815,0.116398,20.8686,0.920854,-0.0294927,0.0,0.0
1530,382.25,58.2777,55.4642,133.795,100.437,101.428,0.00205531,0.115779,20.8684,0.930864,-0.0949923,0.0,0.0
1548,386.75,56.637,53.9464,137.242,100.438,101.621,0.00208208,0.115139,20.8704,0.930864,-0.113248,0.0,0.0
1566,391.25,54.4211,50.8301,137.375,100.429,101.758,0.00223383,0.114738,20.8707,0.930864,-0.127161,0.0,0.0
1584,395.75,53.3869,49.6327,133.635,100.432,100.836,0.0023316,0.114587,20.8701,0.920854,-0.0388489,0.0,0.0
1602,400.25,52.7537,48.3908,137.702,100.448,101.338,0.00250824,0.114331,20.8695,0.920854,-0.0852606,0.0,0.0
1620,404.75,51.5976,47.2525,137.904,100.437,101.196,0.00228513,0.114187,20.8694,0.920854,-0.0728606,0.0,0.0
1638,409.25,50.9604,46.5405,136.502,100.464,101.735,0.00220036,0.113918,20.8712,0.920854,-0.121637,0.0,0.0
1656,413.75,49.5627,45.5207,138.931,100.497,102.034,0.00221896,0.11373,20.8712,0.920854,-0.14676,0.0,0.0
1674,418.25,48.673,44.0852,138.22,100.541,101.994,0.00206898,0.113668,20.8699,0.920854,-0.138808,0.0,0.0
1692,422.75,47.6037,42.4338,135.125,100.574,102.124,0.00206733,0.11385,20.8705,0.930864,-0.147879,0.0,0.0
1710,427.25,47.5593,42.5248,135.648,100.602,103.314,,0.113653,,0.920854,-0.257312,0.0,0.0
1728,431.75,46.4598,41.5016,137.581,100.661,102.756,,,,0.910845,-0.199288,0.0,0.0
1744,435.75,45.6027,41.1716,135.256,100.683,103.782,,,,0.920854,-0.293272,0.0,0.0

File: PP_Cone_HF25Scan_220203_R2.csv
Names,Time,Stack TC,Smoke TC,Exh Press,Smoke Comp,Smoke Meas,CO Meter,CO2 Meter,O2 Meter,Sample Mass,Ext Coeff,Start Test,Flame Verif
Chan Gain,,500,500,1,1,1,1,1,1,1,1,1.0,1.0
Offset,,0,0,0.14021,0,0,0,0,0,0,0,0.0,0.0
Gain,,1,1,25.011,13.3046,13.3037,1,1,1,1.00093,1.10262,1.0,1.0
Units,sec,C,C,Pa,%,%,%,%,%,g,/m,,
Baseline,,26.3193,25.4849,141.302,100.123,104.832,0.00274799,0.114071,20.8706,-870.037,-0.444453,,
19,4.5,20.374,20.9609,146.606,99.1514,102.747,0.00241522,0.123817,20.8647,28.7567,-0.344558,0.0,0.0
38,9.25,20.907,20.7948,142.144,99.0901,102.517,0.00252177,0.1215,20.8674,28.7267,-0.328885,0.0,0.0
57,14,21.712,20.9739,142.374,99.086,102.841,0.00251013,0.117369,20.8719,28.7367,-0.359723,0.0,0.0
76,18.75,21.2738,21.4389,144.978,99.1433,102.551,0.00258303,0.114049,20.8758,28.7267,-0.326835,0.0,0.0
95,23.5,20.9382,21.0974,141.638,99.2265,102.62,0.00272426,0.112421,20.8768,28.7166,-0.325264,0.0,0.0
114,28.25,21.3667,21.1562,143.737,99.3195,102.776,0.0024437,0.112189,20.8769,28.7166,-0.33085,0.0,0.0
133,33,20.6577,21.2002,142.861,99.419,103.288,0.00236259,0.112084,20.8778,28.7066,-0.369266,0.0,0.0
152,37.75,20.5988,21.2247,145.71,99.5388,103.256,0.00257647,0.111647,20.8772,28.7267,-0.354654,0.0,0.0
171,42.5,21.1787,21.1075,141.408,99.6191,103.249,0.00241042,0.111126,20.8784,28.6966,-0.346161,0.0,0.0
190,47.25,20.9899,21.6051,143.321,99.6841,103.554,0.00246434,0.11069,20.8786,28.7166,-0.368338,0.0,0.0
209,52,21.1452,21.3467,138.668,99.758,103.643,0.00250623,0.110387,20.8804,28.7066,-0.369548,0.0,0.0
228,56.75,21.0754,21.2693,143.914,99.7832,103.485,0.00257623,0.110214,20.8809,28.7066,-0.35232,0.0,0.0
247,61.5,21.2438,21.3923,142.064,99.8327,103.394,0.00237199,0.11007,20.8809,28.7066,-0.339015,0.0,0.0
266,66.25,20.6042,21.5816,139.711,99.8867,102.976,0.00219021,0.110778,20.8793,28.6866,-0.294625,0.0,0.0
285,71,20.9517,21.3594,141.534,99.9143,104.053,0.00226964,0.112634,20.8768,28.6866,-0.392595,0.0,0.0
304,75.75,21.3439,21.662,143.392,99.8961,103.445,0.00234071,0.11314,20.8749,28.6666,-0.337666,0.0,0.0
323,80.5,21.0034,21.2808,137.581,99.905,103.342,0.00234591,0.113308,20.8741,28.6766,-0.327154,0.0,0.0
342,85.25,21.1386,22.1369,144.356,99.9078,103.515,0.00249628,0.112853,20.874,28.6666,-0.343053,0.0,0.0
361,90,20.9362,21.3756,142.536,99.8932,102.398,0.00292083,0.112394,20.8729,28.6666,-0.239504,0.0,0.0
380,94.75,20.8048,21.4911,142.884,99.8473,102.197,0.00317094,0.113638,20.8702,28.6666,-0.224946,0.0,0.0
399,99.5,21.1696,21.6302,139.824,99.8075,102.069,0.00316114,0.114388,20.8694,28.6366,-0.216728,0.0,0.0
418,104.25,20.7416,21.4932,142.37,99.7604,101.612,0.00280514,0.113979,20.8696,28.6266,-0.177838,0.0,0.0
437,109,21.1318,21.8574,142.486,99.6959,101.349,0.00293064,0.113915,20.8692,28.6065,-0.159102,0.0,0.0
456,113.75,21.2451,21.9949,140.983,99.6468,100.692,0.00298454,0.116706,20.8627,28.5765,-0.100896,0.0,0.0
475,118.5,21.3976,22.2683,137.321,99.5688,102.411,0.00313494,0.1332,20.8248,28.5165,-0.272269,0.0,1.0
494,123.25,22.6856,24.073,132.451,99.5063,99.9491,0.00318854,0.187061,20.7304,28.3863,-0.0429495,0.0,0.0
513,128,24.7696,27.0198,134.456,99.4186,98.3544,0.0035674,0.241504,20.6376,28.2062,0.10409,0.0,0.0
532,132.75,26.4836,29.2849,131.921,99.3313,95.1222,0.00420963,0.284708,20.5576,28.026,0.41878,0.0,0.0
551,137.5,29.2597,32.8551,131.337,99.2675,92.4544,0.00521752,0.322913,20.4943,27.8659,0.687711,0.0,0.0
570,142.25,31.3503,35.8695,132.825,99.2212,89.9214,0.00605931,0.360546,20.4251,27.5956,0.951888,0.0,0.0
589,147,33.7549,40.0142,123.123,99.1555,89.0676,0.00687174,0.400802,20.3546,27.3954,1.03775,0.0,0.0
608,151.75,36.82,43.4353,124.298,99.1189,86.2707,0.00799596,0.437059,20.2992,27.0751,1.34278,0.0,0.0
627,156.5,39.2254,46.0876,126.392,99.0946,82.3988,0.00874551,0.475955,20.2267,26.8249,1.78454,0.0,0.0
646,161.25,42.0793,50.2414,118.468,99.1051,81.2474,0.0097323,0.516737,20.1507,26.4545,1.92168,0.0,0.0
665,166,45.1415,54.8903,119.489,99.1547,78.7379,0.0111587,0.572273,20.0474,26.0942,2.22996,0.0,0.0
684,170.75,48.1618,59.0784,118.533,99.2237,80.1702,0.0123275,0.635296,19.9431,25.6238,2.06233,0.0,0.0
703,175.5,52.2909,64.7845,112.993,99.3081,78.5536,0.0133198,0.718494,19.7865,25.0833,2.26759,0.0,0.0
722,180.25,56.2558,70.5581,105.619,99.4401,73.818,0.0149052,0.804144,19.634,24.6028,2.88182,0.0,0.0
741,185,62.6348,78.9032,104.688,99.594,74.3548,0.0160407,0.898058,19.4659,23.9923,2.82671,0.0,0.0
760,189.75,67.3242,85.9718,107.028,99.7747,73.8453,0.0173487,0.992646,19.3062,23.3717,2.91075,0.0,0.0
779,194.5,72.9807,93.5869,110.249,99.957,72.8595,0.0185827,1.07387,19.1905,22.641,3.05839,0.0,0.0
798,199.25,78.153,101.229,93.0048,100.159,73.1067,0.0200879,1.14635,19.0761,21.9504,3.04517,0.0,0.0
817,204,83.3434,108.337,96.2266,100.333,72.1072,0.0210746,1.21446,18.9581,21.2697,3.19505,0.0,0.0
836,208.75,89.0111,115.848,96.4555,100.488,70.2445,0.0230475,1.30161,18.7976,20.459,3.46317,0.0,0.0
855,213.5,94.5809,123.619,84.927,100.637,68.7196,0.0252385,1.40108,18.6377,19.6282,3.68974,0.0,0.0
874,218.25,100.475,131.861,90.8134,100.778,70.0297,0.0284713,1.51151,18.4567,18.7474,3.52061,0.0,0.0
893,223,106.73,140.237,100.572,100.892,64.9401,0.0317507,1.62302,18.269,17.8165,4.26134,0.0,0.0
912,227.75,113.147,149.978,83.1135,100.971,69.6574,0.0341225,1.732,18.0791,16.8156,3.5907,0.0,0.0
931,232.5,119.024,158.749,75.2502,101.03,67.9632,0.0365381,1.85254,17.8785,15.8847,3.83449,0.0,0.0
950,237.25,126.02,168.757,89.467,101.069,65.9231,0.0397032,1.99313,17.6438,14.7737,4.13304,0.0,0.0
969,242,131.806,177.23,82.28,101.092,65.4416,0.0423815,2.10976,17.4737,13.6927,4.20612,0.0,0.0
988,246.75,138.18,187.008,80.3176,101.105,62.1339,0.0456033,2.24194,17.2625,12.5516,4.70902,0.0,0.0
1007,251.5,144.362,195.321,86.1971,101.106,63.9382,0.0475721,2.32768,17.1229,11.4606,4.43227,0.0,0.0
1026,256.25,150.203,204.052,78.9399,101.075,64.5821,0.049465,2.41774,17.0015,10.2795,4.3324,0.0,0.0
1045,261,154.133,208.726,75.3174,101.043,61.5249,0.04892,2.42631,16.9957,9.16851,4.79842,0.0,0.0
1064,265.75,157.696,213.839,80.9778,101.009,63.9873,0.0498679,2.44008,16.97,8.06748,4.41556,0.0,0.0
1083,270.5,161.514,218.209,87.0558,100.969,64.1261,0.0501951,2.45199,16.9675,6.91642,4.39074,0.0,0.0
1102,275.25,163.579,221.009,78.1698,100.935,63.2695,0.0477704,2.39335,17.0716,5.89547,4.51755,0.0,0.0
1121,280,165.175,221.959,87.7679,100.91,65.8106,0.0451671,2.29092,17.2552,4.82448,4.13435,0.0,0.0
1140,284.75,164.618,219.324,79.8276,100.861,64.9572,0.0409285,2.14564,17.4928,3.8836,4.25585,0.0,0.0
1159,289.5,162.469,214.795,93.8864,100.816,66.8061,0.0362628,1.98925,17.752,3.00279,3.98007,0.0,0.0
1178,294.25,159.552,208.712,88.0565,100.802,67.4062,0.0320549,1.78921,18.0953,2.19203,3.89226,0.0,0.0
1197,299,155.917,200.218,95.4022,100.791,68.8133,0.0275537,1.59486,18.4329,1.52141,3.69137,0.0,0.0
1216,303.75,149.717,190.597,98.8454,100.79,70.9594,0.0232494,1.37193,18.8067,0.890826,3.39425,0.0,0.0
1235,308.5,143.028,179.794,108.573,100.749,73.5355,0.0201264,1.14444,19.1975,0.490455,3.04541,0.0,0.0
1254,313.25,134.286,165.276,115.889,100.721,76.8756,0.016257,0.887797,19.6571,0.190176,2.61308,0.0,0.0
1273,318,124.365,151.244,125.212,100.714,88.4814,0.0110164,0.632369,20.0998,0.0500464,1.25249,0.0,0.0
1292,322.75,114.277,136.08,125.471,100.698,96.1924,0.00654086,0.421283,20.4703,0.0600557,0.442698,0.0,0.0
1311,327.5,104.83,122.774,130.904,100.67,97.244,0.00413596,0.272508,20.6889,0.070065,0.334928,0.0,0.0
1330,332.25,96.693,110.271,132.309,100.68,97.1084,0.0030208,0.195153,20.7946,0.0800743,0.349361,0.0,0.0
1349,337,89.708,100.046,132.326,100.63,98.0677,0.0027689,0.155506,20.836,0.0600557,0.249477,0.0,0.0
1368,341.75,83.7082,92.2204,132.39,100.605,99.0681,0.0029047,0.137026,20.8535,0.0800743,0.148893,0.0,0.0
1387,346.5,79.6086,85.4718,134.361,100.558,98.2301,0.00282673,0.128185,20.8587,0.0800743,0.226524,0.0,0.0
1406,351.25,75.6306,79.2666,130.466,100.528,98.6118,0.0028976,0.123441,20.8618,0.100093,0.186169,0.0,0.0
1425,356,71.258,73.4283,132.182,100.495,98.7092,0.00255096,0.120578,20.8637,0.070065,0.173452,0.0,0.0
1444,360.75,69.0413,69.9067,132.287,100.44,98.2419,0.00233794,0.118805,20.8621,0.0800743,0.213994,0.0,0.0
1463,365.5,66.0545,66.1807,134.37,100.409,98.3121,0.00238698,0.117299,20.8636,0.100093,0.204149,0.0,0.0
1482,370.25,63.1586,62.7489,133.316,100.365,98.1733,0.00233466,0.116319,20.8641,0.0900836,0.213555,0.0,0.0
1501,375,61.3356,59.3035,131.936,100.329,98.0482,0.0026491,0.115507,20.8648,0.110102,0.222438,0.0,0.0
1520,379.75,59.9477,57.4097,134.662,100.293,99.1903,0.00281838,0.115151,20.8672,0.100093,0.106944,0.0,0.0
1539,384.5,57.7683,54.5097,133.922,100.366,98.5103,0.00255233,0.114734,20.867,0.0800743,0.180491,0.0,0.0
1558,389.25,56.5965,53.9071,136.593,100.481,99.3551,0.00222824,0.115568,20.8665,0.100093,0.108996,0.0,0.0
1577,394,55.2139,51.6832,138.125,100.6,99.6897,0.00214241,0.116089,20.8665,0.110102,0.0878897,0.0,0.0
1596,398.75,53.9735,50.4077,133.818,100.686,100.124,0.00238981,0.11562,20.8673,0.0900836,0.0541455,0.0,0.0
1615,403.5,53.4956,48.3192,136.393,100.751,99.2362,0.00254475,0.114883,20.8673,0.110102,0.146501,0.0,0.0
1634,408.25,52.2423,47.155,136.021,100.795,100.297,0.00251149,0.11429,20.8672,0.0900836,0.0479394,0.0,0.0
1653,413,50.6149,46.2104,134.867,100.828,100.405,0.00247903,0.113727,20.8694,0.100093,0.0406065,0.0,0.0
1672,417.75,49.5353,45.2203,132.697,100.857,100.498,0.00264709,0.11345,20.8698,0.100093,0.0344584,0.0,0.0
1691,422.5,49.4446,43.7723,133.655,100.845,100.5,0.00265677,0.113147,20.8698,0.0900836,0.0331726,0.0,0.0
1710,427.25,48.2096,43.3339,138.415,100.812,100.834,0.00253352,0.112741,20.869,0.0900836,-0.00212407,0.0,0.0
1729,432,47.3308,42.2966,133.693,100.755,101.358,0.00263726,0.112594,20.8686,0.110102,-0.0577253,0.0,0.0
1748,436.75,46.5544,41.807,135.089,100.678,101.384,0.00245944,0.11252,20.8704,0.120111,-0.0676128,0.0,0.0
1767,441.5,45.6852,41.1643,134.066,100.546,101.088,,,,0.110102,-0.0519432,0.0,0.0
1786,446.25,44.2959,39.8455,134.898,100.423,101.301,,,,0.110102,-0.0841574,0.0,0.0
1798,449.25,44.4819,40.5789,137.575,100.328,100.355,,,,0.130121,-0.00256808,0.0,0.0