Folder: fsri_materials_database/01_Data/PP/Cone (part 4)

File: PP_Cone_HF75Scan_220204_R1.csv
Names,Time,Stack TC,Smoke TC,Exh Press,Smoke Comp,Smoke Meas,CO Meter,CO2 Meter,O2 Meter,Sample Mass,Ext Coeff,Start Test,Flame Verif
Chan Gain,,500,500,1,1,1,1,1,1,1,1,1.0,1.0
Offset,,0,0,0.14021,0,0,0,0,0,0,0,0.0,0.0
Gain,,1,1,25.011,13.3046,13.3037,1,1,1,1.00093,1.10262,1.0,1.0
Units,sec,C,C,Pa,%,%,%,%,%,g,/m,,
Baseline,,39.2725,42.4986,131.939,100.913,104.718,0.000891173,0.121797,20.838,-871.643,-0.357919,,
10,2.25,34.6674,36.696,135.139,101.316,105.361,0.000975003,0.130756,20.8258,26.975,-0.378658,0.0,0.0
20,4.75,35.222,37.5303,132.41,101.313,104.704,0.000881626,0.128913,20.8277,26.985,-0.318398,0.0,0.0
30,7.25,35.8375,37.8401,130.382,101.308,105.934,0.000854978,0.128092,20.8275,26.965,-0.431838,0.0,0.0
40,9.75,35.9577,38.4421,134.441,101.318,105.349,0.000823998,0.12809,20.8271,26.985,-0.37742,0.0,0.0
50,12.25,36.4536,38.2165,128.403,101.313,105.845,0.000726579,0.127583,20.827,26.985,-0.42325,0.0,0.0
60,14.75,36.3504,38.8191,133.113,101.32,104.984,0.000976727,0.127366,20.825,26.935,-0.343543,0.0,0.0
70,17.25,36.9192,39.1283,132.428,101.326,104.834,0.00135688,0.132994,20.7978,26.8549,-0.329113,0.0,1.0
80,19.75,37.0189,39.6917,123.414,101.321,103.211,0.00181497,0.157793,20.7093,26.8349,-0.178804,0.0,1.0
90,22.25,38.6889,42.0062,117.868,101.324,93.9079,0.00274919,0.208186,20.5675,26.7148,0.735169,0.0,0.0
100,24.75,40.9091,44.3404,116.424,101.322,86.4242,0.00466828,0.276437,20.418,26.5747,1.53821,0.0,0.0
110,27.25,43.7384,48.3497,112.503,101.333,80.5401,0.00717064,0.376892,20.2189,26.3645,2.22122,0.0,0.0
120,29.75,47.5754,53.7951,107.417,101.321,78.2174,0.00968451,0.500045,19.9562,26.0342,2.50313,0.0,0.0
130,32.25,51.6743,60.53,102.74,101.33,73.5659,0.0124841,0.631858,19.7138,25.7038,3.09699,0.0,0.0
140,34.75,56.9862,67.0385,96.6799,101.327,72.3999,0.0157954,0.768917,19.4176,25.3735,3.25125,0.0,0.0
150,37.25,62.278,75.6478,87.7336,101.324,67.2158,0.0192212,0.92142,19.1332,24.9932,3.96955,0.0,0.0
160,39.75,68.7157,83.9649,98.6148,101.32,65.1988,0.0227308,1.08076,18.8683,24.5328,4.26392,0.0,0.0
170,42.25,74.586,92.7265,88.7465,101.316,63.3694,0.0260621,1.2348,18.5996,24.1224,4.53872,0.0,0.0
180,44.75,80.7257,102.116,86.8619,101.318,59.9557,0.0298756,1.37887,18.3807,23.6219,5.0745,0.0,0.0
190,47.25,86.6936,111.245,86.2773,101.331,58.2859,0.0351235,1.5241,18.1373,23.0113,5.34898,0.0,0.0
200,49.75,93.643,120.225,93.3627,101.322,55.271,0.0406131,1.6816,17.8583,22.5609,5.86188,0.0,0.0
210,52.25,99.7063,129.706,75.0243,101.319,59.3317,0.0480435,1.85514,17.6071,21.7902,5.17581,0.0,0.0
220,54.75,107.736,141.297,73.7702,101.322,58.6005,0.056885,2.11845,17.0541,21.1997,5.2961,0.0,0.0
230,57.25,116.342,155.598,67.9213,101.311,55.4967,0.0666362,2.43959,16.4535,20.2788,5.82141,0.0,0.0
240,59.75,125.623,170.116,64.5415,101.319,59.5867,0.0764897,2.80108,15.7934,19.6382,5.13433,0.0,0.0
250,62.25,134.582,185.719,80.9114,101.302,54.5946,0.0839954,3.19104,15.1111,18.7574,5.97903,0.0,0.0
260,64.75,145.505,202.756,63.3279,101.301,57.4877,0.0907494,3.60748,14.458,17.6764,5.47952,0.0,0.0
270,67.25,155.248,220.111,67.9678,101.282,54.3161,0.0989943,4.01573,13.9118,16.6755,6.0266,0.0,0.0
280,69.75,165.752,237.073,66.6993,101.287,64.7883,0.105143,4.5128,12.9687,15.6345,4.32186,0.0,0.0
290,72.25,177.398,258.738,46.4908,101.239,58.7252,0.108547,5.18629,11.9224,14.3633,5.2676,0.0,0.0
300,74.75,188.755,279.302,53.7862,101.209,59.2854,0.109959,5.79921,11.1345,13.0921,5.17285,0.0,0.0
310,77.25,198.61,297.849,83.1249,101.164,58.3529,0.107001,6.33919,10.3058,11.9711,5.32193,0.0,0.0
320,79.75,209.396,318.133,54.9311,101.089,59.0902,0.101066,6.94223,9.35798,10.6899,5.19327,0.0,0.0
330,82.25,219.245,335.88,46.3725,101.012,66.1614,0.0966233,7.37985,8.92991,9.24858,4.0927,0.0,0.0
340,84.75,227.798,351.688,47.8815,100.896,68.5555,0.0967444,7.58879,8.84852,7.8673,3.73779,0.0,0.0
350,87.25,235.132,361.34,57.2629,100.752,65.3506,0.0991277,7.5952,8.95273,6.76628,4.18704,0.0,0.0
360,89.75,240.651,370.065,45.8374,100.722,65.7477,0.10001,7.51136,9.10743,5.66526,4.12557,0.0,0.0
370,92.25,246.663,378.403,47.6998,100.789,64.2284,0.099122,7.44622,9.26388,4.5242,4.35808,0.0,0.0
380,94.75,250.894,383.797,40.8181,100.868,69.2007,0.101931,7.27447,9.68627,3.19296,3.64452,0.0,0.0
390,97.25,252.92,385.987,70.9385,100.968,56.0911,0.106251,6.97814,10.0999,2.42225,5.68548,0.0,0.0
400,99.75,255.208,387.56,60.1473,101.075,56.4983,0.107434,6.65748,10.624,1.30121,5.62582,0.0,0.0
410,102.25,255.744,385.675,69.2501,101.198,53.148,0.104039,6.20996,11.4453,0.510474,6.22884,0.0,0.0
420,104.75,254.725,380.839,68.5403,101.293,49.1116,0.097454,5.59866,12.6937,-0.230214,7.00187,0.0,0.0
430,107.25,251.73,371.539,65.3658,101.4,49.3467,0.0875696,4.88346,13.8111,-0.990919,6.96583,0.0,0.0
440,109.75,246.321,359.694,76.9844,101.453,57.2023,0.0718707,4.22251,14.9398,-1.43133,5.54215,0.0,0.0
450,112.25,239.494,344.176,85.301,101.478,60.4429,0.0556093,3.45358,16.3324,-1.8317,5.01152,0.0,0.0
460,114.75,229.804,326.714,105.074,101.437,77.2978,0.0394816,2.69975,17.6652,-1.99185,2.6286,0.0,0.0
470,117.25,217.658,305.565,112.332,101.337,98.0998,0.0247427,1.98242,18.8428,-1.92178,0.31398,0.0,0.0
480,119.75,205.322,285.139,115.284,101.151,99.8959,0.0152277,1.34577,19.6815,-1.93179,0.120768,0.0,0.0
490,122.25,193.059,265.417,113.825,100.916,99.6117,0.00928513,0.930263,20.1703,-1.96182,0.12578,0.0,0.0
500,124.75,182.988,249.249,115.82,100.628,99.6454,0.00594987,0.656929,20.4702,-1.93179,0.0949174,0.0,0.0
510,127.25,174.93,234.558,119.024,100.312,98.9224,0.00422057,0.478697,20.6337,-1.96182,0.13491,0.0,0.0
520,129.75,166.349,221.154,113.424,100.001,98.7023,0.00322407,0.373061,20.707,-1.96182,0.126453,0.0,0.0
530,132.25,159.302,209.3,116.766,99.7166,98.034,0.00254107,0.30851,20.7433,-1.98184,0.164594,0.0,0.0
540,134.75,152.799,197.949,116.717,99.4986,97.9845,0.00191809,0.264498,20.7684,-1.96182,0.14831,0.0,0.0
550,137.25,146.889,188.051,119.41,99.3792,97.5728,0.00162306,0.236526,20.7826,-1.96182,0.177422,0.0,0.0
560,139.75,141.925,179.598,118.167,99.393,97.8314,0.00159757,0.21347,20.7925,-1.93179,0.153164,0.0,0.0
570,142.25,137.03,171.272,119.416,99.512,98.3243,0.0017664,0.196963,20.8004,-1.95181,0.116126,0.0,0.0
580,144.75,132.233,163.841,116.859,99.7641,97.8136,0.00187757,0.184547,20.8042,-1.97183,0.190976,0.0,0.0
590,147.25,128.986,157.311,118.104,100.052,98.0052,0.00171873,0.175067,20.8073,-1.97183,0.199953,0.0,0.0
600,149.75,125.596,151.616,115.561,100.352,98.4254,0.00132608,0.16701,20.8116,-1.97183,0.187456,0.0,0.0
610,152.25,121.557,145.247,118.856,100.591,98.5147,0.00101535,0.161503,20.8154,-1.98184,0.201743,0.0,0.0
620,154.75,118.638,141.205,119.908,100.752,98.4648,0.00102063,0.15625,20.8204,-2.01187,0.222096,0.0,0.0
630,157.25,115.899,136.053,119.789,100.775,98.4932,0.00111931,0.151804,20.8246,-1.99185,0.221487,0.0,0.0
640,159.75,113.725,132.509,118.973,100.749,98.7153,0.00124488,0.148165,20.8272,-2.00186,0.197208,0.0,0.0
650,162.25,110.77,128.035,118.881,100.68,98.4453,0.00143779,0.144668,20.8304,-1.99185,0.217108,0.0,0.0
660,164.75,108.318,124.063,116.569,100.545,98.1424,0.00144746,0.141965,20.8331,-1.97183,0.233913,0.0,0.0
670,167.25,106.934,121.475,119.209,100.454,98.2224,0.00133163,0.139611,20.834,-2.00186,0.217241,0.0,0.0
680,169.75,105.434,118.281,119.027,100.923,98.7096,0.00122454,0.137667,20.8331,-2.00186,0.214473,0.0,0.0
690,172.25,103.273,115.996,120.545,101.228,98.7835,0.0010993,0.13578,20.8338,-2.00186,0.236453,0.0,0.0
700,174.75,101.874,112.596,120.58,101.277,98.76,0.00111725,0.134217,20.8347,-2.02188,0.243452,0.0,0.0
710,177.25,100.075,110.236,120.032,101.08,98.5817,0.00111172,0.132695,20.8377,-2.01187,0.24202,0.0,0.0
720,179.75,98.8687,107.956,124.386,100.694,98.0422,0.00101684,0.131263,20.8407,-2.03189,0.258125,0.0,0.0
730,182.25,97.34,106.109,121.889,100.888,98.6926,0.00101134,0.130121,20.8424,-1.99185,0.212836,0.0,0.0
740,184.75,95.5647,103.836,118.278,101.141,98.5679,0.000991668,0.1291,20.8453,-2.00186,0.24924,0.0,0.0
750,187.25,95.195,101.73,122.989,101.362,98.6788,0.000898596,0.128032,20.8476,-2.01187,0.25947,0.0,0.0
760,189.75,92.8533,99.9231,121.819,101.471,98.6723,0.000740436,0.127287,20.8486,-2.00186,0.270483,0.0,0.0
770,192.25,92.6218,98.6825,121.507,101.436,98.4413,0.000625118,0.12637,20.8434,-2.01187,0.289826,0.0,0.0
780,194.75,91.8534,97.3395,117.363,101.223,98.9865,0.000543933,0.125544,20.8428,-2.00186,0.216054,0.0,0.0
790,197.25,90.8103,95.4703,121.592,100.877,98.0527,0.0005841,0.125085,20.843,-2.02188,0.274696,0.0,0.0
800,199.75,89.3081,93.4975,122.856,100.417,97.2716,0.00075082,0.124431,20.8441,-1.99185,0.307849,0.0,0.0
810,202.25,88.9247,92.5338,119.148,99.9545,97.0982,0.000963258,0.123789,20.8445,-2.00186,0.280416,0.0,0.0
820,204.75,87.8288,92.0503,119.237,99.5997,96.799,0.00105186,0.123251,20.8472,-2.02188,0.275868,0.0,0.0
830,207.25,87.4145,90.5658,121.205,99.4072,96.5997,0.0010344,0.122924,20.8486,-2.01187,0.2771,0.0,0.0
840,209.75,86.4764,89.2017,119.43,99.4446,96.6585,0.000931059,0.122393,20.8492,-2.02188,0.274842,0.0,0.0
850,212.25,85.3985,88.5872,123.449,99.6374,96.758,0.000738062,0.12202,20.8509,-2.01187,0.283633,0.0,0.0
860,214.75,85.3503,87.3735,122.192,99.9744,97.2655,0.000715601,0.121776,20.8484,-1.99185,0.265694,0.0,0.0
870,217.25,84.3158,86.6337,119.093,100.335,97.6345,0.000828967,0.121195,20.8475,-2.03189,0.263884,0.0,0.0
880,219.75,83.5904,85.5554,121.944,100.651,97.4364,0.000903092,0.12076,20.8472,-2.00186,0.313972,0.0,0.0
890,222.25,82.8366,84.8629,121.485,100.781,98.7108,0.00076321,0.120443,20.8471,-2.03189,0.200764,0.0,0.0
900,224.75,82.3506,84.0786,123.473,100.741,97.885,0.000567596,0.120169,20.8483,-2.02188,0.278161,0.0,0.0
910,227.25,81.0957,82.8556,120.264,100.626,97.6094,0.00060029,0.11993,20.8485,-2.02188,0.294439,0.0,0.0
920,229.75,81.1333,82.055,121.157,100.491,97.8063,,0.119738,,-2.00186,0.261943,0.0,0.0
930,232.25,80.5267,81.7843,125.128,100.541,98.0637,,,,-2.00186,0.241288,0.0,0.0
940,234.75,79.5188,81.1767,120.841,101.081,98.7514,,,,-2.03189,0.22554,0.0,0.0
950,237.25,79.4629,80.0556,120.648,101.261,98.5436,,,,-2.01187,0.263078,0.0,0.0
959,239.5,78.716,79.4641,124.188,101.131,98.7835,,,,-2.03189,0.227138,0.0,0.0

File: PP_Cone_HF75Scan_220204_R2.csv
Names,Time,Stack TC,Smoke TC,Exh Press,Smoke Comp,Smoke Meas,CO Meter,CO2 Meter,O2 Meter,Sample Mass,Ext Coeff,Start Test,Flame Verif
Chan Gain,,500,500,1,1,1,1,1,1,1,1,1.0,1.0
Offset,,0,0,0.14021,0,0,0,0,0,0,0,0.0,0.0
Gain,,1,1,25.011,13.3046,13.3037,1,1,1,1.00093,1.10262,1.0,1.0
Units,sec,C,C,Pa,%,%,%,%,%,g,/m,,
Baseline,,52.409,53.1388,129.006,100.612,99.961,0.00086055,0.119,20.8399,-871.934,0.0629721,,
10,2.25,45.8251,45.6635,130.246,101.031,99.5906,0.0013395,0.133625,20.8268,28.036,0.138875,0.0,0.0
20,4.75,45.6733,46.4247,131.085,101.078,100.85,0.00129143,0.12996,20.8314,28.0861,0.0218386,0.0,0.0
30,7.25,46.084,46.5612,129.682,101.144,100.372,0.00112683,0.126704,20.8352,28.056,0.0740695,0.0,0.0
40,9.75,46.4025,46.8366,129.876,101.154,100.456,0.00110556,0.124695,20.8376,28.056,0.067022,0.0,0.0
50,12.25,46.8238,46.8993,132.197,101.204,100.51,0.0010829,0.123474,20.8395,28.056,0.0665216,0.0,0.0
60,14.75,47.1773,47.9413,130.914,101.19,99.2143,0.00113786,0.122488,20.8359,28.006,0.190721,0.0,0.0
70,17.25,47.2609,47.6429,127.557,101.207,99.2005,0.00128442,0.126006,20.8225,27.9659,0.193696,0.0,1.0
80,19.75,47.3055,48.787,123.464,101.205,99.7043,0.00151163,0.145629,20.7506,27.9259,0.144503,0.0,1.0
90,22.25,48.5546,49.6591,117.91,101.201,93.767,0.00225719,0.187684,20.6292,27.8358,0.737938,0.0,1.0
100,24.75,50.2144,52.1209,111.922,101.175,86.887,0.00402661,0.260808,20.4627,27.6356,1.47251,0.0,0.0
110,27.25,52.4924,55.4954,105.157,101.172,80.9717,0.00635975,0.361555,20.2331,27.4555,2.15421,0.0,0.0
120,29.75,56.4433,60.6885,105.107,101.142,77.3957,0.00891123,0.476032,19.9957,27.1452,2.58822,0.0,0.0
130,32.25,60.9895,66.455,95.6014,101.101,74.939,0.0112262,0.603406,19.7768,26.995,2.89624,0.0,0.0
140,34.75,65.0862,72.525,96.7257,101.073,70.6862,0.0139118,0.716645,19.5748,26.5646,3.45865,0.0,0.0
150,37.25,69.7601,79.2983,94.8313,101.028,70.0196,0.0169457,0.852571,19.3586,26.2544,3.54598,0.0,0.0
160,39.75,75.0047,86.6636,100.105,100.99,65.9373,0.020893,0.980419,19.1056,25.834,4.12342,0.0,0.0
170,42.25,80.2324,94.7684,85.0308,100.935,63.2061,0.0247329,1.12517,18.8308,25.3836,4.52732,0.0,0.0
180,44.75,85.6856,102.307,86.3879,100.908,63.0933,0.0291498,1.26509,18.5643,24.8531,4.54196,0.0,0.0
190,47.25,92.5134,111.837,81.3259,100.833,64.2958,0.0339429,1.43554,18.2829,24.3926,4.35214,0.0,0.0
200,49.75,98.782,121.796,84.824,100.742,56.1755,0.03832,1.60008,17.9941,23.8221,5.64932,0.0,0.0
210,52.25,105.099,131.671,85.3232,100.68,56.8694,0.0436923,1.78534,17.6698,23.2716,5.52466,0.0,0.0
220,54.75,113.279,142.696,75.8273,100.714,53.7651,0.0500302,1.98754,17.3033,22.591,6.07077,0.0,0.0
230,57.25,120.628,154.168,69.9897,100.743,53.9426,0.0570067,2.22538,16.9626,21.9404,6.04175,0.0,0.0
240,59.75,128.76,167.103,91.5278,100.766,53.0246,0.0659197,2.49667,16.5104,21.1296,6.20994,0.0,0.0
250,62.25,137.925,181.059,52.7619,100.801,58.7361,0.0740603,2.84911,15.7604,20.2087,5.22389,0.0,0.0
260,64.75,146.537,196.914,67.8762,100.822,51.3446,0.0818826,3.23626,15.1254,19.2879,6.52673,0.0,0.0
270,67.25,155.407,212.025,86.1841,100.872,56.5097,0.088492,3.68703,14.3916,18.5172,5.60443,0.0,0.0
280,69.75,166.102,231.644,63.7301,100.897,57.1747,0.0929541,4.28812,13.4119,17.3261,5.49364,0.0,0.0
290,72.25,177.198,251.101,36.3476,100.96,60.8928,0.0957234,4.88111,12.508,16.0649,4.89033,0.0,0.0
300,74.75,187.601,269.983,55.7554,100.979,59.4418,0.0968126,5.44515,11.5966,15.0339,5.12539,0.0,0.0
310,77.25,198.061,289.757,46.5931,101.043,65.1602,0.097136,6.02155,10.7107,13.7728,4.24309,0.0,0.0
320,79.75,208.334,308.896,50.7995,101.086,62.8956,0.0958889,6.56888,10.0855,12.5216,4.58935,0.0,0.0
330,82.25,218.802,327.478,50.1614,101.141,65.3198,0.0896073,6.96824,9.54287,11.0302,4.22884,0.0,0.0
340,84.75,228.546,344.387,54.0442,101.177,77.6251,0.083071,7.44771,8.7806,9.65896,2.56289,0.0,0.0
350,87.25,238.851,363.497,39.4343,101.247,78.5934,0.0780369,7.98466,7.98769,8.4078,2.4497,0.0,0.0
360,89.75,248.686,382.845,51.5727,101.29,78.1326,0.0729383,8.60782,7.01493,6.77629,2.51073,0.0,0.0
370,92.25,260.613,406.024,54.6975,101.334,80.9055,0.0685448,9.30021,5.98815,5.50511,2.17756,0.0,0.0
380,94.75,270.292,423.838,59.007,101.381,71.6744,0.068662,9.74967,5.45697,4.18388,3.35385,0.0,0.0
390,97.25,277.791,437.169,28.1493,101.43,79.1074,0.074408,9.88854,5.43477,2.45228,2.40413,0.0,0.0
400,99.75,282.823,444.086,55.8699,101.446,58.4024,0.0862954,9.70013,5.85259,1.41131,5.34067,0.0,0.0
410,102.25,284.096,442.22,45.6031,101.472,55.4435,0.0998915,8.9806,6.95579,0.350325,5.84602,0.0,0.0
420,104.75,282.017,433.206,69.7898,101.511,50.0661,0.103632,7.87345,9.24705,-0.230214,6.83645,0.0,0.0
430,107.25,276.343,418.132,71.0377,101.518,57.0042,0.0885048,6.37247,11.9245,-0.720669,5.5819,0.0,0.0
440,109.75,266.134,395.741,101.489,101.532,85.3763,0.0611497,4.77588,14.9105,-0.860799,1.67618,0.0,0.0
450,112.25,250.101,366.48,110.08,101.522,97.5891,0.0392237,3.23612,17.2218,-0.890826,0.382162,0.0,0.0
460,114.75,234.787,339.652,109.566,101.524,97.8968,0.0231253,2.1633,18.7411,-0.860799,0.351903,0.0,0.0
470,117.25,222.059,316.957,113.204,101.491,100.888,0.014138,1.4241,19.6672,-0.860799,0.057651,0.0,0.0
480,119.75,210.555,295.697,113.116,101.473,101.262,0.00917225,0.949014,20.1554,-0.820762,0.0200887,0.0,0.0
490,122.25,199.053,277.418,111.094,101.43,100.955,0.00636919,0.673515,20.3952,-0.770715,0.0454253,0.0,0.0
500,124.75,189.609,260.146,113.989,101.4,101.043,0.00443227,0.514033,20.5486,-0.800743,0.0341229,0.0,0.0
510,127.25,180.761,245.013,113.528,101.339,100.651,0.00329175,0.404521,20.6415,-0.790734,0.065964,0.0,0.0
520,129.75,173.156,231.422,114.392,101.287,100.866,0.00260828,0.32971,20.6946,-0.810752,0.0402701,0.0,0.0
530,132.25,166.446,219.364,116.168,101.226,101.076,0.00210939,0.281952,20.7242,-0.850789,0.0143466,0.0,0.0
540,134.75,159.932,208.831,113.966,101.179,100.699,0.00189935,0.249799,20.7421,-0.830771,0.0460427,0.0,0.0
550,137.25,154.79,199.084,112.512,101.113,100.926,0.00182541,0.227219,20.7562,-0.870808,0.0179011,0.0,0.0
560,139.75,149.877,189.419,116.532,101.042,99.7047,0.00174336,0.209821,20.765,-0.890826,0.12889,0.0,0.0
570,142.25,144.798,181.532,118.109,100.958,100.165,0.00155777,0.197101,20.7714,-0.880817,0.0762432,0.0,0.0
580,144.75,141.046,174.336,117.782,100.876,100.255,0.00131603,0.186986,20.7765,-0.870808,0.0597219,0.0,0.0
590,147.25,136.918,167.086,119.452,100.802,100.247,0.00120887,0.178798,20.78,-0.860799,0.0533795,0.0,0.0
600,149.75,133.13,160.631,115.789,100.73,99.6613,0.00124575,0.172365,20.7812,-0.860799,0.10317,0.0,0.0
610,152.25,130.316,155.188,119.281,100.657,99.8432,0.00123168,0.166786,20.7841,-0.860799,0.0785149,0.0,0.0
620,154.75,127.277,150.969,113.601,100.579,99.5711,0.00111865,0.162033,20.7884,-0.860799,0.0973695,0.0,0.0
630,157.25,124.601,145.745,120.177,100.506,99.6012,0.00105294,0.158365,20.794,-0.830771,0.08746,0.0,0.0
640,159.75,122.278,141.111,117.415,100.429,99.1708,0.000948029,0.154206,20.8014,-0.800743,0.121954,0.0,0.0
650,162.25,119.901,137.383,121.821,100.364,98.9593,0.000894759,0.150744,20.8068,-0.820762,0.136307,0.0,0.0
660,164.75,117.575,133.275,115.841,100.284,98.5545,0.0010568,0.147684,20.8121,-0.860799,0.168239,0.0,0.0
670,167.25,115.055,130.107,119.339,100.232,99.1997,0.00105279,0.144938,20.8162,-0.830771,0.100119,0.0,0.0
680,169.75,113.263,126.871,115.024,100.157,98.9106,0.00087429,0.14267,20.8193,-0.860799,0.121133,0.0,0.0
690,172.25,111.477,123.971,116.557,100.098,97.8355,0.00077595,0.140663,20.8176,-0.880817,0.221111,0.0,0.0
700,174.75,109.965,121.04,114.733,100.033,98.1213,0.000729981,0.138749,20.8155,-0.860799,0.186654,0.0,0.0
710,177.25,108.47,118.515,117.641,99.9866,98.1299,0.000638322,0.136934,20.8166,-0.870808,0.181299,0.0,0.0
720,179.75,106.352,115.185,117.307,99.9277,98.2581,0.000428209,0.135545,20.8183,-0.920854,0.162965,0.0,0.0
730,182.25,105.413,114.52,116.028,99.8766,98.1112,0.000285329,0.134386,20.8192,-0.900836,0.172491,0.0,0.0
740,184.75,104.535,112.118,117.948,99.8372,97.7535,0.000450179,0.133682,20.8186,-0.880817,0.204001,0.0,0.0
750,187.25,102.962,109.966,117.211,99.7937,97.641,0.00072173,0.133371,20.8178,-0.890826,0.210926,0.0,0.0
760,189.75,101.581,107.78,118.249,99.7742,97.7913,0.000803103,0.133277,20.8175,-0.880817,0.194168,0.0,0.0
770,192.25,100.697,106.239,118.475,99.7304,97.5099,0.000825576,0.132933,20.8174,-0.870808,0.217784,0.0,0.0
780,194.75,99.8133,104.824,119.337,99.7182,97.108,0.00076416,0.132382,20.8158,-0.880817,0.256553,0.0,0.0
790,197.25,99.0544,102.758,122.444,99.687,97.7584,0.000685495,0.131737,20.8138,-0.890826,0.188954,0.0,0.0
800,199.75,97.766,101.918,117.263,99.6711,97.1408,0.000722853,0.131383,20.8146,-0.900836,0.248709,0.0,0.0
810,202.25,97.0206,100.778,121.113,99.6488,97.1356,0.000753124,0.130867,20.8149,-0.910845,0.247067,0.0,0.0
820,204.75,95.8184,99.3254,121.918,99.6447,97.1932,0.000836462,0.130329,20.8157,-0.890826,0.240934,0.0,0.0
830,207.25,95.0127,98.2897,119.072,99.637,97.2135,0.000873821,0.129929,20.8168,-0.890826,0.238165,0.0,0.0
840,209.75,94.0905,96.6068,118.913,99.6325,96.8327,0.000809293,0.129292,20.8172,-0.880817,0.275696,0.0,0.0
850,212.25,93.2249,95.5044,122.93,99.6362,96.8692,0.000602064,0.128917,20.8183,-0.890826,0.272401,0.0,0.0
860,214.75,92.7725,94.4149,118.87,99.6362,97.369,0.000426576,0.128379,20.8193,-0.870808,0.222628,0.0,0.0
870,217.25,91.55,93.4742,118.723,99.6403,96.8217,0.000404946,0.127974,20.8196,-0.890826,0.277539,0.0,0.0
880,219.75,90.9474,92.8594,118.394,99.6459,96.594,0.000599932,0.127579,20.8173,-0.890826,0.30087,0.0,0.0
890,222.25,90.8084,91.8326,119.821,99.6573,96.7629,0.000689993,0.127202,20.8177,-0.850789,0.285076,0.0,0.0
900,224.75,90.272,90.6412,115.949,99.6606,96.8262,0.000684523,0.127044,20.8178,-0.880817,0.279064,0.0,0.0
910,227.25,89.0316,89.8698,120.828,99.6691,96.8567,0.000632229,0.126867,20.8165,-0.870808,0.27685,0.0,0.0
920,229.75,88.4413,89.3206,121.156,99.6593,96.9139,,0.126819,,-0.830771,0.270189,0.0,0.0
930,232.25,87.876,88.489,119.856,99.6736,96.4555,,,,-0.850789,0.317422,0.0,0.0
940,234.75,87.0104,87.4909,120.303,99.6845,96.341,,,,-0.84078,0.329973,0.0,0.0
950,237.25,86.7199,87.0916,123.847,99.7142,96.4251,,,,-0.84078,0.324415,0.0,0.0
954,238.25,86.5975,86.5255,120.393,99.7036,96.2895,,,,-0.850789,0.337003,0.0,0.0