Folder: fsri_materials_database/01_Data/PP/Cone (part 2)

File: PP_Cone_HF25Scan_220203_R3.csv
Names,Time,Stack TC,Smoke TC,Exh Press,Smoke Comp,Smoke Meas,CO Meter,CO2 Meter,O2 Meter,Sample Mass,Ext Coeff,Start Test,Flame Verif
Chan Gain,,500,500,1,1,1,1,1,1,1,1,1.0,1.0
Offset,,0,0,0.14021,0,0,0,0,0,0,0,0.0,0.0
Gain,,1,1,25.011,13.3046,13.3037,1,1,1,1.00093,1.10262,1.0,1.0
Units,sec,C,C,Pa,%,%,%,%,%,g,/m,,
Baseline,,24.093,24.1405,141.62,100.661,104.837,0.00249599,0.113394,20.87,-870.133,-0.393135,,
17,4,21.5866,22.1455,137.187,99.9712,103.141,0.0025796,0.124087,20.8591,29.5674,-0.301921,0.0,0.0
34,8.25,22.6184,22.2217,139.026,100.572,104.068,0.00267657,0.121756,20.863,29.5374,-0.330526,0.0,0.0
51,12.5,22.5049,22.0294,141.623,100.845,103.803,0.00249837,0.119842,20.8656,29.5274,-0.279689,0.0,0.0
68,16.75,22.1989,22.105,143.089,100.539,104.066,0.00242108,0.1163,20.8709,29.4974,-0.3335,0.0,0.0
85,21,22.7039,22.5419,137.728,100.448,104.121,0.00249014,0.113654,20.8743,29.5274,-0.347309,0.0,0.0
102,25.25,22.4555,22.5842,138.638,100.791,104.022,0.00234795,0.112024,20.8782,29.5174,-0.305238,0.0,0.0
119,29.5,22.7684,22.7911,140.559,101.07,104.554,0.00249816,0.110822,20.8792,29.5174,-0.327796,0.0,0.0
136,33.75,22.7714,22.4414,142.589,100.977,105.255,0.00269237,0.110165,20.8796,29.5174,-0.401343,0.0,0.0
153,38,22.4203,22.4703,139.529,100.482,104.677,0.00253807,0.109672,20.8812,29.5274,-0.395598,0.0,0.0
170,42.25,22.4532,22.6832,142.151,99.801,103.732,0.00243252,0.109324,20.8815,29.5174,-0.373631,0.0,0.0
187,46.5,22.7899,22.5084,145.001,99.2399,103.006,0.00244494,0.109186,20.8816,29.5174,-0.360281,0.0,0.0
204,50.75,22.3691,23.0033,141.815,99.1132,102.453,0.0024553,0.110101,20.8809,29.4974,-0.320534,0.0,0.0
221,55,22.4521,23.283,140.679,99.5059,103.312,0.00268796,0.1102,20.8796,29.4974,-0.363021,0.0,0.0
238,59.25,22.4586,23.2865,140.745,100.041,104.138,0.00258522,0.11019,20.8805,29.5074,-0.388224,0.0,0.0
255,63.5,22.7168,22.8651,140.52,100.386,104.096,0.00244553,0.10988,20.8814,29.5174,-0.35103,0.0,0.0
272,67.75,22.5828,23.5211,137.714,100.372,103.785,0.00246396,0.11017,20.8801,29.4773,-0.323345,0.0,0.0
289,72,22.4427,22.5699,142.654,100.092,103.599,0.00265615,0.110597,20.8795,29.5074,-0.333112,0.0,0.0
306,76.25,22.4677,22.8704,141.578,99.9289,103.368,0.0026892,0.109978,20.8813,29.4974,-0.327229,0.0,0.0
323,80.5,22.7723,23.2898,143.105,100.682,103.67,0.00271787,0.109434,20.8793,29.5074,-0.282902,0.0,0.0
340,84.75,22.3565,23.3176,144.952,100.757,103.112,0.00248022,0.109088,20.8791,29.4974,-0.223464,0.0,0.0
357,89,22.2122,22.671,145.091,100.365,102.893,0.00247347,0.108644,20.8793,29.5174,-0.240679,0.0,0.0
374,93.25,22.7592,23.7002,140.538,100.395,102.261,0.00271453,0.108349,20.8794,29.4874,-0.178063,0.0,0.0
391,97.5,22.8091,23.2827,143.24,100.728,102.388,0.00283951,0.108041,20.8794,29.4773,-0.158053,0.0,0.0
408,101.75,22.6288,23.588,142.832,101.019,102.214,0.00303171,0.107993,20.8795,29.4773,-0.113788,0.0,0.0
425,106,22.6285,23.5953,142.148,101.089,101.945,0.00299775,0.110937,20.8722,29.4073,-0.08156,0.0,0.0
442,110.25,22.8369,23.9819,137.817,100.882,103.495,0.00330201,0.130861,20.8329,29.3672,-0.24739,0.0,1.0
459,114.5,24.215,26.0178,136.473,100.464,100.873,0.00316574,0.176344,20.7531,29.2271,-0.039265,0.0,0.0
476,118.75,25.8439,27.6298,132.128,99.9708,99.0746,0.00326754,0.222035,20.6717,29.097,0.0870944,0.0,0.0
493,123,27.3321,29.6688,134.682,99.4973,97.3361,0.00360486,0.255399,20.6217,28.9869,0.212405,0.0,0.0
510,127.25,29.0455,31.9856,127.415,99.2221,95.3874,0.00433029,0.279683,20.5822,28.8468,0.381219,0.0,0.0
527,131.5,30.7432,34.1924,130.014,99.1896,93.0086,0.00501938,0.305022,20.5385,28.6866,0.622309,0.0,0.0
544,135.75,32.3412,36.4107,129.145,99.3479,91.2957,0.00556467,0.335702,20.4831,28.4764,0.817525,0.0,0.0
561,140,34.5271,39.1997,132.738,99.6301,89.0416,0.00665078,0.368198,20.4206,28.2762,1.08676,0.0,0.0
578,144.25,36.6929,42.1579,125.247,99.9436,87.2053,0.00776382,0.401957,20.361,28.036,1.3187,0.0,0.0
595,148.5,38.7278,45.009,120.884,100.229,83.972,0.00857386,0.440685,20.2968,27.8058,1.71167,0.0,0.0
612,152.75,41.3051,48.6653,118.914,100.426,84.9935,0.00894496,0.485797,20.2172,27.4755,1.61371,0.0,0.0
629,157,43.6348,51.9017,118.333,100.511,82.3643,0.00981627,0.532514,20.1303,27.1852,1.92588,0.0,0.0
646,161.25,47.3999,56.6072,118.264,100.489,80.6688,0.010501,0.579297,20.0456,26.8149,2.12491,0.0,0.0
663,165.5,50.458,60.796,117.236,100.375,79.2637,0.0112266,0.634445,19.9519,26.4345,2.28392,0.0,0.0
680,169.75,53.7967,65.6042,109.391,100.216,78.3514,0.0122606,0.691086,19.85,26.0241,2.38058,0.0,0.0
697,174,57.5752,70.4432,113.557,100.096,76.0648,0.0136803,0.755494,19.7468,25.5137,2.6554,0.0,0.0
714,178.25,61.4705,75.7666,114.586,99.9988,74.7924,0.0149742,0.829102,19.6132,25.0432,2.80918,0.0,0.0
731,182.5,64.9116,80.9096,107.262,100.039,75.0251,0.0162179,0.897964,19.4827,24.5328,2.78299,0.0,0.0
748,186.75,69.4244,87.278,96.883,100.376,76.0624,0.0170799,0.968822,19.37,23.9722,2.6827,0.0,0.0
765,191,74.3654,93.5705,104.177,100.601,74.1461,0.0177856,1.03661,19.2532,23.3817,2.95119,0.0,0.0
782,195.25,78.6287,99.7046,104.528,100.767,72.879,0.0192424,1.10145,19.1538,22.7711,3.1339,0.0,0.0
799,199.5,83.5333,106.603,99.1476,100.847,70.0009,0.0211777,1.18098,19.0181,22.1205,3.53129,0.0,0.0
816,203.75,88.3305,113.517,97.7859,100.895,70.0614,0.0230266,1.26279,18.8693,21.4699,3.52749,0.0,0.0
833,208,93.5378,120.65,87.9175,100.881,68.6696,0.0244952,1.35077,18.7296,20.7092,3.72027,0.0,0.0
850,212.25,98.8363,128.125,93.1246,100.845,68.0984,0.0270932,1.45305,18.5501,19.9685,3.79752,0.0,0.0
867,216.5,104.205,135.581,86.0567,100.767,69.7378,0.0293554,1.56097,18.3818,19.1678,3.56003,0.0,0.0
884,220.75,109.919,143.762,89.3029,100.681,66.1776,0.0320817,1.65859,18.2223,18.357,4.05855,0.0,0.0
901,225,116.446,153.029,86.8978,100.578,62.5951,0.0354851,1.78713,17.987,17.4562,4.58698,0.0,0.0
918,229.25,121.511,160.787,71.6911,100.456,65.418,0.0385586,1.92132,17.7797,16.4853,4.14854,0.0,0.0
935,233.5,128.999,171.289,74.4251,100.367,61.8002,0.042322,2.08736,17.4914,15.4643,4.69027,0.0,0.0
952,237.75,134.677,179.787,86.7299,100.404,62.233,0.044921,2.2028,17.3079,14.4734,4.62637,0.0,0.0
969,242,140.761,189.445,86.0979,100.441,64.4964,0.0484133,2.33531,17.1283,13.4225,4.28436,0.0,0.0
986,246.25,147.078,199.172,77.5614,100.478,59.8717,0.0517409,2.49808,16.8364,12.2914,5.00761,0.0,0.0
1003,250.5,154.046,209.39,82.7311,100.514,60.0544,0.056695,2.6637,16.5693,11.1103,4.98154,0.0,0.0
1020,254.75,160.54,219.179,63.982,100.558,61.8189,0.060393,2.84763,16.2776,9.88918,4.70576,0.0,0.0
1037,259,167.66,230.198,80.6779,100.6,59.8851,0.0651453,3.05331,15.9322,8.62801,5.01713,0.0,0.0
1054,263.25,174.515,241.132,78.34,100.658,58.5762,0.069623,3.2373,15.6849,7.34682,5.23646,0.0,0.0
1071,267.5,181.464,251.509,73.8939,100.729,58.4828,0.0712431,3.42979,15.3727,6.01558,5.25876,0.0,0.0
1088,271.75,187.826,261.353,61.9845,100.804,63.9024,0.0728479,3.57232,15.1614,4.65432,4.40874,0.0,0.0
1105,276,192.642,268.097,76.2486,100.876,60.313,0.0697919,3.58305,15.1804,3.42318,4.97481,0.0,0.0
1122,280.25,192.086,264.91,87.342,100.947,59.944,0.0608779,3.23908,15.7785,2.35218,5.04094,0.0,0.0
1139,284.5,187.966,256.089,85.4842,101.003,66.0855,0.0491087,2.7197,16.5926,1.57146,4.10295,0.0,0.0
1156,288.75,180.752,242.019,102.038,101.071,75.0519,0.0342146,2.09813,17.6735,1.11103,2.87881,0.0,0.0
1173,293,168.886,222.603,110.94,101.111,79.7549,0.0226003,1.46257,18.7699,0.790734,2.2948,0.0,0.0
1190,297.25,154.327,200.17,125.953,101.142,95.6362,0.0139553,0.929525,19.6569,0.760706,0.541398,0.0,0.0
1207,301.5,139.879,178.385,126.601,101.164,97.2233,0.00791065,0.5403,20.3407,0.780724,0.384346,0.0,0.0
1224,305.75,127.976,159.357,126.539,101.186,96.745,0.00481576,0.321077,20.6666,0.800743,0.434139,0.0,0.0
1241,310,118.041,144.676,129.882,101.196,96.9707,0.00369355,0.217378,20.7847,0.800743,0.412491,0.0,0.0
1258,314.25,109.123,131.511,130.346,101.196,97.2013,0.00321823,0.169504,20.836,0.810752,0.389517,0.0,0.0
1275,318.5,101.454,120.137,129.63,101.181,97.2659,0.00270886,0.145435,20.8564,0.820762,0.381698,0.0,0.0
1292,322.75,96.0081,110.814,127.87,101.173,97.2939,0.00257685,0.13247,20.8651,0.820762,0.378176,0.0,0.0
1309,327,89.899,101.99,131.573,101.162,97.229,0.00271717,0.125157,20.8676,0.820762,0.383547,0.0,0.0
1326,331.25,84.8538,94.7427,129.895,101.121,97.2781,0.00283452,0.120854,20.8683,0.800743,0.374701,0.0,0.0
1343,335.5,81.3544,88.9011,129.397,101.104,98.1156,0.0027097,0.118243,20.8687,0.820762,0.290227,0.0,0.0
1360,339.75,78.0205,84.0869,132.955,101.09,97.408,0.00272052,0.116236,20.8693,0.820762,0.358841,0.0,0.0
1377,344,74.8273,78.8063,134.909,101.066,97.5087,0.00280167,0.115001,20.8699,0.820762,0.346595,0.0,0.0
1394,348.25,72.2283,74.8942,131.721,101.065,98.6073,0.0026393,0.114259,20.869,0.830771,0.238113,0.0,0.0
1411,352.5,69.6614,70.5971,133.135,101.052,97.501,0.00260541,0.11377,20.8688,0.84078,0.345999,0.0,0.0
1428,356.75,68.1264,68.4051,136.563,101.058,98.3328,0.0025713,0.113296,20.8693,0.860799,0.26441,0.0,0.0
1445,361,65.3403,65.2478,133.281,101.062,97.8172,0.00268617,0.112946,20.8696,0.850789,0.31561,0.0,0.0
1462,365.25,63.8264,62.6399,135.012,101.07,98.0044,0.00230781,0.112474,20.8695,0.820762,0.297897,0.0,0.0
1479,369.5,62.1597,60.2967,132.858,101.068,98.6199,0.00221831,0.112379,20.8689,0.830771,0.237189,0.0,0.0
1496,373.75,60.7132,58.1492,131.096,101.071,98.3264,0.00231728,0.112494,20.8688,0.820762,0.266253,0.0,0.0
1513,378,59.3942,56.6183,134.319,101.074,97.4198,0.00241966,0.112738,20.868,0.880817,0.356118,0.0,0.0
1530,382.25,58.101,54.3589,133.046,101.075,98.8298,0.00220859,0.112462,20.8669,0.870808,0.217286,0.0,0.0
1547,386.5,56.7771,53.0117,135.941,101.081,98.3868,0.00231695,0.111976,20.8684,0.830771,0.261315,0.0,0.0
1564,390.75,55.6974,51.7901,133.958,101.091,98.671,0.0022627,0.111608,20.8694,0.820762,0.234388,0.0,0.0
1581,395,54.8567,50.4704,133.607,101.087,99.0153,0.00222832,0.111397,20.8696,0.850789,0.200271,0.0,0.0
1598,399.25,53.3074,49.774,134.741,101.075,99.103,0.00212797,0.111442,20.8709,0.830771,0.190544,0.0,0.0
1615,403.5,52.8124,48.5122,137.637,101.113,99.2642,0.00221494,0.111556,20.8694,0.850789,0.178516,0.0,0.0
1632,407.75,52.1272,47.2412,135.817,101.131,99.5062,0.00233008,0.111969,20.8686,0.850789,0.156675,0.0,0.0
1649,412,51.2249,45.5777,131.977,101.15,98.7474,,,,0.84078,0.23254,0.0,0.0
1666,416.25,50.4232,45.7625,134.43,101.16,100.003,,,,0.830771,0.11129,0.0,0.0
1679,419.5,50.0572,44.8084,132.16,101.174,99.5581,,,,0.830771,0.155742,0.0,0.0

File: PP_Cone_HF50Scalar_220203_R1.csv
LABORATORY,FSRI
TEST IDENT,PP_HF50_1
OPERATOR,Dow
MATERIAL,polypropylene
ORIENTATION,Horizontal
HEAT FLUX,50
SURF AREA,0.01
C FACTOR,0.0415673
SPEC HOLDER DIFF,303.4
SPECIMEN MASS,28.6
SCAN TIME,0.25
O2 DELAY TIME,11
CO DELAY TIME,11
CO2 DELAY TIME,8
FLOW FACTOR,1
SCAN COUNT,1126
TIME TO IGN,34.5
END OF TEST SCAN,646
END OF TEST TIME,161.5
TEST STATUS,1
PRE TEST CMT,Dimensions: 99.31 x 99.98 x 3.04 mm

File: PP_Cone_HF50Scalar_220203_R2.csv
LABORATORY,FSRI
TEST IDENT,PP_HF50_2
OPERATOR,Dow
MATERIAL,polypropylene
ORIENTATION,Horizontal
HEAT FLUX,50
SURF AREA,0.01
C FACTOR,0.0415673
SPEC HOLDER DIFF,304.06
SPECIMEN MASS,28.6
SCAN TIME,0.25
O2 DELAY TIME,11
CO DELAY TIME,11
CO2 DELAY TIME,8
FLOW FACTOR,1
SCAN COUNT,1093
TIME TO IGN,32.25
END OF TEST SCAN,613
END OF TEST TIME,153.25
TEST STATUS,1
PRE TEST CMT,Dimensions: 100.01 x 98.35 x 3.04 mm
POST TEST CMT,some sample dripped from foil pan

File: PP_Cone_HF50Scalar_220203_R3.csv
LABORATORY,FSRI
TEST IDENT,PP_HF50_3
OPERATOR,Dow
MATERIAL,polypropylene
ORIENTATION,Horizontal
HEAT FLUX,50
SURF AREA,0.01
C FACTOR,0.0415673
SPEC HOLDER DIFF,303.34
SPECIMEN MASS,28.6
SCAN TIME,0.25
O2 DELAY TIME,11
CO DELAY TIME,11
CO2 DELAY TIME,8
FLOW FACTOR,1
SCAN COUNT,1178
TIME TO IGN,34.25
END OF TEST SCAN,698
END OF TEST TIME,174.5
TEST STATUS,1
PRE TEST CMT,Dimensions: 100.00 x 98.39 x 3.05 mm

File: PP_Cone_HF50Scan_220203_R1.csv
Names,Time,Stack TC,Smoke TC,Exh Press,Smoke Comp,Smoke Meas,CO Meter,CO2 Meter,O2 Meter,Sample Mass,Ext Coeff,Start Test,Flame Verif
Chan Gain,,500,500,1,1,1,1,1,1,1,1,1.0,1.0
Offset,,0,0,0.14021,0,0,0,0,0,0,0,0.0,0.0
Gain,,1,1,25.011,13.3046,13.3037,1,1,1,1.00093,1.10262,1.0,1.0
Units,sec,C,C,Pa,%,%,%,%,%,g,/m,,
Baseline,,29.4126,31.6101,137.855,100.271,103.344,0.00287884,0.113576,20.8644,-870.756,-0.291869,,
12,2.75,25.7178,27.3434,135.507,101.244,104.853,0.00285436,0.124901,20.8507,28.1261,-0.338743,0.0,0.0
24,5.75,26.2828,28.1305,141.185,101.105,104.979,0.00253975,0.122198,20.8541,28.1161,-0.363735,0.0,0.0
36,8.75,26.8457,28.3508,136.897,100.946,104.504,0.00238266,0.119318,20.8575,28.1161,-0.33511,0.0,0.0
48,11.75,26.8315,28.1976,140.757,100.815,103.18,0.00241525,0.116966,20.8619,28.066,-0.224327,0.0,0.0
60,14.75,27.266,28.8863,139.083,100.734,104.756,0.00242013,0.115102,20.8655,28.076,-0.378591,0.0,0.0
72,17.75,27.5746,28.8451,135.525,100.675,103.949,0.00245739,0.11387,20.8671,28.076,-0.30959,0.0,0.0
84,20.75,27.5273,29.329,138.412,100.9,104.77,0.0024709,0.113088,20.8676,28.0861,-0.363973,0.0,0.0
96,23.75,27.4052,29.0927,134.961,101.059,104.175,0.00240608,0.112437,20.8677,28.076,-0.293779,0.0,0.0
108,26.75,27.7772,29.5934,138.999,101.161,103.897,0.00230894,0.112206,20.8677,28.066,-0.258135,0.0,0.0
120,29.75,27.5221,29.4756,135.218,101.215,103.221,0.00232819,0.111925,20.8653,28.046,-0.1898,0.0,0.0
132,32.75,28.0024,29.5358,134.877,101.195,102.75,0.00282365,0.114103,20.8605,27.996,-0.147548,0.0,0.0
144,35.75,28.758,30.8733,132.589,101.123,103.704,0.00345525,0.128516,20.8364,27.9259,-0.2437,0.0,1.0
156,38.75,29.919,32.3617,132.623,100.993,101.911,0.00363334,0.166332,20.7589,27.8058,-0.0875356,0.0,1.0
168,41.75,30.4626,33.662,128.947,100.823,98.6792,0.00370147,0.214644,20.6682,27.7658,0.207919,0.0,0.0
180,44.75,32.0223,35.5861,126.215,100.601,92.4569,0.00475994,0.265254,20.5822,27.6356,0.816509,0.0,0.0
192,47.75,34.1525,38.5556,117.484,100.329,87.1879,0.00634057,0.323633,20.4514,27.4455,1.35789,0.0,0.0
204,50.75,37.9216,43.4497,117.981,100.358,85.3913,0.00767912,0.393575,20.3388,27.2553,1.56205,0.0,0.0
216,53.75,40.8175,47.5084,117.588,100.408,80.4508,0.00915634,0.469045,20.1916,27.0451,2.14327,0.0,0.0
228,56.75,44.4197,52.5409,115.463,100.469,79.5767,0.0106203,0.552319,20.0678,26.6547,2.25487,0.0,0.0
240,59.75,48.1776,57.7249,108.073,100.556,78.2284,0.0124381,0.630368,19.9162,26.3545,2.42848,0.0,0.0
252,62.75,52.9372,63.7176,110.61,100.619,74.7981,0.0137349,0.711333,19.7706,26.0642,2.86823,0.0,0.0
264,65.75,56.2602,68.5339,110.921,100.715,74.8135,0.0151293,0.778921,19.6606,25.6438,2.87548,0.0,0.0
276,68.75,60.4988,74.2609,103.935,100.769,71.8234,0.0166357,0.864262,19.5053,25.3535,3.27517,0.0,0.0
288,71.75,65.0622,81.1498,101.257,100.809,69.2132,0.0188201,0.971448,19.3207,24.823,3.63707,0.0,0.0
300,74.75,71.1396,89.5255,101.353,100.796,67.2511,0.0218716,1.09587,19.0607,24.2925,3.91395,0.0,0.0
312,77.75,77.0685,98.0457,98.7774,100.749,65.867,0.0256002,1.24526,18.8299,23.8121,4.11056,0.0,0.0
324,80.75,83.1319,107.349,87.4,100.661,64.5244,0.0302158,1.3846,18.5983,23.2015,4.30129,0.0,0.0
336,83.75,90.6291,118.302,87.1741,100.528,61.4567,0.0344534,1.55944,18.3049,22.5309,4.7597,0.0,0.0
348,86.75,97.2265,128.109,77.0981,100.387,59.4312,0.0382301,1.73427,18.0213,21.8803,5.0702,0.0,0.0
360,89.75,104.774,139.407,70.9309,100.23,58.3139,0.0433921,1.92293,17.6914,21.0495,5.23869,0.0,0.0
372,92.75,112.38,151.919,83.5653,100.053,59.0045,0.0493201,2.15519,17.3325,20.449,5.10769,0.0,0.0
384,95.75,121.428,164.958,67.7335,99.8713,58.2676,0.0560099,2.40547,16.8949,19.368,5.21168,0.0,0.0
396,98.75,129.21,177.594,60.387,99.7186,59.253,0.0622649,2.63613,16.5354,18.6373,5.03468,0.0,0.0
408,101.75,138.562,193.127,71.066,99.5944,55.5767,0.0672006,2.90633,16.1382,17.6764,5.64214,0.0,0.0
420,104.75,147.14,206.866,73.213,99.5107,57.741,0.071022,3.16443,15.7489,16.6254,5.2645,0.0,0.0
432,107.75,155.679,220.98,63.2233,99.4551,54.025,0.074996,3.4153,15.3024,15.6045,5.9025,0.0,0.0
444,110.75,163.642,234.781,81.7747,99.4539,56.3379,0.0788109,3.65449,14.9285,14.5435,5.49691,0.0,0.0
456,113.75,170.766,247.087,65.4536,99.5002,52.9166,0.0827633,3.91002,14.536,13.4124,6.10738,0.0,0.0
468,116.75,178.349,258.214,55.9081,99.5879,56.9437,0.0863538,4.17733,14.1314,12.3114,5.40649,0.0,0.0
480,119.75,187.639,275.302,59.6634,99.7052,54.0286,0.0900833,4.5527,13.5689,11.1503,5.92614,0.0,0.0
492,122.75,196.308,290.103,81.4175,99.864,54.8987,0.0954232,4.93511,12.9823,9.84914,5.78701,0.0,0.0
504,125.75,203.354,300.618,53.664,100.032,59.9042,0.101815,5.23263,12.6018,8.47787,4.95936,0.0,0.0
516,128.75,210.714,314.968,74.3702,100.194,62.5265,0.107178,5.53208,12.0858,7.10659,4.56054,0.0,0.0
528,131.75,218.108,326.306,46.4748,100.359,55.057,0.10764,5.83649,11.6363,5.85543,5.80701,0.0,0.0
540,134.75,223.282,334.477,58.1055,100.511,51.2025,0.108187,5.91284,11.5468,4.58425,6.52361,0.0,0.0
552,137.75,226.824,337.873,53.7694,100.665,55.7959,0.107796,5.68883,11.8958,3.51326,5.70749,0.0,0.0
564,140.75,228.874,338.691,79.0689,100.819,50.7924,0.103262,5.36697,12.3655,2.46228,6.63103,0.0,0.0
576,143.75,228.453,335.092,67.7778,100.953,56.6915,0.0956052,4.90667,13.1761,1.56145,5.58109,0.0,0.0
588,146.75,226.213,328.842,64.3705,101.078,53.9929,0.0874518,4.35777,13.9566,0.680631,6.06476,0.0,0.0
600,149.75,223.285,320.764,75.3853,101.168,57.3302,0.0743385,3.82428,14.8595,0.0200186,5.4933,0.0,0.0
612,152.75,217.799,308.365,88.1564,101.258,61.7653,0.0592387,3.16035,15.9235,-0.450418,4.7812,0.0,0.0
624,155.75,208.346,291.017,105.843,101.327,72.309,0.0413135,2.50136,17.2352,-0.660613,3.2634,0.0,0.0
636,158.75,195.467,269.582,116.755,101.372,92.4955,0.027155,1.75252,18.4473,-0.730678,0.886283,0.0,0.0
648,161.75,182.098,247.633,123.363,101.417,99.0328,0.0169396,1.13769,19.3198,-0.720669,0.23006,0.0,0.0
660,164.75,169.468,227.284,120.25,101.448,98.9995,0.0103346,0.748886,20.0612,-0.740687,0.236294,0.0,0.0
672,167.75,158.767,209.648,121.172,101.453,99.3081,0.00696739,0.487425,20.4427,-0.730678,0.206659,0.0,0.0
684,170.75,149.693,194.751,121.841,101.466,98.7397,0.00521361,0.345744,20.6242,-0.690641,0.263416,0.0,0.0
696,173.75,140.97,181.975,121.791,101.459,98.9337,0.00423666,0.264755,20.7282,-0.690641,0.243766,0.0,0.0
708,176.75,133.971,169.871,120.56,101.449,98.6901,0.00373624,0.215975,20.7877,-0.680631,0.266682,0.0,0.0
720,179.75,127.528,159.837,123.33,101.421,99.0263,0.00355743,0.184053,20.8194,-0.690641,0.231121,0.0,0.0
732,182.75,121.979,150.344,124.37,101.388,98.2728,0.00335646,0.164264,20.8373,-0.690641,0.301863,0.0,0.0
744,185.75,117.254,142.7,121.683,101.362,98.192,0.00321812,0.150499,20.8483,-0.710659,0.307339,0.0,0.0
756,188.75,112.373,135.34,124.375,101.321,98.4088,0.00301016,0.141033,20.8557,-0.70065,0.282055,0.0,0.0
768,191.75,109.113,129.077,125.56,101.28,98.6361,0.00268101,0.134186,20.8595,-0.710659,0.255819,0.0,0.0
780,194.75,104.77,123.166,125.118,101.237,98.3885,0.00283445,0.129334,20.859,-0.720669,0.276063,0.0,0.0
792,197.75,101.15,117.082,126.13,101.182,97.8879,0.00298042,0.125952,20.8593,-0.720669,0.320161,0.0,0.0
804,200.75,98.7331,112.316,124.981,101.136,97.8631,0.00263461,0.123243,20.8608,-0.730678,0.318144,0.0,0.0
816,203.75,95.2948,107.963,125.339,101.08,97.9057,0.00244074,0.120953,20.8626,-0.690641,0.30861,0.0,0.0
828,206.75,92.765,103.781,122.989,101.03,97.7373,0.00254614,0.119445,20.8641,-0.720669,0.320529,0.0,0.0
840,209.75,90.716,99.8653,126.453,100.994,97.8716,0.00268288,0.118208,20.8646,-0.740687,0.303702,0.0,0.0
852,212.75,88.7398,96.6447,125.696,100.951,97.7381,0.0026352,0.117159,20.8647,-0.730678,0.312865,0.0,0.0
864,215.75,86.5787,93.4741,124.451,100.904,97.7758,0.00248403,0.116488,20.8664,-0.730678,0.304617,0.0,0.0
876,218.75,85.2132,90.9674,128.628,100.863,98.0129,0.00240018,0.115873,20.8658,-0.710659,0.277221,0.0,0.0
888,221.75,83.5118,88.9582,128.089,100.836,98.5894,0.00230644,0.115277,20.8656,-0.710659,0.217924,0.0,0.0
900,224.75,82.1335,86.154,125.08,100.805,97.6191,0.00242823,0.114882,20.8655,-0.710659,0.310591,0.0,0.0
912,227.75,80.1445,83.777,126.772,100.769,97.3869,0.0023745,0.114533,20.8655,-0.730678,0.330199,0.0,0.0
924,230.75,79.0715,82.1484,126.487,100.732,97.5521,0.00238161,0.114102,20.8655,-0.710659,0.310293,0.0,0.0
936,233.75,78.0203,80.2384,128.292,100.705,96.9939,0.00247406,0.113629,20.8668,-0.690641,0.36315,0.0,0.0
948,236.75,76.9111,78.0155,128.259,100.687,98.2224,0.00260096,0.113244,20.8675,-0.730678,0.239695,0.0,0.0
960,239.75,75.7029,76.9538,126.403,100.674,98.4469,0.00261522,0.112839,20.8672,-0.710659,0.216325,0.0,0.0
972,242.75,74.7122,75.3193,128.631,100.655,97.4916,0.00250201,0.11256,20.8664,-0.730678,0.308805,0.0,0.0
984,245.75,73.7656,74.446,126.102,100.668,98.0284,0.00245186,0.112289,20.8662,-0.720669,0.256952,0.0,0.0
996,248.75,72.6608,72.1505,127.719,100.735,98.438,0.00246505,0.112085,20.8675,-0.720669,0.22313,0.0,0.0
1008,251.75,71.7653,71.1523,126.978,100.799,97.7015,0.00260388,0.112034,20.868,-0.740687,0.301921,0.0,0.0
1020,254.75,70.3198,69.7156,128.223,100.848,98.6922,0.00264637,0.111835,20.8667,-0.710659,0.208983,0.0,0.0
1032,257.75,70.1081,69.5391,128.46,100.903,97.5253,0.00261665,0.111848,20.868,-0.710659,0.329272,0.0,0.0
1044,260.75,69.7683,68.2884,128.249,100.95,98.2285,0.00265603,0.111809,20.8683,-0.730678,0.264336,0.0,0.0
1056,263.75,68.6728,67.4142,130.069,100.993,98.4993,0.00243077,0.111873,20.8674,-0.720669,0.241832,0.0,0.0
1068,266.75,67.8429,66.7675,127.486,101.035,98.3312,0.00223425,0.112028,20.8653,-0.710659,0.262315,0.0,0.0
1080,269.75,67.5121,66.1462,127.248,101.054,99.2313,0.00236693,0.112166,20.8645,-0.720669,0.17601,0.0,0.0
1092,272.75,66.7517,65.2564,130.731,101.085,98.1258,,0.112189,,-0.730678,0.287401,0.0,0.0
1104,275.75,66.166,63.8984,125.582,101.11,98.1558,,,,-0.750696,0.286848,0.0,0.0
1116,278.75,65.1578,63.3111,129.097,101.144,98.8472,,,,-0.730678,0.222142,0.0,0.0
1126,281.25,64.4337,63.2402,129.552,101.14,99.1083,,,,-0.730678,0.196282,0.0,0.0