Folder: fsri_materials_database/01_Data/PP/Cone (part 3)

File: PP_Cone_HF50Scan_220203_R2.csv
Names,Time,Stack TC,Smoke TC,Exh Press,Smoke Comp,Smoke Meas,CO Meter,CO2 Meter,O2 Meter,Sample Mass,Ext Coeff,Start Test,Flame Verif
Chan Gain,,500,500,1,1,1,1,1,1,1,1,1.0,1.0
Offset,,0,0,0.14021,0,0,0,0,0,0,0,0.0,0.0
Gain,,1,1,25.011,13.3046,13.3037,1,1,1,1.00093,1.10262,1.0,1.0
Units,sec,C,C,Pa,%,%,%,%,%,g,/m,,
Baseline,,37.5987,38.2422,135.199,100.491,101.969,0.00230897,0.109378,20.8705,-870.913,-0.141012,,
11,2.5,33.0418,33.415,134.12,100.548,102.974,0.00260153,0.124651,20.8464,28.7367,-0.23064,0.0,0.0
22,5.25,32.5303,33.2796,135.34,100.523,103.493,0.00249303,0.122765,20.8496,28.7166,-0.281636,0.0,0.0
33,8,33.5653,33.5833,135.646,100.51,102.593,0.0023803,0.120448,20.8555,28.7166,-0.198397,0.0,0.0
44,10.75,33.042,33.6457,136.238,100.483,103.268,0.00240776,0.118102,20.8599,28.6866,-0.264461,0.0,0.0
55,13.5,33.5341,33.9714,133.421,100.449,102.93,0.00245543,0.115742,20.8635,28.6966,-0.23594,0.0,0.0
66,16.25,33.1949,34.5037,133.31,100.397,102.537,0.00245695,0.113906,20.8666,28.6866,-0.203983,0.0,0.0
77,19,33.7401,34.4259,138.683,100.374,103.316,0.00235526,0.112768,20.8682,28.7066,-0.279504,0.0,0.0
88,21.75,34.1925,34.6954,135.973,100.352,103.489,0.0022983,0.111968,20.8708,28.7166,-0.297755,0.0,0.0
99,24.5,34.5181,34.4837,136.444,100.307,101.376,0.00236561,0.111161,20.8723,28.6966,-0.102517,0.0,0.0
110,27.25,33.8251,34.8985,136.644,100.255,100.944,0.00254376,0.110541,20.8727,28.6766,-0.0662271,0.0,0.0
121,30,34.2342,34.9332,133.277,100.209,100.576,0.00277153,0.111768,20.8686,28.5965,-0.0353459,0.0,0.0
132,32.75,34.5402,35.3587,130.831,100.166,102.173,0.00302729,0.120485,20.8509,28.6065,-0.191891,0.0,1.0
143,35.5,35.8086,36.1838,128.363,100.102,100.324,0.00330963,0.144895,20.8102,28.4864,-0.0214605,0.0,1.0
154,38.25,35.7682,37.426,132.095,100.048,96.7271,0.00355323,0.18603,20.7373,28.4064,0.326522,0.0,0.0
165,41,37.0615,38.9079,122.269,99.9947,91.785,0.00425733,0.240618,20.6327,28.2862,0.828599,0.0,0.0
176,43.75,39.1397,42.0028,122.784,99.9196,88.9365,0.00545341,0.299378,20.5424,28.1361,1.12625,0.0,0.0
187,46.5,41.8939,45.022,118.586,99.8676,83.5323,0.0070868,0.358719,20.4273,27.976,1.72756,0.0,0.0
198,49.25,43.6371,47.9853,112.299,99.8047,83.0138,0.00853939,0.43203,20.2839,27.7958,1.78168,0.0,0.0
209,52,47.7199,52.6966,115.224,99.7507,80.7451,0.00992805,0.503498,20.1656,27.5656,2.04445,0.0,0.0
220,54.75,50.6488,56.8038,115.05,99.6841,77.7639,0.0112847,0.571687,20.0334,27.2653,2.40186,0.0,0.0
231,57.5,54.0853,62.0344,113.065,99.6378,74.7462,0.0125287,0.645138,19.9257,26.985,2.78019,0.0,0.0
242,60.25,57.6907,66.502,106.215,99.6029,76.8354,0.013859,0.708863,19.7934,26.6948,2.51016,0.0,0.0
253,63,61.6493,71.7212,104.105,99.5586,72.3187,0.0149053,0.777964,19.6804,26.3545,3.09182,0.0,0.0
264,65.75,65.1579,76.7598,93.0498,99.5087,73.0621,0.015992,0.846057,19.5811,26.0241,2.98806,0.0,0.0
275,68.5,69.485,82.5798,105.146,99.4714,70.2709,0.0174277,0.920122,19.4593,25.5437,3.36118,0.0,0.0
286,71.25,73.2461,88.2794,97.4997,99.4474,68.6741,0.0194608,1.00286,19.32,25.2234,3.58116,0.0,0.0
297,74,78.103,94.8412,91.6072,99.4429,68.0777,0.0217739,1.09653,19.1463,24.8631,3.66509,0.0,0.0
308,76.75,82.8009,101.677,104.178,99.4263,66.0932,0.0242692,1.1955,18.9552,24.3226,3.94961,0.0,0.0
319,79.5,87.9211,109.197,92.7895,99.4255,61.7458,0.0275123,1.31959,18.7669,23.7921,4.60762,0.0,0.0
330,82.25,93.7419,117.665,88.9861,99.432,64.0932,0.031066,1.46724,18.4921,23.2316,4.24736,0.0,0.0
341,85,100.141,127.036,85.3041,99.458,60.7702,0.0348988,1.64032,18.24,22.601,4.76483,0.0,0.0
352,87.75,106.417,136.896,79.075,99.4726,57.6903,0.0405639,1.81091,17.9221,21.9003,5.2693,0.0,0.0
363,90.5,113.944,148.173,82.3098,99.5018,57.7427,0.0461655,2.01919,17.5954,21.1796,5.26336,0.0,0.0
374,93.25,120.945,158.861,69.3913,99.5302,53.703,0.0516023,2.20993,17.3118,20.5491,5.96761,0.0,0.0
385,96,128.593,170.796,68.4807,99.5582,53.4452,0.0575474,2.45018,16.8825,19.5882,6.01688,0.0,0.0
396,98.75,136.472,183.297,70.9118,99.5952,55.2998,0.0631428,2.72557,16.4354,18.8475,5.69053,0.0,0.0
407,101.5,144.839,197.769,58.4803,99.6346,57.2076,0.0692809,3.01841,15.9733,17.7665,5.36631,0.0,0.0
418,104.25,152.921,210.933,76.1669,99.6679,53.6766,0.0748374,3.31941,15.4843,16.9357,5.98573,0.0,0.0
429,107,161.988,225.862,53.6305,99.6906,57.698,0.0800102,3.63052,15.0183,15.8947,5.28918,0.0,0.0
440,109.75,170.771,242.035,53.5595,99.7162,54.8357,0.0847339,3.97725,14.473,14.9138,5.78378,0.0,0.0
451,112.5,179.544,256.275,57.311,99.7377,57.791,0.0901379,4.34581,13.9626,13.8529,5.27818,0.0,0.0
462,115.25,186.937,268.263,69.8226,99.7414,57.5316,0.0950871,4.62346,13.5261,12.4816,5.32205,0.0,0.0
473,118,195.005,282.963,70.2332,99.7621,57.5096,0.0963472,4.98033,12.9182,11.4406,5.32774,0.0,0.0
484,120.75,203.638,297.098,64.1782,99.7661,68.1751,0.0953614,5.36828,12.3054,10.0493,3.68265,0.0,0.0
495,123.5,213.096,314.086,37.4773,99.7686,65.9389,0.0937814,5.8798,11.5629,8.9483,4.00546,0.0,0.0
506,126.25,222.047,329.313,59.2955,99.7539,66.282,0.0924239,6.37227,10.887,7.59705,3.95385,0.0,0.0
517,129,229.182,341.98,59.2344,99.7434,60.8672,0.0945463,6.67327,10.4418,6.18574,4.77711,0.0,0.0
528,131.75,236.598,353.452,58.188,99.7361,69.0894,0.0983911,6.8314,10.178,4.86451,3.55088,0.0,0.0
539,134.5,242.375,362.347,65.4398,99.7267,54.0262,0.101363,6.84969,10.1005,3.72345,5.92866,0.0,0.0
550,137.25,246.382,367.992,61.2983,99.7032,59.2578,0.102503,6.75752,10.2003,2.45228,5.03239,0.0,0.0
561,140,247.904,368.32,61.7197,99.6796,53.9641,0.102473,6.42113,10.6344,1.54143,5.93522,0.0,0.0
572,142.75,247.541,363.565,64.2247,99.6549,55.1967,0.0972563,5.72628,11.7762,0.880817,5.71438,0.0,0.0
583,145.5,242.241,351.543,74.377,99.6273,55.3396,0.0833717,4.82622,13.2731,0.310288,5.68669,0.0,0.0
594,148.25,234.061,335.111,91.4553,99.5972,68.7399,0.0628692,3.84941,14.6921,0.0300279,3.58647,0.0,0.0
605,151,221.841,313.26,113.071,99.6179,90.7387,0.0427585,2.79047,16.4265,-0.0100093,0.90297,0.0,0.0
616,153.75,206.148,288.154,120.98,99.5599,97.4482,0.0263403,1.78488,18.1059,-0.0300279,0.207353,0.0,0.0
627,156.5,191.559,265.032,118.027,99.5278,98.1668,0.0158737,1.12508,19.2534,0,0.133173,0.0,0.0
638,159.25,180.385,246.676,121.331,99.5063,98.1883,0.0102545,0.715162,19.9538,-0.0100093,0.128962,0.0,0.0
649,162,169.754,229.745,117.313,99.4843,97.4973,0.00706935,0.489633,20.3272,0.0100093,0.195139,0.0,0.0
660,164.75,160.308,214.564,122.483,99.4624,97.4275,0.00550971,0.351338,20.5453,0,0.199937,0.0,0.0
671,167.5,153.043,200.698,123.424,99.449,97.6914,0.00451991,0.275005,20.6823,0.0300279,0.172472,0.0,0.0
682,170.25,145.023,188.355,121.257,99.436,97.2216,0.00382209,0.223829,20.7527,0.0300279,0.217827,0.0,0.0
693,173,138.136,177.658,125.851,99.4287,97.4587,0.00339905,0.192161,20.7959,0.0100093,0.193557,0.0,0.0
704,175.75,131.967,168.341,121.836,99.4393,97.0016,0.00325534,0.169873,20.8195,0.0100093,0.24006,0.0,0.0
715,178.5,127.443,159.444,121.462,99.4446,97.056,0.00309612,0.155549,20.8339,-0.0100093,0.23515,0.0,0.0
726,181.25,123.073,151.865,122.211,99.4442,96.9983,0.00267361,0.145046,20.8432,-0.0100093,0.240857,0.0,0.0
737,184,119.076,144.322,123.022,99.4693,96.6914,0.00244956,0.137391,20.8469,0,0.27396,0.0,0.0
748,186.75,114.137,137.201,121.344,99.4835,96.8018,0.0025182,0.132214,20.8492,0.0200186,0.264301,0.0,0.0
759,189.5,111.744,132.24,123.195,99.5018,96.7219,0.00261705,0.128076,20.8525,0.0100093,0.274072,0.0,0.0
770,192.25,108.064,126.988,122.543,99.5339,96.9062,0.0025719,0.125324,20.8548,0.0100093,0.258775,0.0,0.0
781,195,104.568,121.796,124.58,99.5542,96.3991,0.00247486,0.123483,20.8559,0,0.311493,0.0,0.0
792,197.75,102.539,117.825,119.22,99.5806,97.0154,0.00247474,0.121712,20.8562,-0.0200186,0.252417,0.0,0.0
803,200.5,100.39,113.549,121.537,99.6131,96.5794,0.00259643,0.120311,20.8577,-0.0100093,0.299141,0.0,0.0
814,203.25,98.0105,109.523,122.68,99.6411,96.7097,0.00262578,0.119365,20.8584,-0.0100093,0.288819,0.0,0.0
825,206,95.686,106.707,124.717,99.6577,96.6423,0.00245092,0.118584,20.8588,0,0.297176,0.0,0.0
836,208.75,94.2058,103.352,125.759,99.678,96.3926,0.0022199,0.117905,20.8597,-0.0100093,0.324168,0.0,0.0
847,211.5,91.8481,100.209,125.029,99.7044,96.8441,0.00236274,0.117147,20.8609,0,0.281534,0.0,0.0
858,214.25,89.9815,97.67,128.184,99.745,97.1165,0.00246618,0.116455,20.862,-0.0100093,0.258302,0.0,0.0
869,217,88.3332,94.9064,129.034,99.7751,96.5789,0.00236005,0.11553,20.8623,-0.0100093,0.3149,0.0,0.0
880,219.75,87.54,93.3428,124.897,99.7954,96.4973,0.00233975,0.114937,20.8629,-0.0100093,0.325043,0.0,0.0
891,222.5,86.205,90.8345,123.542,99.8148,96.8035,0.0022699,0.114417,20.8642,-0.0100093,0.296297,0.0,0.0
902,225.25,84.3909,88.4496,122.409,99.8494,96.3914,0.00229695,0.114025,20.8646,0,0.340902,0.0,0.0
913,228,83.4302,87.0536,130.515,99.894,96.4681,0.00247402,0.113656,20.865,-0.0200186,0.337531,0.0,0.0
924,230.75,82.2814,85.3558,124.879,99.918,96.3236,0.00261991,0.113568,20.8644,-0.0100093,0.354352,0.0,0.0
935,233.5,81.3347,83.6038,124.097,99.9521,96.0702,0.00264233,0.113532,20.8638,0.0100093,0.383125,0.0,0.0
946,236.25,80.0575,81.767,125.597,99.9708,96.3236,0.00254111,0.113576,20.862,-0.0100093,0.35946,0.0,0.0
957,239,79.6,80.2675,127.117,99.9736,96.4762,0.00245617,0.113631,20.8614,-0.0300279,0.344418,0.0,0.0
968,241.75,78.0928,79.2267,127.052,100.011,97.1583,0.00233704,0.113544,20.8612,-0.0200186,0.279891,0.0,0.0
979,244.5,76.9713,78.1886,123.769,99.9959,97.0471,0.00222351,0.113598,20.8612,0.0200186,0.28952,0.0,0.0
990,247.25,76.2308,76.5578,129.157,100.004,96.9167,0.00219953,0.11358,20.8597,0.0100093,0.303263,0.0,0.0
1001,250,76.0276,75.4688,123.006,100.03,96.4027,0.0021856,0.113733,20.8591,-0.0300279,0.357209,0.0,0.0
1012,252.75,74.9162,75.0262,130.717,100.082,96.9212,0.00218865,0.114023,20.8592,-0.0200186,0.310394,0.0,0.0
1023,255.5,73.6214,73.2534,126.18,100.112,97.1193,0.00224943,0.11406,20.8601,0,0.293507,0.0,0.0
1034,258.25,73.7593,72.6112,130.827,100.13,97.2419,0.0022542,0.114055,20.859,-0.0100093,0.283068,0.0,0.0
1045,261,72.6423,71.538,127.194,100.171,96.5806,0.00228155,0.114079,20.86,-0.0300279,0.353076,0.0,0.0
1056,263.75,72.4805,71.0595,125.749,100.238,97.1295,,0.114012,,-0.0100093,0.304727,0.0,0.0
1067,266.5,71.4992,70.0254,124.781,100.33,96.7389,,,,0.0100093,0.352548,0.0,0.0
1078,269.25,70.7658,68.9164,127.12,100.408,97.3487,,,,-0.0100093,0.299282,0.0,0.0
1089,272,69.906,68.0975,126.776,100.493,97.1729,,,,-0.0300279,0.324975,0.0,0.0
1093,273,70.0277,68.1253,130.617,100.499,97.5923,,,,0.0100093,0.283906,0.0,0.0

File: PP_Cone_HF50Scan_220203_R3.csv
Names,Time,Stack TC,Smoke TC,Exh Press,Smoke Comp,Smoke Meas,CO Meter,CO2 Meter,O2 Meter,Sample Mass,Ext Coeff,Start Test,Flame Verif
Chan Gain,,500,500,1,1,1,1,1,1,1,1,1.0,1.0
Offset,,0,0,0.14021,0,0,0,0,0,0,0,0.0,0.0
Gain,,1,1,25.011,13.3046,13.3037,1,1,1,1.00093,1.10262,1.0,1.0
Units,sec,C,C,Pa,%,%,%,%,%,g,/m,,
Baseline,,33.7104,35.3397,135.805,100.858,101.741,0.00260003,0.115433,20.8773,-871.182,-0.0840867,,
12,2.75,30.7561,31.7095,136.337,100.68,102.511,0.0026563,0.123759,20.8663,27.6557,-0.174345,0.0,0.0
24,5.75,30.6571,32.218,136.023,100.838,102.167,0.00288453,0.123497,20.8666,27.6356,-0.126722,0.0,0.0
36,8.75,30.7984,32.5166,135.702,100.96,102.553,0.00302585,0.123102,20.8682,27.5856,-0.151413,0.0,0.0
48,11.75,31.4983,32.7991,134.519,101.033,102.63,0.00298822,0.122387,20.8695,27.6056,-0.151687,0.0,0.0
60,14.75,31.2168,32.8268,135.49,101.028,102.191,0.00279912,0.12198,20.8688,27.5756,-0.110626,0.0,0.0
72,17.75,31.8833,33.1296,135.399,100.972,102.63,0.00261783,0.122273,20.87,27.5756,-0.157518,0.0,0.0
84,20.75,32.0372,32.8456,137.237,100.853,101.884,0.00242328,0.122454,20.8705,27.5856,-0.0982997,0.0,0.0
96,23.75,31.6411,33.2593,134.584,100.684,102.269,0.00254099,0.122474,20.8707,27.5856,-0.15106,0.0,0.0
108,26.75,31.4514,32.7565,135.492,100.498,101.049,0.00256674,0.122073,20.8711,27.5856,-0.0529013,0.0,0.0
120,29.75,32.0803,33.5737,132.387,100.288,99.7433,0.00271831,0.121278,20.8715,27.5856,0.0527041,0.0,0.0
132,32.75,32.0804,33.3953,137.802,100.086,99.5728,0.00300756,0.12124,20.8659,27.3854,0.0496946,0.0,0.0
144,35.75,32.4522,33.768,133.564,99.9034,100.213,0.00322819,0.128308,20.8222,27.4555,-0.0299709,0.0,1.0
156,38.75,32.7311,34.556,127.493,99.7836,99.1664,0.00325709,0.149456,20.7548,27.3954,0.0600141,0.0,1.0
168,41.75,34.2887,36.2851,130.558,99.7576,96.8944,0.00359718,0.181428,20.6553,27.2953,0.281666,0.0,0.0
180,44.75,35.7412,38.3343,121.873,99.7994,90.9791,0.00462697,0.222476,20.5564,27.1752,0.89499,0.0,0.0
192,47.75,38.2386,41.6574,115.986,99.9314,87.3328,0.00626682,0.269148,20.4357,27.0351,1.30339,0.0,0.0
204,50.75,40.7963,44.4458,119.559,100.138,82.8031,0.00795754,0.326406,20.3026,26.8349,1.83847,0.0,0.0
216,53.75,43.9633,48.7608,118.519,100.395,83.0768,0.00954869,0.389184,20.129,26.5446,1.83139,0.0,0.0
228,56.75,46.8202,52.9568,109.852,100.684,77.9381,0.0109836,0.458789,19.9697,26.2343,2.47673,0.0,0.0
240,59.75,51.3214,58.7392,105.825,100.95,80.035,0.012432,0.537209,19.82,25.9241,2.24545,0.0,0.0
252,62.75,55.2227,64.0032,104.971,101.191,76.4051,0.0140318,0.61414,19.7079,25.5637,2.71751,0.0,0.0
264,65.75,59.3733,69.6306,97.299,101.401,70.836,0.0162276,0.69243,19.562,25.2434,3.46951,0.0,0.0
276,68.75,63.9541,75.933,104.235,101.562,68.4167,0.0183646,0.786705,19.363,24.833,3.82099,0.0,0.0
288,71.75,68.8045,82.8088,92.8422,101.643,70.4617,0.0207351,0.884306,19.1522,24.2825,3.54381,0.0,0.0
300,74.75,74.0582,89.86,97.4241,101.669,67.0862,0.0234386,1.00257,18.9529,23.8621,4.02113,0.0,0.0
312,77.75,79.7711,98.1446,81.2893,101.636,66.4123,0.0270423,1.12881,18.701,23.2616,4.11562,0.0,0.0
324,80.75,86.0168,106.756,83.4432,101.551,62.3316,0.0313438,1.26047,18.4326,22.7411,4.72084,0.0,0.0
336,83.75,92.5225,116.337,87.5474,101.425,61.5383,0.0351683,1.41932,18.1998,22.1506,4.83277,0.0,0.0
348,86.75,99.4004,126.398,89.1502,101.274,60.6066,0.0401178,1.56654,17.9494,21.4499,4.96589,0.0,0.0
360,89.75,106.996,138.124,78.1408,101.126,60.1169,0.0451681,1.74874,17.5797,20.6692,5.03026,0.0,0.0
372,92.75,114.472,149,92.3583,100.982,59.0581,0.0499314,1.94322,17.2494,19.9185,5.1883,0.0,0.0
384,95.75,122.778,161.65,66.268,100.877,55.7651,0.055572,2.17143,16.8074,19.0377,5.73322,0.0,0.0
396,98.75,130.431,173.443,75.08,100.995,57.1296,0.0616799,2.41734,16.3942,18.1869,5.51068,0.0,0.0
408,101.75,139.979,188.335,73.9618,101.205,57.6197,0.0677886,2.69232,15.9098,17.256,5.44812,0.0,0.0
420,104.75,148.508,202.18,70.0538,101.332,56.1033,0.0729056,2.98088,15.4849,16.4152,5.71821,0.0,0.0
432,107.75,157.464,216.793,73.4848,101.379,50.4205,0.0771609,3.24869,15.1151,15.3342,6.75567,0.0,0.0
444,110.75,165.356,230.495,58.9513,101.356,57.629,0.081304,3.53388,14.7039,14.3333,5.46097,0.0,0.0
456,113.75,174.325,244.589,71.5316,101.274,56.5454,0.0875936,3.80604,14.2314,13.2123,5.63674,0.0,0.0
468,116.75,182.871,258.567,60.8068,101.1,54.761,0.0942608,4.15569,13.6728,11.831,5.93026,0.0,0.0
480,119.75,190.669,271.84,67.3702,100.923,51.7615,0.101116,4.56458,12.9241,10.6299,6.45819,0.0,0.0
492,122.75,200.167,287.43,69.9562,100.651,55.0391,0.104462,4.98563,12.338,9.46879,5.83825,0.0,0.0
504,125.75,208.618,301.324,64.3178,100.465,60.1628,0.10302,5.37819,11.8518,8.27768,4.95941,0.0,0.0
516,128.75,216.435,313.687,50.8483,100.509,54.4598,0.103926,5.61616,11.7518,6.92643,5.92693,0.0,0.0
528,131.75,221.305,321.368,53.3259,100.557,58.255,0.106006,5.68399,11.8705,5.67527,5.27991,0.0,0.0
540,134.75,225.75,326.944,54.9296,100.627,54.016,0.10407,5.57431,12.2787,4.49417,6.01739,0.0,0.0
552,137.75,227.386,328.096,71.9704,100.677,55.3156,0.101127,5.33046,12.8289,3.42318,5.79228,0.0,0.0
564,140.75,230.383,330.384,60.9884,100.76,54.6616,0.0971375,5.11287,13.1682,2.28212,5.91528,0.0,0.0
576,143.75,230.186,328.539,63.0813,100.846,56.7305,0.0915222,4.8655,13.698,1.41131,5.56417,0.0,0.0
588,146.75,229.834,325.905,68.0442,100.91,54.3088,0.0839784,4.53964,14.381,0.480446,5.99228,0.0,0.0
600,149.75,228.201,320.229,81.6969,100.97,56.2031,0.0724781,4.1201,15.2632,-0.130121,5.66637,0.0,0.0
612,152.75,223.36,310.549,75.7746,101.005,61.6081,0.0599925,3.5602,16.2926,-0.770715,4.78169,0.0,0.0
624,155.75,215.783,296.492,104.088,101.027,62.9134,0.044192,3.00185,17.2532,-1.04097,4.58101,0.0,0.0
636,158.75,204.514,277.757,112.72,101.042,89.2398,0.0290697,2.35815,18.6125,-1.14106,1.20139,0.0,0.0
648,161.75,190.05,256.077,120.339,101.039,98.76,0.0175814,1.72308,19.7026,-1.13105,0.220703,0.0,0.0
660,164.75,177.157,236.121,119.291,101.034,98.1879,0.0109636,1.24743,20.2917,-1.14106,0.276384,0.0,0.0
672,167.75,166.141,219.204,122.308,100.998,99.2236,0.00779933,0.922366,20.5559,-1.11103,0.171436,0.0,0.0
684,170.75,156.648,204.052,123.904,100.977,98.2793,0.00621615,0.711731,20.673,-1.13105,0.261946,0.0,0.0
696,173.75,147.708,190.268,124.328,100.948,98.2281,0.00538815,0.564855,20.7364,-1.10102,0.264221,0.0,0.0
708,176.75,139.541,178.355,119.642,100.916,97.9078,0.00497202,0.468457,20.7679,-1.09101,0.292662,0.0,0.0
720,179.75,132.885,166.212,123.565,100.862,98.2175,0.00461944,0.402115,20.7935,-1.09101,0.257009,0.0,0.0
732,182.75,127.707,158.473,122.439,100.813,97.7892,0.00436728,0.347041,20.8095,-1.10102,0.294569,0.0,0.0
744,185.75,122.174,150.096,117.931,100.758,97.6889,0.00401557,0.307133,20.8232,-1.11103,0.299232,0.0,0.0
756,188.75,117.45,142.066,124.605,100.693,97.6703,0.00345298,0.276182,20.8334,-1.13105,0.294845,0.0,0.0
768,191.75,113.016,135.303,124.072,100.62,97.4332,0.00312479,0.251491,20.8423,-1.13105,0.31129,0.0,0.0
780,194.75,108.96,129.111,121.178,100.566,97.2302,0.00308675,0.230471,20.8492,-1.13105,0.32631,0.0,0.0
792,197.75,106.144,123.398,124.785,100.498,97.3179,0.00299719,0.21433,20.8573,-1.13105,0.311026,0.0,0.0
804,200.75,102.523,118.548,121.13,100.433,97.1348,0.00298142,0.200118,20.8632,-1.12104,0.322989,0.0,0.0
816,203.75,99.5754,113.438,124.221,100.356,96.8388,0.00306706,0.188955,20.8635,-1.10102,0.345033,0.0,0.0
828,206.75,96.9892,109.548,122.569,100.299,97.1258,0.0029115,0.178601,20.8671,-1.13105,0.310965,0.0,0.0
840,209.75,94.4076,105.07,123.263,100.217,96.8453,0.00277006,0.170129,20.8702,-1.14106,0.33103,0.0,0.0
852,212.75,92.1325,102.416,122.384,100.14,96.2785,0.00271655,0.162783,20.8725,-1.1811,0.380393,0.0,0.0
864,215.75,89.4568,98.2314,124.895,100.071,96.769,0.00273405,0.156629,20.8763,-1.13105,0.3245,0.0,0.0
876,218.75,88.5119,96.2216,123.546,100.002,96.4137,0.00263873,0.151288,20.8775,-1.11103,0.353439,0.0,0.0
888,221.75,86.7663,93.1871,125.755,99.9452,96.6269,0.0026096,0.146553,20.8808,-1.13105,0.326579,0.0,0.0
900,224.75,85.1855,91.2728,125.558,99.8977,96.162,0.00258921,0.142734,20.8803,-1.15107,0.368625,0.0,0.0
912,227.75,83.5757,88.5309,126.413,99.8555,96.5477,0.00227911,0.139451,20.8795,-1.13105,0.32582,0.0,0.0
924,230.75,82.4021,86.2579,122.927,99.8169,96.0499,0.00208856,0.136322,20.8811,-1.15107,0.372077,0.0,0.0
936,233.75,80.8699,84.1636,126.49,99.799,96.1405,0.00209836,0.133665,20.8815,-1.13105,0.361232,0.0,0.0
948,236.75,79.2103,82.5088,127.1,99.7645,95.7698,0.00234878,0.131578,20.8817,-1.13105,0.39525,0.0,0.0
960,239.75,78.6205,80.1711,124.643,99.7487,96.7917,0.00260283,0.129812,20.8821,-1.12104,0.291058,0.0,0.0
972,242.75,77.3665,78.5223,124.065,99.7369,96.4941,0.00254352,0.128114,20.882,-1.15107,0.3197,0.0,0.0
984,245.75,76.9471,77.7654,124.43,99.7247,96.5676,0.00231863,0.1266,20.8818,-1.13105,0.311156,0.0,0.0
996,248.75,74.7343,75.7403,123.975,99.7243,96.084,0.0021988,0.1256,20.8794,-1.12104,0.359668,0.0,0.0
1008,251.75,74.864,74.6821,127.751,99.7166,96.3041,0.0022537,0.124356,20.8781,-1.12104,0.336795,0.0,0.0
1020,254.75,73.4983,73.0466,128.937,99.7133,96.7474,0.00231119,0.123152,20.8793,-1.11103,0.292055,0.0,0.0
1032,257.75,73.1613,72.8035,132.26,99.7223,96.8575,0.00229665,0.122108,20.8797,-1.13105,0.281929,0.0,0.0
1044,260.75,72.5029,71.7359,127.125,99.7373,95.7081,0.00234158,0.121186,20.8809,-1.14106,0.398847,0.0,0.0
1056,263.75,72.134,70.5003,124.114,99.7572,96.2099,0.00240398,0.120167,20.8812,-1.14106,0.350197,0.0,0.0
1068,266.75,70.523,69.8601,128.89,99.7527,95.918,0.00268277,0.11935,20.8813,-1.14106,0.379155,0.0,0.0
1080,269.75,70.2381,69.0941,129.291,99.7783,96.4977,0.00258686,0.118614,20.8829,-1.12104,0.323349,0.0,0.0
1092,272.75,69.1553,68.5862,127.541,99.8108,96.5761,0.00239499,0.117733,20.8834,-1.13105,0.318647,0.0,0.0
1104,275.75,67.8856,66.5901,127.673,99.8372,96.5274,0.0025539,0.117129,20.8835,-1.12104,0.326084,0.0,0.0
1116,278.75,67.9625,66.3134,127.803,99.864,97.1473,0.00242677,0.116583,20.8835,-1.14106,0.266758,0.0,0.0
1128,281.75,67.3508,65.1893,128.676,99.8766,96.2546,0.00214374,0.116249,20.8819,-1.12104,0.357275,0.0,0.0
1140,284.75,66.3144,64.8645,126.425,99.9123,96.4247,,0.115988,,-1.11103,0.343655,0.0,0.0
1152,287.75,66.1648,64.0893,125.645,99.9224,96.8489,,,,-1.13105,0.302175,0.0,0.0
1164,290.75,65.9973,63.537,127.303,99.9529,97.6037,,,,-1.06098,0.23004,0.0,0.0
1176,293.75,64.9197,63.2327,126.712,99.9578,97.3337,,,,-1.081,0.257303,0.0,0.0
1178,294.25,64.6335,63.2519,126.835,99.9724,96.5846,,,,-1.07099,0.33344,0.0,0.0

File: PP_Cone_HF75Scalar_220204_R1.csv
LABORATORY,FSRI
TEST IDENT,PP_HF75_1
OPERATOR,Dow
MATERIAL,polypropylene
ORIENTATION,Horizontal
HEAT FLUX,75
SURF AREA,0.01
C FACTOR,0.0415673
SPEC HOLDER DIFF,303.34
SPECIMEN MASS,28.6
SCAN TIME,0.25
O2 DELAY TIME,11
CO DELAY TIME,11
CO2 DELAY TIME,8
FLOW FACTOR,1
SCAN COUNT,959
TIME TO IGN,16.25
END OF TEST SCAN,479
END OF TEST TIME,119.75
TEST STATUS,1
PRE TEST CMT,Dimensions: 99.95 x 99.30 x 3.05 mm
POST TEST CMT,some sample dripped from foil pan during test and continued burning. see test pictures

File: PP_Cone_HF75Scalar_220204_R2.csv
LABORATORY,FSRI
TEST IDENT,PP_HF75_2
OPERATOR,Dow
MATERIAL,polypropylene
ORIENTATION,Horizontal
HEAT FLUX,75
SURF AREA,0.01
C FACTOR,0.0415673
SPEC HOLDER DIFF,302.71
SPECIMEN MASS,28.8
SCAN TIME,0.25
O2 DELAY TIME,11
CO DELAY TIME,11
CO2 DELAY TIME,8
FLOW FACTOR,1
SCAN COUNT,954
TIME TO IGN,17.5
END OF TEST SCAN,474
END OF TEST TIME,118.5
TEST STATUS,1
PRE TEST CMT,Dimensions: 100.03 x 99.34 x 3.04 mm
POST TEST CMT,"sample dripped from foil pan during test, see test pictures"

File: PP_Cone_HF75Scalar_220204_R3.csv
LABORATORY,FSRI
TEST IDENT,PP_HF75_3
OPERATOR,Dow
MATERIAL,polypropylene
ORIENTATION,Horizontal
HEAT FLUX,75
SURF AREA,0.01
C FACTOR,0.0415673
SPEC HOLDER DIFF,302.94
SPECIMEN MASS,28.9
SCAN TIME,0.25
O2 DELAY TIME,11
CO DELAY TIME,11
CO2 DELAY TIME,8
FLOW FACTOR,1
SCAN COUNT,965
TIME TO IGN,17.25
END OF TEST SCAN,485
END OF TEST TIME,121.25
TEST STATUS,1
PRE TEST CMT,Dimensions: 99.39 x 99.75 x 3.02 mm
POST TEST CMT,sample dripped and burned below foil pan. see test pictures