Folder: fsri_materials_database/01_Data/PP/MCC (part 2)

File: PP_MCC_30K_min_210928_R3.txt
Sample ID:	C:\MCC\MCC Cal\Test\PP_MCC_30K_min_210928_R3.txt
Sample Weight (mg):	4.86
Heating Rate (C/s):	0.5
Combustor Temp (C):	900
N2 Flow Rate (cc/min):	80
O2 Flow Rate (cc/min):	20
Calibration File:	C:\MCC\MCC Cal\Coeff1 JN10440_30_210304.txt.txt
T Correction Coefficients:	0	1.024463	0
Time Shift (s):	14
*
Time (s)	Temperature (C)	N2 flow rate (cc/min)	O2 flow rate (cc/min)	Flow Rate (cc/min)	Oxygen (%)	HRR (W/g)	Heating rate (C/s)
0.000	107.565	80.006	19.995	100.175	20.099	0.337	0.001
8.000	107.533	80.005	19.994	100.187	20.101	0.267	-0.012
16.000	107.585	80.006	19.994	100.244	20.094	0.663	0.024
24.000	107.821	80.008	19.994	100.325	20.078	1.702	0.061
32.000	108.563	80.008	19.996	100.364	20.070	2.211	0.102
39.999	109.700	80.027	19.996	100.380	20.072	2.113	0.152
47.999	111.249	80.010	19.994	100.404	20.069	2.308	0.226
56.000	113.138	80.009	19.995	100.405	20.062	2.737	0.237
64.000	115.353	80.006	19.996	100.402	20.062	2.750	0.244
71.999	117.690	80.006	19.994	100.408	20.058	3.040	0.283
79.999	120.288	80.007	19.995	100.410	20.064	2.612	0.349
88.000	123.027	80.005	19.996	100.408	20.062	2.760	0.312
95.999	125.977	80.006	19.997	100.404	20.061	2.787	0.399
103.999	128.968	80.008	19.994	100.406	20.063	2.665	0.373
111.999	132.117	80.010	19.996	100.408	20.062	2.744	0.379
119.999	135.460	80.007	19.994	100.419	20.056	3.120	0.452
127.999	138.970	80.009	19.995	100.416	20.057	3.067	0.430
136.000	142.698	80.008	19.995	100.429	20.057	3.069	0.489
144.000	146.597	80.007	19.995	100.430	20.056	3.165	0.504
152.000	150.636	80.005	19.995	100.435	20.059	2.934	0.487
160.000	154.767	80.007	19.995	100.405	20.062	2.737	0.506
168.000	158.871	80.007	19.996	100.405	20.059	2.929	0.479
176.000	162.944	80.005	19.996	100.404	20.062	2.737	0.493
184.000	166.995	80.006	19.996	100.392	20.063	2.665	0.469
192.000	171.026	80.008	19.995	100.397	20.067	2.435	0.505
200.000	174.975	80.008	19.994	100.379	20.068	2.389	0.493
208.000	178.875	80.007	19.994	100.390	20.067	2.402	0.486
216.000	182.796	80.009	19.993	100.382	20.068	2.360	0.497
224.000	186.733	80.008	19.995	100.381	20.072	2.117	0.477
232.000	190.656	80.007	19.996	100.376	20.070	2.233	0.502
240.000	194.613	80.007	19.994	100.370	20.069	2.291	0.474
248.000	198.484	80.006	19.995	100.371	20.072	2.135	0.481
256.000	202.402	80.006	19.995	100.372	20.071	2.167	0.515
264.000	206.372	80.006	19.995	100.371	20.070	2.251	0.461
272.000	210.318	80.008	19.995	100.369	20.073	2.022	0.473
280.000	214.286	80.007	19.996	100.365	20.071	2.145	0.496
288.000	218.260	80.007	19.995	100.366	20.074	2.006	0.502
296.000	222.236	80.011	19.995	100.363	20.076	1.829	0.508
304.000	226.200	80.008	19.994	100.352	20.075	1.922	0.460
312.000	230.239	80.006	19.996	100.358	20.076	1.853	0.505
320.000	234.178	80.007	19.995	100.345	20.074	1.973	0.483
328.000	238.117	80.006	19.996	100.351	20.076	1.825	0.506
336.000	241.916	80.006	19.994	100.334	20.075	1.930	0.498
344.000	245.736	80.006	19.995	100.350	20.077	1.802	0.474
352.000	249.564	80.007	19.996	100.345	20.078	1.726	0.503
360.000	253.425	80.009	19.995	100.361	20.078	1.721	0.485
368.000	257.279	80.009	19.996	100.362	20.078	1.695	0.472
376.000	261.110	80.008	19.995	100.352	20.080	1.587	0.451
384.000	265.014	80.008	19.996	100.337	20.075	1.888	0.486
392.000	268.917	80.007	19.994	100.336	20.081	1.551	0.473
400.000	272.855	80.008	19.995	100.338	20.080	1.600	0.479
408.000	276.835	80.006	19.995	100.342	20.078	1.723	0.502
416.000	280.860	80.008	19.994	100.345	20.078	1.703	0.504
424.000	284.809	80.008	19.996	100.332	20.079	1.642	0.493
432.000	288.895	80.007	19.994	100.348	20.081	1.512	0.504
440.000	292.946	80.009	19.996	100.331	20.077	1.792	0.532
448.000	297.016	80.008	19.996	100.328	20.078	1.695	0.525
456.000	301.050	80.007	19.995	100.337	20.080	1.563	0.534
464.000	305.080	80.010	19.995	100.346	20.076	1.837	0.511
472.000	309.111	80.006	19.997	100.331	20.080	1.610	0.490
480.000	313.211	80.006	19.995	100.328	20.079	1.677	0.516
488.000	317.225	80.007	19.994	100.329	20.076	1.814	0.522
496.000	321.225	80.007	19.995	100.327	20.075	1.879	0.502
504.000	325.213	80.006	19.996	100.336	20.077	1.791	0.524
512.000	329.117	80.007	19.995	100.321	20.073	2.032	0.495
520.000	333.074	80.009	19.995	100.328	20.069	2.276	0.493
528.000	337.146	80.007	19.994	100.324	20.065	2.582	0.527
536.000	341.154	80.008	19.995	100.327	20.060	2.895	0.529
544.000	345.266	80.008	19.995	100.329	20.057	3.055	0.526
552.000	349.330	80.009	19.994	100.313	20.052	3.415	0.501
560.000	353.449	80.007	19.995	100.322	20.049	3.558	0.531
568.000	357.491	80.005	19.996	100.315	20.037	4.364	0.511
576.000	361.563	80.006	19.996	100.309	20.030	4.814	0.499
584.000	365.686	80.007	19.995	100.297	20.008	6.235	0.521
592.000	369.805	80.007	19.994	100.298	19.989	7.444	0.559
600.000	373.860	80.008	19.995	100.308	19.973	8.462	0.496
608.000	377.930	80.007	19.994	100.293	19.958	9.462	0.496
616.000	381.932	80.008	19.995	100.292	19.958	9.422	0.511
624.000	385.970	80.009	19.994	100.301	19.926	11.519	0.543
632.000	389.896	80.009	19.995	100.287	19.894	13.592	0.467
640.000	393.914	80.007	19.996	100.287	19.867	15.281	0.474
648.000	397.902	80.006	19.995	100.288	19.831	17.650	0.518
656.000	401.901	80.007	19.995	100.281	19.784	20.637	0.527
664.000	405.874	80.007	19.997	100.288	19.730	24.132	0.505
672.000	410.042	80.005	19.996	100.291	19.647	29.493	0.565
680.000	414.162	80.006	19.996	100.278	19.541	36.301	0.540
688.000	418.319	80.008	19.995	100.252	19.408	44.829	0.514
696.000	422.485	80.008	19.995	100.244	19.214	57.281	0.551
704.000	426.675	80.009	19.996	100.222	18.990	71.707	0.533
712.000	430.817	80.012	19.994	100.255	18.637	94.417	0.516
720.000	434.994	80.008	19.995	100.180	18.217	121.374	0.503
728.000	439.107	80.007	19.995	100.123	17.617	159.734	0.504
736.000	443.187	80.007	19.994	100.035	16.763	214.371	0.515
744.000	447.173	80.008	19.995	99.960	15.564	290.437	0.512
752.000	451.202	80.007	19.995	99.704	14.124	383.490	0.501
760.000	455.161	80.007	19.996	99.313	13.061	447.376	0.497
768.000	459.209	80.008	19.995	99.244	11.531	546.244	0.519
776.000	463.248	80.009	19.995	98.643	11.477	544.433	0.477
784.000	467.295	80.006	19.996	99.544	11.118	573.078	0.509
792.000	471.379	80.009	19.994	99.478	11.910	521.530	0.497
800.000	475.468	80.010	19.995	98.990	13.157	444.604	0.486
808.000	479.534	80.006	19.993	99.368	15.522	294.138	0.505
816.000	483.612	80.008	19.995	99.888	17.667	156.491	0.501
824.000	487.653	80.007	19.995	99.704	18.977	72.542	0.480
832.000	491.617	80.008	19.995	100.091	19.612	31.719	0.464
840.000	495.620	80.007	19.996	100.214	19.895	13.508	0.498
848.000	499.636	80.009	19.997	100.213	20.024	5.207	0.513
856.000	503.681	80.009	19.997	100.220	20.060	2.893	0.465
864.000	507.763	80.010	19.996	100.251	20.072	2.103	0.476
872.000	511.881	80.008	19.994	100.292	20.079	1.627	0.490
880.000	516.100	80.010	19.994	100.289	20.077	1.812	0.530
888.000	520.283	80.005	19.995	100.294	20.078	1.717	0.527
896.000	524.454	80.007	19.996	100.289	20.081	1.522	0.494
904.000	528.635	80.008	19.994	100.287	20.081	1.543	0.493
912.000	532.726	80.008	19.995	100.290	20.082	1.485	0.496
920.000	536.832	80.007	19.995	100.287	20.078	1.696	0.530
928.000	540.854	80.008	19.995	100.294	20.083	1.381	0.507
936.000	544.937	80.007	19.995	100.290	20.081	1.502	0.502
944.000	548.953	80.005	19.995	100.291	20.085	1.274	0.491
952.000	552.976	80.008	19.997	100.291	20.086	1.172	0.510
960.000	557.048	80.010	19.995	100.288	20.075	1.891	0.500
968.000	561.155	80.009	19.995	100.288	20.090	0.959	0.543
976.000	565.216	80.008	19.996	100.288	20.088	1.075	0.517
984.000	569.355	80.007	19.995	100.295	20.091	0.873	0.521
992.000	573.537	80.009	19.995	100.291	20.084	1.339	0.546
1000.000	577.677	80.009	19.994	100.294	20.091	0.866	0.503
1008.000	581.754	80.006	19.994	100.292	20.088	1.081	0.499
1016.000	585.799	80.009	19.995	100.287	20.092	0.833	0.512
1024.000	589.794	80.007	19.994	100.291	20.091	0.889	0.514
1031.999	593.852	80.005	19.995	100.292	20.093	0.720	0.502
1039.999	597.923	80.008	19.996	100.286	20.090	0.926	0.538
1048.000	601.990	80.006	19.997	100.289	20.087	1.116	0.498
1055.999	606.062	80.007	19.995	100.289	20.086	1.207	0.520
1064.000	610.056	80.008	19.994	100.290	20.087	1.169	0.506
1071.999	614.010	80.008	19.994	100.280	20.087	1.128	0.480
1079.999	617.931	80.004	19.995	100.292	20.100	0.330	0.506
1088.000	621.862	80.006	19.996	100.289	20.091	0.905	0.474
1096.001	625.807	80.010	19.994	100.289	20.087	1.167	0.492
1103.999	629.789	80.007	19.995	100.288	20.087	1.139	0.525
1111.999	633.889	80.008	19.995	100.289	20.089	0.979	0.546
1119.999	638.040	80.009	19.994	100.295	20.087	1.121	0.498
1127.999	642.287	80.009	19.994	100.288	20.089	1.023	0.516
1135.999	646.458	80.005	19.996	100.292	20.084	1.353	0.506
1143.999	650.657	80.006	19.997	100.297	20.086	1.195	0.529
1152.000	654.807	80.007	19.995	100.286	20.086	1.219	0.529
1159.999	658.927	80.008	19.996	100.291	20.085	1.262	0.529
1167.999	662.969	80.006	19.994	100.287	20.087	1.146	0.508
1175.999	667.002	80.008	19.995	100.287	20.090	0.919	0.503
1183.999	671.134	80.008	19.994	100.289	20.087	1.119	0.517
1191.999	675.255	80.007	19.994	100.291	20.088	1.053	0.525
1200.000	679.347	80.009	19.995	100.289	20.093	0.750	0.505
1207.999	683.380	80.011	19.995	100.288	20.091	0.877	0.470
1216.000	687.367	80.008	19.995	100.285	20.088	1.052	0.477
1223.999	691.223	80.006	19.995	100.294	20.089	0.987	0.465
1232.000	695.156	80.006	19.995	100.287	20.087	1.109	0.481
1240.000	699.117	80.006	19.996	100.286	20.088	1.077	0.496
1247.999	703.069	80.007	19.997	100.286	20.088	1.051	0.510
1256.000	707.059	80.007	19.994	100.290	20.088	1.082	0.514
1263.999	710.994	80.011	19.995	100.288	20.091	0.882	0.466
1271.999	714.944	80.008	19.994	100.290	20.090	0.928	0.483
1279.999	719.003	80.009	19.995	100.290	20.090	0.929	0.517
1287.999	723.156	80.012	19.993	100.292	20.087	1.130	0.547
1296.000	727.435	80.009	19.995	100.289	20.085	1.258	0.552
1303.999	731.653	80.007	19.995	100.288	20.085	1.269	0.510
1311.999	735.913	80.010	19.996	100.288	20.089	0.995	0.506
1320.000	740.117	80.009	19.995	100.292	20.086	1.205	0.550
1326.499	743.570	80.008	19.996	100.292	20.085	1.237	0.547