Folder: fsri_materials_database/01_Data/Excelsior/MCC (part 2)

File: Excelsior_MCC_30K_min_220216_R3.txt
Sample ID:	C:\MCC\MCC Cal\Test\Excelsior_MCC_30K_min_220216_R3.txt
Sample Weight (mg):	4.4
Heating Rate (C/s):	0.5
Combustor Temp (C):	900
N2 Flow Rate (cc/min):	80
O2 Flow Rate (cc/min):	20
Calibration File:	C:\MCC\MCC Cal\Coeff1 JN10440_30_210304.txt.txt
T Correction Coefficients:	0	1.024463	0
Time Shift (s):	14
*
Time (s)	Temperature (C)	N2 flow rate (cc/min)	O2 flow rate (cc/min)	Flow Rate (cc/min)	Oxygen (%)	HRR (W/g)	Heating rate (C/s)
0.000	112.877	80.011	19.994	103.726	20.034	-0.054	0.004
8.000	112.892	80.010	19.993	103.738	20.036	-0.211	0.015
16.001	112.941	80.011	19.993	103.797	20.023	0.772	0.031
23.999	113.257	80.012	19.993	103.870	20.008	1.889	0.082
32.001	114.031	80.011	19.992	103.934	20.003	2.245	0.107
40.001	115.289	80.011	19.991	103.930	20.001	2.385	0.194
48.000	116.832	80.010	19.992	103.935	20.000	2.451	0.217
56.000	118.739	80.009	19.993	103.944	19.990	3.192	0.279
64.001	120.920	80.010	19.993	103.977	19.989	3.300	0.272
71.999	123.390	80.011	19.994	103.976	19.988	3.380	0.315
80.000	126.123	80.010	19.994	103.977	19.985	3.539	0.362
88.001	129.055	80.011	19.997	103.982	19.989	3.244	0.403
96.000	132.195	80.010	19.994	103.995	19.982	3.769	0.421
104.001	135.551	80.013	19.993	104.001	19.984	3.669	0.431
112.000	138.968	80.013	19.993	103.991	19.983	3.701	0.437
120.000	142.628	80.010	19.993	103.990	19.985	3.577	0.430
127.999	146.480	80.011	19.994	103.998	19.986	3.513	0.481
136.000	150.406	80.012	19.994	103.983	19.983	3.734	0.494
144.000	154.393	80.010	19.993	103.981	19.986	3.515	0.512
151.999	158.347	80.011	19.993	103.979	19.987	3.431	0.513
160.001	162.419	80.010	19.994	103.976	19.986	3.519	0.521
167.999	166.557	80.013	19.994	103.974	19.986	3.507	0.555
175.999	170.630	80.011	19.994	103.974	19.985	3.550	0.521
184.001	174.678	80.010	19.995	103.960	19.987	3.389	0.519
192.001	178.681	80.012	19.993	103.954	19.989	3.297	0.499
200.001	182.733	80.010	19.992	103.946	19.987	3.404	0.487
208.000	186.799	80.010	19.994	103.946	19.986	3.522	0.520
216.000	190.751	80.010	19.994	103.947	19.988	3.380	0.503
224.000	194.721	80.012	19.994	103.942	19.985	3.546	0.506
231.999	198.710	80.010	19.994	103.940	19.985	3.562	0.538
240.001	202.609	80.011	19.993	103.943	19.981	3.826	0.508
248.000	206.575	80.012	19.994	103.940	19.982	3.771	0.506
256.000	210.433	80.012	19.995	103.941	19.980	3.922	0.472
264.000	214.405	80.012	19.992	103.939	19.976	4.254	0.484
272.000	218.296	80.013	19.993	103.935	19.969	4.740	0.494
279.999	222.171	80.012	19.995	103.935	19.963	5.184	0.458
287.999	226.164	80.010	19.994	103.937	19.957	5.658	0.501
296.000	230.128	80.012	19.993	103.945	19.950	6.162	0.497
303.999	234.088	80.010	19.993	103.940	19.938	7.024	0.477
312.000	238.102	80.011	19.993	103.940	19.931	7.557	0.502
320.000	242.071	80.009	19.993	103.944	19.919	8.410	0.518
327.999	246.072	80.013	19.994	103.955	19.908	9.256	0.501
336.001	250.141	80.013	19.993	103.956	19.885	10.905	0.490
343.999	254.152	80.010	19.995	103.970	19.870	12.036	0.464
351.999	258.130	80.013	19.993	103.964	19.847	13.730	0.453
360.001	262.161	80.014	19.993	103.974	19.818	15.856	0.509
368.000	266.194	80.011	19.993	103.985	19.790	17.914	0.543
376.000	270.236	80.010	19.993	104.005	19.755	20.531	0.544
384.000	274.213	80.010	19.993	104.017	19.718	23.271	0.486
391.999	278.219	80.011	19.994	104.020	19.686	25.598	0.472
400.001	282.176	80.011	19.993	104.030	19.650	28.298	0.469
408.000	286.193	80.011	19.992	104.039	19.615	30.855	0.493
415.999	290.123	80.011	19.994	104.042	19.589	32.771	0.483
423.999	294.130	80.011	19.992	104.055	19.564	34.605	0.501
431.999	298.127	80.013	19.993	104.057	19.542	36.276	0.518
440.000	302.125	80.011	19.994	104.057	19.519	37.994	0.492
447.999	306.129	80.010	19.993	104.061	19.500	39.393	0.492
455.999	310.166	80.010	19.995	104.064	19.476	41.163	0.492
464.000	314.254	80.010	19.993	104.093	19.455	42.669	0.494
472.000	318.324	80.011	19.996	104.088	19.434	44.220	0.539
480.000	322.345	80.009	19.994	104.080	19.404	46.492	0.518
487.999	326.407	80.011	19.994	104.102	19.372	48.806	0.514
496.001	330.396	80.011	19.993	104.103	19.344	50.931	0.522
504.001	334.446	80.012	19.994	104.132	19.302	54.043	0.509
511.999	338.534	80.012	19.992	104.141	19.255	57.488	0.521
520.001	342.597	80.013	19.993	104.169	19.199	61.624	0.509
528.001	346.561	80.012	19.993	104.176	19.141	65.919	0.486
535.999	350.566	80.011	19.994	104.210	19.076	70.741	0.517
544.000	354.594	80.010	19.994	104.223	19.016	75.219	0.501
552.000	358.604	80.011	19.994	104.233	18.963	79.137	0.498
560.000	362.565	80.011	19.994	104.225	18.940	80.802	0.494
568.000	366.541	80.009	19.995	104.212	18.952	79.868	0.496
576.000	370.527	80.012	19.994	104.156	19.023	74.567	0.486
584.000	374.578	80.012	19.993	104.095	19.148	65.276	0.506
592.001	378.610	80.010	19.992	104.008	19.321	52.474	0.473
600.000	382.703	80.012	19.993	103.937	19.518	37.946	0.504
608.000	386.719	80.013	19.993	103.901	19.697	24.818	0.523
616.000	390.762	80.011	19.994	103.890	19.820	15.720	0.501
624.000	394.880	80.010	19.993	103.874	19.886	10.832	0.543
631.999	398.974	80.010	19.994	103.868	19.920	8.322	0.504
639.999	403.036	80.011	19.994	103.868	19.932	7.496	0.532
648.001	407.096	80.008	19.993	103.869	19.939	6.927	0.493
656.000	411.201	80.011	19.993	103.862	19.940	6.861	0.523
663.999	415.254	80.011	19.994	103.864	19.946	6.421	0.503
671.999	419.332	80.010	19.994	103.862	19.946	6.399	0.529
680.000	423.393	80.011	19.993	103.860	19.951	6.033	0.487
688.000	427.573	80.012	19.993	103.859	19.957	5.598	0.483
696.001	431.507	80.009	19.993	103.860	19.956	5.731	0.318
704.001	435.683	80.009	19.993	103.860	19.963	5.192	0.522
711.999	439.970	80.009	19.992	103.863	19.964	5.140	0.522
720.000	444.092	80.011	19.992	103.861	19.968	4.822	0.525
728.000	448.245	80.009	19.994	103.858	19.979	4.016	0.541
736.000	452.415	80.010	19.994	103.856	19.977	4.169	0.527
743.999	456.493	80.012	19.994	103.857	19.981	3.829	0.513
751.999	460.536	80.010	19.994	103.848	19.978	4.069	0.480
760.000	464.636	80.010	19.995	103.859	19.981	3.837	0.506
768.001	468.668	80.012	19.993	103.847	19.982	3.754	0.500
775.999	472.695	80.011	19.993	103.839	19.985	3.582	0.514
783.999	476.735	80.010	19.992	103.857	19.985	3.598	0.506
792.000	480.772	80.009	19.994	103.851	19.985	3.582	0.500
800.000	484.815	80.010	19.993	103.853	19.985	3.586	0.538
808.001	488.914	80.011	19.993	103.859	19.988	3.329	0.507
816.001	493.080	80.010	19.992	103.850	19.990	3.192	0.512
824.000	497.264	80.010	19.995	103.849	19.990	3.163	0.541
832.000	501.401	80.011	19.994	103.851	19.992	3.045	0.497
840.000	505.501	80.011	19.993	103.846	19.991	3.144	0.503
848.000	509.625	80.011	19.994	103.853	19.987	3.399	0.532
856.000	513.743	80.011	19.994	103.851	19.992	3.069	0.584
863.999	517.941	80.008	19.994	103.840	19.992	3.077	0.564
871.999	522.105	80.010	19.993	103.855	19.991	3.153	0.529
879.999	526.252	80.011	19.993	103.835	19.989	3.303	0.531
888.001	530.298	80.011	19.994	103.849	19.992	3.055	0.498
896.001	534.456	80.010	19.993	103.840	19.992	3.081	0.528
903.999	538.563	80.011	19.992	103.855	19.995	2.844	0.517
912.001	542.673	80.011	19.992	103.834	19.995	2.832	0.512
920.000	546.800	80.011	19.994	103.829	19.993	2.993	0.516
928.000	550.905	80.012	19.995	103.829	19.995	2.816	0.497
936.000	555.047	80.013	19.993	103.835	19.992	3.073	0.504
944.001	559.115	80.011	19.995	103.848	19.990	3.176	0.512
952.001	563.229	80.009	19.994	103.831	19.990	3.198	0.496
960.000	567.221	80.011	19.993	103.829	19.991	3.150	0.524
968.000	571.167	80.010	19.993	103.841	19.988	3.365	0.507
976.001	575.286	80.010	19.994	103.833	19.991	3.096	0.468
984.000	579.301	80.010	19.993	103.822	19.992	3.055	0.497
992.001	583.373	80.012	19.994	103.825	19.989	3.244	0.516
1000.001	587.421	80.011	19.994	103.829	19.989	3.232	0.502
1007.999	591.467	80.013	19.993	103.829	19.987	3.400	0.490
1016.000	595.472	80.012	19.995	103.825	19.992	3.078	0.495
1024.001	599.513	80.012	19.993	103.822	19.991	3.150	0.477
1032.000	603.569	80.009	19.993	103.832	19.990	3.184	0.495
1040.001	607.669	80.011	19.993	103.825	19.987	3.436	0.524
1048.000	611.703	80.009	19.994	103.824	19.993	2.959	0.508
1056.000	615.862	80.010	19.994	103.831	19.994	2.882	0.553
1064.001	619.923	80.011	19.994	103.833	19.992	3.046	0.525
1072.000	624.008	80.012	19.994	103.825	19.989	3.268	0.543
1079.999	628.098	80.011	19.994	103.821	19.990	3.176	0.524
1088.000	632.135	80.012	19.993	103.832	19.995	2.796	0.485
1096.001	636.182	80.013	19.992	103.824	19.994	2.891	0.500
1104.001	640.283	80.012	19.992	103.825	19.992	3.039	0.503
1112.000	644.284	80.010	19.994	103.822	19.990	3.176	0.489
1120.000	648.307	80.010	19.993	103.821	19.991	3.094	0.513
1128.000	652.359	80.011	19.992	103.820	19.993	2.957	0.539
1136.001	656.454	80.009	19.995	103.828	19.991	3.092	0.535
1144.001	660.580	80.009	19.995	103.819	19.992	3.027	0.500
1152.000	664.738	80.011	19.994	103.822	19.991	3.150	0.500
1160.000	668.900	80.012	19.994	103.824	19.995	2.838	0.520
1168.000	673.003	80.012	19.993	103.821	19.987	3.412	0.497
1176.000	677.182	80.011	19.992	103.822	19.994	2.887	0.508
1184.000	681.299	80.013	19.993	103.821	19.990	3.190	0.539
1192.000	685.334	80.010	19.992	103.819	19.992	3.030	0.514
1199.999	689.356	80.010	19.992	103.815	19.989	3.251	0.485
1208.000	693.407	80.010	19.994	103.821	19.996	2.780	0.501
1215.999	697.449	80.011	19.993	103.823	19.991	3.124	0.493
1224.000	701.437	80.010	19.993	103.818	19.987	3.424	0.478
1232.000	705.383	80.011	19.992	103.823	19.992	3.026	0.465
1239.999	709.415	80.010	19.994	103.822	19.987	3.428	0.511
1248.000	713.407	80.011	19.994	103.819	19.991	3.090	0.497
1255.999	717.450	80.013	19.993	103.816	19.988	3.320	0.556
1263.999	721.416	80.014	19.993	103.812	19.993	2.953	0.500
1271.999	725.453	80.012	19.993	103.809	19.989	3.281	0.529
1279.999	729.491	80.009	19.993	103.822	19.988	3.311	0.511
1288.000	733.490	80.013	19.994	103.824	19.987	3.428	0.537
1296.001	737.574	80.011	19.992	103.824	19.991	3.144	0.517
1304.000	741.724	80.010	19.996	103.827	19.989	3.291	0.530
1306.999	743.279	80.009	19.994	103.822	19.984	3.619	0.536