Folder: fsri_materials_database/01_Data/LW_GypBoard_Gypsum_Core/STA/N2/10K_min

Note: 01_Data/README.md
# Materials and Products Database
## 01_Data

Raw data generated from each apparatus are included here in plain-text format. The data is organized first by material, next by the short name of test apparatus used, and where applicable additional filtering by test settings.

### material.json

Each material directory contains a json file of the same name as the material. This file links the data stored in the repository as well as data and graphs produced by the accompanying scripts (__02_Scripts__) to the respective landing page for the material on the front-end website.

File: Lw_Gypsum_Core_STA_N2_10KData_222502_R2.csv
##Temp./Â°C,Time/min,Mass loss(subtr.2)/mg,DSC(subtr.2)/(mW/mg),Sensit./(uV/mW)
49.738,10.00917,-0.00065,0.00702599,1.07514
53.338,11.375,0.00338293,0.11405,1.07326
56.938,11.865,0.002008959,0.1579,1.07139
60.538,12.28973,0.001860482,0.18598,1.06951
64.138,12.6928,0.003196064,0.20787,1.06764
67.738,13.08395,0.00134282,0.22514,1.06578
71.338,13.46924,0.001980265,0.24869,1.06391
74.938,13.84973,0.000669388,0.27189,1.06205
78.538,14.22577,-0.0009443792,0.29944,1.06019
82.138,14.5983,-0.00657555,0.32633,1.05833
85.738,14.96691,-0.01347627,0.3637,1.05647
89.338,15.33269,-0.02006947,0.42038,1.05462
92.938,15.69539,-0.025341,0.5051,1.05276
96.538,16.05549,-0.03441243,0.62329,1.05091
100.138,16.41479,-0.04675083,0.78045,1.04906
103.738,16.77234,-0.06526645,0.94273,1.04722
107.338,17.13024,-0.08825397,1.11589,1.04537
110.938,17.48657,-0.1194,1.36997,1.04353
114.538,17.84713,-0.1644,2.07549,1.04169
118.138,18.21088,-0.22944,2.85213,1.03985
121.738,18.5761,-0.32091,3.53362,1.03801
125.338,18.93826,-0.41395,3.5048,1.03617
128.938,19.29185,-0.48575,2.98818,1.03434
132.538,19.64312,-0.55709,3.22339,1.03251
136.138,19.99669,-0.6314,3.39009,1.03068
139.738,20.3404,-0.67314,1.42702,1.02885
143.338,20.67227,-0.68146,0.62031,1.02702
146.938,21.00613,-0.68644,0.40495,1.0252
150.538,21.34326,-0.69036,0.32531,1.02337
154.138,21.68264,-0.69431,0.28586,1.02155
157.738,22.02275,-0.69796,0.26495,1.01973
161.338,22.36335,-0.69958,0.25004,1.01791
164.938,22.7062,-0.70056,0.2405,1.01609
168.538,23.04919,-0.70089,0.2346,1.01427
172.138,23.39252,-0.70221,0.22903,1.01245
175.738,23.73686,-0.70273,0.22646,1.01063
179.338,24.08073,-0.70521,0.22331,1.00882
182.938,24.42436,-0.7059,0.21767,1.007
186.538,24.7673,-0.70649,0.21457,1.00519
190.138,25.11119,-0.70663,0.21364,1.00337
193.738,25.45541,-0.70692,0.21081,1.00156
197.338,25.79903,-0.70824,0.20836,0.99975
200.938,26.14312,-0.71055,0.20853,0.99793
204.538,26.48756,-0.71182,0.20815,0.99612
208.138,26.8315,-0.71154,0.2041,0.9943
211.738,27.1759,-0.71021,0.20393,0.99249
215.338,27.51975,-0.71153,0.2048,0.99068
218.938,27.8627,-0.7112,0.20679,0.98886
222.538,28.2061,-0.7112,0.20654,0.98705
226.138,28.5498,-0.7112,0.20196,0.98523
229.738,28.8945,-0.71284,0.20003,0.98341
233.338,29.23845,-0.71416,0.19945,0.9816
236.938,29.5823,-0.7168,0.19833,0.97978
240.538,29.9258,-0.71612,0.19485,0.97796
244.138,30.2682,-0.71713,0.19154,0.97614
247.738,30.6117,-0.71812,0.18804,0.97431
251.338,30.9555,-0.71847,0.18774,0.97249
254.938,31.29903,-0.72042,0.18308,0.97066
258.538,31.64319,-0.72099,0.1788,0.96884
262.138,31.9878,-0.72108,0.17216,0.96701
265.738,32.3322,-0.71976,0.16982,0.96517
269.338,32.67703,-0.71709,0.17033,0.96334
272.938,33.02152,-0.71811,0.16754,0.9615
276.538,33.36437,-0.71811,0.16434,0.95966
280.138,33.70899,-0.71811,0.16409,0.95782
283.738,34.05402,-0.72074,0.16538,0.95597
287.338,34.3997,-0.72239,0.16212,0.95413
290.938,34.74505,-0.72358,0.16057,0.95227
294.538,35.09018,-0.7237,0.16082,0.95042
298.138,35.4356,-0.72108,0.1553,0.94856
301.738,35.78174,-0.72107,0.15285,0.9467
305.338,36.12777,-0.72269,0.1471,0.94483
308.938,36.47435,-0.72472,0.14536,0.94296
312.538,36.82144,-0.72563,0.14229,0.94109
316.138,37.16809,-0.72535,0.14131,0.93921
319.738,37.51406,-0.72436,0.13952,0.93733
323.338,37.8611,-0.72306,0.1407,0.93544
326.938,38.2082,-0.72239,0.14052,0.93355
330.538,38.55601,-0.72377,0.1375,0.93165
334.138,38.90469,-0.72488,0.1382,0.92975
337.738,39.25336,-0.7294,0.14134,0.92785
341.338,39.6014,-0.73062,0.14416,0.92593
344.938,39.94947,-0.73224,0.14451,0.92402
348.538,40.29723,-0.73193,0.14495,0.92209
352.138,40.64575,-0.73391,0.14355,0.92016
355.738,40.994,-0.73292,0.14268,0.91823
359.338,41.34272,-0.73299,0.1387,0.91629
362.938,41.69188,-0.73336,0.13817,0.91434
366.538,42.0413,-0.73463,0.1373,0.91239
370.138,42.38905,-0.73753,0.14188,0.91042
373.738,42.73754,-0.73754,0.13869,0.90846
377.338,43.08697,-0.73752,0.13846,0.90648
380.938,43.44685,-0.73752,0.13431,0.9045
384.538,43.7966,-0.73687,0.12534,0.90251
388.138,44.14808,-0.73753,0.11511,0.90052
391.738,44.49982,-0.73753,0.10725,0.89852
395.338,44.85215,-0.73753,0.09651735,0.89651
398.938,45.20366,-0.73785,0.08594059,0.89449
402.538,45.55584,-0.73852,0.06959521,0.89246
406.138,45.90784,-0.73984,0.05290838,0.89043
409.738,46.25965,-0.73985,0.03652682,0.88839
413.338,46.61156,-0.7428,0.01867196,0.88634
416.938,46.96268,-0.74345,0.002050326,0.88428
420.538,47.3152,-0.74411,-0.01117679,0.88221
424.138,47.66757,-0.74443,-0.0251355,0.88013
427.738,48.02071,-0.74444,-0.03017583,0.87805
431.338,48.37447,-0.74418,-0.02786524,0.87595
434.938,48.72862,-0.74345,-0.01736007,0.87385
438.538,49.0817,-0.74214,-0.00375515,0.87174
442.138,49.4349,-0.74345,0.01683385,0.86962
445.738,49.7892,-0.74477,0.03504623,0.86749
449.338,50.14288,-0.7451,0.05120666,0.86535
452.938,50.49743,-0.74575,0.06631045,0.8632
456.538,50.85241,-0.74639,0.08107214,0.86104
460.138,51.20694,-0.74775,0.09183785,0.85887
463.738,51.56152,-0.74838,0.09986667,0.85669
467.338,51.9159,-0.74905,0.1078,0.8545
470.938,52.27152,-0.75134,0.11406,0.8523
474.538,52.6273,-0.75233,0.11269,0.85009
478.138,52.9837,-0.75233,0.11682,0.84787
481.738,53.33925,-0.75222,0.12037,0.84564
485.338,53.69469,-0.75114,0.12363,0.8434
488.938,54.05011,-0.75124,0.12563,0.84115
492.538,54.4067,-0.75148,0.12734,0.83888
496.138,54.76311,-0.75221,0.12676,0.83661
499.738,55.1202,-0.75321,0.12483,0.83433
503.338,55.47713,-0.75321,0.12606,0.83203
506.938,55.83385,-0.75223,0.12263,0.82972
510.538,56.18979,-0.75223,0.12666,0.8274
514.138,56.5459,-0.75189,0.12722,0.82508
517.738,56.90229,-0.75486,0.12952,0.82274
521.338,57.2602,-0.75618,0.12758,0.82038
524.938,57.6183,-0.75584,0.1265,0.81802
528.538,57.97736,-0.75584,0.12811,0.81565
532.138,58.3365,-0.75875,0.12926,0.81326
535.738,58.69566,-0.76057,0.12673,0.81086
539.338,59.0545,-0.7621,0.12937,0.80845
542.938,59.4125,-0.76078,0.13159,0.80603
546.538,59.77049,-0.76209,0.13388,0.8036
550.138,60.1288,-0.7621,0.13269,0.80115
553.738,60.4887,-0.76374,0.13381,0.79869
557.338,60.849,-0.76374,0.13663,0.79623
560.938,61.20893,-0.76374,0.13755,0.79374
564.538,61.56919,-0.76276,0.13985,0.79125
568.138,61.9285,-0.76276,0.13999,0.78875
571.738,62.28859,-0.76375,0.14393,0.78623
575.338,62.6484,-0.76374,0.14462,0.7837
578.938,63.0084,-0.76506,0.14462,0.78116
582.538,63.368,-0.76637,0.15089,0.77861
586.138,63.728,-0.76502,0.14897,0.77604
589.738,64.08726,-0.76802,0.15481,0.77347
593.338,64.44755,-0.77065,0.16045,0.77088
596.938,64.80773,-0.77328,0.1591,0.76828
600.538,65.16811,-0.77296,0.16838,0.76566
604.138,65.52886,-0.77395,0.17493,0.76304
607.738,65.8905,-0.77559,0.17837,0.7604
611.338,66.25182,-0.77723,0.18623,0.75775
614.938,66.61349,-0.77923,0.19597,0.75509
618.538,66.97501,-0.77887,0.21024,0.75242
622.138,67.336,-0.78282,0.2204,0.74973
625.738,67.6974,-0.78676,0.22892,0.74703
629.338,68.0591,-0.79073,0.23927,0.74433
632.938,68.4208,-0.79342,0.24591,0.7416
636.538,68.78385,-0.79731,0.25637,0.73887
640.138,69.14623,-0.79997,0.2635,0.73613
643.738,69.5078,-0.80674,0.26814,0.73337
647.338,69.8699,-0.81281,0.27289,0.7306
650.938,70.2316,-0.81665,0.27974,0.72782
654.538,70.5943,-0.82201,0.27172,0.72503
658.138,70.95715,-0.82462,0.26843,0.72223
661.738,71.3192,-0.82759,0.26749,0.71941
665.338,71.68308,-0.8312,0.26462,0.71658
668.938,72.04605,-0.83907,0.26292,0.71375
672.538,72.40909,-0.84436,0.25845,0.7109
676.138,72.77232,-0.84831,0.26392,0.70804
679.738,73.1353,-0.85357,0.25009,0.70517
683.338,73.4992,-0.85752,0.23986,0.70228
686.938,73.86219,-0.86279,0.22806,0.69939
690.538,74.22496,-0.86532,0.20945,0.69649
694.138,74.58808,-0.86906,0.1885,0.69357
697.738,74.95182,-0.8716,0.16753,0.69064
701.338,75.3146,-0.87431,0.15388,0.68771
704.938,75.6773,-0.87562,0.14943,0.68476
708.538,76.0404,-0.87694,0.14745,0.6818
712.138,76.40382,-0.87825,0.14723,0.67883
715.738,76.76786,-0.87924,0.1456,0.67585
719.338,77.13367,-0.88333,0.14944,0.67287
722.938,77.49916,-0.88451,0.14462,0.66987
726.538,77.86669,-0.8845,0.14225,0.66686
730.138,78.232,-0.88582,0.15035,0.66384
733.738,78.5966,-0.88617,0.14932,0.66081
737.338,78.95954,-0.88614,0.14724,0.65777
740.938,79.3229,-0.8883,0.14836,0.65473
744.538,79.68818,-0.89054,0.14653,0.65167
748.138,80.05174,-0.89185,0.14618,0.6486
751.738,80.41673,-0.89328,0.15153,0.64553
755.338,80.78274,-0.89568,0.14684,0.64245
758.938,81.14827,-0.89468,0.14889,0.63935
762.538,81.5134,-0.89296,0.15013,0.63625
766.138,81.8781,-0.89281,0.15213,0.63314
769.738,82.24154,-0.8937,0.15219,0.63002
773.338,82.60536,-0.89668,0.15709,0.6269
776.938,82.96988,-0.90031,0.15818,0.62376
780.538,83.33513,-0.90293,0.15865,0.62062
784.138,83.70138,-0.90425,0.15954,0.61747
787.738,84.06746,-0.90688,0.16042,0.61432
791.338,84.4337,-0.90853,0.16773,0.61115
794.938,84.79858,-0.90919,0.17234,0.60798
798.538,85.1644,-0.91182,0.18198,0.6048
802.138,85.5303,-0.91445,0.18097,0.60161
805.738,85.89623,-0.91642,0.18488,0.59842
809.338,86.26272,-0.9184,0.19235,0.59522
812.938,86.62915,-0.92071,0.19969,0.59202
816.538,86.995,-0.92428,0.21005,0.5888
820.138,87.36155,-0.92877,0.23031,0.58559
823.738,87.72836,-0.93255,0.24157,0.58236
827.338,88.09366,-0.93645,0.25796,0.57913
830.938,88.45928,-0.93913,0.27708,0.5759
834.538,88.82629,-0.94106,0.29283,0.57266
838.138,89.19312,-0.94304,0.30497,0.56941
841.738,89.55895,-0.949,0.32621,0.56616
845.338,89.92497,-0.95728,0.34474,0.56291
848.938,90.29135,-0.96389,0.3661,0.55965
852.538,90.65811,-0.97064,0.37398,0.55638
856.138,91.0244,-0.97664,0.38232,0.55311
859.738,91.39195,-0.98253,0.37588,0.54984
863.338,91.75931,-0.98751,0.34966,0.54657
866.938,92.12615,-0.99419,0.29782,0.54329
870.538,92.49308,-0.99819,0.25338,0.54
874.138,92.8569,-1.00174,0.23002,0.53672
877.738,93.22338,-1.00341,0.21545,0.53343
881.338,93.5886,-1.00439,0.21032,0.53013
884.938,93.95456,-1.00337,0.21935,0.52684
888.538,94.3202,-1.00834,0.21708,0.52354
892.138,94.68658,-1.00965,0.22232,0.52024
895.138,94.9927,-1.01196,0.22708,0.51749