Folder: fsri_materials_database/01_Data/LW_GypBoard_Gypsum_Core/STA/N2/30K_min

Note: 01_Data/README.md
# Materials and Products Database
## 01_Data

Raw data generated from each apparatus are included here in plain-text format. The data is organized first by material, next by the short name of test apparatus used, and where applicable additional filtering by test settings.

### material.json

Each material directory contains a json file of the same name as the material. This file links the data stored in the repository as well as data and graphs produced by the accompanying scripts (__02_Scripts__) to the respective landing page for the material on the front-end website.

File: Lw_Gypsum_Core_STA_N2_30KData_222502_R1.csv
##Temp./Â°C,Time/min,Mass loss(subtr.2)/mg,DSC(subtr.2)/(mW/mg),Sensit./(uV/mW)
48.686,10.00583,-0.03784,0.0131148,1.08898
52.186,10.90133,-0.04286261,0.19066,1.08604
55.686,11.14586,-0.04048133,0.30693,1.08311
59.186,11.33416,-0.04554639,0.40098,1.08021
62.686,11.49756,-0.04718632,0.47568,1.07732
66.186,11.64685,-0.04908559,0.54482,1.07446
69.686,11.78766,-0.0480125,0.60034,1.07162
73.186,11.92264,-0.04608509,0.65465,1.0688
76.686,12.0535,-0.04580533,0.70297,1.066
80.186,12.18174,-0.04688282,0.7549,1.06322
83.686,12.30707,-0.05022213,0.81061,1.06047
87.186,12.4305,-0.05524544,0.86926,1.05773
90.686,12.55222,-0.0562723,0.93542,1.05501
94.186,12.67267,-0.05947438,1.01333,1.05232
97.686,12.79222,-0.06153998,1.10953,1.04965
101.186,12.91134,-0.06547551,1.23292,1.04699
104.686,13.02962,-0.06547633,1.40049,1.04436
108.186,13.1482,-0.07136639,1.5956,1.04175
111.686,13.26591,-0.08602256,1.80871,1.03916
115.186,13.3842,-0.10173,2.04,1.03658
118.686,13.5017,-0.12065,2.42065,1.03403
122.186,13.6196,-0.14388,3.3045,1.0315
125.686,13.73776,-0.17909,4.40139,1.02899
129.186,13.8562,-0.22589,5.73238,1.0265
132.686,13.97502,-0.28461,7.2195,1.02402
136.186,14.09433,-0.35873,8.52764,1.02157
139.686,14.21314,-0.43866,8.99304,1.01914
143.186,14.3302,-0.51189,8.20436,1.01672
146.686,14.44459,-0.56202,7.38711,1.01433
150.186,14.55703,-0.60717,7.46287,1.01195
153.686,14.6698,-0.66059,7.71478,1.00959
157.186,14.78209,-0.7145,6.70342,1.00725
160.686,14.89233,-0.74091,4.38243,1.00493
164.186,14.9999,-0.74797,2.92631,1.00263
167.686,15.10638,-0.75146,2.08805,1.00034
171.186,15.21269,-0.75289,1.61349,0.99808
174.686,15.31892,-0.75706,1.34277,0.99583
178.186,15.42542,-0.75706,1.18216,0.99359
181.686,15.5316,-0.75837,1.08808,0.99138
185.186,15.63771,-0.76232,1.03001,0.98918
188.686,15.7436,-0.76364,0.98983,0.987
192.186,15.8496,-0.76617,0.96333,0.98483
195.686,15.95554,-0.76791,0.94389,0.98268
199.186,16.06149,-0.76923,0.9313,0.98055
202.686,16.16744,-0.76923,0.92139,0.97843
206.186,16.2733,-0.76891,0.90869,0.97633
209.686,16.37902,-0.77022,0.90363,0.97424
213.186,16.48486,-0.77285,0.89764,0.97217
216.686,16.59064,-0.77172,0.89257,0.97011
220.186,16.69651,-0.77421,0.88955,0.96806
223.686,16.8022,-0.77814,0.88633,0.96603
227.186,16.90793,-0.77666,0.88132,0.96402
230.686,17.01373,-0.77679,0.87921,0.96202
234.186,17.11938,-0.77417,0.87552,0.96003
237.686,17.22495,-0.77679,0.87101,0.95805
241.186,17.33055,-0.78086,0.866,0.95609
244.686,17.4362,-0.77963,0.86021,0.95414
248.186,17.54177,-0.78228,0.86032,0.9522
251.686,17.64742,-0.78426,0.85471,0.95027
255.186,17.75297,-0.78491,0.8499,0.94835
258.686,17.859,-0.78623,0.84784,0.94645
262.186,17.96445,-0.78491,0.84065,0.94456
265.686,18.06985,-0.7836,0.83751,0.94267
269.186,18.17535,-0.78229,0.82923,0.9408
272.686,18.28104,-0.7836,0.82365,0.93894
276.186,18.3867,-0.78493,0.81722,0.93709
279.686,18.49249,-0.78591,0.80813,0.93524
283.186,18.5983,-0.78944,0.80056,0.93341
286.686,18.704,-0.79117,0.79521,0.93158
290.186,18.81005,-0.79028,0.7885,0.92977
293.686,18.91606,-0.79249,0.78509,0.92796
297.186,19.02175,-0.79115,0.78101,0.92616
300.686,19.12772,-0.79018,0.77618,0.92436
304.186,19.234,-0.79018,0.77139,0.92258
307.686,19.34003,-0.79282,0.77397,0.9208
311.186,19.44612,-0.79413,0.77025,0.91902
314.686,19.55236,-0.79545,0.76703,0.91726
318.186,19.65861,-0.79281,0.76604,0.91549
321.686,19.7651,-0.79278,0.76006,0.91374
325.186,19.87144,-0.79545,0.75773,0.91199
328.686,19.9777,-0.79793,0.75097,0.91024
332.186,20.08417,-0.79929,0.75071,0.9085
335.686,20.191,-0.8006,0.74892,0.90676
339.186,20.29794,-0.79928,0.75011,0.90503
342.686,20.40491,-0.79928,0.75299,0.9033
346.186,20.51212,-0.8006,0.75587,0.90157
349.686,20.61928,-0.80093,0.75805,0.89985
353.186,20.72658,-0.80225,0.76161,0.89812
356.686,20.8339,-0.80273,0.7626,0.8964
360.186,20.94119,-0.80111,0.76455,0.89469
363.686,21.04901,-0.80225,0.76489,0.89297
367.186,21.15682,-0.80352,0.76564,0.89125
370.686,21.2646,-0.80488,0.76582,0.88954
374.186,21.3725,-0.80357,0.76875,0.88783
377.686,21.48059,-0.80619,0.77413,0.88611
381.186,21.58867,-0.80751,0.77837,0.8844
384.686,21.69696,-0.80883,0.78366,0.88268
388.186,21.8054,-0.80844,0.78728,0.88097
391.686,21.9139,-0.80892,0.79054,0.87925
395.186,22.02242,-0.81147,0.79082,0.87753
398.686,22.13131,-0.81094,0.78389,0.87581
402.186,22.24022,-0.8102,0.77544,0.87409
405.686,22.34917,-0.81542,0.76145,0.87237
409.186,22.45824,-0.81551,0.74402,0.87064
412.686,22.5673,-0.81599,0.71959,0.86891
416.186,22.67649,-0.81559,0.69466,0.86717
419.686,22.78584,-0.81683,0.66487,0.86544
423.186,22.89519,-0.81552,0.63527,0.8637
426.686,23.00444,-0.81683,0.60218,0.86195
430.186,23.1139,-0.81772,0.56228,0.8602
433.686,23.22364,-0.81881,0.51598,0.85844
437.186,23.3335,-0.81914,0.46646,0.85668
440.686,23.4434,-0.82145,0.41198,0.85492
444.186,23.5535,-0.82278,0.36721,0.85315
447.686,23.66366,-0.82194,0.33055,0.85137
451.186,23.774,-0.8232,0.3138,0.84958
454.686,23.88474,-0.82188,0.32436,0.84779
458.186,23.99541,-0.82594,0.34887,0.846
461.686,24.10603,-0.82286,0.38812,0.84419
465.186,24.21665,-0.82669,0.44105,0.84238
468.686,24.3275,-0.82547,0.49408,0.84056
472.186,24.4387,-0.82528,0.54611,0.83873
475.686,24.54984,-0.82607,0.59363,0.83689
479.186,24.66161,-0.83114,0.63564,0.83505
482.686,24.77305,-0.82813,0.66431,0.83319
486.186,24.88511,-0.82945,0.69382,0.83133
489.686,24.99677,-0.82812,0.72198,0.82946
493.186,25.10816,-0.83102,0.75012,0.82758
496.686,25.22051,-0.83513,0.76931,0.82569
500.186,25.33261,-0.83351,0.76962,0.82378
503.686,25.4448,-0.83219,0.75104,0.82187
507.186,25.55707,-0.83214,0.73576,0.81995
510.686,25.66965,-0.83483,0.72697,0.81802
514.186,25.7822,-0.83252,0.7156,0.81607
517.686,25.89473,-0.83384,0.70477,0.81412
521.186,26.00743,-0.83551,0.69812,0.81215
524.686,26.12021,-0.83419,0.70167,0.81017
528.186,26.23285,-0.83285,0.70072,0.80818
531.686,26.3455,-0.83296,0.69883,0.80618
535.186,26.4584,-0.83692,0.70157,0.80417
538.686,26.57112,-0.83606,0.70227,0.80214
542.186,26.6839,-0.83263,0.70447,0.8001
545.686,26.7971,-0.83526,0.70848,0.79805
549.186,26.91055,-0.83526,0.70578,0.79599
552.686,27.02386,-0.83757,0.70541,0.79391
556.186,27.1372,-0.83757,0.70819,0.79182
559.686,27.25067,-0.83658,0.70994,0.78971
563.186,27.36423,-0.84393,0.71273,0.7876
566.686,27.47802,-0.83995,0.71101,0.78546
570.186,27.5917,-0.83851,0.7145,0.78332
573.686,27.7056,-0.84294,0.71786,0.78116
577.186,27.8195,-0.84294,0.71912,0.77899
580.686,27.9337,-0.83899,0.7179,0.7768
584.186,28.04781,-0.83768,0.7187,0.7746
587.686,28.1622,-0.84032,0.72433,0.77238
591.186,28.27673,-0.84097,0.72974,0.77015
594.686,28.3912,-0.83998,0.73139,0.7679
598.186,28.5056,-0.84097,0.73604,0.76564
601.686,28.62037,-0.84194,0.73959,0.76337
605.186,28.73522,-0.84387,0.74417,0.76107
608.686,28.85,-0.84722,0.74323,0.75877
612.186,28.96487,-0.84719,0.74583,0.75645
615.686,29.07998,-0.84722,0.74736,0.75411
619.186,29.1948,-0.84575,0.74926,0.75176
622.686,29.3099,-0.84482,0.75202,0.74939
626.186,29.425,-0.8458,0.7563,0.74701
629.686,29.5404,-0.84448,0.76511,0.74461
633.186,29.6556,-0.84733,0.76965,0.7422
636.686,29.77096,-0.8508,0.78036,0.73977
640.186,29.8864,-0.85259,0.79082,0.73732
643.686,30.0017,-0.85523,0.80191,0.73486
647.186,30.1173,-0.85918,0.82136,0.73238
650.686,30.23265,-0.86181,0.83904,0.72989
654.186,30.34843,-0.86154,0.85703,0.72738
657.686,30.46405,-0.86028,0.87705,0.72485
661.186,30.57958,-0.86277,0.90015,0.72231
664.686,30.69525,-0.86564,0.92485,0.71976
668.186,30.8104,-0.86986,0.94194,0.71718
671.686,30.9262,-0.8753,0.95919,0.71459
675.186,31.04202,-0.88202,0.96998,0.71199
678.686,31.15783,-0.88058,0.97779,0.70937
682.186,31.27392,-0.88019,0.98177,0.70673
685.686,31.39,-0.88616,0.98504,0.70408
689.186,31.50603,-0.89419,0.99635,0.70141
692.686,31.622,-0.89796,1.00819,0.69873
696.186,31.7382,-0.90479,1.02057,0.69603
699.686,31.8541,-0.9143,1.04073,0.69331
703.186,31.97035,-0.91057,1.05671,0.69058
706.686,32.08655,-0.91471,1.084,0.68783
710.186,32.20304,-0.92212,1.10777,0.68507
713.686,32.31962,-0.93049,1.12276,0.68229
717.186,32.43609,-0.93563,1.12711,0.6795
720.686,32.55279,-0.93858,1.11024,0.67669
724.186,32.6695,-0.94445,1.0709,0.67387
727.686,32.78627,-0.94867,1.01435,0.67103
731.186,32.90303,-0.95354,0.92275,0.66817
734.686,33.01965,-0.953,0.83826,0.6653
738.186,33.1372,-0.95286,0.77096,0.66242
741.686,33.25345,-0.95614,0.74375,0.65952
745.186,33.37103,-0.95636,0.7304,0.65661
748.686,33.48816,-0.958,0.72583,0.65368
752.186,33.60523,-0.95745,0.72798,0.65073
755.686,33.72234,-0.95524,0.73414,0.64778
759.186,33.83943,-0.95855,0.74053,0.64481
762.686,33.95668,-0.96251,0.74159,0.64182
766.186,34.07394,-0.96316,0.751,0.63882
769.686,34.19115,-0.96009,0.75635,0.6358
773.186,34.30905,-0.96291,0.76224,0.63278
776.686,34.42669,-0.96553,0.76741,0.62973
780.186,34.54387,-0.96448,0.77553,0.62668
783.686,34.66127,-0.96693,0.78038,0.62361
787.186,34.77875,-0.96974,0.79155,0.62053
790.686,34.8961,-0.96974,0.79808,0.61744
794.186,35.0134,-0.96976,0.80355,0.61433
797.686,35.13081,-0.97106,0.80882,0.61121
801.186,35.24797,-0.97106,0.812,0.60807
804.686,35.36565,-0.97369,0.81611,0.60493
808.186,35.48317,-0.97455,0.82995,0.60177
811.686,35.6007,-0.9752,0.83956,0.5986
815.186,35.71845,-0.97807,0.85086,0.59542
818.686,35.83567,-0.97939,0.8561,0.59223
822.186,35.9539,-0.98038,0.87072,0.58902
825.686,36.07183,-0.98301,0.87931,0.58581
829.186,36.18976,-0.9829,0.89544,0.58258
832.686,36.3079,-0.98613,0.90688,0.57934
836.186,36.42576,-0.98685,0.92928,0.5761
839.686,36.5438,-0.99107,0.94207,0.57284
843.186,36.66175,-0.98907,0.96251,0.56957
846.686,36.77948,-0.99036,0.98817,0.56629
850.186,36.89782,-0.99606,1.02063,0.563
853.686,37.01607,-1.00157,1.04507,0.5597
857.186,37.13442,-0.99961,1.08002,0.55639
860.686,37.25274,-1.00144,1.11147,0.55308
864.186,37.37093,-1.00443,1.14819,0.54975
867.686,37.48936,-1.01002,1.18542,0.54642
871.186,37.60771,-1.01405,1.22162,0.54307
874.686,37.72588,-1.01811,1.26354,0.53972
878.186,37.84421,-1.01959,1.29918,0.53636
881.686,37.96244,-1.0213,1.34758,0.53299
885.186,38.0806,-1.03163,1.40018,0.52962
888.686,38.1986,-1.03858,1.45027,0.52624
892.186,38.317,-1.04348,1.50912,0.52285
892.586,38.33064,-1.04355,1.51404,0.52246

File: Lw_Gypsum_Core_STA_N2_30KData_222802_R2.csv
##Temp./Â°C,Time/min,Mass loss(subtr.2)/mg,DSC(subtr.2)/(mW/mg),Sensit./(uV/mW)
48.881,10.00667,-0.01119,0.005164929,1.08882
52.481,10.91165,-0.01120821,0.14942,1.08579
56.081,11.1576,-0.01012146,0.24232,1.08278
59.681,11.34874,-0.01246861,0.31931,1.0798
63.281,11.51469,-0.01082892,0.38606,1.07684
66.881,11.66617,-0.01318348,0.44179,1.0739
70.481,11.8099,-0.01302022,0.49138,1.07098
74.081,11.94759,-0.01494975,0.53858,1.06808
77.681,12.08158,-0.01315581,0.58689,1.06521
81.281,12.21224,-0.0154081,0.6345,1.06236
84.881,12.34065,-0.01557982,0.68781,1.05953
88.481,12.46677,-0.01842933,0.74759,1.05672
92.081,12.59145,-0.02127246,0.81844,1.05394
95.681,12.7151,-0.02346368,0.89896,1.05117
99.281,12.8377,-0.0278002,1.00104,1.04843
102.881,12.9596,-0.03109198,1.13071,1.04571
106.481,13.0819,-0.03703914,1.30489,1.04302
110.081,13.2037,-0.04719971,1.50854,1.04034
113.681,13.32514,-0.06058911,1.73446,1.03769
117.281,13.44614,-0.07294217,2.05076,1.03505
120.881,13.56751,-0.09346103,2.71418,1.03244
124.481,13.68893,-0.12176,3.71916,1.02985
128.081,13.8103,-0.16678,5.00771,1.02728
131.681,13.93299,-0.22402,6.57237,1.02473
135.281,14.05577,-0.30046,8.20557,1.0222
138.881,14.17915,-0.38539,9.21865,1.0197
142.481,14.30075,-0.46527,8.62794,1.01721
146.081,14.41959,-0.5213,7.30049,1.01474
149.681,14.536,-0.56682,7.19097,1.01229
153.281,14.6519,-0.61906,7.54322,1.00987
156.881,14.76711,-0.67313,7.01101,1.00746
160.481,14.88049,-0.7043,4.51433,1.00507
164.081,14.9914,-0.71349,2.90582,1.0027
167.681,15.101,-0.71724,1.99779,1.00035
171.281,15.21016,-0.72038,1.4909,0.99801
174.881,15.31923,-0.72311,1.20814,0.9957
178.481,15.4285,-0.72644,1.04844,0.99341
182.081,15.5377,-0.72777,0.9451,0.99113
185.681,15.64662,-0.72841,0.88643,0.98887
189.281,15.75539,-0.73174,0.8455,0.98663
192.881,15.86484,-0.73298,0.81705,0.9844
196.481,15.97374,-0.73435,0.80024,0.98219
200.081,16.08294,-0.73575,0.78507,0.98
203.681,16.19185,-0.73698,0.77495,0.97783
207.281,16.30098,-0.73863,0.76749,0.97567
210.881,16.40992,-0.73962,0.75924,0.97353
214.481,16.5189,-0.73869,0.75469,0.9714
218.081,16.6279,-0.7417,0.75354,0.96929
221.681,16.73677,-0.74127,0.75183,0.96719
225.281,16.84563,-0.74258,0.74885,0.96511
228.881,16.95443,-0.74389,0.74398,0.96305
232.481,17.06326,-0.74389,0.74085,0.96099
236.081,17.172,-0.74588,0.7395,0.95895
239.681,17.28068,-0.74587,0.73726,0.95693
243.281,17.38941,-0.74619,0.73483,0.95492
246.881,17.4981,-0.74718,0.72914,0.95292
250.481,17.60647,-0.74718,0.72468,0.95093
254.081,17.7153,-0.7485,0.7198,0.94896
257.681,17.824,-0.74981,0.71027,0.947
261.281,17.93241,-0.74981,0.70595,0.94505
264.881,18.04103,-0.74983,0.69502,0.94311
268.481,18.1496,-0.751,0.68821,0.94118
272.081,18.2582,-0.75113,0.67926,0.93926
275.681,18.3668,-0.75245,0.66692,0.93735
279.281,18.47542,-0.75341,0.65932,0.93546
282.881,18.58374,-0.75409,0.64889,0.93357
286.481,18.69274,-0.75409,0.63433,0.93169
290.081,18.80159,-0.75299,0.62241,0.92982
293.681,18.9104,-0.75377,0.61275,0.92796
297.281,19.0193,-0.75377,0.60315,0.92611
300.881,19.12829,-0.75641,0.59464,0.92426
304.481,19.23732,-0.75639,0.58347,0.92243
308.081,19.3463,-0.75801,0.576,0.9206
311.681,19.45553,-0.75805,0.56483,0.91877
315.281,19.56472,-0.76005,0.55204,0.91696
318.881,19.67411,-0.76001,0.53202,0.91514
322.481,19.7835,-0.76133,0.51679,0.91334
326.081,19.8931,-0.7623,0.49713,0.91154
329.681,20.0027,-0.76331,0.48111,0.90975
333.281,20.1125,-0.76462,0.46478,0.90795
336.881,20.22229,-0.76463,0.45329,0.90617
340.481,20.33215,-0.76727,0.44569,0.90439
344.081,20.4423,-0.76726,0.44379,0.90261
347.681,20.55249,-0.76912,0.44608,0.90083
351.281,20.6628,-0.76989,0.44671,0.89906
354.881,20.7731,-0.7712,0.44877,0.89729
358.481,20.88374,-0.77252,0.44455,0.89552
362.081,20.9943,-0.77353,0.43871,0.89376
365.681,21.10497,-0.77254,0.43047,0.89199
369.281,21.21582,-0.77383,0.41788,0.89023
372.881,21.32679,-0.77647,0.40376,0.88846
376.481,21.4377,-0.77647,0.38866,0.8867
380.081,21.54877,-0.77778,0.38118,0.88494
383.681,21.66011,-0.7791,0.37717,0.88318
387.281,21.7714,-0.78037,0.37667,0.88141
390.881,21.88316,-0.77973,0.38498,0.87965
394.481,21.99492,-0.78238,0.39489,0.87788
398.081,22.1068,-0.78239,0.40398,0.87611
401.681,22.21868,-0.78233,0.39947,0.87434
405.281,22.33074,-0.78404,0.38656,0.87257
408.881,22.44304,-0.78173,0.36403,0.87079
412.481,22.55538,-0.78264,0.33601,0.86901
416.081,22.6678,-0.78437,0.29851,0.86723
419.681,22.7804,-0.78508,0.23381,0.86544
423.281,22.89313,-0.78701,0.17462,0.86365
426.881,23.0058,-0.78832,0.11764,0.86185
430.481,23.11842,-0.78745,0.05218896,0.86005
434.081,23.2316,-0.78731,-0.01325233,0.85825
437.681,23.3447,-0.7873,-0.07023905,0.85643
441.281,23.4579,-0.78876,-0.11512,0.85462
444.881,23.57079,-0.79007,-0.13394,0.85279
448.481,23.68449,-0.79106,-0.12584,0.85096
452.081,23.7982,-0.79106,-0.08429656,0.84913
455.681,23.912,-0.79106,-0.0186565,0.84728
459.281,24.02606,-0.79106,0.05289509,0.84543
462.881,24.14009,-0.79106,0.12606,0.84357
466.481,24.25439,-0.79271,0.19658,0.84171
470.081,24.36874,-0.79278,0.25428,0.83983
473.681,24.48329,-0.79282,0.3027,0.83795
477.281,24.5979,-0.79414,0.34228,0.83605
480.881,24.71251,-0.79545,0.37429,0.83415
484.481,24.8273,-0.79413,0.39744,0.83224
488.081,24.94196,-0.79413,0.41833,0.83032
491.681,25.0568,-0.79545,0.4293,0.82839
495.281,25.17175,-0.7954,0.4384,0.82645
498.881,25.28661,-0.79611,0.44313,0.82449
502.481,25.4018,-0.79569,0.44815,0.82253
506.081,25.51715,-0.79572,0.45317,0.82056
509.681,25.63255,-0.7983,0.45457,0.81857
513.281,25.74814,-0.7983,0.45378,0.81658
516.881,25.8639,-0.7983,0.44804,0.81457
520.481,25.97982,-0.79962,0.44985,0.81255
524.081,26.0956,-0.79889,0.45244,0.81052
527.681,26.21153,-0.79896,0.46754,0.80847
531.281,26.3276,-0.80041,0.48309,0.80641
534.881,26.44401,-0.80017,0.49283,0.80434
538.481,26.5603,-0.80016,0.49575,0.80226
542.081,26.67669,-0.80148,0.49273,0.80016
545.681,26.79314,-0.80148,0.48927,0.79805
549.281,26.90972,-0.80214,0.48602,0.79593
552.881,27.02655,-0.80279,0.48628,0.79379
556.481,27.1436,-0.80411,0.4863,0.79164
560.081,27.26046,-0.80411,0.48874,0.78948
563.681,27.3775,-0.80411,0.48632,0.7873
567.281,27.49462,-0.80438,0.48885,0.7851
570.881,27.6117,-0.79937,0.49233,0.78289
574.481,27.7289,-0.80203,0.49174,0.78067
578.081,27.846,-0.80361,0.49238,0.77843
581.681,27.96392,-0.8108,0.4901,0.77617
585.281,28.08158,-0.8085,0.48683,0.7739
588.881,28.1993,-0.80719,0.48092,0.77162
592.481,28.3171,-0.80719,0.47722,0.76932
596.081,28.4347,-0.80588,0.47103,0.767
599.681,28.5528,-0.80616,0.46674,0.76467
603.281,28.6708,-0.80714,0.46607,0.76232
606.881,28.7889,-0.80717,0.46817,0.75996
610.481,28.90721,-0.80819,0.46687,0.75758
614.081,29.02526,-0.8085,0.46363,0.75518
617.681,29.1438,-0.8085,0.45154,0.75277
621.281,29.2619,-0.8108,0.43412,0.75034
624.881,29.3804,-0.81212,0.41825,0.7479
628.481,29.4989,-0.81217,0.39646,0.74544
632.081,29.6174,-0.81344,0.3865,0.74296
635.681,29.7361,-0.81342,0.37699,0.74046
639.281,29.85472,-0.81475,0.36887,0.73795
642.881,29.9736,-0.81607,0.36893,0.73543
646.481,30.09252,-0.81739,0.3689,0.73288
650.081,30.21138,-0.8187,0.37287,0.73032
653.681,30.33019,-0.82135,0.384,0.72774
657.281,30.4492,-0.82265,0.39758,0.72515
660.881,30.568,-0.82298,0.41402,0.72253
664.481,30.687,-0.822,0.43454,0.71991
668.081,30.80592,-0.82868,0.45736,0.71726
671.681,30.9251,-0.83383,0.47726,0.7146
675.281,31.0443,-0.83645,0.49695,0.71192
678.881,31.16354,-0.84056,0.51494,0.70922
682.481,31.28293,-0.84449,0.53222,0.70651
686.081,31.4023,-0.84744,0.53947,0.70378
689.681,31.5219,-0.85134,0.53967,0.70103
693.281,31.6413,-0.85495,0.53565,0.69827
696.881,31.76084,-0.85959,0.52578,0.69549
700.481,31.8803,-0.86325,0.51143,0.69269
704.081,32.00013,-0.86664,0.49473,0.68988
707.681,32.11981,-0.86936,0.47045,0.68705
711.281,32.2395,-0.87394,0.41936,0.6842
714.881,32.35944,-0.87769,0.32705,0.68134
718.481,32.47903,-0.87902,0.21283,0.67846
722.081,32.59925,-0.88001,0.10569,0.67557
725.681,32.7192,-0.88372,0.03290807,0.67266
729.281,32.8393,-0.88441,-0.008188447,0.66973
732.881,32.9596,-0.88441,-0.0292089,0.66679
736.481,33.07963,-0.88408,-0.0415267,0.66383
740.081,33.19977,-0.88539,-0.05188828,0.66085
743.681,33.32,-0.8844,-0.05868944,0.65786
747.281,33.44038,-0.88671,-0.07218817,0.65486
750.881,33.56089,-0.8867,-0.07890625,0.65183
754.481,33.6812,-0.88637,-0.0841778,0.6488
758.081,33.8018,-0.8857,-0.08734362,0.64575
761.681,33.92216,-0.88572,-0.0898977,0.64268
765.281,34.0428,-0.88669,-0.09591026,0.6396
768.881,34.1634,-0.88809,-0.10377,0.6365
772.481,34.2841,-0.88784,-0.10759,0.63339
776.081,34.40477,-0.88808,-0.10885,0.63026
779.681,34.52545,-0.88703,-0.11292,0.62712
783.281,34.64609,-0.88703,-0.11769,0.62397
786.881,34.76695,-0.88835,-0.12379,0.6208
790.481,34.88769,-0.888,-0.12481,0.61762
794.081,35.00847,-0.88835,-0.12674,0.61442
797.681,35.1291,-0.88771,-0.13314,0.61121
801.281,35.25,-0.8878,-0.1313,0.60799
804.881,35.37113,-0.88769,-0.13627,0.60475
808.481,35.49197,-0.88901,-0.14266,0.6015
812.081,35.613,-0.88997,-0.14451,0.59824
815.681,35.7341,-0.88933,-0.14304,0.59497
819.281,35.85521,-0.89032,-0.14584,0.59168
822.881,35.97637,-0.89032,-0.14868,0.58839
826.481,36.0976,-0.88901,-0.14937,0.58508
830.081,36.21897,-0.89033,-0.15153,0.58175
833.681,36.34028,-0.88901,-0.15247,0.57842
837.281,36.46115,-0.89008,-0.14859,0.57508
840.881,36.5831,-0.88901,-0.1539,0.57172
844.481,36.7045,-0.88967,-0.15143,0.56836
848.081,36.82631,-0.89003,-0.15646,0.56498
851.681,36.94802,-0.89033,-0.15717,0.56159
855.281,37.06969,-0.89164,-0.15733,0.55819
858.881,37.19144,-0.89032,-0.15881,0.55479
862.481,37.31333,-0.89164,-0.15095,0.55137
866.081,37.43543,-0.89164,-0.14584,0.54795
869.681,37.55717,-0.89164,-0.14117,0.54451
873.281,37.6791,-0.89205,-0.13876,0.54107
876.881,37.80083,-0.89131,-0.13735,0.53761
880.481,37.9225,-0.89164,-0.13205,0.53415
884.081,38.04403,-0.89032,-0.13159,0.53069
887.681,38.16523,-0.89099,-0.12737,0.52721
891.281,38.28673,-0.8923,-0.13209,0.52372
892.581,38.33052,-0.89163,-0.13029,0.52246