Folder: fsri_materials_database/01_Data/LW_GypBoard_Gypsum_Core/STA/N2/30K_min (part 2)

File: Lw_Gypsum_Core_STA_N2_30KData_222802_R3.csv
##Temp./Â°C,Time/min,Mass loss(subtr.2)/mg,DSC(subtr.2)/(mW/mg),Sensit./(uV/mW)
48.788,10.00667,0.00044,0.0138423,1.0889
52.388,10.90996,0.0002139847,0.15514,1.08587
55.988,11.157,0.0008779191,0.25109,1.08286
59.588,11.34815,0.0003276485,0.32646,1.07987
63.188,11.51443,0.0009251111,0.38896,1.07691
66.788,11.66652,-0.001869258,0.4428,1.07397
70.388,11.81015,-0.002342518,0.48993,1.07105
73.988,11.94776,0.000840829,0.5361,1.06816
77.588,12.08163,-0.0004943196,0.5787,1.06528
81.188,12.21226,-0.000973581,0.62301,1.06243
84.788,12.34075,-0.002845995,0.66997,1.0596
88.388,12.46707,-0.005811456,0.72102,1.05679
91.988,12.59188,-0.00712518,0.77522,1.05401
95.588,12.71567,-0.009709477,0.84639,1.05125
99.188,12.83847,-0.01118715,0.93387,1.0485
102.788,12.9608,-0.01655887,1.05687,1.04578
106.388,13.08275,-0.02088248,1.2191,1.04309
109.988,13.20469,-0.02962396,1.40941,1.04041
113.588,13.32639,-0.0398046,1.61101,1.03775
117.188,13.4476,-0.05080566,1.86225,1.03512
120.788,13.56835,-0.06826264,2.55513,1.03251
124.388,13.68971,-0.09722728,3.54708,1.02992
127.988,13.81139,-0.14078,4.79063,1.02735
131.588,13.93365,-0.19752,6.27705,1.0248
135.188,14.05618,-0.26734,7.77726,1.02227
138.788,14.17845,-0.35027,8.81086,1.01976
142.388,14.29986,-0.42888,8.76249,1.01727
145.988,14.4191,-0.49267,7.48222,1.0148
149.588,14.5357,-0.54021,6.94216,1.01236
153.188,14.65083,-0.58747,7.0629,1.00993
156.788,14.7659,-0.63876,6.91089,1.00752
160.388,14.87994,-0.68244,5.64958,1.00513
163.988,14.99196,-0.70091,3.6155,1.00276
167.588,15.10185,-0.70719,2.36686,1.00041
171.188,15.2108,-0.69527,1.66146,0.99808
174.788,15.31991,-0.71439,1.25828,0.99576
178.388,15.4289,-0.71852,1.02849,0.99347
181.988,15.53786,-0.72119,0.89442,0.99119
185.588,15.64652,-0.71987,0.80788,0.98893
189.188,15.7555,-0.72118,0.75459,0.98668
192.788,15.86447,-0.72382,0.71593,0.98446
196.388,15.9735,-0.72329,0.686,0.98225
199.988,16.0824,-0.72776,0.66715,0.98006
203.588,16.1913,-0.72774,0.65166,0.97789
207.188,16.30033,-0.72777,0.63299,0.97573
210.788,16.4094,-0.72908,0.62575,0.97358
214.388,16.51825,-0.72908,0.61551,0.97146
217.988,16.62733,-0.72908,0.60556,0.96935
221.588,16.73615,-0.72908,0.59738,0.96725
225.188,16.84499,-0.72905,0.58815,0.96517
228.788,16.95365,-0.73041,0.57987,0.9631
232.388,17.06254,-0.73164,0.57499,0.96105
235.988,17.17124,-0.73306,0.56714,0.95901
239.588,17.28002,-0.73435,0.56156,0.95698
243.188,17.3886,-0.73572,0.55167,0.95497
246.788,17.49721,-0.73698,0.54824,0.95297
250.388,17.60595,-0.73945,0.53658,0.95098
253.988,17.7145,-0.73775,0.52849,0.94901
257.588,17.82297,-0.73775,0.51974,0.94705
261.188,17.9316,-0.73775,0.50865,0.9451
264.788,18.04025,-0.7384,0.5011,0.94316
268.388,18.14875,-0.7384,0.48911,0.94123
271.988,18.2575,-0.73972,0.47667,0.93931
275.588,18.36611,-0.74104,0.46546,0.9374
279.188,18.47478,-0.74312,0.45117,0.93551
282.788,18.58369,-0.74334,0.44228,0.93362
286.388,18.69246,-0.74466,0.42775,0.93174
289.988,18.8012,-0.74362,0.41421,0.92987
293.588,18.91007,-0.74367,0.40141,0.92801
297.188,19.019,-0.74466,0.39468,0.92616
300.788,19.12804,-0.74598,0.38374,0.92431
304.388,19.23706,-0.74729,0.37534,0.92247
307.988,19.34628,-0.74729,0.36362,0.92064
311.588,19.45554,-0.74744,0.35356,0.91882
315.188,19.56466,-0.74729,0.33792,0.917
318.788,19.67403,-0.74729,0.31943,0.91519
322.388,19.78327,-0.74755,0.29695,0.91339
325.988,19.8929,-0.74827,0.27364,0.91159
329.588,20.00251,-0.74959,0.24452,0.90979
333.188,20.1122,-0.75223,0.22032,0.908
336.788,20.222,-0.75493,0.19514,0.90622
340.388,20.3317,-0.75365,0.18405,0.90443
343.988,20.44189,-0.75497,0.17714,0.90265
347.588,20.55201,-0.75365,0.1722,0.90088
351.188,20.66222,-0.75497,0.17302,0.89911
354.788,20.77285,-0.75628,0.17457,0.89734
358.388,20.8837,-0.75869,0.17966,0.89557
361.988,20.99438,-0.75891,0.17502,0.8938
365.588,21.1052,-0.76155,0.16647,0.89204
369.188,21.21629,-0.76023,0.15702,0.89027
372.788,21.3274,-0.75892,0.1462,0.88851
376.388,21.43879,-0.75972,0.13886,0.88675
379.988,21.55005,-0.7602,0.13318,0.88498
383.588,21.66146,-0.76169,0.12849,0.88322
387.188,21.77286,-0.76418,0.13033,0.88146
390.788,21.88462,-0.76549,0.13676,0.87969
394.388,21.9965,-0.76418,0.14817,0.87792
397.988,22.10841,-0.76564,0.16094,0.87616
401.588,22.2202,-0.76824,0.16688,0.87438
405.188,22.3323,-0.76692,0.16025,0.87261
408.788,22.44465,-0.76792,0.13795,0.87084
412.388,22.5569,-0.76923,0.10522,0.86906
415.988,22.66925,-0.76788,0.06164663,0.86727
419.588,22.78162,-0.76791,0.005225922,0.86549
423.188,22.89421,-0.76791,-0.05979658,0.86369
426.788,23.00691,-0.76955,-0.12905,0.8619
430.388,23.11954,-0.77087,-0.20288,0.8601
433.988,23.23216,-0.77219,-0.27282,0.85829
437.588,23.34502,-0.76953,-0.3332,0.85648
441.188,23.4579,-0.77087,-0.3745,0.85466
444.788,23.57116,-0.77351,-0.39391,0.85284
448.388,23.6843,-0.77219,-0.39419,0.85101
451.988,23.79755,-0.77448,-0.3677,0.84917
455.588,23.91129,-0.77449,-0.31906,0.84733
459.188,24.0252,-0.77418,-0.2557,0.84548
462.788,24.13905,-0.77416,-0.18881,0.84362
466.388,24.25331,-0.77416,-0.12293,0.84175
469.988,24.36759,-0.77318,-0.06512325,0.83988
473.588,24.48201,-0.77449,-0.01306499,0.83799
477.188,24.59672,-0.77647,0.03537757,0.8361
480.788,24.7114,-0.77777,0.07516111,0.8342
484.388,24.82621,-0.77811,0.10642,0.83229
487.988,24.9412,-0.77703,0.13694,0.83037
491.588,25.05603,-0.77679,0.15106,0.82844
495.188,25.17116,-0.77811,0.16995,0.8265
498.788,25.2864,-0.77976,0.1765,0.82455
502.388,25.40165,-0.77976,0.18061,0.82258
505.988,25.51696,-0.77976,0.18655,0.82061
509.588,25.6324,-0.77878,0.18694,0.81862
513.188,25.74776,-0.77975,0.1842,0.81663
516.788,25.86342,-0.77975,0.18522,0.81462
520.388,25.979,-0.77975,0.18191,0.8126
523.988,26.09471,-0.78042,0.18637,0.81057
527.588,26.2107,-0.78173,0.19071,0.80852
531.188,26.3267,-0.78173,0.19613,0.80647
534.788,26.44277,-0.78272,0.19751,0.8044
538.388,26.5591,-0.78206,0.20046,0.80231
541.988,26.6756,-0.78272,0.20093,0.80022
545.588,26.79164,-0.78404,0.19846,0.79811
549.188,26.9084,-0.78272,0.19893,0.79599
552.788,27.02488,-0.7814,0.20104,0.79385
556.388,27.1416,-0.78305,0.20529,0.7917
559.988,27.25848,-0.78436,0.20679,0.78953
563.588,27.37538,-0.78436,0.21017,0.78735
567.188,27.49216,-0.78438,0.21639,0.78516
570.788,27.6094,-0.78436,0.22073,0.78295
574.388,27.7265,-0.78404,0.22667,0.78073
577.988,27.8439,-0.78448,0.23366,0.77849
581.588,27.96132,-0.78601,0.23988,0.77623
585.188,28.0788,-0.78601,0.24504,0.77396
588.788,28.19642,-0.78795,0.25375,0.77168
592.388,28.31405,-0.78798,0.26418,0.76938
595.988,28.43204,-0.78798,0.27355,0.76706
599.588,28.54993,-0.78798,0.28024,0.76473
603.188,28.668,-0.78803,0.29188,0.76238
606.788,28.78613,-0.78798,0.30515,0.76002
610.388,28.9042,-0.78798,0.32487,0.75764
613.988,29.0224,-0.78798,0.34872,0.75525
617.588,29.1408,-0.78963,0.37183,0.75283
621.188,29.2591,-0.78963,0.38901,0.75041
624.788,29.3775,-0.79095,0.40203,0.74796
628.388,29.496,-0.79324,0.4154,0.7455
631.988,29.61451,-0.79457,0.42115,0.74302
635.588,29.7332,-0.79457,0.43191,0.74053
639.188,29.8518,-0.79456,0.44832,0.73802
642.788,29.97049,-0.79589,0.46349,0.73549
646.388,30.0892,-0.79909,0.47895,0.73295
649.988,30.2081,-0.79904,0.50088,0.73039
653.588,30.32702,-0.79982,0.52352,0.72781
657.188,30.4458,-0.80114,0.54496,0.72521
660.788,30.5648,-0.80364,0.57915,0.7226
664.388,30.68372,-0.80494,0.60677,0.71997
667.988,30.8026,-0.8064,0.63447,0.71733
671.588,30.9216,-0.80903,0.67441,0.71467
675.188,31.04086,-0.81168,0.70399,0.71199
678.788,31.16,-0.81299,0.72934,0.70929
682.388,31.2794,-0.81727,0.7514,0.70658
685.988,31.39885,-0.82134,0.76679,0.70385
689.588,31.51805,-0.82525,0.78612,0.7011
693.188,31.6376,-0.82894,0.791,0.69834
696.788,31.75723,-0.83149,0.79463,0.69556
700.388,31.8768,-0.83521,0.79196,0.69277
703.988,31.99646,-0.83989,0.78494,0.68995
707.588,32.1162,-0.84358,0.77868,0.68712
711.188,32.2359,-0.84914,0.7693,0.68428
714.788,32.3558,-0.85109,0.75414,0.68142
718.388,32.47572,-0.85353,0.69852,0.67854
721.988,32.59568,-0.85748,0.60775,0.67564
725.588,32.71564,-0.8605,0.50055,0.67273
729.188,32.8357,-0.8618,0.41715,0.66981
732.788,32.95581,-0.86312,0.36864,0.66686
736.388,33.07595,-0.86296,0.34511,0.6639
739.988,33.19593,-0.86441,0.33924,0.66093
743.588,33.31609,-0.86575,0.32871,0.65794
747.188,33.43639,-0.8654,0.33396,0.65493
750.788,33.55657,-0.86439,0.33195,0.65191
754.388,33.6768,-0.86443,0.33631,0.64888
757.988,33.7971,-0.86443,0.33206,0.64582
761.588,33.91747,-0.86443,0.3385,0.64276
765.188,34.03801,-0.86574,0.34161,0.63968
768.788,34.1586,-0.86706,0.34278,0.63658
772.388,34.27916,-0.86575,0.34163,0.63347
775.988,34.3999,-0.86707,0.34158,0.63034
779.588,34.5203,-0.86575,0.34355,0.6272
783.188,34.64145,-0.86575,0.34184,0.62405
786.788,34.76255,-0.86706,0.34487,0.62088
790.388,34.88335,-0.86553,0.34566,0.6177
793.988,35.0042,-0.86816,0.34964,0.6145
797.588,35.12455,-0.86784,0.34682,0.61129
801.188,35.24575,-0.86711,0.34815,0.60807
804.788,35.3664,-0.86816,0.34951,0.60484
808.388,35.48721,-0.86713,0.35042,0.60159
811.988,35.60785,-0.86783,0.35077,0.59833
815.588,35.7286,-0.86948,0.35333,0.59505
819.188,35.8496,-0.86948,0.35506,0.59177
822.788,35.97045,-0.86848,0.36014,0.58847
826.388,36.0916,-0.8692,0.35816,0.58516
829.988,36.21257,-0.86685,0.36457,0.58184
833.588,36.33354,-0.86948,0.36669,0.57851
837.188,36.45483,-0.86851,0.36844,0.57516
840.788,36.57598,-0.87,0.37026,0.57181
844.388,36.69733,-0.87266,0.37764,0.56844
847.988,36.81865,-0.87448,0.38366,0.56507
851.588,36.9401,-0.87233,0.38794,0.56168
855.188,37.06131,-0.8697,0.38982,0.55828
858.788,37.1828,-0.87101,0.40194,0.55488
862.388,37.30417,-0.87238,0.40508,0.55146
865.988,37.4264,-0.8697,0.41729,0.54803
869.588,37.54806,-0.86838,0.42829,0.5446
873.188,37.66985,-0.86838,0.4417,0.54116
876.788,37.79144,-0.86838,0.45177,0.5377
880.388,37.9131,-0.86969,0.46201,0.53424
883.988,38.03471,-0.871,0.47798,0.53077
887.588,38.15647,-0.87135,0.48604,0.5273
891.188,38.27802,-0.87398,0.50323,0.52381
892.788,38.33185,-0.87398,0.50828,0.52226