Folder: fsri_materials_database/01_Data/LW_GypBoard_Gypsum_Core/STA/N2/3K_min

Note: 01_Data/README.md
# Materials and Products Database
## 01_Data

Raw data generated from each apparatus are included here in plain-text format. The data is organized first by material, next by the short name of test apparatus used, and where applicable additional filtering by test settings.

### material.json

Each material directory contains a json file of the same name as the material. This file links the data stored in the repository as well as data and graphs produced by the accompanying scripts (__02_Scripts__) to the respective landing page for the material on the front-end website.

File: Lw_Gypsum_Core_STA_N2_3KData_222802_R1.csv
##Temp./Â°C,Time/min,Mass loss(subtr.2)/mg,DSC(subtr.2)/(mW/mg),Sensit./(uV/mW)
50.099,10.01667,-0.03917,0.01303856,1.04802
53.899,12.54416,-0.04925752,0.06805008,1.04634
57.699,13.9535,-0.05415648,0.07606414,1.04467
61.499,15.29031,-0.05782565,0.08710272,1.04301
65.299,16.58494,-0.06297024,0.10089,1.04135
69.099,17.8724,-0.06859466,0.11157,1.0397
72.899,19.14639,-0.07711,0.13296,1.03806
76.699,20.42897,-0.08535,0.16269,1.03642
80.499,21.7046,-0.0975196,0.21727,1.03479
84.299,22.98012,-0.11561,0.28893,1.03317
88.099,24.25488,-0.14263,0.39252,1.03156
91.899,25.5361,-0.18128,0.53317,1.02995
95.699,26.81451,-0.2333,0.6907,1.02834
99.499,28.08623,-0.29951,0.85706,1.02675
103.299,29.35622,-0.38785,1.05742,1.02515
107.099,30.63686,-0.49479,1.24575,1.02357
110.899,31.90457,-0.60535,1.34725,1.02199
114.699,33.16738,-0.7152,1.24887,1.02041
118.499,34.371,-0.75959,0.26263,1.01884
122.299,35.58409,-0.7688,0.1324,1.01727
126.099,36.8125,-0.77406,0.10058,1.01571
129.899,38.05618,-0.77933,0.08688051,1.01415
133.699,39.30768,-0.78196,0.07957111,1.01259
137.499,40.55177,-0.78339,0.07819747,1.01104
141.299,41.79844,-0.787,0.07719277,1.00949
145.099,43.03914,-0.7881,0.07436354,1.00794
148.899,44.28255,-0.79095,0.07344178,1.0064
152.699,45.52687,-0.79384,0.07169246,1.00486
156.499,46.76832,-0.79487,0.07540438,1.00332
160.299,48.00966,-0.79556,0.07538646,1.00178
164.099,49.24818,-0.79655,0.07336326,1.00025
167.899,50.49221,-0.79688,0.07800339,0.99871
171.699,51.72691,-0.79986,0.07778482,0.99718
175.499,52.9642,-0.80042,0.07680996,0.99565
179.299,54.2033,-0.80344,0.07851197,0.99411
183.099,55.44604,-0.80116,0.07557359,0.99258
186.899,56.67931,-0.80351,0.07517832,0.99105
190.699,57.914,-0.80247,0.07396438,0.98952
194.499,59.16216,-0.80215,0.07030711,0.98799
198.299,60.40438,-0.80284,0.07111948,0.98645
202.099,61.6335,-0.80411,0.06705866,0.98492
205.899,62.8649,-0.8041,0.06908152,0.98338
209.699,64.09886,-0.80708,0.0642969,0.98184
213.499,65.3333,-0.80741,0.06737573,0.9803
217.299,66.56368,-0.80903,0.06512149,0.97876
221.099,67.80157,-0.81065,0.06548328,0.97721
224.899,69.03272,-0.81004,0.0652423,0.97567
228.699,70.2631,-0.81092,0.06160047,0.97411
232.499,71.49686,-0.81257,0.05850265,0.97256
236.299,72.73527,-0.81409,0.05880677,0.971
240.099,73.9744,-0.81508,0.05688267,0.96944
243.899,75.20387,-0.81736,0.0586834,0.96787
247.699,76.429,-0.81578,0.05341467,0.9663
251.499,77.6696,-0.81737,0.0540393,0.96472
255.299,78.90981,-0.81838,0.05045983,0.96314
259.099,80.14782,-0.82067,0.05190075,0.96155
262.899,81.37719,-0.82057,0.05159261,0.95996
266.699,82.60954,-0.82133,0.04849287,0.95836
270.499,83.84205,-0.81967,0.04643846,0.95675
274.299,85.0819,-0.81938,0.04553106,0.95514
278.099,86.32512,-0.82332,0.03992052,0.95352
281.899,87.55623,-0.82269,0.04303382,0.95189
285.699,88.78706,-0.82266,0.03923723,0.95025
289.499,90.02951,-0.82529,0.03682286,0.94861
293.299,91.2664,-0.82627,0.0337097,0.94696
297.099,92.49749,-0.8276,0.03428811,0.9453
300.899,93.73776,-0.82792,0.02553334,0.94363
304.699,94.97661,-0.83056,0.02371049,0.94195
308.499,96.21521,-0.83089,0.02245151,0.94027
312.299,97.4538,-0.83286,0.02373901,0.93857
316.099,98.68642,-0.83374,0.03106805,0.93686
319.899,99.92198,-0.83474,0.02694366,0.93515
323.699,101.165,-0.83596,0.02465457,0.93342
327.499,102.415,-0.83735,0.02486932,0.93168
331.299,103.654,-0.83741,0.01969257,0.92994
335.099,104.897,-0.83735,0.01806671,0.92818
338.899,106.1363,-0.83932,0.0205056,0.92641
342.699,107.379,-0.83998,0.01902037,0.92462
346.499,108.629,-0.84198,0.02254775,0.92283
350.299,109.872,-0.84197,0.02597631,0.92102
354.099,111.11,-0.84319,0.02661133,0.9192
357.899,112.3557,-0.84438,0.03010316,0.91737
361.699,113.6017,-0.84404,0.02587663,0.91553
365.499,114.854,-0.84536,0.02489693,0.91367
369.299,116.105,-0.84516,0.02087779,0.9118
373.099,117.3478,-0.84601,0.01696743,0.90991
376.899,118.593,-0.84734,0.008081867,0.90801
380.699,119.852,-0.84843,-0.00074067,0.9061
384.499,121.0983,-0.8471,-0.00639992,0.90417
388.299,122.342,-0.84955,-0.01358592,0.90223
392.099,123.592,-0.85026,-0.01837968,0.90027
395.899,124.842,-0.84974,-0.02481149,0.8983
399.699,126.093,-0.84916,-0.02531359,0.89631
403.499,127.353,-0.84899,-0.03019101,0.89431
407.299,128.599,-0.85008,-0.02805863,0.89229
411.099,129.847,-0.85073,-0.02168757,0.89026
414.899,131.106,-0.85107,-0.01596411,0.88821
418.699,132.355,-0.85206,-0.01153639,0.88615
422.499,133.61,-0.85468,-0.005455818,0.88406
426.299,134.861,-0.85337,0.00530651,0.88196
430.099,136.115,-0.85333,0.003750259,0.87985
433.899,137.3764,-0.85337,0.005609075,0.87772
437.699,138.63,-0.85304,0.00909667,0.87557
441.499,139.885,-0.85237,0.009064012,0.8734
445.299,141.1447,-0.85507,0.01023366,0.87122
449.099,142.408,-0.85534,0.009843717,0.86902
452.899,143.666,-0.85566,0.01403989,0.8668
456.699,144.924,-0.85434,0.01083945,0.86456
460.499,146.179,-0.85613,0.01205175,0.86231
464.299,147.448,-0.85863,0.009365967,0.86004
468.099,148.708,-0.85839,0.01214788,0.85775
471.899,149.963,-0.86062,0.01043774,0.85544
475.699,151.227,-0.86084,0.00842717,0.85311
479.499,152.492,-0.86082,0.00983274,0.85077
483.299,153.746,-0.85971,0.01136913,0.8484
487.099,155.01,-0.86286,0.00804363,0.84602
490.899,156.272,-0.86309,0.0053517,0.84362
494.699,157.54,-0.8628,0.007989985,0.8412
498.499,158.798,-0.86378,0.01272443,0.83876
502.299,160.065,-0.86392,0.0070363,0.8363
506.099,161.333,-0.8642,0.008025245,0.83382
509.899,162.5948,-0.86493,0.00763032,0.83133
513.699,163.856,-0.86369,0.00695248,0.82881
517.499,165.125,-0.86642,0.003348394,0.82627
521.299,166.386,-0.86676,0.0005418088,0.82372
525.099,167.659,-0.86608,0.001726523,0.82115
528.899,168.922,-0.86543,9.73968e-06,0.81855
532.699,170.1856,-0.86808,0.00295473,0.81594
536.499,171.462,-0.86849,0.001706993,0.81331
540.299,172.728,-0.86888,0.004095843,0.81066
544.099,173.999,-0.87113,0.001968013,0.80799
547.899,175.276,-0.87408,0.005837071,0.80529
551.699,176.542,-0.87569,0.004080994,0.80258
555.499,177.809,-0.8764,-0.001510485,0.79985
559.299,179.085,-0.87805,-2.852815e-05,0.79711
563.099,180.355,-0.88044,-0.0003343089,0.79434
566.899,181.625,-0.88172,0.003932156,0.79155
570.699,182.895,-0.88404,0.00812038,0.78874
574.499,184.169,-0.88603,0.006413691,0.78591
578.299,185.45,-0.88857,0.01623868,0.78307
582.099,186.72,-0.89184,0.018591,0.7802
585.899,187.994,-0.89535,0.02742895,0.77731
589.699,189.269,-0.89965,0.03034473,0.77441
593.499,190.547,-0.90364,0.03827025,0.77148
597.299,191.82,-0.90821,0.04178623,0.76854
601.099,193.095,-0.91426,0.0359685,0.76558
604.899,194.373,-0.9194,0.03841599,0.7626
608.699,195.65,-0.92433,0.03672752,0.7596
612.499,196.921,-0.92924,0.03474363,0.75658
616.299,198.196,-0.93322,0.03246438,0.75354
620.099,199.478,-0.93716,0.03214709,0.75048
623.899,200.753,-0.94112,0.02987044,0.74741
627.699,202.029,-0.94263,0.02897351,0.74431
631.499,203.308,-0.9462,0.02517979,0.7412
635.299,204.587,-0.95028,0.02154741,0.73807
639.099,205.87,-0.9509,0.01457665,0.73492
642.899,207.149,-0.95197,-6.382219e-06,0.73175
646.699,208.435,-0.95395,-0.009325643,0.72857
650.499,209.7069,-0.95369,-0.007989374,0.72536
654.299,210.987,-0.95245,-0.006687767,0.72214
658.099,212.271,-0.95263,-0.009562171,0.7189
661.899,213.5534,-0.95225,-0.006596396,0.71565
665.699,214.838,-0.95197,-0.009442697,0.71238
669.499,216.119,-0.95025,-0.007598518,0.70909
673.299,217.393,-0.94999,-0.004179701,0.70578
677.099,218.6793,-0.95066,-0.00497742,0.70246
680.899,219.967,-0.94967,-0.008234774,0.69911
684.699,221.245,-0.94835,-0.007899814,0.69576
688.499,222.529,-0.95098,-0.01436777,0.69238
692.299,223.811,-0.94869,-0.01290871,0.689
696.099,225.099,-0.9477,-0.01837063,0.68559
699.899,226.3784,-0.94835,-0.01689715,0.68217
703.699,227.66,-0.94828,-0.01912422,0.67873
707.499,228.944,-0.94915,-0.01791856,0.67528
711.299,230.231,-0.94802,-0.02162394,0.67182
715.099,231.515,-0.9477,-0.02610323,0.66833
718.899,232.8,-0.94803,-0.02457713,0.66484
722.699,234.092,-0.94656,-0.02726485,0.66133
726.499,235.3748,-0.94645,-0.02350805,0.6578
730.299,236.653,-0.9477,-0.02101531,0.65426
734.099,237.947,-0.94704,-0.02482162,0.65071
737.899,239.227,-0.9464,-0.02292534,0.64714
741.699,240.52,-0.94716,-0.02002557,0.64356
745.499,241.803,-0.94539,-0.02309168,0.63997
749.299,243.078,-0.94409,-0.01895286,0.63637
753.099,244.3718,-0.94441,-0.01757861,0.63275
756.899,245.662,-0.94441,-0.01262748,0.62912
760.699,246.945,-0.94257,-0.01207949,0.62548
764.499,248.229,-0.94309,-0.01405904,0.62182
768.299,249.513,-0.94346,-0.01120419,0.61816
772.099,250.804,-0.94441,-0.01364038,0.61448
775.899,252.092,-0.94386,-0.00621983,0.61079
779.699,253.373,-0.94287,-0.00558351,0.60709
783.499,254.661,-0.94353,-0.006037224,0.60338
787.299,255.949,-0.94348,-0.00808401,0.59966
791.099,257.234,-0.94353,-0.01107457,0.59593
794.899,258.521,-0.94499,-0.01031125,0.59219
798.699,259.809,-0.94454,-0.007660462,0.58844
802.499,261.0929,-0.94385,-0.00922399,0.58469
806.299,262.387,-0.9435,-0.000450985,0.58092
810.099,263.673,-0.94401,-8.21682e-06,0.57714
813.899,264.9598,-0.9455,-0.0004367123,0.57336
817.699,266.252,-0.94316,-0.00431623,0.56957
821.499,267.5435,-0.94208,-0.00124394,0.56577
825.299,268.826,-0.944,-0.00152293,0.56196
829.099,270.115,-0.94584,-0.002617921,0.55815
832.899,271.4,-0.94518,-0.00308206,0.55433
836.699,272.694,-0.94492,0.00160492,0.5505
840.499,273.987,-0.94484,0.0007067009,0.54667
844.299,275.28,-0.94386,0.00028046,0.54283
848.099,276.565,-0.94484,-0.007461808,0.53899
851.899,277.865,-0.94254,-0.006681724,0.53514
855.699,279.155,-0.94255,-0.00691417,0.53128
859.499,280.441,-0.94363,-0.00373243,0.52742
863.299,281.726,-0.94419,-0.003505797,0.52356
867.099,283.0235,-0.94316,-2.589839e-06,0.51969
870.899,284.308,-0.94552,-0.001775088,0.51582
874.699,285.599,-0.94418,-0.006104795,0.51195
878.499,286.895,-0.94386,-0.001939497,0.50807
882.299,288.185,-0.94353,-0.001822515,0.50419
886.099,289.469,-0.9432,0.006308411,0.50031
889.899,290.771,-0.93302,0.006159491,0.49642
893.699,292.061,-0.94053,0.01255107,0.49253
897.399,293.316,-0.94485,0.007125473,0.48875