Folder: fsri_materials_database/01_Data/PC/STA/N2/10K_min (part 2)

File: PC_STA_N2_10KData_211709_R3.csv
##Temp./Â°C,Time/min,DSC(subtr.2)/mW,Mass loss(subtr.2)/mg,DTG(subtr.2)/(mg/min),Sensit./(uV/mW)
49.778,10.01,-0.002946155,-0.03544,-0.01010374,1.03584
53.078,12.56819,0.25381,-0.04212977,0.02530066,1.03567
56.378,13.36054,0.35933,-0.04197177,-0.006687236,1.03544
59.678,14.00963,0.43706,-0.04566526,0.03006819,1.03517
62.978,14.5735,0.49702,-0.04567522,-0.04128539,1.03485
66.278,15.08656,0.55441,-0.04723976,-0.004576826,1.03449
69.578,15.56206,0.60034,-0.04908897,0.02410867,1.03408
72.878,16.00924,0.65678,-0.0487914,-0.02535922,1.03362
76.178,16.4346,0.7038,-0.04933251,-0.01247293,1.03312
79.478,16.84275,0.73297,-0.05106693,-0.01613719,1.03258
82.778,17.23406,0.75837,-0.05420228,-0.009419686,1.03199
86.078,17.61519,0.78343,-0.05314761,-0.009868107,1.03135
89.378,17.9858,0.80297,-0.05249535,0.00601291,1.03067
92.678,18.34621,0.83024,-0.05591337,-0.01258869,1.02995
95.978,18.70058,0.86633,-0.05588055,-0.005444592,1.02918
99.278,19.0477,0.88567,-0.05485521,0.01254459,1.02838
102.578,19.3884,0.9097,-0.05743859,0.02219733,1.02753
105.878,19.7244,0.92954,-0.05731945,-0.009470207,1.02663
109.178,20.06008,0.9617,-0.05715003,0.005852129,1.0257
112.478,20.38973,0.96104,-0.05847002,0.00176854,1.02473
115.778,20.7174,0.98804,-0.05830653,-0.00367006,1.02371
119.078,21.04196,1.00547,-0.05843257,-0.01933829,1.02266
122.378,21.36354,1.02928,-0.05976008,0.003513977,1.02156
125.678,21.68069,1.05062,-0.06099001,-1.154985e-05,1.02043
128.978,21.99651,1.07023,-0.06099967,0.01177937,1.01925
132.278,22.31,1.0859,-0.0611,-0.009295757,1.01804
135.578,22.62134,1.10047,-0.06351091,0.00462115,1.01679
138.878,22.93143,1.12925,-0.06230004,0.0002139016,1.0155
142.178,23.2388,1.14363,-0.06363758,-0.01521522,1.01417
145.478,23.5442,1.16653,-0.06460724,-0.01911079,1.01281
148.778,23.84841,1.25596,-0.06724335,-0.00925764,1.01141
152.078,24.15126,1.36456,-0.06712852,0.003866255,1.00998
155.378,24.45397,1.37208,-0.06713048,0.000827106,1.0085
158.678,24.75604,1.37329,-0.06692,-1.267576e-07,1.007
161.978,25.05735,1.38121,-0.06834827,-0.01925928,1.00546
165.278,25.3583,1.40064,-0.06981139,-0.03763486,1.00388
168.578,25.65782,1.4116,-0.06818681,-0.01586993,1.00227
171.878,25.95776,1.41987,-0.06956035,-0.003139673,1.00063
175.178,26.2568,1.42677,-0.06964489,0.01997274,0.99896
178.478,26.5546,1.4422,-0.06933333,0.006191895,0.99725
181.778,26.8528,1.45554,-0.071964,0.00578381,0.99551
185.078,27.14899,1.45606,-0.07021168,-0.009828735,0.99374
188.378,27.4446,1.4857,-0.06938881,0.01789527,0.99193
191.678,27.7405,1.48304,-0.07064153,-0.01694782,0.9901
194.978,28.03528,1.50466,-0.07183767,-0.01231425,0.98824
198.278,28.3296,1.52315,-0.07184959,0.005068035,0.98634
201.578,28.6242,1.53644,-0.07184102,0.006030796,0.98442
204.878,28.9188,1.54714,-0.07184996,0.0001642236,0.98247
208.178,29.21381,1.54413,-0.0711891,-0.003742964,0.98049
211.478,29.5083,1.56539,-0.07226258,-0.0457541,0.97849
214.778,29.8029,1.57325,-0.07236746,-0.0220759,0.97645
218.078,30.0974,1.57257,-0.07156885,-0.02427434,0.97439
221.378,30.39262,1.57128,-0.07403705,-0.01432213,0.9723
224.678,30.6874,1.60128,-0.07370262,0.00874496,0.97019
227.978,30.98305,1.60117,-0.07372346,0.01401116,0.96805
231.278,31.2783,1.61095,-0.0749936,-0.02475869,0.96589
234.578,31.57392,1.63275,-0.07469345,0.02167883,0.9637
237.878,31.8694,1.63256,-0.07369309,-0.02331668,0.96149
241.178,32.16469,1.64943,-0.07569341,0.006199884,0.95925
244.478,32.45997,1.65663,-0.07634,2.58627e-09,0.95699
247.778,32.75606,1.66102,-0.07767148,0.01137689,0.95471
251.078,33.05192,1.67034,-0.0764025,-0.00661309,0.95241
254.378,33.34825,1.68724,-0.07865027,0.0009031537,0.95008
257.678,33.6445,1.68373,-0.07667997,5.109617e-06,0.94773
260.978,33.9409,1.69644,-0.07700717,-0.01162219,0.94537
264.278,34.2378,1.68893,-0.07667,-4.644807e-08,0.94298
267.578,34.53447,1.70018,-0.07995622,-0.01218993,0.94057
270.878,34.83116,1.71189,-0.07950507,0.02974624,0.93815
274.178,35.12854,1.71164,-0.07811018,0.001141448,0.9357
277.478,35.42535,1.72539,-0.08066448,0.02298303,0.93324
280.778,35.72359,1.71946,-0.0791464,0.03477764,0.93076
284.078,36.0222,1.72652,-0.08205904,-0.01726778,0.92826
287.378,36.32162,1.74,-0.08126051,0.00478972,0.92575
290.678,36.6208,1.7325,-0.07942332,0.01807227,0.92322
293.978,36.92027,1.7279,-0.08007924,-0.0122018,0.92067
297.278,37.2207,1.74665,-0.08281273,-0.01279262,0.91811
300.578,37.52003,1.7658,-0.07207071,-0.21007,0.91553
303.878,37.82038,1.73545,-0.07437702,-0.07426624,0.91294
307.178,38.1209,1.7582,-0.08004149,0.008970423,0.91033
310.478,38.42095,1.79427,-0.08884557,0.01152484,0.90771
313.778,38.72206,1.81772,-0.0929116,0.1104,0.90508
317.078,39.02337,1.80411,-0.08217552,0.0201655,0.90243
320.378,39.32504,1.80585,-0.08260029,-0.001545815,0.89978
323.678,39.6265,1.80837,-0.0835582,-0.02287077,0.89711
326.978,39.92861,1.81647,-0.08359013,-0.003647159,0.89443
330.278,40.2301,1.81814,-0.08359003,-0.00181764,0.89173
333.578,40.53352,1.82721,-0.08360968,-0.01604272,0.88903
336.878,40.836,1.82605,-0.08254567,0.03191036,0.88632
340.178,41.13906,1.82632,-0.08587739,-0.004253171,0.8836
343.478,41.44276,1.835,-0.08622001,-2.819955e-06,0.88087
346.778,41.74668,1.83001,-0.08622,-1.45776e-07,0.87813
350.078,42.05146,1.84074,-0.08618592,0.02122588,0.87538
353.378,42.35658,1.85871,-0.08756541,-0.01526025,0.87263
356.678,42.66195,1.86388,-0.08874003,-6.018455e-06,0.86986
359.978,42.9681,1.86255,-0.08743,-8.906464e-09,0.8671
363.278,43.2744,1.87164,-0.08417118,-0.20108,0.86432
366.578,43.58075,1.87849,-0.08751999,0.02182661,0.86154
369.878,43.88794,1.87503,-0.08949427,-0.009509317,0.85875
373.178,44.1954,1.8757,-0.08883779,0.01480744,0.85596
376.478,44.50332,1.88469,-0.09148,-1.96498e-06,0.85316
379.778,44.81128,1.89648,-0.0928,-1.081862e-10,0.85036
383.078,45.11979,1.89561,-0.0957595,-0.009967658,0.84755
386.378,45.42909,1.91185,-0.09311373,-0.01256576,0.84475
389.678,45.73802,1.92546,-0.09148,6.27028e-07,0.84193
392.978,46.04846,1.92346,-0.09376872,-0.04365192,0.83912
396.278,46.35797,1.93133,-0.09573216,0.02321022,0.8363
399.578,46.66875,1.93137,-0.09765317,0.01145028,0.83348
402.878,46.98019,1.93765,-0.09993001,-2.962275e-05,0.83066
406.178,47.29144,1.93776,-0.10105,-0.04500787,0.82784
409.478,47.60304,1.9441,-0.0993995,-0.172,0.82501
412.778,47.91411,1.95215,-0.10528,0.02878277,0.82219
416.078,48.2263,1.94993,-0.10683,-0.0117378,0.81937
419.378,48.53903,1.96016,-0.10838,0.008146781,0.81654
422.678,48.85191,1.93369,-0.11141,0.02707237,0.81372
425.978,49.16498,1.92145,-0.11366,-0.01457624,0.8109
429.278,49.4782,1.90771,-0.11781,-0.0060506,0.80808
432.578,49.79153,1.86184,-0.12077,-0.000352104,0.80526
435.878,50.10481,1.81203,-0.1271,-0.008570686,0.80245
439.178,50.41904,1.79794,-0.13638,-0.03030985,0.79963
442.478,50.7344,1.76861,-0.14707,-0.02197009,0.79682
445.778,51.0496,1.7392,-0.16034,-0.06576547,0.79401
449.078,51.36515,1.71123,-0.17742,-0.04116565,0.79121
452.378,51.68166,1.70099,-0.20252,-0.08968702,0.78841
455.678,51.99816,1.71463,-0.23259,-0.1012,0.78561
458.978,52.3144,1.62756,-0.26242,-0.11739,0.78282
462.278,52.6306,1.63886,-0.30735,-0.12544,0.78003
465.578,52.9482,1.73541,-0.36023,-0.16259,0.77725
468.878,53.2653,1.83624,-0.42458,-0.23559,0.77447
472.178,53.5827,2.01657,-0.50116,-0.2775,0.7717
475.478,53.90101,2.20439,-0.59239,-0.32926,0.76893
478.778,54.21878,2.39238,-0.70084,-0.36145,0.76617
482.078,54.5369,2.43652,-0.81955,-0.3887,0.76342
485.378,54.8565,2.81143,-0.95363,-0.49366,0.76068
488.678,55.1761,2.60112,-1.11068,-0.44386,0.75794
491.978,55.49451,2.45501,-1.25688,-0.46219,0.75521
495.278,55.8138,2.38939,-1.41606,-0.48862,0.75248
498.578,56.13476,2.59441,-1.59169,-0.59432,0.74977
501.878,56.4555,2.62722,-1.78458,-0.61336,0.74706
505.178,56.77573,2.51251,-1.98099,-0.61952,0.74436
508.478,57.09636,2.38842,-2.18098,-0.60393,0.74167
511.778,57.41796,2.17406,-2.36971,-0.58372,0.73899
515.078,57.73981,1.78024,-2.53859,-0.49676,0.73631
518.378,58.06105,1.33693,-2.67184,-0.38084,0.73365
521.678,58.3826,0.97184,-2.76916,-0.22151,0.731
524.978,58.70476,0.72354,-2.83864,-0.19022,0.72835
528.278,59.02686,0.57348,-2.88194,-0.11126,0.72572
531.578,59.35023,0.48649,-2.91425,-0.06444013,0.7231
534.878,59.6731,0.44982,-2.93767,-0.05959519,0.72048
538.178,59.99601,0.42545,-2.9557,-0.0768085,0.71788
541.478,60.3191,0.40683,-2.96914,-0.0488875,0.71529
544.778,60.6424,0.40098,-2.97948,-0.03942045,0.71271
548.078,60.966,0.39902,-2.99115,-0.01346962,0.71014
551.378,61.29025,0.42245,-2.99806,-0.0257814,0.70758
554.678,61.61416,0.41884,-3.00938,-0.02596442,0.70504
557.978,61.93929,0.35904,-3.01648,-0.01952448,0.7025
561.278,62.2648,0.33225,-3.02373,-0.02933445,0.69998
564.578,62.5908,0.31515,-3.03195,-0.00825368,0.69747
567.878,62.9163,0.32744,-3.03962,-0.00267527,0.69498
571.178,63.2423,0.31837,-3.04501,-0.002817052,0.69249
574.478,63.5686,0.30081,-3.05235,-0.01549703,0.69002
577.778,63.89459,0.33138,-3.05859,-0.02381186,0.68756
581.078,64.22012,0.33855,-3.06343,-0.01216029,0.68512
584.378,64.54649,0.34409,-3.06814,-0.01019608,0.68268
587.678,64.87365,0.35392,-3.07769,-0.02505647,0.68026
590.978,65.20062,0.37178,-3.08174,-0.039821,0.67786
594.278,65.5275,0.39249,-3.08569,-0.003267725,0.67547
597.578,65.85501,0.38508,-3.09131,0.00915692,0.67309
600.878,66.1822,0.38502,-3.09541,-0.02435644,0.67072
604.178,66.50921,0.44968,-3.10052,-0.0257227,0.66837
607.478,66.83659,0.45993,-3.10544,6.6051e-05,0.66603
610.778,67.16494,0.47293,-3.10721,-0.02481243,0.66371
614.078,67.49337,0.50676,-3.11213,-0.03631284,0.6614
617.378,67.82185,0.52868,-3.11364,0.01241922,0.65911
620.678,68.15083,0.54341,-3.12068,0.01739944,0.65683
623.978,68.48037,0.53602,-3.12386,-0.0008835944,0.65456
627.278,68.81035,0.52008,-3.12598,-0.008835775,0.65231
630.578,69.1401,0.45184,-3.12924,6.954686e-08,0.65007
633.878,69.46991,0.45579,-3.13331,0.009228257,0.64785
637.178,69.79873,0.46052,-3.13457,-0.0244014,0.64564
639.178,69.99897,0.441,-3.13738,-0.05868929,0.64431