Folder: fsri_materials_database/01_Data/PC/STA/N2/10K_min

Note: 01_Data/README.md
# Materials and Products Database
## 01_Data

Raw data generated from each apparatus are included here in plain-text format. The data is organized first by material, next by the short name of test apparatus used, and where applicable additional filtering by test settings.

### material.json

Each material directory contains a json file of the same name as the material. This file links the data stored in the repository as well as data and graphs produced by the accompanying scripts (__02_Scripts__) to the respective landing page for the material on the front-end website.

File: PC_STA_N2_10KData_211609_R1.csv
##Temp./Â°C,Time/min,DSC(subtr.2)/mW,Mass loss(subtr.2)/mg,DTG(subtr.2)/(mg/min),Sensit./(uV/mW)
49.381,10.01,0.29608,-0.04969,-0.00632783,1.03586
52.681,12.55557,0.54681,-0.05403569,-0.02250732,1.03569
55.981,13.35765,0.66441,-0.05516823,0.00100862,1.03547
59.281,14.00075,0.7516,-0.05661449,-0.0201949,1.03521
62.581,14.56669,0.81154,-0.05802541,-0.005719359,1.03489
65.881,15.07952,0.88006,-0.05800434,-0.01081815,1.03454
69.181,15.5556,0.92433,-0.05836282,0.008407681,1.03413
72.481,16.00381,0.97435,-0.05854131,0.003088555,1.03368
75.781,16.4302,1.01765,-0.06054779,-0.008243534,1.03318
79.081,16.8384,1.05776,-0.06043171,-0.00233358,1.03264
82.381,17.2328,1.07677,-0.05926489,0.01770122,1.03206
85.681,17.61392,1.09757,-0.06048838,-0.0041176,1.03143
88.981,17.9838,1.11621,-0.0618387,-0.01341498,1.03076
92.281,18.344,1.14794,-0.06200507,-0.009811019,1.03004
95.581,18.69688,1.16893,-0.06197972,0.000133949,1.02928
98.881,19.04306,1.19587,-0.06197353,-0.003046217,1.02848
102.181,19.38429,1.22662,-0.06148059,0.27278,1.02763
105.481,19.72128,1.23416,-0.06450919,-0.02982626,1.02674
108.781,20.05405,1.27155,-0.0641433,0.01307648,1.02582
112.081,20.38416,1.29239,-0.06450222,-0.003996734,1.02485
115.381,20.7123,1.31902,-0.06402837,-0.01108471,1.02384
118.681,21.03454,1.33149,-0.06244936,-0.01294688,1.02279
121.981,21.35776,1.35428,-0.05692921,0.03162165,1.02169
125.281,21.67611,1.37357,-0.06121,-4.508466e-07,1.02056
128.581,21.9921,1.39329,-0.06293412,-0.02703424,1.01939
131.881,22.30454,1.40794,-0.0622077,-0.0032219,1.01819
135.181,22.6153,1.42506,-0.06357061,0.0178659,1.01694
138.481,22.92366,1.43856,-0.06215222,0.02630256,1.01566
141.781,23.2298,1.47069,-0.06460347,-0.02258242,1.01434
145.081,23.5347,1.51471,-0.06329013,0.00190882,1.01298
148.381,23.83863,1.58606,-0.06231579,0.00975854,1.01158
151.681,24.14131,1.70211,-0.06165046,-0.002103003,1.01015
154.981,24.44313,1.70671,-0.06310268,0.01781648,1.00868
158.281,24.74409,1.70825,-0.0632761,-0.01298873,1.00718
161.581,25.0439,1.71328,-0.0645993,0.01183825,1.00564
164.881,25.34358,1.73198,-0.06328729,-0.00563611,1.00407
168.181,25.643,1.73783,-0.06495403,-0.004719351,1.00247
171.481,25.94118,1.74866,-0.06427959,0.00207356,1.00083
174.781,26.2393,1.77238,-0.06331402,0.01690163,0.99916
178.081,26.53674,1.77672,-0.06341364,0.006754972,0.99745
181.381,26.83365,1.78277,-0.06338949,0.01092795,0.99572
184.681,27.1295,1.78174,-0.06404285,-0.01949934,0.99395
187.981,27.4243,1.79831,-0.06298905,0.01833826,0.99215
191.281,27.71995,1.8143,-0.06372995,-0.004617766,0.99032
194.581,28.01407,1.8221,-0.06321486,-0.00380957,0.98846
197.881,28.30842,1.84188,-0.06207925,0.005393908,0.98657
201.181,28.6024,1.84592,-0.06391703,-0.02732306,0.98465
204.481,28.89606,1.85427,-0.06469369,0.01360897,0.98271
207.781,29.19025,1.85852,-0.06242733,-0.02251783,0.98073
211.081,29.4847,1.86588,-0.0637282,-0.003241525,0.97873
214.381,29.77883,1.8778,-0.0624469,0.02223647,0.9767
217.681,30.07289,1.88491,-0.06376029,0.01569185,0.97464
220.981,30.36709,1.89027,-0.06263013,-0.0002276173,0.97255
224.281,30.6609,1.90535,-0.06296991,-0.0006085614,0.97044
227.581,30.95617,1.91233,-0.06395,1.149454e-06,0.96831
230.881,31.2503,1.91809,-0.0639441,-0.006689485,0.96615
234.181,31.545,1.91903,-0.06395006,-4.917241e-05,0.96396
237.481,31.8403,1.93223,-0.06326147,0.00712733,0.96175
240.781,32.1362,1.92865,-0.06358393,-0.005918687,0.95952
244.081,32.43249,1.93439,-0.06175121,-0.02444929,0.95726
247.381,32.7288,1.94402,-0.06328436,0.00493081,0.95499
250.681,33.02492,1.94101,-0.06327247,0.008106113,0.95268
253.981,33.32168,1.94916,-0.06132442,0.009607854,0.95036
257.281,33.61844,1.96084,-0.0632899,0.0001274735,0.94802
260.581,33.91483,1.9692,-0.06263014,-0.000135552,0.94565
263.881,34.21072,1.97323,-0.06141999,1.054798e-06,0.94327
267.181,34.5075,1.97595,-0.06176,1.99888e-08,0.94086
270.481,34.80396,1.9801,-0.06123624,0.02387128,0.93844
273.781,35.10111,1.97644,-0.06274,6.765777e-07,0.936
277.081,35.39855,1.98081,-0.0622144,0.02494627,0.93354
280.381,35.69596,1.9794,-0.06142634,0.003312527,0.93106
283.681,35.9937,1.97613,-0.06238806,-0.02140332,0.92856
286.981,36.29166,1.97735,-0.06208014,0.00369357,0.92605
290.281,36.5894,1.991,-0.06010051,0.01826703,0.92352
293.581,36.88767,1.98527,-0.06008638,0.01780127,0.92098
296.881,37.18651,1.97731,-0.06088935,-0.02668973,0.91842
300.181,37.4861,1.97191,-0.0601095,-0.001092759,0.91584
303.481,37.78565,1.97744,-0.06191939,0.0117199,0.91325
306.781,38.08593,1.98062,-0.06164,2.89156e-16,0.91065
310.081,38.38609,1.97829,-0.06296172,-0.00342511,0.90803
313.381,38.6867,1.98951,-0.06174758,0.01645154,0.9054
316.681,38.98755,1.97659,-0.06176009,-0.000202751,0.90275
319.981,39.2892,1.9857,-0.06241005,-0.000356731,0.9001
323.281,39.59149,1.99572,-0.06129883,0.01551029,0.89743
326.581,39.8938,1.99534,-0.06130624,0.00703086,0.89475
329.881,40.19481,1.99972,-0.06164,1.49533e-11,0.89206
333.181,40.49714,1.99893,-0.06133267,0.01650004,0.88936
336.481,40.79916,1.99852,-0.06044198,0.01018277,0.88665
339.781,41.10275,1.9873,-0.06208237,0.01109463,0.88393
343.081,41.40746,1.99825,-0.06209,-3.842664e-07,0.8812
346.381,41.71116,1.99721,-0.06286466,0.02492529,0.87846
349.681,42.0142,1.99729,-0.06334311,0.01904591,0.87571
352.981,42.3197,1.99384,-0.0633,1.39454e-07,0.87296
356.281,42.62442,1.99495,-0.06197398,-0.007353929,0.8702
359.581,42.9294,2.0064,-0.0633,6.78427e-16,0.86743
362.881,43.23486,2.00651,-0.06361939,-0.003213257,0.86465
366.181,43.54054,2.01087,-0.06362,-6.116639e-05,0.86187
369.481,43.84572,2.003,-0.06495154,0.01201014,0.85909
372.781,44.15266,1.99821,-0.06493996,5.23197e-05,0.8563
376.081,44.4593,2.01223,-0.06616224,0.01875983,0.8535
379.381,44.76667,2.01815,-0.06603,9.715264e-10,0.8507
382.681,45.07462,2.01382,-0.06750667,-0.21758,0.84789
385.981,45.38308,2.01051,-0.06658003,-2.68544e-05,0.84508
389.281,45.69113,2.0195,-0.06788042,0.008791036,0.84227
392.581,46.0005,2.01962,-0.06723987,-0.001968571,0.83946
395.881,46.30995,2.02528,-0.06855941,0.009916002,0.83664
399.181,46.62032,2.02789,-0.07185,1.43928e-08,0.83382
402.481,46.93087,2.04473,-0.07367791,-0.02489121,0.831
405.781,47.24149,2.04923,-0.07053909,0.01474625,0.82818
409.081,47.55107,2.04634,-0.07447733,-0.01263131,0.82535
412.381,47.863,2.05107,-0.07436999,4.719893e-07,0.82253
415.681,48.1759,2.0511,-0.07604049,-0.01785449,0.81971
418.981,48.48731,2.01583,-0.07689001,-8.10323e-05,0.81688
422.281,48.79967,2.01388,-0.07953001,-0.0002639323,0.81406
425.581,49.11286,1.99945,-0.08080608,-0.02551996,0.81124
428.881,49.42583,1.97953,-0.07866263,-0.10403,0.80842
432.181,49.7389,1.97656,-0.08755123,-0.01437004,0.8056
435.481,50.05271,1.95456,-0.08873987,-0.00658092,0.80278
438.781,50.3661,1.93922,-0.09497967,-0.02574622,0.79997
442.081,50.67866,1.92518,-0.10012,0.12707,0.79716
445.381,50.99262,1.91283,-0.10668,-0.07273599,0.79435
448.681,51.30652,1.87576,-0.11917,-0.01943014,0.79155
451.981,51.62158,1.87133,-0.13392,-0.04889346,0.78874
455.281,51.93701,1.84505,-0.15087,-0.06892358,0.78595
458.581,52.25274,1.85997,-0.17433,-0.08357108,0.78315
461.881,52.56898,1.78774,-0.20402,-0.08662605,0.78037
465.181,52.8857,1.83583,-0.2382,-0.15561,0.77758
468.481,53.20251,1.90436,-0.27719,-0.16627,0.7748
471.781,53.52044,1.9204,-0.32399,-0.16393,0.77203
475.081,53.83941,1.99755,-0.38691,-0.19454,0.76927
478.381,54.1584,2.1191,-0.46342,-0.23524,0.76651
481.681,54.47752,2.31336,-0.5472,-0.31283,0.76375
484.981,54.7969,2.64891,-0.64967,-0.35452,0.76101
488.281,55.116,2.38706,-0.76782,-0.3552,0.75827
491.581,55.43512,2.3851,-0.88146,-0.42671,0.75553
494.881,55.7554,2.85303,-1.02793,-0.51345,0.75281
498.181,56.0752,2.56163,-1.18877,-0.50088,0.75009
501.481,56.3944,2.70684,-1.35771,-0.57823,0.74738
504.781,56.7138,2.70709,-1.55086,-0.59263,0.74468
508.081,57.03513,2.55105,-1.75101,-0.64354,0.74199
511.381,57.3578,2.47974,-1.96336,-0.62618,0.73931
514.681,57.67957,2.3357,-2.17587,-0.6286,0.73663
517.981,58.0015,2.00582,-2.3744,-0.58127,0.73397
521.281,58.32238,1.56819,-2.54065,-0.44597,0.73131
524.581,58.64424,1.13589,-2.66778,-0.34021,0.72867
527.881,58.96605,0.81852,-2.74972,-0.22666,0.72604
531.181,59.28824,0.6409,-2.80606,-0.16019,0.72341
534.481,59.61165,0.51772,-2.84167,-0.11729,0.7208
537.781,59.9338,0.46381,-2.8677,-0.08070516,0.71819
541.081,60.257,0.40988,-2.88696,-0.08107066,0.7156
544.381,60.5804,0.40641,-2.89947,-0.0252373,0.71302
547.681,60.9046,0.40808,-2.91575,-0.02481457,0.71045
550.981,61.22919,0.39989,-2.9209,0.15159,0.70789
554.281,61.5536,0.38289,-2.93333,-0.02663447,0.70534
557.581,61.87837,0.37122,-2.943,-0.00733397,0.70281
560.881,62.20364,0.37337,-2.95187,-0.01635873,0.70029
564.181,62.52915,0.37307,-2.95849,0.12286,0.69777
567.481,62.8552,0.36147,-2.96665,-0.02452112,0.69528
570.781,63.1807,0.36233,-2.97381,-0.03044927,0.69279
574.081,63.5065,0.3576,-2.98193,-0.03653062,0.69032
577.381,63.83161,0.35229,-2.98864,0.01289865,0.68786
580.681,64.15725,0.37563,-2.99241,-0.04766273,0.68541
583.981,64.48346,0.37791,-2.99927,-0.01848228,0.68297
587.281,64.80983,0.3676,-3.00802,-0.0266194,0.68055
590.581,65.137,0.38155,-3.01069,-0.03507558,0.67815
593.881,65.46391,0.38553,-3.01681,-0.03393507,0.67575
597.181,65.79029,0.41347,-3.02339,0.007376525,0.67337
600.481,66.1181,0.46615,-3.02712,-0.00109568,0.67101
603.781,66.44706,0.47751,-3.03253,-0.034051,0.66865
607.081,66.77542,0.48834,-3.03618,-0.02364641,0.66631
610.381,67.1046,0.4764,-3.0405,-0.02584705,0.66399
613.681,67.43401,0.48759,-3.0446,-0.008975208,0.66168
616.981,67.76468,0.47541,-3.04745,-0.01478729,0.65938
620.281,68.0947,0.46446,-3.05124,-0.01348717,0.6571
623.581,68.42433,0.43583,-3.05519,-0.01487937,0.65483
626.881,68.7538,0.41425,-3.05697,-0.009803163,0.65258
630.181,69.08349,0.40736,-3.05958,-0.00966981,0.65034
633.481,69.4135,0.4128,-3.06222,0.005664813,0.64812
636.781,69.7444,0.45887,-3.06485,0.0005315246,0.64591
639.281,69.99579,0.47649,-3.06523,-0.008178535,0.64424

File: PC_STA_N2_10KData_211609_R2.csv
##Temp./Â°C,Time/min,DSC(subtr.2)/mW,Mass loss(subtr.2)/mg,DTG(subtr.2)/(mg/min),Sensit./(uV/mW)
49.845,10.00917,-0.00589233,-0.06778,0.0,1.03584
53.145,12.58881,0.26832,-0.06800258,-0.00258019,1.03566
56.445,13.38544,0.37644,-0.06864094,-0.0005880386,1.03544
59.745,14.0284,0.45256,-0.07068424,-0.0007620727,1.03517
63.045,14.5932,0.50864,-0.06953245,-0.001569311,1.03485
66.345,15.1056,0.57028,-0.07119623,-0.001621475,1.03448
69.645,15.5792,0.6161,-0.07116448,-0.0005929352,1.03407
72.945,16.02696,0.66955,-0.07200558,0.00134143,1.03361
76.245,16.45222,0.71337,-0.07051581,-0.001428117,1.03311
79.545,16.85973,0.74795,-0.07095254,-0.00121684,1.03256
82.845,17.25296,0.7748,-0.07264762,0.000342808,1.03197
86.145,17.63334,0.7931,-0.07118858,0.00134158,1.03134
89.445,18.0027,0.81094,-0.07135264,-0.0005564665,1.03066
92.745,18.36285,0.84192,-0.07105267,-0.0009099928,1.02993
96.045,18.71629,0.87232,-0.07265359,-0.003808706,1.02917
99.345,19.06268,0.89323,-0.07491014,-0.0007798028,1.02836
102.645,19.4038,0.90548,-0.07345176,-0.001021253,1.02751
105.945,19.74074,0.93225,-0.07315046,7.906307e-05,1.02662
109.245,20.07455,0.95288,-0.07456493,-0.00122695,1.02568
112.545,20.40471,0.97934,-0.07487639,-0.00273913,1.02471
115.845,20.73239,0.99149,-0.07630752,-0.002401287,1.02369
119.145,21.05728,1.02694,-0.07940954,-0.001306735,1.02263
122.445,21.3786,1.02854,-0.07720976,-0.001136074,1.02154
125.745,21.69697,1.04544,-0.07665349,0.0003417593,1.0204
129.045,22.01309,1.06765,-0.07577651,-0.0002670611,1.01923
132.345,22.32624,1.08718,-0.07721228,-0.00108559,1.01801
135.645,22.63726,1.11464,-0.077207,0.0001482966,1.01676
138.945,22.94634,1.1304,-0.07741433,-0.001494963,1.01547
142.245,23.25364,1.15367,-0.07885674,-0.00149394,1.01415
145.545,23.55895,1.19078,-0.07820196,-0.00139359,1.01278
148.845,23.86303,1.26654,-0.07921764,0.000638355,1.01138
152.145,24.16566,1.38131,-0.07786631,0.000170417,1.00995
155.445,24.46771,1.38594,-0.07945894,-0.0005859162,1.00847
158.745,24.7687,1.37986,-0.07786947,0.001425306,1.00697
162.045,25.06929,1.40232,-0.07918623,0.001421861,1.00543
165.345,25.3695,1.41621,-0.07655035,0.00138416,1.00385
168.645,25.6694,1.41895,-0.07654986,-0.001327254,1.00224
171.945,25.96884,1.44405,-0.07822768,-0.00130981,1.0006
175.245,26.2671,1.43911,-0.07743001,-0.0007222128,0.99892
178.545,26.5654,1.45603,-0.07797709,0.001040886,0.99721
181.845,26.86147,1.46449,-0.07754019,-0.00242531,0.99547
185.145,27.1596,1.47749,-0.07896654,-0.0003267854,0.9937
188.445,27.45523,1.49381,-0.0775399,0.00204134,0.9919
191.745,27.75099,1.49745,-0.07754007,-0.00235422,0.99006
195.045,28.0457,1.50671,-0.08015411,-0.002679348,0.9882
198.345,28.3402,1.52193,-0.07778255,0.000581178,0.98631
201.645,28.6351,1.52914,-0.07983707,-0.000882157,0.98438
204.945,28.92956,1.53831,-0.07984,-0.0006985688,0.98243
208.245,29.22349,1.56385,-0.08078113,0.0003463349,0.98045
211.545,29.51745,1.56948,-0.08049554,-0.0005511445,0.97844
214.845,29.81287,1.57401,-0.07862996,-0.0003893156,0.97641
218.145,30.10843,1.58821,-0.08099794,-0.002198968,0.97435
221.445,30.4032,1.58299,-0.07866202,-0.002401104,0.97226
224.745,30.698,1.60287,-0.08194151,-0.000835475,0.97015
228.045,30.9925,1.60456,-0.08060979,0.002448327,0.96801
231.345,31.28782,1.61633,-0.08084113,-0.001078021,0.96584
234.645,31.583,1.63157,-0.08040892,-0.00130883,0.96365
237.945,31.878,1.63307,-0.08036563,-0.001459265,0.96144
241.245,32.17369,1.65151,-0.08433402,-0.002237077,0.9592
244.545,32.46928,1.66722,-0.08204241,-0.0005094961,0.95694
247.845,32.76534,1.66663,-0.08323851,-0.0015998,0.95466
251.145,33.06126,1.66427,-0.08346295,0.0003413217,0.95236
254.445,33.35752,1.6688,-0.08214968,0.000404528,0.95003
257.745,33.65356,1.6773,-0.08413033,-0.00197372,0.94769
261.045,33.9505,1.68844,-0.08302826,-0.0008795195,0.94532
264.345,34.247,1.67839,-0.08350371,2.423e-08,0.94293
267.645,34.54422,1.68499,-0.08460928,-0.002847113,0.94053
270.945,34.841,1.68525,-0.08391467,-0.0002033681,0.9381
274.245,35.1379,1.69495,-0.08487758,6.428136e-05,0.93565
277.545,35.43566,1.70587,-0.08390142,-0.0007800858,0.93319
280.845,35.73375,1.70547,-0.09209114,-0.0006352637,0.93071
284.145,36.0317,1.71182,-0.0852766,-0.00160866,0.92821
287.445,36.33018,1.71547,-0.09091985,-0.00109645,0.9257
290.745,36.6287,1.70444,-0.08487968,0.00157635,0.92316
294.045,36.92776,1.71151,-0.08456118,0.000527209,0.92062
297.345,37.2271,1.72155,-0.08588,-0.002121404,0.91805
300.645,37.52678,1.7368,-0.08783801,-0.00176088,0.91548
303.945,37.82614,1.73444,-0.08599461,0.000642297,0.91288
307.245,38.1259,1.748,-0.08597057,-6.952342e-05,0.91028
310.545,38.42569,1.74406,-0.08566824,-0.001286201,0.90766
313.845,38.7257,1.75148,-0.08697131,-0.0009543502,0.90503
317.145,39.02718,1.7565,-0.08698702,-0.000673345,0.90238
320.445,39.32799,1.77845,-0.08841928,-0.001517524,0.89972
323.745,39.62935,1.78439,-0.08697995,-0.001544322,0.89705
327.045,39.93085,1.79144,-0.08927,-0.002993527,0.89437
330.345,40.23279,1.78461,-0.08930825,-0.0003487901,0.89168
333.645,40.53518,1.78189,-0.08616694,-0.00156004,0.88898
336.945,40.83699,1.80633,-0.08994021,-0.00351338,0.88627
340.245,41.14007,1.80382,-0.0922464,-0.002055664,0.88354
343.545,41.4434,1.82505,-0.09092013,0.001868453,0.88081
346.845,41.74719,1.80417,-0.08960999,-0.0008633914,0.87807
350.145,42.05202,1.82385,-0.09092008,-0.004876936,0.87533
353.445,42.35672,1.81323,-0.09366,-0.001393889,0.87257
356.745,42.66169,1.82047,-0.09221705,-0.0008696829,0.86981
360.045,42.96695,1.81216,-0.0943088,-0.00249919,0.86704
363.345,43.27279,1.83488,-0.09387701,-0.004854385,0.86426
366.645,43.57858,1.82784,-0.09616946,-0.00283723,0.86148
369.945,43.88494,1.85633,-0.09586111,-0.0008287984,0.85869
373.245,44.19165,1.84775,-0.0954944,-0.001697218,0.8559
376.545,44.49972,1.85502,-0.09787606,-0.001113751,0.8531
379.845,44.8084,1.86212,-0.0974942,-0.001623364,0.8503
383.145,45.1169,1.86738,-0.09869572,-0.002255596,0.8475
386.445,45.42618,1.88387,-0.09870214,-0.002515406,0.84469
389.745,45.73525,1.87632,-0.0983807,-0.002265171,0.84188
393.045,46.04416,1.88527,-0.10177,-3.60438e-05,0.83906
396.345,46.35367,1.89103,-0.10024,0.000431318,0.83624
399.645,46.66375,1.89683,-0.09891664,-0.0047253,0.83342
402.945,46.9737,1.91191,-0.10287,-0.01299528,0.8306
406.245,47.2845,1.93356,-0.10995,-0.01013277,0.82778
409.545,47.59561,1.9248,-0.11053,-0.00755533,0.82496
412.845,47.90675,1.92688,-0.11176,-0.004716597,0.82213
416.145,48.218,1.94602,-0.11318,-0.00537504,0.81931
419.445,48.53093,1.92747,-0.11534,-0.004481418,0.81649
422.745,48.8442,1.92442,-0.1167,-0.006633391,0.81366
426.045,49.15764,1.90982,-0.11944,-0.00860689,0.81084
429.345,49.47125,1.90881,-0.11754,-0.01018488,0.80802
432.645,49.78587,1.89552,-0.12646,-0.01579455,0.8052
435.945,50.10095,1.87636,-0.12854,-0.01728433,0.80239
439.245,50.41527,1.83592,-0.13853,-0.02608819,0.79957
442.545,50.73049,1.81766,-0.14578,-0.03055655,0.79676
445.845,51.04493,1.79471,-0.15703,-0.04215656,0.79396
449.145,51.35988,1.77558,-0.17196,-0.05822928,0.79115
452.445,51.67432,1.74489,-0.19385,-0.0733583,0.78835
455.745,51.9895,1.73819,-0.21885,-0.08624945,0.78555
459.045,52.30534,1.72231,-0.24685,-0.11088,0.78276
462.345,52.62149,1.75054,-0.28821,-0.13779,0.77997
465.645,52.93781,1.79771,-0.33469,-0.16086,0.77719
468.945,53.2545,1.86765,-0.38997,-0.19487,0.77441
472.245,53.57192,2.00964,-0.45793,-0.23191,0.77164
475.545,53.88994,2.12594,-0.53764,-0.27243,0.76888
478.845,54.20879,2.34289,-0.63117,-0.31626,0.76612
482.145,54.52763,2.43004,-0.73839,-0.35047,0.76337
485.445,54.84691,2.32642,-0.85428,-0.37897,0.76062
488.745,55.16499,2.48182,-0.98003,-0.42229,0.75788
492.045,55.4854,2.51113,-1.12595,-0.46574,0.75515
495.345,55.80602,2.59029,-1.27675,-0.5125,0.75243
498.645,56.12666,2.71272,-1.45338,-0.56214,0.74971
501.945,56.4478,2.66581,-1.64163,-0.59823,0.747
505.245,56.7683,2.68799,-1.83946,-0.62174,0.7443
508.545,57.0902,2.5902,-2.04894,-0.62583,0.74161
511.845,57.41208,2.40001,-2.23975,-0.59354,0.73893
515.145,57.73389,2.04583,-2.42043,-0.52589,0.73626
518.445,58.05511,1.6303,-2.58201,-0.42395,0.7336
521.745,58.3767,1.20633,-2.69906,-0.31033,0.73094
525.045,58.69933,0.88718,-2.77989,-0.2148,0.7283
528.345,59.0216,0.68523,-2.83517,-0.14308,0.72567
531.645,59.34485,0.56862,-2.87324,-0.09834147,0.72304
534.945,59.66718,0.48416,-2.90056,-0.07842298,0.72043
538.245,59.98986,0.44314,-2.92101,-0.05598263,0.71783
541.545,60.31228,0.43312,-2.93665,-0.0417942,0.71524
544.845,60.63522,0.40445,-2.94925,-0.03707116,0.71266
548.145,60.9586,0.41,-2.95942,-0.03436798,0.71009
551.445,61.2809,0.38576,-2.968,-0.02650919,0.70753
554.745,61.60614,0.3984,-2.97712,-0.02582878,0.70499
558.045,61.931,0.40962,-2.98543,-0.02435316,0.70245
561.345,62.25589,0.37761,-2.99391,-0.02174808,0.69993
564.645,62.5809,0.3732,-2.99869,-0.02426584,0.69742
567.945,62.9061,0.36928,-3.00804,-0.02317041,0.69493
571.245,63.2309,0.37761,-3.01436,-0.02190949,0.69244
574.545,63.55529,0.40096,-3.02348,-0.01963645,0.68997
577.845,63.88074,0.39673,-3.02928,-0.01979826,0.68751
581.145,64.20705,0.41488,-3.0349,-0.01847232,0.68507
584.445,64.53366,0.41604,-3.04041,-0.01730132,0.68263
587.745,64.86059,0.43864,-3.04527,-0.02121041,0.68021
591.045,65.1874,0.43694,-3.05395,-0.01397855,0.67781
594.345,65.51388,0.45333,-3.05522,-0.01555838,0.67542
597.645,65.84055,0.4565,-3.06111,-0.01787326,0.67304
600.945,66.1687,0.4845,-3.06857,-0.01303127,0.67067
604.245,66.49745,0.49048,-3.06977,-0.008689094,0.66832
607.545,66.82641,0.51147,-3.07401,-0.01399956,0.66599
610.845,67.15471,0.52538,-3.08024,-0.01353649,0.66366
614.145,67.4833,0.51874,-3.08321,-0.009300107,0.66135
617.445,67.81169,0.50882,-3.08989,-0.01068587,0.65906
620.745,68.13896,0.47736,-3.09258,-0.009794449,0.65678
624.045,68.46973,0.47319,-3.09305,-0.00693633,0.65451
627.345,68.8004,0.49707,-3.09489,-0.009812339,0.65226
630.645,69.1309,0.55391,-3.09874,-0.01157276,0.65003
633.945,69.4606,0.56028,-3.10147,-0.008025107,0.64781
637.245,69.78925,0.59085,-3.10015,-0.002594185,0.6456
639.245,69.9902,0.59821,-3.10477,-0.000479305,0.64427