Folder: fsri_materials_database/01_Data/PC/STA/N2/30K_min (part 2)

File: PC_STA_N2_30KData_211809_R3.csv
##Temp./Â°C,Time/min,DSC(subtr.2)/mW,Mass loss(subtr.2)/mg,DTG(subtr.2)/(mg/min),Sensit./(uV/mW)
48.944,10.00917,0.01013394,0.00285,-0.03930366,1.054
52.144,11.6426,0.42903,0.0004852443,0.001166243,1.05405
55.344,12.02871,0.69668,0.003213453,-0.005162765,1.05406
58.544,12.31664,0.90351,0.0007416839,-0.000870575,1.05401
61.744,12.55987,1.04586,0.00392247,0.00381299,1.05392
64.944,12.77928,1.19104,0.002517315,-0.00708778,1.05378
68.144,12.98365,1.29975,0.00225959,0.003574612,1.05358
71.344,13.17658,1.39054,0.001309114,-0.00259799,1.05334
74.544,13.36084,1.49446,0.00211035,-0.001268937,1.05305
77.744,13.53755,1.5909,-0.0001647241,0.002440704,1.05271
80.944,13.7073,1.68654,0.0006899769,0.0003301979,1.05233
84.144,13.8704,1.75955,0.001790361,-0.002771182,1.05189
87.344,14.0275,1.81001,0.0004826435,0.00068108,1.05141
90.544,14.1786,1.853,0.001280249,-0.002058298,1.05088
93.744,14.3246,1.93352,0.0002777164,-0.00167947,1.05031
96.944,14.46613,2.00696,0.001649061,0.00244466,1.04969
100.144,14.6033,2.08374,0.0007759839,-0.001089952,1.04902
103.344,14.73691,2.16787,0.000857264,0.001998145,1.04831
106.544,14.86745,2.24994,0.002153557,0.001873846,1.04756
109.744,14.9953,2.32342,0.0004934491,-0.000532785,1.04676
112.944,15.12084,2.40857,0.0005671363,-0.0002630998,1.04591
116.144,15.2444,2.47957,0.001738223,0.00225343,1.04502
119.344,15.3653,2.54521,0.001828421,0.000895571,1.04409
122.544,15.48409,2.61035,0.0004632535,-0.002749734,1.04312
125.744,15.60094,2.67994,0.0009233345,-0.0001237689,1.0421
128.944,15.7159,2.74581,0.001932876,0.00142851,1.04104
132.144,15.82901,2.80753,0.001759757,-0.002833359,1.03994
135.344,15.9405,2.86841,0.0004310082,0.004310561,1.0388
138.544,16.05069,2.9421,0.00313256,0.004065363,1.03762
141.744,16.15925,3.01535,0.001864327,-0.002052211,1.03639
144.944,16.26657,3.0981,0.000327945,-0.001515239,1.03513
148.144,16.3727,3.22928,0.001952301,0.0006636542,1.03383
151.344,16.4775,3.41695,0.001753223,0.0004882123,1.03249
154.544,16.58135,3.62189,0.00171931,0.0004260342,1.03111
157.744,16.68486,3.71907,0.001681248,-0.00102665,1.02969
160.944,16.78695,3.80111,0.00176033,-0.0010087,1.02823
164.144,16.88839,3.87249,0.00176118,0.003180621,1.02674
167.344,16.98876,3.95369,0.002097811,0.003254265,1.02521
170.544,17.08851,4.00772,0.00308015,-0.00107945,1.02365
173.744,17.1876,4.06206,0.002541849,-0.004644335,1.02204
176.944,17.2857,4.11489,0.00051832,0.000673576,1.02041
180.144,17.38287,4.18742,0.003080431,0.00144258,1.01873
183.344,17.47963,4.23343,0.001869929,-0.002871329,1.01703
186.544,17.57535,4.2824,0.0007852703,0.001919114,1.01529
189.744,17.6706,4.35132,0.002192085,0.00740774,1.01351
192.944,17.76483,4.40267,0.003329007,0.003022511,1.01171
196.144,17.85923,4.45591,0.003190005,-0.004944564,1.00987
199.344,17.9527,4.5014,0.001758655,-0.006410147,1.008
202.544,18.0458,4.55778,0.00176,-0.00304994,1.00609
205.744,18.13824,4.60418,0.001760016,-0.002437141,1.00416
208.944,18.23072,4.63956,0.000450196,0.0001831021,1.00219
212.144,18.32275,4.692,0.00175999,-0.0004192243,1.0002
215.344,18.4142,4.73389,0.001693782,-0.002546245,0.99818
218.544,18.5053,4.76993,0.001094592,0.00311557,0.99612
221.744,18.59633,4.81379,0.001778871,0.006153325,0.99404
224.944,18.68702,4.8692,0.002410011,0.00039782,0.99193
228.144,18.77713,4.91912,0.002408539,-0.008562304,0.9898
231.344,18.86733,4.96086,-0.0002126209,-0.00685718,0.98763
234.544,18.9571,5.00187,0.001139652,0.00221352,0.98544
237.744,19.0465,5.05501,0.001853256,0.002677324,0.98323
240.944,19.136,5.08846,0.001617095,0.002564059,0.98099
244.144,19.22494,5.1387,0.001755638,0.00143673,0.97872
247.344,19.31387,5.17183,0.00141181,0.004001275,0.97643
250.544,19.40261,5.20885,0.00239118,0.004805407,0.97411
253.744,19.49117,5.26059,0.00242,0.00157943,0.97178
256.944,19.57957,5.29038,0.00242,0.000118517,0.96942
260.144,19.6677,5.32701,0.00242,-0.0002603265,0.96703
263.344,19.75575,5.34205,0.002420041,-0.0003014824,0.96463
266.544,19.8436,5.3654,0.002108407,0.002060396,0.9622
269.744,19.93132,5.39255,0.002432144,0.004840124,0.95975
272.944,20.01921,5.41791,0.0034,0.001687607,0.95728
276.144,20.10669,5.45221,0.00340046,-0.003183058,0.9548
279.344,20.19421,5.47114,0.00208967,0.000253618,0.95229
282.544,20.28173,5.50253,0.003398307,0.003668128,0.94976
285.744,20.36904,5.52211,0.0034,-0.001211305,0.94722
288.944,20.4564,5.55027,0.003375705,-0.007211826,0.94466
292.144,20.54384,5.56941,0.002077481,-0.004403084,0.94208
295.344,20.6311,5.59187,0.002128998,0.00400133,0.93948
298.544,20.7183,5.6149,0.0034,-0.0018237,0.93687
301.744,20.80556,5.63404,0.000706263,-0.01023432,0.93424
304.944,20.89271,5.64829,0.000780001,-0.00437782,0.9316
308.144,20.97994,5.6697,0.0007799328,0.002150781,0.92894
311.344,21.06706,5.69202,0.002089067,-0.001171386,0.92627
314.544,21.15417,5.70052,-0.0003069839,-0.004802622,0.92359
317.744,21.24132,5.7182,0.0007762684,4.1523e-05,0.92089
320.944,21.32845,5.73799,0.00078,0.001435919,0.91818
324.144,21.4157,5.76138,0.000780004,0.001277332,0.91545
327.344,21.50287,5.76001,0.001145337,0.00158259,0.91272
330.544,21.59006,5.77826,0.00111,0.0008580558,0.90997
333.744,21.67737,5.79316,0.00111,0.0008466355,0.90721
336.944,21.7648,5.7961,0.001110009,0.002608795,0.90444
340.144,21.85233,5.81006,0.002288032,0.0003361414,0.90166
343.344,21.93994,5.82206,0.001115132,-0.007232501,0.89888
346.544,22.0276,5.83927,0.0001205775,-0.00772221,0.89608
349.744,22.11542,5.83752,-0.000211911,-0.004207168,0.89328
352.944,22.2032,5.8563,-0.0005753767,-0.002366675,0.89046
356.144,22.29111,5.85831,-0.000540068,-0.0021424,0.88764
359.344,22.37914,5.87197,-0.0002080804,-0.003914826,0.88482
362.544,22.4674,5.89115,-0.001199996,-0.004618844,0.88198
365.744,22.5556,5.91504,-0.001313755,-0.00287972,0.87914
368.944,22.64416,5.90719,-0.001179929,0.0002952581,0.8763
372.144,22.73236,5.9089,-0.001529996,-0.001546165,0.87345
375.344,22.82114,5.92098,-0.001530685,-0.006043408,0.87059
378.544,22.9104,5.92893,-0.002849922,-0.00682764,0.86773
381.744,22.99928,5.96325,-0.002849929,-0.006730809,0.86487
384.944,23.0882,5.96165,-0.004170015,-0.005292585,0.86201
388.144,23.1772,5.97047,-0.004157836,-0.00334849,0.85914
391.344,23.26661,5.96864,-0.00417729,-0.00514478,0.85626
394.544,23.3563,5.98878,-0.00482929,-0.00623292,0.85339
397.744,23.44625,5.98295,-0.00646718,-0.00177215,0.85052
400.944,23.53608,5.9952,-0.005150084,-0.0007883701,0.84764
404.144,23.6263,6.00577,-0.005125458,-0.00937827,0.84476
407.344,23.7164,6.01151,-0.007122427,-0.01436316,0.84188
410.544,23.80654,6.02468,-0.00844001,-0.01135924,0.839
413.744,23.89677,6.0341,-0.00921961,-0.01125431,0.83613
416.944,23.98761,6.04667,-0.01103175,-0.009805504,0.83325
420.144,24.07838,6.05628,-0.01047487,-0.008441322,0.83038
423.344,24.16945,6.06532,-0.0125002,-0.0108499,0.8275
426.544,24.26056,6.072,-0.01250368,-0.00734695,0.82463
429.744,24.35189,6.07778,-0.01380889,-0.001580691,0.82176
432.944,24.44339,6.06689,-0.01250168,-0.00698257,0.81889
436.144,24.53491,6.06348,-0.01435538,-0.01821813,0.81603
439.344,24.62688,6.05359,-0.01647851,-0.01802842,0.81317
442.544,24.719,6.04939,-0.01787019,-0.01574266,0.81031
445.744,24.81115,6.02187,-0.01928344,-0.02037219,0.80746
448.944,24.90361,5.99155,-0.02198143,-0.02539877,0.80462
452.144,24.99619,5.95088,-0.02325987,-0.03108698,0.80177
455.344,25.08897,5.89134,-0.02742001,-0.03191322,0.79894
458.544,25.182,5.85313,-0.02936555,-0.03933602,0.7961
461.744,25.27512,5.78623,-0.0330899,-0.05705922,0.79328
464.944,25.36845,5.70962,-0.04168602,-0.07565632,0.79046
468.144,25.46197,5.6332,-0.04731905,-0.08824867,0.78765
471.344,25.55551,5.54235,-0.05726175,-0.11378,0.78484
474.544,25.64924,5.44363,-0.06898494,-0.14354,0.78204
477.744,25.74309,5.3405,-0.08382711,-0.17842,0.77925
480.944,25.83709,5.223,-0.10261,-0.21448,0.77647
484.144,25.93136,5.12115,-0.12332,-0.26107,0.7737
487.344,26.0259,5.07416,-0.15106,-0.32135,0.77093
490.544,26.12024,5.05027,-0.18427,-0.38904,0.76817
493.744,26.215,5.1577,-0.22319,-0.48334,0.76542
496.944,26.30994,5.49912,-0.275,-0.61184,0.76269
500.144,26.40505,5.97306,-0.33903,-0.7636,0.75996
503.344,26.50057,6.46358,-0.41974,-0.92092,0.75724
506.544,26.5961,6.9064,-0.51673,-1.0693,0.75453
509.744,26.6918,7.15764,-0.62445,-1.18346,0.75183
512.944,26.7876,7.22009,-0.74525,-1.28614,0.74914
516.144,26.8837,7.3214,-0.87055,-1.40139,0.74646
519.344,26.9799,7.26422,-1.01204,-1.51025,0.7438
522.544,27.0763,7.26529,-1.16202,-1.61896,0.74114
525.744,27.1729,7.24018,-1.32278,-1.75559,0.7385
528.944,27.26959,7.35188,-1.50328,-1.89628,0.73587
532.144,27.3666,7.33322,-1.69159,-1.99424,0.73325
535.344,27.46371,6.96165,-1.89175,-2.01278,0.73064
538.544,27.5608,6.38163,-2.08678,-1.94488,0.72805
541.744,27.65825,5.62131,-2.27237,-1.78234,0.72547
544.944,27.75586,4.6373,-2.44106,-1.51865,0.7229
548.144,27.85343,3.58326,-2.57135,-1.19392,0.72034
551.344,27.9511,2.6348,-2.67357,-0.87693,0.7178
554.544,28.04905,1.93227,-2.74207,-0.61201,0.71527
557.744,28.147,1.50145,-2.78802,-0.41802,0.71276
560.944,28.24553,1.25128,-2.82233,-0.28886,0.71026
564.144,28.34398,1.14526,-2.84292,-0.21015,0.70777
567.344,28.44251,1.08714,-2.86197,-0.16446,0.70529
570.544,28.541,1.05435,-2.87547,-0.13017,0.70284
573.744,28.6397,1.02925,-2.887,-0.10779,0.70039
576.944,28.7387,0.98992,-2.89618,-0.09727478,0.69796
580.144,28.8377,0.98395,-2.9065,-0.09025148,0.69555
583.344,28.93692,0.94962,-2.91543,-0.08450816,0.69315
586.544,29.0363,0.95601,-2.92264,-0.07648121,0.69076
589.744,29.13581,0.91068,-2.93065,-0.07117873,0.68839
592.944,29.23522,0.89762,-2.93654,-0.07072612,0.68603
596.144,29.33488,0.89089,-2.94446,-0.07076837,0.6837
599.344,29.4345,0.88828,-2.95051,-0.06493316,0.68137
602.544,29.53449,0.87082,-2.95785,-0.05808547,0.67906
605.744,29.6346,0.88622,-2.9624,-0.05763626,0.67677
608.944,29.7347,0.90218,-2.96822,-0.05960133,0.67449
612.144,29.83509,0.91654,-2.97536,-0.05684767,0.67223
615.344,29.9356,0.936,-2.97951,-0.04572312,0.66998
617.344,29.99839,0.93047,-2.9829,-0.02545121,0.66859