Folder: fsri_materials_database/01_Data/PC/STA/N2/30K_min

Note: 01_Data/README.md
# Materials and Products Database
## 01_Data

Raw data generated from each apparatus are included here in plain-text format. The data is organized first by material, next by the short name of test apparatus used, and where applicable additional filtering by test settings.

### material.json

Each material directory contains a json file of the same name as the material. This file links the data stored in the repository as well as data and graphs produced by the accompanying scripts (__02_Scripts__) to the respective landing page for the material on the front-end website.

File: PC_STA_N2_30KData_211709_R1.csv
##Temp./Â°C,Time/min,DSC(subtr.2)/mW,Mass loss(subtr.2)/mg,DTG(subtr.2)/(mg/min),Sensit./(uV/mW)
49.383,10.01,0.10713,-0.02973,0.01310461,1.05401
52.583,11.65294,0.54551,-0.03289979,0.00751387,1.05406
55.783,12.0377,0.83917,-0.03566674,0.01591922,1.05406
58.983,12.323,1.02242,-0.0352886,-0.02293781,1.054
62.183,12.5657,1.18,-0.03616358,0.01352796,1.0539
65.383,12.7852,1.31439,-0.03455049,0.02719438,1.05375
68.583,12.98885,1.43689,-0.03701354,-0.007689941,1.05355
71.783,13.18164,1.53242,-0.03670699,-6.954641e-05,1.0533
74.983,13.3658,1.63284,-0.03749055,-0.003846511,1.05301
78.183,13.5418,1.73368,-0.03649395,-0.01786028,1.05266
81.383,13.71186,1.83572,-0.03546041,0.01504184,1.05227
84.583,13.8751,1.90034,-0.03926813,-0.009875823,1.05183
87.783,14.0321,1.94833,-0.03723802,-0.00316773,1.05134
90.983,14.1835,2.0166,-0.03907545,-0.00828828,1.05081
94.183,14.32961,2.08705,-0.03815025,0.07511657,1.05023
97.383,14.471,2.16459,-0.03864998,0.03425502,1.0496
100.583,14.60859,2.24406,-0.03908874,0.005486991,1.04893
103.783,14.74244,2.33464,-0.03759361,0.01205686,1.04821
106.983,14.8734,2.4134,-0.0376851,0.02047296,1.04745
110.183,15.00102,2.4953,-0.0394955,0.004292508,1.04664
113.383,15.1265,2.57729,-0.03869478,0.02355724,1.04579
116.583,15.24964,2.65531,-0.03788038,0.01334451,1.0449
119.783,15.37062,2.73636,-0.03900009,0.006499953,1.04396
122.983,15.4894,2.80952,-0.03845277,0.02028622,1.04298
126.183,15.60619,2.87873,-0.04050141,-0.01139059,1.04196
129.383,15.721,2.94627,-0.04167485,0.0002376127,1.04089
132.583,15.83435,3.00579,-0.03937263,0.001332093,1.03979
135.783,15.9458,3.07685,-0.04041774,-0.003899498,1.03864
138.983,16.05576,3.14887,-0.04165259,0.005160574,1.03745
142.183,16.16463,3.21809,-0.04187102,-0.008949331,1.03622
145.383,16.27179,3.3162,-0.04035017,-0.008726722,1.03496
148.583,16.37811,3.4516,-0.04049492,0.0038999,1.03365
151.783,16.48327,3.67529,-0.04048059,-0.001284972,1.0323
154.983,16.5872,3.88522,-0.04188998,-0.01822604,1.03092
158.183,16.69022,3.98201,-0.0420353,-0.00717528,1.02949
161.383,16.7927,4.06536,-0.04202421,-0.01236319,1.02803
164.583,16.89418,4.14553,-0.0420035,-0.01295085,1.02653
167.783,16.9946,4.20844,-0.04342602,-0.000186971,1.025
170.983,17.09449,4.27962,-0.04332817,-0.00330923,1.02343
174.183,17.19367,4.33984,-0.04333037,0.00452255,1.02182
177.383,17.29159,4.396,-0.04212351,-0.02062531,1.02018
180.583,17.38924,4.46141,-0.04333282,0.01755615,1.0185
183.783,17.4861,4.51278,-0.04094032,-0.001793018,1.01679
186.983,17.58195,4.57682,-0.04233999,-1.816285e-06,1.01505
190.183,17.67711,4.63675,-0.04233073,0.00584838,1.01327
193.383,17.7714,4.6752,-0.04201701,-0.01736995,1.01146
196.583,17.8657,4.73988,-0.04333003,4.246579e-06,1.00961
199.783,17.9593,4.78255,-0.04466146,-0.01720012,1.00774
202.983,18.05249,4.83833,-0.04201069,0.01061815,1.00583
206.183,18.1452,4.88488,-0.04440827,-0.01703681,1.00389
209.383,18.23761,4.94207,-0.0432773,0.01140264,1.00192
212.583,18.32966,4.98452,-0.04263787,-0.02687392,0.99992
215.783,18.4212,5.03186,-0.04354843,-0.01523039,0.9979
218.983,18.51239,5.06762,-0.04350129,0.01461527,0.99584
222.183,18.60331,5.12317,-0.0440489,0.02381775,0.99376
225.383,18.69388,5.16783,-0.04365438,-0.01701242,0.99164
228.583,18.7842,5.22014,-0.04356348,0.02150013,0.9895
231.783,18.8745,5.26789,-0.0450203,-0.01883434,0.98733
234.983,18.96428,5.30977,-0.04364638,-0.0006101297,0.98514
238.183,19.0537,5.35356,-0.04497027,-0.0008294185,0.98292
241.383,19.14315,5.38373,-0.04500294,0.01835341,0.98068
244.583,19.2322,5.43545,-0.04363537,0.01978699,0.97841
247.783,19.3209,5.47204,-0.04371909,-0.02677868,0.97611
250.983,19.4096,5.52066,-0.04497424,0.01772792,0.97379
254.183,19.49821,5.5591,-0.04566984,-0.0108818,0.97145
257.383,19.58655,5.58597,-0.04057789,-0.14759,0.96909
260.583,19.67472,5.61858,-0.04770558,0.06042738,0.9667
263.783,19.76248,5.64839,-0.04494501,-0.003391192,0.96429
266.983,19.85039,5.67913,-0.04594358,0.01239372,0.96187
270.183,19.93826,5.71468,-0.04561604,0.009333698,0.95942
273.383,20.02591,5.73174,-0.04496996,-2.67277e-06,0.95694
276.583,20.1132,5.75527,-0.0459225,-0.03483299,0.95445
279.783,20.20085,5.77988,-0.04695,8.988788e-09,0.95194
282.983,20.2882,5.79915,-0.04669429,0.01235849,0.94942
286.183,20.37575,5.84327,-0.04629,5.022097e-07,0.94687
289.383,20.4631,5.85876,-0.04628999,-0.0003138418,0.94431
292.583,20.55044,5.88802,-0.04772186,-0.01172915,0.94172
295.783,20.63774,5.91161,-0.04761684,0.002912945,0.93913
298.983,20.72489,5.92229,-0.04635886,0.02283653,0.93651
302.183,20.812,5.946,-0.04835501,-0.02729143,0.93388
305.383,20.8991,5.96305,-0.04750004,0.00139929,0.93124
308.583,20.9864,5.98515,-0.0475123,-0.01523785,0.92858
311.783,21.07365,6.00838,-0.0488551,0.02343639,0.9259
314.983,21.16067,6.02256,-0.04772,3.82379e-07,0.92322
318.183,21.24792,6.05206,-0.04772581,0.01984976,0.92052
321.383,21.33517,6.06649,-0.04640174,-0.010932,0.9178
324.583,21.42227,6.08306,-0.04771992,-0.0003019778,0.91508
327.783,21.5094,6.11035,-0.0490354,-0.01625519,0.91234
330.983,21.5967,6.13497,-0.04772224,0.002689149,0.90959
334.183,21.68402,6.15371,-0.05035631,-0.01686775,0.90683
337.383,21.77133,6.16292,-0.04892958,0.04133756,0.90406
340.583,21.859,6.16945,-0.04396704,0.05534691,0.90128
343.783,21.9466,6.17747,-0.03977009,0.03202679,0.89849
346.983,22.0343,6.19423,-0.04050165,-0.08479337,0.8957
350.183,22.12183,6.23445,-0.05008815,-0.06363419,0.89289
353.383,22.20968,6.25655,-0.05078755,0.01556931,0.89008
356.583,22.2976,6.26863,-0.05078916,-0.009044704,0.88726
359.783,22.38565,6.29385,-0.05078985,-0.002702661,0.88443
362.983,22.4738,6.31984,-0.05345932,-0.0335887,0.88159
366.183,22.56195,6.34274,-0.05473999,-1.756386e-06,0.87875
369.383,22.6504,6.35076,-0.05474004,0.00330776,0.87591
372.583,22.73893,6.36168,-0.0534204,0.00181609,0.87306
375.783,22.8277,6.39065,-0.05473363,-0.01076435,0.8702
378.983,22.9163,6.40647,-0.05514409,-0.01009933,0.86734
382.183,23.00534,6.41061,-0.05440997,0.0004099943,0.86448
385.383,23.0945,6.42785,-0.05440999,1.965903e-06,0.86161
388.583,23.1835,6.44571,-0.05475981,-0.02703798,0.85874
391.783,23.273,6.44371,-0.0558045,0.02359453,0.85587
394.983,23.3625,6.45874,-0.05702555,-0.01798422,0.853
398.183,23.45228,6.47605,-0.05635533,0.0069319,0.85012
401.383,23.54211,6.49513,-0.05705012,-0.01346006,0.84724
404.583,23.63211,6.50649,-0.05980189,0.01189102,0.84437
407.783,23.7224,6.52336,-0.0582401,0.000446956,0.84149
410.983,23.81279,6.54669,-0.05692448,0.002255878,0.83861
414.183,23.90315,6.55338,-0.05889033,-0.02157277,0.83573
417.383,23.99389,6.57451,-0.06154365,-0.00709383,0.83286
420.583,24.08483,6.58584,-0.06330403,-0.04263357,0.82998
423.783,24.17585,6.58912,-0.06417,-1.86291e-07,0.82711
426.983,24.26709,6.61543,-0.06416823,0.003871803,0.82424
430.183,24.3584,6.62064,-0.06416107,-0.020771,0.82137
433.383,24.45014,6.64046,-0.06570854,-0.03323059,0.8185
436.583,24.54179,6.64785,-0.06833857,-0.01297391,0.81564
439.783,24.6335,6.63696,-0.06837353,-0.02059495,0.81278
442.983,24.72574,6.62018,-0.07031296,-0.005651611,0.80992
446.183,24.81788,6.59861,-0.07109528,-0.0250651,0.80707
449.383,24.91025,6.57986,-0.07295097,-0.01101036,0.80423
452.583,25.00291,6.55472,-0.07499479,-0.03401059,0.80138
455.783,25.0957,6.50881,-0.0783224,-0.03799281,0.79855
458.983,25.18845,6.47,-0.08027092,-0.02516751,0.79572
462.183,25.28153,6.41971,-0.08156972,-0.02376096,0.79289
465.383,25.3747,6.34624,-0.08708411,-0.06299786,0.79007
468.583,25.46807,6.28716,-0.09438991,-0.10166,0.78726
471.783,25.56155,6.19718,-0.10216,-0.07005761,0.78446
474.983,25.65537,6.11885,-0.11154,-0.13148,0.78166
478.183,25.74928,6.01618,-0.12552,-0.12629,0.77887
481.383,25.8433,5.93059,-0.13964,-0.16135,0.77609
484.583,25.93746,5.78833,-0.15633,-0.22043,0.77332
487.783,26.03185,5.77741,-0.17933,-0.2547,0.77055
490.983,26.1264,5.74167,-0.2114,-0.37721,0.7678
494.183,26.2211,5.71664,-0.24511,-0.37177,0.76505
497.383,26.31578,5.78849,-0.28588,-0.47386,0.76231
500.583,26.4109,6.03825,-0.3351,-0.62523,0.75958
503.783,26.50592,6.58361,-0.40157,-0.77756,0.75686
506.983,26.60155,6.91907,-0.48003,-0.89,0.75416
510.183,26.697,7.25171,-0.57573,-1.09369,0.75146
513.383,26.79283,7.60407,-0.68432,-1.21369,0.74877
516.583,26.8889,7.78484,-0.80552,-1.3005,0.7461
519.783,26.98514,7.72992,-0.94122,-1.47189,0.74343
522.983,27.08132,7.63623,-1.08362,-1.56771,0.74078
526.183,27.17793,7.76996,-1.24779,-1.74847,0.73814
529.383,27.27464,7.68453,-1.42392,-1.91217,0.73551
532.583,27.37167,7.68494,-1.61861,-2.08403,0.73289
535.783,27.4688,7.51628,-1.82618,-2.17539,0.73029
538.983,27.5664,7.14863,-2.04166,-2.22897,0.72769
542.183,27.66385,6.48609,-2.25629,-2.11982,0.72511
545.383,27.76159,5.5319,-2.4483,-1.84367,0.72255
548.583,27.85945,4.42962,-2.61606,-1.48697,0.71999
551.783,27.95727,3.33029,-2.73557,-1.06818,0.71745
554.983,28.0552,2.47349,-2.82379,-0.72478,0.71493
558.183,28.1534,1.92391,-2.88171,-0.48835,0.71241
561.383,28.2515,1.62206,-2.91966,-0.3299,0.70991
564.583,28.3497,1.50075,-2.94667,-0.22023,0.70743
567.783,28.44837,1.46876,-2.9683,-0.18838,0.70496
570.983,28.54697,1.44264,-2.98355,-0.19408,0.7025
574.183,28.6457,1.44337,-2.99773,-0.07284719,0.70006
577.383,28.7446,1.42897,-3.00612,-0.09496695,0.69763
580.583,28.8435,1.42262,-3.01332,-0.0784544,0.69522
583.783,28.94233,1.42381,-3.02332,-0.11907,0.69282
586.983,29.0417,1.40705,-3.03259,-0.11292,0.69043
590.183,29.14118,1.3936,-3.04126,-0.08475924,0.68807
593.383,29.2405,1.38987,-3.04843,-0.08359024,0.68571
596.583,29.34005,1.38661,-3.0562,-0.06891025,0.68338
599.783,29.43983,1.38239,-3.06396,-0.08775956,0.68105
602.983,29.5399,1.39486,-3.07142,-0.07016078,0.67875
606.183,29.6398,1.40314,-3.07854,-0.06108671,0.67646
609.383,29.73982,1.42468,-3.08568,-0.07516298,0.67418
612.583,29.8402,1.4457,-3.08966,-0.0420808,0.67192
615.783,29.94032,1.48007,-3.09546,-0.04878035,0.66968
617.683,29.9999,1.50107,-3.09929,-0.10158,0.66835

File: PC_STA_N2_30KData_211709_R2.csv
##Temp./Â°C,Time/min,DSC(subtr.2)/mW,Mass loss(subtr.2)/mg,DTG(subtr.2)/(mg/min),Sensit./(uV/mW)
49.403,10.01,0.00723845,-0.02435,-0.04966694,1.05401
52.603,11.6514,0.40176,-0.02624855,-0.003817462,1.05406
55.803,12.0349,0.66455,-0.02893055,-0.004197328,1.05406
59.003,12.32037,0.84492,-0.02993443,0.002536715,1.054
62.203,12.56292,0.9963,-0.02886805,0.000858617,1.0539
65.403,12.78249,1.11538,-0.02873607,0.001218819,1.05375
68.603,12.98572,1.21467,-0.0284425,0.001548304,1.05355
71.803,13.17878,1.30826,-0.02556471,-0.00870715,1.0533
75.003,13.3628,1.39717,-0.02911654,0.005760995,1.053
78.203,13.53933,1.49628,-0.02783922,-0.01027316,1.05266
81.403,13.709,1.58134,-0.02862073,0.005093183,1.05227
84.603,13.87166,1.65709,-0.02996742,-0.003523443,1.05183
87.803,14.02854,1.69138,-0.02923832,-0.001140743,1.05134
91.003,14.1799,1.7346,-0.02972149,-0.00631272,1.0508
94.203,14.326,1.81072,-0.03031884,0.003705853,1.05022
97.403,14.46766,1.85839,-0.03177412,-0.005184369,1.0496
100.603,14.60481,1.93802,-0.02901011,0.00194832,1.04892
103.803,14.73877,2.01168,-0.03028217,-0.0007595977,1.04821
107.003,14.8696,2.09817,-0.03124457,-0.005105373,1.04744
110.203,14.9972,2.16944,-0.03150964,-0.004770534,1.04664
113.403,15.12285,2.23994,-0.03256222,0.004993809,1.04579
116.603,15.2458,2.30592,-0.03101193,0.005715185,1.04489
119.803,15.36669,2.37115,-0.02855227,-0.00706622,1.04396
123.003,15.48554,2.43512,-0.03294598,-0.001978365,1.04298
126.203,15.60203,2.50132,-0.03016217,0.003022552,1.04195
129.403,15.7167,2.55841,-0.03124686,-0.001330316,1.04089
132.603,15.83035,2.61288,-0.03238738,-0.003160103,1.03978
135.803,15.94196,2.67752,-0.03221402,-0.003282075,1.03863
139.003,16.05185,2.73737,-0.03288683,-0.00203221,1.03744
142.203,16.16082,2.80392,-0.03149559,-0.003228417,1.03622
145.403,16.26804,2.87554,-0.03323922,-0.00290515,1.03495
148.603,16.37428,3.02036,-0.0331708,0.000761648,1.03364
151.803,16.47937,3.22138,-0.03172706,0.000393566,1.03229
155.003,16.58345,3.42151,-0.0335832,-0.000773608,1.03091
158.203,16.68686,3.51394,-0.03187202,0.001542574,1.02948
161.403,16.78837,3.58622,-0.03332501,-0.00219757,1.02802
164.603,16.8907,3.66154,-0.03334681,0.001047585,1.02652
167.803,16.99142,3.72954,-0.03204268,-0.00376733,1.02499
171.003,17.0912,3.77037,-0.03468449,-0.002632609,1.02342
174.203,17.19035,3.84027,-0.03335281,-0.0001513939,1.02181
177.403,17.28859,3.88769,-0.0333355,-0.00391596,1.02017
180.603,17.3861,3.94316,-0.03466474,-4.52708e-05,1.01849
183.803,17.48266,3.99492,-0.03226331,-0.005941907,1.01678
187.003,17.57864,4.05015,-0.03645504,-0.008098838,1.01503
190.203,17.6738,4.09041,-0.03520973,0.003206647,1.01326
193.403,17.7683,4.14913,-0.03403829,0.004866777,1.01144
196.603,17.86241,4.19638,-0.03486785,0.000796793,1.0096
199.803,17.9561,4.24364,-0.03470163,0.00146485,1.00772
203.003,18.0492,4.28856,-0.03356076,-0.001666991,1.00582
206.203,18.14163,4.32926,-0.03488227,-0.002647052,1.00388
209.403,18.2343,4.38105,-0.0345488,-0.005871492,1.00191
212.603,18.32628,4.42786,-0.03555674,-0.01067083,0.99991
215.803,18.41776,4.47417,-0.03729487,-0.004243767,0.99788
219.003,18.50907,4.51023,-0.03722951,0.001639566,0.99583
222.203,18.60003,4.56041,-0.03597,0.002911709,0.99374
225.403,18.69067,4.60103,-0.0359704,-0.00233366,0.99163
228.603,18.78094,4.65155,-0.03756828,-0.00641917,0.98949
231.803,18.87098,4.68832,-0.03750967,-0.000954121,0.98732
235.003,18.9607,4.73567,-0.03618915,-0.001054672,0.98513
238.203,19.05025,4.77947,-0.03751001,-0.003493782,0.98291
241.403,19.1396,4.82201,-0.03750907,0.00103453,0.98066
244.603,19.22864,4.85588,-0.03629385,0.002404157,0.97839
247.803,19.3176,4.89129,-0.03749783,-0.00108422,0.9761
251.003,19.40625,4.92828,-0.03750815,-0.0002527423,0.97378
254.203,19.49471,4.95989,-0.03643353,-0.003745283,0.97144
257.403,19.58306,4.98495,-0.03794849,-0.00737106,0.96907
260.603,19.67095,5.0194,-0.03931574,-0.006065654,0.96669
263.803,19.7588,5.03745,-0.03794434,-0.004313338,0.96428
267.003,19.84706,5.06545,-0.03927003,-0.001150007,0.96185
270.203,19.9349,5.08678,-0.04140992,0.01397746,0.9594
273.403,20.02243,5.12017,-0.03310732,0.009336194,0.95693
276.603,20.11007,5.14387,-0.03762615,-0.0136831,0.95444
279.803,20.1974,5.17364,-0.0397017,-0.004924746,0.95193
283.003,20.2849,5.19554,-0.03828012,0.002128142,0.9494
286.203,20.37228,5.22184,-0.03828044,-0.00370905,0.94685
289.403,20.4597,5.24618,-0.04022303,-0.002222244,0.94429
292.603,20.54695,5.26066,-0.03827546,-0.000320057,0.94171
295.803,20.63419,5.29185,-0.03959682,-0.00603489,0.93911
299.003,20.72154,5.31338,-0.03964905,-0.0116629,0.9365
302.203,20.80871,5.32902,-0.03980556,-0.01993566,0.93387
305.403,20.89592,5.37482,-0.04351776,-0.003512738,0.93122
308.603,20.9831,5.39313,-0.0431054,0.02613878,0.92856
311.803,21.07019,5.41694,-0.03795435,-5.02943e-05,0.92589
315.003,21.15737,5.43919,-0.04342737,-0.01345638,0.9232
318.203,21.24445,5.45002,-0.04054925,-0.004016288,0.9205
321.403,21.33168,5.47876,-0.04319999,0.002558341,0.91779
324.603,21.4189,5.50181,-0.04048649,0.005468567,0.91506
327.803,21.50603,5.51578,-0.04042938,-0.004314222,0.91232
331.003,21.59337,5.55139,-0.04210405,-0.004563954,0.90957
334.203,21.68071,5.5563,-0.04195253,0.0006669431,0.90681
337.403,21.7681,5.56746,-0.04254507,-0.00868871,0.90404
340.603,21.85568,5.60223,-0.04464929,-0.01278683,0.90127
343.803,21.94315,5.63114,-0.04464017,-0.002317262,0.89848
347.003,22.03079,5.64304,-0.04332847,0.000830303,0.89568
350.203,22.11867,5.67148,-0.04467707,-0.00567311,0.89287
353.403,22.20664,5.69014,-0.04512774,-0.00622749,0.89006
356.603,22.29455,5.70068,-0.04519421,0.001692025,0.88724
359.803,22.38273,5.7197,-0.04397985,-0.004085985,0.88441
363.003,22.47104,5.74208,-0.04533797,-0.01313587,0.88158
366.203,22.55946,5.7632,-0.0479301,-0.005385395,0.87874
369.403,22.64794,5.77364,-0.04661922,0.0007669036,0.87589
372.603,22.7364,5.79314,-0.04779862,-0.00136849,0.87304
375.803,22.82518,5.8268,-0.04663275,-0.000624523,0.87018
379.003,22.91401,5.83031,-0.04662152,-0.004661828,0.86732
382.203,23.00304,5.84706,-0.04792987,-0.006353197,0.86446
385.403,23.0918,5.87025,-0.0484609,-0.00432041,0.86159
388.603,23.18123,5.89522,-0.04850394,-0.00608627,0.85872
391.803,23.27058,5.91506,-0.04969134,-0.01069207,0.85585
395.003,23.36017,5.92734,-0.0500186,-0.01015973,0.85298
398.203,23.45,5.92962,-0.05133,-0.007159109,0.8501
401.403,23.5397,5.93418,-0.05132992,-0.007030725,0.84723
404.603,23.6296,5.9585,-0.05265003,-0.00624452,0.84435
407.803,23.71949,5.96759,-0.05264862,-0.003762965,0.84147
411.003,23.80988,5.97091,-0.0533,0.0003077202,0.83859
414.203,23.9005,6.00045,-0.05292837,0.0003945685,0.83571
417.403,23.99085,6.01132,-0.05202406,-0.01167107,0.83284
420.603,24.0816,6.02858,-0.05418797,-0.01863321,0.82996
423.803,24.17248,6.04139,-0.05682023,-0.01355807,0.82709
427.003,24.26357,6.05542,-0.05683812,-0.01258239,0.82422
430.203,24.35484,6.06741,-0.05822495,-0.01831541,0.82135
433.403,24.44593,6.06679,-0.06124148,-0.01626445,0.81848
436.603,24.53789,6.06515,-0.06219044,-0.004393004,0.81562
439.803,24.62961,6.0518,-0.05957556,-0.006936057,0.81276
443.003,24.72172,6.04535,-0.06368246,-0.01464133,0.8099
446.203,24.81385,6.00884,-0.05931399,-0.03442161,0.80705
449.403,24.90618,6.00088,-0.0709502,-0.03566979,0.80421
452.603,24.9987,5.96256,-0.07119007,-0.01953177,0.80137
455.803,25.0914,5.9094,-0.07175702,-0.02364027,0.79853
459.003,25.18419,5.86376,-0.07545121,-0.03128579,0.7957
462.203,25.27739,5.79325,-0.07847098,-0.0431698,0.79287
465.403,25.3706,5.72784,-0.08310479,-0.05840104,0.79006
468.603,25.46404,5.62582,-0.08950283,-0.06915759,0.78724
471.803,25.5576,5.54258,-0.09587799,-0.09430075,0.78444
475.003,25.65149,5.45353,-0.10654,-0.12409,0.78164
478.203,25.74522,5.35353,-0.11886,-0.15276,0.77885
481.403,25.83942,5.23249,-0.13526,-0.18402,0.77607
484.603,25.93358,5.11094,-0.154,-0.22944,0.7733
487.803,26.02796,5.07274,-0.17823,-0.28476,0.77053
491.003,26.1225,5.04249,-0.20649,-0.3445,0.76778
494.203,26.2173,5.07838,-0.24318,-0.42422,0.76503
497.403,26.3121,5.19343,-0.28811,-0.53252,0.76229
500.603,26.4071,5.6768,-0.34062,-0.6697,0.75957
503.803,26.5024,6.08355,-0.41308,-0.81813,0.75685
507.003,26.59785,6.46944,-0.499,-0.97882,0.75414
510.203,26.6934,6.90569,-0.59678,-1.1261,0.75144
513.403,26.7894,6.85397,-0.71864,-1.24434,0.74876
516.603,26.8853,6.94915,-0.83747,-1.36254,0.74608
519.803,26.9815,7.1153,-0.97656,-1.50371,0.74342
523.003,27.07788,7.12633,-1.13152,-1.62991,0.74076
526.203,27.1744,6.98778,-1.28273,-1.77106,0.73812
529.403,27.2712,6.88265,-1.47388,-1.9235,0.73549
532.603,27.3679,6.79697,-1.66209,-2.04078,0.73288
535.803,27.4649,6.6001,-1.86877,-2.13233,0.73027
539.003,27.56192,6.226,-2.07994,-2.14143,0.72768
542.203,27.65945,5.55093,-2.28641,-2.01152,0.7251
545.403,27.75693,4.57668,-2.48098,-1.74913,0.72253
548.603,27.85456,3.45982,-2.63316,-1.39787,0.71998
551.803,27.9522,2.39661,-2.75349,-1.03309,0.71744
555.003,28.05,1.57914,-2.83289,-0.71535,0.71491
558.203,28.1481,1.08185,-2.88848,-0.48951,0.7124
561.403,28.24642,0.81913,-2.92668,-0.3392,0.7099
564.603,28.3448,0.69827,-2.95263,-0.24521,0.70741
567.803,28.4432,0.66869,-2.97443,-0.18332,0.70494
571.003,28.542,0.64426,-2.98897,-0.14132,0.70248
574.203,28.64065,0.64748,-3.00185,-0.12151,0.70004
577.403,28.7396,0.60151,-3.01249,-0.105,0.69761
580.603,28.83871,0.5904,-3.02163,-0.09084576,0.6952
583.803,28.93801,0.56495,-3.02885,-0.09186115,0.6928
587.003,29.0374,0.54339,-3.0404,-0.09010689,0.69042
590.203,29.13686,0.52319,-3.04886,-0.07371653,0.68805
593.403,29.2363,0.49934,-3.05429,-0.07677609,0.6857
596.603,29.3357,0.47462,-3.06357,-0.07784898,0.68336
599.803,29.4356,0.44764,-3.07079,-0.06758923,0.68104
603.003,29.5356,0.43537,-3.07617,-0.06927479,0.67873
606.203,29.6355,0.41927,-3.08435,-0.06522762,0.67644
609.403,29.73548,0.41628,-3.09076,-0.05877155,0.67417
612.603,29.8357,0.40578,-3.09427,-0.0534716,0.67191
615.803,29.93618,0.41787,-3.10023,-0.05241981,0.66966
617.803,29.999,0.43628,-3.10412,-0.04607466,0.66827