Folder: fsri_materials_database/01_Data/PC/STA/N2/3K_min

Note: 01_Data/README.md
# Materials and Products Database
## 01_Data

Raw data generated from each apparatus are included here in plain-text format. The data is organized first by material, next by the short name of test apparatus used, and where applicable additional filtering by test settings.

### material.json

Each material directory contains a json file of the same name as the material. This file links the data stored in the repository as well as data and graphs produced by the accompanying scripts (__02_Scripts__) to the respective landing page for the material on the front-end website.

File: PC_STA_N2_3KData_211609_R1.csv
##Temp./Â°C,Time/min,Mass loss(subtr.2)/mg,DSC(subtr.2)/mW,DTG(subtr.2)/(mg/min),Sensit./(uV/mW)
49.818,10.00917,-0.03467,-0.11858,0.0,1.03584
53.218,14.4347,-0.04313523,0.00236827,-0.002019019,1.03566
56.618,16.2562,-0.04584828,0.05578054,-0.002297179,1.03542
60.018,17.777,-0.05019809,0.07795652,-0.00206317,1.03514
63.418,19.15486,-0.05290233,0.09334946,-0.001117906,1.03481
66.818,20.4505,-0.05391483,0.10581,-0.001747005,1.03443
70.218,21.69331,-0.05329751,0.10943,-0.00187411,1.03399
73.618,22.90725,-0.05988105,0.12319,-0.00151284,1.03351
77.018,24.09929,-0.06219002,0.12776,-0.00128545,1.03299
80.418,25.27197,-0.06317987,0.12242,-0.0005807541,1.03241
83.818,26.43311,-0.06388103,0.13203,-0.0008916641,1.03179
87.218,27.5846,-0.06482036,0.12495,-0.000775279,1.03112
90.618,28.7229,-0.06483,0.13294,-0.0005940006,1.03041
94.018,29.85006,-0.06614264,0.14383,-0.0008355973,1.02964
97.418,30.9696,-0.0671322,0.15167,-0.00108512,1.02884
100.818,32.0837,-0.06713013,0.14911,-0.0008099366,1.02799
104.218,33.19539,-0.07009514,0.16239,-0.00111742,1.02709
107.618,34.30072,-0.06977441,0.16234,-0.0008484153,1.02615
111.018,35.41108,-0.07184932,0.17196,-0.0006006396,1.02516
114.418,36.51675,-0.07224664,0.17779,-0.000816391,1.02414
117.818,37.62003,-0.07196,0.18145,-0.0008175369,1.02306
121.218,38.72132,-0.0729473,0.18371,-0.0006621605,1.02195
124.618,39.8193,-0.0729456,0.19287,-0.0003073901,1.02079
128.018,40.91687,-0.07291619,0.19093,-0.0008344076,1.0196
131.418,42.0107,-0.07458999,0.20316,-0.0005644964,1.01836
134.818,43.1006,-0.07585776,0.20043,-0.0004517347,1.01708
138.218,44.18916,-0.07458973,0.2058,-0.000514398,1.01576
141.618,45.27807,-0.07821153,0.20969,-0.0002466724,1.0144
145.018,46.3609,-0.07678903,0.22818,-0.0003348407,1.013
148.418,47.4422,-0.07646016,0.27445,-0.0004804959,1.01157
151.818,48.5274,-0.07874044,0.27852,-0.0005792556,1.01009
155.218,49.60975,-0.08017625,0.2755,-0.0005885505,1.00858
158.618,50.68976,-0.07953,0.27772,-0.000655681,1.00703
162.018,51.76984,-0.08084,0.28046,-0.0004291296,1.00544
165.418,52.84463,-0.08080904,0.28469,-0.0005565078,1.00381
168.818,53.93231,-0.07952878,0.29143,-0.0002153666,1.00215
172.218,55.0127,-0.08014392,0.28683,-0.0003103066,1.00046
175.618,56.09445,-0.08094324,0.29046,-0.0003571208,0.99873
179.018,57.17646,-0.08193747,0.2915,-0.0006614756,0.99696
182.418,58.25614,-0.08293001,0.30237,-0.000817003,0.99517
185.818,59.33673,-0.08271873,0.30171,-0.0005152362,0.99333
189.218,60.4101,-0.08350151,0.29036,-0.0004088002,0.99147
192.618,61.48594,-0.08457261,0.29519,-0.00033518,0.98957
196.018,62.55976,-0.0845703,0.30506,-0.000782392,0.98764
199.418,63.63723,-0.08548188,0.29916,-0.0002034313,0.98568
202.818,64.714,-0.08421802,0.3009,-0.000435239,0.98369
206.218,65.79053,-0.08523,0.31009,-0.0002600006,0.98167
209.618,66.87084,-0.08572706,0.3076,1.772862e-05,0.97962
213.018,67.94694,-0.08391044,0.32374,-0.0002026209,0.97754
216.418,69.02211,-0.08588878,0.32562,-0.000257377,0.97543
219.818,70.09759,-0.08610992,0.33016,-0.000409228,0.97329
223.218,71.1726,-0.08611001,0.32799,-0.0002048764,0.97113
226.618,72.24749,-0.08608118,0.33072,-0.0001607751,0.96893
230.018,73.32459,-0.08762959,0.34265,9.861036e-05,0.96672
233.418,74.40065,-0.08668845,0.34223,2.13664e-05,0.96447
236.818,75.47754,-0.08517245,0.34218,-0.0001900412,0.9622
240.218,76.5536,-0.08783498,0.33188,0.0002174029,0.9599
243.618,77.63095,-0.08522028,0.3449,0.0006995237,0.95758
247.018,78.70766,-0.08852074,0.35285,-0.0002777243,0.95524
250.418,79.786,-0.08677502,0.33512,3.611491e-05,0.95287
253.818,80.86125,-0.08675925,0.33917,-0.0002819743,0.95048
257.218,81.9397,-0.08631964,0.34974,3.58539e-05,0.94806
260.618,83.02126,-0.08731698,0.33283,-0.0001065628,0.94563
264.018,84.09982,-0.0846998,0.35409,0.00017536,0.94317
267.418,85.1768,-0.08567121,0.33959,0.0002583484,0.94069
270.818,86.25587,-0.08677941,0.36152,-0.001047094,0.93819
274.218,87.33898,-0.08840001,0.36109,-0.000309558,0.93567
277.618,88.42198,-0.08779172,0.36332,0.000338487,0.93314
281.018,89.506,-0.08751629,0.35991,5.88222e-05,0.93058
284.418,90.58806,-0.08763958,0.35582,6.384831e-05,0.928
287.818,91.67179,-0.08687,0.35161,-0.000549298,0.92541
291.218,92.7509,-0.08646582,0.36569,0.0003712064,0.9228
294.618,93.835,-0.08483916,0.35391,4.46555e-05,0.92017
298.018,94.91813,-0.08731176,0.36595,-9.67146e-05,0.91753
301.418,96.0065,-0.08918758,0.37104,-0.000754519,0.91487
304.818,97.09429,-0.08960413,0.3667,-0.0008104806,0.9122
308.218,98.1811,-0.08922298,0.38491,-0.0007189422,0.90951
311.618,99.26935,-0.08940059,0.39453,-0.0006125958,0.9068
315.018,100.359,-0.08971985,0.38999,-0.0005145055,0.90409
318.418,101.445,-0.09245596,0.37849,-0.00048627,0.90136
321.818,102.5345,-0.09169994,0.39761,-0.000874038,0.89861
325.218,103.623,-0.09366974,0.39506,-0.0004612582,0.89586
328.618,104.715,-0.09399993,0.41057,-0.0007514672,0.89309
332.018,105.8065,-0.093736,0.4022,-0.0006888464,0.89031
335.418,106.898,-0.09552152,0.39253,-0.0006417824,0.88752
338.818,107.99,-0.09554,0.39206,-0.001100478,0.88472
342.218,109.085,-0.09554133,0.41245,-0.00120687,0.88191
345.618,110.179,-0.09915521,0.4121,-0.001317072,0.87909
349.018,111.277,-0.0981182,0.41008,-0.00113481,0.87627
352.418,112.375,-0.1018,0.39654,-0.001296378,0.87343
355.818,113.474,-0.10212,0.41223,-0.000485602,0.87059
359.218,114.573,-0.10104,0.39602,-0.0007290902,0.86773
362.618,115.677,-0.0990509,0.42435,-0.0007058359,0.86488
366.018,116.777,-0.10025,0.4266,-0.001255822,0.86201
369.418,117.877,-0.10702,0.41041,-0.002544977,0.85914
372.818,118.977,-0.1086,0.42234,-0.00296565,0.85626
376.218,120.078,-0.11118,0.41234,-0.002118281,0.85338
379.618,121.181,-0.11287,0.4302,-0.00152726,0.8505
383.018,122.287,-0.11378,0.45413,-0.002631932,0.84761
386.418,123.3937,-0.116,0.45877,-0.00244972,0.84471
389.818,124.502,-0.12124,0.46105,-0.00362022,0.84181
393.218,125.6065,-0.12373,0.45712,-0.003242395,0.83891
396.618,126.713,-0.12659,0.44691,-0.004022383,0.83601
400.018,127.821,-0.13272,0.46651,-0.004403522,0.8331
403.418,128.931,-0.13701,0.44762,-0.005569531,0.8302
406.818,130.039,-0.14325,0.42877,-0.00760964,0.82729
410.218,131.15,-0.15322,0.42245,-0.009705859,0.82438
413.618,132.257,-0.1642,0.40045,-0.01249902,0.82147
417.018,133.371,-0.17889,0.39324,-0.01602943,0.81856
420.418,134.484,-0.19821,0.39993,-0.02033807,0.81566
423.818,135.6,-0.22016,0.41302,-0.02598297,0.81275
427.218,136.714,-0.25261,0.42787,-0.03278252,0.80984
430.618,137.831,-0.29496,0.43607,-0.04060086,0.80694
434.018,138.948,-0.34678,0.44412,-0.04953443,0.80403
437.418,140.066,-0.40429,0.47422,-0.05942559,0.80113
440.818,141.184,-0.47603,0.51234,-0.0692742,0.79823
444.218,142.301,-0.55893,0.52511,-0.0790076,0.79534
447.618,143.424,-0.65349,0.57983,-0.08945861,0.79245
451.018,144.546,-0.75928,0.60756,-0.09827174,0.78956
454.418,145.666,-0.87882,0.62735,-0.10861,0.78668
457.818,146.793,-1.00478,0.66164,-0.11848,0.7838
461.218,147.913,-1.14124,0.65804,-0.12929,0.78093
464.618,149.036,-1.29292,0.66151,-0.13979,0.77806
468.018,150.162,-1.4569,0.68046,-0.15017,0.77519
471.418,151.287,-1.6326,0.66686,-0.15926,0.77234
474.818,152.417,-1.81703,0.64657,-0.16559,0.76949
478.218,153.544,-2.01132,0.61455,-0.16753,0.76664
481.618,154.671,-2.207,0.59595,-0.16211,0.7638
485.018,155.8,-2.38982,0.50688,-0.14906,0.76097
488.418,156.926,-2.5558,0.36567,-0.12921,0.75815
491.818,158.054,-2.68883,0.25557,-0.10432,0.75534
495.218,159.181,-2.79337,0.12989,-0.07996893,0.75253
498.618,160.311,-2.86385,0.06148932,-0.05839809,0.74973
502.018,161.444,-2.91426,0.01400056,-0.04047331,0.74694
505.418,162.577,-2.94798,-0.03055175,-0.0284638,0.74416
508.818,163.713,-2.9716,-0.04296274,-0.02060741,0.74139
512.218,164.844,-2.98993,-0.07269362,-0.01597989,0.73863
515.618,165.982,-3.00567,-0.05541204,-0.01287343,0.73588
519.018,167.118,-3.01748,-0.06638465,-0.01087204,0.73313
522.418,168.2561,-3.02694,-0.06404009,-0.0092464,0.7304
525.818,169.4001,-3.03795,-0.08473514,-0.00847525,0.72768
529.218,170.537,-3.04642,-0.07287098,-0.00773267,0.72497
532.618,171.676,-3.05443,-0.07264046,-0.00714335,0.72227
536.018,172.816,-3.06419,-0.08325586,-0.006579995,0.71958
539.418,173.955,-3.06935,-0.08834474,-0.006349739,0.71691
542.818,175.095,-3.07858,-0.08357075,-0.00632093,0.71424
546.218,176.239,-3.08525,-0.04936675,-0.006175016,0.71159
549.618,177.379,-3.09293,-0.04424071,-0.00540505,0.70895
553.018,178.519,-3.09656,-0.05292588,-0.00564275,0.70632
556.418,179.662,-3.10346,-0.0632163,-0.005226914,0.7037
559.818,180.809,-3.10772,-0.06507846,-0.004924246,0.7011
563.218,181.951,-3.11651,-0.07175877,-0.004784,0.69851
566.618,183.098,-3.11947,-0.05640517,-0.004794965,0.69593
570.018,184.244,-3.12604,-0.05926828,-0.004279035,0.69336
573.418,185.393,-3.13066,-0.05146053,-0.00401713,0.69081
576.818,186.538,-3.13461,-0.07672811,-0.004110708,0.68828
580.218,187.686,-3.13722,-0.09330181,-0.00346395,0.68575
583.618,188.837,-3.14232,-0.10412,-0.003658453,0.68324
587.018,189.978,-3.1458,-0.1467,-0.003220813,0.68075
590.418,191.127,-3.15106,-0.13769,-0.002919825,0.67826
593.818,192.273,-3.15336,-0.13881,-0.002704489,0.6758
597.218,193.422,-3.15693,-0.12044,-0.002259139,0.67335
600.618,194.57,-3.15962,-0.11908,-0.002266199,0.67091
604.018,195.727,-3.16191,-0.0829522,-0.002065595,0.66848
607.418,196.882,-3.16357,-0.05672365,-0.00228662,0.66608
610.818,198.025,-3.16607,-0.07220719,-0.002241493,0.66368
614.218,199.175,-3.17015,-0.05572184,-0.002120977,0.6613
617.618,200.3313,-3.17011,-0.04392035,-0.00154013,0.65894
621.018,201.486,-3.17311,-0.02390984,-0.001764881,0.65659
624.418,202.641,-3.17541,-0.008440012,-0.001686719,0.65426
627.818,203.799,-3.17904,-0.0186573,-0.0017141,0.65194
631.218,204.95,-3.17771,0.02809499,-0.00153738,0.64964
634.618,206.11,-3.18068,0.10498,-0.0019315,0.64735
638.018,207.2691,-3.18463,0.11242,-0.00154232,0.64508
641.418,208.428,-3.18627,0.14991,-0.002218384,0.64283
644.818,209.583,-3.1866,0.16825,-0.003023391,0.64059
646.018,209.991,-3.18922,0.18052,-0.03117062,0.6398