Folder: fsri_materials_database/01_Data/Composite_Deck_Board/HFM

Note: 01_Data/README.md
# Materials and Products Database
## 01_Data

Raw data generated from each apparatus are included here in plain-text format. The data is organized first by material, next by the short name of test apparatus used, and where applicable additional filtering by test settings.

### material.json

Each material directory contains a json file of the same name as the material. This file links the data stored in the repository as well as data and graphs produced by the accompanying scripts (__02_Scripts__) to the respective landing page for the material on the front-end website.

File: Composite_Deck_Board_Density_Wet_R1.csv
,Composite_Deck_Board_WET_1
Sample Mass [g],343.6
Sample Volume [cm3],319.4
Sample Density [kg/m3],1076

File: Composite_Deck_Board_Density_Wet_R2.csv
,Composite_Deck_Board_WET_2
Sample Mass [g],343.4
Sample Volume [cm3],306.4
Sample Density [kg/m3],1121

File: Composite_Deck_Board_Density_Wet_R3.csv
,Composite_Deck_Board_WET_3
Sample Mass [g],347.4
Sample Volume [cm3],312.3
Sample Density [kg/m3],1112

File: Composite_Deck_Board_Ignition_Temp_Properties.csv
Thermal Conductivity (W/m-K),0.233
Heat Capacity (J/kg-K),1565.0
Density (kg/m3),1103.0