Folder: fsri_materials_database/01_Data/Composite_Deck_Board/MCC

Note: 01_Data/README.md
# Materials and Products Database
## 01_Data

Raw data generated from each apparatus are included here in plain-text format. The data is organized first by material, next by the short name of test apparatus used, and where applicable additional filtering by test settings.

### material.json

Each material directory contains a json file of the same name as the material. This file links the data stored in the repository as well as data and graphs produced by the accompanying scripts (__02_Scripts__) to the respective landing page for the material on the front-end website.

File: Composite_Deck_Board_30K_min_210609_R2.txt
Sample ID:	C:\MCC\MCC Cal\Test\TREX_Board\TREX_Board_30_2.txt
Sample Weight (mg):	4.81
Heating Rate (C/s):	0.5
Combustor Temp (C):	900
N2 Flow Rate (cc/min):	80
O2 Flow Rate (cc/min):	20
Calibration File:	C:\MCC\MCC Cal\Coeff1 JN10440_30_210304.txt.txt
T Correction Coefficients:	0	1.024463	0
Time Shift (s):	14
*
Time (s)	Temperature (C)	N2 flow rate (cc/min)	O2 flow rate (cc/min)	Flow Rate (cc/min)	Oxygen (%)	HRR (W/g)	Heating rate (C/s)
-0.001	112.872	79.983	19.992	99.872	20.127	-0.127	0.003
7.500	112.819	79.981	19.992	99.874	20.127	-0.150	0.010
15.000	112.775	79.982	19.992	99.889	20.121	0.218	0.004
22.500	112.861	79.985	19.992	99.930	20.109	1.004	0.026
30.000	113.193	79.983	19.992	100.001	20.102	1.485	0.050
37.499	113.842	79.985	19.992	100.012	20.098	1.750	0.103
44.999	114.798	79.985	19.992	100.055	20.094	1.997	0.126
52.500	116.118	79.982	19.993	100.079	20.085	2.552	0.188
59.999	117.851	79.984	19.993	100.107	20.080	2.916	0.257
67.501	119.972	79.983	19.993	100.111	20.078	3.004	0.295
74.999	122.415	79.983	19.993	100.111	20.078	3.055	0.343
82.500	125.119	79.982	19.993	100.111	20.076	3.186	0.365
89.999	128.034	79.981	19.992	100.111	20.077	3.131	0.406
97.499	131.133	79.985	19.992	100.104	20.074	3.291	0.426
104.999	134.341	79.984	19.991	100.130	20.077	3.099	0.443
112.499	137.696	79.984	19.993	100.120	20.074	3.300	0.455
119.999	141.155	79.986	19.992	100.132	20.078	3.021	0.461
127.500	144.805	79.984	19.992	100.109	20.075	3.198	0.475
135.000	148.455	79.984	19.993	100.116	20.073	3.330	0.530
142.500	152.125	79.983	19.993	100.110	20.070	3.562	0.511
150.001	155.793	79.983	19.993	100.109	20.074	3.317	0.509
157.500	159.528	79.981	19.994	100.110	20.074	3.299	0.497
165.000	163.359	79.980	19.992	100.103	20.074	3.275	0.546
172.500	167.156	79.983	19.993	100.103	20.076	3.151	0.531
180.000	170.945	79.984	19.993	100.101	20.079	2.998	0.524
187.499	174.731	79.982	19.992	100.097	20.076	3.177	0.514
194.999	178.400	79.985	19.993	100.090	20.075	3.200	0.487
202.500	182.108	79.985	19.991	100.071	20.077	3.075	0.473
209.999	185.837	79.982	19.992	100.075	20.074	3.288	0.523
217.499	189.510	79.984	19.992	100.072	20.076	3.149	0.484
225.000	193.214	79.982	19.992	100.072	20.075	3.198	0.510
232.500	196.812	79.982	19.993	100.067	20.073	3.360	0.462
239.999	200.494	79.980	19.993	100.068	20.072	3.441	0.477
247.499	204.117	79.980	19.993	100.066	20.067	3.778	0.505
255.000	207.773	79.984	19.992	100.066	20.064	3.933	0.520
262.500	211.453	79.985	19.992	100.070	20.060	4.194	0.522
270.000	215.050	79.985	19.992	100.069	20.059	4.252	0.479
277.500	218.789	79.984	19.992	100.072	20.055	4.529	0.480
285.000	222.412	79.984	19.991	100.077	20.049	4.885	0.474
292.500	226.186	79.983	19.990	100.074	20.045	5.163	0.487
300.000	230.029	79.982	19.992	100.067	20.039	5.538	0.487
307.500	233.800	79.984	19.993	100.067	20.035	5.853	0.539
315.000	237.516	79.982	19.993	100.068	20.026	6.400	0.486
322.500	241.302	79.981	19.993	100.070	20.011	7.397	0.523
330.000	245.020	79.983	19.993	100.070	20.005	7.790	0.482
337.500	248.727	79.984	19.993	100.075	19.989	8.839	0.492
345.000	252.518	79.983	19.992	100.077	19.972	9.936	0.491
352.500	256.290	79.983	19.992	100.107	19.955	11.033	0.489
360.000	260.017	79.987	19.993	100.086	19.933	12.449	0.481
367.500	263.729	79.983	19.992	100.104	19.915	13.632	0.499
375.000	267.446	79.983	19.993	100.107	19.891	15.162	0.511
382.500	271.253	79.984	19.992	100.107	19.872	16.430	0.514
390.000	274.950	79.983	19.993	100.110	19.850	17.831	0.479
397.500	278.749	79.981	19.992	100.109	19.830	19.120	0.488
405.000	282.479	79.982	19.992	100.111	19.811	20.351	0.477
412.500	286.228	79.984	19.993	100.112	19.804	20.821	0.491
420.000	289.951	79.984	19.993	100.108	19.796	21.370	0.501
427.500	293.767	79.983	19.994	100.110	19.782	22.266	0.505
435.000	297.516	79.985	19.992	100.074	19.773	22.847	0.525
442.500	301.249	79.986	19.991	100.106	19.767	23.207	0.483
450.000	305.007	79.982	19.992	100.105	19.759	23.719	0.549
457.500	308.753	79.982	19.993	100.109	19.752	24.199	0.507
465.000	312.546	79.983	19.993	100.116	19.743	24.776	0.516
472.500	316.340	79.982	19.990	100.110	19.729	25.671	0.498
480.000	320.077	79.981	19.993	100.116	19.713	26.734	0.494
487.500	323.800	79.983	19.994	100.128	19.695	27.895	0.489
495.000	327.561	79.985	19.992	100.117	19.678	29.009	0.511
502.500	331.341	79.983	19.992	100.143	19.648	30.975	0.502
510.000	335.178	79.983	19.993	100.146	19.614	33.161	0.493
517.500	338.975	79.985	19.993	100.153	19.579	35.458	0.499
525.000	342.764	79.985	19.992	100.182	19.538	38.102	0.482
532.500	346.621	79.982	19.992	100.190	19.494	40.984	0.525
540.000	350.464	79.982	19.992	100.199	19.455	43.544	0.503
547.500	354.333	79.983	19.992	100.194	19.427	45.344	0.489
555.000	358.154	79.983	19.991	100.186	19.411	46.378	0.511
562.500	362.001	79.982	19.992	100.144	19.430	45.142	0.527
570.000	365.846	79.984	19.992	100.145	19.476	42.133	0.538
577.500	369.678	79.984	19.993	100.070	19.556	36.886	0.536
585.000	373.473	79.982	19.992	100.066	19.657	30.351	0.498
592.500	377.309	79.984	19.993	100.030	19.761	23.576	0.501
600.000	381.065	79.984	19.993	100.004	19.848	17.927	0.478
607.500	384.795	79.981	19.992	99.996	19.911	13.877	0.466
615.000	388.528	79.983	19.993	99.989	19.963	10.498	0.474
622.500	392.125	79.983	19.992	99.990	19.983	9.199	0.465
630.000	395.652	79.983	19.992	99.985	19.981	9.345	0.202
637.500	399.751	79.983	19.993	99.989	19.975	9.714	0.331
645.000	403.503	79.984	19.992	99.971	19.963	10.463	0.533
652.500	407.200	79.984	19.992	99.979	19.951	11.275	0.516
660.000	410.862	79.983	19.993	99.972	19.932	12.497	0.469
667.500	414.485	79.983	19.992	99.959	19.900	14.587	0.467
675.000	418.170	79.985	19.992	99.963	19.856	17.451	0.459
682.500	421.836	79.984	19.993	99.948	19.808	20.533	0.449
690.000	425.550	79.982	19.993	99.946	19.735	25.243	0.486
697.500	429.217	79.982	19.993	99.950	19.653	30.597	0.503
705.000	432.905	79.982	19.991	99.940	19.540	37.874	0.513
712.500	436.708	79.982	19.992	99.930	19.410	46.351	0.538
720.000	440.531	79.981	19.992	99.914	19.246	56.946	0.508
727.500	444.384	79.983	19.993	99.904	19.042	70.087	0.478
735.000	448.283	79.985	19.992	99.863	18.799	85.831	0.515
742.500	452.257	79.984	19.993	99.828	18.519	103.903	0.504
750.000	456.213	79.983	19.992	99.799	18.198	124.643	0.529
757.500	460.201	79.986	19.992	99.739	17.842	147.571	0.530
765.000	464.066	79.983	19.992	99.698	17.492	170.076	0.513
772.500	467.963	79.982	19.993	99.631	17.175	190.476	0.529
780.000	471.808	79.981	19.992	99.561	16.958	204.352	0.526
787.500	475.714	79.983	19.991	99.520	16.918	207.033	0.498
795.000	479.530	79.981	19.991	99.452	17.123	193.763	0.492
802.500	483.416	79.982	19.992	99.493	17.596	163.386	0.506
810.000	487.208	79.985	19.992	99.565	18.220	123.173	0.485
817.500	491.022	79.985	19.992	99.673	18.846	82.808	0.497
825.000	494.839	79.984	19.992	99.769	19.352	50.070	0.488
832.500	498.664	79.985	19.992	99.854	19.699	27.600	0.522
840.000	502.396	79.984	19.992	99.911	19.906	14.174	0.453
847.500	506.250	79.981	19.993	99.930	20.009	7.489	0.501
855.000	510.046	79.981	19.994	99.953	20.055	4.498	0.516
862.500	513.833	79.981	19.993	99.951	20.070	3.576	0.552
870.000	517.638	79.981	19.993	99.947	20.072	3.421	0.476
877.500	521.442	79.982	19.992	99.951	20.079	2.990	0.529
885.000	525.303	79.983	19.992	99.950	20.081	2.863	0.532
892.500	529.074	79.984	19.992	99.949	20.084	2.670	0.510
900.000	532.931	79.984	19.992	99.954	20.086	2.533	0.528
907.500	536.799	79.985	19.991	99.950	20.089	2.320	0.520
915.000	540.625	79.984	19.992	99.953	20.085	2.564	0.503
922.500	544.441	79.983	19.992	99.952	20.086	2.478	0.499
930.000	548.276	79.982	19.993	99.950	20.090	2.233	0.496
937.501	552.167	79.982	19.992	99.953	20.091	2.214	0.535
945.000	556.009	79.982	19.994	99.949	20.090	2.219	0.489
952.500	559.849	79.981	19.993	99.947	20.085	2.603	0.518
960.000	563.621	79.984	19.993	99.953	20.092	2.117	0.475
967.500	567.343	79.985	19.992	99.953	20.086	2.483	0.448
975.000	571.165	79.984	19.992	99.953	20.094	2.013	0.474
982.500	575.094	79.984	19.991	99.952	20.089	2.335	0.534
990.000	578.927	79.986	19.991	99.950	20.090	2.219	0.501
997.500	582.755	79.984	19.992	99.949	20.093	2.036	0.514
1005.000	586.550	79.982	19.993	99.950	20.096	1.841	0.508
1012.500	590.375	79.983	19.993	99.950	20.090	2.225	0.504
1020.000	594.218	79.982	19.992	99.952	20.095	1.943	0.534
1027.499	598.072	79.982	19.993	99.954	20.093	2.079	0.518
1035.000	601.899	79.981	19.993	99.952	20.094	2.019	0.509
1042.499	605.756	79.983	19.992	99.952	20.096	1.844	0.511
1049.999	609.633	79.983	19.992	99.954	20.098	1.730	0.505
1057.499	613.491	79.983	19.991	99.950	20.094	2.020	0.541
1064.999	617.423	79.984	19.992	99.949	20.096	1.844	0.517
1072.499	621.348	79.984	19.992	99.944	20.099	1.688	0.530
1079.999	625.207	79.983	19.992	99.952	20.097	1.820	0.542
1087.499	629.075	79.982	19.993	99.957	20.099	1.647	0.536
1095.000	632.918	79.983	19.994	99.949	20.097	1.770	0.552
1102.499	636.765	79.981	19.992	99.953	20.098	1.725	0.508
1109.999	640.539	79.983	19.993	99.954	20.103	1.404	0.482
1117.499	644.203	79.983	19.994	99.945	20.102	1.487	0.471
1124.999	647.998	79.984	19.992	99.947	20.102	1.496	0.494
1132.499	651.714	79.983	19.992	99.948	20.100	1.626	0.475
1140.000	655.545	79.984	19.991	99.948	20.100	1.609	0.527
1147.500	659.324	79.986	19.992	99.950	20.105	1.302	0.506
1154.999	663.194	79.981	19.992	99.948	20.109	1.019	0.480
1162.499	667.071	79.984	19.992	99.951	20.103	1.390	0.523
1169.999	670.848	79.983	19.992	99.954	20.109	1.047	0.480
1177.499	674.734	79.983	19.994	99.936	20.104	1.320	0.531
1184.999	678.480	79.983	19.993	99.948	20.102	1.487	0.467
1192.499	682.242	79.983	19.993	99.944	20.103	1.401	0.498
1199.999	686.064	79.984	19.993	99.936	20.103	1.432	0.501
1207.499	689.828	79.983	19.993	99.949	20.101	1.563	0.499
1214.999	693.621	79.985	19.992	99.941	20.106	1.197	0.516
1222.499	697.305	79.986	19.992	99.948	20.102	1.448	0.470
1229.999	701.069	79.985	19.992	99.951	20.105	1.286	0.517
1237.500	704.756	79.982	19.992	99.942	20.105	1.265	0.473
1244.999	708.549	79.984	19.991	99.948	20.106	1.209	0.513
1252.500	712.270	79.984	19.992	99.943	20.103	1.394	0.484
1259.999	716.129	79.983	19.993	99.946	20.105	1.299	0.510
1267.500	719.893	79.981	19.993	99.950	20.106	1.207	0.516
1275.000	723.692	79.983	19.992	99.941	20.105	1.302	0.503
1282.499	727.489	79.982	19.993	99.951	20.105	1.302	0.524
1289.999	731.261	79.983	19.993	99.950	20.107	1.176	0.507
1297.499	735.043	79.984	19.992	99.948	20.103	1.436	0.520
1304.999	738.787	79.986	19.992	99.947	20.103	1.436	0.478
1312.499	742.537	79.982	19.993	99.948	20.101	1.533	0.506
1314.499	743.558	79.983	19.993	99.949	20.102	1.447	0.483

File: Composite_Deck_Board_30K_min_210609_R3.txt
Sample ID:	C:\MCC\MCC Cal\Test\TREX_Board\TREX_Board_30_3.txt
Sample Weight (mg):	4.32
Heating Rate (C/s):	0.5
Combustor Temp (C):	900
N2 Flow Rate (cc/min):	80
O2 Flow Rate (cc/min):	20
Calibration File:	C:\MCC\MCC Cal\Coeff1 JN10440_30_210304.txt.txt
T Correction Coefficients:	0	1.024463	0
Time Shift (s):	14
*
Time (s)	Temperature (C)	N2 flow rate (cc/min)	O2 flow rate (cc/min)	Flow Rate (cc/min)	Oxygen (%)	HRR (W/g)	Heating rate (C/s)
0.000	113.566	79.982	19.993	99.850	20.141	-0.004	-0.002
7.500	113.556	79.985	19.993	99.847	20.141	0.027	-0.013
15.000	113.491	79.983	19.993	99.867	20.141	-0.018	0.015
22.500	113.407	79.983	19.992	99.924	20.130	0.814	-0.009
30.000	113.667	79.985	19.993	99.980	20.110	2.248	0.055
37.500	114.251	79.982	19.993	100.065	20.095	3.328	0.093
45.000	115.369	79.981	19.991	100.073	20.091	3.614	0.186
52.500	116.914	79.983	19.992	100.077	20.088	3.848	0.227
60.001	118.757	79.982	19.993	100.071	20.088	3.856	0.265
67.501	120.901	79.983	19.993	100.070	20.089	3.776	0.259
75.001	123.277	79.983	19.991	100.098	20.089	3.769	0.309
82.500	125.942	79.984	19.993	100.108	20.082	4.261	0.366
90.001	128.793	79.983	19.995	100.114	20.081	4.351	0.378
97.500	131.891	79.983	19.993	100.109	20.080	4.455	0.413
105.000	135.077	79.983	19.991	100.114	20.080	4.400	0.415
112.500	138.448	79.983	19.993	100.114	20.077	4.667	0.449
120.000	141.880	79.983	19.993	100.111	20.078	4.595	0.441
127.500	145.465	79.980	19.992	100.111	20.082	4.253	0.453
135.000	149.103	79.983	19.991	100.107	20.080	4.416	0.501
142.500	152.825	79.982	19.993	100.111	20.080	4.398	0.496
150.000	156.491	79.983	19.993	100.106	20.081	4.363	0.516
157.500	160.209	79.984	19.993	100.103	20.079	4.502	0.497
165.000	164.002	79.983	19.993	100.092	20.079	4.497	0.483
172.500	167.772	79.983	19.993	100.099	20.080	4.449	0.471
180.000	171.539	79.983	19.993	100.096	20.079	4.490	0.467
187.500	175.324	79.984	19.992	100.089	20.074	4.852	0.522
195.001	179.043	79.985	19.993	100.085	20.078	4.544	0.491
202.500	182.770	79.982	19.992	100.075	20.076	4.679	0.504
210.001	186.518	79.981	19.992	100.068	20.076	4.726	0.492
217.500	190.199	79.982	19.992	100.065	20.074	4.822	0.471
225.000	193.934	79.981	19.992	100.067	20.076	4.675	0.488
232.500	197.579	79.982	19.992	100.069	20.071	5.040	0.511
240.000	201.203	79.982	19.992	100.068	20.069	5.185	0.464
247.500	204.869	79.984	19.992	100.067	20.067	5.375	0.505
255.000	208.504	79.982	19.993	100.070	20.063	5.677	0.490
262.500	212.139	79.985	19.993	100.066	20.062	5.744	0.475
270.000	215.822	79.984	19.993	100.062	20.058	6.001	0.473
277.500	219.538	79.984	19.993	100.063	20.055	6.209	0.505
285.000	223.275	79.982	19.992	100.065	20.046	6.890	0.485
292.500	226.969	79.983	19.992	100.068	20.044	7.006	0.474
300.000	230.764	79.982	19.991	100.079	20.042	7.179	0.462
307.500	234.494	79.982	19.992	100.077	20.031	7.940	0.460
315.000	238.277	79.981	19.991	100.072	20.020	8.748	0.479
322.500	242.006	79.985	19.992	100.068	20.015	9.152	0.488
330.000	245.742	79.984	19.992	100.073	20.002	10.071	0.500
337.500	249.500	79.984	19.993	100.080	19.991	10.842	0.506
345.000	253.222	79.984	19.992	100.078	19.975	12.018	0.497
352.500	256.976	79.984	19.992	100.094	19.954	13.531	0.523
360.000	260.647	79.981	19.993	100.095	19.931	15.163	0.494
367.500	264.357	79.982	19.992	100.107	19.909	16.761	0.476
375.000	268.108	79.982	19.991	100.109	19.887	18.376	0.513
382.500	271.856	79.983	19.992	100.112	19.867	19.797	0.498
390.000	275.633	79.981	19.992	100.111	19.851	20.990	0.529
397.500	279.401	79.984	19.992	100.106	19.832	22.352	0.484
405.000	283.205	79.985	19.991	100.106	19.822	23.100	0.502
412.500	287.022	79.984	19.992	100.107	19.805	24.322	0.492
420.000	290.862	79.984	19.992	100.105	19.800	24.692	0.479
427.500	294.639	79.985	19.993	100.107	19.794	25.098	0.529
435.000	298.459	79.982	19.993	100.108	19.786	25.644	0.492
442.500	302.256	79.982	19.992	100.108	19.778	26.222	0.514
450.000	306.044	79.984	19.993	100.106	19.773	26.644	0.507
457.500	309.930	79.983	19.992	100.105	19.766	27.116	0.622
465.000	313.603	79.983	19.992	100.105	19.756	27.815	0.482
472.500	317.276	79.982	19.992	100.112	19.746	28.594	0.483
480.000	321.018	79.984	19.992	100.113	19.730	29.767	0.494
487.500	324.701	79.984	19.992	100.129	19.715	30.820	0.471
495.000	328.492	79.983	19.993	100.139	19.692	32.506	0.498
502.500	332.235	79.985	19.992	100.147	19.665	34.433	0.505
510.000	336.013	79.985	19.992	100.151	19.637	36.494	0.525
517.500	339.745	79.984	19.992	100.149	19.603	38.900	0.525
525.000	343.483	79.983	19.994	100.164	19.567	41.574	0.492
532.500	347.255	79.982	19.993	100.181	19.527	44.474	0.488
540.000	351.106	79.984	19.992	100.183	19.493	46.929	0.518
547.500	354.891	79.983	19.993	100.187	19.464	49.020	0.503
555.000	358.682	79.984	19.992	100.187	19.455	49.637	0.507
562.500	362.446	79.985	19.990	100.161	19.478	47.963	0.481
570.000	366.250	79.983	19.992	100.144	19.526	44.438	0.501
577.500	370.069	79.986	19.992	100.102	19.598	39.261	0.509
585.000	373.935	79.986	19.992	100.067	19.692	32.445	0.507
592.500	377.760	79.986	19.993	100.026	19.783	25.887	0.517
600.000	381.581	79.984	19.992	100.013	19.863	20.102	0.522
607.500	385.408	79.984	19.992	100.003	19.923	15.735	0.511
615.000	389.229	79.982	19.992	100.007	19.954	13.502	0.529
622.501	392.999	79.982	19.992	100.000	19.969	12.435	0.530
630.000	396.760	79.983	19.992	99.993	19.974	12.089	0.486
637.500	400.567	79.984	19.991	100.000	19.965	12.728	0.492
645.000	404.354	79.985	19.992	99.989	19.956	13.387	0.484
652.500	408.129	79.984	19.992	99.989	19.940	14.522	0.533
660.000	411.925	79.986	19.991	99.989	19.917	16.194	0.508
667.500	415.658	79.985	19.992	99.988	19.885	18.465	0.523
675.000	419.417	79.983	19.993	99.988	19.844	21.448	0.503
682.500	423.143	79.983	19.993	99.990	19.788	25.487	0.477
690.000	426.910	79.984	19.993	99.990	19.722	30.232	0.492
697.501	430.706	79.983	19.992	99.991	19.634	36.616	0.494
705.001	434.531	79.983	19.993	99.959	19.529	44.213	0.528
712.500	438.296	79.983	19.995	99.955	19.400	53.489	0.522
720.000	442.066	79.986	19.993	99.944	19.235	65.377	0.508
727.500	445.862	79.985	19.992	99.917	19.043	79.229	0.495
735.000	449.648	79.986	19.992	99.899	18.812	95.841	0.516
742.500	453.411	79.985	19.993	99.873	18.551	114.635	0.512
750.000	457.257	79.984	19.990	99.842	18.253	136.062	0.496
757.500	461.058	79.985	19.991	99.795	17.938	158.710	0.497
765.000	464.898	79.984	19.994	99.755	17.629	180.845	0.532
772.500	468.713	79.984	19.993	99.700	17.362	199.908	0.521
780.001	472.586	79.984	19.993	99.637	17.190	212.158	0.555
787.500	476.463	79.983	19.993	99.587	17.184	212.595	0.507
795.000	480.294	79.984	19.994	99.553	17.420	195.706	0.509
802.500	484.132	79.984	19.992	99.566	17.881	162.733	0.516
810.000	487.931	79.984	19.992	99.647	18.465	120.812	0.497
817.500	491.751	79.983	19.991	99.738	19.029	80.185	0.507
825.000	495.651	79.987	19.992	99.836	19.459	49.203	0.490
832.500	499.542	79.985	19.992	99.904	19.749	28.322	0.515
840.000	503.316	79.984	19.993	99.950	19.915	16.361	0.457
847.500	507.202	79.984	19.992	99.973	19.991	10.842	0.478
855.000	511.046	79.984	19.993	99.987	20.017	8.962	0.519
862.500	514.916	79.982	19.993	99.989	20.028	8.200	0.502
870.000	518.744	79.984	19.993	99.991	20.030	8.025	0.510
877.500	522.615	79.984	19.992	99.988	20.028	8.186	0.525
885.000	526.453	79.984	19.993	99.989	20.028	8.145	0.482
892.500	530.329	79.984	19.993	99.984	20.033	7.783	0.493
900.000	534.213	79.985	19.991	99.980	20.035	7.652	0.534
907.500	538.107	79.984	19.992	99.981	20.035	7.660	0.518
915.000	541.954	79.984	19.991	99.988	20.034	7.743	0.512
922.500	545.754	79.983	19.991	99.986	20.034	7.763	0.502
930.000	549.568	79.983	19.992	99.989	20.037	7.503	0.486
937.500	553.353	79.983	19.993	99.987	20.032	7.859	0.511
945.000	557.165	79.983	19.994	99.990	20.038	7.431	0.510
952.500	560.973	79.983	19.994	99.982	20.039	7.409	0.534
960.000	564.770	79.986	19.992	99.981	20.035	7.644	0.520
967.500	568.570	79.983	19.994	99.975	20.034	7.767	0.507
975.000	572.344	79.984	19.993	99.978	20.032	7.862	0.486
982.500	576.226	79.986	19.992	99.976	20.036	7.615	0.474
990.000	580.032	79.984	19.993	99.970	20.038	7.420	0.469
997.500	583.920	79.984	19.993	99.987	20.039	7.404	0.516
1005.000	587.740	79.982	19.993	99.989	20.036	7.620	0.483
1012.500	591.586	79.983	19.991	99.986	20.038	7.435	0.501
1020.000	595.427	79.982	19.992	99.988	20.038	7.421	0.516
1027.501	599.250	79.981	19.993	99.981	20.035	7.687	0.523
1035.001	603.066	79.985	19.993	99.982	20.033	7.809	0.523
1042.501	606.842	79.983	19.992	99.982	20.038	7.462	0.481
1050.000	610.613	79.983	19.993	99.974	20.036	7.596	0.483
1057.500	614.481	79.986	19.993	99.976	20.036	7.617	0.511
1065.000	618.284	79.987	19.993	99.982	20.038	7.415	0.520
1072.500	622.111	79.986	19.992	99.982	20.041	7.226	0.516
1080.001	625.941	79.983	19.992	99.970	20.039	7.394	0.513
1087.500	629.820	79.984	19.992	99.986	20.040	7.270	0.518
1095.000	633.675	79.984	19.992	99.973	20.034	7.702	0.544
1102.500	637.528	79.985	19.992	99.969	20.037	7.515	0.501
1110.000	641.388	79.984	19.993	99.986	20.038	7.440	0.531
1117.500	645.195	79.985	19.992	99.979	20.039	7.401	0.488
1125.000	649.007	79.983	19.993	99.972	20.037	7.549	0.497
1132.500	652.825	79.982	19.993	99.964	20.039	7.393	0.506
1140.001	656.629	79.984	19.993	99.978	20.040	7.307	0.535
1147.500	660.450	79.985	19.993	99.983	20.039	7.341	0.527
1155.001	664.234	79.985	19.993	99.963	20.041	7.267	0.506
1162.501	667.996	79.985	19.992	99.978	20.042	7.188	0.510
1170.000	671.886	79.987	19.993	99.977	20.043	7.080	0.522
1177.500	675.724	79.983	19.993	99.962	20.042	7.155	0.538
1185.001	679.481	79.983	19.992	99.958	20.037	7.496	0.467
1192.500	683.251	79.985	19.991	99.983	20.040	7.274	0.478
1200.001	687.042	79.988	19.992	99.965	20.040	7.284	0.534
1207.500	690.756	79.985	19.992	99.989	20.041	7.207	0.523
1215.000	694.507	79.987	19.993	99.971	20.040	7.272	0.516
1222.500	698.345	79.990	19.992	99.970	20.041	7.205	0.541
1230.001	702.121	79.984	19.993	99.974	20.039	7.409	0.509
1237.500	705.931	79.983	19.993	99.969	20.037	7.487	0.513
1245.000	709.670	79.984	19.992	99.980	20.041	7.237	0.489
1252.500	713.410	79.984	19.992	99.965	20.042	7.171	0.495
1260.000	717.350	79.981	19.992	99.969	20.038	7.435	0.554
1267.500	721.179	79.984	19.993	99.966	20.039	7.370	0.504
1275.000	725.003	79.984	19.992	99.963	20.039	7.348	0.503
1282.500	728.837	79.985	19.992	99.963	20.036	7.564	0.518
1290.000	732.661	79.985	19.993	99.951	20.041	7.239	0.530
1297.500	736.503	79.987	19.992	99.958	20.038	7.452	0.540
1305.000	740.360	79.984	19.992	99.970	20.036	7.583	0.542
1311.501	743.694	79.983	19.992	100.020	20.038	7.450	0.525