Folder: fsri_materials_database/01_Data/Cotton_Sheets/Cone (part 3)

File: Cotton_Sheet_Cone_HF75Scan_220429_R2.csv
Names,Time,Stack TC,Smoke TC,Exh Press,Smoke Comp,Smoke Meas,CO Meter,CO2 Meter,O2 Meter,Sample Mass,Ext Coeff,Start Test,Flame Verif
Chan Gain,,500,500,1,1,1,1,1,1,1,1,1.0,1.0
Offset,,0,0,0.138979,0,0,0,0,0,0,0,0.0,0.0
Gain,,1,1,25.011,14.099,15.1965,1,1,1,1.00087,0.986176,1.0,1.0
Units,sec,C,C,Pa,%,%,%,%,%,g,/m,,
Baseline,,39.5001,41.019,144.643,105.963,103.468,0.000754016,0.0491688,21.0238,-836.433,0.206181,,
6,1.25,36.5932,37.7092,130.676,105.54,105.347,0.00177416,0.10723,20.8638,178.705,0.0158387,0.0,1.0
12,2.75,36.7661,38.6028,104.312,105.536,108.154,0.00244099,0.275817,20.6978,178.255,-0.212008,0.0,1.0
18,4.25,39.705,40.4381,125.88,105.493,105.428,0.0032295,0.420695,20.6096,178.035,0.00536903,0.0,1.0
24,5.75,42.8337,43.238,139.477,105.46,103.953,0.00431861,0.456061,20.6184,178.085,0.124554,0.0,1.0
30,7.25,43.0618,44.422,141.965,105.461,103.126,0.00535109,0.390894,20.7125,178.015,0.193746,0.0,0.0
36,8.75,42.9728,45.0722,140.014,105.435,103.237,0.00611972,0.308695,20.7987,177.995,0.182265,0.0,0.0
42,10.25,43.0986,44.6874,140.351,105.433,103.365,0.00639896,0.233994,20.8585,177.995,0.171402,0.0,0.0
48,11.75,42.3996,44.9302,144.631,105.411,103.163,0.00623013,0.180214,20.9055,177.965,0.186469,0.0,0.0
54,13.25,43.0602,45.0349,144.185,105.412,102.757,0.00557664,0.142639,20.9427,177.975,0.220635,0.0,0.0
60,14.75,41.9425,44.2075,140.913,105.395,103.206,0.00488229,0.113101,20.9684,177.965,0.181508,0.0,0.0
66,16.25,42.1455,43.9353,146.873,105.397,103.096,0.00392079,0.0924136,20.9864,177.945,0.190941,0.0,0.0
72,17.75,42.1162,44.2148,145.913,105.369,103.08,0.0030673,0.0787981,20.9997,177.945,0.189968,0.0,0.0
78,19.25,41.5027,43.6098,143.162,105.373,102.776,0.00235594,0.0690793,21.0087,177.915,0.215856,0.0,0.0
84,20.75,41.2597,43.4919,147.306,105.357,102.741,0.00182558,0.0624253,21.0151,177.905,0.217512,0.0,0.0
90,22.25,41.2897,43.0432,145.592,105.381,102.897,0.00149161,0.057891,21.0191,177.915,0.206347,0.0,0.0
96,23.75,41.3689,42.6936,144.531,105.358,103.057,0.00133384,0.0548871,21.0221,177.915,0.191071,0.0,0.0
102,25.25,41.8038,43.229,143.76,105.365,103.018,0.00126427,0.0526796,21.0239,177.895,0.194906,0.0,0.0
108,26.75,40.7739,43.1423,142.552,105.368,102.757,0.00119269,0.051252,21.0249,177.895,0.216992,0.0,0.0
114,28.25,40.79,43.0515,143.5,105.375,102.739,0.00107477,0.050202,21.0264,177.935,0.219116,0.0,0.0
120,29.75,40.1416,42.5841,144.719,105.362,103.136,0.000986529,0.0494983,21.0273,177.915,0.184699,0.0,0.0
126,31.25,41.1548,42.8794,142.223,105.364,102.935,0.000906552,0.0490317,21.0278,177.915,0.201809,0.0,0.0
132,32.75,40.5141,42.6334,143.332,105.366,102.98,0.000803083,0.0486679,21.028,177.895,0.198135,0.0,0.0
138,34.25,40.8814,42.2972,145.865,105.375,102.52,0.000682487,0.0484265,21.0271,177.895,0.237609,0.0,0.0
144,35.75,40.7337,42.6165,143.793,105.38,102.865,0.000609907,0.0481614,21.0266,177.925,0.209003,0.0,0.0
150,37.25,40.569,42.452,144.523,105.379,102.522,0.00062045,0.0479782,21.0263,177.905,0.237729,0.0,0.0
156,38.75,40.2853,42.1851,143.774,105.391,103.138,0.000656176,0.0477784,21.0268,177.895,0.186941,0.0,0.0
162,40.25,39.7361,41.9846,142.719,105.378,102.898,0.000624746,0.0475409,21.0275,177.895,0.205945,0.0,0.0
168,41.75,40.7997,42.232,141.537,105.397,103.279,0.000581782,0.047448,21.0279,177.895,0.175658,0.0,0.0
174,43.25,40.3333,41.9907,149.688,105.397,102.775,0.000621528,0.0472761,21.0281,177.865,0.217911,0.0,0.0
180,44.75,40.4296,41.7582,143.835,105.418,103.004,0.000707381,0.0471006,21.0284,177.915,0.20038,0.0,0.0
186,46.25,40.0709,41.5902,146.302,105.414,102.855,0.000752728,0.047047,21.0295,177.885,0.212612,0.0,0.0
192,47.75,39.9206,42.0766,140.693,105.46,102.871,0.000767297,0.0469205,21.03,177.865,0.215025,0.0,0.0
198,49.25,39.5467,41.4767,142.676,105.454,102.643,0.000762357,0.0468313,21.0303,177.875,0.233664,0.0,0.0
204,50.75,39.6275,41.8495,141.743,105.478,103.104,0.000725226,0.0467792,21.0305,177.845,0.196916,0.0,0.0
210,52.25,40.2473,41.8379,145.191,105.491,103.042,0.000696897,0.0467426,21.0306,177.825,0.203186,0.0,0.0
216,53.75,39.4179,41.7302,148.413,105.509,102.863,0.000724253,0.0467367,21.0306,177.815,0.219714,0.0,0.0
222,55.25,39.5504,41.6729,145.857,105.518,103.018,0.000751979,0.0467921,21.0306,177.835,0.207434,0.0,0.0
228,56.75,40.0022,41.7775,143.047,105.547,102.767,0.00072355,0.0467037,21.0306,177.805,0.23093,0.0,0.0
234,58.25,39.3709,41.101,145.163,105.548,103.001,0.000689516,0.0465753,21.0306,177.835,0.211383,0.0,0.0
240,59.75,40.1388,41.5928,142.113,105.569,103.102,0.000711338,0.0464808,21.0306,177.835,0.204585,0.0,0.0
246,61.25,39.5421,41.5264,145.982,105.613,103.096,0.000731637,0.0464505,21.0308,177.805,0.208651,0.0,0.0
252,62.75,39.6547,41.7191,142.181,105.621,102.776,0.0007068,0.0464052,21.031,177.815,0.236216,0.0,0.0
258,64.25,39.8843,41.4472,148.2,105.658,103.56,0.000664303,0.0462965,21.0312,177.805,0.173489,0.0,0.0
264,65.75,38.8959,41.5225,146.867,105.662,103.257,0.000627632,0.0462717,21.0312,177.835,0.199175,0.0,0.0
270,67.25,39.3999,41.1792,143.474,105.687,103.525,0.000631318,0.0463216,21.0313,177.815,0.178751,0.0,0.0
276,68.75,39.2917,41.8194,146.604,105.716,103.334,0.00066913,0.0463367,21.0313,177.785,0.19713,0.0,0.0
282,70.25,39.0888,41.3209,141.439,105.748,103.323,0.00072072,0.0462795,21.0313,177.825,0.200738,0.0,0.0
288,71.75,39.1003,41.5109,146.992,105.756,103.391,0.000771935,0.0463153,21.0313,177.835,0.195669,0.0,0.0
294,73.25,39.5772,41.3755,147.848,105.774,103.238,0.000794891,0.046275,21.0313,177.805,0.209958,0.0,0.0
300,74.75,38.9533,41.4846,144.375,105.794,103.639,0.000760097,0.0462694,21.0313,177.805,0.178066,0.0,0.0
306,76.25,39.7985,40.7321,140.878,105.823,103.173,0.00070963,0.046275,21.0313,177.785,0.219375,0.0,0.0
312,77.75,39.4322,41.1147,145.208,105.83,103.351,0.000628007,0.0462659,21.0313,177.785,0.205058,0.0,0.0
318,79.25,39.0026,40.7586,143.564,105.876,103.373,0.000559003,0.0463801,21.0313,177.794,0.206953,0.0,0.0
324,80.75,39.1738,40.8894,142.572,105.883,103.116,0.000542063,0.0465165,21.0313,177.774,0.229082,0.0,0.0
330,82.25,38.867,41.1366,144.326,105.926,103.565,0.000556458,0.0466765,21.0313,177.774,0.194943,0.0,0.0
336,83.75,39.059,41.0932,141.504,105.91,103.158,0.000569066,0.0467956,21.0313,177.785,0.227761,0.0,0.0
342,85.25,39.3874,40.7839,143.893,105.946,103.368,0.000552001,0.046971,21.0303,177.754,0.213109,0.0,0.0
348,86.75,39.4557,40.8197,143.998,105.947,103.4,0.000526958,0.0470713,21.0297,177.774,0.210506,0.0,0.0
354,88.25,38.8877,40.1716,148.211,105.978,103.183,0.000513842,0.0471176,21.0294,177.754,0.231212,0.0,0.0
360,89.75,39.783,40.8714,144.171,105.967,103.931,0.000469576,0.0472543,21.0292,177.754,0.16788,0.0,0.0
366,91.25,39.2043,40.9198,146.766,105.998,103.723,0.000418962,0.0473989,21.0291,177.774,0.187719,0.0,0.0
372,92.75,38.6815,40.1488,144.518,106.001,103.179,0.00041167,0.0474868,21.0284,177.744,0.233454,0.0,0.0
378,94.25,38.8641,41.0577,144.528,106.023,103.648,0.000413696,0.0476071,21.0284,177.734,0.195951,0.0,0.0
384,95.75,39.2237,40.9735,144.295,106.02,103.739,0.000394271,0.0478173,21.028,177.734,0.18816,0.0,0.0
390,97.25,39.1737,40.8194,146.846,106.033,103.407,0.000386724,0.0479426,21.0277,177.724,0.216982,0.0,0.0
396,98.75,39.0371,40.8899,145.904,106.043,103.736,0.000422427,0.0479998,21.0272,177.764,0.190213,0.0,0.0
402,100.25,39.1479,41.2847,142.987,106.056,103.756,0.000552874,0.0479122,21.027,177.734,0.189639,0.0,0.0
408,101.75,39.4107,41.1454,144.723,106.062,103.593,0.000683408,0.0478864,21.0268,177.754,0.203755,0.0,0.0
414,103.25,39.3809,40.5814,146.708,106.083,103.729,0.000790967,0.0479323,21.0268,177.754,0.19417,0.0,0.0
420,104.75,39.1497,40.9042,142.851,106.095,103.455,0.000914153,0.0478912,21.0267,177.734,0.217967,0.0,0.0
426,106.25,39.2772,40.8008,142.731,106.097,103.777,0.00103176,0.047854,21.0267,177.694,0.191198,0.0,0.0
432,107.75,39.4949,40.7905,145.036,106.108,103.801,0.00108725,0.047776,21.0277,177.704,0.190099,0.0,0.0
438,109.25,39.2209,40.6507,146.429,106.127,103.788,0.00105635,0.0476416,21.029,177.714,0.192838,0.0,0.0
444,110.75,39.1827,40.0021,145.616,106.131,103.768,0.00100219,0.0476577,21.0298,177.724,0.194742,0.0,0.0
450,112.25,39.6422,40.5134,145.48,106.138,103.647,0.000970689,0.0478261,21.0302,177.704,0.205473,0.0,0.0
456,113.75,39.6923,40.6974,146.54,106.166,103.596,0.000999247,0.047911,21.0296,177.684,0.212007,0.0,0.0
462,115.25,38.7743,40.7212,143.487,106.183,104.001,0.00102373,0.0479543,21.0289,177.684,0.179629,0.0,0.0
468,116.75,39.1796,40.5872,146.443,106.191,103.255,0.00095719,0.0480443,21.0282,177.704,0.24259,0.0,0.0
474,118.25,39.6307,40.996,144.725,106.195,103.987,0.000837058,0.0482473,21.0278,177.694,0.181733,0.0,0.0
480,119.75,39.1051,40.7792,146.064,106.216,103.747,0.000747038,0.0484612,21.0276,177.674,0.203458,0.0,0.0
486,121.25,38.9895,40.43,141.364,106.239,103.838,0.000750581,0.0485667,21.0275,177.664,0.197704,0.0,0.0
492,122.75,39.309,40.1728,142.74,106.24,103.966,0.000805746,0.0486139,21.0275,177.674,0.18719,0.0,0.0
498,124.25,39.4792,40.8418,143.045,106.24,103.521,,0.0485795,,177.674,0.224311,0.0,0.0
504,125.75,39.4791,40.6036,143.337,106.245,103.861,,0.048474,,177.664,0.196334,0.0,0.0
510,127.25,39.2078,41.242,142.934,106.24,104.269,,,,177.654,0.161952,0.0,0.0
516,128.75,39.1767,40.7243,143.055,106.262,104.195,,,,177.644,0.169937,0.0,0.0
522,130.25,38.8922,41.089,139.42,106.266,103.739,,,,177.644,0.208253,0.0,0.0
528,131.75,39.0004,40.512,144.464,106.278,103.79,,,,177.644,0.204907,0.0,0.0
534,133.25,39.9079,41.2983,143.722,106.273,104.079,,,,177.614,0.180512,0.0,0.0
536,133.75,39.3495,40.7747,143.983,106.285,103.982,,,,177.624,0.189518,0.0,0.0