Folder: fsri_materials_database/01_Data/Cotton_Sheets/Cone

Note: 01_Data/README.md
# Materials and Products Database
## 01_Data

Raw data generated from each apparatus are included here in plain-text format. The data is organized first by material, next by the short name of test apparatus used, and where applicable additional filtering by test settings.

### material.json

Each material directory contains a json file of the same name as the material. This file links the data stored in the repository as well as data and graphs produced by the accompanying scripts (__02_Scripts__) to the respective landing page for the material on the front-end website.

File: Cotton_Sheet_Cone_HF25Scalar_220429_R2.csv
LABORATORY,FSRI
TEST IDENT,Cotton_Sheet_HF_25_2
OPERATOR,Dow
MATERIAL,Cotton Sheet
ORIENTATION,Horizontal
HEAT FLUX,25
SURF AREA,0.00884
C FACTOR,0.0415476
SPEC HOLDER DIFF,-566
SPECIMEN MASS,1.1
SCAN TIME,0.25
O2 DELAY TIME,11
CO DELAY TIME,11
CO2 DELAY TIME,8
FLOW FACTOR,1
SCAN COUNT,595
TIME TO IGN,10.75
END OF TEST SCAN,115
END OF TEST TIME,28.75
TEST STATUS,1
PRE TEST CMT,Thickness: 0.19 mm; with frame; with calcium silicate substrate

File: Cotton_Sheet_Cone_HF25Scan_220429_R1.csv
Names,Time,Stack TC,Smoke TC,Exh Press,Smoke Comp,Smoke Meas,CO Meter,CO2 Meter,O2 Meter,Sample Mass,Ext Coeff,Start Test,Flame Verif
Chan Gain,,500,500,1,1,1,1,1,1,1,1,1.0,1.0
Offset,,0,0,0.138979,0,0,0,0,0,0,0,0.0,0.0
Gain,,1,1,25.011,14.099,15.1965,1,1,1,1.00087,0.986176,1.0,1.0
Units,sec,C,C,Pa,%,%,%,%,%,g,/m,,
Baseline,,16.7992,17.2332,158.386,105.871,101.981,0.000911645,0.0482146,21.0306,-833.698,0.323797,,
6,1.25,15.4459,15.1017,159.688,105.368,101.508,0.000718897,0.0521396,21.0261,187.263,0.322891,0.0,0.0
12,2.75,15.2158,15.0574,153.234,105.386,101.246,0.000826575,0.0520991,21.0264,187.233,0.346699,0.0,0.0
18,4.25,15.0463,15.2778,162.338,105.408,101.393,0.000949251,0.0520734,21.0265,187.223,0.335983,0.0,0.0
24,5.75,15.3407,15.595,155.223,105.428,101.266,0.00103414,0.0520106,21.0253,187.203,0.348455,0.0,0.0
30,7.25,15.2854,15.4529,156.964,105.435,100.807,0.00109456,0.0543487,21.0194,187.213,0.388286,0.0,0.0
36,8.75,15.5712,15.8423,153.134,105.449,101.667,0.00116886,0.0750881,21.0002,187.133,0.315944,0.0,1.0
42,10.25,15.7038,16.0524,146.313,105.458,103.41,0.00132934,0.134645,20.9542,187.023,0.169649,0.0,1.0
48,11.75,16.3213,16.8782,141.987,105.481,104.06,0.00156314,0.194852,20.8723,186.842,0.117338,0.0,1.0
54,13.25,17.4797,17.5223,144.141,105.481,104.56,0.00177536,0.263538,20.7946,186.622,0.0758769,0.0,1.0
60,14.75,18.4626,18.0859,140.891,105.477,104.115,0.00195562,0.305077,20.7533,186.512,0.112429,0.0,0.0
66,16.25,19.6546,19.0111,144.929,105.492,103.177,0.0022632,0.306345,20.7408,186.392,0.191935,0.0,0.0
72,17.75,20.5187,20.085,151.69,105.483,102.091,0.00277612,0.274848,20.77,186.402,0.282705,0.0,0.0
78,19.25,20.6683,21.2169,155.601,105.489,101.731,0.00350839,0.227523,20.8226,186.372,0.313858,0.0,0.0
84,20.75,20.6327,21.1329,155.897,105.489,101.582,0.00433911,0.179031,20.8816,186.372,0.32649,0.0,0.0
90,22.25,20.6863,20.85,156.415,105.496,101.803,0.00488943,0.140042,20.9158,186.362,0.308312,0.0,0.0
96,23.75,20.7015,20.6939,156.994,105.486,101.748,0.00538704,0.113607,20.9441,186.372,0.312081,0.0,0.0
102,25.25,20.1417,20.6436,161.266,105.506,101.736,0.00567569,0.0991316,20.9638,186.362,0.3148,0.0,0.0
108,26.75,20.1381,20.6855,157.251,105.506,101.712,0.00582259,0.088365,20.9765,186.362,0.316815,0.0,0.0
114,28.25,19.2897,19.8403,158.709,105.523,101.639,0.00584483,0.0823396,20.9842,186.352,0.324346,0.0,0.0
120,29.75,19.287,20.0651,159.33,105.505,101.762,0.00573843,0.0781709,20.9893,186.352,0.312486,0.0,0.0
126,31.25,19.3995,19.8014,157.364,105.532,101.67,0.005432,0.07462,20.9933,186.342,0.322442,0.0,0.0
132,32.75,18.0906,19.3272,157.154,105.499,101.73,0.00498251,0.071179,20.9977,186.332,0.314708,0.0,0.0
138,34.25,19.716,19.6038,161.195,105.514,101.848,0.00450645,0.0682995,21.0013,186.322,0.305897,0.0,0.0
144,35.75,18.6886,19.7931,155.169,105.495,101.731,0.00395246,0.0661624,21.0032,186.352,0.314317,0.0,0.0
150,37.25,18.9404,19.3865,156.591,105.49,101.766,0.00319622,0.0643252,21.0055,186.342,0.310856,0.0,0.0
156,38.75,18.8407,19.2838,155.009,105.473,101.695,0.00254102,0.0625827,21.0076,186.332,0.315514,0.0,0.0
162,40.25,18.2437,18.6899,159.998,105.474,101.682,0.0020191,0.0606908,21.0096,186.342,0.316694,0.0,0.0
168,41.75,19.0842,19.2329,156.885,105.452,101.617,0.00163146,0.0588836,21.0124,186.312,0.320459,0.0,0.0
174,43.25,18.5669,18.4379,159.406,105.429,101.581,0.00134986,0.0573358,21.0145,186.342,0.321663,0.0,0.0
180,44.75,18.7431,19.3471,161.781,105.421,101.727,0.00110855,0.056182,21.0156,186.332,0.308522,0.0,0.0
186,46.25,18.6153,19.2239,157.931,105.394,101.567,0.000876411,0.0553144,21.0162,186.332,0.319914,0.0,0.0
192,47.75,18.3346,18.998,163.856,105.361,101.719,0.000695952,0.054834,21.017,186.332,0.304287,0.0,0.0
198,49.25,18.0336,18.9446,156.569,105.338,101.718,0.000596522,0.0545353,21.0182,186.342,0.302494,0.0,0.0
204,50.75,17.9189,19.0667,153.425,105.297,101.629,0.000643559,0.0544308,21.0188,186.342,0.306716,0.0,0.0
210,52.25,18.4097,19.1049,154.591,105.264,101.539,0.000777358,0.0548094,21.0191,186.332,0.311651,0.0,0.0
216,53.75,17.6762,18.9775,157.305,105.234,101.415,0.000902283,0.0552215,21.0193,186.332,0.31977,0.0,0.0
222,55.25,18.2797,18.6334,156.565,105.196,101.452,0.000961283,0.0553667,21.0194,186.332,0.313569,0.0,0.0
228,56.75,17.347,18.6259,159.782,105.172,101.45,0.000979024,0.0552088,21.0194,186.332,0.311706,0.0,0.0
234,58.25,18.0768,18.458,161.426,105.126,101.424,0.000952859,0.0550289,21.0194,186.322,0.310097,0.0,0.0
240,59.75,17.3845,18.3962,153.527,105.109,101.348,0.000861436,0.0546144,21.0202,186.332,0.315245,0.0,0.0
246,61.25,17.7693,18.4315,158.973,105.064,101.297,0.000729065,0.0541254,21.0213,186.332,0.315917,0.0,0.0
252,62.75,17.7553,18.6603,156.192,105.043,101.391,0.000616317,0.0537473,21.0219,186.332,0.30607,0.0,0.0
258,64.25,17.7302,18.198,159.459,105.014,101.403,0.000540764,0.0534092,21.0223,186.312,0.302707,0.0,0.0
264,65.75,17.1934,17.912,160.213,104.99,101.368,0.000503902,0.0531145,21.0224,186.312,0.303729,0.0,0.0
270,67.25,17.4334,18.1003,159.269,104.949,101.25,0.000529692,0.0528705,21.0225,186.322,0.310454,0.0,0.0
276,68.75,17.1059,17.8715,155.778,104.914,101.116,0.000596021,0.0528005,21.0226,186.302,0.318968,0.0,0.0
282,70.25,17.7808,18.4141,162.52,104.872,101.034,0.000718163,0.0527277,21.0226,186.322,0.322548,0.0,0.0
288,71.75,16.8841,17.3187,158.225,104.845,101.215,0.000840497,0.0525977,21.0226,186.312,0.304879,0.0,0.0
294,73.25,17.4687,17.9578,156.951,104.826,101.186,0.000895843,0.0524665,21.0225,186.302,0.305699,0.0,0.0
300,74.75,16.882,18.2465,159.925,104.794,101.151,0.000912038,0.052369,21.0225,186.302,0.30605,0.0,0.0
306,76.25,17.3926,17.701,155.578,104.762,100.98,0.000953181,0.0523366,21.0224,186.302,0.318029,0.0,0.0
312,77.75,17.3501,18.2084,158.48,104.728,100.953,0.00100056,0.0522593,21.0224,186.312,0.317562,0.0,0.0
318,79.25,16.4232,16.9658,162.007,104.719,101.073,0.00104771,0.0523148,21.0224,186.322,0.306533,0.0,0.0
324,80.75,17.1488,18.314,158.21,104.669,100.999,0.00109512,0.052418,21.0224,186.312,0.308762,0.0,0.0
330,82.25,17.1679,17.838,156.39,104.644,101.113,0.00109475,0.0524708,21.0224,186.312,0.296898,0.0,0.0
336,83.75,17.4255,18.1425,157.505,104.609,100.876,0.00100286,0.0525774,21.0224,186.312,0.31435,0.0,0.0
342,85.25,16.6082,17.979,156.826,104.579,100.787,0.000869524,0.0526914,21.0224,186.312,0.319495,0.0,0.0
348,86.75,16.9033,17.6951,157.724,104.554,100.795,0.000769358,0.0527683,21.0224,186.322,0.316722,0.0,0.0
354,88.25,16.9802,17.2158,157.09,104.532,100.816,0.000703641,0.0527302,21.0224,186.312,0.313151,0.0,0.0
360,89.75,16.7078,17.3508,157.752,104.489,100.793,0.000647723,0.0527685,21.0224,186.322,0.311499,0.0,0.0
366,91.25,16.8534,17.5009,156.622,104.455,100.816,0.000627646,0.0527502,21.0224,186.322,0.3067,0.0,0.0
372,92.75,17.3277,18.1663,158.261,104.415,100.704,0.000626748,0.0526469,21.0224,186.322,0.313016,0.0,0.0
378,94.25,17.0371,17.5113,157.529,104.4,100.622,0.000592168,0.0524916,21.0224,186.312,0.318826,0.0,0.0
384,95.75,16.8213,17.8395,155.587,104.369,100.715,0.000499966,0.0525578,21.0221,186.332,0.30836,0.0,0.0
390,97.25,17.0707,17.9079,155.99,104.351,100.651,0.000441572,0.0526429,21.0219,186.352,0.312286,0.0,0.0
396,98.75,16.7934,17.6065,155.483,104.303,100.659,0.000455424,0.0527242,21.0219,186.372,0.307647,0.0,0.0
402,100.25,16.7675,17.3618,159.281,104.286,100.491,0.00054361,0.0528072,21.0218,186.322,0.3207,0.0,0.0
408,101.75,16.9422,17.6777,152.542,104.237,100.635,0.000677024,0.0528662,21.0218,186.282,0.304183,0.0,0.0
414,103.25,17.0063,17.4729,160.579,104.229,100.619,0.00078115,0.052822,21.0213,186.322,0.304936,0.0,0.0
420,104.75,16.2712,17.2595,159.104,104.185,100.611,0.000823117,0.0527833,21.0205,186.302,0.301934,0.0,0.0
426,106.25,16.1248,16.9046,154.419,104.168,100.334,0.000739094,0.0528009,21.02,186.282,0.324419,0.0,0.0
432,107.75,16.7402,17.4759,155.71,104.142,100.491,0.000603907,0.0528887,21.0198,186.292,0.308731,0.0,0.0
438,109.25,16.3772,17.3471,158.754,104.122,100.631,0.000488598,0.0529756,21.0196,186.312,0.295039,0.0,0.0
444,110.75,17.4402,18.262,159.183,104.111,100.404,0.000423018,0.0530537,21.0195,186.322,0.313626,0.0,0.0
450,112.25,16.8836,17.5007,156.739,104.09,100.548,0.000410952,0.0532646,21.0195,186.322,0.299501,0.0,0.0
456,113.75,16.8351,17.9217,156.95,104.099,100.453,0.000461111,0.0535698,21.0195,186.322,0.308395,0.0,0.0
462,115.25,17.0126,17.5096,156.403,104.068,100.293,0.00051102,0.0537002,21.0195,186.312,0.319685,0.0,0.0
468,116.75,16.7516,17.0526,154.848,104.046,100.434,0.000521592,0.0536583,21.0195,186.322,0.30567,0.0,0.0
474,118.25,16.1087,17.1514,161.662,104.036,100.399,0.000498237,0.0536583,21.0205,186.312,0.307772,0.0,0.0
480,119.75,17.1323,17.8495,160.692,104.035,100.484,0.000522282,0.0536791,21.0211,186.322,0.300466,0.0,0.0
486,121.25,16.7986,17.1528,155.512,104.029,100.391,0.000579912,0.0537253,21.0206,186.312,0.307877,0.0,0.0
492,122.75,16.5886,17.2758,157.931,104.025,100.35,0.000665448,0.0536824,21.0201,186.312,0.311154,0.0,0.0
498,124.25,16.84,17.4161,157.901,104.021,100.336,0.000752449,0.0537987,21.0198,186.302,0.31199,0.0,0.0
504,125.75,16.9549,17.2908,158.146,104.019,100.303,0.000835725,0.0538223,21.0197,186.322,0.314687,0.0,0.0
510,127.25,16.5476,17.2925,158.621,104.024,100.376,0.000902236,0.0537716,21.0196,186.322,0.308843,0.0,0.0
516,128.75,16.5626,17.271,160.659,104.024,100.435,0.000940967,0.0536443,21.02,186.332,0.303724,0.0,0.0
522,130.25,16.5324,17.2925,155.037,104.018,100.331,0.000918976,0.0534389,21.0208,186.332,0.312256,0.0,0.0
528,131.75,16.5474,17.075,154.13,104.039,100.466,0.000877606,0.0532874,21.0212,186.342,0.302345,0.0,0.0
534,133.25,16.4456,16.938,159.111,104.035,100.414,0.000819628,0.0531488,21.0212,186.322,0.306461,0.0,0.0
540,134.75,16.8605,17.3697,162.723,104.055,100.459,0.000746198,0.0530475,21.0204,186.312,0.304268,0.0,0.0
546,136.25,16.5202,17.5143,155.013,104.065,100.346,,0.0530375,,186.312,0.314796,0.0,0.0
552,137.75,16.1446,16.7997,154.774,104.086,100.351,,0.0531267,,186.322,0.316152,0.0,0.0
558,139.25,16.4877,17.2569,157.113,104.09,100.396,,,,186.302,0.312633,0.0,0.0
564,140.75,16.8648,17.1308,158.188,104.12,100.576,,,,186.302,0.299565,0.0,0.0
570,142.25,16.6067,17.3273,159.135,104.122,100.58,,,,186.312,0.299425,0.0,0.0
576,143.75,16.1535,16.602,156.087,104.15,100.475,,,,186.312,0.310768,0.0,0.0
582,145.25,16.3488,16.9859,157.056,104.172,100.485,,,,186.312,0.311752,0.0,0.0
587,146.5,16.6482,16.9052,157.986,104.193,100.632,,,,186.292,0.300895,0.0,0.0

File: Cotton_Sheet_Cone_HF25Scan_220429_R2.csv
Names,Time,Stack TC,Smoke TC,Exh Press,Smoke Comp,Smoke Meas,CO Meter,CO2 Meter,O2 Meter,Sample Mass,Ext Coeff,Start Test,Flame Verif
Chan Gain,,500,500,1,1,1,1,1,1,1,1,1.0,1.0
Offset,,0,0,0.138979,0,0,0,0,0,0,0,0.0,0.0
Gain,,1,1,25.011,14.099,15.1965,1,1,1,1.00087,0.986176,1.0,1.0
Units,sec,C,C,Pa,%,%,%,%,%,g,/m,,
Baseline,,18.4103,18.9511,157.204,105.214,101.25,0.00087714,0.054708,21.0145,-833.86,0.332198,,
7,1.5,16.6319,17.4504,154.258,105.523,101.582,0.000811884,0.0580478,21.0094,190.385,0.329242,0.0,0.0
14,3.25,16.9149,17.5279,158.85,105.524,101.3,0.000850203,0.0575348,21.0098,190.385,0.353389,0.0,0.0
21,5,17.1457,17.3176,158.69,105.537,101.234,0.000806047,0.0567927,21.0089,190.375,0.360151,0.0,0.0
28,6.75,16.9959,18.0572,156.78,105.532,101.103,0.000739066,0.0560403,21.0083,190.365,0.370876,0.0,0.0
35,8.5,16.4271,17.4614,153.111,105.52,100.443,0.000811758,0.0568186,21.0071,190.345,0.426571,0.0,0.0
42,10.25,16.8572,18.1861,156.109,105.542,101.197,0.00109625,0.0758037,20.9911,190.245,0.363667,0.0,0.0
49,12,17.1051,17.3119,138.921,105.543,104.465,0.00140694,0.151802,20.9072,189.995,0.088822,0.0,1.0
56,13.75,18.2717,18.9279,132.94,105.536,106.223,0.00166584,0.242946,20.8012,189.815,-0.056116,0.0,1.0
63,15.5,19.7096,19.8401,137.116,105.52,105.01,0.00194035,0.302177,20.744,189.695,0.0418761,0.0,1.0
70,17.25,20.6225,21.0637,146.176,105.525,103.381,0.00236624,0.305204,20.7348,189.585,0.177598,0.0,0.0
77,19,21.5875,22.0707,150.874,105.501,102.281,0.00306393,0.262137,20.7652,189.535,0.26813,0.0,0.0
84,20.75,21.7177,22.2674,153.711,105.5,101.665,0.0041084,0.206345,20.8261,189.525,0.320306,0.0,0.0
91,22.5,21.9988,22.5075,155.729,105.489,101.682,0.00495949,0.160722,20.8798,189.525,0.318039,0.0,0.0
98,24.25,21.5816,22.5764,154.929,105.458,101.53,0.00576843,0.123874,20.9278,189.505,0.328409,0.0,0.0
105,26,21.8635,22.2648,153.273,105.454,101.497,0.00624792,0.100872,20.9552,189.505,0.330788,0.0,0.0
112,27.75,21.5575,22.3314,156.121,105.443,101.544,0.00647873,0.0870415,20.9759,189.495,0.325989,0.0,0.0
119,29.5,21.3904,21.3041,161.069,105.435,101.542,0.00630883,0.0792208,20.9866,189.505,0.325436,0.0,0.0
126,31.25,20.9089,21.38,161.676,105.417,101.482,0.00580707,0.0730126,20.9953,189.485,0.329091,0.0,0.0
133,33,20.5754,21.3163,154.446,105.432,101.484,0.00502517,0.0678376,21.0026,189.485,0.330134,0.0,0.0
140,34.75,20.2361,21.1726,156.302,105.413,101.577,0.00420731,0.0632766,21.0094,189.505,0.320638,0.0,0.0
147,36.5,20.2094,20.9323,163.222,105.397,101.393,0.00327377,0.0598898,21.0134,189.515,0.335061,0.0,0.0
154,38.25,20.1366,21.0596,157.818,105.393,101.489,0.00255896,0.0576171,21.0161,189.505,0.326561,0.0,0.0
161,40,20.0432,20.5571,155.339,105.38,101.337,0.00194535,0.0559627,21.0179,189.505,0.338397,0.0,0.0
168,41.75,19.3439,20.1717,155.551,105.367,101.444,0.00145293,0.0548202,21.0193,189.505,0.328242,0.0,0.0
175,43.5,19.9968,20.2,162.205,105.35,101.433,0.00112224,0.0539479,21.0208,189.495,0.327777,0.0,0.0
182,45.25,19.9303,20.2699,158.593,105.356,101.485,0.000941702,0.053267,21.0216,189.475,0.323839,0.0,0.0
189,47,19.4278,20.3059,160.283,105.322,101.442,0.000908071,0.0526328,21.022,189.485,0.324721,0.0,0.0
196,48.75,19.0732,19.9982,157.254,105.324,101.39,0.00094086,0.0518764,21.0231,189.475,0.329332,0.0,0.0
203,50.5,19.7552,20.0388,155.321,105.324,101.497,0.000992041,0.0512599,21.0239,189.475,0.320236,0.0,0.0
210,52.25,18.3952,19.7999,155.705,105.307,101.402,0.000997885,0.0508677,21.0255,189.475,0.32689,0.0,0.0
217,54,19.7131,19.9087,158.318,105.301,101.38,0.000916831,0.0504898,21.0263,189.485,0.328219,0.0,0.0
224,55.75,19.1325,20.1064,154.654,105.298,101.376,0.000847064,0.0502354,21.0257,189.465,0.328328,0.0,0.0
231,57.5,19.2896,19.7569,155.316,105.313,101.37,0.000835915,0.0500774,21.0252,189.465,0.330039,0.0,0.0
238,59.25,18.6481,20.0759,157.387,105.284,101.428,0.000853241,0.0501236,21.0249,189.485,0.322801,0.0,0.0
245,61,18.4989,19.757,159.018,105.267,101.391,0.000856408,0.0501965,21.0248,189.485,0.324476,0.0,0.0
252,62.75,18.7731,19.2876,153.04,105.261,101.454,0.00082374,0.0501729,21.0244,189.465,0.318712,0.0,0.0
259,64.5,19.1026,19.2407,156.49,105.263,101.346,0.000822206,0.0501243,21.0241,189.485,0.328037,0.0,0.0
266,66.25,18.8125,19.0219,157.135,105.244,101.432,0.000885075,0.0499954,21.0244,189.475,0.31912,0.0,0.0
273,68,18.7508,18.9178,157.863,105.238,101.421,0.000936468,0.0498429,21.0254,189.465,0.31961,0.0,0.0
280,69.75,18.9425,19.5494,156.066,105.214,101.339,0.000874333,0.049705,21.0259,189.465,0.324629,0.0,0.0
287,71.5,18.2852,19.8696,157.117,105.221,101.356,0.000773497,0.0497315,21.0261,189.435,0.32381,0.0,0.0
294,73.25,18.6591,18.8823,154.633,105.214,101.292,0.000722004,0.0498817,21.0266,189.405,0.328558,0.0,0.0
301,75,18.1946,19.1268,155.012,105.202,101.323,0.000641473,0.0500351,21.0269,189.405,0.325025,0.0,0.0
308,76.75,17.7003,19.0411,158.697,105.177,101.228,0.000533958,0.0504385,21.0262,189.395,0.331133,0.0,0.0
315,78.5,18.3624,19.0456,156.414,105.184,101.327,0.000446493,0.0508684,21.0255,189.435,0.323147,0.0,0.0
322,80.25,18.6083,18.7555,158.005,105.171,101.266,0.00046622,0.0513086,21.0242,189.405,0.327348,0.0,0.0
329,82,17.933,18.8501,156.959,105.15,101.35,0.000513148,0.0516568,21.0233,189.415,0.318407,0.0,0.0
336,83.75,17.6309,18.4645,155.583,105.151,101.331,0.000560877,0.0519567,21.0229,189.375,0.3201,0.0,0.0
343,85.5,17.6731,18.8729,155.394,105.132,101.327,0.000648156,0.052184,21.0223,189.405,0.318864,0.0,0.0
350,87.25,18.0169,18.4632,157.361,105.139,101.287,0.000738,0.0524404,21.0212,189.405,0.322872,0.0,0.0
357,89,18.1226,18.7254,155.03,105.128,101.192,0.000779665,0.0525042,21.0206,189.405,0.330038,0.0,0.0
364,90.75,18.0387,18.2574,161.514,105.119,101.271,0.000766649,0.0524978,21.0201,189.425,0.322629,0.0,0.0
371,92.5,18.0564,18.1505,155.547,105.105,101.344,0.000743589,0.0524868,21.0199,189.405,0.315168,0.0,0.0
378,94.25,17.9023,18.6297,155.208,105.106,101.248,0.000762704,0.0525306,21.0198,189.425,0.323508,0.0,0.0
385,96,17.8542,18.5392,156.786,105.125,101.174,0.000788555,0.0525555,21.0198,189.435,0.331413,0.0,0.0
392,97.75,18.3491,18.3339,157.003,105.188,101.402,0.000791995,0.0525158,21.0197,189.405,0.317128,0.0,0.0
399,99.5,17.8667,18.3725,157.277,105.252,101.298,0.000781102,0.0525505,21.0197,189.395,0.33127,0.0,0.0
406,101.25,17.4568,18.5277,157.074,105.325,101.591,0.000732595,0.0526077,21.0197,189.415,0.312211,0.0,0.0
413,103,17.9802,18.5466,156.634,105.396,101.505,0.000641314,0.0526869,21.0197,189.445,0.325389,0.0,0.0
420,104.75,17.8521,18.3563,157.746,105.444,101.586,0.000596388,0.0526958,21.0193,189.455,0.322469,0.0,0.0
427,106.5,17.8303,18.4318,157.23,105.495,101.497,0.000664777,0.0527039,21.0191,189.435,0.33418,0.0,0.0
434,108.25,17.7472,17.9447,157.395,105.526,101.675,0.000720238,0.0526951,21.019,189.445,0.321594,0.0,0.0
441,110,17.6106,18.279,158.621,105.57,101.67,0.000716017,0.0527475,21.0189,189.445,0.32566,0.0,0.0
448,111.75,18.0032,18.1247,155.958,105.619,101.82,0.00071575,0.0528098,21.0189,189.455,0.316904,0.0,0.0
455,113.5,17.8576,18.1933,160.879,105.649,101.765,0.000763848,0.0528241,21.0192,189.445,0.32406,0.0,0.0
462,115.25,16.5754,18.0066,158.028,105.686,101.857,0.00075113,0.0527936,21.0196,189.455,0.319248,0.0,0.0
469,117,17.8093,18.3288,160.522,105.712,101.715,0.000635126,0.0528417,21.0199,189.455,0.333418,0.0,0.0
476,118.75,17.6946,18.5862,159.805,105.748,101.849,0.000553656,0.0528607,21.0201,189.445,0.325027,0.0,0.0
483,120.5,17.0362,18.434,157.084,105.783,101.922,0.000530739,0.0528547,21.0202,189.435,0.321617,0.0,0.0
490,122.25,17.6707,17.935,154.991,105.801,101.99,0.000528523,0.0528946,21.0202,189.435,0.317424,0.0,0.0
497,124,18.0006,18.1571,158.128,105.816,102.036,0.000578606,0.0528568,21.0204,189.435,0.314652,0.0,0.0
504,125.75,17.5755,18.3594,156.913,105.865,101.919,0.000631213,0.0528835,21.021,189.425,0.328649,0.0,0.0
511,127.5,17.9812,18.4338,160.784,105.876,102.044,0.000701869,0.0528633,21.0214,189.415,0.318907,0.0,0.0
518,129.25,17.7802,18.6566,153.988,105.893,102.184,0.000831977,0.0528222,21.0215,189.425,0.308443,0.0,0.0
525,131,17.6084,18.3056,159.392,105.892,102.124,0.000951112,0.0528847,21.0216,189.415,0.313482,0.0,0.0
532,132.75,17.6666,18.1831,153.139,105.909,102.098,0.000950701,0.0528871,21.0216,189.425,0.317049,0.0,0.0
539,134.5,17.7515,17.8959,155.538,105.911,102.192,0.000772784,0.0527812,21.021,189.425,0.309217,0.0,0.0
546,136.25,17.9811,18.5172,155.475,105.922,102.098,0.000521997,0.0526363,21.0199,189.425,0.318143,0.0,0.0
553,138,17.5446,18.286,157.23,105.917,102.059,,0.0525351,,189.425,0.321023,0.0,0.0
560,139.75,17.7544,17.8957,162.726,105.918,101.968,,0.0524867,,189.425,0.328766,0.0,0.0
567,141.5,16.8483,17.8008,158.646,105.932,102.131,,,,189.425,0.316088,0.0,0.0
574,143.25,17.2338,17.9465,161.757,105.922,102.099,,,,189.425,0.31799,0.0,0.0
581,145,17.2036,17.6061,158.473,105.914,102.079,,,,189.425,0.318972,0.0,0.0
588,146.75,17.5382,18.6788,157.596,105.9,102.056,,,,189.415,0.319888,0.0,0.0
595,148.5,17.6032,17.746,156.894,105.901,102.145,,,,189.415,0.312414,0.0,0.0