Folder: fsri_materials_database/01_Data/Cotton_Sheets/Cone (part 2)

File: Cotton_Sheet_Cone_HF50Scan_220429_R3.csv
Names,Time,Stack TC,Smoke TC,Exh Press,Smoke Comp,Smoke Meas,CO Meter,CO2 Meter,O2 Meter,Sample Mass,Ext Coeff,Start Test,Flame Verif
Chan Gain,,500,500,1,1,1,1,1,1,1,1,1.0,1.0
Offset,,0,0,0.138979,0,0,0,0,0,0,0,0.0,0.0
Gain,,1,1,25.011,14.099,15.1965,1,1,1,1.00087,0.986176,1.0,1.0
Units,sec,C,C,Pa,%,%,%,%,%,g,/m,,
Baseline,,29.9268,30.941,149.523,106.231,103.135,0.000667559,0.0486211,21.0297,-835.332,0.255902,,
6,1.25,27.8402,29.113,150.691,105.75,102.097,0.000887505,0.0520109,21.019,188.984,0.304119,0.0,0.0
12,2.75,28.3281,28.8387,142.236,105.767,103.749,0.00121428,0.0868506,20.9687,188.694,0.166676,0.0,0.0
18,4.25,28.578,29.0372,124.311,105.778,107.023,0.00167988,0.193569,20.8419,188.143,-0.101261,0.0,1.0
24,5.75,29.8241,30.155,119.697,105.814,107.33,0.00231947,0.318728,20.7286,188.043,-0.123049,0.0,1.0
30,7.25,32.6957,32.6252,139.705,105.816,104.559,0.00301332,0.387363,20.6684,188.073,0.103399,0.0,1.0
36,8.75,33.6224,34.1226,145.373,105.848,103.55,0.00401365,0.371637,20.7035,187.963,0.189899,0.0,0.0
42,10.25,34.4806,35.2468,146.282,105.859,103.469,0.0050707,0.313553,20.7774,187.943,0.197482,0.0,0.0
48,11.75,34.3339,35.202,148.414,105.889,103.059,0.00607209,0.249425,20.8441,187.983,0.234287,0.0,0.0
54,13.25,34.1665,35.0886,150.635,105.886,103.02,0.00671864,0.192744,20.8921,187.963,0.237311,0.0,0.0
60,14.75,34.2126,34.8414,149.182,105.911,103.111,0.00675434,0.153678,20.9302,187.993,0.231759,0.0,0.0
66,16.25,33.6949,34.9391,148.378,105.914,103.029,0.0059705,0.124505,20.9651,187.983,0.238894,0.0,0.0
72,17.75,33.3002,34.1777,149.478,105.942,102.781,0.00522807,0.101329,20.9842,187.963,0.262107,0.0,0.0
78,19.25,32.8274,34.078,148.585,105.952,103.014,0.00435996,0.0824839,20.9997,187.963,0.243303,0.0,0.0
84,20.75,32.818,33.6974,147.984,105.988,103.177,0.00354025,0.0731776,21.0101,187.943,0.232486,0.0,0.0
90,22.25,32.7991,33.8058,153.808,105.978,102.882,0.00286742,0.0655955,21.017,187.963,0.256482,0.0,0.0
96,23.75,32.8781,33.8323,149.274,106.014,103.29,0.00234953,0.0603723,21.0206,187.973,0.225145,0.0,0.0
102,25.25,32.3674,33.6396,144.77,106.029,103.048,0.00192422,0.0569554,21.0232,187.953,0.246637,0.0,0.0
108,26.75,32.4373,33.6779,149.88,106.056,102.645,0.0015908,0.0549165,21.025,187.943,0.282786,0.0,0.0
114,28.25,32.685,34.0047,147.354,106.062,102.761,0.00134639,0.0538701,21.025,187.963,0.273547,0.0,0.0
120,29.75,32.3408,33.3285,151.549,106.088,102.762,0.0011521,0.0534845,21.025,187.973,0.275535,0.0,0.0
126,31.25,31.7985,32.536,148.43,106.094,103.144,0.000961271,0.0535321,21.0253,187.943,0.243917,0.0,0.0
132,32.75,32.2344,32.9645,152.073,106.114,102.747,0.000810947,0.053211,21.0254,187.933,0.278928,0.0,0.0
138,34.25,31.5461,32.434,153.448,106.128,103.007,0.000688653,0.0529284,21.0255,187.923,0.258205,0.0,0.0
144,35.75,31.7371,32.2484,147.354,106.148,102.937,0.000580095,0.0526024,21.0256,187.933,0.265666,0.0,0.0
150,37.25,31.2888,32.7497,149.615,106.155,103.019,0.000503397,0.0521317,21.0264,187.943,0.25941,0.0,0.0
156,38.75,31.4998,32.8031,146.147,106.176,103.271,0.000481229,0.0514048,21.0271,187.933,0.239965,0.0,0.0
162,40.25,31.0663,32.7629,149.22,106.199,103.043,0.000494274,0.0504353,21.0275,187.953,0.260992,0.0,0.0
168,41.75,31.099,32.3652,147.981,106.214,102.996,0.000520378,0.0495742,21.0288,187.933,0.266081,0.0,0.0
174,43.25,31.4358,31.9984,151.13,106.224,102.961,0.000539277,0.0489405,21.0295,187.933,0.269883,0.0,0.0
180,44.75,30.9757,32.6395,152.069,106.236,102.872,0.000553995,0.048647,21.0298,187.933,0.278314,0.0,0.0
186,46.25,31.4031,32.3602,151.706,106.255,102.866,0.000554026,0.048584,21.03,187.933,0.280432,0.0,0.0
192,47.75,31.0682,32.4484,150.009,106.254,102.96,0.000557358,0.0485458,21.0301,187.943,0.272453,0.0,0.0
198,49.25,30.6756,32.5542,149.248,106.27,103.169,0.000580397,0.0484761,21.0302,187.923,0.256119,0.0,0.0
204,50.75,30.7266,32.0203,149.095,106.263,103.064,0.000587157,0.0484128,21.0302,187.923,0.264387,0.0,0.0
210,52.25,30.4322,32.1883,150.046,106.279,103.476,0.000516328,0.0483301,21.0303,187.913,0.231185,0.0,0.0
216,53.75,31.1015,31.8429,147.85,106.282,103.216,0.000405433,0.0482287,21.0303,187.913,0.253282,0.0,0.0
222,55.25,30.6986,32.3088,149.359,106.297,103.118,0.000348016,0.0482194,21.0304,187.903,0.262639,0.0,0.0
228,56.75,30.5096,31.805,148.701,106.28,102.944,0.000410788,0.0483605,21.0304,187.913,0.275914,0.0,0.0
234,58.25,30.3862,31.4207,147.47,106.291,103.076,0.000550496,0.0483423,21.0304,187.913,0.26569,0.0,0.0
240,59.75,30.6284,31.7602,147.802,106.286,102.933,0.000677826,0.0483016,21.0301,187.903,0.27734,0.0,0.0
246,61.25,30.2889,32.2672,147.407,106.3,103.341,0.000738909,0.0483851,21.0292,187.893,0.244191,0.0,0.0
252,62.75,30.503,31.3393,146.02,106.291,103.209,0.000759191,0.0484785,21.0287,187.883,0.254562,0.0,0.0
258,64.25,30.3329,31.513,148.665,106.294,103.446,0.000730007,0.048644,21.0284,187.883,0.234935,0.0,0.0
264,65.75,29.9609,31.0614,147.605,106.266,103.299,0.000673883,0.0487676,21.0278,187.883,0.244997,0.0,0.0
270,67.25,29.9975,31.8579,152.65,106.288,102.847,0.000626498,0.0488802,21.0268,187.863,0.284654,0.0,0.0
276,68.75,30.2014,31.7088,149.542,106.246,103.268,0.000586439,0.0490581,21.0263,187.863,0.245987,0.0,0.0
282,70.25,29.8873,31.7479,151.895,106.254,102.886,0.000517791,0.0491882,21.0261,187.863,0.27865,0.0,0.0
288,71.75,30.3492,31.6599,149.838,106.243,102.882,0.000417124,0.0493115,21.0261,187.873,0.278051,0.0,0.0
294,73.25,29.9372,31.7181,151.703,106.225,103.076,0.000324002,0.049515,21.0263,187.873,0.260334,0.0,0.0
300,74.75,30.3212,31.5284,148.429,106.212,102.89,0.00024967,0.0497146,21.0262,187.863,0.274901,0.0,0.0
306,76.25,30.1502,31.215,151.972,106.194,103.023,0.000223871,0.0498589,21.026,187.863,0.262245,0.0,0.0
312,77.75,29.7181,31.3164,150.161,106.187,102.838,0.000245275,0.0499644,21.0259,187.893,0.277275,0.0,0.0
318,79.25,30.091,31.7682,150.764,106.161,103.053,0.000286105,0.0501204,21.0258,187.863,0.257014,0.0,0.0
324,80.75,30.3793,31.4739,149.352,106.152,102.932,0.000332851,0.0501015,21.0258,187.853,0.266481,0.0,0.0
330,82.25,30.2388,31.1985,147.44,106.122,102.952,0.000374951,0.0500929,21.0255,187.863,0.262349,0.0,0.0
336,83.75,29.8723,31.7674,150.21,106.106,102.935,0.000393622,0.0500988,21.0241,187.853,0.262424,0.0,0.0
342,85.25,30.1596,30.8745,149.049,106.083,103.135,0.000351309,0.0502262,21.0234,187.863,0.243822,0.0,0.0
348,86.75,29.8326,30.6199,147.195,106.056,102.921,0.000279778,0.050252,21.023,187.843,0.259524,0.0,0.0
354,88.25,29.78,31.0673,147.962,106.01,102.805,0.000202653,0.0502766,21.0228,187.833,0.265591,0.0,0.0
360,89.75,29.8059,31.3019,151.214,105.986,102.969,0.000159425,0.0503181,21.0227,187.843,0.249783,0.0,0.0
366,91.25,30.0264,30.7145,150.437,105.93,102.738,0.000170131,0.0503792,21.0227,187.853,0.264684,0.0,0.0
372,92.75,30.1612,31.2575,150.031,105.922,103.003,0.00021897,0.0503918,21.0226,187.853,0.24174,0.0,0.0
378,94.25,30.2321,31.1527,149.013,105.895,102.88,0.000301451,0.0504582,21.0226,187.863,0.249857,0.0,0.0
384,95.75,30.3236,30.7006,148.49,105.861,102.884,0.000361699,0.0504266,21.0226,187.843,0.246764,0.0,0.0
390,97.25,30.0134,30.8457,149.103,105.808,103.074,0.000397473,0.0503992,21.0228,187.853,0.22643,0.0,0.0
396,98.75,30.0386,31.2206,149.157,105.784,102.496,0.000422368,0.0505696,21.0233,187.843,0.273128,0.0,0.0
402,100.25,29.8596,31.3375,149.177,105.739,102.659,0.000424563,0.0506017,21.0235,187.843,0.25578,0.0,0.0
408,101.75,30.5223,31.3526,144.54,105.736,102.815,0.000416787,0.0504714,21.0236,187.833,0.242374,0.0,0.0
414,103.25,29.7008,30.7297,148.715,105.675,102.83,0.000394316,0.0503739,21.0237,187.853,0.236089,0.0,0.0
420,104.75,29.7827,31.2037,149.442,105.644,102.459,0.000347534,0.0503559,21.024,187.853,0.264856,0.0,0.0
426,106.25,29.6821,31.0732,148.981,105.585,102.492,0.000311315,0.0503478,21.0243,187.863,0.257213,0.0,0.0
432,107.75,30.0972,31.2057,149.796,105.545,102.443,0.000301095,0.0502238,21.0245,187.863,0.258045,0.0,0.0
438,109.25,29.6929,30.9369,151.974,105.518,102.371,0.000313919,0.0500932,21.0245,187.843,0.26197,0.0,0.0
444,110.75,29.4423,30.9749,154.904,105.484,102.394,0.000364816,0.0499407,21.0246,187.873,0.257188,0.0,0.0
450,112.25,29.7727,31.0826,148.403,105.438,102.596,0.000409662,0.0498842,21.0246,187.833,0.236346,0.0,0.0
456,113.75,29.8283,30.8409,146.427,105.387,102.408,0.000438221,0.0497682,21.0246,187.833,0.248035,0.0,0.0
462,115.25,29.6689,31.5314,150.365,105.372,102.521,0.000457452,0.0496406,21.0257,187.813,0.237206,0.0,0.0
468,116.75,29.5092,30.8105,149.88,105.363,102.312,0.000468924,0.0494556,21.0263,187.813,0.254205,0.0,0.0
474,118.25,30.0056,30.8348,145.578,105.38,102.246,0.000514991,0.0493255,21.0266,187.813,0.261152,0.0,0.0
480,119.75,30.2026,31.4926,152.174,105.387,102.374,0.000603436,0.0492127,21.0267,187.813,0.250895,0.0,0.0
486,121.25,29.5286,30.8058,146.256,105.39,102.564,0.000729705,0.0491279,21.0266,187.813,0.23513,0.0,0.0
492,122.75,29.3785,31.2084,154.054,105.379,102.31,0.000804246,0.0489723,21.0271,187.813,0.255704,0.0,0.0
498,124.25,30.0437,30.906,147.372,105.393,102.703,0.000815256,0.0487928,21.0274,187.803,0.223646,0.0,0.0
504,125.75,29.165,30.9727,152.41,105.394,102.677,,0.0486858,,187.813,0.225939,0.0,0.0
510,127.25,30.2489,31.1861,148.74,105.416,102.303,,0.0485153,,187.813,0.25933,0.0,0.0
516,128.75,29.9606,30.9656,148.387,105.416,102.298,,,,187.813,0.259726,0.0,0.0
522,130.25,29.6037,30.8448,150.348,105.435,102.604,,,,187.813,0.235509,0.0,0.0
528,131.75,29.6965,30.8999,148.271,105.444,102.415,,,,187.813,0.252144,0.0,0.0
534,133.25,29.6393,30.5226,146.105,105.465,102.194,,,,187.803,0.272539,0.0,0.0
540,134.75,30.0573,31.1972,150.777,105.455,102.448,,,,187.813,0.250241,0.0,0.0
543,135.5,29.8674,31.2508,149.997,105.471,102.368,,,,187.813,0.258285,0.0,0.0

File: Cotton_Sheet_Cone_HF75Scan_220429_R1.csv
Names,Time,Stack TC,Smoke TC,Exh Press,Smoke Comp,Smoke Meas,CO Meter,CO2 Meter,O2 Meter,Sample Mass,Ext Coeff,Start Test,Flame Verif
Chan Gain,,500,500,1,1,1,1,1,1,1,1,1.0,1.0
Offset,,0,0,0.138979,0,0,0,0,0,0,0,0.0,0.0
Gain,,1,1,25.011,14.099,15.1965,1,1,1,1.00087,0.986176,1.0,1.0
Units,sec,C,C,Pa,%,%,%,%,%,g,/m,,
Baseline,,38.0124,39.5413,145.226,106.182,103.594,0.000670199,0.0495671,21.0269,-836.031,0.213468,,
6,1.25,35.7771,37.057,147.832,105.788,101.295,0.00143259,0.0911823,20.9499,184.701,0.375385,0.0,0.0
12,2.75,35.6142,36.6041,105.158,105.745,108.225,0.00219355,0.237376,20.7598,184.63,-0.200556,0.0,1.0
18,4.25,38.5033,38.8971,117.404,105.72,105.266,0.00304584,0.395612,20.6588,184.11,0.0371972,0.0,1.0
24,5.75,41.4006,41.5063,140.523,105.715,104.484,0.00403703,0.435121,20.637,183.98,0.101346,0.0,1.0
30,7.25,42.0041,43.1307,143.704,105.721,103.538,0.00499049,0.391842,20.6893,183.93,0.180449,0.0,0.0
36,8.75,41.8203,43.277,142.234,105.733,103.527,0.0058996,0.30281,20.7876,183.96,0.182403,0.0,0.0
42,10.25,41.7738,43.8855,145.373,105.747,103.457,0.00640874,0.239015,20.8589,183.96,0.189344,0.0,0.0
48,11.75,41.6011,43.6017,143.783,105.745,103.108,0.00635935,0.183042,20.9082,183.95,0.218417,0.0,0.0
54,13.25,40.9678,43.5033,146.004,105.755,103.18,0.0058542,0.143531,20.9447,183.99,0.213233,0.0,0.0
60,14.75,41.0587,42.8174,144.817,105.76,103.49,0.00504818,0.114592,20.9726,183.99,0.187647,0.0,0.0
66,16.25,40.5217,42.7343,144.239,105.778,103.115,0.00415862,0.0938869,20.9905,183.96,0.220543,0.0,0.0
72,17.75,40.3859,42.6418,144.41,105.804,103.051,0.00345216,0.0791984,21.0013,183.96,0.228025,0.0,0.0
78,19.25,40.698,42.9385,146.005,105.794,103.106,0.00269937,0.0700829,21.0103,183.97,0.222658,0.0,0.0
84,20.75,40.2223,42.8232,147.701,105.791,103.146,0.0021447,0.0645115,21.0169,183.94,0.218992,0.0,0.0
90,22.25,40.6864,41.8912,146.753,105.802,102.863,0.00175523,0.0597028,21.0216,183.95,0.243704,0.0,0.0
96,23.75,40.2056,41.677,148.816,105.816,102.978,0.00140737,0.0565036,21.0246,183.97,0.235198,0.0,0.0
102,25.25,40.0362,41.9375,141.326,105.823,103.357,0.00114519,0.0543092,21.0262,183.95,0.203987,0.0,0.0
108,26.75,39.7893,42.0777,144.904,105.841,103.223,0.000949901,0.0528678,21.0277,183.96,0.216654,0.0,0.0
114,28.25,39.6235,41.9462,142.576,105.829,103.431,0.000837343,0.0519926,21.0289,183.93,0.19831,0.0,0.0
120,29.75,40.1055,41.7079,138.939,105.854,103.263,0.00075934,0.0513442,21.0289,183.93,0.21444,0.0,0.0
126,31.25,39.6497,40.7778,145.837,105.848,103.078,0.000684793,0.0509399,21.0296,183.94,0.229351,0.0,0.0
132,32.75,39.8735,41.6383,145.557,105.859,103.303,0.000613286,0.0506666,21.0299,183.93,0.211374,0.0,0.0
138,34.25,39.6291,41.3141,140.34,105.851,103.308,0.000568438,0.0504246,21.0292,183.93,0.210388,0.0,0.0
144,35.75,38.9934,40.8228,148.388,105.874,103.539,0.000556027,0.0501493,21.0286,183.92,0.192898,0.0,0.0
150,37.25,39.4391,41.1376,144.677,105.855,103.476,0.0005307,0.0498791,21.0284,183.94,0.196619,0.0,0.0
156,38.75,38.7862,40.799,145.445,105.88,103.214,0.000504881,0.0497266,21.0282,183.95,0.220596,0.0,0.0
162,40.25,39.3977,41.3284,147.769,105.86,103.457,0.000480264,0.0496701,21.0282,183.92,0.19867,0.0,0.0
168,41.75,39.2139,41.2743,142.289,105.869,103.282,0.000502169,0.0495999,21.0285,183.92,0.21404,0.0,0.0
174,43.25,38.9787,41.0485,142.329,105.856,103.399,0.000588674,0.0494481,21.0286,183.92,0.203133,0.0,0.0
180,44.75,38.7785,40.9974,145.451,105.862,103.281,0.000695363,0.049297,21.0286,183.87,0.213559,0.0,0.0
186,46.25,38.4468,40.7884,145.608,105.863,103.426,0.000739761,0.0492167,21.0286,183.86,0.201475,0.0,0.0
192,47.75,39.2094,40.9113,144.009,105.875,103.229,0.000719048,0.049174,21.0287,183.88,0.218962,0.0,0.0
198,49.25,38.7946,40.7517,147.474,105.871,103.297,0.000698824,0.0491268,21.0287,183.87,0.212864,0.0,0.0
204,50.75,38.7794,40.3554,145.36,105.865,103.302,0.00067884,0.0490344,21.0284,183.88,0.212054,0.0,0.0
210,52.25,38.4418,40.6972,145.75,105.86,103.222,0.000683741,0.0489761,21.0282,183.89,0.218317,0.0,0.0
216,53.75,38.4744,40.2637,148.15,105.859,103.314,0.000723895,0.0489195,21.0287,183.86,0.210555,0.0,0.0
222,55.25,38.7665,40.3425,145.808,105.881,103.321,0.000805515,0.048914,21.0283,183.9,0.211653,0.0,0.0
228,56.75,38.7789,40.3341,148.524,105.856,103.423,0.00085958,0.0489182,21.0281,183.88,0.201075,0.0,0.0
234,58.25,38.2369,40.4732,145.051,105.873,103.232,0.000836743,0.0489712,21.028,183.87,0.218518,0.0,0.0
240,59.75,38.4577,40.4437,145.947,105.883,103.698,0.000769431,0.0489478,21.0279,183.87,0.180431,0.0,0.0
246,61.25,38.2106,40.3844,142.982,105.907,103.278,0.000655913,0.0489692,21.0282,183.87,0.217448,0.0,0.0
252,62.75,38.062,40.135,144.608,105.901,103.148,0.000575662,0.0490072,21.0284,183.86,0.227836,0.0,0.0
258,64.25,38.2767,39.9368,146.866,105.912,103.608,0.00054971,0.0490582,21.0285,183.86,0.190329,0.0,0.0
264,65.75,38.2669,40.2904,143.264,105.918,103.397,0.000545953,0.0491566,21.0294,183.84,0.20838,0.0,0.0
270,67.25,38.2302,40.1167,146.326,105.918,103.448,0.000558776,0.0491421,21.0298,183.85,0.204081,0.0,0.0
276,68.75,37.9903,40.0916,145.096,105.925,103.116,0.000608146,0.0491589,21.0301,183.83,0.23253,0.0,0.0
282,70.25,38.216,39.1757,145.105,105.929,103.539,0.000587711,0.0491475,21.0291,183.84,0.197359,0.0,0.0
288,71.75,38.3707,40.3477,142.875,105.93,103.685,0.000526128,0.0490824,21.0286,183.84,0.185272,0.0,0.0
294,73.25,38.2869,40.6988,149.105,105.944,103.225,0.000480279,0.0490269,21.0283,183.82,0.224899,0.0,0.0
300,74.75,37.9856,39.4907,145.432,105.949,103.604,0.000445617,0.0490611,21.0276,183.85,0.193553,0.0,0.0
306,76.25,38.0439,40.4341,145.202,105.962,103.696,0.000422077,0.0491724,21.0275,183.82,0.187017,0.0,0.0
312,77.75,38.3656,39.9452,145.34,105.955,103.359,0.000414961,0.049277,21.0267,183.84,0.214553,0.0,0.0
318,79.25,37.834,39.9998,143.498,105.973,103.522,0.000431115,0.0493063,21.0262,183.84,0.202447,0.0,0.0
324,80.75,38.2276,39.435,145.034,105.979,103.662,0.000471974,0.0493511,21.026,183.81,0.191242,0.0,0.0
330,82.25,38.3952,39.5354,144.393,105.986,103.255,0.000559996,0.0492716,21.0259,183.8,0.225855,0.0,0.0
336,83.75,37.7544,39.2991,145.582,105.991,103.73,0.000639722,0.0491833,21.0258,183.82,0.186469,0.0,0.0
342,85.25,38.1299,40.0509,143.599,106,103.576,0.000682431,0.0490983,21.0258,183.79,0.200056,0.0,0.0
348,86.75,38.0282,39.9941,145.05,105.986,103.73,0.000712055,0.0489958,21.0262,183.77,0.186194,0.0,0.0
354,88.25,37.764,40.186,148.583,105.998,103.231,0.000756538,0.0489898,21.0266,183.78,0.228854,0.0,0.0
360,89.75,37.9526,39.4046,144.563,106.011,103.367,0.000779043,0.0488519,21.0274,183.74,0.218493,0.0,0.0
366,91.25,38.2484,39.5332,150.883,106.011,103.387,0.000751926,0.0487529,21.0283,183.76,0.216825,0.0,0.0
372,92.75,38.3318,39.2441,141.744,106.004,103.405,0.00072369,0.0487413,21.0284,183.78,0.214785,0.0,0.0
378,94.25,38.3057,39.9077,142.954,106.001,103.535,0.000713881,0.0487327,21.0284,183.76,0.203574,0.0,0.0
384,95.75,38.2434,39.7562,144.191,106.005,103.862,0.00072507,0.0487742,21.0285,183.74,0.176689,0.0,0.0
390,97.25,38.3057,39.297,147.129,105.991,103.532,0.000713435,0.0489156,21.0285,183.75,0.203111,0.0,0.0
396,98.75,38.0691,39.6133,141.791,105.996,103.583,0.000658628,0.0489526,21.0285,183.74,0.199193,0.0,0.0
402,100.25,37.8982,39.6512,148.236,105.98,103.686,0.000542514,0.0491545,21.0285,183.74,0.189303,0.0,0.0
408,101.75,37.8387,39.4453,144.858,105.995,103.343,0.000447096,0.0493397,21.0278,183.73,0.219213,0.0,0.0
414,103.25,38.0367,40.0934,145.876,105.97,103.397,0.000404659,0.049389,21.0274,183.71,0.212561,0.0,0.0
420,104.75,38.2542,39.3677,143.251,105.976,103.396,0.000421906,0.0493484,21.0272,183.71,0.213243,0.0,0.0
426,106.25,37.8165,39.6755,142.219,105.969,103.367,0.000475663,0.0495223,21.0265,183.73,0.215052,0.0,0.0
432,107.75,37.8873,40.044,145.725,105.98,103.259,0.000560456,0.0496436,21.0257,183.71,0.22501,0.0,0.0
438,109.25,37.9826,39.67,141.736,105.941,103.291,0.000681563,0.0496683,21.0254,183.71,0.219133,0.0,0.0
444,110.75,38.0323,39.3428,142.107,105.944,103.409,0.000831375,0.0497691,21.0254,183.72,0.209483,0.0,0.0
450,112.25,38.1975,39.3766,146.481,105.918,103.263,0.000969508,0.0497476,21.0254,183.71,0.219609,0.0,0.0
456,113.75,38.2097,40.4046,148.054,105.928,103.724,0.00109998,0.0497507,21.0254,183.72,0.181842,0.0,0.0
462,115.25,38.0487,39.812,146.875,105.899,102.921,0.00116765,0.0497379,21.0265,183.73,0.246774,0.0,0.0
468,116.75,37.603,39.8095,145.759,105.896,103.308,0.00115013,0.0495418,21.027,183.76,0.214041,0.0,0.0
474,118.25,37.6715,39.8182,144.516,105.884,103.91,0.00105973,0.0494542,21.0273,183.75,0.1628,0.0,0.0
480,119.75,38.2586,39.5807,142.436,105.889,103.461,0.000954058,0.0494746,21.0275,183.71,0.200603,0.0,0.0
486,121.25,37.5874,39.9592,145.771,105.876,103.212,0.000905793,0.0494714,21.0276,183.7,0.220396,0.0,0.0
492,122.75,37.4674,40.1997,148.51,105.876,103.6,,0.0493762,,183.69,0.188,0.0,0.0
498,124.25,38.1104,39.6963,141.862,105.871,103.491,,0.0493011,,183.71,0.196679,0.0,0.0
504,125.75,38.3616,39.3782,143.895,105.867,103.374,,,,183.67,0.206141,0.0,0.0
510,127.25,38.3189,39.4622,144.935,105.848,103.519,,,,183.66,0.192456,0.0,0.0
516,128.75,38.0036,39.7148,145.531,105.85,103.372,,,,183.65,0.204925,0.0,0.0
522,130.25,38.1786,39.5231,146.617,105.839,103.119,,,,183.65,0.225224,0.0,0.0
528,131.75,38.3625,39.7038,147.116,105.838,103.402,,,,183.64,0.201493,0.0,0.0
530,132.25,38.2395,39.6048,145.552,105.842,103.141,,,,183.65,0.223567,0.0,0.0