Folder: fsri_materials_database/01_Data/Basswood_Panel/Cone (part 5)

File: Basswood_Panel_Cone_HF75Scan_221219_R2.csv
Names,Time,Stack TC,Smoke TC,Exh Press,Smoke Comp,Smoke Meas,CO Meter,CO2 Meter,O2 Meter,Sample Mass,Ext Coeff,Start Test,Flame Verif
Chan Gain,,500,500,1,1,1,1,1,1,1,1,1.0,1.0
Offset,,0,0,0.136803,0,0,0,0,0,0,0,0.0,0.0
Gain,,1,1,25.011,13.2421,13.1342,1,1,1,1.00087,1.04452,1.0,1.0
Units,sec,C,C,Pa,%,%,%,%,%,g,/m,,
Baseline,,40.4615,40.5405,153.112,98.8259,98.6269,-0.000936657,0.0570452,20.929,-445.466,0.0184672,,
26,6.25,39.9105,39.5739,136.529,98.8186,95.9036,-0.00065562,0.0660409,20.9211,157.067,0.274347,0.0,1.0
52,12.75,44.4985,43.9852,125.854,98.8384,88.9393,-0.000665403,0.0767134,20.914,155.656,0.96694,0.0,1.0
78,19.25,52.5762,51.4915,126.541,98.8392,88.6816,0.00146982,0.532667,20.6665,154.145,0.993604,0.0,0.0
104,25.75,58.3901,57.7501,127.741,98.8671,89.4443,0.00451529,0.785316,20.1608,152.693,0.917718,0.0,0.0
130,32.25,62.7264,62.744,128.213,98.8513,89.4131,0.00599636,0.80448,20.0339,151.092,0.919461,0.0,0.0
156,38.75,66.6158,66.9768,127.606,98.8639,90.2243,0.006006,0.775218,20.0486,149.741,0.837862,0.0,0.0
182,45.25,69.7068,70.7877,132.047,98.8412,90.547,0.0059191,0.738162,20.0896,148.35,0.803056,0.0,0.0
208,51.75,71.3348,73.3364,126.18,98.8356,91.7787,0.00527177,0.701101,20.1346,147.078,0.678732,0.0,0.0
234,58.25,73.1581,75.2916,128.877,98.7988,92.2577,0.00476725,0.665554,20.1798,145.907,0.627628,0.0,0.0
260,64.75,74.017,77.098,135.182,98.7798,92.8994,0.00439324,0.634184,20.2175,144.576,0.562356,0.0,0.0
286,71.25,74.8987,78.3274,126.187,98.7839,93.0413,0.00399963,0.613079,20.2532,143.415,0.548746,0.0,0.0
312,77.75,75.6649,79.1936,127.776,98.7576,93.5063,0.0036042,0.60248,20.2672,142.274,0.500636,0.0,0.0
338,84.25,76.6144,80.6746,131.068,98.7491,93.5464,0.00344365,0.588621,20.2816,141.163,0.495922,0.0,0.0
364,90.75,77.3168,81.7045,134.381,98.756,92.9459,0.00332608,0.575807,20.3014,139.982,0.555558,0.0,0.0
390,97.25,76.9519,81.8591,132.695,98.7422,92.6842,0.00322848,0.568045,20.309,138.831,0.580121,0.0,0.0
416,103.75,78.4044,82.8957,133.354,98.76,93.2197,0.00327345,0.559,20.3218,137.8,0.528986,0.0,0.0
442,110.25,78.2367,82.9964,130.993,98.7394,93.6297,0.00316728,0.547201,20.3348,136.739,0.48686,0.0,0.0
468,116.75,78.3379,83.6775,135.914,98.7455,93.8634,0.00315458,0.536465,20.3475,135.638,0.464583,0.0,0.0
494,123.25,78.8089,83.911,130.973,98.7576,94.1043,0.00279775,0.528445,20.3597,134.567,0.442222,0.0,0.0
520,129.75,78.4004,83.3075,130.839,98.7624,93.6125,0.00280212,0.514158,20.3732,133.527,0.490684,0.0,0.0
546,136.25,78.2308,83.4074,132.348,98.7875,93.5387,0.00253833,0.501885,20.3889,132.656,0.500229,0.0,0.0
572,142.75,78.5317,83.9171,131.499,98.8008,94.1324,0.0026973,0.504447,20.3969,131.525,0.443502,0.0,0.0
598,149.25,78.0277,83.9294,134.104,98.84,94.1981,0.00264786,0.495204,20.399,130.664,0.440741,0.0,0.0
624,155.75,78.3569,83.905,131.468,98.8538,93.6193,0.00264233,0.491121,20.4085,129.643,0.498485,0.0,0.0
650,162.25,78.3568,83.6229,131.347,98.8724,94.3616,0.00247026,0.485614,20.4181,128.582,0.427843,0.0,0.0
676,168.75,78.0118,83.2094,134.953,98.9043,93.8907,0.00242786,0.484622,20.4184,127.671,0.476648,0.0,0.0
702,175.25,77.8051,83.1625,133.481,98.9253,94.6522,0.0023853,0.479909,20.4232,126.741,0.404575,0.0,0.0
728,181.75,78.3913,83.4815,130.075,98.9726,93.7985,0.00233828,0.477905,20.4247,125.73,0.491974,0.0,0.0
754,188.25,78.2085,83.2661,135.045,98.9734,94.5075,0.00233943,0.476357,20.4286,124.759,0.423046,0.0,0.0
780,194.75,78.5802,83.3445,135.342,99.0259,94.7248,0.00228641,0.471164,20.4319,123.918,0.406869,0.0,0.0
806,201.25,78.4211,83.2676,135.065,99.0675,94.3953,0.00240245,0.467961,20.4417,122.897,0.442645,0.0,0.0
832,207.75,77.9405,83.2358,133.114,99.127,94.2378,0.00238412,0.46728,20.4433,121.966,0.463442,0.0,0.0
858,214.25,78.0983,83.2072,131.738,99.2288,93.9315,0.00229595,0.467165,20.4383,121.126,0.502672,0.0,0.0
884,220.75,78.017,82.9952,134.431,99.2934,94.6029,0.00209353,0.459749,20.445,120.205,0.443384,0.0,0.0
910,227.25,77.9081,82.8862,132.69,99.3759,95.1412,0.00207773,0.466139,20.4441,119.204,0.398999,0.0,0.0
936,233.75,78.2537,83.0134,132.715,99.4393,95.5617,0.00224948,0.458133,20.4457,118.323,0.364444,0.0,0.0
962,240.25,77.6757,82.6332,128.63,99.451,94.9537,0.00243697,0.454385,20.4537,117.463,0.42401,0.0,0.0
988,246.75,77.6002,82.4519,134.467,99.4967,94.8731,0.0021236,0.451888,20.4579,116.522,0.435994,0.0,0.0
1014,253.25,77.8923,83.1743,130.953,99.5101,94.4218,0.00209062,0.45456,20.4584,115.591,0.480913,0.0,0.0
1040,259.75,78.3169,82.6143,134.243,99.5489,95.3982,0.00219757,0.456031,20.4555,114.75,0.390223,0.0,0.0
1066,266.25,77.4491,82.1412,133.621,99.5723,94.1973,0.0023593,0.458278,20.4525,113.759,0.508449,0.0,0.0
1092,272.75,78.5256,83.2869,132.707,99.6099,94.1572,0.00251746,0.461941,20.4493,112.849,0.515807,0.0,0.0
1118,279.25,78.2276,82.7731,137.77,99.6891,95.027,0.00262902,0.463326,20.4418,112.068,0.438839,0.0,0.0
1144,285.75,77.9291,82.8648,130.689,99.7194,94.5464,0.00237533,0.462584,20.4434,111.137,0.48808,0.0,0.0
1170,292.25,78.4573,82.7459,130.394,99.8063,94.7284,0.00282121,0.458875,20.4464,110.216,0.478441,0.0,0.0
1196,298.75,78.6316,83.0979,132.379,99.8822,94.1095,0.00269944,0.460727,20.4456,109.275,0.545469,0.0,0.0
1222,305.25,77.8152,82.8244,132.918,99.9695,94.257,0.00262067,0.460504,20.4451,108.525,0.539123,0.0,0.0
1248,311.75,78.1368,82.7509,129.945,100.033,94.235,0.00230566,0.461534,20.4435,107.604,0.547042,0.0,0.0
1274,318.25,78.1327,82.9745,131.64,100.049,93.2882,0.00284092,0.456288,20.4462,106.673,0.641041,0.0,0.0
1300,324.75,78.3553,82.9889,130.885,100.076,94.1255,0.00278955,0.458545,20.4493,105.902,0.561685,0.0,0.0
1326,331.25,78.8372,83.0203,129.574,100.063,93.8762,0.00289049,0.460977,20.4467,105.052,0.584802,0.0,0.0
1352,337.75,78.151,83.1718,136.275,100.062,93.8698,0.00279211,0.460732,20.4452,104.221,0.585353,0.0,0.0
1378,344.25,78.5912,83.0635,137.187,100.039,93.7728,0.0027061,0.463092,20.4421,103.28,0.59268,0.0,0.0
1404,350.75,78.744,82.7216,137.29,100.026,92.5323,0.00291976,0.466283,20.443,102.459,0.713519,0.0,0.0
1430,357.25,78.5794,83.1881,127.385,100.023,93.198,0.00311082,0.476237,20.4278,101.629,0.647571,0.0,0.0
1456,363.75,79.0753,82.9798,134.015,100.001,93.1576,0.00325239,0.478079,20.4257,100.668,0.649552,0.0,0.0
1482,370.25,79.4417,83.8528,135.52,100.017,92.1403,0.00341722,0.490048,20.4129,99.7371,0.751566,0.0,0.0
1508,376.75,79.211,83.2847,131.719,99.9982,91.2733,0.00337363,0.494702,20.406,98.8863,0.836484,0.0,0.0
1534,383.25,79.9041,84.2614,134.669,99.9841,92.4814,0.00352085,0.499337,20.4026,97.9255,0.71471,0.0,0.0
1560,389.75,80.4578,83.9023,133.594,99.9813,91.7527,0.00389835,0.512254,20.3869,96.9847,0.786931,0.0,0.0
1586,396.25,80.692,84.5257,132.318,99.9546,91.3426,0.00339153,0.513525,20.3782,96.0138,0.825526,0.0,0.0
1612,402.75,80.9617,85.0673,131.18,99.9639,91.8276,0.00378525,0.519244,20.373,95.2031,0.777856,0.0,0.0
1638,409.25,81.0991,85.5424,130.79,99.9295,90.5847,0.00373161,0.522826,20.3657,94.1522,0.899576,0.0,0.0
1664,415.75,81.4153,85.4318,128.37,99.9251,89.8872,0.00359292,0.520995,20.3622,93.2714,0.969986,0.0,0.0
1690,422.25,81.9372,85.8851,136.342,99.919,91.2156,0.0038793,0.515347,20.3635,92.5007,0.835019,0.0,0.0
1716,428.75,80.5397,85.3203,134.73,99.8855,92.1815,0.0034384,0.494539,20.3771,91.7301,0.735422,0.0,0.0
1742,435.25,80.2039,84.6479,139.849,99.8915,95.5717,0.00296827,0.442563,20.4176,91.2196,0.405056,0.0,0.0
1768,441.75,77.8082,82.4486,142.652,99.8758,98.1097,0.00219239,0.368574,20.4851,90.9194,0.163464,0.0,0.0
1794,448.25,75.4723,80.3328,144.097,99.8693,99.1635,0.00124913,0.26574,20.5896,90.7993,0.0649843,0.0,0.0
1820,454.75,73.0418,77.5114,141.775,99.8608,98.9643,0.00057899,0.184207,20.7146,90.6191,0.08263,0.0,0.0
1846,461.25,70.2348,74.8232,142.947,99.8483,99.1463,0.000216787,0.151084,20.7813,90.519,0.064648,0.0,0.0
1872,467.75,68.8589,73.1266,148.103,99.8608,99.0878,0.000562418,0.138386,20.8056,90.489,0.0712085,0.0,0.0
1898,474.25,67.1831,70.8414,148.029,99.8536,99.1214,0.000767458,0.13315,20.816,90.3489,0.0674274,0.0,0.0
1924,480.75,65.5162,68.879,144.211,99.8523,99.1695,0.000642513,0.132133,20.8191,90.2888,0.0628713,0.0,0.0
1950,487.25,63.6361,67.4449,143.74,99.8305,99.1178,0.000917188,0.129562,20.8225,90.1987,0.0656469,0.0,0.0
1976,493.75,62.3071,65.4004,147.557,99.8309,99.0264,0.00111237,0.127159,20.8274,90.0986,0.0741364,0.0,0.0
2002,500.25,61.0892,63.6405,148.779,99.8043,99.0364,0.00151116,0.129535,20.8279,90.0686,0.0707608,0.0,0.0
2028,506.75,60.2441,62.6889,149.897,99.7966,99.0765,0.00191685,0.13262,20.8225,89.9785,0.0663485,0.0,0.0
2054,513.25,58.9321,61.5206,145.846,99.8055,99.01,0.00238287,0.128575,20.8226,89.9485,0.0733195,0.0,0.0
2080,519.75,57.7771,60.7265,146.854,99.7792,99.1607,0.00207211,0.124381,20.8305,89.7884,0.0569715,0.0,0.0
2106,526.25,57.6615,59.5513,145.358,99.7683,99.1375,0.00244567,0.123791,20.8328,89.7784,0.0581177,0.0,0.0
2132,532.75,57.2123,59.3584,147.344,99.7562,99.0044,0.00245361,0.123286,20.8343,89.7283,0.0693127,0.0,0.0
2158,539.25,56.274,58.0665,146.377,99.721,99.0136,0.00243225,0.124105,20.8338,89.5782,0.0652283,0.0,0.0
2184,545.75,56.1597,57.4212,148.095,99.7113,99.0312,0.00299792,0.124487,20.8357,89.5982,0.0627054,0.0,0.0
2210,552.25,53.9649,55.8838,150.07,99.6842,98.9302,0.00328113,0.124233,20.836,89.4681,0.0695674,0.0,0.0
2236,558.75,53.7904,55.981,144.734,99.683,99.0886,0.00343363,0.124749,20.8349,89.4481,0.0548046,0.0,0.0
2262,565.25,54.0306,55.8116,151.834,99.6576,98.9118,0.00384525,0.12322,20.8348,89.338,0.0688238,0.0,0.0
2288,571.75,53.1044,54.7803,147.896,99.647,99.03,0.0041448,0.12341,20.8359,89.308,0.0569107,0.0,0.0
2314,578.25,52.9207,53.9276,151.846,99.658,99.0637,0.00460697,0.123307,20.8365,89.2279,0.0547992,0.0,0.0
2340,584.75,52.8302,53.9699,148.103,99.6523,98.9595,0.00496597,0.123681,20.8358,89.1178,0.0639235,0.0,0.0
2366,591.25,52.2454,53.4297,145.944,99.6721,98.9627,0.00479659,0.123398,20.8372,89.1478,0.0654473,0.0,0.0
2392,597.75,51.7649,53.2045,144.068,99.6628,99.028,0.00504498,0.124065,20.8358,88.9476,0.0585453,0.0,0.0
2418,604.25,51.4899,52.1377,149.672,99.6644,99.1735,0.00508977,0.122868,20.8368,88.8676,0.0452418,0.0,0.0
2436,608.75,52.0155,52.8387,149.379,99.677,99.2761,0.00547924,0.122867,20.8401,88.8476,0.036918,0.0,0.0

File: Basswood_Panel_Cone_HF75Scan_221219_R3.csv
Names,Time,Stack TC,Smoke TC,Exh Press,Smoke Comp,Smoke Meas,CO Meter,CO2 Meter,O2 Meter,Sample Mass,Ext Coeff,Start Test,Flame Verif
Chan Gain,,500,500,1,1,1,1,1,1,1,1,1.0,1.0
Offset,,0,0,0.136803,0,0,0,0,0,0,0,0.0,0.0
Gain,,1,1,25.011,13.2421,13.1342,1,1,1,1.00087,1.04452,1.0,1.0
Units,sec,C,C,Pa,%,%,%,%,%,g,/m,,
Baseline,,43.834,43.873,151.733,99.6978,99.5685,-0.000907733,0.058009,20.9239,-445.683,0.0118962,,
28,6.75,41.833,41.9357,144.302,99.6252,97.9803,-0.00110691,0.0682004,20.9088,164.243,0.152549,0.0,1.0
56,13.75,46.4896,45.5648,121.433,99.6305,92.3194,-0.000919791,0.0777761,20.9087,162.832,0.698305,0.0,0.0
84,20.75,54.0372,52.7525,132.418,99.6394,90.7061,0.00143807,0.521387,20.6661,161.211,0.860657,0.0,0.0
112,27.75,60.3694,59.2842,122.128,99.6224,91.123,0.00458687,0.745736,20.2015,159.559,0.817084,0.0,0.0
140,34.75,65.3826,64.9452,124.661,99.6151,91.2404,0.00616319,0.776363,20.0675,157.958,0.804615,0.0,0.0
168,41.75,68.6973,69.2723,127.661,99.6014,90.4107,0.00572268,0.754187,20.0727,156.517,0.887051,0.0,0.0
196,48.75,71.2184,72.7552,125.082,99.5921,91.3374,0.00560868,0.709411,20.1133,155.055,0.792759,0.0,0.0
224,55.75,72.9034,74.9314,131.843,99.582,93.2145,0.00503068,0.678308,20.1583,153.764,0.605441,0.0,0.0
252,62.75,74.8416,77.3874,129.791,99.5751,93.057,0.00461645,0.639912,20.2014,152.453,0.620306,0.0,0.0
280,69.75,76.3016,78.6056,129.249,99.5876,92.0084,0.00420363,0.611028,20.2406,151.162,0.725288,0.0,0.0
308,76.75,76.6837,80.2419,127.552,99.5808,93.3608,0.00380846,0.587809,20.2752,149.931,0.590961,0.0,0.0
336,83.75,77.109,81.6417,130.9,99.5654,93.863,0.00346464,0.577596,20.2911,148.62,0.540391,0.0,0.0
364,90.75,77.761,81.9686,132.212,99.5743,94.2899,0.00303809,0.564383,20.3091,147.429,0.499634,0.0,0.0
392,97.75,78.7471,83.159,134.795,99.5585,93.9596,0.00317098,0.552267,20.3247,146.298,0.530334,0.0,0.0
420,104.75,78.7608,83.324,133.573,99.5557,94.564,0.00305779,0.537631,20.3377,145.137,0.47132,0.0,0.0
448,111.75,78.9466,83.8872,132.009,99.5509,94.7729,0.00288186,0.524489,20.3603,144.026,0.450662,0.0,0.0
476,118.75,79.2575,83.921,135.541,99.5549,95.1957,0.00306354,0.519398,20.3685,142.915,0.410242,0.0,0.0
504,125.75,79.004,84.0459,135.384,99.5691,95.8964,0.00281241,0.50985,20.3766,141.854,0.344355,0.0,0.0
532,132.75,79.5154,84.4492,132.541,99.5541,94.7721,0.00257603,0.500571,20.3887,140.753,0.451036,0.0,0.0
560,139.75,79.4101,84.2205,132.42,99.5642,95.4531,0.00216244,0.490973,20.4018,139.672,0.386363,0.0,0.0
588,146.75,79.1766,84.5814,132.446,99.5501,95.5753,0.00212327,0.486064,20.4092,138.681,0.373335,0.0,0.0
616,153.75,79.5097,84.6329,130.568,99.5452,94.8867,0.00191241,0.477608,20.4184,137.56,0.439143,0.0,0.0
644,160.75,79.4683,84.2816,132.429,99.586,95.4006,0.00216048,0.475,20.4252,136.549,0.393413,0.0,0.0
672,167.75,78.8868,84.3925,131.774,99.6273,95.5741,0.00225232,0.468204,20.4307,135.568,0.380551,0.0,0.0
700,174.75,78.8153,84.2256,134.698,99.6325,95.6844,0.00206349,0.46302,20.4372,134.567,0.370473,0.0,0.0
728,181.75,78.5565,83.8859,127.457,99.6099,95.6282,0.00208352,0.457721,20.443,133.557,0.373767,0.0,0.0
756,188.75,78.065,83.5778,130.001,99.6091,95.4984,0.00205408,0.451816,20.4531,132.596,0.386143,0.0,0.0
784,195.75,78.9687,83.3721,133.621,99.5909,95.9301,0.00189901,0.451726,20.4546,131.585,0.343147,0.0,0.0
812,202.75,79.0136,83.5124,135.11,99.5521,96.1144,0.00190412,0.448491,20.4577,130.684,0.321983,0.0,0.0
840,209.75,78.498,83.4338,135.67,99.5808,95.4034,0.00186903,0.447119,20.4593,129.773,0.39266,0.0,0.0
868,216.75,78.3949,83.4231,132.39,99.5868,95.5982,0.00184914,0.441501,20.4632,128.752,0.374529,0.0,0.0
896,223.75,78.8512,82.8243,132.206,99.5634,95.7589,0.00200404,0.447568,20.4647,127.762,0.356979,0.0,0.0
924,230.75,78.3487,83.5045,133.353,99.529,95.9309,0.0020396,0.448463,20.457,126.781,0.33738,0.0,0.0
952,237.75,78.6355,83.0108,133.58,99.5254,95.5469,0.00202582,0.446888,20.4609,125.8,0.373794,0.0,0.0
980,244.75,78.5739,83.4789,129.325,99.5303,95.6182,0.00210288,0.449131,20.46,124.799,0.367401,0.0,0.0
1008,251.75,78.8482,83.1913,132.438,99.5359,95.9637,0.00198613,0.449192,20.4584,123.858,0.334874,0.0,0.0
1036,258.75,79.0822,83.33,129.546,99.5262,95.3164,0.00194293,0.44884,20.4583,122.877,0.395996,0.0,0.0
1064,265.75,78.6664,83.4321,131.103,99.5238,94.9601,0.0019801,0.452346,20.4554,121.916,0.430091,0.0,0.0
1092,272.75,78.7567,83.2993,136.249,99.5185,95.5421,0.00190956,0.453105,20.4546,120.956,0.373622,0.0,0.0
1120,279.75,79.1418,83.444,131.001,99.5355,95.1132,0.00201639,0.454697,20.4521,119.995,0.416407,0.0,0.0
1148,286.75,79.39,83.34,129.254,99.5278,95.6371,0.00192589,0.457698,20.4479,119.074,0.365373,0.0,0.0
1176,293.75,78.9856,84.0041,132.939,99.5234,94.8751,0.00226815,0.458749,20.4448,118.063,0.438257,0.0,0.0
1204,300.75,78.9375,83.6564,131.957,99.5129,95.1573,0.00219925,0.460342,20.4429,117.142,0.410078,0.0,0.0
1232,307.75,79.0304,84.0547,135.833,99.521,94.5368,0.00220636,0.459615,20.4441,116.131,0.470762,0.0,0.0
1260,314.75,78.8162,83.3532,136.217,99.5189,94.2201,0.00209105,0.462649,20.4414,115.161,0.501317,0.0,0.0
1288,321.75,79.9199,83.4505,132.386,99.544,94.9176,0.00229245,0.46266,20.442,114.26,0.436051,0.0,0.0
1316,328.75,79.4973,84.0566,135.776,99.5484,95.0034,0.00217918,0.464332,20.4387,113.249,0.428183,0.0,0.0
1344,335.75,79.7772,83.7965,131.432,99.5569,94.6943,0.00237178,0.46461,20.438,112.318,0.458818,0.0,0.0
1372,342.75,79.4134,84.0108,135.956,99.5731,94.2266,0.00238212,0.466104,20.4365,111.417,0.505678,0.0,0.0
1400,349.75,79.7974,83.4306,131.741,99.5917,94.2682,0.00266669,0.465275,20.4359,110.436,0.503336,0.0,0.0
1428,356.75,80.2144,83.7275,133.117,99.5949,94.0061,0.00261303,0.462266,20.4377,109.576,0.529147,0.0,0.0
1456,363.75,79.9836,84.3392,134.273,99.5933,93.8293,0.00244025,0.466669,20.4356,108.595,0.546243,0.0,0.0
1484,370.75,80.314,83.6496,130.083,99.6042,93.7764,0.00253922,0.462417,20.4337,107.734,0.552415,0.0,0.0
1512,377.75,79.8602,84.4697,129.553,99.5965,93.8241,0.00256369,0.469969,20.4346,106.823,0.54705,0.0,0.0
1540,384.75,80.2602,84.6556,127.856,99.5982,92.7639,0.00257262,0.47189,20.4277,105.762,0.651322,0.0,0.0
1568,391.75,80.6283,84.24,132.173,99.6115,92.6549,0.00278508,0.472219,20.4275,104.862,0.663323,0.0,0.0
1596,398.75,80.6171,84.2979,136.409,99.626,93.5896,0.00319638,0.477041,20.4223,103.931,0.572691,0.0,0.0
1624,405.75,80.6781,84.7994,133.923,99.6313,91.8284,0.00284582,0.481342,20.4186,103.02,0.747242,0.0,0.0
1652,412.75,80.9519,85.0191,132.464,99.6329,92.2172,0.00307955,0.487253,20.4122,102.029,0.708678,0.0,0.0
1680,419.75,81.4081,85.0777,132.472,99.6309,92.7619,0.00306036,0.495617,20.4025,101.018,0.65453,0.0,0.0
1708,426.75,81.4274,85.125,133.632,99.6539,92.6657,0.00287845,0.496447,20.3953,100.097,0.666155,0.0,0.0
1736,433.75,81.4136,85.4181,130.916,99.6555,92.2084,0.00314002,0.501589,20.3903,99.0865,0.711635,0.0,0.0
1764,440.75,81.2882,86.2339,128.607,99.6778,91.7988,0.00307014,0.501837,20.3885,98.1957,0.754475,0.0,0.0
1792,447.75,81.3012,85.7053,130.587,99.6964,92.6377,0.00308937,0.493957,20.3931,97.2349,0.67283,0.0,0.0
1820,454.75,82.2174,85.7363,129.365,99.7008,92.1892,0.00279082,0.490833,20.3959,96.3041,0.717708,0.0,0.0
1848,461.75,81.8722,85.573,131.462,99.7101,92.198,0.00264836,0.482584,20.4018,95.4233,0.717686,0.0,0.0
1876,468.75,81.4913,85.7984,132.55,99.7246,92.4866,0.00227962,0.472053,20.4088,94.5726,0.690387,0.0,0.0
1904,475.75,81.1598,85.5619,134.316,99.7477,92.6429,0.00218778,0.459425,20.4275,93.8119,0.677029,0.0,0.0
1932,482.75,80.3447,85.3467,130.123,99.78,93.3067,0.00215139,0.447223,20.4405,92.9511,0.614586,0.0,0.0
1960,489.75,79.9702,84.433,140.47,99.7832,93.9119,0.00182073,0.426374,20.4588,92.3606,0.555641,0.0,0.0
1988,496.75,79.5337,82.8644,139.07,99.8152,94.7621,0.0017583,0.400567,20.485,91.7101,0.476002,0.0,0.0
2016,503.75,77.8024,82.0948,139.575,99.8285,95.8138,0.00157552,0.368152,20.516,91.2496,0.376091,0.0,0.0
2044,510.75,75.9041,80.0313,142.647,99.8451,97.6396,0.0016875,0.319211,20.5625,90.9194,0.204661,0.0,0.0
2072,517.75,73.794,77.9352,142.212,99.854,98.9831,0.00120994,0.2507,20.6321,90.6792,0.0802559,0.0,0.0
2100,524.75,71.2548,75.3226,143.886,99.8475,99.0517,0.00105238,0.184159,20.7185,90.6091,0.0733205,0.0,0.0
2128,531.75,69.2417,72.9536,149.223,99.8447,99.1635,0.00140031,0.149578,20.7802,90.4389,0.0627227,0.0,0.0
2156,538.75,67.4197,70.5354,145.153,99.858,99.2128,0.00140892,0.138027,20.8052,90.3489,0.0593918,0.0,0.0
2184,545.75,65.4385,68.6799,145.712,99.8701,99.1202,0.00135149,0.133857,20.8148,90.2988,0.069059,0.0,0.0
2212,552.75,63.2908,65.6571,149.371,99.8673,99.1928,0.00157455,0.129842,20.8206,90.2588,0.0620957,0.0,0.0
2240,559.75,62.4183,65.0525,146.036,99.8851,99.2377,0.00155622,0.128329,20.8246,90.1187,0.0595806,0.0,0.0
2268,566.75,60.7016,63.8658,147.065,99.8915,99.4317,0.0019625,0.131907,20.8224,90.0286,0.0422796,0.0,0.0
2296,573.75,60.0127,62.7413,146.507,99.9214,99.2521,0.00218953,0.128621,20.8202,89.9385,0.0615847,0.0,0.0
2324,580.75,58.8545,60.2614,146.102,99.9501,99.5327,0.00242226,0.127839,20.825,89.8584,0.0383506,0.0,0.0
2352,587.75,58.305,60.74,147.317,99.9425,99.3976,0.00275948,0.126791,20.8251,89.8484,0.0500891,0.0,0.0
2380,594.75,57.7263,59.1444,146.457,99.9566,99.4922,0.00284039,0.125937,20.8276,89.7383,0.0426699,0.0,0.0
2408,601.75,57.2263,58.3328,146.869,99.9703,99.4601,0.00271931,0.1253,20.829,89.7183,0.0468828,0.0,0.0
2436,608.75,56.2619,57.622,141.362,99.9663,99.23,0.00289849,0.125635,20.83,89.5181,0.0677321,0.0,0.0
2464,615.75,55.4696,57.1423,145.552,99.9623,99.3527,0.00321146,0.128468,20.8279,89.4481,0.0560433,0.0,0.0
2492,622.75,55.1731,56.6223,148.614,99.951,99.4429,0.00354422,0.126164,20.8256,89.368,0.0466927,0.0,0.0
2520,629.75,54.879,55.4197,148.407,99.9315,99.3347,0.00356834,0.124674,20.8294,89.308,0.0548914,0.0,0.0
2548,636.75,54.073,55.0338,146.25,99.9085,99.3074,0.00369952,0.124129,20.8323,89.2479,0.0552942,0.0,0.0
2576,643.75,53.8239,54.8158,149.85,99.8948,99.6172,0.00398199,0.125852,20.832,89.1578,0.0254916,0.0,0.0
2604,650.75,52.7958,53.3856,143.093,99.8766,99.3435,0.00384624,0.125544,20.83,89.1278,0.0490375,0.0,0.0
2632,657.75,52.8924,53.3127,147.879,99.8536,99.3615,0.00413135,0.124535,20.8314,89.0177,0.0452603,0.0,0.0
2660,664.75,52.9547,53.3824,146.622,99.8483,99.422,0.00455494,0.124896,20.8332,89.0177,0.039199,0.0,0.0
2668,666.75,52.5586,53.01,146.081,99.8487,99.1932,0.00462024,0.12514,20.8338,88.9576,0.0603521,0.0,0.0