Folder: fsri_materials_database/01_Data/Basswood_Panel/Cone (part 2)

File: Basswood_Panel_Cone_HF25Scan_221212_R3.csv
Names,Time,Stack TC,Smoke TC,Exh Press,Smoke Comp,Smoke Meas,CO Meter,CO2 Meter,O2 Meter,Sample Mass,Ext Coeff,Start Test,Flame Verif
Chan Gain,,500,500,1,1,1,1,1,1,1,1,1.0,1.0
Offset,,0,0,0.136389,0,0,0,0,0,0,0,0.0,0.0
Gain,,1,1,25.011,14.2696,296.664,1,1,1,1.0009,1.04656,1.0,1.0
Units,sec,C,C,Pa,%,%,%,%,%,g,/m,,
Baseline,,21.8294,22.4432,162.486,106.183,108.79,0.000530139,0.0621582,20.9623,-445.043,-0.222628,,
45,11,19.9569,20.4457,164.182,107.314,109.665,5.96531e-05,0.0604868,20.966,158.572,-0.19888,0.0,0.0
90,22.25,20.428,20.8604,161.402,107.342,109.755,9.61084e-05,0.0577369,20.9708,158.512,-0.204108,0.0,0.0
135,33.5,20.1673,20.9337,160.278,107.037,108.578,0.000320621,0.0552537,20.976,158.392,-0.131278,0.0,0.0
180,44.75,20.0054,20.8372,162.979,106.659,109.04,0.000476794,0.0558597,20.9731,158.252,-0.202711,0.0,0.0
225,56,20.7504,21.0888,160.098,106.77,109.266,0.000580907,0.0580028,20.9704,158.112,-0.212194,0.0,0.0
270,67.25,20.3897,21.3137,164.829,106.904,108.986,0.000714269,0.0598524,20.9692,157.891,-0.17702,0.0,0.0
315,78.5,20.9398,21.319,156.726,106.048,107.039,0.000945242,0.0616273,20.9665,157.731,-0.0853556,0.0,0.0
360,89.75,21.2739,21.5211,160.684,106.416,106.695,0.00114128,0.0616634,20.9673,157.491,-0.0240027,0.0,0.0
405,101,21.1397,21.8403,161.489,106.677,107.012,0.00175883,0.0625449,20.9672,157.251,-0.0287511,0.0,0.0
450,112.25,20.9249,22.1334,162.435,106.169,107.519,0.00234736,0.069882,20.9618,156.941,-0.115981,0.0,0.0
495,123.5,27.757,27.4962,141.045,105.45,118.374,0.00330277,0.445138,20.5369,155.359,-1.06135,0.0,0.0
540,134.75,35.33,36.0586,139.626,105.43,119.705,0.00339894,0.528696,20.4338,153.658,-1.16573,0.0,0.0
585,146,40.7901,42.0983,141.911,106.198,118.627,0.00303852,0.48168,20.4881,151.956,-1.01612,0.0,0.0
630,157.25,43.6156,45.8095,144.057,107.098,120.646,0.00241815,0.412345,20.5724,150.585,-1.09353,0.0,0.0
675,168.5,44.7529,47.6412,145.951,107.376,121.063,0.00212497,0.376003,20.6112,149.324,-1.10138,0.0,0.0
720,179.75,45.05,48.5472,145.734,106.958,120.728,0.00191148,0.344252,20.6467,148.063,-1.11175,0.0,0.0
765,191,44.8413,48.9536,148.976,106.474,119.94,0.00175857,0.330557,20.6618,147.032,-1.09332,0.0,0.0
810,202.25,44.7755,48.6158,148.577,106.997,118.618,0.0016612,0.315925,20.6786,145.961,-0.946601,0.0,0.0
855,213.5,43.7426,48.8408,151.405,106.33,119.913,0.00180253,0.306054,20.6882,144.94,-1.10368,0.0,0.0
900,224.75,44.2203,48.4323,150.738,106.318,119.976,0.00192898,0.296938,20.6998,143.959,-1.10954,0.0,0.0
945,236,44.029,47.7501,148.545,106.654,121.28,0.00202531,0.291737,20.7063,142.898,-1.17978,0.0,0.0
990,247.25,43.4833,47.5526,152.115,106.521,120.094,0.00174123,0.286214,20.7136,142.007,-1.10107,0.0,0.0
1035,258.5,42.6821,47.1435,151.37,105.919,119.134,0.00203687,0.275415,20.7248,141.076,-1.07943,0.0,0.0
1080,269.75,42.4964,46.5777,151.145,105.389,119.08,0.00180852,0.268525,20.7326,140.176,-1.12126,0.0,0.0
1125,281,42.2282,45.3265,151.192,105.353,120.284,0.0018975,0.265085,20.7373,139.295,-1.21681,0.0,0.0
1170,292.25,41.6905,45.6869,153.207,105.93,119.297,0.00190051,0.260025,20.7426,138.364,-1.09096,0.0,0.0
1215,303.5,41.3535,44.971,154.483,106.744,120.158,0.0022118,0.258689,20.7437,137.573,-1.08665,0.0,0.0
1260,314.75,41.0517,44.3836,151.499,107.276,120.9,0.00221829,0.253933,20.7487,136.662,-1.09754,0.0,0.0
1305,326,40.6174,44.494,150.438,107.351,120.013,0.00192637,0.254285,20.7481,135.872,-1.02351,0.0,0.0
1350,337.25,40.3908,43.989,151.402,106.981,119.913,0.00177904,0.253603,20.7505,135.011,-1.0476,0.0,0.0
1395,348.5,40.6238,43.5617,155.621,106.526,119.804,0.00185796,0.250442,20.7532,134.13,-1.07845,0.0,0.0
1440,359.75,40.5765,43.4448,154.289,106.931,119.786,0.00224718,0.246792,20.7559,133.38,-1.04223,0.0,0.0
1485,371,40.1486,43.2527,155.996,106.842,119.451,0.00180408,0.247999,20.7557,132.569,-1.02411,0.0,0.0
1530,382.25,40.3803,42.5444,153.133,106.083,119.424,0.00219745,0.24612,20.7581,131.748,-1.08748,0.0,0.0
1575,393.5,39.7991,42.8358,148.726,106.32,118.836,0.00175499,0.247165,20.756,130.897,-1.02165,0.0,0.0
1620,404.75,39.7922,43.1009,152.266,106.595,119.832,0.00156301,0.245298,20.7574,130.047,-1.0746,0.0,0.0
1665,416,39.878,42.4595,149.684,106.614,120.855,0.00176706,0.24447,20.7588,129.266,-1.151,0.0,0.0
1710,427.25,39.5803,42.5193,149.484,106.285,119.433,0.001876,0.245492,20.7562,128.455,-1.07074,0.0,0.0
1755,438.5,39.4695,42.2675,150.989,105.769,120.221,0.00229252,0.244944,20.7579,127.654,-1.17573,0.0,0.0
1800,449.75,39.7455,42.3287,156.81,105.355,118.048,0.00218653,0.246184,20.7563,126.864,-1.04434,0.0,0.0
1845,461,39.2339,42.2375,153.12,105.241,117.876,0.00201552,0.24584,20.7573,125.983,-1.0409,0.0,0.0
1890,472.25,39.8159,42.1118,153.554,105.459,118.139,0.00196853,0.243955,20.7568,125.262,-1.04228,0.0,0.0
1935,483.5,39.581,41.9325,159.016,105.893,119.116,0.00204616,0.243923,20.7566,124.472,-1.08023,0.0,0.0
1980,494.75,39.5463,42.2846,150.187,106.478,120.592,0.002105,0.243191,20.7586,123.701,-1.1427,0.0,0.0
2025,506,39.5325,41.9213,151.344,106.954,121.172,0.0019912,0.246163,20.7533,122.92,-1.14576,0.0,0.0
2070,517.25,39.9068,41.8277,148.057,107.27,121.208,0.00190309,0.248248,20.7523,122.049,-1.12144,0.0,0.0
2115,528.5,39.4265,42.5801,150.57,107.356,120.52,0.00192062,0.247739,20.7512,121.349,-1.0618,0.0,0.0
2160,539.75,39.7528,42.5591,147.482,107.242,122.321,0.00199495,0.251219,20.7508,120.508,-1.20779,0.0,0.0
2205,551,39.9827,42.0089,149.835,107.02,121.072,0.00156799,0.251478,20.7503,119.737,-1.13261,0.0,0.0
2250,562.25,39.9307,42.1354,148.023,106.73,121.57,0.00190843,0.255892,20.7449,118.887,-1.19512,0.0,0.0
2295,573.5,40.3338,42.5559,150.394,106.509,120.999,0.00187013,0.255022,20.7474,118.056,-1.17103,0.0,0.0
2340,584.75,40.6757,42.9135,151.111,106.649,120.855,0.00158143,0.258478,20.741,117.325,-1.14796,0.0,0.0
2385,596,40.4848,42.9683,150.113,106.885,119.424,0.00174742,0.259942,20.7391,116.454,-1.01832,0.0,0.0
2430,607.25,40.6206,43.9581,155.91,107.014,121.651,0.00173031,0.263216,20.7366,115.704,-1.17688,0.0,0.0
2475,618.5,41.5012,43.4953,151.978,106.942,121.425,0.00127646,0.267049,20.7293,114.883,-1.16595,0.0,0.0
2520,629.75,41.0267,43.7152,149.609,106.615,121.208,0.00164963,0.272018,20.7237,113.952,-1.1777,0.0,0.0
2565,641,41.3472,44.4526,147.952,106.109,119.832,0.00133012,0.279019,20.7191,113.161,-1.11652,0.0,0.0
2610,652.25,42.0577,44.6493,147.381,106.206,121.968,0.00171259,0.285969,20.7104,112.261,-1.27036,0.0,0.0
2655,663.5,42.3505,45.2353,152.871,106.4,120.773,0.00161924,0.29635,20.6989,111.37,-1.16324,0.0,0.0
2700,674.75,43.4771,45.5675,150.873,106.535,120.565,0.00172493,0.308327,20.6857,110.429,-1.13575,0.0,0.0
2745,686,43.7736,46.5485,148.437,106.613,122.195,0.00166965,0.319684,20.6748,109.408,-1.25229,0.0,0.0
2790,697.25,44.2384,47.6241,146.111,106.543,123.29,0.00202343,0.330636,20.6635,108.407,-1.34023,0.0,0.0
2835,708.5,45.7307,48.4244,150.167,106.419,122.892,0.00217014,0.343895,20.6489,107.256,-1.32126,0.0,0.0
2880,719.75,45.8888,49.9981,150.158,106.224,122.231,0.00240062,0.353404,20.6381,106.195,-1.28852,0.0,0.0
2925,731,46.9777,50.1834,146.978,105.928,122.358,0.00226911,0.368603,20.6161,105.014,-1.32367,0.0,0.0
2970,742.25,49.0222,51.1912,144.232,105.545,123,0.00242872,0.376779,20.607,103.773,-1.40504,0.0,0.0
3015,753.5,48.9589,52.6419,141.776,105.255,122.52,0.00272838,0.385807,20.5936,102.602,-1.39442,0.0,0.0
3060,764.75,49.9046,53.581,147.578,105.159,121.199,0.00295671,0.386835,20.5887,101.401,-1.3032,0.0,0.0
3105,776,50.3324,54.2143,151.821,105.346,122.674,0.00253326,0.400053,20.5769,100.15,-1.39797,0.0,0.0
3150,787.25,52.0936,55.0814,139.663,105.795,121.878,0.00281036,0.41016,20.5653,98.8586,-1.29915,0.0,0.0
3195,798.5,52.4071,56.2386,140.357,106.311,122.638,0.00337502,0.425452,20.5424,97.5474,-1.31159,0.0,0.0
3240,809.75,53.4354,57.1823,143.524,106.688,122.883,0.00331472,0.429574,20.537,96.2462,-1.29739,0.0,0.0
3285,821,53.6274,57.9775,143.618,106.793,121.814,0.00317626,0.412056,20.5559,94.845,-1.20817,0.0,0.0
3330,832.25,53.9242,57.1961,145.471,106.778,121.597,0.00274894,0.366869,20.6076,93.8741,-1.19309,0.0,0.0
3375,843.5,52.4179,56.4321,148.352,106.573,118.166,0.00236253,0.303617,20.6783,93.0334,-0.947927,0.0,0.0
3420,854.75,49.9217,53.8827,149.061,106.194,119.542,0.0021018,0.244836,20.7464,92.4128,-1.08691,0.0,0.0
3465,866,47.3531,51.1405,151.725,105.696,116.563,0.00373234,0.199668,20.7961,91.9324,-0.89844,0.0,0.0
3510,877.25,44.0773,47.8677,156.608,105.239,117.26,0.00497785,0.163245,20.8374,91.5821,-0.992982,0.0,0.0
3555,888.5,41.1986,45.0703,160.298,105.23,118.492,0.00546515,0.141654,20.8627,91.3819,-1.08964,0.0,0.0
3600,899.75,38.7216,42.347,155.291,105.777,117.541,0.00553944,0.129163,20.8803,91.2017,-0.968095,0.0,0.0
3645,911,36.499,39.3486,155.962,106.439,118.003,0.00604942,0.12082,20.8891,90.9915,-0.946855,0.0,0.0
3690,922.25,35.2859,37.5447,163.064,106.546,117.939,0.00639232,0.117401,20.8942,90.8714,-0.932652,0.0,0.0
3735,933.5,33.9068,35.7437,157.193,106.175,116.835,0.00665171,0.110096,20.9027,90.6312,-0.878333,0.0,0.0
3780,944.75,32.2676,34.2002,158.395,106.819,116.772,0.00665801,0.109825,20.9038,90.6212,-0.817794,0.0,0.0
3825,956,30.7952,32.3189,155.956,106.73,117.632,0.0074068,0.105428,20.9076,90.451,-0.892876,0.0,0.0
3870,967.25,29.5994,31.407,156.641,106.993,117.84,0.00715442,0.104839,20.911,90.2809,-0.886479,0.0,0.0
3915,978.5,28.98,30.389,160.032,107.314,117.46,0.00686143,0.104268,20.9112,90.2309,-0.829312,0.0,0.0
3960,989.75,28.1446,29.1892,159.065,106.161,115.314,0.00656505,0.103832,20.9107,90.0307,-0.759242,0.0,0.0
4005,1001,27.1898,28.3328,159.998,105.236,115.214,0.0064106,0.104043,20.9106,89.9706,-0.831645,0.0,0.0
4050,1012.25,27.3009,27.5601,161.266,106.124,115.196,0.00623618,0.103799,20.9105,89.8805,-0.753031,0.0,0.0
4095,1023.5,27.0273,27.5864,157.414,106.547,115.386,0.00605326,0.104143,20.9107,89.7204,-0.731664,0.0,0.0
4140,1034.75,26.4667,27.2236,159.704,106.322,115.45,0.0060129,0.103431,20.9112,89.6804,-0.756086,0.0,0.0
4185,1046,25.8091,26.5393,157.741,106.625,117.441,0.00598467,0.10321,20.9121,89.5202,-0.886984,0.0,0.0
4230,1057.25,26.0005,26.2902,158.95,107.269,116.455,0.00606922,0.103051,20.9103,89.5202,-0.754306,0.0,0.0
4275,1068.5,26.0059,26.6862,161.729,106.567,115.739,,,,89.4301,-0.758025,0.0,0.0
4277,1069,25.6859,26.3167,158.653,106.48,115.54,,,,89.4101,-0.749719,0.0,0.0

File: Basswood_Panel_Cone_HF25Scan_221212_R4.csv
Names,Time,Stack TC,Smoke TC,Exh Press,Smoke Comp,Smoke Meas,CO Meter,CO2 Meter,O2 Meter,Sample Mass,Ext Coeff,Start Test,Flame Verif
Chan Gain,,500,500,1,1,1,1,1,1,1,1,1.0,1.0
Offset,,0,0,0.136404,0,0,0,0,0,0,0,0.0,0.0
Gain,,1,1,25.011,14.0546,13.8657,1,1,1,1.00087,1.04452,1.0,1.0
Units,sec,C,C,Pa,%,%,%,%,%,g,/m,,
Baseline,,19.837,20.2839,174.971,105.961,106.681,0.000292862,0.0512481,20.9327,-444.626,-0.0621285,,
43,10.5,18.665,19.1376,173.471,104.743,105.29,0.000161557,0.0670907,20.9182,157.658,-0.0477646,0.0,0.0
86,21.25,18.883,19.1231,175.612,104.785,105.315,0.000198205,0.057783,20.9255,157.528,-0.0462594,0.0,0.0
129,32,18.6739,19.5717,173.176,105.355,105.578,0.000371459,0.0546551,20.9323,157.367,-0.0194217,0.0,0.0
172,42.75,19.5389,19.8047,177.612,105.884,105.779,0.000219042,0.0583139,20.9265,157.257,0.00906669,0.0,0.0
215,53.5,19.6295,19.5672,174.582,106.034,105.307,0.000466385,0.0584909,20.926,157.157,0.0630438,0.0,0.0
258,64.25,19.2599,20.0859,173.769,105.947,104.608,0.000477977,0.057558,20.9264,156.987,0.116542,0.0,0.0
301,75,19.2343,20.2227,177.28,105.761,103.728,0.000717031,0.0572371,20.9289,156.747,0.177846,0.0,0.0
344,85.75,19.6161,19.7755,174.98,105.584,102.493,0.00099815,0.0588006,20.9277,156.507,0.272246,0.0,0.0
387,96.5,21.9725,22.0998,159.946,105.489,102.061,0.00137897,0.0596263,20.9281,155.586,0.302607,0.0,1.0
430,107.25,27.4668,27.4125,156.649,105.89,100.228,0.00231709,0.35379,20.6679,153.984,0.503547,0.0,0.0
473,118,32.7911,32.7596,153.387,106.221,101.886,0.00319534,0.461207,20.4749,152.383,0.38176,0.0,0.0
516,128.75,35.5604,35.8985,157.819,106.374,104.548,0.00302336,0.439953,20.4711,150.932,0.158639,0.0,0.0
559,139.5,37.3486,38.0831,156.44,106.4,104.58,0.00247791,0.380944,20.5329,149.671,0.158075,0.0,0.0
602,150.25,37.9131,39.3512,160.273,106.302,104.961,0.0018644,0.334156,20.5969,148.62,0.116308,0.0,0.0
645,161,37.9426,39.9809,158.738,106.181,105.01,0.00188041,0.305106,20.639,147.619,0.101667,0.0,0.0
688,171.75,38.357,40.8059,162.809,106.066,105.048,0.00150564,0.295766,20.6517,146.598,0.0883825,0.0,0.0
731,182.5,38.4882,40.8163,162.421,105.938,104.889,0.00158162,0.284836,20.6624,145.637,0.091186,0.0,0.0
774,193.25,38.4667,40.9184,162.757,105.865,104.715,0.00161587,0.270098,20.6822,144.706,0.100119,0.0,0.0
817,204,38.2097,41.058,162.635,105.939,104.794,0.00158335,0.26393,20.6888,143.836,0.0995439,0.0,0.0
860,214.75,37.7892,41.1119,155.942,106.049,104.905,0.00154397,0.259742,20.6951,142.905,0.0994218,0.0,0.0
903,225.5,38.8854,40.6023,167.39,106.297,104.988,0.00163868,0.255733,20.7019,142.044,0.1135,0.0,0.0
946,236.25,38.245,40.6168,162.025,106.556,105.301,0.00177667,0.250652,20.7057,141.053,0.108591,0.0,0.0
989,247,38.0552,40.3306,162.814,106.728,105.233,0.00147836,0.247087,20.7122,140.182,0.129298,0.0,0.0
1032,257.75,37.8239,40.4186,165.15,106.693,105.397,0.00194226,0.239967,20.7187,139.492,0.111957,0.0,0.0
1075,268.5,37.2885,39.6145,161.392,106.341,104.771,0.00169899,0.236666,20.7231,138.651,0.136271,0.0,0.0
1118,279.25,37.227,39.5188,162.022,105.989,104.723,0.0018979,0.235549,20.7244,137.86,0.1101,0.0,0.0
1161,290,37.5057,39.4229,159.44,105.738,104.152,0.00205208,0.237934,20.7229,137.03,0.1385,0.0,0.0
1204,300.75,37.0569,39.2715,164.092,105.776,104.177,0.00195489,0.232445,20.7255,136.169,0.139575,0.0,0.0
1247,311.5,36.5617,38.9396,168.487,106.043,104.478,0.00224216,0.23315,20.7282,135.398,0.136195,0.0,0.0
1290,322.25,36.7397,38.6028,164.731,106.295,105.086,0.00213542,0.232702,20.7286,134.567,0.104826,0.0,0.0
1333,333,36.1481,38.4463,167.104,106.599,105.449,0.00172613,0.233685,20.7269,133.707,0.0994002,0.0,0.0
1376,343.75,36.5446,38.2648,166.398,106.734,105.561,0.0018911,0.23149,20.7276,132.916,0.101231,0.0,0.0
1419,354.5,36.2608,37.8159,164.32,106.497,105.296,0.00195839,0.227824,20.7332,132.135,0.103868,0.0,0.0
1462,365.25,35.9518,38.1479,163.285,105.938,104.665,0.00240271,0.224987,20.7352,131.425,0.110834,0.0,0.0
1505,376,35.85,37.9045,170.06,106.393,105.332,0.0022206,0.221227,20.7389,130.674,0.0918413,0.0,0.0
1548,386.75,35.9444,37.6106,167.744,105.834,104.701,0.00260103,0.219584,20.7416,129.913,0.0986309,0.0,0.0
1591,397.5,35.69,37.4566,167.66,105.701,104.842,0.00229502,0.218876,20.743,129.193,0.0747518,0.0,0.0
1634,408.25,35.5144,36.7327,168.199,106.032,105.198,0.00257586,0.218177,20.7421,128.452,0.0723626,0.0,0.0
1677,419,35.5122,37.0266,164.764,105.801,104.856,0.00227324,0.218885,20.7468,127.701,0.0821905,0.0,0.0
1720,429.75,35.3121,36.9882,168.553,105.102,104.398,0.00269353,0.218664,20.7479,126.871,0.0616151,0.0,0.0
1763,440.5,35.2596,36.7758,162.805,104.642,103.909,0.00260799,0.218189,20.7461,126.1,0.0644366,0.0,0.0
1806,451.25,35.0213,36.6348,166.24,105.018,103.985,0.00225085,0.217454,20.7471,125.329,0.0905631,0.0,0.0
1849,462,34.8443,36.9336,167.577,105.878,105.063,0.00257512,0.219208,20.7451,124.629,0.070737,0.0,0.0
1892,472.75,35.1528,36.5182,166.882,106.628,105.969,0.00232903,0.221286,20.7431,123.918,0.0567945,0.0,0.0
1935,483.5,34.3288,36.4275,170.765,106.672,105.853,0.00226011,0.223087,20.7421,123.158,0.0706199,0.0,0.0
1978,494.25,35.4449,37.0804,165.011,106.115,105.559,0.00243271,0.223781,20.7402,122.357,0.0481292,0.0,0.0
2021,505,35.0907,36.8358,165.5,106.288,105.729,0.00211523,0.228265,20.734,121.626,0.048252,0.0,0.0
2064,515.75,35.3306,36.8184,161.028,106.14,105.391,0.00231344,0.231821,20.73,120.805,0.0649073,0.0,0.0
2107,526.5,35.7373,36.6597,164.949,105.645,105.101,0.00202138,0.23543,20.7253,120.035,0.0472773,0.0,0.0
2150,537.25,35.7824,36.6208,165.177,106.001,105.142,0.00193819,0.240211,20.7205,119.224,0.0745969,0.0,0.0
2193,548,36.0466,37.2212,163.862,105.367,104.627,0.00133893,0.243058,20.7172,118.323,0.0645493,0.0,0.0
2236,558.75,36.3596,37.5951,163.201,104.587,103.968,0.00148427,0.244135,20.7172,117.543,0.0544061,0.0,0.0
2279,569.5,36.8023,38.1312,164.184,105.623,105.044,0.00118489,0.248785,20.7102,116.792,0.0503237,0.0,0.0
2322,580.25,36.2056,38.1124,158.594,106.741,105.765,0.00139676,0.252566,20.7078,115.971,0.0840977,0.0,0.0
2365,591,37.4776,38.0911,161.099,106.311,105.582,0.00115519,0.259143,20.7028,115.141,0.0630189,0.0,0.0
2408,601.75,37.9383,38.6574,162.155,106.135,105.355,0.00122681,0.264621,20.6949,114.29,0.06759,0.0,0.0
2451,612.5,38.2151,38.9904,165.163,106.363,105.451,0.00163251,0.272675,20.6862,113.349,0.0788807,0.0,0.0
2494,623.25,38.2366,40.59,161.215,105.63,104.676,0.00162107,0.278274,20.6783,112.438,0.0831236,0.0,0.0
2537,634,39.1141,40.4593,159.08,105.677,104.805,0.0013239,0.28606,20.6714,111.457,0.0759619,0.0,0.0
2580,644.75,39.6007,41.3281,161.701,105.851,104.041,0.00168518,0.296762,20.6565,110.446,0.158029,0.0,0.0
2623,655.5,40.3196,41.9938,160.906,105.904,104.451,0.00147308,0.302592,20.649,109.436,0.126555,0.0,0.0
2666,666.25,40.5918,42.5451,160.304,105.915,104.394,0.00161069,0.312006,20.6385,108.395,0.132495,0.0,0.0
2709,677,41.5272,43.1671,161.999,105.927,103.771,0.00200297,0.323364,20.6294,107.364,0.188478,0.0,0.0
2752,687.75,41.9621,44.0632,157.468,105.881,103.521,0.0017654,0.333333,20.6144,106.223,0.206541,0.0,0.0
2795,698.5,43.4896,44.9043,155.949,105.775,102.589,0.00160146,0.346614,20.5987,105.062,0.280286,0.0,0.0
2838,709.25,44.0148,46.0131,157.016,105.661,102.917,0.0024726,0.35605,20.5856,103.851,0.241118,0.0,0.0
2881,720,45.0693,46.6853,160.456,105.561,102.233,0.00218165,0.372664,20.5715,102.62,0.293529,0.0,0.0
2924,730.75,45.4039,47.5363,156.191,105.956,101.598,0.00227372,0.378223,20.5582,101.318,0.384817,0.0,0.0
2967,741.5,46.4961,48.1904,157.276,106.354,102.744,0.00258251,0.383915,20.5496,100.037,0.316447,0.0,0.0
3010,752.25,47.0459,49.0087,159.077,106.411,102.209,0.00235311,0.382363,20.5445,98.6861,0.369147,0.0,0.0
3053,763,47.4095,49.2462,158.782,106.052,101.463,0.00235643,0.382232,20.5452,97.5452,0.405303,0.0,0.0
3096,773.75,47.4294,49.9713,159.095,106.017,101.036,0.00263194,0.377149,20.5538,96.3641,0.440976,0.0,0.0
3139,784.5,47.5019,50.125,159.275,106.38,102.146,0.00238097,0.373952,20.5512,95.2231,0.372103,0.0,0.0
3182,795.25,47.0595,49.4527,162.281,106.689,103.234,0.00247117,0.351277,20.5712,94.2723,0.301555,0.0,0.0
3225,806,45.5106,48.2973,166.007,106.74,103.92,0.00219847,0.299335,20.6243,93.5316,0.245336,0.0,0.0
3268,816.75,43.5053,46.5659,163.928,106.543,104.695,0.00263043,0.241691,20.6893,93.0512,0.160288,0.0,0.0
3311,827.5,41.3788,43.8611,173.987,106.031,104.474,0.00303078,0.187921,20.7514,92.7209,0.135529,0.0,0.0
3354,838.25,39.0352,41.2799,170.575,105.443,105.167,0.00441396,0.145271,20.8075,92.4807,0.0240602,0.0,0.0
3397,849,36.7341,38.7626,170.68,104.961,104.552,0.00560254,0.119277,20.8431,92.2105,0.0357583,0.0,0.0
3440,859.75,34.2864,36.6795,173.342,104.654,104.583,0.00639047,0.106635,20.863,92.0704,0.00624229,0.0,0.0
3483,870.5,32.9724,34.7698,174.26,104.578,104.437,0.00660716,0.103755,20.8686,91.9803,0.0124291,0.0,0.0
3526,881.25,31.3299,33.1451,168.88,104.704,104.657,0.00654574,0.0995856,20.8741,91.8602,0.0040743,0.0,0.0
3569,892,30.0863,32.0162,173.186,105.01,105.145,0.00681564,0.1054,20.8714,91.7301,-0.0117433,0.0,0.0
3612,902.75,28.2729,29.765,170.262,105.371,105.23,0.00682823,0.103962,20.8678,91.62,0.0122687,0.0,0.0
3655,913.5,27.5046,28.4697,175.431,105.73,105.818,0.00727692,0.0984368,20.8775,91.4899,-0.00760197,0.0,0.0
3698,924.25,26.7411,27.5921,166.448,105.943,106.021,0.00736068,0.0949337,20.8802,91.3397,-0.00675481,0.0,0.0
3741,935,26.2462,27.0331,172.692,106.001,106.142,0.00688757,0.0911136,20.886,91.2597,-0.0122376,0.0,0.0
3784,945.75,25.6131,26.7458,172.469,105.965,106.122,0.0069286,0.091751,20.8854,91.1195,-0.0135983,0.0,0.0
3827,956.5,25.0884,25.3828,173.043,105.853,105.847,0.00638722,0.0906165,20.8855,90.9494,0.000458736,0.0,0.0
3870,967.25,25.0174,25.354,178.587,105.712,105.786,0.00621496,0.0899142,20.8901,90.8693,-0.00641487,0.0,0.0
3913,978,24.1212,24.5397,173.429,105.583,105.626,0.00605868,0.0892693,20.8878,90.8193,-0.00378435,0.0,0.0
3956,988.75,23.6918,24.2993,170.133,105.511,105.778,0.00622338,0.0892894,20.8898,90.6992,-0.0232076,0.0,0.0
3999,999.5,23.4654,23.8463,177.725,105.924,106.224,0.00582038,0.0886128,20.8896,90.6491,-0.0259598,0.0,0.0
4042,1010.25,23.2719,23.4458,174.493,106.304,106.444,0.00573548,0.0891584,20.8895,90.499,-0.0121069,0.0,0.0
4076,1018.75,23.3553,23.3674,178.766,106.397,106.689,0.00574933,0.0892263,20.8894,90.3689,-0.0251169,0.0,0.0

File: Basswood_Panel_Cone_HF50Scalar_221212_R1.csv
LABORATORY,FSRI
TEST IDENT,Basswood_HF50_1
OPERATOR,Dow
MATERIAL,Basswood Panel
ORIENTATION,Horizontal
HEAT FLUX,50
SURF AREA,0.01
C FACTOR,0.0389493
SPEC HOLDER DIFF,-566
SPECIMEN MASS,80.12
SCAN TIME,0.25
O2 DELAY TIME,11
CO DELAY TIME,11
CO2 DELAY TIME,8
FLOW FACTOR,1
SCAN COUNT,2999
TIME TO IGN,14.5
END OF TEST SCAN,2519
END OF TEST TIME,629.75
TEST STATUS,1
PRE TEST CMT,Dimensions: 101.20 x 101.13 x 18.99 mm; with tie wires

File: Basswood_Panel_Cone_HF50Scalar_221212_R2.csv
LABORATORY,FSRI
TEST IDENT,Basswood_HF50_2
OPERATOR,Dow
MATERIAL,Basswood Panel
ORIENTATION,Horizontal
HEAT FLUX,50
SURF AREA,0.01
C FACTOR,0.0389493
SPEC HOLDER DIFF,-566
SPECIMEN MASS,78.65
SCAN TIME,0.25
O2 DELAY TIME,11
CO DELAY TIME,11
CO2 DELAY TIME,8
FLOW FACTOR,1
SCAN COUNT,3000
TIME TO IGN,13.75
END OF TEST SCAN,2520
END OF TEST TIME,630
TEST STATUS,1
PRE TEST CMT,Dimensions: 101.13 x 101.19 x 18.86 mm; with tie wires

File: Basswood_Panel_Cone_HF50Scalar_221219_R3.csv
LABORATORY,FSRI
TEST IDENT,Basswood_HF50_3
OPERATOR,Dow
MATERIAL,Basswood Panel
ORIENTATION,Horizontal
HEAT FLUX,50
SURF AREA,0.01
C FACTOR,0.0389493
SPEC HOLDER DIFF,-566
SPECIMEN MASS,87.32
SCAN TIME,0.25
O2 DELAY TIME,11
CO DELAY TIME,11
CO2 DELAY TIME,8
FLOW FACTOR,1
SCAN COUNT,3449
TIME TO IGN,16.25
END OF TEST SCAN,2969
END OF TEST TIME,742.25
TEST STATUS,1
PRE TEST CMT,Dimensions: 101.17 x 101.39 x 19.03 mm; with tie wires