Folder: fsri_materials_database/01_Data/Basswood_Panel/Cone (part 4)

File: Basswood_Panel_Cone_HF50Scan_221219_R3.csv
Names,Time,Stack TC,Smoke TC,Exh Press,Smoke Comp,Smoke Meas,CO Meter,CO2 Meter,O2 Meter,Sample Mass,Ext Coeff,Start Test,Flame Verif
Chan Gain,,500,500,1,1,1,1,1,1,1,1,1.0,1.0
Offset,,0,0,0.136404,0,0,0,0,0,0,0,0.0,0.0
Gain,,1,1,25.011,13.2727,13.2115,1,1,1,1.00087,1.04452,1.0,1.0
Units,sec,C,C,Pa,%,%,%,%,%,g,/m,,
Baseline,,32.662,32.7343,168.795,100.157,100.299,-0.000204308,0.0470207,20.943,-445.73,-0.0129471,,
36,8.75,30.6283,31.246,166.75,100.464,100.26,5.22309e-05,0.0553415,20.9335,165.344,0.0186476,0.0,0.0
72,17.75,30.4663,31.6564,156.207,100.545,98.8865,-0.000243262,0.0524047,20.9359,164.854,0.152359,0.0,1.0
108,26.75,36.6752,36.0848,147.936,100.526,95.0433,0.000821401,0.177677,20.9176,163.413,0.513821,0.0,0.0
144,35.75,42.4349,42.4275,143.198,100.263,93.4169,0.00311085,0.459009,20.5217,161.931,0.64798,0.0,0.0
180,44.75,46.7189,46.8685,159.855,99.9941,94.2644,0.00420238,0.509922,20.4068,160.38,0.540658,0.0,0.0
216,53.75,50.1623,50.9352,141.795,100.275,94.2995,0.00443868,0.518696,20.3815,158.829,0.56297,0.0,0.0
252,62.75,52.956,54.2378,149.449,100.711,96.6278,0.00388643,0.512448,20.3772,157.337,0.379185,0.0,0.0
288,71.75,54.6126,56.0966,149.836,100.411,96.602,0.00346817,0.481758,20.4184,155.946,0.354322,0.0,0.0
324,80.75,56.0548,58.2517,155.481,100.62,97.1036,0.0032656,0.457245,20.4441,154.605,0.325888,0.0,0.0
360,89.75,57.5508,59.9211,155.126,101.067,97.7168,0.00290729,0.440026,20.471,153.374,0.308836,0.0,0.0
396,98.75,58.1203,61.1473,147.191,101.086,97.6842,0.00300588,0.428432,20.4861,152.203,0.313624,0.0,0.0
432,107.75,58.5131,61.6895,153.325,100.514,97.8378,0.00313356,0.419377,20.4977,151.012,0.24724,0.0,0.0
468,116.75,58.7643,62.0903,151.806,99.7085,96.9988,0.00254033,0.405015,20.5149,149.841,0.252454,0.0,0.0
504,125.75,59.1558,62.5429,155.442,99.3323,96.4537,0.00222928,0.388402,20.5346,148.69,0.269446,0.0,0.0
540,134.75,59.1938,62.7235,156.683,99.5421,97.3536,0.00204514,0.378226,20.5457,147.479,0.20369,0.0,0.0
576,143.75,59.3665,63.059,154.371,100.086,98.4833,0.00228199,0.368587,20.5603,146.388,0.147914,0.0,0.0
612,152.75,59.2114,63.0187,152.302,100.514,99.082,0.00202485,0.361121,20.5676,145.377,0.131453,0.0,0.0
648,161.75,59.016,62.8353,154.642,100.434,99.0417,0.00172605,0.34743,20.5843,144.336,0.127868,0.0,0.0
684,170.75,59.0029,62.8252,148.476,99.9459,98.7409,0.00177645,0.33923,20.5962,143.415,0.111137,0.0,0.0
720,179.75,58.4101,62.2156,150.414,100.518,99.2304,0.00208154,0.32654,20.606,142.464,0.118112,0.0,0.0
756,188.75,58.5047,62.1821,149.403,100.502,99.1457,0.00185857,0.32662,20.6117,141.514,0.124457,0.0,0.0
792,197.75,57.7889,61.4509,153.915,100.625,99.4271,0.00198327,0.324429,20.6149,140.533,0.109742,0.0,0.0
828,206.75,58.3811,61.853,152.698,101.114,99.9944,0.00165461,0.319401,20.6193,139.552,0.102023,0.0,0.0
864,215.75,57.8586,61.6164,149.324,100.472,99.5546,0.00164943,0.317662,20.6242,138.521,0.0840198,0.0,0.0
900,224.75,57.937,61.5564,154.119,99.3979,98.1962,0.00153898,0.315155,20.6258,137.57,0.111443,0.0,0.0
936,233.75,58.3516,61.4238,159.402,99.7567,98.4168,0.0014291,0.318107,20.6227,136.639,0.123908,0.0,0.0
972,242.75,57.705,61.3264,154.366,100.558,99.4542,0.00149777,0.31325,20.6261,135.749,0.101129,0.0,0.0
1008,251.75,58.0013,61.1915,148.337,100.07,99.0453,0.00175608,0.311148,20.6323,134.878,0.0942892,0.0,0.0
1044,260.75,57.9027,61.1077,155.678,100.504,99.5638,0.00165912,0.314695,20.6288,133.957,0.0860845,0.0,0.0
1080,269.75,58.0361,61.2925,154.346,100.234,99.1127,0.00167865,0.312307,20.6304,133.016,0.103071,0.0,0.0
1116,278.75,58.2624,61.3377,149.596,101.034,99.9073,0.00172439,0.312509,20.6307,132.115,0.102774,0.0,0.0
1152,287.75,57.9861,61.3234,152.791,100.581,99.5654,0.00165305,0.313178,20.6307,131.124,0.0929486,0.0,0.0
1188,296.75,57.8847,61.1692,159.18,99.3975,98.322,0.00154128,0.31297,20.6288,130.154,0.0996757,0.0,0.0
1224,305.75,57.938,61.3191,150.707,99.7932,98.7079,0.00150378,0.312854,20.631,129.263,0.100195,0.0,0.0
1260,314.75,58.1875,61.5127,146.928,100.491,99.4848,0.00158249,0.313,20.6297,128.362,0.0921776,0.0,0.0
1296,323.75,58.2045,61.0653,156.25,100.442,99.4804,0.00159848,0.313018,20.6309,127.511,0.0881899,0.0,0.0
1332,332.75,58.0782,61.2359,157.502,99.9998,99.1368,0.00142443,0.313493,20.628,126.631,0.0794092,0.0,0.0
1368,341.75,58.0986,61.0903,149.951,99.9795,99.1316,0.00165688,0.310558,20.6322,125.75,0.0780371,0.0,0.0
1404,350.75,58.3195,61.1772,152.499,100.376,99.3937,0.00133022,0.311488,20.6333,124.869,0.0900796,0.0,0.0
1440,359.75,58.0563,61.0421,155.019,100.544,99.6049,0.00119023,0.312155,20.6316,123.908,0.0859926,0.0,0.0
1476,368.75,58.5246,61.4644,151.398,100.572,99.6449,0.00142123,0.313675,20.6279,122.967,0.0848682,0.0,0.0
1512,377.75,57.7373,61.1833,154.523,100.557,99.5799,0.0016067,0.318302,20.6252,122.057,0.0894371,0.0,0.0
1548,386.75,58.1747,61.1384,151.943,100.56,99.5179,0.00129835,0.319836,20.6198,121.166,0.0954459,0.0,0.0
1584,395.75,58.5686,61.8331,157.581,100.579,99.5695,0.00182387,0.327278,20.615,120.315,0.0924674,0.0,0.0
1620,404.75,59.0369,61.666,147.991,100.569,99.4275,0.00167165,0.330351,20.6111,119.414,0.104577,0.0,0.0
1656,413.75,58.6792,61.4292,151.801,100.482,99.3062,0.00162918,0.338165,20.6019,118.443,0.107829,0.0,0.0
1692,422.75,59.6111,62.1264,152.014,100.229,98.8288,0.00163814,0.345565,20.5921,117.473,0.128905,0.0,0.0
1728,431.75,59.8359,62.6625,152.246,99.9743,98.5736,0.00190712,0.353083,20.5865,116.442,0.129275,0.0,0.0
1764,440.75,60.643,63.0913,153.121,99.86,98.1801,0.00177027,0.359341,20.5799,115.441,0.155451,0.0,0.0
1800,449.75,61.0328,62.9799,150.726,100.097,98.3382,0.00162411,0.365606,20.572,114.45,0.162392,0.0,0.0
1836,458.75,61.0345,63.835,151.701,100.357,98.1962,0.00206302,0.375983,20.5588,113.479,0.199434,0.0,0.0
1872,467.75,61.2014,63.6169,148.773,100.524,97.6975,0.00213822,0.381433,20.5508,112.478,0.261275,0.0,0.0
1908,476.75,61.8219,64.6319,146.706,100.548,97.7822,0.00192458,0.383009,20.5454,111.427,0.255553,0.0,0.0
1944,485.75,62.3331,65.084,151.959,100.391,97.6656,0.00203708,0.395641,20.535,110.376,0.252145,0.0,0.0
1980,494.75,63.1063,65.952,148.781,100.097,96.8294,0.00251008,0.405194,20.5226,109.245,0.304128,0.0,0.0
2016,503.75,63.2431,66.1209,148.115,99.7158,95.882,0.00256851,0.415676,20.5098,108.064,0.35923,0.0,0.0
2052,512.75,63.8064,66.4006,157.023,99.3873,95.9412,0.00293499,0.423277,20.4937,106.883,0.323334,0.0,0.0
2088,521.75,64.6838,67.4653,147.877,99.3683,95.2796,0.00269305,0.432611,20.4851,105.742,0.384984,0.0,0.0
2124,530.75,65.3872,68.1081,148.015,99.6846,94.295,0.0027991,0.437914,20.4758,104.611,0.50928,0.0,0.0
2160,539.75,65.1451,68.2726,148.684,100.329,95.4135,0.00300718,0.442226,20.4726,103.46,0.460249,0.0,0.0
2196,548.75,65.7562,69.0417,154.029,100.895,95.9138,0.00259297,0.441392,20.4684,102.329,0.463932,0.0,0.0
2232,557.75,66.0409,69.2588,148.479,101.123,96.7093,0.00289724,0.433305,20.4732,101.188,0.408904,0.0,0.0
2268,566.75,66.0903,69.2245,146.396,100.997,95.8058,0.0029488,0.425891,20.4813,100.087,0.48345,0.0,0.0
2304,575.75,65.8099,68.8841,146.099,100.645,95.1732,0.00276734,0.420155,20.4894,98.9464,0.512236,0.0,0.0
2340,584.75,65.7447,69.1197,147.165,100.274,94.5942,0.00288576,0.412956,20.4954,97.8955,0.53423,0.0,0.0
2376,593.75,65.3332,68.5044,150.439,100.536,94.9139,0.00270903,0.406177,20.5038,96.8345,0.527229,0.0,0.0
2412,602.75,65.5618,68.8152,151.476,100.573,94.8426,0.00267458,0.394709,20.5152,95.9337,0.537553,0.0,0.0
2448,611.75,64.9881,68.3151,152.474,100.047,94.6006,0.0024456,0.369687,20.5355,95.123,0.512893,0.0,0.0
2484,620.75,63.8681,67.2959,153.196,100,95.4731,0.00229003,0.337569,20.5708,94.4324,0.424472,0.0,0.0
2520,629.75,62.1609,65.4875,159.484,100.392,96.7855,0.00204376,0.290948,20.6163,93.932,0.335201,0.0,0.0
2556,638.75,59.9551,63.3545,158.874,100.566,98.8071,0.00206239,0.238202,20.6728,93.6517,0.161715,0.0,0.0
2592,647.75,56.6967,60.0987,158.693,100.429,99.6634,0.00240627,0.175344,20.7473,93.4015,0.0701279,0.0,0.0
2628,656.75,54.9958,58.002,159.231,99.9601,99.1514,0.00292225,0.139112,20.8055,93.1914,0.07443,0.0,0.0
2664,665.75,52.7314,55.5938,163.341,99.4558,98.795,0.00326595,0.126256,20.8301,93.0112,0.0610845,0.0,0.0
2700,674.75,50.5157,53.308,163.332,99.3549,98.6857,0.00383975,0.119781,20.8398,92.8911,0.0619264,0.0,0.0
2736,683.75,50.013,52.2704,163.882,99.826,99.1381,0.00344124,0.115223,20.8487,92.841,0.0633617,0.0,0.0
2772,692.75,47.7854,49.7473,160.682,100.549,100.105,0.00395723,0.113986,20.8506,92.791,0.0405616,0.0,0.0
2808,701.75,47.3774,48.9273,160.51,101.08,100.671,0.00395842,0.113116,20.8535,92.6709,0.0371573,0.0,0.0
2844,710.75,46.5017,47.9829,162.705,100.99,100.389,0.00468967,0.112304,20.8541,92.5808,0.0546884,0.0,0.0
2880,719.75,45.0144,46.4037,164.547,100.475,99.9009,0.0052878,0.109505,20.8578,92.4707,0.052496,0.0,0.0
2916,728.75,44.3184,45.4001,163.283,100.526,100.165,0.00535704,0.108792,20.8611,92.2906,0.0329236,0.0,0.0
2952,737.75,43.7722,44.752,166.923,100.522,99.9448,0.00521163,0.108498,20.8578,92.1705,0.0527871,0.0,0.0
2988,746.75,42.3928,43.3005,165.893,99.8924,99.3796,0.00528855,0.111399,20.8567,92.0804,0.0471632,0.0,0.0
3024,755.75,42.1374,43.0811,164.2,100.333,100.033,0.00530814,0.109836,20.8561,91.9903,0.0274378,0.0,0.0
3060,764.75,41.5163,42.67,163.16,100.544,99.8739,0.00532117,0.107778,20.8605,92.0103,0.0612516,0.0,0.0
3096,773.75,40.9994,42.1506,165.115,100.154,99.7086,0.00511654,0.106155,20.86,91.9102,0.0408498,0.0,0.0
3132,782.75,41.0469,41.0394,164.31,99.4692,98.9316,0.00590681,0.106008,20.8633,91.8402,0.049648,0.0,0.0
3168,791.75,40.6434,40.7863,162.164,99.4635,99.0909,0.00636757,0.10561,20.8635,91.7301,0.0343873,0.0,0.0
3204,800.75,39.4487,40.3573,165.518,100.415,99.9936,0.00655851,0.104499,20.8633,91.5799,0.0384898,0.0,0.0
3240,809.75,39.6918,40.2518,165.468,101.114,100.742,0.00657486,0.104523,20.8655,91.4198,0.0338214,0.0,0.0
3276,818.75,39.4021,39.7358,163.435,100.777,100.628,0.00662797,0.104071,20.8653,91.3698,0.0135427,0.0,0.0
3312,827.75,39.1206,39.2458,165.455,100.43,100.267,0.00656905,0.103801,20.8655,91.2797,0.0148437,0.0,0.0
3348,836.75,39.3396,39.1294,165.109,100.51,99.998,0.00721934,0.102847,20.866,91.2697,0.0467644,0.0,0.0
3384,845.75,38.7087,38.5551,163.159,100.051,99.6686,0.00711392,0.104251,20.8671,91.1796,0.0351022,0.0,0.0
3420,854.75,38.4093,38.9967,167.098,100.534,100.448,0.00741358,0.1044,20.8646,91.1296,0.00780739,0.0,0.0
3449,862,38.3888,38.45,167.831,100.402,100.02,0.00722089,0.104053,20.8665,90.9294,0.0348693,0.0,0.0

File: Basswood_Panel_Cone_HF75Scalar_221219_R1.csv
LABORATORY,FSRI
TEST IDENT,Basswood_HF75_1
OPERATOR,Dow
MATERIAL,Basswood Panel
ORIENTATION,Horizontal
HEAT FLUX,75
SURF AREA,0.01
C FACTOR,0.038613
SPEC HOLDER DIFF,-566
SPECIMEN MASS,82.86
SCAN TIME,0.25
O2 DELAY TIME,11
CO DELAY TIME,11
CO2 DELAY TIME,8
FLOW FACTOR,1
SCAN COUNT,2629
TIME TO IGN,6.5
END OF TEST SCAN,2149
END OF TEST TIME,537.25
TEST STATUS,1
PRE TEST CMT,Dimensions: 101.17 x 101.14 x 19.09 mm; with tie wires

File: Basswood_Panel_Cone_HF75Scalar_221219_R2.csv
LABORATORY,FSRI
TEST IDENT,Basswood_HF75_2
OPERATOR,Dow
MATERIAL,Basswood Panel
ORIENTATION,Horizontal
HEAT FLUX,75
SURF AREA,0.01
C FACTOR,0.038613
SPEC HOLDER DIFF,-566
SPECIMEN MASS,79.12
SCAN TIME,0.25
O2 DELAY TIME,11
CO DELAY TIME,11
CO2 DELAY TIME,8
FLOW FACTOR,1
SCAN COUNT,2436
TIME TO IGN,5.75
END OF TEST SCAN,1956
END OF TEST TIME,489
TEST STATUS,1
PRE TEST CMT,Dimensions: 101.15 x 101.14 x 18.92 mm; with tie wires

File: Basswood_Panel_Cone_HF75Scalar_221219_R3.csv
LABORATORY,FSRI
TEST IDENT,Basswood_HF75_3
OPERATOR,Dow
MATERIAL,Basswood Panel
ORIENTATION,Horizontal
HEAT FLUX,75
SURF AREA,0.01
C FACTOR,0.038613
SPEC HOLDER DIFF,-566
SPECIMEN MASS,88.22
SCAN TIME,0.25
O2 DELAY TIME,11
CO DELAY TIME,11
CO2 DELAY TIME,8
FLOW FACTOR,1
SCAN COUNT,2668
TIME TO IGN,6.5
END OF TEST SCAN,2188
END OF TEST TIME,547
TEST STATUS,1
PRE TEST CMT,Dimensions: 101.35 x 101.15 x 19.10 mm; with tie wires

File: Basswood_Panel_Cone_HF75Scan_221219_R1.csv
Names,Time,Stack TC,Smoke TC,Exh Press,Smoke Comp,Smoke Meas,CO Meter,CO2 Meter,O2 Meter,Sample Mass,Ext Coeff,Start Test,Flame Verif
Chan Gain,,500,500,1,1,1,1,1,1,1,1,1.0,1.0
Offset,,0,0,0.136803,0,0,0,0,0,0,0,0.0,0.0
Gain,,1,1,25.011,13.2421,13.1342,1,1,1,1.00087,1.04452,1.0,1.0
Units,sec,C,C,Pa,%,%,%,%,%,g,/m,,
Baseline,,30.1565,30.9791,156.827,99.8912,99.8054,-0.000644235,0.0528706,20.9335,-445.028,0.00789526,,
27,6.5,30.4587,31.8903,139.743,99.6895,97.3349,-0.000680301,0.0630447,20.9203,161.051,0.219003,0.0,1.0
54,13.25,35.5579,34.4151,134.14,100.033,91.2244,-0.000560437,0.0756834,20.9179,159.579,0.844579,0.0,1.0
81,20,43.7697,42.8807,132.433,100.307,89.9045,0.0019444,0.541828,20.6049,157.978,1.00322,0.0,0.0
108,26.75,49.6344,49.6742,124.138,100.572,89.3157,0.00489946,0.75095,20.1688,156.427,1.08753,0.0,0.0
135,33.5,54.4116,55.3029,133.438,100.783,90.5839,0.00569636,0.775512,20.072,155.005,0.977582,0.0,0.0
162,40.25,57.9522,59.461,133.676,100.922,92.3675,0.00618912,0.745752,20.0791,153.554,0.811585,0.0,0.0
189,47,60.5026,62.2509,134.646,100.948,91.6004,0.00563927,0.70319,20.13,152.103,0.890315,0.0,0.0
216,53.75,62.4134,64.9857,132.928,100.844,93.6494,0.00537636,0.660087,20.1807,150.762,0.678222,0.0,0.0
243,60.5,64.3301,67.3398,136.096,100.654,93.071,0.00519612,0.628676,20.2303,149.581,0.717676,0.0,0.0
270,67.25,65.4742,68.8251,139.054,100.461,93.9348,0.00459087,0.595781,20.2631,148.37,0.615432,0.0,0.0
297,74,66.2907,69.9624,134.015,100.29,93.3415,0.00435684,0.573845,20.2971,147.299,0.657875,0.0,0.0
324,80.75,66.4472,70.5936,132.4,100.14,94.1985,0.00376932,0.550579,20.3259,146.178,0.560394,0.0,0.0
351,87.5,67.9554,71.8845,137.193,100.211,94.5444,0.00405674,0.532315,20.3517,144.987,0.533351,0.0,0.0
378,94.25,67.6759,72.9043,133.553,100.465,95.3565,0.00365802,0.517447,20.3725,143.866,0.4782,0.0,0.0
405,101,68.3069,72.9661,139.061,100.581,94.6763,0.003358,0.506347,20.3848,142.855,0.554327,0.0,0.0
432,107.75,68.4456,73.3701,135.448,100.58,95.4495,0.00308714,0.490139,20.406,141.794,0.479731,0.0,0.0
459,114.5,67.2026,72.7139,138.257,100.489,95.2935,0.00292845,0.479977,20.4183,140.843,0.486386,0.0,0.0
486,121.25,68.5934,73.7086,136.366,100.357,95.4743,0.00277372,0.472259,20.4311,139.872,0.457002,0.0,0.0
513,128,68.6512,74.0977,134.726,100.193,95.6266,0.00232066,0.463898,20.4408,138.801,0.427367,0.0,0.0
540,134.75,68.2799,73.8131,135.34,99.9328,95.4242,0.00257743,0.456458,20.4506,137.85,0.422989,0.0,0.0
567,141.5,68.9797,74.5802,136.383,99.7162,94.8306,0.0026541,0.448408,20.4591,136.92,0.460283,0.0,0.0
594,148.25,69.2068,74.618,135.364,99.7586,94.5176,0.00262466,0.443025,20.4655,135.949,0.494477,0.0,0.0
621,155,69.3298,74.2981,137.883,99.8293,94.9252,0.00258648,0.440577,20.4716,135.048,0.461539,0.0,0.0
648,161.75,68.77,74.7752,138.542,99.9356,95.8327,0.00232403,0.437013,20.4736,134.117,0.384114,0.0,0.0
675,168.5,69.271,74.581,135.33,100.023,95.3777,0.00220357,0.433314,20.4797,133.166,0.435712,0.0,0.0
702,175.25,69.4083,74.5247,136.99,100.078,95.5645,0.0022596,0.429407,20.4846,132.215,0.422857,0.0,0.0
729,182,69.1732,74.7076,135.632,100.153,96.0808,0.00223361,0.428288,20.4873,131.265,0.380334,0.0,0.0
756,188.75,69.3498,74.7228,139.407,100.182,95.4006,0.00235288,0.42464,20.4919,130.414,0.448092,0.0,0.0
783,195.5,69.1788,74.414,137.095,100.178,95.809,0.00224923,0.420682,20.4961,129.553,0.408615,0.0,0.0
810,202.25,69.4343,74.561,140.196,100.177,96.5569,0.00202429,0.422478,20.4972,128.682,0.337218,0.0,0.0
837,209,69.8517,74.4328,134.437,100.147,95.821,0.00196838,0.422197,20.496,127.782,0.404619,0.0,0.0
864,215.75,69.4766,74.6839,139.3,100.11,95.9994,0.0021529,0.421991,20.4977,126.781,0.384177,0.0,0.0
891,222.5,69.4269,75.0683,135.87,100.064,95.5481,0.00228393,0.423706,20.4962,125.9,0.423138,0.0,0.0
918,229.25,69.3882,75.2628,137.9,100.017,95.4507,0.00219301,0.423025,20.4957,124.989,0.428152,0.0,0.0
945,236,69.9444,74.8129,139.838,99.9453,95.5296,0.00206511,0.424222,20.4964,124.088,0.41402,0.0,0.0
972,242.75,70.3776,74.9689,133.82,99.8855,95.3124,0.00210638,0.424998,20.4928,123.258,0.429395,0.0,0.0
999,249.5,70.2804,75.3836,138.435,99.8047,95.7942,0.00179188,0.424865,20.4924,122.387,0.375781,0.0,0.0
1026,256.25,70.5416,74.9086,138.901,99.7222,96.1549,0.00187498,0.425884,20.4937,121.486,0.333769,0.0,0.0
1053,263,70.276,75.0638,133.684,99.6535,95.2671,0.0019443,0.425781,20.4937,120.555,0.412448,0.0,0.0
1080,269.75,70.6688,75.568,144.805,99.6074,95.9906,0.00167923,0.425999,20.4921,119.634,0.338891,0.0,0.0
1107,276.5,71.2181,75.89,139.625,99.5581,95.8375,0.00203428,0.428596,20.4899,118.724,0.348982,0.0,0.0
1134,283.25,70.7319,75.1326,135.831,99.54,95.3705,0.00179981,0.428099,20.4875,117.913,0.392061,0.0,0.0
1161,290,71.3439,75.6742,139.294,99.5424,95.7773,0.00202073,0.432623,20.4861,117.002,0.353282,0.0,0.0
1188,296.75,71.6945,76.236,129.678,99.5064,94.9537,0.00213421,0.433519,20.4824,116.121,0.42911,0.0,0.0
1215,303.5,71.6993,76.2143,136.178,99.4175,95.0807,0.00214441,0.436936,20.4809,115.231,0.408667,0.0,0.0
1242,310.25,71.6453,76.4023,138.503,99.3258,94.9621,0.00204499,0.438397,20.4774,114.32,0.411649,0.0,0.0
1269,317,71.8265,76.7874,134.315,99.2563,95.1188,0.00205227,0.438406,20.475,113.449,0.390126,0.0,0.0
1296,323.75,72.2536,76.798,131.936,99.207,94.2747,0.00230126,0.442502,20.4709,112.588,0.467249,0.0,0.0
1323,330.5,72.1225,76.2314,132.067,99.1601,93.5584,0.00208685,0.444353,20.467,111.748,0.532799,0.0,0.0
1350,337.25,72.6895,77.2677,133.134,99.1354,94.3929,0.00190177,0.449575,20.4633,110.797,0.449156,0.0,0.0
1377,344,73.1648,77.8355,136.555,99.0938,93.3155,0.00195282,0.451137,20.4592,109.856,0.550492,0.0,0.0
1404,350.75,73.5822,77.7088,134.923,99.0486,93.2273,0.00190197,0.457414,20.4539,108.935,0.554968,0.0,0.0
1431,357.5,72.6472,77.821,135.868,99.0162,92.3331,0.00258291,0.459757,20.4491,108.024,0.640288,0.0,0.0
1458,364.25,74.1094,78.2713,136.871,98.9762,92.0008,0.00250644,0.469618,20.4399,107.184,0.669618,0.0,0.0
1485,371,74.619,78.5406,135.372,98.9431,91.8437,0.00259276,0.473412,20.4315,106.333,0.682212,0.0,0.0
1512,377.75,74.3234,79.2217,136.978,98.9196,92.6116,0.00270254,0.477664,20.424,105.402,0.603745,0.0,0.0
1539,384.5,74.6858,78.8554,134.905,98.893,91.1234,0.00260105,0.478438,20.4213,104.471,0.74971,0.0,0.0
1566,391.25,75.4776,79.9832,135.326,98.859,92.6541,0.00250589,0.479493,20.4193,103.49,0.593925,0.0,0.0
1593,398,75.6516,79.6776,136.768,98.8352,91.2047,0.00247972,0.483488,20.4171,102.58,0.736176,0.0,0.0
1620,404.75,75.8861,80.0985,133.566,98.8376,90.7979,0.00230341,0.488638,20.4104,101.679,0.777364,0.0,0.0
1647,411.5,76.184,80.3994,137.645,98.8222,90.9943,0.00267021,0.495102,20.4032,100.748,0.756142,0.0,0.0
1674,418.25,76.5026,80.5392,134.162,98.8121,90.4768,0.00285015,0.501321,20.3946,99.8472,0.807459,0.0,0.0
1701,425,76.915,81.4419,133.149,98.8081,89.6327,0.00284583,0.50864,20.3848,98.8163,0.892969,0.0,0.0
1728,431.75,77.7237,81.7374,137.315,98.7992,90.24,0.00318451,0.512309,20.3782,97.8054,0.830281,0.0,0.0
1755,438.5,78.0149,82.0317,134.561,98.8041,89.0239,0.00299536,0.516873,20.3727,96.8245,0.955047,0.0,0.0
1782,445.25,78.1272,82.4128,134.027,98.8089,87.538,0.00289926,0.521211,20.3646,95.8337,1.10971,0.0,0.0
1809,452,77.9907,82.6974,133.686,98.8037,88.3621,0.00291899,0.520851,20.3611,94.9629,1.02337,0.0,0.0
1836,458.75,78.7303,82.8151,132.314,98.8089,88.9092,0.00303181,0.512257,20.3617,94.1222,0.967301,0.0,0.0
1863,465.5,77.767,82.7333,131.867,98.8085,90.2576,0.00285918,0.5041,20.3718,93.3014,0.829351,0.0,0.0
1890,472.25,77.5983,81.7074,139.779,98.8045,91.9114,0.00293192,0.466707,20.3981,92.6509,0.662611,0.0,0.0
1917,479,76.0204,81.3259,143.843,98.7948,95.0266,0.00211522,0.40396,20.4504,92.1805,0.356308,0.0,0.0
1944,485.75,73.4666,78.4423,143.269,98.7871,97.5005,0.00140965,0.323446,20.5323,91.8902,0.120116,0.0,0.0
1971,492.5,70.9925,76.1322,148.624,98.796,97.9041,0.00124594,0.23204,20.6514,91.7901,0.0830879,0.0,0.0
1998,499.25,68.6964,73.8204,144.793,98.8028,98.064,0.000977721,0.168722,20.7458,91.67,0.0687707,0.0,0.0
2025,506,65.9344,70.5243,143.903,98.7911,97.957,0.00117517,0.146065,20.7945,91.5099,0.0776884,0.0,0.0
2052,512.75,64.9815,69.1603,149.281,98.7895,97.8861,0.00144228,0.136954,20.8117,91.4498,0.0841767,0.0,0.0
2079,519.5,63.0042,66.7548,147.392,98.7883,98.0757,0.00139931,0.132588,20.8208,91.3898,0.0663355,0.0,0.0
2106,526.25,61.6648,65.2728,144.552,98.7879,97.9354,0.00140538,0.127556,20.8264,91.2997,0.0794124,0.0,0.0
2133,533,60.1755,63.5369,144.091,98.7948,97.9153,0.0014005,0.12676,20.8305,91.2797,0.0819242,0.0,0.0
2160,539.75,58.4616,61.9039,149.181,98.8016,97.9911,0.00121814,0.127382,20.831,91.2096,0.0754765,0.0,0.0
2187,546.5,57.5681,59.9269,148.253,98.7992,98.0228,0.00170265,0.126132,20.831,91.0695,0.0722911,0.0,0.0
2214,553.25,56.3172,59.0419,145.636,98.7883,97.933,0.00221432,0.124064,20.8332,90.9094,0.0796755,0.0,0.0
2241,560,55.8452,58.0351,145.567,98.7927,98.0392,0.00225394,0.122568,20.8351,90.8293,0.070155,0.0,0.0
2268,566.75,55.1232,57.0077,146.126,98.8033,98.0829,0.00230616,0.121254,20.8374,90.7292,0.0670479,0.0,0.0
2295,573.5,54.4473,56.4207,149.233,98.8158,97.9346,0.00276294,0.120865,20.8379,90.7192,0.0820736,0.0,0.0
2322,580.25,53.9152,55.312,146.446,98.8271,98.1282,0.00300369,0.122064,20.8387,90.6591,0.0650276,0.0,0.0
2349,587,53.0863,54.4056,145.265,98.8453,98.3446,0.00293629,0.121533,20.839,90.5691,0.0465253,0.0,0.0
2376,593.75,51.892,54.0007,145.588,98.8255,98.1354,0.00341353,0.121968,20.8407,90.459,0.0642055,0.0,0.0
2403,600.5,51.4061,52.6361,146.986,98.8332,97.9598,0.00369178,0.121807,20.8405,90.3789,0.0813223,0.0,0.0
2430,607.25,51.5341,53.2216,155.688,98.8283,97.9919,0.00431458,0.122274,20.8415,90.2988,0.0778747,0.0,0.0
2457,614,51.021,52.4568,147.623,98.8279,98.3226,0.00469181,0.121503,20.8421,90.2388,0.0469698,0.0,0.0
2484,620.75,50.8651,51.8422,148.336,98.8069,98.0075,0.00478138,0.121258,20.8421,90.2288,0.0744268,0.0,0.0
2511,627.5,50.4234,51.5956,147.921,98.8069,98.4063,0.00503993,0.120907,20.8444,90.1487,0.0372172,0.0,0.0
2538,634.25,49.804,51.1906,147.481,98.7984,98.1438,0.00553809,0.121027,20.8452,90.0386,0.0609077,0.0,0.0
2565,641,49.6086,50.8832,147.153,98.7968,98.224,0.00571386,0.121513,20.8425,89.9585,0.0532768,0.0,0.0
2592,647.75,49.3562,50.2663,149.104,98.7948,98.2003,0.00594768,0.121097,20.843,89.9085,0.0552964,0.0,0.0
2619,654.5,49.2975,50.4351,147.775,98.7996,97.9041,0.00599622,0.120343,20.8465,89.8184,0.0834245,0.0,0.0
2629,657,49.2942,49.9133,147.173,98.8089,98.2556,0.00620203,0.12067,20.8467,89.8384,0.0514479,0.0,0.0