Folder: fsri_materials_database/01_Data/Basswood_Panel/Cone

Note: 01_Data/README.md
# Materials and Products Database
## 01_Data

Raw data generated from each apparatus are included here in plain-text format. The data is organized first by material, next by the short name of test apparatus used, and where applicable additional filtering by test settings.

### material.json

Each material directory contains a json file of the same name as the material. This file links the data stored in the repository as well as data and graphs produced by the accompanying scripts (__02_Scripts__) to the respective landing page for the material on the front-end website.

File: Basswood_Panel_Cone_HF25Scalar_221212_R1.csv
LABORATORY,FSRI
TEST IDENT,Basswood_HF25_1
OPERATOR,Dow
MATERIAL,Basswood panel
ORIENTATION,Horizontal
HEAT FLUX,25
SURF AREA,0.01
C FACTOR,0.0380612
SPEC HOLDER DIFF,-566
SPECIMEN MASS,81.82
SCAN TIME,0.25
O2 DELAY TIME,11
CO DELAY TIME,11
CO2 DELAY TIME,8
FLOW FACTOR,1
SCAN COUNT,3809
TIME TO IGN,88
END OF TEST SCAN,3329
END OF TEST TIME,832.25
TEST STATUS,1
PRE TEST CMT,Dimensions: 100.97 x 101.10 x 18.99 mm
POST TEST CMT,Sample warped dramatically into arched shape during last minute prior to extinguishment.

File: Basswood_Panel_Cone_HF25Scalar_221212_R2.csv
LABORATORY,FSRI
TEST IDENT,Basswood_HF25_2
OPERATOR,Dow
MATERIAL,Basswood panel
ORIENTATION,Horizontal
HEAT FLUX,25
SURF AREA,0.01
C FACTOR,0.0380612
SPEC HOLDER DIFF,-566
SPECIMEN MASS,82.9
SCAN TIME,0.25
O2 DELAY TIME,11
CO DELAY TIME,11
CO2 DELAY TIME,8
FLOW FACTOR,1
SCAN COUNT,4125
TIME TO IGN,96.5
END OF TEST SCAN,3645
END OF TEST TIME,911.25
TEST STATUS,1
PRE TEST CMT,Dimensions: 101.27 x 101.11 x 19.16 mm; with tie wires

File: Basswood_Panel_Cone_HF25Scalar_221212_R3.csv
LABORATORY,FSRI
TEST IDENT,Basswood_HF25_3
OPERATOR,Dow
MATERIAL,Basswood panel
ORIENTATION,Horizontal
HEAT FLUX,25
SURF AREA,0.01
C FACTOR,0.0380612
SPEC HOLDER DIFF,-566
SPECIMEN MASS,83.2
SCAN TIME,0.25
O2 DELAY TIME,11
CO DELAY TIME,11
CO2 DELAY TIME,8
FLOW FACTOR,1
SCAN COUNT,4277
TIME TO IGN,113
END OF TEST SCAN,3797
END OF TEST TIME,949.25
TEST STATUS,1
PRE TEST CMT,Dimensions: 101.22 x 101.10 x 19.14 mm; with tie wires

File: Basswood_Panel_Cone_HF25Scalar_221212_R4.csv
LABORATORY,FSRI
TEST IDENT,Basswood_HF25_4
OPERATOR,Dow
MATERIAL,Basswood Panel
ORIENTATION,Horizontal
HEAT FLUX,25
SURF AREA,0.01
C FACTOR,0.0389493
SPEC HOLDER DIFF,-566
SPECIMEN MASS,79.8
SCAN TIME,0.25
O2 DELAY TIME,11
CO DELAY TIME,11
CO2 DELAY TIME,8
FLOW FACTOR,1
SCAN COUNT,4076
TIME TO IGN,92.5
END OF TEST SCAN,3596
END OF TEST TIME,899
TEST STATUS,1
PRE TEST CMT,Dimensions: 101.27 x 101.20 x 19.01 mm; with tie wires

File: Basswood_Panel_Cone_HF25Scan_221212_R1.csv
Names,Time,Stack TC,Smoke TC,Exh Press,Smoke Comp,Smoke Meas,CO Meter,CO2 Meter,O2 Meter,Sample Mass,Ext Coeff,Start Test,Flame Verif
Chan Gain,,500,500,1,1,1,1,1,1,1,1,1.0,1.0
Offset,,0,0,0.136389,0,0,0,0,0,0,0,0.0,0.0
Gain,,1,1,25.011,14.2696,296.664,1,1,1,1.0009,1.04656,1.0,1.0
Units,sec,C,C,Pa,%,%,%,%,%,g,/m,,
Baseline,,24.4992,25.3778,160.922,106.747,112.622,0.000620808,0.0671075,20.9537,-447.042,-0.491761,,
40,9.75,22.3171,23.55,163.709,105.521,112.2,0.000788938,0.0744165,20.9432,132.899,-0.563415,0.0,0.0
80,19.75,22.4134,23.4022,160.129,105.451,111.593,0.0004626,0.0717279,20.9453,132.729,-0.519713,0.0,0.0
120,29.75,22.7395,23.1399,157.951,105.707,111.602,0.000875859,0.0697388,20.9487,132.599,-0.498154,0.0,0.0
160,39.75,22.4655,23.5345,160.412,106.14,111.584,0.000824356,0.0700357,20.9499,132.469,-0.45915,0.0,0.0
200,49.75,22.4829,23.8215,160.363,106.571,111.521,0.000716824,0.0707123,20.9512,132.329,-0.416759,0.0,0.0
240,59.75,22.8882,23.6386,159.925,107.019,112.625,0.000852631,0.0699632,20.9518,132.148,-0.468716,0.0,0.0
280,69.75,22.7067,24.2558,157.823,107.364,111.738,0.00103007,0.0704439,20.9502,131.968,-0.366571,0.0,0.0
320,79.75,23.1134,24.2363,161.954,107.485,110.679,0.00138266,0.0709976,20.9518,131.728,-0.268819,0.0,0.0
360,89.75,23.4535,23.8718,145.522,107.386,121.968,0.00211477,0.132147,20.8379,131.198,-1.16892,0.0,1.0
400,99.75,31.0758,30.6112,143.9,107.126,126.993,0.00399694,0.517743,20.4686,129.566,-1.56182,0.0,0.0
440,109.75,38.2138,38.5929,142.948,106.835,120.112,0.00433595,0.541081,20.4504,128.065,-1.0754,0.0,0.0
480,119.75,42.4051,44.0687,142.972,106.609,123.254,0.00395375,0.489916,20.5065,126.593,-1.33187,0.0,0.0
520,129.75,44.8273,47.0214,146.24,106.855,121.063,0.00331704,0.435879,20.5628,125.352,-1.14609,0.0,0.0
560,139.75,45.5708,48.4908,141.9,107.086,122.249,0.00261724,0.392171,20.6074,124.141,-1.2157,0.0,0.0
600,149.75,46.1237,49.4303,149.881,107.055,121.869,0.00220645,0.367385,20.6341,123.06,-1.18975,0.0,0.0
640,159.75,46.2102,49.8657,145.74,106.757,122.946,0.00203288,0.34306,20.6597,122.049,-1.29617,0.0,0.0
680,169.75,45.6962,50.35,151.395,106.188,122.43,0.00189956,0.325325,20.6805,121.078,-1.30663,0.0,0.0
720,179.75,47.2733,50.1409,151.154,106.257,121.027,0.00214253,0.315942,20.6882,120.178,-1.19482,0.0,0.0
760,189.75,44.8838,49.3777,144.25,106.42,121.968,0.00224288,0.310521,20.6953,119.247,-1.25186,0.0,0.0
800,199.75,45.6092,49.6775,148.587,106.576,122.53,0.0023305,0.303978,20.7018,118.356,-1.28061,0.0,0.0
840,209.75,44.8237,49.2141,151.087,106.714,122.448,0.00244908,0.299888,20.7054,117.475,-1.26259,0.0,0.0
880,219.75,44.7966,49.1768,151.589,106.687,121.108,0.00202974,0.297771,20.7077,116.614,-1.16393,0.0,0.0
920,229.75,44.6042,48.9524,148.003,106.507,120.99,0.00227487,0.295288,20.7082,115.754,-1.1705,0.0,0.0
960,239.75,44.254,48.7499,149.805,106.194,122.013,0.00224048,0.292011,20.711,114.893,-1.27482,0.0,0.0
1000,249.75,44.573,48.6608,148.022,105.828,123.127,0.00219256,0.291519,20.7122,114.022,-1.38994,0.0,0.0
1040,259.75,44.1115,47.9948,147.811,105.516,121.398,0.00205224,0.289857,20.7155,113.171,-1.28719,0.0,0.0
1080,269.75,43.6458,47.7157,146.278,105.312,120.511,0.00192777,0.282078,20.7234,112.331,-1.23764,0.0,0.0
1120,279.75,43.7034,47.4694,151.382,105.326,121.108,0.00211959,0.277569,20.7289,111.54,-1.28175,0.0,0.0
1160,289.75,43.3346,47.0231,150.429,105.629,121.353,0.00202336,0.271762,20.736,110.709,-1.27396,0.0,0.0
1200,299.75,43.0705,46.8294,148.641,106.102,121.416,0.00222208,0.266285,20.7423,109.928,-1.23766,0.0,0.0
1240,309.75,42.8648,46.7963,149.896,106.56,121.633,0.00188775,0.263618,20.7437,109.128,-1.21456,0.0,0.0
1280,319.75,42.586,46.0053,154.272,106.9,121.525,0.00192739,0.261019,20.7469,108.367,-1.17714,0.0,0.0
1320,329.75,42.1393,45.5435,149.816,107.128,121.144,0.00192807,0.256458,20.7514,107.626,-1.12884,0.0,0.0
1360,339.75,41.6532,45.0958,146.356,107.269,122.846,0.00194768,0.254592,20.7533,106.876,-1.24484,0.0,0.0
1400,349.75,41.34,44.8028,146.798,107.384,122.991,0.00195474,0.252556,20.7546,106.115,-1.24575,0.0,0.0
1440,359.75,41.5653,44.7514,153.318,107.372,121.95,0.00241238,0.254611,20.7526,105.394,-1.16875,0.0,0.0
1480,369.75,41.2206,44.216,150.095,107.276,123.236,0.00192044,0.252484,20.7548,104.684,-1.27321,0.0,0.0
1520,379.75,40.74,44.2252,153.875,107.086,122.385,0.0020439,0.253511,20.7524,103.943,-1.2259,0.0,0.0
1560,389.75,40.8987,43.9125,149.774,106.864,123.299,0.00211949,0.254034,20.7515,103.192,-1.31333,0.0,0.0
1600,399.75,40.6886,43.9884,145.956,106.632,122.421,0.00166526,0.252378,20.7541,102.442,-1.26763,0.0,0.0
1640,409.75,40.991,43.7581,147.467,106.465,122.457,0.00166008,0.25174,20.7547,101.731,-1.28476,0.0,0.0
1680,419.75,40.8939,43.6656,149.127,106.732,122.14,0.00146207,0.253312,20.7531,101.041,-1.23794,0.0,0.0
1720,429.75,40.9731,43.5841,151.028,106.872,121.679,0.00155302,0.253881,20.7542,100.3,-1.19119,0.0,0.0
1760,439.75,40.9363,43.9694,150.269,106.887,123.308,0.00169402,0.255096,20.7511,99.5992,-1.31202,0.0,0.0
1800,449.75,41.0371,43.746,152.979,106.796,123.743,0.00163417,0.257458,20.7469,98.8286,-1.3521,0.0,0.0
1840,459.75,41.1448,43.8104,150.025,106.603,123.516,0.00149559,0.258616,20.7502,98.1079,-1.35193,0.0,0.0
1880,469.75,41.599,44.0646,149.224,106.497,121.923,0.00202957,0.261716,20.7467,97.3572,-1.24185,0.0,0.0
1920,479.75,41.897,44.4556,148.929,106.669,122.186,0.0017381,0.262878,20.7434,96.6466,-1.24678,0.0,0.0
1960,489.75,42.0023,44.4805,146.204,106.972,124.087,0.0017284,0.261514,20.7475,95.9259,-1.36248,0.0,0.0
2000,499.75,41.8238,44.5606,144.873,107.25,124.965,0.00171097,0.264565,20.7437,95.1252,-1.40337,0.0,0.0
2040,509.75,41.9781,45.1406,147.111,107.344,124.512,0.00229113,0.267284,20.7409,94.3846,-1.36204,0.0,0.0
2080,519.75,42.3678,45.5041,149.046,107.117,124.159,0.00155367,0.268857,20.7388,93.6439,-1.35543,0.0,0.0
2120,529.75,43.108,45.845,147.003,106.487,123.743,0.00168366,0.27279,20.7327,92.9233,-1.37872,0.0,0.0
2160,539.75,42.657,45.739,147.549,105.749,123.589,0.00144389,0.275956,20.7315,92.1426,-1.43111,0.0,0.0
2200,549.75,43.1097,46.3064,150.188,105.255,123.779,0.00164431,0.282127,20.7222,91.2918,-1.48827,0.0,0.0
2240,559.75,43.4677,46.2023,147.925,105.405,124.802,0.00183354,0.286757,20.7171,90.6012,-1.5507,0.0,0.0
2280,569.75,44.1969,46.8366,146.717,106.123,125.916,0.0016514,0.293167,20.7115,89.7704,-1.56996,0.0,0.0
2320,579.75,44.462,47.2346,147.725,106.63,125.744,0.00170123,0.301292,20.7014,88.9297,-1.51366,0.0,0.0
2360,589.75,45.0788,47.7537,152.682,106.427,124.06,0.00197349,0.307847,20.6917,88.119,-1.40734,0.0,0.0
2400,599.75,45.1913,48.4451,145.14,106.139,125.78,0.00165034,0.317807,20.6828,87.2782,-1.55862,0.0,0.0
2440,609.75,45.8,48.4927,151.395,107.015,127.192,0.00208028,0.330599,20.6661,86.3674,-1.58569,0.0,0.0
2480,619.75,46.91,50.3934,147.154,106.629,126.585,0.00195054,0.340089,20.655,85.3765,-1.575,0.0,0.0
2520,629.75,47.4574,50.663,147.883,107.318,126.54,0.00175769,0.35607,20.6375,84.4457,-1.51256,0.0,0.0
2560,639.75,47.7509,52.07,145.738,106.938,128.731,0.00240371,0.368122,20.6246,83.3947,-1.70273,0.0,0.0
2600,649.75,49.1461,52.2977,142.631,105.679,124.992,0.00239206,0.383573,20.6063,82.3438,-1.54089,0.0,0.0
2640,659.75,50.0296,53.3065,140.909,105.407,124.711,0.00267211,0.397553,20.5883,81.2628,-1.54388,0.0,0.0
2680,669.75,51.2596,54.8319,140.948,106.368,127.599,0.00270655,0.413445,20.5702,80.0918,-1.67073,0.0,0.0
2720,679.75,52.0527,55.4965,144.912,106.585,126.911,0.00278365,0.424014,20.5561,78.9107,-1.6024,0.0,0.0
2760,689.75,52.938,56.825,143.718,106.343,126.133,0.00273094,0.434269,20.545,77.7497,-1.56678,0.0,0.0
2800,699.75,53.7704,58.1062,140.245,106.688,127.427,0.00273098,0.441405,20.5387,76.4885,-1.6308,0.0,0.0
2840,709.75,54.6625,58.8197,140.107,107.293,126.92,0.0030235,0.444877,20.5338,75.2975,-1.5423,0.0,0.0
2880,719.75,55.046,59.5408,142.172,106.672,128.505,0.00271311,0.438896,20.5391,74.1164,-1.70944,0.0,0.0
2920,729.75,55.6332,60.2429,139.283,105.341,125.671,0.00282992,0.438028,20.5402,72.9053,-1.62002,0.0,0.0
2960,739.75,55.9647,60.5487,139.175,106.374,124.204,0.00328572,0.445036,20.5315,71.6842,-1.42264,0.0,0.0
3000,749.75,56.8074,61.0603,151.682,106.483,125.499,0.00315927,0.459616,20.5124,70.4631,-1.5084,0.0,0.0
3040,759.75,57.4787,62.0097,145.421,106.666,123.562,0.00379533,0.473785,20.4889,69.152,-1.34989,0.0,0.0
3080,769.75,57.4173,62.1116,150.007,106.642,122.466,0.00361673,0.438148,20.5295,67.9709,-1.27016,0.0,0.0
3120,779.75,55.8978,60.8305,149.415,107.101,122.72,0.00300887,0.336771,20.6389,67.1602,-1.24968,0.0,0.0
3160,789.75,53.1615,58.3555,150.093,107.354,121.479,0.00495619,0.281869,20.689,66.5997,-1.13484,0.0,0.0
3200,799.75,50.6362,55.4102,151.315,106.648,122.068,0.00725363,0.223181,20.7562,66.1993,-1.23973,0.0,0.0
3240,809.75,47.1137,51.8955,156.838,105.714,120.293,0.00941092,0.182608,20.804,65.9291,-1.18602,0.0,0.0
3280,819.75,44.1494,48.4811,157.499,105.393,118.184,0.0115134,0.169781,20.8183,65.6488,-1.05156,0.0,0.0
3320,829.75,41.5133,45.4117,154.043,105.629,117.74,0.0116976,0.165682,20.8215,65.4186,-0.996535,0.0,0.0
3360,839.75,38.9722,42.4106,157.389,106.117,117.505,0.012591,0.160665,20.829,65.2284,-0.935796,0.0,0.0
3400,849.75,36.8894,39.5054,158.249,106.494,116.69,0.0126041,0.15319,20.8384,65.0483,-0.839423,0.0,0.0
3440,859.75,35.3458,37.9954,157.839,106.703,117.369,0.0128944,0.144492,20.8496,64.8581,-0.874611,0.0,0.0
3480,869.75,33.8888,36.1952,157.933,106.71,117.405,0.0114558,0.142612,20.8541,64.698,-0.876882,0.0,0.0
3520,879.75,33.0466,34.8399,154.74,106.569,116.536,0.0114503,0.141226,20.855,64.6379,-0.820815,0.0,0.0
3560,889.75,32.1634,33.7185,151.956,106.373,116.21,0.0109541,0.141275,20.8537,64.4477,-0.811963,0.0,0.0
3600,899.75,31.3037,32.3965,156.28,106.243,116.219,0.011134,0.141098,20.8541,64.2676,-0.823921,0.0,0.0
3640,909.75,30.4891,32.1337,156.756,106.154,114.907,0.0104897,0.139036,20.857,64.1675,-0.727353,0.0,0.0
3680,919.75,30.4009,30.9284,161.184,106.089,114.888,0.0106094,0.140649,20.8593,63.9673,-0.731519,0.0,0.0
3720,929.75,29.8423,30.7278,159.102,106.197,114.454,0.0103518,0.140662,20.858,63.8372,-0.687426,0.0,0.0
3760,939.75,28.6097,29.5276,157.162,106.49,114.961,0.0101308,0.144039,20.8523,63.7571,-0.702664,0.0,0.0
3800,949.75,29.0245,29.7874,158.163,106.691,115.83,,,,63.6771,-0.754518,0.0,0.0
3809,952,29.0696,29.6685,159.052,106.733,115.332,,,,63.607,-0.711296,0.0,0.0

File: Basswood_Panel_Cone_HF25Scan_221212_R2.csv
Names,Time,Stack TC,Smoke TC,Exh Press,Smoke Comp,Smoke Meas,CO Meter,CO2 Meter,O2 Meter,Sample Mass,Ext Coeff,Start Test,Flame Verif
Chan Gain,,500,500,1,1,1,1,1,1,1,1,1.0,1.0
Offset,,0,0,0.136389,0,0,0,0,0,0,0,0.0,0.0
Gain,,1,1,25.011,14.2696,296.664,1,1,1,1.0009,1.04656,1.0,1.0
Units,sec,C,C,Pa,%,%,%,%,%,g,/m,,
Baseline,,22.0762,23.0146,162.403,106.693,110.286,0.000814245,0.0659424,20.9556,-443.306,-0.304026,,
43,10.5,20.1659,21.1539,165.244,105.609,108.551,0.000642382,0.0684391,20.9528,159.763,-0.252274,0.0,0.0
86,21.25,20.1659,21.154,160.952,105.598,109.094,0.000597152,0.0661599,20.9543,159.633,-0.299008,0.0,0.0
129,32,20.1954,21.3078,165.956,105.612,108.904,0.000745498,0.0664081,20.9579,159.513,-0.281822,0.0,0.0
172,42.75,20.4664,20.9627,162.528,105.629,107.365,0.000575949,0.0664928,20.9579,159.403,-0.149641,0.0,0.0
215,53.5,20.2716,22.0088,163.748,105.684,109.022,0.000883569,0.0667211,20.9585,159.233,-0.285457,0.0,0.0
258,64.25,20.2333,21.4078,162.883,105.817,108.225,0.00100414,0.0675927,20.9586,159.033,-0.206592,0.0,0.0
301,75,20.4833,21.5136,159.204,106.058,107.926,0.00136499,0.06835,20.9582,158.822,-0.16027,0.0,0.0
344,85.75,20.8188,21.8609,163.258,106.348,108.044,0.0015743,0.0696795,20.9557,158.592,-0.145281,0.0,0.0
387,96.5,21.0733,21.962,153.688,106.587,114.888,0.00250416,0.0866786,20.9435,158.292,-0.688547,0.0,1.0
430,107.25,27.3798,27.5335,141.258,106.807,119.804,0.00326971,0.429002,20.5488,156.851,-1.05428,0.0,0.0
473,118,34.5028,35.3263,138.624,107.016,120.456,0.00375274,0.497965,20.4734,155.279,-1.08614,0.0,0.0
516,128.75,39.5465,41.0989,142.016,107.142,120.827,0.00353482,0.491091,20.4811,153.708,-1.10356,0.0,0.0
559,139.5,43.4298,44.9298,138.395,107.261,121.452,0.00323107,0.449717,20.5295,152.256,-1.14068,0.0,0.0
602,150.25,45.131,47.2292,147.08,107.334,120.837,0.00287995,0.395544,20.5899,150.985,-1.08781,0.0,0.0
645,161,45.0208,48.6445,145.172,107.319,122.321,0.00208634,0.369233,20.6187,149.764,-1.20119,0.0,0.0
688,171.75,45.6319,49.513,144.918,107.218,122.955,0.00224479,0.348757,20.6464,148.623,-1.25731,0.0,0.0
731,182.5,45.6715,49.6944,141.24,106.976,123.362,0.0024489,0.332255,20.6647,147.622,-1.3084,0.0,0.0
774,193.25,44.6719,49.5631,152.398,106.649,121.606,0.00206844,0.315018,20.6848,146.621,-1.20483,0.0,0.0
817,204,44.6701,49.2362,146.785,106.477,122.104,0.00191061,0.301701,20.698,145.681,-1.2572,0.0,0.0
860,214.75,44.3004,48.847,154.871,106.912,120.791,0.00179515,0.296339,20.7032,144.71,-1.12053,0.0,0.0
903,225.5,43.8932,48.4368,154.41,106.822,120.275,0.0018714,0.291109,20.7079,143.759,-1.08897,0.0,0.0
946,236.25,43.7343,47.7864,149.094,106.262,120.411,0.00213731,0.287581,20.7129,142.838,-1.14755,0.0,0.0
989,247,43.1153,47.1297,149.396,106.12,119.859,0.00225449,0.279241,20.7239,141.967,-1.11766,0.0,0.0
1032,257.75,42.6958,47.2806,149.803,106.348,121.57,0.00200345,0.27775,20.7249,141.076,-1.22811,0.0,0.0
1075,268.5,42.4398,46.9262,149.573,106.583,120.33,0.00219075,0.275425,20.7277,140.116,-1.11365,0.0,0.0
1118,279.25,42.4414,46.6877,149.984,106.601,120.999,0.00224973,0.274396,20.7288,139.195,-1.16312,0.0,0.0
1161,290,42.1764,46.3212,151.045,106.39,120.637,0.00266168,0.272107,20.7294,138.324,-1.15377,0.0,0.0
1204,300.75,42.0725,46.1539,152.356,105.968,120.737,0.00190926,0.268711,20.7315,137.573,-1.19783,0.0,0.0
1247,311.5,41.8485,45.5495,148.587,105.589,121.126,0.00215475,0.268586,20.7324,136.723,-1.2603,0.0,0.0
1290,322.25,41.5415,45.2772,149.174,105.308,120.185,0.0020548,0.265851,20.7356,135.882,-1.21308,0.0,0.0
1333,333,41.451,44.9929,151.453,105.282,118.827,0.00213479,0.260841,20.7411,135.081,-1.11099,0.0,0.0
1376,343.75,41.1134,44.6191,149.84,105.556,120.592,0.0023953,0.259198,20.7423,134.22,-1.22257,0.0,0.0
1419,354.5,40.9797,44.3744,150.144,106.119,121.316,0.00233111,0.257255,20.7475,133.41,-1.2287,0.0,0.0
1462,365.25,40.3053,44.1235,149.713,106.805,122.004,0.00217046,0.254589,20.7512,132.599,-1.22148,0.0,0.0
1505,376,41.0977,43.901,151.403,107.24,121.76,0.0024282,0.251573,20.753,131.728,-1.16571,0.0,0.0
1548,386.75,41.0573,44.281,149.947,107.307,122.475,0.00191575,0.250804,20.7531,130.947,-1.21378,0.0,0.0
1591,397.5,41.1522,42.9194,151.048,106.961,121.027,0.00229184,0.249213,20.7568,130.167,-1.13422,0.0,0.0
1634,408.25,40.8243,43.4646,154.91,106.498,121.09,0.00223497,0.247756,20.7599,129.416,-1.1788,0.0,0.0
1677,419,40.0065,43.4219,152.65,106.894,120.936,0.00264363,0.246897,20.7594,128.615,-1.1331,0.0,0.0
1720,429.75,40.4814,43.2104,150.323,106.891,121.316,0.00215721,0.249635,20.7587,127.805,-1.16215,0.0,0.0
1763,440.5,40.3453,42.862,154.101,106.141,120.158,0.00195758,0.2513,20.7544,127.024,-1.1387,0.0,0.0
1806,451.25,40.6353,43.4144,153.468,106.219,119.886,0.00240941,0.252485,20.7554,126.203,-1.11115,0.0,0.0
1849,462,40.5086,43.3015,151.174,106.464,120.348,0.00196339,0.252337,20.7553,125.432,-1.12527,0.0,0.0
1892,472.75,40.5067,43.43,155.056,106.618,120.972,0.00182988,0.254354,20.7511,124.512,-1.15952,0.0,0.0
1935,483.5,40.6935,43.0162,158.055,106.409,121.615,0.0021503,0.255749,20.7495,123.721,-1.22623,0.0,0.0
1978,494.25,40.7566,43.3349,150.233,105.961,120.33,0.00209742,0.257588,20.7462,123.01,-1.16737,0.0,0.0
2021,505,41.3136,42.6348,152.3,105.482,120.683,0.00193767,0.257973,20.746,122.179,-1.23586,0.0,0.0
2064,515.75,40.8765,43.4738,152.06,105.227,119.397,0.00185661,0.261709,20.7408,121.409,-1.15978,0.0,0.0
2107,526.5,40.5585,43.8044,150.702,105.324,118.917,0.00173098,0.26394,20.7369,120.628,-1.11438,0.0,0.0
2150,537.25,40.7998,43.3465,145.666,105.778,120.701,0.00155391,0.265291,20.7354,119.797,-1.21158,0.0,0.0
2193,548,40.9789,43.5505,148.223,106.427,122.167,0.00169801,0.268836,20.7313,118.967,-1.26628,0.0,0.0
2236,558.75,40.9542,43.9643,149.179,107.027,122.376,0.00184014,0.27185,20.7269,118.196,-1.23026,0.0,0.0
2279,569.5,41.4943,44.12,153.885,107.318,121.941,0.00175539,0.275936,20.7231,117.335,-1.17272,0.0,0.0
2322,580.25,41.8257,44.5263,154.27,107.276,123.706,0.00204,0.28264,20.7158,116.474,-1.30825,0.0,0.0
2365,591,42.6149,44.7469,151.691,106.992,122.475,0.00178272,0.287835,20.7114,115.644,-1.24079,0.0,0.0
2408,601.75,42.64,45.1059,142.494,106.625,123.073,0.0014885,0.294878,20.7023,114.783,-1.31699,0.0,0.0
2451,612.5,43.4505,45.5558,151.374,106.531,122.991,0.00168306,0.300972,20.6957,113.942,-1.31905,0.0,0.0
2494,623.25,43.7682,46.1103,146.756,106.898,124.168,0.00166543,0.307829,20.688,113.041,-1.37486,0.0,0.0
2537,634,44.2156,46.7837,142.825,106.982,123.924,0.00170138,0.314355,20.6829,112.14,-1.34959,0.0,0.0
2580,644.75,44.3765,47.3607,147.882,106.782,122.122,0.0023056,0.324224,20.6685,111.23,-1.23231,0.0,0.0
2623,655.5,45.2602,47.8737,148.254,106.303,123.489,0.00193659,0.33362,20.6599,110.229,-1.37578,0.0,0.0
2666,666.25,45.8485,48.8101,144.047,106.124,123.299,0.00208167,0.345662,20.6452,109.208,-1.37707,0.0,0.0
2709,677,46.8848,49.9671,148.861,106.266,122.819,0.00223572,0.354325,20.6313,108.087,-1.32904,0.0,0.0
2752,687.75,47.1117,50.6857,148.179,106.43,123.091,0.00253878,0.367692,20.6168,106.976,-1.33515,0.0,0.0
2795,698.5,48.2552,51.8324,148.435,106.553,123.027,0.00227543,0.37602,20.609,105.965,-1.3198,0.0,0.0
2838,709.25,49.2688,52.563,148.455,106.565,124.693,0.00218063,0.387617,20.5939,104.774,-1.44225,0.0,0.0
2881,720,50.1625,53.719,142.137,106.375,125.037,0.00281541,0.395618,20.5808,103.623,-1.48396,0.0,0.0
2924,730.75,50.6019,54.2017,146.253,106.067,123.218,0.00271095,0.404553,20.5708,102.362,-1.37598,0.0,0.0
2967,741.5,51.649,55.0681,142.393,105.694,123.245,0.00300291,0.405361,20.5711,101.211,-1.41036,0.0,0.0
3010,752.25,51.8322,55.7153,140.596,105.368,122.059,0.00281152,0.408695,20.5667,99.9395,-1.34992,0.0,0.0
3053,763,52.4438,56.1723,142.995,105.182,121.977,0.00292863,0.411339,20.5655,98.7185,-1.36001,0.0,0.0
3096,773.75,52.9499,56.611,144.114,105.2,122.602,0.00359258,0.415262,20.5592,97.4573,-1.40535,0.0,0.0
3139,784.5,53.2825,57.0678,142.704,105.403,121.181,0.00281349,0.395579,20.5818,96.2462,-1.2806,0.0,0.0
3182,795.25,53.4476,56.8692,146.743,105.823,121.217,0.00241836,0.365936,20.6128,95.1853,-1.24678,0.0,0.0
3225,806,51.7852,56.6541,152.511,106.333,121.262,0.00187036,0.322828,20.6593,94.4046,-1.20611,0.0,0.0
3268,816.75,50.5321,54.6187,150.019,106.814,120.809,0.002156,0.27542,20.7123,93.714,-1.13036,0.0,0.0
3311,827.5,47.8331,52.386,152.189,107.121,120.465,0.00233386,0.222357,20.7705,93.2636,-1.0778,0.0,0.0
3354,838.25,44.8417,48.6198,158.444,107.23,119.904,0.00365706,0.177995,20.8219,92.8932,-1.02559,0.0,0.0
3397,849,42.2848,45.7084,157.538,107.23,119.107,0.00486077,0.150425,20.8562,92.633,-0.964355,0.0,0.0
3440,859.75,39.5576,42.9934,157.773,107.161,118.356,0.00586431,0.133117,20.8744,92.4428,-0.912183,0.0,0.0
3483,870.5,37.2341,40.5309,158.142,106.942,117.894,0.00763281,0.122204,20.8874,92.2827,-0.895045,0.0,0.0
3526,881.25,35.0984,37.9462,156.518,106.533,118.193,0.00821104,0.117224,20.8921,92.0825,-0.953525,0.0,0.0
3569,892,33.6959,36.3994,160.127,105.903,116.898,0.00776247,0.113477,20.8976,91.8823,-0.906874,0.0,0.0
3612,902.75,32.8682,34.5603,158.327,105.345,115.504,0.00714786,0.113047,20.8982,91.8723,-0.845208,0.0,0.0
3655,913.5,31.1891,32.3115,159.127,105.157,115.314,0.00831484,0.112403,20.8988,91.7522,-0.846456,0.0,0.0
3698,924.25,30.6971,31.9389,159.559,105.521,114.291,0.0077572,0.108434,20.9034,91.6121,-0.732957,0.0,0.0
3741,935,29.5426,30.4176,157.588,106.181,115.558,0.00733813,0.108021,20.9032,91.522,-0.776912,0.0,0.0
3784,945.75,29.0924,30.4473,157.266,106.584,115.576,0.00767634,0.108107,20.9031,91.3519,-0.743627,0.0,0.0
3827,956.5,28.1631,29.2149,155.981,106.39,116.065,0.00754469,0.109264,20.9027,91.2618,-0.799084,0.0,0.0
3870,967.25,28.0479,28.754,154.962,106.087,115.739,0.00707443,0.10833,20.9048,91.1317,-0.799459,0.0,0.0
3913,978,27.681,28.5304,161.232,106.983,117.604,0.00688266,0.107491,20.9056,91.0316,-0.869019,0.0,0.0
3956,988.75,27.5656,27.763,159.853,106.465,116.246,0.0066516,0.107092,20.9051,90.8314,-0.806934,0.0,0.0
3999,999.5,26.8946,27.6648,161.097,107.199,116.237,0.00679515,0.106416,20.9059,90.7613,-0.743089,0.0,0.0
4042,1010.25,26.7544,27.1027,159.585,107.043,115.278,0.00616075,0.107141,20.9061,90.7113,-0.680416,0.0,0.0
4085,1021,26.5633,27.1499,156.16,105.638,114.888,,0.106226,,90.6312,-0.770604,0.0,0.0
4125,1031,26.1787,26.4924,160.708,105.316,113.159,,,,90.5411,-0.659464,0.0,0.0