Folder: fsri_materials_database/01_Data/Basswood_Panel/HFM

Note: 01_Data/README.md
# Materials and Products Database
## 01_Data

Raw data generated from each apparatus are included here in plain-text format. The data is organized first by material, next by the short name of test apparatus used, and where applicable additional filtering by test settings.

### material.json

Each material directory contains a json file of the same name as the material. This file links the data stored in the repository as well as data and graphs produced by the accompanying scripts (__02_Scripts__) to the respective landing page for the material on the front-end website.

File: Basswood_Panel_Density_Dry_R1.csv
,Basswood_Panel_DRY_1
Sample Mass [g],146.4
Sample Volume [cm3],393.5
Sample Density [kg/m3],372

File: Basswood_Panel_Density_Dry_R2.csv
,Basswood_Panel_DRY_2
Sample Mass [g],150.2
Sample Volume [cm3],393.2
Sample Density [kg/m3],382

File: Basswood_Panel_Density_Dry_R3.csv
,Basswood_Panel_DRY_3
Sample Mass [g],148.6
Sample Volume [cm3],392.1
Sample Density [kg/m3],379

File: Basswood_Panel_Density_Wet_R1.csv
,Basswood_Panel_WET_1
Sample Mass [g],156.7
Sample Volume [cm3],393.5
Sample Density [kg/m3],398

File: Basswood_Panel_Density_Wet_R2.csv
,Basswood_Panel_WET_2
Sample Mass [g],160.8
Sample Volume [cm3],393.2
Sample Density [kg/m3],409

File: Basswood_Panel_Density_Wet_R3.csv
,Basswood_Panel_WET_3
Sample Mass [g],158.7
Sample Volume [cm3],392.1
Sample Density [kg/m3],405

File: Basswood_Panel_Ignition_Temp_Properties.csv
Thermal Conductivity (W/m-K),0.101
Heat Capacity (J/kg-K),1553.0
Density (kg/m3),404.0