Folder: fsri_materials_database/01_Data/Basswood_Panel/MCC (part 2)

File: Basswood_Panel_MCC_30K_min_211117_R3.txt
Sample ID:	C:\MCC\MCC Cal\Test\Basswood_Panel_MCC_30K_min_211117_R3.txt
Sample Weight (mg):	4.66
Heating Rate (C/s):	0.5
Combustor Temp (C):	900
N2 Flow Rate (cc/min):	80
O2 Flow Rate (cc/min):	20
Calibration File:	C:\MCC\MCC Cal\Coeff1 JN10440_30_210304.txt.txt
T Correction Coefficients:	0	1.024463	0
Time Shift (s):	14
*
Time (s)	Temperature (C)	N2 flow rate (cc/min)	O2 flow rate (cc/min)	Flow Rate (cc/min)	Oxygen (%)	HRR (W/g)	Heating rate (C/s)
0.000	108.819	80.004	19.995	103.023	19.864	0.002	-0.007
8.000	108.757	80.004	19.996	103.023	19.863	0.078	0.002
16.001	108.808	80.003	19.996	103.041	19.859	0.343	0.016
24.000	108.934	80.002	19.996	103.070	19.853	0.731	0.041
32.000	109.325	80.003	19.996	103.203	19.835	1.982	0.071
40.001	110.295	80.004	19.995	103.223	19.827	2.534	0.141
48.000	111.668	80.004	19.995	103.210	19.819	3.097	0.203
56.000	113.576	80.005	19.996	103.277	19.816	3.311	0.276
64.000	115.873	80.005	19.994	103.271	19.822	2.922	0.305
72.001	118.488	80.006	19.995	103.269	19.819	3.140	0.351
80.000	121.402	80.002	19.995	103.271	19.813	3.518	0.351
88.000	124.461	80.002	19.997	103.283	19.820	3.049	0.387
96.000	127.715	80.005	19.995	103.288	19.819	3.144	0.411
104.001	131.123	80.003	19.996	103.280	19.814	3.455	0.408
112.000	134.741	80.002	19.996	103.289	19.812	3.584	0.486
120.000	138.395	80.004	19.995	103.266	19.814	3.485	0.452
128.000	142.211	80.005	19.995	103.286	19.809	3.828	0.474
136.000	146.097	80.002	19.996	103.273	19.809	3.828	0.496
144.000	150.056	80.004	19.995	103.266	19.814	3.484	0.531
152.000	153.971	80.006	19.995	103.266	19.812	3.611	0.476
160.000	157.978	80.004	19.995	103.258	19.811	3.665	0.505
168.000	161.959	80.004	19.995	103.258	19.809	3.836	0.464
176.000	165.978	80.003	19.996	103.252	19.810	3.765	0.463
184.000	170.052	80.003	19.995	103.256	19.818	3.206	0.547
192.000	174.063	80.003	19.994	103.254	19.817	3.263	0.539
200.000	178.042	80.003	19.997	103.230	19.817	3.273	0.504
208.000	181.923	80.003	19.996	103.232	19.816	3.353	0.507
216.000	185.881	80.004	19.994	103.236	19.814	3.492	0.491
224.000	189.816	80.004	19.995	103.225	19.813	3.548	0.504
232.000	193.725	80.005	19.995	103.231	19.813	3.520	0.493
240.000	197.576	80.005	19.995	103.221	19.810	3.740	0.478
248.000	201.459	80.003	19.995	103.224	19.805	4.115	0.491
256.000	205.412	80.004	19.994	103.226	19.804	4.126	0.512
264.000	209.390	80.004	19.996	103.227	19.806	4.015	0.493
272.000	213.323	80.003	19.995	103.223	19.800	4.436	0.527
280.000	217.313	80.002	19.996	103.225	19.797	4.602	0.495
288.000	221.195	80.003	19.996	103.226	19.790	5.093	0.457
296.000	225.174	80.004	19.997	103.222	19.781	5.711	0.507
304.000	229.161	80.004	19.996	103.224	19.782	5.652	0.509
312.000	233.191	80.005	19.994	103.225	19.774	6.240	0.506
320.000	237.177	80.005	19.994	103.229	19.769	6.552	0.497
328.000	241.201	80.002	19.995	103.239	19.769	6.545	0.496
336.000	245.226	80.003	19.994	103.231	19.756	7.464	0.486
344.000	249.254	80.003	19.994	103.231	19.744	8.294	0.505
352.000	253.249	80.004	19.995	103.235	19.733	9.055	0.516
360.000	257.183	80.003	19.995	103.243	19.718	10.084	0.460
368.000	261.129	80.005	19.995	103.242	19.698	11.478	0.499
376.000	265.073	80.006	19.995	103.247	19.676	13.011	0.501
384.000	269.042	80.004	19.996	103.260	19.647	14.982	0.500
392.000	273.020	80.004	19.995	103.274	19.622	16.769	0.498
400.000	276.930	80.005	19.995	103.287	19.589	18.990	0.489
408.000	280.877	80.002	19.994	103.299	19.550	21.735	0.464
416.000	284.877	80.003	19.994	103.300	19.509	24.532	0.496
424.000	288.883	80.003	19.994	103.311	19.475	26.907	0.505
432.000	292.875	80.004	19.995	103.326	19.440	29.345	0.475
440.000	296.867	80.002	19.994	103.331	19.407	31.651	0.512
448.000	300.885	80.004	19.994	103.338	19.376	33.742	0.492
456.000	304.857	80.005	19.995	103.338	19.358	34.999	0.484
464.000	308.811	80.004	19.996	103.339	19.333	36.736	0.492
472.000	312.854	80.005	19.995	103.344	19.317	37.849	0.504
480.000	316.806	80.006	19.996	103.335	19.299	39.106	0.507
488.000	320.794	80.001	19.995	103.342	19.276	40.709	0.491
496.000	324.760	80.003	19.995	103.363	19.248	42.658	0.527
504.000	328.735	80.004	19.996	103.374	19.211	45.225	0.504
512.000	332.696	80.004	19.995	103.376	19.168	48.163	0.466
520.000	336.663	80.002	19.995	103.405	19.112	52.094	0.484
528.000	340.663	80.003	19.995	103.417	19.051	56.325	0.492
536.000	344.557	80.005	19.994	103.457	18.980	61.250	0.516
544.000	348.516	80.004	19.995	103.469	18.903	66.567	0.502
552.000	352.500	80.004	19.995	103.492	18.835	71.294	0.546
560.000	356.551	80.006	19.994	103.513	18.773	75.631	0.518
568.000	360.590	80.004	19.995	103.497	18.736	78.176	0.575
576.000	365.064	80.003	19.995	103.487	18.733	78.334	0.724
584.000	368.796	80.003	19.995	103.449	18.788	74.476	0.496
592.000	372.922	80.004	19.994	103.382	18.898	66.770	0.552
600.000	377.094	80.002	19.997	103.301	19.069	54.900	0.490
608.001	381.214	80.002	19.995	103.227	19.271	40.979	0.512
616.000	385.294	80.005	19.995	103.179	19.464	27.638	0.507
624.000	389.357	80.006	19.995	103.169	19.606	17.826	0.480
632.000	393.341	80.005	19.994	103.150	19.688	12.181	0.496
640.000	397.342	80.006	19.995	103.141	19.724	9.698	0.488
648.000	401.318	80.006	19.995	103.143	19.744	8.297	0.496
656.000	405.261	80.003	19.994	103.151	19.752	7.751	0.493
664.000	409.251	80.004	19.996	103.148	19.762	7.043	0.479
672.000	413.202	80.003	19.995	103.143	19.764	6.880	0.527
680.000	417.097	80.003	19.996	103.140	19.767	6.715	0.494
688.000	421.037	80.004	19.995	103.136	19.769	6.571	0.494
696.000	424.968	80.005	19.995	103.144	19.773	6.265	0.501
704.000	429.088	80.005	19.994	103.156	19.772	6.344	0.530
712.000	433.212	80.005	19.994	103.151	19.781	5.724	0.528
720.000	437.542	80.006	19.994	103.156	19.783	5.614	0.587
728.000	441.956	80.007	19.994	103.153	19.786	5.405	0.578
736.000	446.386	80.004	19.995	103.148	19.788	5.271	0.552
744.000	450.867	80.004	19.995	103.143	19.794	4.851	0.529
752.000	455.351	80.004	19.995	103.143	19.798	4.540	0.590
760.000	459.728	80.006	19.995	103.138	19.806	3.981	0.559
768.000	464.029	80.003	19.997	103.140	19.809	3.827	0.548
776.000	468.259	80.004	19.995	103.140	19.813	3.545	0.524
784.000	472.452	80.005	19.994	103.137	19.813	3.500	0.523
792.000	476.682	80.003	19.995	103.137	19.813	3.519	0.530
800.000	480.737	80.005	19.995	103.130	19.814	3.422	0.470
808.000	484.769	80.006	19.993	103.109	19.818	3.167	0.512
816.000	488.655	80.003	19.994	103.105	19.821	2.956	0.493
824.000	492.643	80.003	19.995	103.110	19.827	2.576	0.519
832.000	496.640	80.004	19.995	103.124	19.829	2.401	0.491
840.000	500.518	80.004	19.995	103.106	19.833	2.144	0.448
848.000	504.421	80.003	19.994	103.115	19.827	2.576	0.488
856.000	508.221	80.003	19.995	103.107	19.833	2.172	0.439
864.000	511.910	80.005	19.996	103.106	19.834	2.043	0.480
872.000	515.608	80.004	19.994	103.103	19.832	2.204	0.473
880.000	519.393	80.005	19.995	103.109	19.831	2.295	0.490
888.000	523.326	80.005	19.994	103.116	19.835	2.026	0.507
896.000	527.324	80.003	19.995	103.117	19.834	2.067	0.505
904.000	531.434	80.002	19.994	103.125	19.834	2.068	0.525
912.000	535.593	80.005	19.995	103.112	19.833	2.166	0.514
920.000	539.847	80.003	19.995	103.118	19.836	1.967	0.543
928.000	544.003	80.004	19.995	103.124	19.834	2.053	0.537
936.000	548.183	80.003	19.995	103.116	19.836	1.909	0.542
944.000	552.334	80.006	19.994	103.111	19.837	1.857	0.533
952.000	556.522	80.003	19.996	103.126	19.836	1.916	0.514
960.000	560.701	80.002	19.996	103.173	19.840	1.690	0.531
968.000	564.910	80.005	19.993	103.119	19.841	1.624	0.531
976.000	569.076	80.004	19.994	103.118	19.839	1.743	0.549
984.001	573.174	80.003	19.993	103.113	19.841	1.613	0.514
992.000	577.202	80.003	19.996	103.107	19.839	1.756	0.525
1000.000	581.149	80.004	19.995	103.111	19.839	1.749	0.527
1008.000	585.061	80.002	19.996	103.115	19.845	1.319	0.480
1016.000	588.950	80.004	19.996	103.104	19.846	1.244	0.492
1024.001	592.827	80.006	19.995	103.100	19.840	1.654	0.492
1032.000	596.815	80.004	19.995	103.107	19.841	1.574	0.483
1040.000	600.759	80.004	19.995	103.111	19.842	1.499	0.481
1048.000	604.760	80.005	19.996	103.101	19.842	1.490	0.466
1056.000	608.868	80.004	19.994	103.112	19.845	1.302	0.527
1064.000	613.090	80.002	19.995	103.109	19.840	1.674	0.527
1072.000	617.398	80.003	19.995	103.105	19.841	1.624	0.537
1080.000	621.679	80.004	19.996	103.115	19.844	1.386	0.513
1088.000	625.986	80.002	19.994	103.114	19.839	1.736	0.530
1096.000	630.252	80.003	19.994	103.106	19.840	1.676	0.532
1104.000	634.456	80.005	19.994	103.114	19.835	1.972	0.559
1112.000	638.602	80.004	19.995	103.115	19.839	1.738	0.509
1120.000	642.752	80.004	19.994	103.106	19.841	1.622	0.531
1128.000	646.719	80.005	19.993	103.102	19.841	1.577	0.479
1136.000	650.762	80.005	19.995	103.103	19.840	1.693	0.500
1144.000	654.828	80.004	19.996	103.096	19.843	1.486	0.517
1152.000	658.844	80.005	19.995	103.097	19.843	1.486	0.498
1160.000	662.900	80.005	19.994	103.102	19.842	1.492	0.511
1168.000	666.981	80.002	19.994	103.102	19.839	1.721	0.559
1176.000	670.985	80.002	19.995	103.104	19.840	1.637	0.505
1184.000	675.084	80.004	19.996	103.105	19.842	1.501	0.515
1192.000	679.129	80.005	19.994	103.105	19.839	1.717	0.529
1200.000	683.140	80.005	19.996	103.107	19.841	1.615	0.499
1208.000	687.049	80.005	19.996	103.101	19.837	1.849	0.500
1216.000	691.060	80.006	19.995	103.104	19.836	1.915	0.530
1224.000	695.098	80.002	19.995	103.101	19.843	1.455	0.498
1232.000	699.245	80.003	19.995	103.104	19.840	1.676	0.514
1240.000	703.325	80.005	19.996	103.105	19.839	1.697	0.492
1248.000	707.400	80.004	19.994	103.103	19.839	1.697	0.522
1256.000	711.506	80.004	19.996	103.106	19.839	1.751	0.534
1264.000	715.591	80.004	19.995	103.103	19.841	1.620	0.502
1272.000	719.623	80.006	19.995	103.104	19.842	1.542	0.493
1280.000	723.654	80.006	19.994	103.103	19.841	1.570	0.521
1288.000	727.664	80.005	19.995	103.102	19.841	1.591	0.530
1296.000	731.654	80.007	19.995	103.101	19.844	1.393	0.524
1304.001	735.678	80.004	19.995	103.104	19.840	1.630	0.492
1312.000	739.923	80.003	19.995	103.106	19.839	1.717	0.543
1318.500	743.406	80.001	19.995	103.107	19.839	1.699	0.521