Folder: fsri_materials_database/01_Data/Basswood_Panel/MCC

Note: 01_Data/README.md
# Materials and Products Database
## 01_Data

Raw data generated from each apparatus are included here in plain-text format. The data is organized first by material, next by the short name of test apparatus used, and where applicable additional filtering by test settings.

### material.json

Each material directory contains a json file of the same name as the material. This file links the data stored in the repository as well as data and graphs produced by the accompanying scripts (__02_Scripts__) to the respective landing page for the material on the front-end website.

File: Basswood_Panel_MCC_30K_min_211116_R1.txt
Sample ID:	C:\MCC\MCC Cal\Test\Basswood_Panel_MCC_30K_min_211116_R1.txt
Sample Weight (mg):	4.68
Heating Rate (C/s):	0.5
Combustor Temp (C):	900
N2 Flow Rate (cc/min):	80
O2 Flow Rate (cc/min):	20
Calibration File:	C:\MCC\MCC Cal\Coeff1 JN10440_30_210304.txt.txt
T Correction Coefficients:	0	1.024463	0
Time Shift (s):	14
*
Time (s)	Temperature (C)	N2 flow rate (cc/min)	O2 flow rate (cc/min)	Flow Rate (cc/min)	Oxygen (%)	HRR (W/g)	Heating rate (C/s)
0.000	106.963	80.004	19.998	102.982	20.312	0.159	0.021
8.000	106.949	80.000	19.995	102.987	20.313	0.133	0.001
16.000	106.989	80.003	19.995	103.025	20.305	0.658	-0.005
24.000	107.222	80.003	19.996	103.096	20.296	1.298	0.047
32.001	107.806	80.000	19.995	103.141	20.279	2.451	0.098
40.001	108.734	80.003	19.995	103.183	20.274	2.820	0.156
48.000	110.139	80.003	19.995	103.217	20.264	3.459	0.206
56.000	112.021	80.001	19.994	103.244	20.259	3.807	0.252
64.000	114.285	80.001	19.996	103.256	20.261	3.653	0.319
72.000	116.961	80.001	19.995	103.256	20.255	4.125	0.330
80.000	119.919	80.000	19.995	103.257	20.259	3.848	0.406
88.000	123.068	80.001	19.995	103.260	20.254	4.161	0.434
96.001	126.403	80.003	19.994	103.257	20.255	4.127	0.430
104.001	129.870	80.003	19.995	103.255	20.252	4.267	0.409
112.000	133.530	80.003	19.995	103.256	20.251	4.350	0.464
120.000	137.237	80.003	19.994	103.256	20.252	4.277	0.488
128.000	141.091	80.004	19.993	103.257	20.249	4.473	0.522
136.000	145.057	80.000	19.994	103.258	20.255	4.088	0.451
144.000	149.070	80.001	19.994	103.244	20.249	4.532	0.521
152.000	153.093	80.002	19.994	103.233	20.252	4.293	0.495
160.000	157.107	80.002	19.996	103.230	20.250	4.443	0.522
168.000	161.162	80.000	19.996	103.228	20.253	4.210	0.489
176.000	165.189	80.001	19.996	103.218	20.248	4.544	0.519
184.000	169.241	80.002	19.994	103.216	20.245	4.750	0.484
192.000	173.186	80.003	19.995	103.207	20.254	4.189	0.509
200.000	177.092	80.003	19.995	103.192	20.252	4.299	0.494
208.000	180.969	80.003	19.994	103.215	20.246	4.709	0.503
216.000	184.819	80.002	19.994	103.218	20.244	4.827	0.476
224.000	188.717	80.002	19.995	103.212	20.240	5.147	0.492
232.000	192.610	80.002	19.994	103.212	20.237	5.303	0.452
240.000	196.529	80.001	19.995	103.216	20.239	5.179	0.468
248.000	200.434	80.002	19.996	103.208	20.232	5.687	0.503
256.000	204.396	80.001	19.995	103.199	20.231	5.756	0.521
264.000	208.339	80.001	19.995	103.207	20.225	6.155	0.490
272.000	212.306	80.002	19.993	103.199	20.225	6.159	0.527
280.000	216.244	80.003	19.995	103.203	20.219	6.545	0.523
288.000	220.200	80.002	19.996	103.194	20.214	6.942	0.490
296.000	224.187	80.000	19.995	103.200	20.202	7.707	0.497
304.000	228.161	80.002	19.994	103.207	20.197	8.051	0.497
312.000	232.190	80.003	19.995	103.209	20.195	8.222	0.504
320.001	236.244	80.001	19.997	103.210	20.191	8.468	0.515
328.000	240.227	80.000	19.996	103.203	20.178	9.398	0.554
336.000	244.264	80.001	19.995	103.216	20.174	9.676	0.529
344.000	248.259	80.002	19.995	103.217	20.162	10.484	0.537
352.000	252.306	80.002	19.996	103.214	20.146	11.614	0.520
360.000	256.287	80.004	19.995	103.213	20.137	12.226	0.460
368.001	260.213	80.004	19.994	103.220	20.119	13.476	0.474
376.000	264.214	80.001	19.994	103.217	20.094	15.152	0.513
384.000	268.223	80.001	19.994	103.238	20.067	17.068	0.477
392.000	272.253	80.002	19.994	103.257	20.037	19.084	0.490
400.000	276.275	80.001	19.995	103.258	20.003	21.412	0.515
408.000	280.270	80.001	19.994	103.260	19.967	23.900	0.481
416.000	284.194	80.002	19.995	103.282	19.926	26.744	0.508
424.000	288.281	80.004	19.995	103.294	19.886	29.540	0.537
432.000	292.296	80.001	19.995	103.295	19.844	32.425	0.519
440.000	296.372	80.002	19.996	103.300	19.807	34.937	0.480
448.000	300.385	80.003	19.995	103.316	19.777	37.000	0.512
456.000	304.479	80.001	19.994	103.326	19.754	38.623	0.551
464.000	308.549	80.002	19.995	103.329	19.727	40.467	0.517
472.000	312.665	80.002	19.996	103.330	19.713	41.427	0.536
480.000	316.819	80.002	19.994	103.328	19.693	42.825	0.486
488.000	320.816	80.001	19.995	103.326	19.669	44.440	0.553
496.000	324.531	80.003	19.994	103.334	19.632	46.998	0.474
504.000	328.492	80.002	19.995	103.334	19.600	49.212	0.400
512.000	332.704	80.003	19.996	103.359	19.564	51.726	0.558
520.000	336.569	80.005	19.996	103.375	19.506	55.709	0.696
528.000	340.656	80.002	19.994	103.408	19.440	60.268	0.626
536.000	344.392	80.000	19.995	103.416	19.370	65.145	0.759
544.000	348.671	80.001	19.995	103.451	19.303	69.766	0.588
552.000	352.392	80.000	19.993	103.459	19.220	75.537	0.209
560.000	356.539	80.001	19.996	103.489	19.155	79.994	0.370
568.000	360.829	80.003	19.995	103.489	19.107	83.250	0.475
576.000	364.798	80.002	19.996	103.463	19.093	84.203	0.470
584.000	368.921	80.003	19.994	103.446	19.132	81.452	0.469
592.000	373.125	80.001	19.996	103.372	19.232	74.495	0.496
600.000	377.356	80.002	19.995	103.301	19.388	63.722	0.508
608.000	381.402	80.003	19.994	103.223	19.575	50.825	0.541
616.000	385.542	80.002	19.997	103.172	19.776	37.011	0.475
624.000	389.625	80.000	19.996	103.138	19.945	25.422	0.489
632.000	393.761	80.001	19.995	103.136	20.049	18.227	0.494
640.000	397.830	80.002	19.995	103.126	20.106	14.311	0.484
648.000	401.884	80.000	19.996	103.133	20.129	12.734	0.462
656.000	405.957	80.002	19.995	103.135	20.140	11.990	0.522
664.001	409.957	80.003	19.994	103.131	20.149	11.384	0.515
672.000	413.954	80.002	19.994	103.131	20.151	11.234	0.495
680.000	418.028	80.001	19.995	103.133	20.157	10.805	0.525
688.000	422.051	80.003	19.994	103.124	20.161	10.523	0.510
696.000	426.074	80.001	19.994	103.118	20.165	10.302	0.521
704.000	430.088	80.001	19.996	103.125	20.172	9.826	0.475
712.000	434.114	80.001	19.997	103.127	20.167	10.107	0.482
720.000	438.122	79.999	19.996	103.119	20.172	9.785	0.482
728.000	442.192	80.000	19.994	103.119	20.177	9.435	0.487
736.000	446.231	80.000	19.995	103.114	20.179	9.298	0.536
744.000	450.271	80.002	19.995	103.119	20.182	9.133	0.505
752.000	454.324	80.002	19.996	103.112	20.179	9.309	0.491
760.000	458.372	80.001	19.994	103.107	20.190	8.539	0.508
768.000	462.432	80.004	19.995	103.103	20.192	8.389	0.528
776.000	466.409	80.001	19.995	103.106	20.196	8.128	0.469
784.000	470.457	80.000	19.994	103.120	20.199	7.925	0.500
792.000	474.611	80.003	19.995	103.109	20.199	7.933	0.537
800.000	478.744	80.001	19.996	103.110	20.204	7.608	0.548
808.000	482.888	79.999	19.996	103.107	20.200	7.842	0.527
816.000	486.963	80.002	19.995	103.102	20.206	7.479	0.508
824.000	491.128	80.002	19.995	103.101	20.203	7.660	0.512
832.000	495.237	80.001	19.994	103.102	20.207	7.356	0.522
840.000	499.336	80.002	19.995	103.103	20.205	7.520	0.514
848.000	503.411	80.003	19.995	103.103	20.204	7.597	0.487
856.000	507.465	80.003	19.995	103.104	20.203	7.657	0.506
864.000	511.525	80.001	19.995	103.103	20.207	7.393	0.480
872.000	515.556	80.000	19.994	103.105	20.206	7.440	0.510
880.000	519.637	80.001	19.994	103.101	20.206	7.445	0.504
888.000	523.656	80.000	19.995	103.101	20.208	7.339	0.508
896.000	527.770	80.000	19.995	103.101	20.207	7.385	0.516
904.000	531.765	80.002	19.996	103.101	20.205	7.492	0.497
912.000	535.888	80.002	19.994	103.101	20.208	7.320	0.516
920.000	539.993	80.002	19.995	103.105	20.205	7.545	0.486
928.000	544.232	80.005	19.994	103.109	20.196	8.143	0.551
936.000	548.495	80.002	19.995	103.100	20.197	8.051	0.531
944.000	552.898	80.001	19.995	103.100	20.206	7.453	0.585
952.000	557.337	80.002	19.996	103.100	20.201	7.775	0.547
960.000	561.789	80.002	19.996	103.101	20.199	7.922	0.533
968.001	566.111	80.002	19.996	103.103	20.200	7.898	0.531
976.000	570.433	80.001	19.995	103.112	20.199	7.941	0.531
984.000	574.789	80.002	19.995	103.106	20.202	7.750	0.559
992.000	579.075	80.002	19.996	103.104	20.200	7.897	0.555
1000.000	583.273	80.003	19.996	103.099	20.197	8.107	0.497
1008.000	587.464	80.004	19.995	103.100	20.198	8.025	0.540
1016.000	591.592	80.003	19.995	103.097	20.199	7.956	0.520
1024.000	595.704	80.001	19.995	103.100	20.197	8.096	0.502
1032.001	599.784	80.002	19.995	103.104	20.197	8.103	0.498
1040.001	603.835	80.003	19.994	103.103	20.196	8.176	0.521
1048.000	607.831	80.001	19.994	103.105	20.196	8.167	0.483
1056.001	611.837	80.001	19.997	103.102	20.191	8.477	0.480
1064.000	615.831	80.003	19.995	103.100	20.188	8.707	0.526
1072.000	619.626	80.001	19.994	103.099	20.192	8.411	0.523
1080.001	623.590	80.001	19.995	103.102	20.192	8.436	0.710
1088.000	627.340	80.003	19.996	103.096	20.188	8.688	0.488
1096.001	631.126	80.003	19.995	103.097	20.192	8.385	0.495
1104.001	634.877	80.002	19.996	103.100	20.193	8.346	0.476
1112.000	638.677	80.001	19.995	103.088	20.190	8.563	0.497
1120.000	641.843	80.001	19.995	103.099	20.184	8.940	0.061
1128.000	646.292	80.003	19.995	103.095	20.180	9.235	0.466
1136.000	650.169	80.002	19.994	103.096	20.185	8.875	0.497
1144.000	654.141	80.002	19.994	103.099	20.183	9.052	0.464
1152.001	658.171	80.003	19.993	103.099	20.177	9.432	0.485
1160.001	662.185	80.002	19.995	103.101	20.181	9.202	0.505
1168.000	666.131	80.003	19.995	103.102	20.181	9.189	0.519
1176.001	670.189	80.003	19.994	103.095	20.176	9.539	0.518
1184.000	674.286	80.001	19.996	103.085	20.170	9.936	0.519
1192.000	678.464	80.001	19.994	103.096	20.175	9.606	0.514
1200.001	682.669	80.002	19.995	103.096	20.174	9.683	0.571
1208.001	686.621	80.001	19.995	103.087	20.174	9.684	0.483
1216.000	690.641	80.001	19.995	103.092	20.173	9.697	0.498
1224.000	694.795	80.002	19.994	103.101	20.172	9.777	0.516
1232.000	699.032	80.003	19.993	103.100	20.167	10.141	0.531
1240.001	703.357	80.003	19.996	103.097	20.168	10.087	0.563
1248.000	707.566	80.003	19.995	103.091	20.166	10.222	0.540
1256.001	711.924	80.004	19.995	103.085	20.163	10.390	0.527
1264.000	716.204	80.002	19.997	103.089	20.163	10.377	0.558
1272.000	720.576	80.002	19.996	103.091	20.161	10.579	0.545
1280.001	724.853	80.003	19.995	103.079	20.164	10.324	0.495
1288.000	729.129	80.002	19.994	103.094	20.159	10.682	0.537
1296.000	733.277	80.001	19.994	103.098	20.160	10.650	0.502
1304.001	737.357	80.002	19.995	103.093	20.162	10.481	0.507
1312.000	741.407	80.002	19.994	103.084	20.159	10.662	0.496
1316.000	743.498	80.002	19.994	103.063	20.159	10.713	0.522

File: Basswood_Panel_MCC_30K_min_211117_R2.txt
Sample ID:	C:\MCC\MCC Cal\Test\Basswood_Panel_MCC_30K_min_211117_R2.txt
Sample Weight (mg):	4.78
Heating Rate (C/s):	0.5
Combustor Temp (C):	900
N2 Flow Rate (cc/min):	80
O2 Flow Rate (cc/min):	20
Calibration File:	C:\MCC\MCC Cal\Coeff1 JN10440_30_210304.txt.txt
T Correction Coefficients:	0	1.024463	0
Time Shift (s):	14
*
Time (s)	Temperature (C)	N2 flow rate (cc/min)	O2 flow rate (cc/min)	Flow Rate (cc/min)	Oxygen (%)	HRR (W/g)	Heating rate (C/s)
0.000	108.663	80.002	19.996	103.002	19.894	-0.183	0.006
8.000	108.637	80.002	19.995	103.013	19.893	-0.067	-0.003
16.000	108.595	80.002	19.995	103.012	19.892	-0.005	-0.007
24.000	108.649	80.002	19.994	103.095	19.886	0.362	0.023
32.000	108.935	80.002	19.995	103.170	19.870	1.442	0.073
40.000	109.747	80.002	19.994	103.214	19.858	2.295	0.130
48.000	110.994	80.003	19.996	103.259	19.851	2.770	0.206
56.000	112.770	80.003	19.995	103.262	19.843	3.264	0.228
64.000	115.005	80.003	19.995	103.274	19.846	3.053	0.284
72.000	117.629	80.006	19.996	103.259	19.847	3.035	0.361
80.000	120.487	80.004	19.996	103.273	19.848	2.919	0.396
88.000	123.571	80.001	19.996	103.258	19.844	3.217	0.373
96.000	126.777	80.002	19.996	103.262	19.845	3.141	0.384
104.000	130.242	80.004	19.995	103.269	19.842	3.342	0.429
112.000	133.808	80.003	19.996	103.270	19.848	2.977	0.476
120.000	137.470	80.002	19.995	103.282	19.846	3.090	0.464
128.000	141.165	80.003	19.995	103.265	19.841	3.426	0.482
136.000	145.005	80.004	19.995	103.261	19.843	3.262	0.490
144.000	148.804	80.004	19.995	103.260	19.839	3.542	0.476
152.000	152.729	80.004	19.995	103.256	19.838	3.635	0.478
160.000	156.549	80.003	19.995	103.256	19.837	3.691	0.476
168.000	160.527	80.002	19.995	103.260	19.839	3.583	0.521
176.000	164.458	80.002	19.995	103.246	19.838	3.623	0.497
184.000	168.454	80.003	19.997	103.235	19.838	3.591	0.485
192.000	172.378	80.002	19.995	103.236	19.836	3.763	0.487
200.000	176.302	80.002	19.996	103.229	19.835	3.839	0.469
208.000	180.212	80.003	19.995	103.223	19.836	3.732	0.467
216.000	184.112	80.004	19.994	103.220	19.832	4.033	0.465
224.000	188.137	80.003	19.996	103.220	19.834	3.921	0.516
232.000	192.036	80.002	19.994	103.222	19.829	4.239	0.495
240.000	195.912	80.004	19.996	103.221	19.827	4.344	0.487
248.000	199.820	80.002	19.996	103.225	19.824	4.554	0.486
256.000	203.738	80.001	19.995	103.225	19.824	4.553	0.478
264.000	207.750	80.002	19.996	103.220	19.819	4.882	0.491
272.000	211.702	80.003	19.997	103.219	19.816	5.088	0.482
280.000	215.687	80.001	19.996	103.218	19.808	5.658	0.479
288.000	219.627	80.004	19.995	103.218	19.807	5.684	0.499
296.000	223.537	80.003	19.996	103.218	19.804	5.915	0.484
304.000	227.495	80.003	19.996	103.223	19.800	6.206	0.521
312.000	231.464	80.003	19.996	103.223	19.797	6.380	0.479
320.000	235.499	80.006	19.994	103.220	19.791	6.762	0.504
328.000	239.490	80.002	19.996	103.220	19.782	7.422	0.509
336.000	243.419	80.002	19.994	103.219	19.777	7.758	0.497
344.000	247.440	80.000	19.996	103.223	19.768	8.364	0.516
352.000	251.499	80.000	19.995	103.219	19.755	9.193	0.497
360.000	255.537	80.001	19.995	103.225	19.741	10.135	0.525
368.000	259.537	80.003	19.997	103.223	19.718	11.709	0.498
376.000	263.513	80.004	19.995	103.230	19.697	13.090	0.486
384.000	267.547	80.002	19.995	103.239	19.671	14.891	0.517
392.000	271.594	80.004	19.995	103.259	19.643	16.790	0.536
400.000	275.608	80.004	19.995	103.263	19.612	18.856	0.487
408.000	279.609	80.002	19.995	103.289	19.574	21.452	0.514
416.000	283.597	80.003	19.995	103.297	19.536	23.980	0.493
424.000	287.601	80.002	19.995	103.300	19.495	26.731	0.525
432.000	291.608	80.001	19.995	103.324	19.453	29.598	0.502
440.000	295.606	80.001	19.996	103.330	19.418	31.933	0.532
448.000	299.580	80.002	19.994	103.340	19.382	34.398	0.520
456.000	303.596	80.003	19.995	103.336	19.360	35.862	0.500
464.000	307.605	80.002	19.996	103.334	19.340	37.207	0.498
472.000	311.664	80.004	19.996	103.336	19.319	38.605	0.544
480.000	315.731	80.005	19.995	103.340	19.304	39.622	0.521
488.000	319.776	80.004	19.995	103.339	19.281	41.221	0.475
496.000	323.795	80.002	19.995	103.360	19.254	43.049	0.524
504.000	327.789	80.001	19.995	103.369	19.218	45.452	0.530
512.000	331.796	80.003	19.995	103.380	19.178	48.162	0.516
520.000	335.763	80.003	19.996	103.412	19.120	52.075	0.517
528.000	339.689	80.001	19.996	103.421	19.059	56.240	0.465
536.000	343.652	80.003	19.995	103.453	18.983	61.361	0.490
544.000	347.632	80.003	19.994	103.468	18.902	66.844	0.510
552.000	351.706	80.002	19.996	103.494	18.827	71.979	0.514
560.000	356.012	80.002	19.997	103.531	18.750	77.178	0.537
568.000	360.302	80.004	19.995	103.531	18.698	80.614	0.537
576.000	364.640	80.002	19.995	103.514	18.674	82.203	0.541
584.000	368.800	80.004	19.995	103.479	18.719	79.116	0.607
592.000	373.289	80.002	19.995	103.398	18.827	71.752	0.558
600.000	377.549	80.004	19.995	103.303	19.005	59.765	0.475
608.000	381.727	80.002	19.993	103.238	19.228	44.693	0.538
616.000	385.792	80.004	19.994	103.180	19.440	30.401	0.497
624.000	389.872	80.003	19.995	103.153	19.596	19.932	0.503
632.000	393.908	80.002	19.995	103.145	19.686	13.843	0.520
640.000	397.782	80.004	19.995	103.143	19.734	10.603	0.471
648.000	401.573	80.003	19.996	103.142	19.750	9.570	0.454
656.000	405.332	80.003	19.996	103.138	19.761	8.786	0.470
664.000	409.016	80.004	19.996	103.139	19.770	8.177	0.463
672.000	412.769	80.003	19.996	103.142	19.775	7.859	0.459
680.000	416.552	80.002	19.996	103.143	19.783	7.313	0.434
688.000	420.478	80.001	19.996	103.145	19.784	7.238	0.492
696.000	424.390	80.004	19.994	103.145	19.787	7.017	0.480
704.000	428.424	80.004	19.995	103.140	19.787	7.040	0.528
712.000	432.488	80.003	19.995	103.148	19.790	6.849	0.496
720.000	436.700	80.004	19.995	103.141	19.794	6.597	0.528
728.000	440.939	80.008	19.995	103.141	19.800	6.186	0.519
736.000	445.255	80.001	19.995	103.139	19.800	6.150	0.554
744.000	449.523	80.001	19.997	103.139	19.808	5.665	0.555
752.000	453.766	80.003	19.998	103.141	19.806	5.743	0.545
760.000	458.017	80.002	19.996	103.141	19.814	5.200	0.520
768.000	462.156	80.001	19.995	103.131	19.817	5.022	0.505
776.000	466.171	80.001	19.995	103.134	19.817	5.011	0.487
784.000	470.170	80.005	19.994	103.123	19.826	4.448	0.517
792.000	474.143	80.004	19.994	103.134	19.827	4.337	0.518
800.000	478.054	80.005	19.995	103.132	19.830	4.123	0.453
808.000	482.069	80.006	19.995	103.124	19.827	4.364	0.510
816.000	486.004	80.004	19.995	103.134	19.829	4.250	0.509
824.000	490.035	80.003	19.996	103.132	19.832	4.041	0.512
832.000	494.064	80.001	19.997	103.124	19.833	3.951	0.486
840.000	498.177	80.002	19.997	103.128	19.830	4.179	0.519
848.000	502.267	80.002	19.995	103.119	19.836	3.747	0.516
856.000	506.274	80.001	19.995	103.134	19.836	3.765	0.516
864.000	510.376	80.004	19.995	103.134	19.838	3.621	0.503
872.000	514.490	80.004	19.994	103.122	19.835	3.805	0.530
880.000	518.643	80.003	19.995	103.123	19.836	3.743	0.506
888.000	522.780	80.006	19.995	103.142	19.838	3.598	0.520
896.000	526.850	80.004	19.994	103.118	19.835	3.821	0.509
904.000	530.941	80.002	19.995	103.130	19.839	3.534	0.496
912.000	535.054	80.002	19.994	103.132	19.840	3.477	0.550
920.000	539.166	80.003	19.996	103.119	19.837	3.710	0.540
928.000	543.283	80.003	19.996	103.114	19.838	3.596	0.544
936.000	547.354	80.002	19.995	103.126	19.838	3.645	0.519
944.000	551.506	80.004	19.995	103.126	19.840	3.503	0.536
952.000	555.625	80.004	19.996	103.119	19.838	3.586	0.530
960.000	559.776	80.003	19.995	103.116	19.839	3.519	0.513
968.000	563.894	80.004	19.994	103.115	19.838	3.646	0.527
976.000	568.040	80.005	19.994	103.114	19.841	3.441	0.551
984.000	572.107	80.002	19.994	103.113	19.838	3.617	0.474
992.000	576.298	80.003	19.996	103.113	19.839	3.539	0.516
1000.000	580.409	80.005	19.994	103.115	19.839	3.542	0.520
1008.000	584.488	80.003	19.996	103.107	19.841	3.392	0.516
1016.000	588.606	80.002	19.995	103.112	19.839	3.546	0.531
1024.000	592.711	80.003	19.996	103.107	19.836	3.761	0.507
1032.000	596.841	80.004	19.996	103.109	19.838	3.606	0.517
1040.000	600.940	80.004	19.996	103.106	19.834	3.875	0.513
1048.000	605.015	80.004	19.995	103.108	19.837	3.664	0.498
1056.000	609.142	80.006	19.994	103.115	19.841	3.394	0.517
1064.000	613.266	80.003	19.996	103.104	19.840	3.476	0.508
1072.000	617.381	80.003	19.996	103.110	19.839	3.566	0.491
1080.000	621.474	80.003	19.995	103.111	19.838	3.590	0.497
1088.001	625.588	80.002	19.995	103.108	19.840	3.461	0.508
1096.000	629.665	80.002	19.996	103.112	19.842	3.368	0.514
1104.001	633.783	80.004	19.994	103.117	19.838	3.599	0.523
1112.000	637.944	80.005	19.995	103.108	19.842	3.359	0.516
1120.000	642.001	80.002	19.996	103.103	19.838	3.608	0.509
1128.000	646.085	80.005	19.996	103.103	19.840	3.506	0.491
1136.000	650.174	80.015	19.993	103.103	19.837	3.709	0.511
1144.001	654.222	80.040	20.009	103.153	19.839	3.567	0.508
1152.000	658.294	80.002	19.997	103.113	19.834	3.884	0.503
1160.000	662.327	80.004	19.995	103.107	19.830	4.183	0.510
1168.000	666.355	80.003	19.994	103.115	19.834	3.855	0.493
1176.000	670.390	80.003	19.997	103.109	19.838	3.613	0.492
1184.000	674.421	80.003	19.995	103.105	19.835	3.813	0.488
1192.000	678.456	80.005	19.994	103.101	19.831	4.093	0.490
1200.000	682.441	80.003	19.995	103.103	19.833	3.977	0.496
1208.001	686.510	80.004	19.996	103.102	19.835	3.800	0.572
1216.000	690.531	80.006	19.995	103.103	19.836	3.735	0.525
1224.000	694.576	80.004	19.995	103.104	19.834	3.884	0.499
1232.000	698.665	80.003	19.995	103.108	19.836	3.724	0.518
1240.000	702.659	80.001	19.994	103.107	19.838	3.613	0.489
1248.000	706.708	80.003	19.995	103.104	19.832	4.004	0.506
1256.000	710.748	80.003	19.994	103.109	19.830	4.171	0.507
1264.000	714.758	80.003	19.995	103.102	19.835	3.802	0.502
1272.000	718.830	80.003	19.995	103.103	19.831	4.082	0.534
1280.001	722.804	80.003	19.995	103.100	19.832	4.051	0.462
1288.000	726.783	80.003	19.995	103.104	19.829	4.220	0.498
1296.001	730.845	80.005	19.995	103.102	19.832	4.005	0.512
1304.000	734.878	80.004	19.997	103.101	19.828	4.305	0.518
1312.000	738.878	80.003	19.996	103.084	19.830	4.170	0.490
1320.000	742.882	80.003	19.995	103.102	19.831	4.100	0.495
1321.500	743.679	80.003	19.995	103.103	19.834	3.915	0.525