Folder: fsri_materials_database/01_Data/PET/STA/N2/10K_min (part 2)

File: PET_STA_N2_10KData_210831_R3.csv
##Temp./Â°C,Time/min,Mass loss(subtr.2)/mg,DSC(subtr.2)/(mW/mg),Sensit./(uV/mW)
49.199,10.01,-0.02566,0.0266212,1.03587
51.799,12.33763,-0.02960123,0.08355005,1.03574
54.399,13.04405,-0.02898865,0.11252,1.03558
56.999,13.6035,-0.03021242,0.1312,1.0354
59.599,14.0914,-0.03043061,0.14237,1.03518
62.199,14.53396,-0.03115369,0.15637,1.03493
64.799,14.9452,-0.03177967,0.17159,1.03466
67.399,15.3284,-0.03049012,0.18335,1.03436
69.999,15.6946,-0.03020542,0.19467,1.03402
72.599,16.04409,-0.03310781,0.20139,1.03366
75.199,16.37924,-0.03468275,0.20225,1.03328
77.799,16.70356,-0.03244441,0.21541,1.03286
80.399,17.01829,-0.03465812,0.23568,1.03242
82.999,17.32519,-0.03482852,0.25285,1.03194
85.599,17.62454,-0.03476819,0.26046,1.03145
88.199,17.91657,-0.03345316,0.2681,1.03092
90.799,18.2023,-0.03477306,0.2759,1.03037
93.399,18.4834,-0.03476517,0.28056,1.02979
95.999,18.76008,-0.03543316,0.28616,1.02918
98.599,19.03312,-0.03478858,0.29297,1.02855
101.199,19.3027,-0.03476632,0.29642,1.02789
103.799,19.5691,-0.0363004,0.30035,1.0272
106.399,19.83301,-0.03631889,0.30479,1.02649
108.999,20.0946,-0.03640005,0.31014,1.02575
111.599,20.3548,-0.03841406,0.3124,1.02499
114.199,20.6128,-0.03783423,0.31842,1.0242
116.799,20.8695,-0.03783389,0.32309,1.02339
119.399,21.12418,-0.03651694,0.3264,1.02255
121.999,21.3775,-0.03652021,0.33137,1.02169
124.599,21.62826,-0.03653042,0.33273,1.0208
127.199,21.878,-0.03791715,0.33738,1.01989
129.799,22.12545,-0.03652098,0.34307,1.01895
132.399,22.37141,-0.03777679,0.34721,1.01799
134.999,22.6163,-0.03642423,0.35142,1.01701
137.599,22.85976,-0.03783928,0.35447,1.016
140.199,23.10138,-0.03652182,0.35764,1.01497
142.799,23.34285,-0.03806202,0.35994,1.01392
145.399,23.58256,-0.03743261,0.3632,1.01284
147.999,23.82068,-0.03816956,0.36704,1.01174
150.599,24.05779,-0.03816999,0.37072,1.01062
153.199,24.29655,-0.0381906,0.37399,1.00948
155.799,24.53331,-0.03816,0.37874,1.00831
158.399,24.76975,-0.03816999,0.38131,1.00713
160.999,25.00619,-0.03915208,0.38535,1.00592
163.599,25.24184,-0.03947963,0.38681,1.00469
166.199,25.4776,-0.0381712,0.38758,1.00344
168.799,25.71279,-0.03882018,0.39127,1.00216
171.399,25.9481,-0.03651718,0.39277,1.00087
173.999,26.18253,-0.03629945,0.39549,0.99956
176.599,26.417,-0.03750996,0.39757,0.99822
179.199,26.6506,-0.03553154,0.4013,0.99687
181.799,26.8843,-0.03548602,0.4018,0.9955
184.399,27.11682,-0.03816002,0.40152,0.9941
186.999,27.34931,-0.03685012,0.40521,0.99269
189.599,27.58137,-0.0365428,0.40646,0.99126
192.199,27.8134,-0.03768753,0.40838,0.98981
194.799,28.0455,-0.03823957,0.40841,0.98834
197.399,28.2771,-0.03684549,0.41176,0.98685
199.999,28.5094,-0.03816999,0.4151,0.98535
202.599,28.74066,-0.0375105,0.41313,0.98382
205.199,28.97226,-0.03687166,0.41434,0.98228
207.799,29.2041,-0.03608262,0.41405,0.98072
210.399,29.4359,-0.0385005,0.41574,0.97914
212.999,29.66784,-0.03848996,0.41698,0.97755
215.599,29.89964,-0.0385,0.4195,0.97594
218.199,30.1318,-0.03751001,0.421,0.97431
220.799,30.36389,-0.0362,0.42008,0.97267
223.399,30.59585,-0.03751004,0.42144,0.97101
225.999,30.8283,-0.03619,0.42348,0.96934
228.599,31.0611,-0.03652002,0.4256,0.96764
231.199,31.29356,-0.03751,0.42732,0.96594
233.799,31.5255,-0.03685029,0.42763,0.96422
236.399,31.75845,-0.03619992,0.42752,0.96248
238.999,31.99057,-0.03614048,0.43117,0.96073
241.599,32.22359,-0.03425459,0.43027,0.95896
244.199,32.45625,-0.03523643,0.43374,0.95718
246.799,32.68957,-0.03520007,0.43354,0.95539
249.399,32.92249,-0.03521185,0.43517,0.95358
251.999,33.15586,-0.03460235,0.43505,0.95176
254.599,33.38915,-0.03488008,0.43677,0.94992
257.199,33.622,-0.03487,0.4361,0.94808
259.799,33.85575,-0.03487,0.43846,0.94622
262.399,34.08974,-0.03488,0.4396,0.94434
264.999,34.32351,-0.03488,0.43923,0.94246
267.599,34.55762,-0.03421114,0.43848,0.94056
270.199,34.79186,-0.03421989,0.44146,0.93865
272.799,35.02587,-0.03527916,0.44101,0.93673
275.399,35.26016,-0.03487,0.44111,0.93479
277.999,35.49518,-0.03393093,0.4423,0.93285
280.599,35.72995,-0.03488002,0.44157,0.9309
283.199,35.96487,-0.03355358,0.44335,0.92893
285.799,36.2001,-0.03487178,0.44425,0.92695
288.399,36.43573,-0.03256884,0.44415,0.92497
290.999,36.67137,-0.03388,0.44593,0.92297
293.599,36.90756,-0.03455781,0.44578,0.92096
296.199,37.14367,-0.03323004,0.4458,0.91895
298.799,37.37997,-0.03356002,0.44771,0.91692
301.399,37.6162,-0.03389,0.44789,0.91489
303.999,37.8529,-0.03265996,0.44947,0.91284
306.599,38.08981,-0.03356,0.44911,0.91079
309.199,38.32698,-0.03486146,0.45132,0.90873
311.799,38.564,-0.03356001,0.4527,0.90666
314.399,38.80149,-0.03224859,0.45195,0.90458
316.999,39.03898,-0.03323,0.45315,0.9025
319.599,39.27621,-0.03333571,0.45413,0.9004
322.199,39.51345,-0.0308772,0.45428,0.8983
324.799,39.7522,-0.03257004,0.45812,0.8962
327.399,39.99041,-0.03191001,0.45829,0.89408
329.999,40.2292,-0.03296691,0.45928,0.89196
332.599,40.4679,-0.03223431,0.45893,0.88983
335.199,40.70629,-0.03224,0.46098,0.8877
337.799,40.94514,-0.03355787,0.46504,0.88556
340.399,41.18421,-0.03499004,0.46525,0.88342
342.999,41.4238,-0.03253556,0.4685,0.88127
345.599,41.66352,-0.03449734,0.47155,0.87911
348.199,41.90341,-0.03498003,0.47315,0.87695
350.799,42.1437,-0.03498,0.47801,0.87478
353.399,42.3844,-0.03498004,0.48205,0.87261
355.999,42.6248,-0.03802108,0.486,0.87043
358.599,42.86625,-0.03696,0.49044,0.86825
361.199,43.10735,-0.03839012,0.4982,0.86607
363.799,43.34863,-0.04157,0.50574,0.86388
366.399,43.59012,-0.04255117,0.51524,0.86169
368.999,43.83267,-0.04650055,0.52799,0.85949
371.599,44.07468,-0.04955135,0.53543,0.8573
374.199,44.317,-0.05516574,0.54599,0.85509
376.799,44.5608,-0.06159616,0.56532,0.85289
379.399,44.8037,-0.06830246,0.58565,0.85068
381.999,45.04775,-0.07667736,0.61104,0.84847
384.599,45.29207,-0.09010669,0.63905,0.84626
387.199,45.53689,-0.10664,0.67565,0.84405
389.799,45.781,-0.13085,0.71616,0.84183
392.399,46.02574,-0.15573,0.76371,0.83961
394.999,46.27023,-0.18506,0.81739,0.83739
397.599,46.51547,-0.22345,0.88687,0.83517
400.199,46.76027,-0.26821,0.97703,0.83295
402.799,47.00568,-0.32408,1.07221,0.83073
405.399,47.25144,-0.39854,1.20966,0.8285
407.999,47.49763,-0.49247,1.35279,0.82628
410.599,47.7444,-0.60825,1.45814,0.82406
413.199,47.99159,-0.74406,1.56099,0.82183
415.799,48.23873,-0.9018,1.66157,0.81961
418.399,48.4859,-1.08318,1.74129,0.81738
420.999,48.7329,-1.29195,1.789,0.81516
423.599,48.98061,-1.51907,1.79642,0.81293
426.199,49.22772,-1.75882,1.74899,0.81071
428.799,49.47457,-1.99616,1.6876,0.80849
431.399,49.7209,-2.2304,1.48598,0.80627
433.999,49.96695,-2.43996,1.31232,0.80405
436.599,50.21297,-2.63129,1.16379,0.80183
439.199,50.45993,-2.80417,1.03327,0.79961
441.799,50.70686,-2.95724,0.89097,0.7974
444.399,50.95436,-3.08845,0.76362,0.79519
446.999,51.20234,-3.19792,0.64945,0.79297
449.599,51.45021,-3.28758,0.54649,0.79077
452.199,51.69838,-3.35701,0.45466,0.78856
454.799,51.94699,-3.40936,0.37274,0.78635
457.399,52.1955,-3.44868,0.31651,0.78415
459.999,52.4445,-3.47976,0.26407,0.78196
462.599,52.6932,-3.5052,0.22209,0.77976
465.199,52.942,-3.52488,0.18157,0.77757
467.799,53.1913,-3.54036,0.14938,0.77538
470.399,53.4409,-3.55413,0.1195,0.77319
472.999,53.69099,-3.56647,0.10018,0.77101
475.599,53.9412,-3.57481,0.08495543,0.76883
478.199,54.1915,-3.5847,0.07424744,0.76666
480.799,54.44254,-3.5899,0.06924439,0.76449
483.399,54.6937,-3.59835,0.06588719,0.76232
485.999,54.9452,-3.6023,0.06276043,0.76016
488.599,55.1973,-3.6066,0.06473071,0.758
491.199,55.44908,-3.61152,0.06395898,0.75585
493.799,55.7007,-3.61547,0.06091532,0.7537
496.399,55.95239,-3.61951,0.06029482,0.75156
498.999,56.20469,-3.62287,0.06162737,0.74942
501.599,56.457,-3.62543,0.06261952,0.74729
504.199,56.7097,-3.62698,0.0621925,0.74516
506.799,56.96264,-3.62864,0.06453811,0.74304
509.399,57.21629,-3.63126,0.063779,0.74092
511.999,57.46957,-3.63257,0.0678515,0.73881
514.599,57.72288,-3.63489,0.06869095,0.7367
517.199,57.9766,-3.63619,0.06819743,0.7346
519.799,58.23081,-3.63719,0.06991012,0.73251
522.399,58.4853,-3.63992,0.07650547,0.73042
524.999,58.7399,-3.64113,0.07571995,0.72834
527.599,58.99488,-3.64107,0.08064721,0.72626
530.199,59.24945,-3.64143,0.08000065,0.72419
532.799,59.50399,-3.64277,0.08058708,0.72213
535.399,59.75904,-3.64411,0.07977405,0.72007
537.999,60.0131,-3.6464,0.07786448,0.71802
540.599,60.26862,-3.64706,0.07693114,0.71598
543.199,60.5233,-3.64772,0.07639859,0.71394
545.799,60.7791,-3.65033,0.07448506,0.71191
548.399,61.0352,-3.6517,0.07795798,0.70989
550.999,61.2911,-3.65101,0.07476957,0.70788
553.599,61.54557,-3.65365,0.07874565,0.70587
556.199,61.80137,-3.65496,0.07506135,0.70387
558.799,62.05718,-3.65429,0.07484541,0.70188
561.399,62.31375,-3.65789,0.07505525,0.69989
563.999,62.57042,-3.65923,0.06955183,0.69791
566.599,62.8269,-3.65923,0.06987551,0.69594
569.199,63.0839,-3.65988,0.06723571,0.69398
571.799,63.34012,-3.66187,0.06879625,0.69203
574.399,63.59711,-3.66078,0.06775429,0.69008
576.999,63.8545,-3.66392,0.06464807,0.68814
579.599,64.1114,-3.66631,0.06722285,0.68621
582.199,64.36868,-3.6669,0.06509356,0.68429
584.799,64.6258,-3.66625,0.06141786,0.68237
587.399,64.88285,-3.66987,0.05969569,0.68047
589.999,65.14104,-3.67119,0.05040429,0.67857
592.599,65.39877,-3.67251,0.0484937,0.67668
595.199,65.65647,-3.67284,0.04702477,0.6748
597.799,65.91417,-3.67284,0.04584542,0.67293
600.399,66.17193,-3.67383,0.04543067,0.67106
602.999,66.43024,-3.67643,0.04593309,0.66921
605.599,66.68851,-3.67678,0.03996677,0.66736
608.199,66.94763,-3.67843,0.03933767,0.66552
610.799,67.20658,-3.67975,0.03920572,0.6637
613.399,67.46517,-3.68041,0.03265497,0.66187
615.999,67.72454,-3.68079,0.04172902,0.66006
618.599,67.9837,-3.68172,0.04762556,0.65826
621.199,68.24342,-3.68303,0.05078393,0.65647
623.799,68.50206,-3.68465,0.05880964,0.65468
626.399,68.76123,-3.68436,0.05369277,0.65291
628.999,69.02078,-3.68764,0.05182876,0.65114
631.599,69.28005,-3.68633,0.05321594,0.64938
634.199,69.53981,-3.6873,0.05560856,0.64764
636.799,69.8001,-3.68764,0.05379863,0.6459
638.699,69.9905,-3.6883,0.05619399,0.64463