Folder: fsri_materials_database/01_Data/PET/STA/N2/10K_min

Note: 01_Data/README.md
# Materials and Products Database
## 01_Data

Raw data generated from each apparatus are included here in plain-text format. The data is organized first by material, next by the short name of test apparatus used, and where applicable additional filtering by test settings.

### material.json

Each material directory contains a json file of the same name as the material. This file links the data stored in the repository as well as data and graphs produced by the accompanying scripts (__02_Scripts__) to the respective landing page for the material on the front-end website.

File: PET_STA_N2_10KData_210830_R1.csv
##Temp./Â°C,Time/min,Mass loss(subtr.2)/mg,DSC(subtr.2)/(mW/mg),Sensit./(uV/mW)
49.729,10.01,-0.01546,-0.00153445,1.03585
52.329,12.37267,-0.01291402,0.05117941,1.03571
54.929,13.07391,-0.02100362,0.08005907,1.03555
57.529,13.62851,-0.02252441,0.0994451,1.03535
60.129,14.11685,-0.02180527,0.11218,1.03513
62.729,14.55884,-0.02245995,0.12454,1.03488
65.329,14.96994,-0.02357705,0.13961,1.0346
67.929,15.3545,-0.02221947,0.15275,1.03429
70.529,15.7194,-0.02334591,0.16581,1.03395
73.129,16.0671,-0.02115438,0.17343,1.03359
75.729,16.40203,-0.02390756,0.17542,1.03319
78.329,16.72648,-0.02379792,0.18411,1.03277
80.929,17.0415,-0.02500789,0.20543,1.03232
83.529,17.34763,-0.02453907,0.22113,1.03184
86.129,17.6473,-0.02621911,0.23098,1.03134
88.729,17.93921,-0.02611346,0.23842,1.03081
91.329,18.22529,-0.0260044,0.24411,1.03025
93.929,18.50627,-0.02600012,0.24846,1.02966
96.529,18.7831,-0.02531737,0.25457,1.02905
99.129,19.05476,-0.02595062,0.25941,1.02841
101.729,19.3243,-0.02731814,0.26471,1.02775
104.329,19.59042,-0.02730969,0.26737,1.02706
106.929,19.8549,-0.02550948,0.2716,1.02634
109.529,20.11615,-0.02818863,0.27608,1.0256
112.129,20.37755,-0.02686374,0.28122,1.02483
114.729,20.63586,-0.02673441,0.2843,1.02404
117.329,20.89215,-0.01952219,0.29001,1.02322
119.929,21.1466,-0.02698012,0.29176,1.02238
122.529,21.39925,-0.02830088,0.29569,1.02151
125.129,21.65022,-0.02586192,0.30073,1.02062
127.729,21.89896,-0.02687037,0.30262,1.0197
130.329,22.14699,-0.0264869,0.30582,1.01876
132.929,22.39323,-0.02693758,0.3083,1.0178
135.529,22.63811,-0.02770314,0.31365,1.01681
138.129,22.88101,-0.02720015,0.31671,1.0158
140.729,23.1233,-0.02849128,0.31933,1.01476
143.329,23.36425,-0.02852,0.3227,1.0137
145.929,23.60425,-0.02850814,0.32517,1.01262
148.529,23.8435,-0.02722572,0.33048,1.01152
151.129,24.08201,-0.02852037,0.33176,1.01039
153.729,24.31951,-0.02984,0.33544,1.00924
156.329,24.55714,-0.03092643,0.33922,1.00807
158.929,24.7942,-0.02829973,0.34118,1.00688
161.529,25.03042,-0.03193477,0.34193,1.00567
164.129,25.2671,-0.03091004,0.34382,1.00443
166.729,25.50296,-0.02824537,0.34891,1.00318
169.329,25.73871,-0.03092889,0.35083,1.0019
171.929,25.97411,-0.02916241,0.35414,1.0006
174.529,26.20934,-0.03094779,0.35563,0.99929
177.129,26.44394,-0.03008943,0.35725,0.99795
179.729,26.67822,-0.03093295,0.35946,0.99659
182.329,26.91183,-0.02961005,0.36273,0.99521
184.929,27.1454,-0.0353717,0.3644,0.99382
187.529,27.3783,-0.0294156,0.36607,0.9924
190.129,27.61102,-0.03202998,0.36473,0.99096
192.729,27.843,-0.03164994,0.36927,0.98951
195.329,28.0751,-0.03144029,0.36981,0.98804
197.929,28.30707,-0.03072007,0.37206,0.98655
200.529,28.539,-0.03303921,0.37165,0.98504
203.129,28.77093,-0.03360982,0.37492,0.98351
205.729,29.0029,-0.03203,0.37617,0.98196
208.329,29.23508,-0.03226899,0.37894,0.9804
210.929,29.46708,-0.03367091,0.38009,0.97882
213.529,29.69892,-0.03434023,0.38238,0.97722
216.129,29.93093,-0.03301677,0.38345,0.97561
218.729,30.16333,-0.03301405,0.38666,0.97398
221.329,30.39573,-0.03678893,0.3861,0.97233
223.929,30.6277,-0.03390003,0.38774,0.97067
226.529,30.8605,-0.03553291,0.38934,0.96899
229.129,31.0928,-0.03355601,0.38926,0.9673
231.729,31.32538,-0.03487987,0.39066,0.96559
234.329,31.5579,-0.0368469,0.39076,0.96386
236.929,31.7906,-0.03422,0.39164,0.96212
239.529,32.0233,-0.03421991,0.39338,0.96037
242.129,32.2563,-0.03324008,0.3939,0.9586
244.729,32.4893,-0.03455305,0.39413,0.95682
247.329,32.7222,-0.03455999,0.3965,0.95502
249.929,32.9552,-0.03356,0.39397,0.95321
252.529,33.1886,-0.03390361,0.39562,0.95139
255.129,33.42204,-0.03312834,0.39399,0.94955
257.729,33.65551,-0.03389012,0.39679,0.9477
260.329,33.88863,-0.03461096,0.39674,0.94584
262.929,34.122,-0.03355713,0.39933,0.94396
265.529,34.35613,-0.03356143,0.39811,0.94207
268.129,34.58972,-0.03554039,0.40219,0.94017
270.729,34.82353,-0.0348488,0.40167,0.93826
273.329,35.0574,-0.03422014,0.40049,0.93633
275.929,35.2921,-0.03421979,0.40155,0.9344
278.529,35.52661,-0.03620001,0.403,0.93245
281.129,35.7614,-0.0362,0.40316,0.9305
283.729,35.99575,-0.03587707,0.40297,0.92853
286.329,36.23052,-0.03851232,0.40551,0.92655
288.929,36.46543,-0.03850023,0.40636,0.92456
291.529,36.7012,-0.0385,0.40707,0.92256
294.129,36.93696,-0.03817002,0.40696,0.92055
296.729,37.17293,-0.03699205,0.4073,0.91853
299.329,37.40885,-0.03822319,0.40798,0.91651
301.929,37.6454,-0.03950146,0.40947,0.91447
304.529,37.8821,-0.03949,0.41172,0.91242
307.129,38.11892,-0.04080997,0.41159,0.91037
309.729,38.3559,-0.04088758,0.41185,0.90831
312.329,38.59274,-0.03817155,0.40951,0.90624
314.929,38.8298,-0.03816979,0.4116,0.90416
317.529,39.06732,-0.03947993,0.41492,0.90207
320.129,39.30494,-0.03982671,0.41841,0.89998
322.729,39.54306,-0.03863563,0.41718,0.89787
325.329,39.78055,-0.04113,0.41967,0.89577
327.929,40.01914,-0.03982,0.42018,0.89365
330.529,40.25693,-0.03982,0.42211,0.89153
333.129,40.49585,-0.04145981,0.42577,0.8894
335.729,40.73465,-0.04210743,0.42696,0.88727
338.329,40.97397,-0.04014118,0.43112,0.88512
340.929,41.2134,-0.04113,0.43308,0.88298
343.529,41.45324,-0.03974891,0.43485,0.88083
346.129,41.69314,-0.04343728,0.44024,0.87867
348.729,41.9339,-0.04379555,0.44792,0.87651
351.329,42.174,-0.04376,0.44927,0.87434
353.929,42.41494,-0.04482049,0.4548,0.87217
356.529,42.65597,-0.04604301,0.46139,0.86999
359.129,42.89723,-0.04768855,0.46695,0.86781
361.729,43.13831,-0.04947979,0.47318,0.86562
364.329,43.38002,-0.05067062,0.483,0.86343
366.929,43.62143,-0.05708927,0.49453,0.86124
369.529,43.86347,-0.05758194,0.50594,0.85905
372.129,44.106,-0.0626005,0.51952,0.85685
374.729,44.34864,-0.06548951,0.53819,0.85464
377.329,44.5916,-0.0740074,0.5603,0.85244
379.929,44.8351,-0.08075754,0.57404,0.85023
382.529,45.0787,-0.08990163,0.59462,0.84802
385.129,45.32308,-0.10523,0.63289,0.84581
387.729,45.56684,-0.12043,0.67134,0.84359
390.329,45.8112,-0.13863,0.71379,0.84138
392.929,46.0559,-0.16893,0.76768,0.83916
395.529,46.30073,-0.20027,0.83056,0.83694
398.129,46.54585,-0.23981,0.89934,0.83472
400.729,46.79092,-0.28336,0.97348,0.8325
403.329,47.03671,-0.33998,1.0694,0.83027
405.929,47.28349,-0.40504,1.18617,0.82805
408.529,47.53076,-0.49305,1.31927,0.82583
411.129,47.77807,-0.59863,1.44215,0.8236
413.729,48.02541,-0.72953,1.5,0.82138
416.329,48.27243,-0.87046,1.61156,0.81915
418.929,48.51976,-1.03144,1.6467,0.81693
421.529,48.7669,-1.22409,1.80504,0.8147
424.129,49.0144,-1.44038,1.83345,0.81248
426.729,49.26157,-1.663,1.73913,0.81026
429.329,49.5088,-1.88298,1.63128,0.80804
431.929,49.7559,-2.09725,1.43026,0.80582
434.529,50.00327,-2.29268,1.2716,0.8036
437.129,50.2508,-2.47302,1.14117,0.80138
439.729,50.498,-2.63233,0.97653,0.79916
442.329,50.7457,-2.77225,0.83574,0.79695
444.929,50.99354,-2.89027,0.71644,0.79473
447.529,51.24067,-2.99028,0.60709,0.79252
450.129,51.488,-3.07309,0.50938,0.79032
452.729,51.73619,-3.13771,0.41536,0.78811
455.329,51.9842,-3.18265,0.33685,0.78591
457.929,52.2324,-3.22108,0.27476,0.78371
460.529,52.48105,-3.24808,0.22353,0.78151
463.129,52.73075,-3.27089,0.18483,0.77931
465.729,52.9804,-3.29336,0.14288,0.77712
468.329,53.2302,-3.30836,0.10792,0.77493
470.929,53.4807,-3.32007,0.08343198,0.77275
473.529,53.7303,-3.3313,0.06208438,0.77057
476.129,53.98095,-3.33872,0.05116073,0.76839
478.729,54.23177,-3.34517,0.04238536,0.76622
481.329,54.48259,-3.35237,0.0397328,0.76405
483.929,54.734,-3.36059,0.03930871,0.76188
486.529,54.98579,-3.36541,0.03537728,0.75972
489.129,55.2369,-3.36998,0.03027339,0.75756
491.729,55.4885,-3.37183,0.0313771,0.75541
494.329,55.74054,-3.37603,0.0318756,0.75326
496.929,55.9933,-3.37985,0.03627778,0.75112
499.529,56.2462,-3.38137,0.03485611,0.74898
502.129,56.4988,-3.38261,0.03441079,0.74685
504.729,56.75175,-3.38525,0.04095264,0.74472
507.329,57.00455,-3.38788,0.04163033,0.7426
509.929,57.2584,-3.38512,0.04137491,0.74049
512.529,57.51194,-3.39194,0.04354077,0.73838
515.129,57.7653,-3.39082,0.04520356,0.73627
517.729,58.01882,-3.39734,0.04499534,0.73417
520.329,58.272,-3.39874,0.05149103,0.73208
522.929,58.5259,-3.39742,0.04769598,0.72999
525.529,58.77955,-3.40137,0.04946526,0.72791
528.129,59.03396,-3.40007,0.04482305,0.72584
530.729,59.2885,-3.40038,0.05033336,0.72377
533.329,59.54308,-3.40404,0.05145898,0.72171
535.929,59.7981,-3.40389,0.04964319,0.71965
538.529,60.0526,-3.40652,0.05052155,0.7176
541.129,60.3077,-3.40927,0.05169426,0.71556
543.729,60.56259,-3.412,0.05201084,0.71353
546.329,60.8185,-3.4097,0.05156308,0.7115
548.929,61.07365,-3.41087,0.05054382,0.70948
551.529,61.3292,-3.41316,0.05142457,0.70747
554.129,61.58466,-3.41453,0.05102403,0.70546
556.729,61.84025,-3.41323,0.05197193,0.70346
559.329,62.09626,-3.41607,0.04697555,0.70147
561.929,62.35233,-3.41871,0.04887632,0.69949
564.529,62.6087,-3.42132,0.04790986,0.69751
567.129,62.8644,-3.42456,0.05085963,0.69554
569.729,63.1212,-3.42188,0.04965415,0.69358
572.329,63.37835,-3.42351,0.04760735,0.69163
574.929,63.63475,-3.42586,0.04630794,0.68968
577.529,63.89135,-3.42462,0.04276009,0.68775
580.129,64.14836,-3.42693,0.0424477,0.68582
582.729,64.40557,-3.42852,0.03793289,0.6839
585.329,64.66282,-3.43088,0.04037848,0.68198
587.929,64.92027,-3.43219,0.04235864,0.68008
590.529,65.178,-3.43468,0.04593712,0.67818
593.129,65.43575,-3.4368,0.04777658,0.6763
595.729,65.69351,-3.43614,0.05555786,0.67442
598.329,65.95145,-3.43755,0.06396206,0.67255
600.929,66.20943,-3.43745,0.06225975,0.67068
603.529,66.4683,-3.43877,0.05886203,0.66883
606.129,66.72652,-3.44283,0.06257143,0.66699
608.729,66.98564,-3.44284,0.05939088,0.66515
611.329,67.24446,-3.44349,0.05549661,0.66332
613.929,67.50317,-3.44644,0.04859954,0.6615
616.529,67.76176,-3.44567,0.04916715,0.6597
619.129,68.0201,-3.44513,0.05136031,0.65789
621.729,68.27955,-3.44905,0.05272379,0.6561
624.329,68.53836,-3.44776,0.04813148,0.65432
626.929,68.79782,-3.44908,0.05161802,0.65255
629.529,69.05764,-3.4504,0.05127038,0.65078
632.129,69.31726,-3.45171,0.0514842,0.64903
634.729,69.57679,-3.45233,0.05333042,0.64728
637.329,69.83697,-3.4527,0.0566206,0.64554
638.929,69.99656,-3.45379,0.05492531,0.64448

File: PET_STA_N2_10KData_210830_R2.csv
##Temp./Â°C,Time/min,Mass loss(subtr.2)/mg,DSC(subtr.2)/(mW/mg),Sensit./(uV/mW)
49.763,10.01,-0.0023,-0.01379932,1.03585
52.363,12.39227,-0.002110891,0.04501081,1.03571
54.963,13.09282,-0.002480986,0.07201348,1.03555
57.563,13.6524,-0.00447501,0.0898335,1.03535
60.163,14.14003,-0.002847933,0.10132,1.03513
62.763,14.5829,-0.002710635,0.11708,1.03488
65.363,14.99206,-0.001008715,0.12928,1.03459
67.963,15.3756,-0.00364125,0.14362,1.03429
70.563,15.74034,-0.003944429,0.15331,1.03395
73.163,16.08906,-0.006202956,0.15809,1.03358
75.763,16.424,-0.004017318,0.16231,1.03319
78.363,16.74881,-0.002827534,0.1739,1.03277
80.963,17.0625,-0.00342969,0.19487,1.03232
83.563,17.37013,-0.001313189,0.21039,1.03184
86.163,17.66816,-0.00391368,0.22142,1.03133
88.763,17.95991,-0.003834812,0.22844,1.0308
91.363,18.24609,-0.003832113,0.2349,1.03024
93.963,18.52682,-0.003838404,0.2406,1.02966
96.563,18.8034,-0.004566949,0.24467,1.02904
99.163,19.0757,-0.003446116,0.25091,1.02841
101.763,19.34528,-0.00358817,0.25456,1.02774
104.363,19.6118,-0.003931362,0.25909,1.02705
106.963,19.87604,-0.003971612,0.2633,1.02633
109.563,20.13788,-0.004423788,0.26896,1.02559
112.163,20.398,-0.00526051,0.27334,1.02482
114.763,20.65674,-0.003914774,0.27779,1.02403
117.363,20.91229,-0.003927389,0.28202,1.02321
119.963,21.16799,-0.004290502,0.28662,1.02237
122.563,21.4211,-0.0025782,0.28761,1.0215
125.163,21.67224,-0.002628464,0.29251,1.02061
127.763,21.92149,-0.002851904,0.29497,1.01969
130.363,22.16937,-0.003935188,0.29836,1.01875
132.963,22.41509,-0.003950327,0.30155,1.01778
135.563,22.65961,-0.003257475,0.30611,1.01679
138.163,22.903,-0.004046236,0.30887,1.01578
140.763,23.14487,-0.00546076,0.31331,1.01475
143.363,23.38563,-0.00327289,0.31474,1.01369
145.963,23.62549,-0.004063752,0.31968,1.01261
148.563,23.86458,-0.003412379,0.32371,1.0115
151.163,24.10323,-0.003130483,0.32599,1.01038
153.763,24.3406,-0.002423672,0.33111,1.00923
156.363,24.57789,-0.002896297,0.33609,1.00806
158.963,24.81413,-0.002704813,0.33812,1.00687
161.563,25.05101,-0.001428813,0.34187,1.00565
164.163,25.287,-0.00259969,0.34548,1.00442
166.763,25.52294,-0.002744778,0.34699,1.00316
169.363,25.75861,-0.00274109,0.35112,1.00189
171.963,25.99391,-0.00274,0.35281,1.00059
174.563,26.22908,-0.00369115,0.35451,0.99927
177.163,26.46405,-0.001419559,0.35789,0.99793
179.763,26.69793,-0.003385552,0.35933,0.99657
182.363,26.93147,-0.002139973,0.36148,0.9952
184.963,27.165,-0.002832796,0.36323,0.9938
187.563,27.3982,-0.002739904,0.36526,0.99238
190.163,27.63133,-0.00208229,0.36517,0.99095
192.763,27.8637,-0.00207936,0.36931,0.98949
195.363,28.0961,-0.002079109,0.36962,0.98802
197.963,28.3283,-0.002090294,0.3695,0.98653
200.563,28.5599,-0.003400128,0.37275,0.98502
203.163,28.79229,-0.004713726,0.37504,0.98349
205.763,29.02458,-0.002191386,0.37459,0.98194
208.363,29.25597,-0.002083242,0.37864,0.98038
210.963,29.48811,-0.00325207,0.38079,0.9788
213.563,29.72045,-0.002408981,0.38048,0.9772
216.163,29.9522,-0.00339918,0.38293,0.97559
218.763,30.185,-0.001421328,0.38404,0.97396
221.363,30.41692,-0.002359264,0.38747,0.97231
223.963,30.64964,-0.00144991,0.39025,0.97065
226.563,30.8823,-0.002515546,0.39078,0.96897
229.163,31.11498,-0.002432378,0.39503,0.96728
231.763,31.3478,-0.00241,0.39573,0.96557
234.363,31.58062,-0.002410002,0.39579,0.96384
236.963,31.81338,-0.00208001,0.39916,0.9621
239.563,32.04687,-0.000770006,0.4004,0.96035
242.163,32.28027,-0.002409989,0.40171,0.95858
244.763,32.51324,-0.003729948,0.40313,0.95679
247.363,32.74664,-0.003704561,0.40334,0.955
249.963,32.97991,-0.00371895,0.40546,0.95319
252.563,33.2134,-0.002409653,0.40527,0.95136
255.163,33.44715,-0.002409985,0.40508,0.94952
257.763,33.6808,-0.002410202,0.40701,0.94767
260.363,33.91462,-0.003714426,0.40576,0.94581
262.963,34.14844,-0.00350333,0.40735,0.94393
265.563,34.382,-0.002410079,0.41071,0.94205
268.163,34.61632,-0.002739497,0.40937,0.94015
270.763,34.85011,-0.001424299,0.41305,0.93823
273.363,35.08444,-0.003389674,0.41226,0.93631
275.963,35.31909,-0.002410028,0.41439,0.93437
278.563,35.5541,-0.00372729,0.41562,0.93243
281.163,35.78861,-0.00274,0.41486,0.93047
283.763,36.0246,-0.00339795,0.41638,0.9285
286.363,36.26047,-0.002410007,0.41634,0.92652
288.963,36.49628,-0.0034,0.41726,0.92453
291.563,36.73233,-0.002401109,0.41818,0.92253
294.163,36.9686,-0.00373,0.41968,0.92053
296.763,37.2048,-0.002406375,0.41874,0.91851
299.363,37.44164,-0.00372,0.42324,0.91648
301.963,37.67832,-0.00372,0.42356,0.91444
304.563,37.9151,-0.003729966,0.42413,0.9124
307.163,38.1524,-0.004719926,0.42617,0.91034
309.763,38.38923,-0.003339593,0.42708,0.90828
312.363,38.6273,-0.004496836,0.42643,0.90621
314.963,38.86489,-0.003729063,0.42788,0.90413
317.563,39.10266,-0.004761399,0.42855,0.90204
320.163,39.3397,-0.004706025,0.42921,0.89995
322.763,39.57825,-0.00470046,0.43333,0.89785
325.363,39.81649,-0.00470325,0.43467,0.89574
327.963,40.05516,-0.005369409,0.4372,0.89362
330.563,40.29377,-0.005697455,0.44003,0.8915
333.163,40.53303,-0.004900943,0.44069,0.88937
335.763,40.77212,-0.00538011,0.44339,0.88724
338.363,41.01181,-0.00636024,0.44683,0.8851
340.963,41.25142,-0.00665123,0.45006,0.88295
343.563,41.4913,-0.008,0.45119,0.8808
346.163,41.73169,-0.00848906,0.45455,0.87864
348.763,41.97166,-0.00733984,0.45774,0.87648
351.363,42.21216,-0.009980016,0.46067,0.87431
353.963,42.45315,-0.01064,0.46847,0.87214
356.563,42.69445,-0.01229003,0.4718,0.86996
359.163,42.9353,-0.01229076,0.4798,0.86778
361.763,43.17733,-0.01504653,0.48696,0.8656
364.363,43.4187,-0.0149177,0.49794,0.86341
366.963,43.66066,-0.01886017,0.50958,0.86121
369.563,43.90317,-0.02247462,0.51844,0.85902
372.163,44.14503,-0.02281352,0.53181,0.85682
374.763,44.38824,-0.0283843,0.54369,0.85462
377.363,44.63197,-0.03674901,0.55623,0.85241
379.963,44.8763,-0.04409978,0.58478,0.8502
382.563,45.12064,-0.05826783,0.61695,0.84799
385.163,45.36481,-0.07438975,0.65293,0.84578
387.763,45.60915,-0.09382535,0.68626,0.84357
390.363,45.85326,-0.11628,0.72451,0.84135
392.963,46.09819,-0.14387,0.77038,0.83913
395.563,46.34313,-0.17937,0.82476,0.83691
398.163,46.58885,-0.21954,0.88677,0.83469
400.763,46.83464,-0.27073,0.96163,0.83247
403.363,47.08129,-0.3331,1.07313,0.83025
405.963,47.3273,-0.41115,1.17627,0.82802
408.563,47.5745,-0.50842,1.32464,0.8258
411.163,47.8206,-0.62955,1.44485,0.82357
413.763,48.06769,-0.77474,1.56049,0.82135
416.363,48.3148,-0.94276,1.65679,0.81912
418.963,48.5619,-1.1343,1.72664,0.8169
421.563,48.80936,-1.34867,1.76377,0.81468
424.163,49.0568,-1.58257,1.75549,0.81245
426.763,49.3042,-1.82953,1.69373,0.81023
429.363,49.5528,-2.08242,1.64853,0.80801
431.963,49.80003,-2.31702,1.43951,0.80579
434.563,50.04723,-2.53525,1.28323,0.80357
437.163,50.29355,-2.72791,1.0945,0.80135
439.763,50.54101,-2.90009,0.96426,0.79913
442.363,50.7883,-3.05262,0.83475,0.79692
444.963,51.0358,-3.18371,0.71498,0.79471
447.563,51.2831,-3.29484,0.60212,0.7925
450.163,51.53106,-3.38271,0.49943,0.79029
452.763,51.7797,-3.45109,0.40729,0.78808
455.363,52.02815,-3.50263,0.33561,0.78588
457.963,52.2773,-3.54302,0.27807,0.78368
460.563,52.52607,-3.5724,0.23023,0.78148
463.163,52.7753,-3.59749,0.19256,0.77928
465.763,53.0244,-3.61822,0.15166,0.77709
468.363,53.274,-3.63459,0.12055,0.7749
470.963,53.52355,-3.64694,0.09240969,0.77272
473.563,53.77401,-3.65899,0.0688904,0.77054
476.163,54.0243,-3.6691,0.05669219,0.76836
478.763,54.2748,-3.67633,0.04829328,0.76619
481.363,54.52625,-3.68386,0.04585524,0.76402
483.963,54.7778,-3.68925,0.04707078,0.76185
486.563,55.0289,-3.696,0.04362742,0.75969
489.163,55.28066,-3.70035,0.03844834,0.75753
491.763,55.5319,-3.70427,0.03606607,0.75538
494.363,55.78406,-3.70957,0.03667867,0.75324
496.963,56.03581,-3.71221,0.03517974,0.75109
499.563,56.2886,-3.71649,0.03624171,0.74896
502.163,56.54075,-3.71984,0.04297507,0.74682
504.763,56.7935,-3.72176,0.04236149,0.7447
507.363,57.04654,-3.7244,0.04266057,0.74258
509.963,57.2996,-3.72506,0.04439176,0.74046
512.563,57.5527,-3.72637,0.0482678,0.73835
515.163,57.8065,-3.73031,0.0496311,0.73624
517.763,58.06001,-3.73064,0.04964776,0.73415
520.363,58.31351,-3.73294,0.04822311,0.73205
522.963,58.56675,-3.73495,0.0490573,0.72997
525.563,58.82121,-3.73361,0.04885888,0.72788
528.163,59.07545,-3.73232,0.05047786,0.72581
530.763,59.33031,-3.73558,0.05312407,0.72374
533.363,59.58529,-3.73584,0.05546027,0.72168
535.963,59.8405,-3.73854,0.05514414,0.71963
538.563,60.09531,-3.73887,0.05888342,0.71758
541.163,60.34969,-3.74048,0.05197139,0.71554
543.763,60.60487,-3.74114,0.057936,0.7135
546.363,60.8596,-3.74249,0.05498505,0.71147
548.963,61.1152,-3.74281,0.05363205,0.70945
551.563,61.3705,-3.74479,0.05329864,0.70744
554.163,61.6264,-3.74742,0.05618614,0.70543
556.763,61.8825,-3.74842,0.06249805,0.70344
559.363,62.1391,-3.75005,0.07153185,0.70144
561.963,62.39552,-3.75104,0.07025125,0.69946
564.563,62.65201,-3.75203,0.05532326,0.69748
567.163,62.90806,-3.75238,0.0469029,0.69552
569.763,63.1647,-3.75374,0.04556242,0.69356
572.363,63.4214,-3.75565,0.04778516,0.6916
574.963,63.67816,-3.75598,0.0494879,0.68966
577.563,63.93444,-3.75616,0.05011247,0.68772
580.163,64.19116,-3.75701,0.05313776,0.68579
582.763,64.44795,-3.75853,0.04548247,0.68387
585.363,64.7052,-3.76191,0.05081647,0.68196
587.963,64.96268,-3.76335,0.0532059,0.68006
590.563,65.22052,-3.76531,0.05128821,0.67816
593.163,65.4787,-3.76398,0.04967359,0.67627
595.763,65.73683,-3.76727,0.04918398,0.67439
598.363,65.99459,-3.76721,0.04577378,0.67252
600.963,66.25273,-3.76859,0.04515787,0.67066
603.563,66.5107,-3.76858,0.04692327,0.66881
606.163,66.76906,-3.76925,0.04448406,0.66696
608.763,67.0274,-3.77188,0.04803448,0.66513
611.363,67.28556,-3.77427,0.05822017,0.6633
613.963,67.54486,-3.77413,0.06034275,0.66148
616.563,67.80407,-3.77494,0.06001829,0.65967
619.163,68.06354,-3.77485,0.0609452,0.65787
621.763,68.32313,-3.77566,0.06154025,0.65608
624.363,68.58241,-3.77846,0.06165731,0.6543
626.963,68.8421,-3.77748,0.06058145,0.65252
629.563,69.10217,-3.77881,0.05641822,0.65076
632.163,69.3619,-3.77896,0.05637802,0.649
634.763,69.62136,-3.77846,0.05667098,0.64726
637.363,69.88161,-3.77945,0.05620193,0.64552
638.463,69.99181,-3.78011,0.06007529,0.64479