Folder: fsri_materials_database/01_Data/PET/STA/N2/30K_min (part 2)

File: PET_STA_N2_30KData_210830_R3.csv
##Temp./Â°C,Time/min,Mass loss(subtr.2)/mg,DSC(subtr.2)/(mW/mg),Sensit./(uV/mW)
49.284,10.01,-0.02446,-0.00582838,1.05401
51.784,11.5389,-0.02748293,0.08424652,1.05405
54.284,11.88917,-0.02722746,0.14559,1.05406
56.784,12.14434,-0.02911811,0.19487,1.05404
59.284,12.35781,-0.0276001,0.23248,1.054
61.784,12.5477,-0.02972591,0.26315,1.05392
64.284,12.72287,-0.02929272,0.29154,1.05381
66.784,12.88725,-0.02899978,0.31798,1.05367
69.284,13.0434,-0.02953169,0.34522,1.0535
71.784,13.1938,-0.02959272,0.37469,1.0533
74.284,13.338,-0.03013264,0.39874,1.05308
76.784,13.47754,-0.03051534,0.40703,1.05282
79.284,13.6127,-0.03068544,0.41708,1.05253
81.784,13.7437,-0.03105986,0.44644,1.05222
84.284,13.87059,-0.03240906,0.4793,1.05187
86.784,13.994,-0.03141298,0.50782,1.0515
89.284,14.1137,-0.03082932,0.53114,1.0511
91.784,14.2303,-0.03181389,0.55475,1.05067
94.284,14.34379,-0.03286389,0.57143,1.05021
96.784,14.4545,-0.03188974,0.59044,1.04972
99.284,14.56265,-0.03279563,0.60822,1.04921
101.784,14.6685,-0.03245688,0.62519,1.04866
104.284,14.7719,-0.03378812,0.64368,1.0481
106.784,14.8739,-0.03367677,0.66094,1.0475
109.284,14.9739,-0.03449854,0.67565,1.04687
111.784,15.07272,-0.03393965,0.69037,1.04622
114.284,15.1698,-0.03324264,0.70866,1.04555
116.784,15.26551,-0.03310423,0.7218,1.04484
119.284,15.35999,-0.03421949,0.73754,1.04411
121.784,15.4529,-0.0337925,0.75322,1.04335
124.284,15.5447,-0.03492824,0.76747,1.04257
126.784,15.6356,-0.03542668,0.78151,1.04176
129.284,15.725,-0.03431964,0.79445,1.04093
131.784,15.8132,-0.03423834,0.80915,1.04007
134.284,15.90086,-0.03491347,0.82202,1.03918
136.784,15.98749,-0.03395291,0.83378,1.03827
139.284,16.0732,-0.0341107,0.84874,1.03734
141.784,16.15791,-0.03277333,0.8624,1.03638
144.284,16.2418,-0.03461035,0.87385,1.0354
146.784,16.32455,-0.03683503,0.88726,1.03439
149.284,16.40739,-0.03674214,0.90191,1.03336
151.784,16.48911,-0.03649474,0.91485,1.0323
154.284,16.57036,-0.03532056,0.92749,1.03122
156.784,16.65084,-0.03532979,0.94195,1.03012
159.284,16.73089,-0.03637201,0.95666,1.02899
161.784,16.81034,-0.03662053,0.96943,1.02785
164.284,16.88944,-0.03598573,0.98089,1.02668
166.784,16.96789,-0.03712631,0.99405,1.02548
169.284,17.046,-0.03798356,1.00744,1.02427
171.784,17.1233,-0.0369754,1.01731,1.02303
174.284,17.20052,-0.03568591,1.029,1.02177
176.784,17.27725,-0.03793544,1.03884,1.02049
179.284,17.35333,-0.0365826,1.04612,1.01919
181.784,17.42898,-0.03657206,1.05926,1.01786
184.284,17.504,-0.03683755,1.06786,1.01652
186.784,17.5789,-0.03800872,1.0792,1.01516
189.284,17.65321,-0.03637907,1.09186,1.01377
191.784,17.72701,-0.03663342,1.0993,1.01236
194.284,17.80079,-0.03532042,1.11261,1.01094
196.784,17.87408,-0.0361162,1.12438,1.0095
199.284,17.947,-0.03670076,1.13096,1.00803
201.784,18.01977,-0.03806001,1.14262,1.00655
204.284,18.09221,-0.03810225,1.15507,1.00505
206.784,18.16453,-0.03674816,1.1632,1.00352
209.284,18.23639,-0.03794118,1.17159,1.00198
211.784,18.30809,-0.03675002,1.18184,1.00043
214.284,18.37954,-0.03807758,1.18953,0.99885
216.784,18.45107,-0.03807001,1.19642,0.99726
219.284,18.52215,-0.03666845,1.20535,0.99565
221.784,18.59301,-0.03764617,1.21652,0.99402
224.284,18.66386,-0.03806012,1.22129,0.99237
226.784,18.7344,-0.03929553,1.22968,0.99071
229.284,18.80464,-0.03938624,1.23718,0.98903
231.784,18.8748,-0.03805959,1.24204,0.98733
234.284,18.9448,-0.03903716,1.25082,0.98562
236.784,19.01475,-0.0387934,1.26093,0.98389
239.284,19.08444,-0.03871562,1.26434,0.98215
241.784,19.15415,-0.03936864,1.27403,0.98039
244.284,19.22358,-0.03936013,1.28008,0.97862
246.784,19.293,-0.03806097,1.28635,0.97683
249.284,19.36228,-0.03805831,1.29344,0.97503
251.784,19.43144,-0.03938244,1.3006,0.97321
254.284,19.50044,-0.03938,1.30851,0.97138
256.784,19.5696,-0.03938083,1.31554,0.96953
259.284,19.6384,-0.0380722,1.32044,0.96767
261.784,19.70702,-0.03872023,1.32765,0.9658
264.284,19.77585,-0.03864928,1.3323,0.96392
266.784,19.84446,-0.03937991,1.3365,0.96202
269.284,19.91295,-0.03932303,1.34316,0.96011
271.784,19.9813,-0.04069664,1.3516,0.95818
274.284,20.04972,-0.03937974,1.35731,0.95625
276.784,20.11795,-0.04064613,1.36344,0.9543
279.284,20.18629,-0.03999854,1.3668,0.95234
281.784,20.2546,-0.04069013,1.37495,0.95037
284.284,20.32289,-0.04068598,1.3816,0.94838
286.784,20.39115,-0.04200668,1.38277,0.94639
289.284,20.45928,-0.04057993,1.3908,0.94439
291.784,20.52732,-0.04059765,1.39608,0.94237
294.284,20.5955,-0.04322032,1.40069,0.94035
296.784,20.66364,-0.04321999,1.40685,0.93831
299.284,20.73167,-0.04323662,1.41056,0.93627
301.784,20.79969,-0.04189994,1.41571,0.93421
304.284,20.8675,-0.04156784,1.42192,0.93215
306.784,20.9358,-0.04025787,1.42706,0.93008
309.284,21.00382,-0.04157374,1.42584,0.92799
311.784,21.072,-0.04157073,1.43498,0.9259
314.284,21.14005,-0.04090995,1.4394,0.9238
316.784,21.20815,-0.04090714,1.44287,0.9217
319.284,21.2762,-0.04223281,1.44952,0.91958
321.784,21.34427,-0.04223088,1.4514,0.91746
324.284,21.4124,-0.04206997,1.45866,0.91533
326.784,21.48039,-0.04223127,1.46139,0.9132
329.284,21.54866,-0.04288537,1.46511,0.91105
331.784,21.61668,-0.04223125,1.47233,0.9089
334.284,21.68492,-0.04248561,1.47646,0.90674
336.784,21.75326,-0.0422329,1.48184,0.90458
339.284,21.8216,-0.04321918,1.48774,0.90241
341.784,21.89,-0.04322,1.49313,0.90024
344.284,21.95828,-0.04322,1.49803,0.89806
346.784,22.02668,-0.04321949,1.50288,0.89587
349.284,22.09522,-0.04453626,1.51041,0.89368
351.784,22.1638,-0.0445682,1.51357,0.89148
354.284,22.2322,-0.0458504,1.52016,0.88928
356.784,22.30104,-0.04485774,1.52807,0.88708
359.284,22.36981,-0.04486,1.53046,0.88487
361.784,22.43864,-0.04486005,1.53842,0.88266
364.284,22.50761,-0.04608748,1.54862,0.88044
366.784,22.5766,-0.04753988,1.5579,0.87822
369.284,22.64574,-0.04792468,1.56766,0.876
371.784,22.71493,-0.0468336,1.57644,0.87377
374.284,22.78418,-0.04915306,1.59342,0.87154
376.784,22.8535,-0.04943357,1.6079,0.86931
379.284,22.92282,-0.05079005,1.62098,0.86707
381.784,22.99222,-0.05143424,1.63931,0.86484
384.284,23.0616,-0.05275005,1.65672,0.8626
386.784,23.13104,-0.0542938,1.67537,0.86036
389.284,23.2012,-0.05679872,1.69842,0.85811
391.784,23.271,-0.05827166,1.72605,0.85587
394.284,23.3409,-0.06073449,1.76115,0.85362
396.784,23.4108,-0.06488727,1.79897,0.85138
399.284,23.48094,-0.07103181,1.83811,0.84913
401.784,23.55128,-0.07688273,1.8834,0.84688
404.284,23.62161,-0.08281051,1.93772,0.84463
406.784,23.69204,-0.09120344,2.01499,0.84239
409.284,23.76248,-0.10373,2.10398,0.84014
411.784,23.83306,-0.11843,2.20578,0.83789
414.284,23.90379,-0.13484,2.32315,0.83564
416.784,23.97467,-0.15671,2.45283,0.83339
419.284,24.0455,-0.18168,2.60351,0.83115
421.784,24.11646,-0.21568,2.79628,0.8289
424.284,24.18749,-0.25645,3.01865,0.82666
426.784,24.25879,-0.30506,3.27687,0.82441
429.284,24.33004,-0.36496,3.53555,0.82217
431.784,24.40149,-0.4399,3.79309,0.81993
434.284,24.47309,-0.53117,4.06772,0.81769
436.784,24.54495,-0.63451,4.33573,0.81546
439.284,24.61694,-0.75425,4.6103,0.81322
441.784,24.68896,-0.89836,4.84757,0.81099
444.284,24.7613,-1.06293,5.03385,0.80876
446.784,24.83381,-1.269,5.16763,0.80654
449.284,24.90636,-1.46391,5.19691,0.80431
451.784,24.979,-1.67265,5.12417,0.80209
454.284,25.05172,-1.89095,4.87525,0.79988
456.784,25.12431,-2.09706,4.49604,0.79766
459.284,25.19708,-2.29057,3.98652,0.79545
461.784,25.2698,-2.47011,3.54177,0.79324
464.284,25.34234,-2.62021,3.17437,0.79104
466.784,25.41517,-2.76628,2.83007,0.78884
469.284,25.48785,-2.89888,2.50152,0.78665
471.784,25.56052,-3.01065,2.1848,0.78446
474.284,25.6336,-3.10849,1.87621,0.78227
476.784,25.7068,-3.18395,1.57619,0.78009
479.284,25.7801,-3.24457,1.29844,0.77791
481.784,25.8535,-3.28942,1.05284,0.77574
484.284,25.92695,-3.32499,0.85135,0.77357
486.784,26.0007,-3.35014,0.6679,0.77141
489.284,26.07426,-3.37261,0.51895,0.76926
491.784,26.14801,-3.38905,0.39195,0.76711
494.284,26.22199,-3.40554,0.2924,0.76496
496.784,26.29617,-3.41853,0.21152,0.76282
499.284,26.3704,-3.42586,0.14932,0.76069
501.784,26.44456,-3.43681,0.10725,0.75856
504.284,26.519,-3.43105,0.07665784,0.75644
506.784,26.5935,-3.45773,0.05771645,0.75433
509.284,26.66832,-3.45666,0.04711194,0.75222
511.784,26.7433,-3.45876,0.04135507,0.75011
514.284,26.8182,-3.46131,0.03428295,0.74802
516.784,26.8929,-3.46499,0.03500613,0.74593
519.284,26.96815,-3.46645,0.03118676,0.74385
521.784,27.04369,-3.4701,0.03151357,0.74177
524.284,27.11905,-3.47178,0.03187725,0.7397
526.784,27.19432,-3.47511,0.02720203,0.73764
529.284,27.27,-3.47782,0.02532317,0.73559
531.784,27.3457,-3.4765,0.02511729,0.73354
534.284,27.4214,-3.47693,0.02677494,0.73151
536.784,27.49734,-3.47825,0.02590396,0.72947
539.284,27.5732,-3.47958,0.02586187,0.72745
541.784,27.6493,-3.48116,0.02895902,0.72544
544.284,27.72533,-3.48344,0.02704606,0.72343
546.784,27.80153,-3.48221,0.02971683,0.72143
549.284,27.878,-3.48352,0.03030104,0.71944
551.784,27.95455,-3.48485,0.03075355,0.71745
554.284,28.0312,-3.48617,0.03311192,0.71548
556.784,28.10786,-3.48731,0.0375511,0.71351
559.284,28.1845,-3.49005,0.03512408,0.71155
561.784,28.26118,-3.49006,0.03538102,0.7096
564.284,28.338,-3.49011,0.03856105,0.70766
566.784,28.4147,-3.49139,0.04269084,0.70573
569.284,28.49162,-3.49274,0.04544977,0.7038
571.784,28.56865,-3.49274,0.04463753,0.70189
574.284,28.6457,-3.49414,0.04402627,0.69998
576.784,28.72305,-3.49493,0.03715644,0.69808
579.284,28.8002,-3.50342,0.04015401,0.69619
581.784,28.87753,-3.50221,0.03840243,0.69431
584.284,28.95487,-3.50096,0.03810676,0.69244
586.784,29.03241,-3.50172,0.03935779,0.69058
589.284,29.11007,-3.50458,0.03941271,0.68873
591.784,29.1877,-3.50586,0.03721401,0.68689
594.284,29.2652,-3.50505,0.03597709,0.68505
596.784,29.34323,-3.50721,0.03275318,0.68323
599.284,29.42105,-3.50956,0.0344647,0.68141
601.784,29.499,-3.50951,0.02910361,0.67961
604.284,29.5772,-3.51239,0.02048965,0.67781
606.784,29.65527,-3.51305,0.01595909,0.67603
609.284,29.7335,-3.51369,0.01329958,0.67425
611.784,29.8118,-3.5145,0.007068805,0.67248
614.284,29.8902,-3.51631,-1.85091e-05,0.67073
616.784,29.9685,-3.51763,-0.00323169,0.66898
617.784,29.9998,-3.51763,-0.008783153,0.66828