Folder: fsri_materials_database/01_Data/PET/STA/N2/3K_min

Note: 01_Data/README.md
# Materials and Products Database
## 01_Data

Raw data generated from each apparatus are included here in plain-text format. The data is organized first by material, next by the short name of test apparatus used, and where applicable additional filtering by test settings.

### material.json

Each material directory contains a json file of the same name as the material. This file links the data stored in the repository as well as data and graphs produced by the accompanying scripts (__02_Scripts__) to the respective landing page for the material on the front-end website.

File: PET_STA_N2_3KData_210827_R1.csv
##Temp./Â°C,Time/min,Mass loss(subtr.2)/mg,DSC(subtr.2)/(mW/mg),Sensit./(uV/mW)
50.011,10.01,-0.00493,-0.02443653,0.9977
52.711,13.99504,-0.00593352,0.00109447,0.99975
55.411,15.5744,-0.00732108,0.01489741,1.00173
58.111,16.87647,-0.008358792,0.02156478,1.00363
60.811,18.0484,-0.00779009,0.02656979,1.00546
63.511,19.13553,-0.008339498,0.03231418,1.0072
66.211,20.1719,-0.008467973,0.0357889,1.00887
68.911,21.1738,-0.009649495,0.03899259,1.01046
71.611,22.1497,-0.01097004,0.03632222,1.01197
74.311,23.1088,-0.01118801,0.03837943,1.0134
77.011,24.05494,-0.01075,0.04086542,1.01476
79.711,24.99052,-0.009803199,0.05193043,1.01604
82.411,25.91405,-0.01338036,0.05378231,1.01725
85.111,26.8332,-0.01205317,0.0570183,1.01838
87.811,27.74199,-0.01403994,0.05631438,1.01944
90.511,28.64453,-0.01305,0.05712342,1.02042
93.211,29.54223,-0.01305,0.05714554,1.02133
95.911,30.43478,-0.01212023,0.05825573,1.02216
98.611,31.3233,-0.01404001,0.06016429,1.02293
101.311,32.20767,-0.0163739,0.06257396,1.02361
104.011,33.0888,-0.01503,0.0631885,1.02423
106.711,33.96888,-0.01479999,0.06228949,1.02478
109.411,34.8476,-0.01552111,0.06306369,1.02525
112.111,35.72367,-0.0131548,0.0665763,1.02566
114.811,36.598,-0.01348435,0.06792631,1.02599
117.511,37.4748,-0.01387308,0.06512276,1.02626
120.211,38.3495,-0.01414992,0.0630405,1.02646
122.911,39.22417,-0.01510208,0.06431468,1.02658
125.611,40.09499,-0.01448,0.06434237,1.02664
128.311,40.96635,-0.01448,0.06666923,1.02663
131.011,41.83455,-0.01577447,0.06644025,1.02656
133.711,42.70362,-0.01758658,0.07088503,1.02642
136.411,43.5659,-0.01634998,0.06922608,1.02621
139.111,44.43161,-0.01632869,0.07052017,1.02594
141.811,45.295,-0.01664549,0.07218629,1.0256
144.511,46.1565,-0.01667986,0.07101065,1.0252
147.211,47.0155,-0.01666993,0.07109507,1.02474
149.911,47.87184,-0.0155494,0.07033659,1.02421
152.611,48.73115,-0.01712,0.07153941,1.02362
155.311,49.59113,-0.01672256,0.0709667,1.02297
158.011,50.44961,-0.01743668,0.07133137,1.02226
160.711,51.3065,-0.01645014,0.07375548,1.02149
163.411,52.16168,-0.01712,0.07603386,1.02066
166.111,53.0166,-0.01843,0.07557982,1.01977
168.811,53.8709,-0.01613031,0.07336619,1.01882
171.511,54.7236,-0.0159433,0.07485547,1.01781
174.211,55.5792,-0.01678,0.0730586,1.01674
176.911,56.43286,-0.01667,0.07233751,1.01562
179.611,57.28852,-0.01798948,0.0695418,1.01445
182.311,58.14115,-0.01601995,0.06985184,1.01321
185.011,58.995,-0.01598655,0.06810612,1.01192
187.711,59.85046,-0.01633949,0.06849247,1.01058
190.411,60.7045,-0.01569,0.06950181,1.00919
193.111,61.5588,-0.01436556,0.06832004,1.00774
195.811,62.41179,-0.01536,0.06843419,1.00624
198.511,63.2629,-0.01371997,0.07021684,1.00469
201.211,64.11437,-0.01371,0.06654234,1.00309
203.911,64.96584,-0.01635,0.06401722,1.00144
206.611,65.82248,-0.01601,0.06767125,0.99974
209.311,66.67559,-0.01466988,0.06582293,0.99799
212.011,67.5291,-0.01239942,0.06372194,0.99619
214.711,68.3818,-0.01305038,0.06291291,0.99435
217.411,69.23594,-0.01329588,0.06216947,0.99246
220.111,70.08893,-0.01452699,0.06161889,0.99052
222.811,70.94083,-0.01293989,0.06188406,0.98854
225.511,71.79343,-0.01556999,0.06187938,0.98651
228.211,72.64817,-0.01426038,0.0637095,0.98444
230.911,73.50205,-0.01357165,0.06028662,0.98233
233.611,74.35673,-0.01419859,0.06074863,0.98018
236.311,75.21194,-0.01327001,0.06183678,0.97798
239.011,76.06579,-0.01459184,0.06059826,0.97575
241.711,76.9188,-0.01393001,0.05839972,0.97347
244.411,77.7713,-0.01393,0.0625125,0.97115
247.111,78.62448,-0.01559842,0.06013344,0.9688
249.811,79.47915,-0.012696,0.05868226,0.96641
252.511,80.33374,-0.01453823,0.05841892,0.96398
255.211,81.19082,-0.01579553,0.05341878,0.96151
257.911,82.0472,-0.01827677,0.05436083,0.95901
260.611,82.9033,-0.01832,0.05725879,0.95647
263.311,83.75915,-0.01832054,0.0571298,0.9539
266.011,84.61556,-0.01832044,0.05729586,0.9513
268.711,85.46984,-0.01898,0.05848515,0.94867
271.411,86.32478,-0.01606968,0.0577947,0.946
274.111,87.1822,-0.01798417,0.05877586,0.9433
276.811,88.04089,-0.01777,0.05709863,0.94057
279.511,88.9016,-0.01974,0.05827159,0.93781
282.211,89.7603,-0.0187374,0.05704564,0.93502
284.911,90.61886,-0.01953,0.05766248,0.9322
287.611,91.47784,-0.01884739,0.05944281,0.92936
290.311,92.33739,-0.01943794,0.05791139,0.92649
293.011,93.19657,-0.01986126,0.05932739,0.92359
295.711,94.05679,-0.02029816,0.05974875,0.92067
298.411,94.91845,-0.01955077,0.05488309,0.91772
301.111,95.77964,-0.02006997,0.05627329,0.91475
303.811,96.64149,-0.02532975,0.05889557,0.91176
306.511,97.506,-0.02258773,0.05958336,0.90874
309.211,98.369,-0.02271077,0.06229546,0.9057
311.911,99.23356,-0.0213142,0.06294916,0.90264
314.611,100.0979,-0.02435001,0.06526539,0.89957
317.311,100.96,-0.02665867,0.06495611,0.89647
320.011,101.825,-0.02599846,0.06387826,0.89335
322.711,102.693,-0.02731,0.06245909,0.89022
325.411,103.56,-0.02863071,0.06775838,0.88706
328.111,104.427,-0.02960877,0.06413768,0.88389
330.811,105.296,-0.0306,0.06902227,0.88071
333.511,106.164,-0.03060004,0.0665078,0.87751
336.211,107.034,-0.0342198,0.06763334,0.87429
338.911,107.902,-0.0362,0.06844899,0.87107
341.611,108.771,-0.03993369,0.07638063,0.86782
344.311,109.641,-0.04123114,0.07937655,0.86457
347.011,110.515,-0.04580925,0.08161936,0.86131
349.711,111.386,-0.05182587,0.09047345,0.85803
352.411,112.257,-0.06109541,0.10251,0.85474
355.111,113.127,-0.06889431,0.11284,0.85145
357.811,113.999,-0.08095192,0.11848,0.84814
360.511,114.875,-0.09532119,0.13911,0.84483
363.211,115.752,-0.1166,0.15977,0.84151
365.911,116.625,-0.14324,0.18637,0.83818
368.611,117.501,-0.17663,0.21655,0.83485
371.311,118.376,-0.2224,0.25039,0.83151
374.011,119.255,-0.27675,0.29106,0.82817
376.711,120.142,-0.35272,0.33617,0.82482
379.411,121.028,-0.44037,0.37868,0.82147
382.111,121.908,-0.54708,0.41867,0.81811
384.811,122.7905,-0.66925,0.45781,0.81475
387.511,123.6702,-0.81335,0.49007,0.8114
390.211,124.552,-0.97137,0.51398,0.80804
392.911,125.433,-1.14536,0.50889,0.80468
395.611,126.315,-1.32907,0.50193,0.80132
398.311,127.199,-1.51762,0.47303,0.79796
401.011,128.082,-1.70704,0.42984,0.7946
403.711,128.9665,-1.88716,0.38095,0.79125
406.411,129.851,-2.05891,0.33567,0.7879
409.111,130.735,-2.21676,0.29348,0.78455
411.811,131.616,-2.36344,0.25311,0.78121
414.511,132.499,-2.50065,0.22276,0.77787
417.211,133.386,-2.6275,0.19512,0.77453
419.911,134.272,-2.74272,0.17397,0.7712
422.611,135.158,-2.84688,0.14564,0.76788
425.311,136.0474,-2.92915,0.11261,0.76457
428.011,136.9336,-2.99251,0.08362701,0.76126
430.711,137.8212,-3.04314,0.05767411,0.75796
433.411,138.712,-3.08099,0.03467713,0.75467
436.111,139.603,-3.10997,0.01776136,0.75139
438.811,140.487,-3.13559,-0.00221749,0.74811
441.511,141.374,-3.1587,-0.01299962,0.74485
444.211,142.264,-3.17584,-0.02729167,0.7416
446.911,143.156,-3.19165,-0.02746734,0.73836
449.611,144.051,-3.20491,-0.04001642,0.73513
452.311,144.944,-3.21227,-0.04344234,0.73192
455.011,145.836,-3.22083,-0.03663802,0.72871
457.711,146.726,-3.22809,-0.03541223,0.72552
460.411,147.618,-3.23292,-0.03084028,0.72235
463.111,148.511,-3.23893,-0.029524,0.71919
465.811,149.405,-3.24288,-0.03205898,0.71604
468.511,150.301,-3.24787,-0.02664238,0.71291
471.211,151.194,-3.25076,-0.02101338,0.70979
473.911,152.091,-3.2534,-0.01818798,0.70669
476.611,152.984,-3.25679,-0.02081612,0.70361
479.311,153.881,-3.25866,-0.02088908,0.70054
482.011,154.774,-3.25999,-0.02470541,0.69749
484.711,155.668,-3.26305,-0.03016857,0.69446
487.411,156.5608,-3.26337,-0.03637977,0.69145
490.111,157.459,-3.26537,-0.0413126,0.68846
492.811,158.353,-3.26639,-0.0459278,0.68548
495.511,159.247,-3.2681,-0.04579028,0.68253
498.211,160.145,-3.26779,-0.04804753,0.67959
500.911,161.039,-3.26809,-0.05161946,0.67668
503.611,161.938,-3.26975,-0.04661488,0.67379
506.311,162.841,-3.27041,-0.04438061,0.67091
509.011,163.7403,-3.27172,-0.04906577,0.66806
511.711,164.64,-3.27205,-0.04849436,0.66524
514.411,165.54,-3.27271,-0.05262154,0.66243
517.111,166.4401,-3.2737,-0.04906968,0.65965
519.811,167.341,-3.275,-0.05336891,0.65688
522.511,168.248,-3.27578,-0.05367534,0.65415
525.211,169.149,-3.2771,-0.05404921,0.65143
527.911,170.049,-3.27677,-0.04911008,0.64874
530.611,170.956,-3.27838,-0.05226595,0.64608
533.311,171.8628,-3.28061,-0.05213879,0.64343
536.011,172.768,-3.28038,-0.05921002,0.64082
538.711,173.674,-3.28211,-0.06902997,0.63823
541.411,174.583,-3.28389,-0.06768396,0.63566
544.111,175.488,-3.28465,-0.06230596,0.63312
546.811,176.394,-3.28697,-0.06342642,0.63061
549.511,177.304,-3.28795,-0.05867091,0.62812
552.211,178.213,-3.29056,-0.06071677,0.62566
554.911,179.119,-3.2919,-0.05947148,0.62322
557.611,180.0261,-3.29257,-0.05556848,0.62081
560.311,180.9345,-3.29387,-0.06543098,0.61843
563.011,181.843,-3.29585,-0.05580448,0.61608
565.711,182.752,-3.29651,-0.06525601,0.61375
568.411,183.661,-3.29716,-0.06205373,0.61145
571.111,184.568,-3.29651,-0.06170671,0.60918
573.811,185.481,-3.29948,-0.0586075,0.60694
576.511,186.389,-3.30079,-0.05650198,0.60473
579.211,187.303,-3.29926,-0.05591829,0.60254
581.911,188.216,-3.30131,-0.04614855,0.60039
584.611,189.129,-3.30145,-0.03765908,0.59826
587.311,190.041,-3.3021,-0.02734108,0.59616
590.011,190.953,-3.30177,-0.02251721,0.59409
592.711,191.8636,-3.30507,-0.02158966,0.59205
595.411,192.774,-3.30539,-0.0098639,0.59004
598.111,193.691,-3.30506,-0.007322966,0.58806
600.811,194.607,-3.30373,0.00258297,0.58611
603.511,195.521,-3.30605,-0.00266404,0.58419
606.211,196.4338,-3.30626,0.003248557,0.5823
608.911,197.348,-3.30758,0.001209779,0.58044
611.611,198.261,-3.31022,0.0036113,0.57861
614.311,199.181,-3.31022,0.005230016,0.57681
617.011,200.094,-3.31107,-0.002386511,0.57504
619.711,201.009,-3.30978,0.0005769675,0.5733
622.411,201.925,-3.31297,0.009381492,0.57159
625.111,202.842,-3.31406,0.01126908,0.56991
627.811,203.763,-3.31261,0.00741325,0.56826
630.511,204.679,-3.3157,0.01797348,0.56664
633.211,205.5953,-3.31438,0.01926334,0.56506
635.911,206.5141,-3.31547,0.01786304,0.5635
638.611,207.434,-3.31893,0.02116413,0.56197
641.311,208.353,-3.31877,0.02772721,0.56048
644.011,209.271,-3.31812,0.02767448,0.55901
646.111,209.9822,-3.31976,0.03177498,0.5579