Folder: fsri_materials_database/01_Data/Cotton_Ball/MCC (part 2)

File: Cotton_Ball_MCC_30K_min_210708_R3.txt
Sample ID:	C:\MCC\MCC Cal\Test\Cotton_Ball\Cotton_Ball_MCC_30K_min_21_07_08_R3.txt
Sample Weight (mg):	3.31
Heating Rate (C/s):	0.5
Combustor Temp (C):	900
N2 Flow Rate (cc/min):	80
O2 Flow Rate (cc/min):	20
Calibration File:	C:\MCC\MCC Cal\Coeff1 JN10440_30_210304.txt.txt
T Correction Coefficients:	0	1.024463	0
Time Shift (s):	14
*
Time (s)	Temperature (C)	N2 flow rate (cc/min)	O2 flow rate (cc/min)	Flow Rate (cc/min)	Oxygen (%)	HRR (W/g)	Heating rate (C/s)
0.000	112.757	79.995	19.996	99.923	20.241	0.364	-0.004
8.000	112.688	79.999	19.995	99.922	20.241	0.408	-0.014
15.999	112.637	79.997	19.994	99.951	20.235	0.937	0.024
23.999	112.702	79.995	19.996	99.988	20.227	1.703	0.022
32.000	112.955	79.994	19.994	100.023	20.222	2.203	0.048
40.000	113.535	79.995	19.994	100.080	20.212	3.087	0.084
47.999	114.591	79.995	19.994	100.120	20.204	3.906	0.149
56.000	115.975	79.995	19.995	100.116	20.206	3.635	0.176
64.000	117.615	79.998	19.995	100.114	20.204	3.845	0.205
72.000	119.502	79.995	19.994	100.120	20.202	4.059	0.245
80.000	121.622	79.998	19.995	100.136	20.203	3.916	0.303
88.000	123.958	79.998	19.996	100.139	20.200	4.288	0.317
95.999	126.487	79.994	19.996	100.147	20.199	4.301	0.337
104.000	129.193	79.995	19.994	100.160	20.200	4.224	0.353
111.999	132.100	79.996	19.995	100.160	20.196	4.612	0.379
119.999	135.161	79.996	19.995	100.161	20.196	4.588	0.380
128.000	138.391	79.996	19.996	100.165	20.191	5.137	0.413
136.000	141.731	79.996	19.995	100.180	20.192	4.956	0.417
144.000	145.322	79.997	19.995	100.166	20.193	4.881	0.416
152.000	148.995	79.995	19.996	100.167	20.195	4.715	0.471
160.000	152.712	79.997	19.995	100.166	20.189	5.248	0.451
168.000	156.479	79.998	19.995	100.167	20.192	4.961	0.471
176.000	160.330	79.994	19.996	100.166	20.187	5.465	0.501
184.000	164.297	79.994	19.995	100.159	20.189	5.260	0.527
192.000	168.304	79.995	19.994	100.160	20.191	5.142	0.473
200.000	172.399	79.995	19.995	100.161	20.197	4.511	0.519
208.000	176.509	79.994	19.994	100.161	20.196	4.593	0.515
216.000	180.602	79.996	19.994	100.158	20.195	4.712	0.521
224.000	184.667	79.998	19.994	100.152	20.200	4.274	0.532
232.000	188.768	79.996	19.995	100.142	20.203	3.971	0.502
240.000	192.829	79.998	19.995	100.134	20.197	4.494	0.515
248.000	196.804	79.998	19.995	100.124	20.200	4.289	0.478
256.000	200.739	79.996	19.996	100.120	20.199	4.359	0.474
264.000	204.717	79.993	19.995	100.125	20.204	3.868	0.489
272.000	208.672	79.995	19.996	100.123	20.198	4.390	0.493
280.000	212.614	79.995	19.994	100.124	20.199	4.302	0.492
288.000	216.521	79.996	19.995	100.125	20.200	4.237	0.482
296.000	220.448	79.997	19.995	100.120	20.198	4.400	0.481
304.000	224.393	79.997	19.994	100.116	20.200	4.286	0.451
312.000	228.362	79.996	19.995	100.112	20.202	4.033	0.533
320.000	232.313	79.999	19.995	100.116	20.199	4.335	0.478
328.000	236.303	79.996	19.995	100.116	20.195	4.708	0.505
336.000	240.187	79.995	19.996	100.119	20.198	4.410	0.462
344.000	244.180	79.996	19.995	100.114	20.198	4.405	0.497
352.000	248.144	79.997	19.996	100.111	20.199	4.346	0.504
360.000	252.216	79.994	19.995	100.111	20.191	5.067	0.505
368.000	256.214	79.996	19.995	100.119	20.194	4.764	0.518
376.000	260.195	79.995	19.996	100.116	20.194	4.785	0.470
384.000	264.216	79.997	19.994	100.106	20.187	5.476	0.513
392.000	268.213	79.996	19.995	100.120	20.182	5.962	0.498
400.000	272.270	79.999	19.994	100.128	20.172	6.867	0.503
408.000	276.217	79.996	19.995	100.123	20.165	7.513	0.496
416.000	280.191	79.994	19.995	100.124	20.159	8.080	0.482
424.000	284.225	79.996	19.996	100.142	20.148	9.130	0.501
432.000	288.284	79.998	19.996	100.159	20.137	10.224	0.494
440.000	292.326	79.994	19.996	100.165	20.112	12.541	0.541
448.000	296.386	79.995	19.995	100.166	20.089	14.715	0.492
456.000	300.405	79.996	19.994	100.194	20.060	17.481	0.499
464.000	304.399	79.997	19.994	100.209	20.019	21.329	0.496
472.000	308.384	79.997	19.995	100.241	19.976	25.446	0.481
480.000	312.423	79.998	19.994	100.261	19.917	30.966	0.516
488.000	316.434	79.997	19.994	100.287	19.847	37.681	0.512
496.000	320.325	79.995	19.995	100.324	19.757	46.140	0.513
504.000	324.320	79.996	19.995	100.356	19.664	54.937	0.491
512.000	328.259	79.994	19.994	100.392	19.576	63.260	0.502
520.000	332.262	79.993	19.995	100.385	19.503	70.171	0.502
528.000	336.310	79.997	19.995	100.359	19.460	74.199	0.489
536.000	340.383	79.996	19.993	100.325	19.459	74.254	0.517
544.000	344.381	79.996	19.996	100.277	19.496	70.764	0.467
552.000	348.456	79.996	19.995	100.239	19.558	64.872	0.478
560.000	352.591	79.998	19.994	100.205	19.630	58.034	0.552
568.000	356.651	79.995	19.995	100.167	19.716	49.957	0.509
576.000	360.681	79.995	19.994	100.141	19.811	40.981	0.521
584.000	364.753	79.995	19.995	100.122	19.904	32.209	0.482
592.000	368.772	79.996	19.995	100.085	19.990	24.091	0.518
600.000	372.804	79.994	19.995	100.076	20.062	17.223	0.507
608.000	376.809	79.997	19.996	100.060	20.119	11.887	0.526
616.000	380.804	79.997	19.995	100.065	20.155	8.458	0.494
624.000	384.822	79.996	19.995	100.065	20.167	7.365	0.520
632.000	388.818	79.999	19.994	100.071	20.172	6.846	0.468
640.000	392.849	79.997	19.995	100.081	20.175	6.556	0.498
648.000	396.996	79.995	19.995	100.075	20.179	6.249	0.515
656.000	401.048	79.997	19.993	100.076	20.172	6.885	0.535
664.000	404.806	79.996	19.996	100.081	20.179	6.210	0.272
672.000	409.309	79.996	19.996	100.063	20.179	6.235	0.573
680.000	413.383	79.996	19.996	100.073	20.174	6.734	0.503
688.000	417.540	79.998	19.995	100.068	20.176	6.522	0.562
696.000	421.724	79.995	19.996	100.071	20.172	6.892	0.520
704.000	425.873	79.995	19.997	100.057	20.172	6.926	0.513
712.000	430.046	79.999	19.993	100.052	20.174	6.674	0.505
720.000	434.187	79.996	19.995	100.079	20.171	6.945	0.506
728.000	438.322	79.995	19.995	100.049	20.173	6.743	0.521
736.000	442.366	79.997	19.995	100.049	20.181	6.059	0.499
744.000	446.322	79.997	19.994	100.057	20.183	5.878	0.469
752.000	450.359	79.997	19.995	100.042	20.179	6.180	0.492
760.000	454.420	79.998	19.996	100.043	20.186	5.596	0.490
768.000	458.448	79.999	19.994	100.050	20.181	6.001	0.484
776.000	462.504	79.997	19.995	100.044	20.182	5.962	0.488
784.000	466.501	79.996	19.996	100.048	20.187	5.484	0.530
792.000	470.498	79.998	19.994	100.039	20.188	5.415	0.494
800.000	474.576	79.997	19.995	100.043	20.195	4.689	0.513
808.000	478.706	79.997	19.995	100.042	20.195	4.668	0.538
816.000	482.730	79.996	19.996	100.041	20.200	4.270	0.506
824.000	486.831	79.996	19.994	100.042	20.199	4.309	0.504
832.000	490.844	79.995	19.994	100.040	20.201	4.159	0.512
840.000	494.978	79.998	19.994	100.045	20.204	3.893	0.530
848.000	499.010	79.996	19.995	100.046	20.202	4.079	0.491
856.000	503.073	79.997	19.995	100.041	20.207	3.567	0.490
864.000	507.167	79.997	19.995	100.042	20.202	4.012	0.512
872.000	511.259	79.998	19.996	100.037	20.209	3.376	0.497
880.000	515.367	79.998	19.995	100.041	20.207	3.550	0.515
888.000	519.584	79.997	19.994	100.043	20.210	3.320	0.538
896.000	523.776	79.996	19.995	100.043	20.211	3.232	0.552
904.000	528.016	79.996	19.995	100.045	20.207	3.606	0.528
912.000	532.233	79.997	19.995	100.044	20.211	3.167	0.531
920.000	536.433	79.997	19.994	100.040	20.208	3.498	0.528
928.000	540.535	79.999	19.995	100.040	20.206	3.673	0.527
936.000	544.624	79.996	19.995	100.040	20.208	3.511	0.498
944.000	548.713	80.000	19.995	100.037	20.208	3.485	0.528
952.000	552.747	79.997	19.995	100.039	20.211	3.221	0.522
960.000	556.860	79.995	19.997	100.043	20.208	3.503	0.537
968.000	560.874	79.996	19.996	100.043	20.206	3.632	0.512
976.000	564.914	79.996	19.995	100.042	20.210	3.260	0.491
984.000	568.922	79.996	19.994	100.041	20.211	3.172	0.489
992.000	573.013	79.996	19.996	100.034	20.209	3.412	0.507
1000.000	577.151	79.998	19.995	100.036	20.209	3.387	0.517
1008.000	581.181	79.997	19.994	100.040	20.212	3.144	0.472
1016.000	585.235	79.996	19.996	100.043	20.211	3.183	0.517
1024.000	589.281	80.000	19.995	100.043	20.212	3.085	0.492
1032.000	593.334	79.996	19.996	100.043	20.213	2.979	0.513
1040.000	597.439	79.996	19.995	100.038	20.214	2.896	0.510
1047.999	601.573	79.996	19.995	100.038	20.215	2.805	0.516
1055.999	605.631	79.995	19.995	100.038	20.213	3.004	0.517
1063.999	609.749	79.996	19.995	100.037	20.213	2.984	0.516
1072.000	613.798	79.997	19.994	100.041	20.211	3.175	0.516
1079.999	617.804	79.998	19.994	100.042	20.211	3.185	0.474
1088.000	621.835	79.998	19.994	100.037	20.215	2.837	0.467
1096.000	625.877	79.998	19.995	100.046	20.218	2.498	0.523
1103.999	629.883	79.999	19.996	100.036	20.213	2.978	0.471
1111.999	633.962	79.997	19.995	100.030	20.214	2.937	0.490
1120.000	638.002	79.997	19.996	100.035	20.215	2.847	0.498
1128.000	642.144	79.996	19.997	100.039	20.216	2.754	0.503
1135.999	646.291	79.997	19.997	100.035	20.213	3.007	0.538
1144.000	650.445	79.995	19.995	100.030	20.212	3.118	0.515
1152.000	654.655	79.998	19.995	100.031	20.214	2.953	0.524
1159.999	658.730	79.998	19.994	100.033	20.209	3.358	0.481
1168.000	662.901	79.997	19.994	100.039	20.213	2.994	0.513
1175.999	666.985	79.997	19.994	100.026	20.214	2.955	0.532
1184.000	671.088	79.997	19.994	100.032	20.216	2.740	0.494
1192.000	675.145	79.997	19.996	100.008	20.212	3.138	0.508
1200.000	679.163	79.996	19.995	100.020	20.211	3.169	0.489
1207.999	683.154	79.996	19.996	100.029	20.207	3.614	0.505
1216.000	687.117	79.996	19.997	100.026	20.207	3.557	0.498
1223.999	691.031	79.996	19.996	100.033	20.214	2.949	0.498
1231.999	695.067	79.999	19.994	100.035	20.216	2.715	0.509
1240.000	699.040	79.995	19.996	100.018	20.210	3.332	0.498
1248.000	703.003	79.998	19.995	100.026	20.215	2.862	0.495
1256.000	707.039	79.998	19.995	100.024	20.212	3.095	0.509
1263.999	711.168	79.999	19.995	100.038	20.211	3.170	0.541
1271.999	715.236	79.996	19.994	100.033	20.209	3.368	0.528
1280.000	719.337	79.995	19.996	100.038	20.218	2.588	0.518
1287.999	723.379	79.995	19.994	100.020	20.209	3.407	0.515
1295.999	727.495	79.998	19.995	100.032	20.215	2.800	0.533
1304.000	731.559	79.995	19.996	100.023	20.208	3.449	0.507
1311.999	735.579	79.998	19.995	100.039	20.210	3.306	0.463
1320.000	739.591	79.996	19.995	100.042	20.204	3.887	0.501
1327.999	743.632	79.996	19.994	100.038	20.207	3.549	0.535