Folder: fsri_materials_database/01_Data/Cotton_Ball/MCC

Note: 01_Data/README.md
# Materials and Products Database
## 01_Data

Raw data generated from each apparatus are included here in plain-text format. The data is organized first by material, next by the short name of test apparatus used, and where applicable additional filtering by test settings.

### material.json

Each material directory contains a json file of the same name as the material. This file links the data stored in the repository as well as data and graphs produced by the accompanying scripts (__02_Scripts__) to the respective landing page for the material on the front-end website.

File: Cotton_Ball_MCC_30K_min_210708_R1.txt
Sample ID:	C:\MCC\MCC Cal\Test\Cotton_Ball\Cotton_Ball_MCC_30K_min_21_07_08_R1.txt
Sample Weight (mg):	3.2
Heating Rate (C/s):	0.5
Combustor Temp (C):	900
N2 Flow Rate (cc/min):	80
O2 Flow Rate (cc/min):	20
Calibration File:	C:\MCC\MCC Cal\Coeff1 JN10440_30_210304.txt.txt
T Correction Coefficients:	0	1.024463	0
Time Shift (s):	14
*
Time (s)	Temperature (C)	N2 flow rate (cc/min)	O2 flow rate (cc/min)	Flow Rate (cc/min)	Oxygen (%)	HRR (W/g)	Heating rate (C/s)
0.000	110.929	79.993	19.995	99.920	20.228	0.451	-0.018
7.999	110.889	79.994	19.994	99.909	20.228	0.446	-0.006
15.999	110.782	79.993	19.995	99.954	20.224	0.842	-0.008
23.999	110.965	79.999	19.996	100.070	20.206	2.545	0.019
31.999	111.591	79.995	19.992	100.095	20.198	3.351	0.106
39.999	112.634	79.992	20.000	100.124	20.191	4.045	0.162
48.000	114.107	79.995	19.996	100.136	20.186	4.486	0.213
55.999	115.987	79.995	19.997	100.130	20.185	4.616	0.269
63.999	118.230	79.994	19.993	100.150	20.180	5.096	0.301
71.999	120.677	79.996	19.994	100.161	20.182	4.923	0.368
79.999	123.362	79.991	20.000	100.163	20.182	4.864	0.376
87.999	126.301	79.989	19.997	100.160	20.183	4.837	0.412
96.000	129.425	79.999	19.991	100.165	20.181	5.014	0.404
103.999	132.636	79.996	19.996	100.169	20.179	5.191	0.394
112.001	136.050	79.994	19.992	100.172	20.180	5.065	0.421
119.999	139.556	79.995	19.995	100.182	20.179	5.217	0.454
127.999	143.277	79.999	19.993	100.173	20.174	5.664	0.484
136.000	147.043	79.996	19.995	100.167	20.173	5.805	0.476
144.000	150.873	79.994	19.995	100.086	20.173	5.763	0.486
152.000	154.753	79.994	19.995	100.164	20.175	5.634	0.485
160.000	158.664	79.994	19.995	100.163	20.175	5.608	0.505
168.000	162.627	79.993	19.996	100.167	20.177	5.442	0.511
176.000	166.687	79.992	19.997	100.163	20.179	5.190	0.483
184.000	170.745	79.994	19.994	100.163	20.180	5.087	0.517
192.000	174.823	79.995	19.996	100.142	20.178	5.296	0.512
200.000	178.806	79.993	19.997	100.143	20.180	5.122	0.500
208.000	182.808	79.995	19.994	100.123	20.182	4.878	0.471
216.000	186.864	79.997	19.995	100.128	20.183	4.860	0.523
224.000	190.900	79.993	19.995	100.143	20.182	4.905	0.538
232.000	194.888	79.994	19.995	100.199	20.185	4.645	0.507
240.000	198.822	79.994	19.995	100.127	20.183	4.782	0.527
248.000	202.715	79.992	19.994	100.124	20.183	4.771	0.487
256.000	206.685	79.995	19.996	100.116	20.186	4.501	0.515
264.000	210.611	79.996	19.995	100.123	20.183	4.816	0.527
272.000	214.530	79.995	19.996	100.123	20.182	4.942	0.514
280.000	218.401	79.994	19.995	100.120	20.189	4.198	0.480
288.000	222.310	79.993	19.998	100.121	20.185	4.656	0.487
296.000	226.262	79.996	19.995	100.116	20.182	4.889	0.500
304.000	230.193	79.993	19.995	100.126	20.179	5.170	0.463
312.000	234.173	79.994	19.996	100.129	20.180	5.102	0.519
320.000	238.156	79.994	19.995	100.119	20.181	4.979	0.498
328.000	242.141	79.993	19.997	100.116	20.178	5.332	0.502
336.000	246.164	79.994	19.995	100.115	20.175	5.556	0.482
344.000	250.213	79.994	19.996	100.103	20.175	5.624	0.514
352.000	254.211	79.993	19.996	100.114	20.168	6.271	0.507
360.000	258.214	79.993	19.995	100.109	20.168	6.290	0.512
368.000	262.210	79.995	19.994	100.123	20.163	6.789	0.488
376.000	266.244	79.995	19.993	100.124	20.161	6.950	0.514
384.000	270.230	79.995	19.994	100.112	20.153	7.705	0.495
392.000	274.289	79.991	19.995	100.124	20.144	8.665	0.488
400.000	278.291	79.995	19.995	100.124	20.131	9.917	0.510
408.000	282.295	79.994	19.996	100.141	20.121	10.910	0.519
416.000	286.248	79.992	19.996	100.138	20.106	12.320	0.518
424.000	290.240	79.994	19.994	100.157	20.086	14.278	0.514
432.000	294.300	79.993	19.995	100.166	20.057	17.082	0.504
440.000	298.285	79.993	19.995	100.169	20.033	19.473	0.509
448.000	302.259	79.996	19.995	100.193	20.005	22.192	0.490
456.000	306.254	79.995	19.995	100.212	19.964	26.257	0.514
464.000	310.335	79.993	19.996	100.229	19.912	31.315	0.514
472.000	314.375	79.993	19.995	100.257	19.855	36.862	0.498
480.000	318.435	79.995	19.995	100.297	19.778	44.398	0.527
488.000	322.479	79.994	19.996	100.325	19.692	52.850	0.531
496.000	326.456	79.991	19.995	100.354	19.599	61.952	0.481
504.000	330.504	79.996	19.995	100.364	19.519	69.774	0.510
512.000	334.566	79.995	19.995	100.378	19.448	76.696	0.543
520.000	338.580	79.993	19.996	100.350	19.408	80.608	0.490
528.000	342.613	79.996	19.996	100.312	19.417	79.740	0.494
536.000	346.608	79.996	19.995	100.272	19.462	75.281	0.515
544.000	350.625	79.994	19.995	100.232	19.535	68.063	0.510
552.000	354.680	79.992	19.995	100.184	19.637	58.165	0.505
560.000	358.716	79.994	19.996	100.160	19.742	47.866	0.509
568.000	362.761	79.994	19.996	100.126	19.847	37.570	0.512
576.000	366.842	79.993	19.995	100.094	19.951	27.414	0.520
584.000	370.874	79.995	19.996	100.081	20.030	19.741	0.504
592.000	375.000	79.994	19.995	100.075	20.089	13.952	0.531
600.000	379.053	79.996	19.995	100.069	20.127	10.273	0.475
608.000	383.135	79.995	19.995	100.077	20.150	8.067	0.530
616.000	387.172	79.995	19.996	100.068	20.154	7.601	0.548
624.000	391.282	79.994	19.994	100.057	20.159	7.192	0.505
632.000	395.394	79.993	19.994	100.068	20.155	7.574	0.534
640.000	399.499	79.994	19.995	100.053	20.160	7.056	0.529
648.000	403.599	79.993	19.996	100.051	20.161	6.965	0.341
656.000	407.712	79.995	19.995	100.053	20.161	6.968	0.551
664.000	411.762	79.998	19.995	100.056	20.164	6.622	0.474
672.000	415.877	79.994	19.995	100.048	20.165	6.577	0.500
680.000	420.028	79.995	19.995	100.048	20.166	6.454	0.526
688.000	424.169	79.998	19.995	100.051	20.161	6.911	0.529
696.000	428.338	79.994	19.996	100.050	20.164	6.673	0.520
704.000	432.443	79.993	19.997	100.057	20.158	7.205	0.547
712.000	436.589	79.994	19.995	100.046	20.165	6.568	0.511
720.000	440.701	79.994	19.995	100.046	20.161	6.964	0.518
728.000	444.840	79.993	19.994	100.055	20.166	6.424	0.516
736.000	448.954	79.993	19.995	100.050	20.165	6.569	0.528
744.000	452.984	79.996	19.995	100.049	20.162	6.833	0.500
752.000	457.013	79.994	19.994	100.048	20.167	6.371	0.512
760.000	461.052	79.995	19.996	100.045	20.169	6.151	0.503
768.000	465.077	79.996	19.996	100.044	20.168	6.226	0.497
776.000	469.145	79.994	19.995	100.034	20.175	5.574	0.533
784.000	473.204	79.995	19.996	100.048	20.171	5.999	0.497
792.000	477.346	79.993	19.997	100.043	20.176	5.451	0.526
800.000	481.365	79.993	19.995	100.048	20.176	5.513	0.476
808.000	485.423	79.994	19.995	100.047	20.179	5.171	0.501
816.000	489.520	79.994	19.994	100.050	20.180	5.068	0.506
824.000	493.630	79.996	19.994	100.041	20.180	5.112	0.519
832.000	497.763	79.995	19.995	100.034	20.178	5.319	0.523
840.000	501.841	79.995	19.995	100.044	20.184	4.753	0.536
848.000	505.948	79.998	19.995	100.035	20.184	4.667	0.504
856.000	510.014	79.994	19.996	100.043	20.183	4.796	0.516
864.000	514.085	79.993	19.996	100.036	20.181	5.008	0.511
872.000	518.155	79.993	19.996	100.038	20.188	4.300	0.498
880.000	522.296	79.994	19.996	100.047	20.185	4.644	0.520
888.000	526.373	79.993	19.995	100.019	20.187	4.404	0.493
896.000	530.473	79.996	19.995	100.031	20.187	4.457	0.540
904.000	534.610	79.996	19.995	100.033	20.188	4.329	0.548
912.000	538.679	79.995	19.994	100.044	20.189	4.184	0.502
920.000	542.795	79.996	19.995	100.038	20.185	4.601	0.520
928.000	546.867	79.997	19.994	100.047	20.191	4.046	0.525
936.000	550.968	79.995	19.996	100.027	20.190	4.112	0.501
944.000	555.142	79.995	19.995	100.035	20.191	4.016	0.531
952.000	559.277	79.995	19.996	100.042	20.191	4.000	0.503
960.000	563.371	79.994	19.996	100.034	20.189	4.262	0.508
968.000	567.490	79.993	19.996	100.017	20.190	4.154	0.512
976.000	571.573	79.993	19.995	100.034	20.192	3.916	0.481
984.000	575.754	79.995	19.995	100.036	20.192	3.935	0.535
992.000	579.726	79.996	19.995	100.013	20.187	4.427	0.478
1000.000	583.705	79.996	19.994	100.017	20.186	4.467	0.485
1008.000	587.683	79.998	19.993	100.041	20.191	4.005	0.495
1016.000	591.738	79.995	19.995	100.021	20.189	4.261	0.488
1024.000	595.773	79.994	19.996	100.022	20.187	4.401	0.504
1031.999	599.799	79.995	19.995	100.027	20.186	4.552	0.522
1039.999	603.924	79.995	19.995	100.013	20.190	4.133	0.530
1047.999	608.025	79.993	19.996	100.010	20.188	4.314	0.529
1055.999	612.175	79.994	19.996	100.018	20.188	4.294	0.525
1063.999	616.309	79.996	19.995	100.016	20.188	4.320	0.523
1071.999	620.413	79.996	19.995	100.035	20.190	4.122	0.519
1079.999	624.466	79.996	19.995	100.007	20.191	4.035	0.479
1087.999	628.531	79.997	19.995	100.025	20.190	4.167	0.501
1096.000	632.591	79.995	19.995	100.029	20.195	3.638	0.544
1103.999	636.659	79.994	19.994	100.014	20.189	4.178	0.507
1111.999	640.668	79.995	19.995	100.018	20.190	4.122	0.526
1119.999	644.685	79.995	19.995	100.024	20.194	3.772	0.478
1127.999	648.723	79.994	19.995	100.011	20.187	4.432	0.505
1135.999	652.736	79.996	19.996	100.026	20.193	3.810	0.505
1143.999	656.769	79.995	19.995	100.015	20.193	3.816	0.564
1151.999	660.848	79.995	19.994	100.013	20.194	3.711	0.493
1159.999	664.922	79.997	19.995	100.008	20.195	3.668	0.533
1167.999	669.036	79.996	19.994	100.011	20.193	3.850	0.502
1175.999	673.173	79.996	19.994	100.011	20.196	3.585	0.501
1183.999	677.357	79.997	19.994	100.015	20.194	3.772	0.533
1191.999	681.436	79.994	19.995	100.018	20.194	3.732	0.501
1199.999	685.519	79.994	19.995	100.007	20.195	3.654	0.500
1207.999	689.621	79.993	19.995	100.013	20.192	3.943	0.494
1215.999	693.698	79.997	19.996	100.030	20.190	4.103	0.489
1223.999	697.791	79.995	19.995	100.018	20.191	3.999	0.535
1231.999	701.796	79.996	19.996	100.011	20.192	3.951	0.513
1239.999	705.865	79.997	19.994	100.010	20.191	4.002	0.540
1247.999	709.811	79.995	19.994	100.027	20.187	4.368	0.472
1255.999	713.816	79.993	19.995	100.015	20.185	4.616	0.477
1263.999	717.877	79.995	19.995	100.012	20.188	4.333	0.496
1271.999	721.925	79.995	19.994	100.022	20.187	4.386	0.530
1279.999	725.943	79.994	19.995	100.011	20.182	4.862	0.516
1288.000	729.993	79.994	19.996	100.008	20.185	4.648	0.507
1296.000	734.008	79.996	19.995	100.012	20.180	5.068	0.509
1304.000	738.059	79.996	19.995	100.005	20.185	4.573	0.517
1312.000	742.081	79.992	19.996	100.019	20.184	4.737	0.581
1314.500	743.419	79.996	19.996	100.011	20.185	4.596	0.505

File: Cotton_Ball_MCC_30K_min_210708_R2.txt
Sample ID:	C:\MCC\MCC Cal\Test\Cotton_Ball\Cotton_Ball_MCC_30K_min_21_07_08_R2.txt
Sample Weight (mg):	3.11
Heating Rate (C/s):	0.5
Combustor Temp (C):	900
N2 Flow Rate (cc/min):	80
O2 Flow Rate (cc/min):	20
Calibration File:	C:\MCC\MCC Cal\Coeff1 JN10440_30_210304.txt.txt
T Correction Coefficients:	0	1.024463	0
Time Shift (s):	14
*
Time (s)	Temperature (C)	N2 flow rate (cc/min)	O2 flow rate (cc/min)	Flow Rate (cc/min)	Oxygen (%)	HRR (W/g)	Heating rate (C/s)
0.000	111.411	79.995	19.995	99.954	20.184	-0.005	0.024
8.001	111.341	79.997	19.996	99.934	20.180	0.412	-0.007
16.000	111.294	79.997	19.995	99.958	20.180	0.462	-0.010
24.000	111.300	79.995	19.995	100.005	20.171	1.312	0.007
32.000	111.577	79.994	19.997	100.118	20.158	2.614	0.052
40.001	112.351	79.994	19.995	100.167	20.148	3.603	0.126
48.000	113.676	79.993	19.994	100.140	20.147	3.713	0.179
56.001	115.222	79.995	19.995	100.142	20.140	4.477	0.217
64.000	117.121	79.998	19.994	100.179	20.134	5.040	0.265
72.000	119.338	79.997	19.995	100.165	20.134	5.018	0.338
80.000	121.777	79.996	19.994	100.157	20.139	4.589	0.335
88.000	124.494	79.998	19.995	100.149	20.138	4.677	0.356
96.001	127.277	79.998	19.995	100.161	20.145	3.983	0.337
104.000	130.184	79.995	19.995	100.164	20.140	4.404	0.345
112.000	133.213	79.994	19.996	100.164	20.140	4.407	0.400
120.000	136.322	79.995	19.996	100.170	20.137	4.737	0.397
128.000	139.454	79.997	19.995	100.167	20.135	4.905	0.414
136.000	142.811	79.995	19.996	100.164	20.133	5.137	0.425
144.000	146.189	79.996	19.995	100.162	20.129	5.580	0.401
152.000	149.709	79.997	19.995	100.178	20.128	5.690	0.440
160.000	153.244	79.996	19.995	100.171	20.128	5.608	0.435
168.001	156.766	79.998	19.995	100.191	20.130	5.415	0.428
176.000	160.480	79.997	19.994	100.165	20.129	5.553	0.452
184.001	164.226	79.996	19.996	100.159	20.132	5.217	0.478
192.000	168.092	79.996	19.995	100.166	20.135	4.952	0.487
200.000	171.978	79.996	19.995	100.166	20.134	5.099	0.494
208.000	175.820	79.995	19.996	100.160	20.138	4.630	0.452
216.000	179.799	79.996	19.995	100.168	20.136	4.864	0.506
224.000	183.863	79.998	19.996	100.163	20.136	4.881	0.493
232.000	187.929	79.996	19.995	100.163	20.135	4.919	0.507
240.000	192.055	79.996	19.995	100.151	20.143	4.129	0.538
248.000	196.045	79.999	19.995	100.157	20.137	4.753	0.504
256.000	200.034	79.998	19.994	100.133	20.140	4.481	0.479
264.001	204.052	79.995	19.996	100.142	20.139	4.579	0.477
272.001	208.023	79.997	19.995	100.129	20.140	4.433	0.523
280.000	212.065	79.997	19.994	100.139	20.138	4.642	0.514
288.000	215.993	79.998	19.995	100.128	20.139	4.590	0.488
296.000	219.963	79.992	19.995	100.123	20.136	4.821	0.478
304.000	223.913	79.996	19.995	100.124	20.139	4.576	0.476
312.000	227.900	79.994	19.994	100.124	20.138	4.670	0.528
320.000	231.818	79.997	19.995	100.125	20.138	4.626	0.485
328.000	235.752	79.997	19.995	100.128	20.139	4.557	0.499
336.000	239.653	79.999	19.995	100.120	20.135	4.970	0.488
344.000	243.569	79.997	19.995	100.137	20.132	5.231	0.482
352.000	247.524	79.994	19.994	100.126	20.129	5.590	0.534
360.000	251.596	79.993	19.995	100.143	20.130	5.477	0.486
368.000	255.649	79.996	19.994	100.137	20.124	6.018	0.508
376.000	259.717	79.994	19.995	100.152	20.116	6.842	0.510
384.000	263.774	79.997	19.996	100.126	20.115	6.974	0.522
392.000	267.760	79.997	19.995	100.147	20.108	7.713	0.537
400.001	271.876	79.995	19.994	100.142	20.098	8.627	0.523
408.000	275.853	79.998	19.994	100.159	20.088	9.706	0.478
416.000	279.845	79.997	19.994	100.160	20.074	11.114	0.500
424.000	283.869	79.995	19.995	100.166	20.058	12.715	0.515
432.000	287.860	79.995	19.995	100.192	20.040	14.479	0.523
440.000	291.816	79.996	19.997	100.183	20.012	17.270	0.493
448.000	295.740	79.996	19.996	100.203	19.982	20.378	0.458
456.001	299.723	79.995	19.996	100.210	19.947	23.905	0.505
464.000	303.667	79.997	19.995	100.236	19.903	28.342	0.504
472.000	307.657	79.996	19.996	100.278	19.842	34.420	0.494
480.000	311.642	79.998	19.995	100.294	19.776	41.106	0.496
488.000	315.668	79.996	19.994	100.357	19.691	49.676	0.481
496.000	319.704	79.997	19.995	100.355	19.606	58.202	0.505
504.000	323.701	79.995	19.996	100.390	19.526	66.272	0.506
512.000	327.675	79.996	19.995	100.381	19.463	72.661	0.509
520.000	331.761	79.996	19.995	100.368	19.408	78.153	0.523
528.001	335.769	79.995	19.995	100.343	19.401	78.765	0.515
536.000	339.635	79.995	19.996	100.314	19.426	76.298	0.500
544.000	343.863	79.998	19.996	100.251	19.501	68.683	0.484
552.000	347.912	79.996	19.995	100.241	19.575	61.215	0.481
560.000	352.040	79.995	19.997	100.166	19.657	52.996	0.519
568.000	356.124	79.999	19.996	100.155	19.755	43.151	0.497
576.000	360.299	79.998	19.994	100.124	19.844	34.177	0.533
584.000	364.325	79.995	19.995	100.116	19.925	26.045	0.508
592.000	368.419	79.997	19.995	100.087	20.001	18.432	0.511
600.000	372.596	79.996	19.995	100.084	20.047	13.819	0.550
608.000	376.769	79.998	19.994	100.083	20.085	9.992	0.513
616.001	380.903	79.998	19.996	100.081	20.105	7.927	0.528
624.000	385.035	79.997	19.996	100.083	20.114	7.108	0.522
632.000	389.070	79.998	19.995	100.080	20.114	7.052	0.508
640.000	393.139	79.998	19.996	100.096	20.119	6.510	0.508
648.000	397.256	79.998	19.997	100.068	20.115	6.932	0.499
656.000	401.227	80.000	19.994	100.077	20.118	6.636	0.504
664.000	405.239	79.996	19.995	100.061	20.117	6.736	0.511
672.000	409.281	79.997	19.994	100.063	20.116	6.864	0.496
680.000	413.332	79.996	19.994	100.099	20.116	6.857	0.503
688.000	417.359	79.994	19.994	100.049	20.122	6.299	0.527
696.000	421.432	79.995	19.996	100.050	20.115	6.962	0.490
704.000	425.532	79.998	19.995	100.075	20.117	6.717	0.526
712.000	429.575	79.997	19.995	100.045	20.120	6.435	0.502
720.000	433.693	79.996	19.995	100.068	20.117	6.765	0.550
728.000	437.797	79.999	19.996	100.055	20.112	7.275	0.496
736.000	441.859	79.997	19.995	100.081	20.120	6.443	0.502
744.000	445.820	79.995	19.995	100.080	20.122	6.274	0.502
752.000	449.878	79.997	19.995	100.055	20.124	6.019	0.526
760.000	453.878	79.997	19.995	100.046	20.122	6.234	0.494
768.000	457.985	79.995	19.996	100.070	20.127	5.753	0.493
776.000	462.097	79.996	19.995	100.040	20.128	5.678	0.518
784.000	466.159	79.996	19.996	100.045	20.133	5.114	0.506
792.000	470.323	79.997	19.995	100.045	20.132	5.213	0.501
800.000	474.458	79.996	19.995	100.046	20.136	4.867	0.523
808.000	478.575	79.997	19.994	100.045	20.136	4.818	0.503
816.000	482.629	79.998	19.995	100.043	20.139	4.525	0.486
824.000	486.670	79.995	19.996	100.041	20.143	4.149	0.505
832.000	490.736	79.995	19.995	100.037	20.139	4.561	0.517
840.000	494.837	79.996	19.995	100.058	20.143	4.100	0.497
848.000	498.888	79.997	19.995	100.049	20.143	4.113	0.488
856.000	503.008	79.993	19.995	100.042	20.148	3.602	0.501
864.000	507.101	79.997	19.995	100.042	20.151	3.365	0.519
872.000	511.223	79.997	19.995	100.029	20.153	3.156	0.507
880.000	515.293	79.997	19.995	100.015	20.155	2.960	0.530
888.000	519.395	79.997	19.995	100.018	20.154	3.000	0.500
896.000	523.470	79.996	19.996	100.049	20.158	2.600	0.474
904.000	527.582	79.995	19.996	100.032	20.157	2.782	0.504
912.000	531.695	79.996	19.997	100.014	20.161	2.334	0.484
920.000	535.882	79.994	19.995	100.017	20.162	2.191	0.523
928.000	539.998	79.994	19.995	100.031	20.163	2.097	0.496
936.000	544.105	79.996	19.995	100.016	20.169	1.556	0.487
944.000	548.281	79.997	19.995	100.018	20.163	2.087	0.538
952.000	552.340	79.998	19.995	100.023	20.165	1.896	0.502
960.000	556.559	79.997	19.994	100.007	20.171	1.350	0.525
968.000	560.667	79.999	19.996	100.009	20.166	1.787	0.497
976.000	564.868	79.996	19.996	100.007	20.170	1.468	0.502
984.000	569.025	79.995	19.996	100.039	20.169	1.501	0.500
992.000	573.184	79.994	19.995	100.030	20.168	1.638	0.551
1000.000	577.325	79.995	19.996	100.027	20.171	1.336	0.528
1008.000	581.356	79.995	19.995	100.039	20.168	1.641	0.492
1016.000	585.370	79.997	19.995	100.038	20.167	1.718	0.491
1024.000	589.362	79.997	19.995	100.032	20.162	2.210	0.539
1032.001	593.342	79.996	19.995	100.033	20.168	1.660	0.489
1040.000	597.392	79.997	19.995	100.021	20.169	1.548	0.522
1048.000	601.547	79.998	19.993	100.034	20.169	1.518	0.493
1056.000	605.614	79.996	19.995	100.023	20.169	1.537	0.507
1064.001	609.735	79.996	19.995	100.011	20.168	1.627	0.504
1072.000	613.807	79.997	19.996	100.009	20.171	1.311	0.507
1080.000	617.822	79.996	19.996	100.013	20.171	1.303	0.515
1088.000	621.877	79.995	19.996	100.035	20.173	1.122	0.498
1096.000	625.960	79.997	19.996	100.022	20.169	1.504	0.479
1104.000	630.061	79.998	19.996	100.014	20.176	0.816	0.485
1112.000	634.152	79.996	19.994	100.009	20.171	1.298	0.525
1120.000	638.233	79.997	19.995	100.014	20.175	0.885	0.520
1128.001	642.265	80.000	19.995	100.007	20.174	0.992	0.502
1136.000	646.232	79.997	19.996	100.010	20.177	0.739	0.484
1144.000	650.284	79.994	19.995	100.015	20.174	1.000	0.529
1152.000	654.250	79.995	19.995	100.006	20.181	0.341	0.495
1160.000	658.351	79.995	19.996	100.005	20.174	1.072	0.494
1168.000	662.389	79.993	19.996	100.009	20.174	0.995	0.466
1176.000	666.462	79.995	19.996	100.012	20.177	0.750	0.512
1184.000	670.508	79.995	19.993	100.017	20.173	1.138	0.542
1192.000	674.559	79.996	19.996	100.005	20.176	0.836	0.510
1200.000	678.620	79.999	19.994	100.006	20.183	0.154	0.499
1208.000	682.753	79.997	19.995	100.005	20.178	0.585	0.535
1216.000	686.956	79.995	19.994	100.005	20.181	0.322	0.536
1224.000	691.008	79.994	19.994	100.010	20.175	0.929	0.515
1232.000	695.155	79.994	19.995	100.011	20.178	0.654	0.499
1240.000	699.233	79.996	19.995	100.011	20.178	0.618	0.477
1248.000	703.248	79.996	19.996	100.022	20.184	0.049	0.511
1256.001	707.323	79.995	19.995	100.020	20.178	0.676	0.560
1264.000	711.280	79.996	19.995	100.012	20.175	0.899	0.522
1272.000	715.362	79.996	19.996	100.008	20.183	0.115	0.515
1280.000	719.381	79.999	19.995	100.012	20.177	0.745	0.499
1288.000	723.445	79.997	19.994	100.025	20.178	0.663	0.516
1296.000	727.477	79.996	19.994	100.017	20.178	0.630	0.545
1304.000	731.612	79.995	19.995	100.013	20.174	1.061	0.554
1312.000	735.692	79.995	19.994	100.011	20.175	0.943	0.514
1320.000	739.880	79.995	19.996	100.010	20.172	1.253	0.520
1326.500	743.297	79.994	19.996	100.010	20.176	0.816	0.503