Folder: fsri_materials_database/01_Data/PVC_Pipe/MCC (part 2)

File: PVC_Pipe_MCC_30K_min_211119_R3.txt
Sample ID:	C:\MCC\MCC Cal\Test\PVC_Pipe_MCC_30K_min_211119_R3.txt
Sample Weight (mg):	4.28
Heating Rate (C/s):	0.5
Combustor Temp (C):	900
N2 Flow Rate (cc/min):	80
O2 Flow Rate (cc/min):	20
Calibration File:	C:\MCC\MCC Cal\Coeff1 JN10440_30_210304.txt.txt
T Correction Coefficients:	0	1.024463	0
Time Shift (s):	14
*
Time (s)	Temperature (C)	N2 flow rate (cc/min)	O2 flow rate (cc/min)	Flow Rate (cc/min)	Oxygen (%)	HRR (W/g)	Heating rate (C/s)
0.000	108.904	80.003	19.994	103.075	20.158	-0.206	-0.011
8.000	108.885	80.003	19.994	103.065	20.152	0.239	-0.009
15.999	108.919	80.003	19.996	103.111	20.151	0.351	0.004
23.999	109.133	80.005	19.996	103.185	20.137	1.393	0.024
31.999	109.692	80.003	19.994	103.218	20.129	2.019	0.101
39.999	110.640	80.004	19.993	103.237	20.125	2.311	0.138
47.999	111.994	80.005	19.994	103.279	20.117	2.933	0.177
55.999	113.668	80.003	19.993	103.307	20.109	3.471	0.246
63.999	115.749	80.003	19.995	103.303	20.107	3.676	0.280
71.999	118.126	80.004	19.994	103.299	20.107	3.649	0.299
79.999	120.722	80.003	19.994	103.308	20.105	3.776	0.352
87.999	123.564	80.002	19.995	103.311	20.105	3.802	0.349
95.999	126.545	80.003	19.995	103.338	20.102	4.050	0.357
103.999	129.814	80.004	19.994	103.331	20.105	3.805	0.412
112.000	133.177	80.003	19.996	103.329	20.100	4.153	0.426
120.000	136.653	80.001	19.995	103.328	20.099	4.218	0.467
127.999	140.331	80.004	19.994	103.333	20.102	4.011	0.488
136.000	143.993	80.005	19.994	103.308	20.103	3.951	0.479
144.000	147.779	80.003	19.995	103.319	20.103	3.983	0.479
152.000	151.560	80.002	19.995	103.314	20.102	4.038	0.470
160.000	155.378	80.005	19.994	103.325	20.102	4.048	0.458
168.000	159.268	80.003	19.995	103.336	20.104	3.858	0.496
176.000	163.262	80.001	19.994	103.300	20.098	4.292	0.529
184.000	167.186	80.004	19.995	103.294	20.097	4.389	0.472
192.000	171.207	80.004	19.994	103.328	20.103	3.943	0.475
200.000	175.194	80.004	19.995	103.280	20.099	4.270	0.471
208.000	179.271	80.005	19.995	103.293	20.099	4.257	0.505
216.000	183.296	80.005	19.996	103.271	20.098	4.356	0.499
224.000	187.357	80.003	19.994	103.278	20.098	4.338	0.491
232.000	191.424	80.003	19.995	103.282	20.098	4.316	0.513
240.000	195.432	80.003	19.994	103.284	20.100	4.152	0.494
248.000	199.382	80.004	19.995	103.263	20.100	4.150	0.486
256.000	203.376	80.002	19.995	103.259	20.099	4.218	0.490
264.000	207.304	80.002	19.994	103.260	20.095	4.555	0.482
272.000	211.293	80.004	19.995	103.289	20.090	4.912	0.512
280.000	215.217	80.003	19.994	103.254	20.083	5.424	0.479
288.000	219.168	80.004	19.995	103.256	20.077	5.869	0.497
296.000	223.108	80.005	19.993	103.250	20.070	6.422	0.517
304.000	227.034	80.003	19.995	103.257	20.064	6.916	0.498
312.000	231.031	80.001	19.995	103.258	20.061	7.127	0.500
320.000	234.948	80.002	19.994	103.267	20.061	7.090	0.492
328.000	238.923	80.003	19.995	103.259	20.066	6.711	0.492
336.000	242.852	80.003	19.995	103.229	20.064	6.922	0.486
344.000	246.852	80.002	19.995	103.248	20.058	7.315	0.493
352.000	250.875	80.005	19.995	103.241	20.057	7.390	0.527
360.000	254.876	80.003	19.995	103.254	20.054	7.650	0.493
368.000	258.856	80.003	19.994	103.228	20.044	8.393	0.503
376.000	262.828	80.004	19.995	103.256	20.039	8.734	0.468
384.000	266.892	80.005	19.993	103.260	20.038	8.816	0.509
392.000	270.943	80.002	19.995	103.261	20.042	8.556	0.590
400.000	275.062	80.002	19.995	103.264	20.033	9.210	0.467
408.000	279.077	80.003	19.995	103.290	20.026	9.731	0.525
416.000	283.060	80.003	19.993	103.319	20.017	10.463	0.502
424.000	287.039	80.002	19.996	103.361	19.998	11.858	0.501
432.000	291.045	80.003	19.995	103.487	19.963	14.511	0.498
440.000	295.035	80.004	19.994	103.714	19.910	18.454	0.499
448.000	298.964	80.004	19.993	103.433	19.876	20.947	0.494
456.000	302.977	80.004	19.995	102.989	19.888	20.076	0.517
464.000	306.990	80.005	19.995	103.047	19.920	17.746	0.511
472.000	311.033	80.002	19.997	103.215	19.945	15.860	0.492
480.000	315.146	80.003	19.996	103.230	19.959	14.758	0.515
488.000	319.236	80.003	19.995	103.218	19.978	13.362	0.496
496.000	323.301	80.003	19.995	103.208	19.995	12.068	0.507
504.000	327.332	80.003	19.995	103.197	20.010	10.937	0.496
512.000	331.303	80.003	19.995	103.189	20.020	10.169	0.487
520.000	335.272	80.003	19.994	103.209	20.026	9.746	0.495
528.000	339.241	80.005	19.995	103.202	20.035	9.085	0.494
536.000	343.176	80.004	19.993	103.216	20.038	8.823	0.474
544.000	347.044	80.007	19.994	103.222	20.045	8.332	0.485
552.000	350.962	80.006	19.995	103.218	20.042	8.524	0.486
560.000	354.882	80.003	19.995	103.256	20.046	8.274	0.486
568.000	358.788	80.001	19.994	103.263	20.046	8.249	0.502
576.000	362.779	80.004	19.995	103.294	20.047	8.156	0.493
584.000	366.735	80.004	19.995	103.305	20.047	8.181	0.498
592.000	370.785	80.002	19.996	103.337	20.043	8.446	0.515
600.000	374.876	80.002	19.994	103.334	20.041	8.593	0.511
608.000	378.927	80.005	19.995	103.324	20.032	9.268	0.509
616.000	383.025	80.002	19.995	103.319	20.026	9.741	0.520
624.000	387.090	80.005	19.994	103.303	20.013	10.723	0.482
632.000	391.225	80.005	19.993	103.329	19.997	11.902	0.499
640.000	395.444	80.005	19.994	103.296	19.980	13.242	0.518
648.000	399.545	80.003	19.994	103.290	19.951	15.413	0.507
656.000	403.699	80.004	19.995	103.297	19.915	18.111	0.517
664.000	407.762	80.004	19.992	103.285	19.875	21.146	0.532
672.000	411.765	80.004	19.995	103.296	19.822	25.146	0.496
680.000	415.697	80.004	19.995	103.292	19.760	29.745	0.461
688.000	419.865	80.004	19.994	103.257	19.690	35.029	0.551
696.000	423.845	80.005	19.997	103.277	19.616	40.600	0.534
704.000	427.837	80.004	19.995	103.269	19.534	46.773	0.510
712.000	431.852	80.006	19.994	103.265	19.463	52.169	0.507
720.000	435.835	80.006	19.995	103.266	19.394	57.348	0.517
728.000	439.797	80.005	19.995	103.263	19.344	61.072	0.494
736.000	443.754	80.004	19.995	103.256	19.332	61.966	0.524
744.000	447.724	80.004	19.994	103.281	19.303	64.120	0.513
752.000	451.772	80.004	19.995	103.225	19.191	72.625	0.494
760.000	455.877	80.004	19.995	103.246	19.164	74.693	0.555
768.000	460.004	80.003	19.995	103.299	19.210	71.186	0.466
776.000	464.260	80.006	19.994	103.242	19.280	65.876	0.529
784.000	468.473	80.003	19.995	103.259	19.341	61.300	0.518
792.000	472.738	80.006	19.994	103.214	19.387	57.801	0.521
800.000	476.869	80.007	19.994	103.246	19.445	53.475	0.485
808.000	480.893	80.006	19.993	103.245	19.499	49.399	0.475
816.000	484.812	80.003	19.995	103.230	19.537	46.559	0.449
824.000	488.784	80.005	19.994	103.214	19.596	42.108	0.507
832.000	492.849	80.005	19.994	103.234	19.655	37.693	0.514
840.000	497.012	80.004	19.994	103.252	19.716	33.071	0.534
848.000	501.264	80.003	19.995	103.231	19.765	29.363	0.526
856.000	505.496	80.004	19.995	103.231	19.815	25.607	0.548
864.000	509.713	80.006	19.994	103.229	19.861	22.119	0.545
872.000	513.919	80.004	19.995	103.202	19.900	19.196	0.539
880.000	518.124	80.005	19.995	103.210	19.927	17.170	0.523
888.000	522.246	80.007	19.994	103.220	19.954	15.183	0.530
896.000	526.266	80.002	19.993	103.195	19.977	13.429	0.496
904.000	530.328	80.004	19.995	103.201	19.992	12.289	0.523
912.000	534.446	80.004	19.994	103.220	20.003	11.500	0.552
920.000	538.658	80.004	19.994	103.215	20.016	10.516	0.528
928.000	542.881	80.004	19.995	103.188	20.020	10.208	0.514
936.000	547.121	80.005	19.994	103.206	20.031	9.359	0.553
944.000	551.360	80.005	19.994	103.206	20.030	9.431	0.535
952.000	555.533	80.003	19.995	103.191	20.037	8.896	0.539
960.000	559.608	80.003	19.994	103.200	20.038	8.806	0.501
968.000	563.743	80.006	19.994	103.215	20.041	8.622	0.506
976.000	567.908	80.004	19.995	103.211	20.042	8.500	0.507
984.000	572.111	80.005	19.996	103.187	20.046	8.265	0.552
992.000	576.327	80.005	19.995	103.183	20.045	8.288	0.505
1000.000	580.477	80.006	19.993	103.192	20.048	8.048	0.514
1008.000	584.553	80.003	19.995	103.170	20.046	8.208	0.508
1016.000	588.560	80.003	19.995	103.187	20.045	8.287	0.469
1024.000	592.566	80.006	19.994	103.192	20.048	8.111	0.502
1031.999	596.658	80.006	19.994	103.181	20.046	8.272	0.511
1039.999	600.724	80.005	19.994	103.194	20.046	8.246	0.482
1048.000	604.782	80.006	19.994	103.177	20.044	8.394	0.535
1055.999	608.866	80.006	19.995	103.184	20.049	7.983	0.508
1063.999	612.893	80.004	19.994	103.185	20.049	8.025	0.521
1072.001	616.988	80.004	19.996	103.185	20.048	8.120	0.486
1079.999	621.034	80.006	19.995	103.194	20.047	8.126	0.484
1088.000	625.013	80.006	19.996	103.175	20.047	8.153	0.493
1095.999	629.001	80.003	19.995	103.192	20.044	8.365	0.503
1103.999	633.082	80.005	19.995	103.185	20.040	8.663	0.572
1112.000	637.224	80.005	19.994	103.183	20.043	8.456	0.534
1120.000	641.343	80.006	19.994	103.186	20.043	8.462	0.538
1127.999	645.475	80.007	19.994	103.218	20.044	8.387	0.515
1135.999	649.595	80.009	19.993	103.181	20.045	8.288	0.527
1144.000	653.765	80.006	19.995	103.158	20.040	8.685	0.517
1151.999	657.815	80.005	19.995	103.177	20.042	8.512	0.488
1159.999	661.811	80.005	19.995	103.182	20.039	8.744	0.541
1167.999	665.727	80.005	19.995	103.160	20.035	9.089	0.489
1176.000	669.653	80.003	19.995	103.169	20.031	9.337	0.488
1183.999	673.644	80.003	19.995	103.182	20.034	9.112	0.499
1191.999	677.589	80.006	19.994	103.182	20.033	9.202	0.509
1199.999	681.685	80.006	19.995	103.185	20.035	9.079	0.527
1207.999	685.888	80.007	19.994	103.184	20.033	9.226	0.569
1215.999	690.167	80.008	19.994	103.170	20.029	9.498	0.510
1223.999	694.404	80.009	19.994	103.173	20.031	9.351	0.548
1231.999	698.599	80.006	19.995	103.163	20.027	9.689	0.518
1240.000	702.805	80.005	19.995	103.183	20.030	9.444	0.495
1247.999	706.886	80.006	19.995	103.179	20.028	9.608	0.532
1255.999	711.012	80.004	19.994	103.184	20.026	9.776	0.528
1263.999	715.063	80.004	19.996	103.163	20.026	9.734	0.487
1271.999	719.131	80.006	19.997	103.137	20.023	9.980	0.509
1279.999	723.135	80.006	19.995	103.145	20.022	10.012	0.477
1287.999	727.148	80.006	19.994	103.175	20.023	9.974	0.497
1295.999	731.090	80.007	19.995	103.170	20.018	10.349	0.482
1304.000	735.012	80.006	19.994	103.183	20.016	10.479	0.473
1311.999	738.960	80.005	19.993	103.157	20.013	10.713	0.485
1320.001	742.865	80.005	19.994	103.154	20.009	11.007	0.493
1321.999	743.892	80.004	19.993	103.156	20.015	10.537	0.528