Folder: fsri_materials_database/01_Data/PVC_Pipe/MCC

Note: 01_Data/README.md
# Materials and Products Database
## 01_Data

Raw data generated from each apparatus are included here in plain-text format. The data is organized first by material, next by the short name of test apparatus used, and where applicable additional filtering by test settings.

### material.json

Each material directory contains a json file of the same name as the material. This file links the data stored in the repository as well as data and graphs produced by the accompanying scripts (__02_Scripts__) to the respective landing page for the material on the front-end website.

File: PVC_Pipe_MCC_30K_min_211118_R1.txt
Sample ID:	C:\MCC\MCC Cal\Test\PVC_Pipe_MCC_30K_min_211118_R1.txt
Sample Weight (mg):	4.46
Heating Rate (C/s):	0.5
Combustor Temp (C):	900
N2 Flow Rate (cc/min):	80
O2 Flow Rate (cc/min):	20
Calibration File:	C:\MCC\MCC Cal\Coeff1 JN10440_30_210304.txt.txt
T Correction Coefficients:	0	1.024463	0
Time Shift (s):	14
*
Time (s)	Temperature (C)	N2 flow rate (cc/min)	O2 flow rate (cc/min)	Flow Rate (cc/min)	Oxygen (%)	HRR (W/g)	Heating rate (C/s)
-0.001	110.025	80.005	19.995	103.071	19.911	-0.307	0.020
8.000	109.933	80.003	19.996	103.073	19.911	-0.330	0.011
16.000	109.895	80.004	19.994	103.070	19.909	-0.136	-0.043
24.000	109.891	80.006	19.994	103.066	19.909	-0.152	-0.023
32.000	109.861	80.007	19.995	103.127	19.902	0.374	-0.024
39.999	110.095	80.005	19.994	103.220	19.886	1.514	0.033
48.000	110.816	80.002	19.995	103.231	19.879	2.013	0.149
56.000	111.924	80.005	19.994	103.244	19.877	2.164	0.155
64.000	113.289	80.005	19.994	103.301	19.874	2.400	0.197
72.001	115.078	80.003	19.995	103.306	19.866	2.941	0.204
79.999	117.332	80.004	19.995	103.328	19.866	2.956	0.299
88.001	119.821	80.004	19.995	103.329	19.866	2.966	0.308
96.000	122.622	80.003	19.994	103.323	19.864	3.114	0.371
103.999	125.604	80.003	19.995	103.310	19.864	3.093	0.369
111.999	128.734	80.007	19.994	103.331	19.861	3.276	0.434
119.999	132.002	80.004	19.994	103.336	19.862	3.266	0.414
127.999	135.406	80.001	19.994	103.338	19.860	3.392	0.406
136.000	138.989	80.003	19.994	103.338	19.862	3.207	0.448
144.000	142.705	80.005	19.994	103.339	19.863	3.199	0.486
152.000	146.409	80.004	19.996	103.330	19.862	3.222	0.437
160.000	150.318	80.004	19.995	103.329	19.861	3.284	0.473
168.000	154.222	80.004	19.995	103.330	19.862	3.240	0.507
176.000	158.122	80.004	19.995	103.315	19.865	3.029	0.487
184.000	162.086	80.006	19.995	103.325	19.865	3.031	0.458
192.000	166.133	80.005	19.996	103.308	19.864	3.125	0.497
200.000	170.220	80.004	19.995	103.307	19.865	3.049	0.514
208.000	174.245	80.003	19.994	103.305	19.862	3.214	0.485
216.000	178.290	80.005	19.995	103.293	19.863	3.152	0.519
224.000	182.312	80.004	19.995	103.295	19.863	3.200	0.511
232.000	186.336	80.004	19.995	103.288	19.865	3.010	0.507
240.000	190.359	80.004	19.995	103.277	19.864	3.124	0.533
248.000	194.303	80.005	19.997	103.275	19.864	3.093	0.486
256.000	198.247	80.002	19.996	103.270	19.863	3.144	0.501
264.000	202.102	80.002	19.996	103.267	19.863	3.163	0.482
272.000	206.035	80.006	19.995	103.265	19.863	3.136	0.470
280.000	209.939	80.005	19.994	103.260	19.861	3.335	0.461
288.000	213.886	80.001	19.996	103.259	19.857	3.624	0.540
296.000	217.714	80.003	19.995	103.258	19.848	4.261	0.470
304.000	221.616	80.004	19.995	103.259	19.840	4.794	0.514
312.000	225.501	80.003	19.995	103.259	19.831	5.444	0.482
320.000	229.475	80.000	19.995	103.263	19.820	6.297	0.503
328.000	233.446	80.004	19.995	103.260	19.821	6.213	0.494
336.000	237.428	80.004	19.995	103.260	19.838	4.978	0.495
344.000	241.455	80.004	19.994	103.264	19.843	4.641	0.511
352.000	245.456	80.004	19.995	103.258	19.840	4.824	0.503
360.000	249.486	80.007	19.995	103.243	19.835	5.161	0.527
368.000	253.527	80.005	19.996	103.251	19.827	5.779	0.482
376.000	257.531	80.003	19.996	103.254	19.823	6.061	0.512
384.000	261.552	80.002	19.996	103.235	19.817	6.501	0.494
392.000	265.546	80.003	19.995	103.246	19.809	7.055	0.484
400.000	269.543	80.002	19.994	103.250	19.805	7.373	0.488
408.000	273.601	80.003	19.995	103.263	19.801	7.626	0.523
416.000	277.566	80.003	19.995	103.268	19.802	7.573	0.521
424.000	281.554	80.003	19.996	103.294	19.797	7.909	0.504
432.000	285.565	80.006	19.994	103.332	19.784	8.920	0.525
440.000	289.500	80.006	19.994	103.413	19.757	10.857	0.514
448.000	293.458	80.003	19.995	103.607	19.710	14.273	0.462
456.000	297.412	80.002	19.995	103.648	19.666	17.329	0.495
464.000	301.323	80.002	19.996	103.164	19.654	18.241	0.482
472.000	305.233	80.003	19.995	102.958	19.685	16.017	0.507
480.000	309.283	80.004	19.996	103.165	19.715	13.852	0.526
488.000	313.259	80.004	19.995	103.229	19.735	12.401	0.494
496.000	317.274	80.006	19.994	103.243	19.746	11.645	0.508
504.000	321.175	80.004	19.995	103.228	19.758	10.743	0.495
512.000	325.113	80.005	19.994	103.218	19.772	9.698	0.480
520.000	329.091	80.007	19.994	103.215	19.789	8.523	0.525
528.000	333.055	80.004	19.994	103.193	19.801	7.624	0.505
536.000	337.088	80.004	19.995	103.204	19.812	6.832	0.525
544.000	341.130	80.004	19.996	103.182	19.819	6.338	0.528
552.000	345.148	80.004	19.996	103.181	19.835	5.159	0.502
560.000	349.286	80.003	19.996	103.179	19.839	4.921	0.619
568.000	353.310	80.003	19.996	103.181	19.842	4.667	0.579
576.000	357.363	80.004	19.994	103.183	19.839	4.873	0.469
584.000	361.598	80.003	19.994	103.219	19.840	4.821	0.530
592.000	365.734	80.003	19.995	103.228	19.840	4.793	0.536
600.000	369.856	80.006	19.994	103.261	19.841	4.789	0.542
608.000	373.998	80.005	19.996	103.259	19.838	4.976	0.532
616.000	378.085	80.003	19.995	103.271	19.832	5.417	0.502
624.000	382.222	80.004	19.994	103.269	19.824	6.013	0.516
632.000	386.231	80.004	19.993	103.273	19.819	6.348	0.502
640.000	390.328	80.002	19.995	103.286	19.801	7.659	0.525
648.000	394.515	80.002	19.993	103.270	19.783	8.912	0.522
656.000	398.582	80.004	19.995	103.268	19.760	10.582	0.538
664.000	402.624	80.004	19.995	103.264	19.730	12.780	0.494
672.000	406.660	80.004	19.996	103.267	19.695	15.337	0.527
680.000	410.669	80.005	19.993	103.264	19.645	18.896	0.492
688.000	414.680	80.004	19.994	103.261	19.590	22.897	0.508
696.000	418.735	80.003	19.995	103.265	19.523	27.765	0.490
704.000	422.882	80.003	19.995	103.272	19.451	32.900	0.484
712.000	427.193	80.003	19.995	103.273	19.371	38.711	0.576
720.000	431.363	80.004	19.994	103.265	19.290	44.538	0.504
728.000	435.623	80.002	19.996	103.266	19.221	49.524	0.502
736.000	439.806	80.004	19.995	103.262	19.174	52.975	0.516
744.000	443.990	80.005	19.995	103.268	19.140	55.416	0.496
752.000	448.126	80.003	19.995	103.284	19.029	63.359	0.501
760.000	452.129	80.003	19.996	103.235	18.907	72.198	0.498
768.000	456.220	80.006	19.995	103.263	18.882	74.066	0.524
776.000	460.287	80.003	19.995	103.258	18.916	71.581	0.494
784.000	464.437	80.004	19.994	103.263	19.007	65.005	0.506
792.000	468.600	80.003	19.995	103.266	19.103	58.085	0.546
800.000	472.664	80.003	19.995	103.277	19.187	51.996	0.493
808.000	476.827	80.004	19.995	103.230	19.225	49.269	0.503
816.000	480.871	80.005	19.994	103.240	19.269	46.097	0.505
824.000	484.950	80.004	19.995	103.245	19.311	43.047	0.493
832.000	488.971	80.004	19.995	103.223	19.349	40.316	0.520
840.000	492.972	80.005	19.995	103.232	19.419	35.215	0.507
848.000	496.949	80.006	19.996	103.227	19.480	30.827	0.492
856.000	500.840	80.002	19.997	103.223	19.536	26.773	0.525
864.000	504.705	80.002	19.995	103.225	19.590	22.902	0.491
872.000	508.641	80.004	19.995	103.229	19.637	19.495	0.474
880.000	512.608	80.004	19.995	103.224	19.678	16.514	0.475
888.000	516.749	80.004	19.993	103.221	19.716	13.773	0.523
896.000	520.863	80.004	19.995	103.222	19.745	11.651	0.513
904.000	524.993	80.006	19.995	103.222	19.769	9.987	0.506
912.000	529.108	80.004	19.994	103.217	19.792	8.272	0.510
920.000	533.206	80.004	19.996	103.222	19.808	7.155	0.519
928.000	537.353	80.006	19.995	103.212	19.823	6.062	0.517
936.000	541.566	80.005	19.995	103.217	19.834	5.273	0.532
944.000	545.769	80.003	19.995	103.213	19.844	4.540	0.542
952.000	550.013	80.004	19.995	103.188	19.849	4.155	0.559
960.000	554.193	80.005	19.997	103.195	19.854	3.801	0.531
968.000	558.324	80.004	19.996	103.207	19.859	3.471	0.532
976.000	562.508	80.004	19.996	103.196	19.865	3.034	0.556
984.000	566.571	80.006	19.993	103.197	19.870	2.671	0.525
992.000	570.643	80.004	19.994	103.192	19.868	2.815	0.499
1000.000	574.720	80.005	19.995	103.205	19.874	2.390	0.529
1008.000	578.800	80.007	19.996	103.182	19.880	1.927	0.527
1016.000	582.846	80.006	19.996	103.185	19.875	2.299	0.511
1024.000	586.780	80.005	19.996	103.192	19.883	1.752	0.497
1031.999	590.717	80.003	19.997	103.194	19.882	1.789	0.465
1039.999	594.788	80.003	19.996	103.190	19.883	1.734	0.525
1047.999	598.768	80.003	19.995	103.199	19.879	2.014	0.512
1055.999	602.774	80.003	19.995	103.199	19.883	1.750	0.476
1063.999	606.882	80.005	19.996	103.200	19.884	1.636	0.540
1071.999	610.998	80.006	19.994	103.181	19.881	1.848	0.529
1080.000	615.125	80.004	19.995	103.183	19.882	1.797	0.551
1088.000	619.258	80.006	19.996	103.184	19.880	1.915	0.535
1095.999	623.394	80.005	19.993	103.189	19.886	1.468	0.543
1103.999	627.561	80.004	19.996	103.205	19.881	1.882	0.541
1111.999	631.686	80.004	19.995	103.194	19.885	1.573	0.494
1119.999	635.767	80.004	19.995	103.195	19.890	1.222	0.490
1127.999	639.865	80.003	19.995	103.185	19.888	1.342	0.477
1136.000	643.933	80.002	19.997	103.182	19.884	1.644	0.479
1144.000	647.979	80.005	19.994	103.182	19.890	1.189	0.500
1151.999	652.006	80.008	19.995	103.183	19.888	1.350	0.553
1159.999	656.073	80.006	19.996	103.186	19.891	1.120	0.521
1167.999	660.094	80.005	19.996	103.186	19.891	1.126	0.500
1175.999	664.155	80.007	19.994	103.185	19.890	1.238	0.508
1183.999	668.158	80.004	19.992	103.191	19.893	0.978	0.498
1192.000	672.220	80.005	19.996	103.183	19.893	0.966	0.496
1199.999	676.374	80.003	19.997	103.182	19.891	1.110	0.501
1207.999	680.398	80.004	19.997	103.179	19.892	1.051	0.505
1215.999	684.426	80.004	19.996	103.183	19.894	0.903	0.499
1224.001	688.484	80.003	19.996	103.182	19.890	1.199	0.501
1232.000	692.512	80.005	19.995	103.183	19.891	1.149	0.489
1240.000	696.608	80.004	19.996	103.183	19.892	1.041	0.545
1248.000	700.698	80.004	19.996	103.185	19.891	1.110	0.528
1256.001	704.724	80.007	19.995	103.184	19.892	1.041	0.498
1264.000	708.663	80.006	19.996	103.180	19.890	1.189	0.515
1272.000	712.603	80.004	19.995	103.182	19.894	0.909	0.482
1280.000	716.517	80.005	19.994	103.180	19.893	1.002	0.497
1288.000	720.430	80.004	19.996	103.180	19.888	1.368	0.484
1296.000	724.420	80.004	19.996	103.176	19.889	1.305	0.496
1304.000	728.410	80.004	19.997	103.181	19.890	1.224	0.481
1312.000	732.441	80.006	19.995	103.185	19.888	1.364	0.502
1320.000	736.581	80.006	19.995	103.184	19.889	1.311	0.500
1328.000	740.662	80.006	19.996	103.179	19.887	1.441	0.515
1333.500	743.539	80.006	19.993	103.179	19.886	1.494	0.526

File: PVC_Pipe_MCC_30K_min_211118_R2.txt
Sample ID:	C:\MCC\MCC Cal\Test\PVC_Pipe_MCC_30K_min_211118_R2.txt
Sample Weight (mg):	4.51
Heating Rate (C/s):	0.5
Combustor Temp (C):	900
N2 Flow Rate (cc/min):	80
O2 Flow Rate (cc/min):	20
Calibration File:	C:\MCC\MCC Cal\Coeff1 JN10440_30_210304.txt.txt
T Correction Coefficients:	0	1.024463	0
Time Shift (s):	14
*
Time (s)	Temperature (C)	N2 flow rate (cc/min)	O2 flow rate (cc/min)	Flow Rate (cc/min)	Oxygen (%)	HRR (W/g)	Heating rate (C/s)
0.000	110.110	80.006	19.995	103.065	19.964	-0.097	0.007
8.000	110.090	80.003	19.996	103.077	19.966	-0.241	-0.023
16.000	110.062	80.006	19.994	103.102	19.960	0.158	-0.016
24.000	110.081	80.005	19.994	103.106	19.956	0.485	-0.015
32.001	110.366	80.003	19.995	103.222	19.943	1.424	0.059
40.000	111.051	80.003	19.995	103.253	19.931	2.270	0.084
48.000	112.188	80.005	19.994	103.288	19.929	2.411	0.162
56.000	113.764	80.005	19.996	103.287	19.927	2.570	0.229
64.000	115.661	80.005	19.994	103.298	19.925	2.701	0.270
72.001	117.853	80.004	19.994	103.298	19.924	2.781	0.282
80.000	120.265	80.006	19.994	103.328	19.923	2.789	0.338
88.000	123.018	80.005	19.995	103.319	19.922	2.887	0.363
96.000	125.892	80.005	19.995	103.322	19.922	2.923	0.385
104.001	128.990	80.007	19.994	103.314	19.919	3.072	0.410
112.001	132.225	80.007	19.995	103.330	19.920	3.039	0.409
120.001	135.584	80.004	19.995	103.329	19.915	3.361	0.431
128.000	139.080	80.003	19.996	103.333	19.917	3.258	0.466
136.000	142.715	80.003	19.994	103.337	19.921	2.961	0.456
144.000	146.507	80.004	19.995	103.340	19.918	3.183	0.473
152.000	150.378	80.003	19.995	103.340	19.916	3.312	0.490
160.000	154.288	80.006	19.996	103.336	19.920	3.053	0.497
168.000	158.279	80.006	19.994	103.323	19.918	3.173	0.497
176.000	162.315	80.007	19.994	103.309	19.917	3.229	0.524
184.000	166.424	80.006	19.995	103.310	19.919	3.128	0.515
192.000	170.506	80.006	19.996	103.294	19.918	3.153	0.497
200.001	174.531	80.003	19.995	103.299	19.923	2.845	0.508
208.000	178.570	80.004	19.995	103.294	19.921	2.960	0.491
216.000	182.627	80.003	19.995	103.290	19.921	2.949	0.492
224.000	186.584	80.002	19.996	103.268	19.925	2.654	0.469
232.000	190.619	80.004	19.995	103.308	19.922	2.905	0.503
240.000	194.560	80.004	19.995	103.273	19.922	2.889	0.498
248.000	198.492	80.005	19.995	103.259	19.919	3.134	0.517
256.000	202.393	80.005	19.995	103.260	19.919	3.132	0.479
264.000	206.312	80.005	19.994	103.278	19.918	3.171	0.480
272.000	210.297	80.007	19.995	103.260	19.914	3.463	0.506
280.000	214.268	80.004	19.995	103.259	19.908	3.907	0.498
288.000	218.174	80.004	19.995	103.261	19.902	4.320	0.491
296.000	222.086	80.004	19.994	103.254	19.896	4.739	0.484
304.000	225.994	80.003	19.995	103.245	19.891	5.095	0.471
312.000	229.899	80.002	19.997	103.247	19.885	5.548	0.475
320.000	233.783	80.005	19.996	103.245	19.886	5.430	0.502
328.000	237.640	80.006	19.995	103.243	19.892	5.041	0.463
336.000	241.548	80.004	19.994	103.244	19.893	4.945	0.493
344.000	245.455	80.005	19.995	103.232	19.888	5.312	0.498
352.001	249.408	80.007	19.995	103.248	19.888	5.350	0.513
360.001	253.389	80.004	19.994	103.251	19.882	5.759	0.508
368.000	257.379	80.005	19.994	103.235	19.873	6.383	0.479
376.000	261.420	80.005	19.994	103.241	19.869	6.706	0.490
384.000	265.445	80.004	19.996	103.246	19.861	7.242	0.505
392.000	269.513	80.002	19.995	103.244	19.861	7.272	0.536
400.000	273.554	80.004	19.994	103.260	19.858	7.437	0.503
408.000	277.563	80.005	19.998	103.269	19.857	7.509	0.480
416.000	281.626	80.004	19.995	103.316	19.852	7.916	0.479
424.000	285.724	80.004	19.994	103.351	19.832	9.333	0.493
432.000	289.750	80.007	19.995	103.493	19.802	11.518	0.532
440.000	293.733	80.006	19.995	103.590	19.761	14.434	0.523
448.000	297.715	80.004	19.994	103.446	19.731	16.490	0.514
456.000	301.685	80.004	19.994	103.137	19.732	16.466	0.513
464.000	305.711	80.004	19.994	103.065	19.750	15.158	0.528
472.000	309.751	80.004	19.995	103.185	19.773	13.508	0.481
480.000	313.864	80.002	19.995	103.260	19.784	12.752	0.525
488.000	317.986	80.006	19.994	103.258	19.796	11.897	0.519
496.000	322.078	80.003	19.996	103.237	19.808	11.027	0.514
504.000	326.170	80.004	19.995	103.242	19.818	10.308	0.506
512.000	330.269	80.007	19.995	103.211	19.835	9.122	0.525
520.000	334.307	80.005	19.993	103.200	19.842	8.579	0.478
528.000	338.337	80.005	19.995	103.223	19.848	8.192	0.504
536.000	342.336	80.004	19.995	103.255	19.860	7.339	0.492
544.000	346.317	80.003	19.994	103.280	19.864	7.051	0.506
552.001	350.357	80.005	19.994	103.302	19.869	6.652	0.509
560.000	354.362	80.004	19.995	103.302	19.871	6.526	0.525
568.000	358.381	80.006	19.994	103.317	19.873	6.382	0.526
576.000	362.385	80.006	19.993	103.319	19.876	6.150	0.518
584.001	366.340	80.005	19.995	103.336	19.877	6.123	0.488
592.000	370.305	80.005	19.997	103.338	19.875	6.240	0.482
600.000	374.399	80.005	19.996	103.337	19.871	6.554	0.553
608.000	378.370	80.005	19.995	103.341	19.870	6.606	0.449
616.000	382.623	80.005	19.996	103.338	19.858	7.483	0.691
624.000	386.267	80.005	19.994	103.325	19.851	7.942	0.439
632.000	390.344	80.005	19.995	103.338	19.838	8.868	0.477
640.000	394.377	80.006	19.995	103.307	19.820	10.168	0.494
648.000	398.375	80.005	19.996	103.302	19.796	11.898	0.487
656.000	402.456	80.007	19.994	103.297	19.767	13.978	0.521
664.000	406.419	80.006	19.995	103.298	19.726	16.911	0.523
672.000	410.434	80.007	19.994	103.293	19.678	20.306	0.526
680.000	414.501	80.007	19.995	103.289	19.620	24.452	0.508
688.000	418.460	80.004	19.996	103.284	19.552	29.348	0.481
696.000	422.527	80.004	19.996	103.283	19.482	34.298	0.513
704.000	426.598	80.005	19.995	103.269	19.404	39.885	0.525
712.000	430.653	80.005	19.995	103.262	19.321	45.827	0.504
720.000	434.791	80.004	19.995	103.263	19.254	50.606	0.539
728.000	438.901	80.006	19.995	103.278	19.204	54.183	0.540
736.001	442.922	80.007	19.995	103.255	19.173	56.381	0.517
744.000	446.881	80.005	19.995	103.300	19.133	59.251	0.460
752.000	450.912	80.004	19.996	103.260	19.059	64.502	0.540
760.000	455.080	80.007	19.994	103.249	19.005	68.367	0.523
768.000	459.384	80.005	19.994	103.272	19.033	66.366	0.543
776.000	463.803	80.003	19.996	103.270	19.087	62.559	0.550
784.000	468.241	80.004	19.997	103.232	19.168	56.725	0.574
792.000	472.574	80.005	19.994	103.271	19.206	54.012	0.515
800.000	477.001	80.004	19.994	103.224	19.260	50.191	0.534
808.000	481.248	80.005	19.996	103.233	19.301	47.264	0.530
816.000	485.493	80.007	19.994	103.236	19.340	44.472	0.493
824.000	489.745	80.005	19.995	103.228	19.386	41.167	0.537
832.000	493.918	80.008	19.994	103.230	19.440	37.321	0.509
840.000	498.037	80.009	19.996	103.214	19.498	33.180	0.535
848.000	502.025	80.008	19.996	103.219	19.560	28.785	0.503
856.000	505.964	80.006	19.995	103.213	19.618	24.593	0.498
864.000	509.947	80.005	19.995	103.208	19.676	20.432	0.514
872.000	513.923	80.005	19.995	103.200	19.723	17.068	0.490
880.000	518.036	80.005	19.995	103.186	19.764	14.154	0.521
888.000	522.147	80.005	19.995	103.209	19.802	11.444	0.528
896.000	526.299	80.006	19.995	103.200	19.824	9.865	0.510
904.000	530.430	80.006	19.995	103.193	19.844	8.466	0.503
912.000	534.694	80.007	19.994	103.206	19.865	6.977	0.530
920.000	538.928	80.007	19.994	103.188	19.879	5.990	0.531
928.000	543.110	80.008	19.994	103.189	19.888	5.319	0.506
936.000	547.238	80.004	19.995	103.188	19.898	4.574	0.540
944.000	551.411	80.006	19.996	103.188	19.907	3.949	0.515
952.000	555.628	80.006	19.996	103.181	19.909	3.790	0.514
960.000	559.746	80.004	19.996	103.177	19.915	3.371	0.513
968.000	563.858	80.005	19.996	103.183	19.920	3.037	0.501
976.000	567.970	80.007	19.995	103.183	19.921	2.963	0.518
984.000	572.052	80.006	19.994	103.194	19.928	2.455	0.495
992.000	576.221	80.006	19.995	103.185	19.926	2.624	0.502
1000.000	580.323	80.006	19.994	103.183	19.926	2.626	0.510
1008.000	584.331	80.007	19.994	103.176	19.933	2.092	0.514
1016.000	588.418	80.006	19.995	103.182	19.932	2.161	0.500
1024.000	592.500	80.006	19.995	103.174	19.935	1.995	0.517
1032.001	596.569	80.006	19.996	103.178	19.934	2.061	0.503
1040.000	600.658	80.005	19.995	103.167	19.934	2.065	0.524
1048.001	604.706	80.005	19.995	103.185	19.935	1.929	0.517
1056.000	608.702	80.005	19.996	103.170	19.938	1.728	0.493
1064.000	612.746	80.006	19.995	103.170	19.936	1.917	0.516
1072.001	616.843	80.006	19.996	103.171	19.935	1.952	0.502
1080.001	620.857	80.007	19.995	103.151	19.940	1.573	0.479
1088.001	624.905	80.008	19.995	103.171	19.941	1.528	0.476
1096.000	628.988	80.005	19.996	103.148	19.940	1.574	0.517
1104.000	633.044	80.006	19.994	103.185	19.940	1.610	0.489
1112.000	637.134	80.006	19.994	103.166	19.941	1.538	0.522
1120.000	641.154	80.006	19.995	103.172	19.941	1.530	0.507
1128.000	645.140	80.003	19.995	103.152	19.938	1.726	0.473
1136.001	649.134	80.006	19.996	103.181	19.940	1.590	0.498
1144.000	653.040	80.006	19.996	103.143	19.943	1.380	0.478
1152.001	657.104	80.005	19.995	103.158	19.942	1.481	0.517
1160.001	660.862	80.006	19.996	103.156	19.942	1.432	0.448
1168.000	664.813	80.009	19.996	103.156	19.941	1.549	0.487
1176.000	668.823	80.005	19.994	103.153	19.941	1.514	0.466
1184.000	672.881	80.004	19.995	103.161	19.947	1.109	0.505
1192.000	677.039	80.005	19.995	103.155	19.942	1.489	0.515
1200.001	681.114	80.005	19.994	103.166	19.942	1.452	0.523
1208.000	685.212	80.005	19.995	103.168	19.946	1.189	0.533
1216.000	689.336	80.005	19.995	103.144	19.945	1.263	0.519
1224.000	693.391	80.005	19.996	103.154	19.948	1.031	0.511
1232.000	697.470	80.006	19.994	103.143	19.951	0.833	0.505
1240.000	701.488	80.005	19.995	103.155	19.949	0.992	0.511
1248.000	705.428	80.005	19.996	103.147	19.949	0.955	0.490
1256.000	709.441	80.005	19.995	103.146	19.953	0.650	0.496
1264.000	713.486	80.002	19.994	103.148	19.950	0.866	0.529
1272.000	717.695	80.004	19.995	103.148	19.952	0.757	0.538
1280.000	721.896	80.006	19.994	103.142	19.951	0.841	0.510
1288.000	726.006	80.005	19.994	103.145	19.951	0.788	0.495
1296.000	730.184	80.005	19.995	103.143	19.952	0.761	0.552
1304.000	734.376	80.005	19.995	103.150	19.946	1.181	0.524
1312.000	738.581	80.005	19.996	103.141	19.950	0.899	0.514
1320.000	742.692	80.006	19.995	103.154	19.947	1.119	0.523
1321.500	743.492	80.005	19.995	103.150	19.950	0.891	0.529