Folder: fsri_materials_database/01_Data/Excelsior/STA/N2/10K_min

Note: 01_Data/README.md
# Materials and Products Database
## 01_Data

Raw data generated from each apparatus are included here in plain-text format. The data is organized first by material, next by the short name of test apparatus used, and where applicable additional filtering by test settings.

### material.json

Each material directory contains a json file of the same name as the material. This file links the data stored in the repository as well as data and graphs produced by the accompanying scripts (__02_Scripts__) to the respective landing page for the material on the front-end website.

File: Excelsior_STA_N2_10KData_2269_R1.csv
##Temp./Â°C,Time/min,Mass loss(subtr.2)/mg,DSC(subtr.2)/(mW/mg),Sensit./(uV/mW)
50.321,10.00917,-0.00395,0.007393106,1.02683
53.421,11.46729,-0.005004916,0.08679244,1.02656
56.521,11.98607,-0.00625712,0.1289,1.02628
59.621,12.42645,-0.006143415,0.15433,1.026
62.721,12.83127,-0.00679306,0.17438,1.02572
65.821,13.2145,-0.006945405,0.1896,1.02542
68.921,13.58332,-0.009346475,0.20446,1.02512
72.021,13.94134,-0.00860152,0.22255,1.02482
75.121,14.2887,-0.01127145,0.23157,1.02451
78.221,14.63015,-0.01230559,0.2406,1.02419
81.321,14.9653,-0.01492857,0.24683,1.02386
84.421,15.2944,-0.01622243,0.25373,1.02353
87.521,15.6189,-0.01757024,0.2528,1.02319
90.621,15.9382,-0.01888016,0.25047,1.02284
93.721,16.25402,-0.02150716,0.24795,1.02248
96.821,16.56632,-0.02128969,0.24132,1.02212
99.921,16.87582,-0.02147199,0.23401,1.02175
103.021,17.1828,-0.02282984,0.22825,1.02137
106.121,17.48982,-0.0228387,0.22266,1.02098
109.221,17.79375,-0.02315934,0.21781,1.02059
112.321,18.09939,-0.02415614,0.21653,1.02019
115.421,18.40267,-0.02282949,0.21507,1.01978
118.521,18.70549,-0.02416195,0.2161,1.01936
121.621,19.00704,-0.02349001,0.21692,1.01893
124.721,19.30844,-0.02284069,0.2169,1.0185
127.821,19.60908,-0.02348905,0.21588,1.01805
130.921,19.90885,-0.0241502,0.21894,1.0176
134.021,20.20806,-0.0241499,0.218,1.01714
137.121,20.50649,-0.02414999,0.21774,1.01667
140.221,20.80453,-0.02414822,0.21981,1.01618
143.321,21.10165,-0.0241493,0.22251,1.01569
146.421,21.39771,-0.02415,0.22809,1.01519
149.521,21.69294,-0.02518484,0.22638,1.01469
152.621,21.9891,-0.02415011,0.22961,1.01417
155.721,22.28414,-0.02417403,0.23048,1.01364
158.821,22.57933,-0.02513994,0.2336,1.0131
161.921,22.87461,-0.02678986,0.23441,1.01255
165.021,23.16933,-0.02745049,0.23592,1.01199
168.121,23.465,-0.02645214,0.23597,1.01142
171.221,23.76066,-0.0285394,0.23921,1.01084
174.321,24.0552,-0.02612622,0.24284,1.01025
177.421,24.35148,-0.02745663,0.24248,1.00965
180.521,24.64578,-0.02875814,0.24581,1.00903
183.621,24.9408,-0.02876801,0.24463,1.00841
186.721,25.23546,-0.02877517,0.24817,1.00777
189.821,25.52995,-0.02875719,0.24903,1.00713
192.921,25.82412,-0.02875996,0.2508,1.00647
196.021,26.11822,-0.03007996,0.25147,1.0058
199.121,26.4126,-0.03010582,0.25389,1.00512
202.221,26.70699,-0.0327117,0.25473,1.00442
205.321,27.0006,-0.03271,0.2572,1.00372
208.421,27.29515,-0.03534326,0.25864,1.003
211.521,27.58908,-0.03600459,0.25942,1.00227
214.621,27.88275,-0.03644989,0.26448,1.00153
217.721,28.1771,-0.0405334,0.26624,1.00077
220.821,28.47055,-0.04325999,0.27119,1.0
223.921,28.7656,-0.04588944,0.27414,0.99922
227.021,29.05977,-0.04952257,0.27945,0.99843
230.121,29.3543,-0.05378952,0.28266,0.99762
233.221,29.64886,-0.05784738,0.29187,0.9968
236.321,29.9438,-0.06442556,0.29988,0.99597
239.421,30.2385,-0.06971665,0.3067,0.99512
242.521,30.5333,-0.07993441,0.3135,0.99427
245.621,30.8285,-0.09023558,0.30435,0.99339
248.721,31.12525,-0.0978155,0.29822,0.9925
251.821,31.421,-0.11147,0.29931,0.9916
254.921,31.71578,-0.12574,0.30408,0.99069
258.021,32.01141,-0.14036,0.31062,0.98976
261.121,32.30672,-0.15709,0.31486,0.98881
264.221,32.60164,-0.17558,0.32229,0.98786
267.321,32.89697,-0.19946,0.32831,0.98688
270.421,33.19245,-0.2263,0.33396,0.9859
273.521,33.48823,-0.25608,0.33692,0.98489
276.621,33.78382,-0.29066,0.33703,0.98388
279.721,34.07965,-0.32822,0.33772,0.98284
282.821,34.37542,-0.37,0.33317,0.9818
285.921,34.6713,-0.41565,0.33242,0.98073
289.021,34.96719,-0.46457,0.32882,0.97966
292.121,35.2633,-0.51577,0.32258,0.97856
295.221,35.55972,-0.56844,0.31897,0.97746
298.321,35.85523,-0.62434,0.31482,0.97633
301.421,36.152,-0.67928,0.30644,0.97519
304.521,36.44905,-0.73815,0.29755,0.97404
307.621,36.74586,-0.79714,0.28559,0.97286
310.721,37.04355,-0.85826,0.28479,0.97168
313.821,37.34093,-0.92344,0.29758,0.97047
316.921,37.63818,-0.98698,0.31477,0.96925
320.021,37.93616,-1.05201,0.33165,0.96802
323.121,38.2341,-1.11906,0.34789,0.96676
326.221,38.53239,-1.1889,0.37024,0.96549
329.321,38.83097,-1.2601,0.39276,0.96421
332.421,39.12963,-1.33428,0.41555,0.96291
335.521,39.4285,-1.41161,0.44435,0.96159
338.621,39.72801,-1.49665,0.47662,0.96025
341.721,40.02765,-1.58516,0.50931,0.9589
344.821,40.32745,-1.68237,0.54215,0.95753
347.921,40.62699,-1.78388,0.57543,0.95614
351.021,40.92695,-1.89529,0.61099,0.95474
354.121,41.2283,-2.01399,0.6409,0.95332
357.221,41.5291,-2.14085,0.66473,0.95188
360.321,41.82995,-2.27252,0.67548,0.95042
363.421,42.13041,-2.40621,0.6598,0.94895
366.521,42.43128,-2.53525,0.61515,0.94746
369.621,42.73218,-2.65633,0.53336,0.94595
372.721,43.03264,-2.75611,0.41938,0.94442
375.821,43.33259,-2.8341,0.27988,0.94288
378.921,43.63272,-2.88661,0.15902,0.94132
382.021,43.93335,-2.91746,0.0849421,0.93974
385.121,44.23328,-2.93309,0.05585125,0.93814
388.221,44.53304,-2.94763,0.03977657,0.93653
391.321,44.83399,-2.95643,0.02445443,0.9349
394.421,45.13626,-2.96589,0.01075576,0.93324
397.521,45.43815,-2.97287,-0.002369369,0.93158
400.621,45.7404,-2.98112,-0.009257458,0.92989
403.721,46.04293,-2.98938,-0.01674424,0.92818
406.821,46.346,-2.99989,-0.02075305,0.92646
409.921,46.64853,-3.00686,-0.01894725,0.92472
413.021,46.95058,-3.01331,-0.0003454958,0.92296
416.121,47.25269,-3.02113,0.00697835,0.92118
419.221,47.5554,-3.02938,0.01638158,0.91939
422.321,47.85778,-3.03604,0.0275173,0.91757
425.421,48.16127,-3.04117,0.03438776,0.91574
428.521,48.4641,-3.04786,0.04569864,0.91389
431.621,48.76722,-3.05358,0.0549936,0.91202
434.721,49.07,-3.05967,0.06173452,0.91013
437.821,49.37359,-3.06616,0.06600127,0.90823
440.921,49.67791,-3.0713,0.06331896,0.9063
444.021,49.98142,-3.07393,0.06308039,0.90436
447.121,50.28535,-3.08195,0.0590566,0.9024
450.221,50.5895,-3.08659,0.05100285,0.90042
453.321,50.89353,-3.09141,0.04651268,0.89842
456.421,51.19774,-3.09412,0.03927525,0.89641
459.521,51.50221,-3.09808,0.02821719,0.89437
462.621,51.8067,-3.10136,0.01866069,0.89232
465.721,52.11118,-3.10664,0.01591365,0.89025
468.821,52.41617,-3.11062,0.0134289,0.88816
471.921,52.72067,-3.11191,0.0148565,0.88605
475.021,53.02615,-3.11587,0.01395131,0.88393
478.121,53.3317,-3.12032,0.01033037,0.88178
481.221,53.63745,-3.1209,0.00208201,0.87962
484.321,53.943,-3.12739,-0.0001226966,0.87744
487.421,54.24808,-3.12896,-0.001190022,0.87524
490.521,54.5541,-3.13233,-0.002749008,0.87302
493.621,54.86079,-3.13398,-0.00167602,0.87079
496.721,55.1661,-3.13711,0.000398246,0.86854
499.821,55.4723,-3.14056,-0.0011561,0.86626
502.921,55.7783,-3.14254,-0.001113777,0.86397
506.021,56.0848,-3.1466,-0.000223093,0.86167
509.121,56.39201,-3.14856,0.001509519,0.85934
512.221,56.69859,-3.15088,0.002427941,0.857
515.321,57.00623,-3.1538,0.00518569,0.85464
518.421,57.3133,-3.15615,0.004904552,0.85226
521.521,57.6205,-3.15911,0.01117537,0.84986
524.621,57.92751,-3.16259,0.01385896,0.84745
527.721,58.23474,-3.16374,0.01812975,0.84502
530.821,58.54135,-3.16635,0.02086656,0.84257
533.921,58.84935,-3.16834,0.02575797,0.8401
537.021,59.1564,-3.16833,0.02543333,0.83762
540.121,59.4639,-3.17097,0.02833855,0.83512
543.221,59.7717,-3.17497,0.03041974,0.8326
546.321,60.0791,-3.17624,0.03338142,0.83006
549.421,60.3874,-3.17756,0.03572612,0.82751
552.521,60.69562,-3.18084,0.03947086,0.82494
555.621,61.00351,-3.18217,0.04295827,0.82236
558.721,61.31083,-3.18284,0.0449963,0.81975
561.821,61.61864,-3.18547,0.05176047,0.81713
564.921,61.92625,-3.18833,0.0527493,0.8145
568.021,62.23426,-3.18896,0.05311146,0.81184
571.121,62.5423,-3.19073,0.05772974,0.80917
574.221,62.84944,-3.19339,0.05438795,0.80649
577.321,63.158,-3.19468,0.06145993,0.80378
580.421,63.466,-3.19666,0.06017629,0.80107
583.521,63.7746,-3.19888,0.06309172,0.79833
586.621,64.08233,-3.20047,0.06865503,0.79558
589.721,64.38973,-3.20259,0.07501147,0.79282
592.821,64.69799,-3.20259,0.07561049,0.79003
595.921,65.0066,-3.20523,0.0790108,0.78724
599.021,65.3155,-3.20654,0.08256983,0.78443
602.121,65.62371,-3.20783,0.08665644,0.7816
605.221,65.93251,-3.21083,0.08775886,0.77875
608.321,66.24122,-3.21214,0.08727665,0.7759
611.421,66.55068,-3.21346,0.08906841,0.77302
614.521,66.85978,-3.21478,0.09415437,0.77014
617.621,67.16866,-3.21741,0.09841155,0.76723
620.721,67.47663,-3.2184,0.10268,0.76432
623.821,67.7867,-3.21742,0.10601,0.76138
626.921,68.096,-3.22137,0.1115,0.75844
630.021,68.40599,-3.22104,0.11943,0.75548
633.121,68.71545,-3.22334,0.1202,0.75251
636.221,69.02462,-3.22367,0.12805,0.74952
639.321,69.33402,-3.22493,0.1298,0.74652
642.421,69.64366,-3.22494,0.13304,0.7435
645.521,69.9533,-3.22597,0.13845,0.74047
648.621,70.26225,-3.22906,0.14551,0.73743
651.721,70.572,-3.22894,0.15058,0.73438
654.821,70.8819,-3.22993,0.15647,0.73131
657.921,71.19205,-3.22993,0.15775,0.72823
661.021,71.50179,-3.23009,0.16135,0.72514
664.121,71.81271,-3.23388,0.16122,0.72203
667.221,72.12267,-3.23421,0.16274,0.71892
670.321,72.43266,-3.2335,0.16962,0.71579
673.421,72.7428,-3.23522,0.16984,0.71265
676.521,73.05304,-3.23521,0.17428,0.70949
679.621,73.36364,-3.23657,0.1788,0.70633
682.721,73.67461,-3.23883,0.18441,0.70315
685.821,73.98538,-3.24069,0.18387,0.69997
688.921,74.29568,-3.23948,0.18875,0.69677
692.021,74.60547,-3.24113,0.19764,0.69356
695.121,74.91622,-3.24206,0.20502,0.69034
698.221,75.22659,-3.24211,0.21103,0.68711
701.321,75.53753,-3.24291,0.21861,0.68387
704.421,75.84829,-3.24209,0.22576,0.68062
707.521,76.1593,-3.24573,0.23366,0.67736
710.621,76.46956,-3.24475,0.24914,0.67409
713.721,76.77986,-3.24508,0.25776,0.67081
716.821,77.09051,-3.24606,0.26824,0.66752
719.921,77.40129,-3.24572,0.2762,0.66422
723.021,77.71225,-3.24741,0.28405,0.66091
726.121,78.0239,-3.2487,0.29137,0.65759
729.221,78.33527,-3.24968,0.292,0.65427
732.321,78.64685,-3.24986,0.29349,0.65093
735.421,78.95805,-3.24936,0.2953,0.64759
738.521,79.26799,-3.25198,0.31213,0.64424
741.621,79.57884,-3.25199,0.32377,0.64089
744.721,79.88976,-3.25298,0.3287,0.63752
745.721,79.9899,-3.25167,0.32868,0.63643

File: Excelsior_STA_N2_10KData_2299_R2.csv
##Temp./Â°C,Time/min,Mass loss(subtr.2)/mg,DSC(subtr.2)/(mW/mg),Sensit./(uV/mW)
50.496,10.01,-0.01285,0.01815856,1.02681
52.896,11.32222,-0.0143156,0.09237423,1.0266
55.296,11.7623,-0.01495399,0.12813,1.02639
57.696,12.12773,-0.01471412,0.15386,1.02618
60.096,12.4606,-0.01514611,0.17157,1.02596
62.496,12.77321,-0.01596137,0.18472,1.02574
64.896,13.07289,-0.01764521,0.19965,1.02551
67.296,13.36244,-0.01647816,0.21356,1.02528
69.696,13.64401,-0.01784182,0.22422,1.02505
72.096,13.9198,-0.019218,0.23316,1.02481
74.496,14.19064,-0.02053218,0.24347,1.02457
76.896,14.4565,-0.02237218,0.25172,1.02432
79.296,14.71781,-0.02262794,0.25802,1.02407
81.696,14.97575,-0.02362898,0.26208,1.02382
84.096,15.23035,-0.02447722,0.26689,1.02356
86.496,15.4817,-0.02719009,0.26726,1.0233
88.896,15.7302,-0.02712023,0.2693,1.02303
91.296,15.976,-0.02843848,0.26426,1.02276
93.696,16.22038,-0.02842872,0.26425,1.02248
96.096,16.46278,-0.02975523,0.25858,1.0222
98.496,16.70338,-0.02975215,0.25469,1.02192
100.896,16.94248,-0.03107024,0.2506,1.02163
103.296,17.18044,-0.03038422,0.24816,1.02134
105.696,17.418,-0.03107,0.24531,1.02104
108.096,17.65493,-0.0323318,0.24381,1.02073
110.496,17.8907,-0.03173814,0.24249,1.02043
112.896,18.12657,-0.03237189,0.24195,1.02011
115.296,18.36134,-0.03112986,0.24084,1.0198
117.696,18.59601,-0.03243084,0.24038,1.01947
120.096,18.83018,-0.03238999,0.24212,1.01914
122.496,19.0633,-0.03239005,0.24284,1.01881
124.896,19.29681,-0.03166871,0.24371,1.01847
127.296,19.52925,-0.03343874,0.24455,1.01813
129.696,19.7615,-0.03249288,0.24522,1.01778
132.096,19.99202,-0.03174112,0.24622,1.01742
134.496,20.22314,-0.03172635,0.24949,1.01706
136.896,20.45378,-0.03169149,0.25165,1.0167
139.296,20.68398,-0.03173006,0.25325,1.01633
141.696,20.9135,-0.03189532,0.25442,1.01595
144.096,21.14283,-0.03167514,0.2546,1.01557
146.496,21.3721,-0.03172985,0.25722,1.01518
148.896,21.6008,-0.03337881,0.25769,1.01479
151.296,21.82897,-0.03172974,0.25869,1.01439
153.696,22.05765,-0.03305022,0.25961,1.01398
156.096,22.28654,-0.03307627,0.26129,1.01357
158.496,22.51483,-0.03205133,0.26421,1.01316
160.896,22.74271,-0.03173,0.26454,1.01273
163.296,22.97056,-0.03239015,0.26627,1.0123
165.696,23.1992,-0.03305017,0.2658,1.01187
168.096,23.42758,-0.03304994,0.27005,1.01142
170.496,23.65569,-0.03271587,0.27092,1.01098
172.896,23.8845,-0.03458533,0.2722,1.01052
175.296,24.1132,-0.03338,0.27543,1.01006
177.696,24.34205,-0.0333699,0.27529,1.00959
180.096,24.5706,-0.0333527,0.27718,1.00912
182.496,24.79911,-0.03338,0.27825,1.00864
184.896,25.02703,-0.03470002,0.2781,1.00815
187.296,25.25478,-0.03466088,0.27983,1.00765
189.696,25.48266,-0.0347,0.27902,1.00715
192.096,25.71056,-0.0373287,0.2806,1.00664
194.496,25.93796,-0.03733151,0.2821,1.00613
196.896,26.16573,-0.0360457,0.2832,1.00561
199.296,26.3934,-0.03798997,0.28228,1.00508
201.696,26.62078,-0.0379898,0.28224,1.00454
204.096,26.84811,-0.03865015,0.28487,1.004
206.496,27.07615,-0.03963,0.2871,1.00345
208.896,27.3037,-0.04029005,0.2888,1.00289
211.296,27.53128,-0.04138692,0.28944,1.00232
213.696,27.7588,-0.04326,0.2897,1.00175
216.096,27.98644,-0.04428906,0.29237,1.00117
218.496,28.21425,-0.0459,0.29523,1.00058
220.896,28.44205,-0.04802903,0.29844,0.99999
223.296,28.67005,-0.04984,0.29984,0.99938
225.696,28.8978,-0.05204661,0.30321,0.99877
228.096,29.12414,-0.05511005,0.30711,0.99815
230.496,29.3534,-0.05906999,0.31072,0.99753
232.896,29.5809,-0.06301247,0.31305,0.99689
235.296,29.8086,-0.0669777,0.31551,0.99625
237.696,30.03575,-0.07086966,0.31775,0.9956
240.096,30.2643,-0.07749296,0.32078,0.99494
242.496,30.4925,-0.08278769,0.32566,0.99427
244.896,30.72056,-0.09069754,0.32863,0.9936
247.296,30.9487,-0.09883107,0.32873,0.99291
249.696,31.17672,-0.10634,0.33204,0.99222
252.096,31.4051,-0.11664,0.3339,0.99152
254.496,31.6327,-0.12552,0.33848,0.99081
256.896,31.86028,-0.13604,0.33916,0.9901
259.296,32.08892,-0.14887,0.34484,0.98937
261.696,32.31716,-0.16205,0.34778,0.98864
264.096,32.54508,-0.17599,0.35046,0.98789
266.496,32.7739,-0.19339,0.35211,0.98714
268.896,33.00291,-0.21035,0.3554,0.98638
271.296,33.23175,-0.23228,0.3583,0.98561
273.696,33.4598,-0.25468,0.35818,0.98484
276.096,33.68864,-0.28013,0.35809,0.98405
278.496,33.91793,-0.30653,0.35928,0.98325
280.896,34.1471,-0.33659,0.35783,0.98245
283.296,34.37623,-0.3671,0.35393,0.98164
285.696,34.6049,-0.40118,0.35276,0.98081
288.096,34.83398,-0.43394,0.34719,0.97998
290.496,35.0638,-0.47062,0.34022,0.97914
292.896,35.29273,-0.50893,0.32813,0.97829
295.296,35.52263,-0.54866,0.31076,0.97743
297.696,35.75221,-0.58588,0.2966,0.97656
300.096,35.98154,-0.6297,0.28673,0.97568
302.496,36.2117,-0.67212,0.28369,0.97479
304.896,36.44153,-0.71425,0.28748,0.97389
307.296,36.67136,-0.75841,0.29481,0.97299
309.696,36.90149,-0.8024,0.30585,0.97207
312.096,37.13203,-0.84782,0.31761,0.97114
314.496,37.36228,-0.89456,0.32858,0.97021
316.896,37.59298,-0.94081,0.34343,0.96926
319.296,37.82375,-0.98755,0.35765,0.96831
321.696,38.05486,-1.03746,0.37,0.96734
324.096,38.28607,-1.08665,0.3851,0.96637
326.496,38.51741,-1.13842,0.40024,0.96538
328.896,38.74882,-1.19141,0.41689,0.96439
331.296,38.9794,-1.24357,0.43299,0.96338
333.696,39.2115,-1.30029,0.45261,0.96237
336.096,39.4432,-1.3603,0.47263,0.96134
338.496,39.6746,-1.42105,0.49403,0.96031
340.896,39.90695,-1.48732,0.51769,0.95926
343.296,40.13903,-1.55736,0.54246,0.9582
345.696,40.37123,-1.62934,0.57124,0.95714
348.096,40.60317,-1.70695,0.5982,0.95606
350.496,40.83551,-1.78846,0.6248,0.95498
352.896,41.067,-1.87431,0.64696,0.95388
355.296,41.2993,-1.96281,0.6705,0.95277
357.696,41.53096,-2.05609,0.68235,0.95166
360.096,41.76303,-2.15203,0.6886,0.95053
362.496,41.9944,-2.2488,0.68048,0.94939
364.896,42.22647,-2.34407,0.65954,0.94824
367.296,42.4581,-2.43569,0.62004,0.94708
369.696,42.69005,-2.52087,0.56176,0.94591
372.096,42.92252,-2.5965,0.48154,0.94473
374.496,43.1543,-2.65923,0.38766,0.94354
376.896,43.38665,-2.70784,0.28932,0.94234
379.296,43.61872,-2.74406,0.19917,0.94113
381.696,43.8508,-2.76592,0.13605,0.93991
384.096,44.08315,-2.78092,0.09892989,0.93867
386.496,44.31573,-2.78972,0.07571797,0.93743
388.896,44.54815,-2.79795,0.06797736,0.93617
391.296,44.78116,-2.80705,0.06580607,0.93491
393.696,45.0141,-2.81256,0.06338948,0.93363
396.096,45.24763,-2.81733,0.06104356,0.93235
398.496,45.481,-2.82413,0.05988452,0.93105
400.896,45.71382,-2.82961,0.05944376,0.92974
403.296,45.94746,-2.83634,0.061191,0.92842
405.696,46.18057,-2.84163,0.06158889,0.92709
408.096,46.414,-2.84636,0.06195663,0.92575
410.496,46.6475,-2.85296,0.06560964,0.9244
412.896,46.8817,-2.85832,0.06902578,0.92303
415.296,47.11558,-2.86246,0.07338416,0.92166
417.696,47.34956,-2.86798,0.07710047,0.92027
420.096,47.58398,-2.87222,0.08452241,0.91888
422.496,47.8189,-2.87764,0.08794808,0.91747
424.896,48.05362,-2.88163,0.09430672,0.91605
427.296,48.28794,-2.88688,0.1009,0.91462
429.696,48.52234,-2.89083,0.10768,0.91318
432.096,48.7577,-2.89619,0.11454,0.91173
434.496,48.9925,-2.90137,0.12007,0.91027
436.896,49.2276,-2.90521,0.13044,0.9088
439.296,49.46275,-2.90793,0.1372,0.90731
441.696,49.69789,-2.91289,0.14539,0.90582
444.096,49.93397,-2.91562,0.15091,0.90431
446.496,50.16899,-2.91835,0.16049,0.9028
448.896,50.40402,-2.92372,0.17173,0.90127
451.296,50.6398,-2.92638,0.17888,0.89973
453.696,50.8747,-2.92901,0.1879,0.89818
456.096,51.11,-2.93033,0.19989,0.89662
458.496,51.34492,-2.93252,0.21189,0.89505
460.896,51.58017,-2.93692,0.22619,0.89347
463.296,51.81564,-2.93954,0.23196,0.89187
465.696,52.05118,-2.94219,0.23909,0.89027
468.096,52.2864,-2.9434,0.25046,0.88865
470.496,52.5222,-2.94755,0.25836,0.88702
472.896,52.75779,-2.95009,0.26745,0.88539
475.296,52.99358,-2.95172,0.27058,0.88374
477.696,53.2291,-2.95536,0.27995,0.88208
480.096,53.46535,-2.958,0.28237,0.88041
482.496,53.7012,-2.958,0.28463,0.87873
484.896,53.9372,-2.9613,0.28986,0.87703
487.296,54.1728,-2.96393,0.29463,0.87533
489.696,54.4086,-2.96482,0.30155,0.87362
492.096,54.6451,-2.9688,0.3047,0.87189
494.496,54.8813,-2.97019,0.30759,0.87015
496.896,55.11761,-2.97151,0.30778,0.86841
499.296,55.3548,-2.97382,0.30942,0.86665
501.696,55.5914,-2.97447,0.30997,0.86488
504.096,55.8279,-2.9771,0.31112,0.8631
506.496,56.06469,-2.9781,0.31332,0.86131
508.896,56.30076,-2.98072,0.31517,0.85951
511.296,56.53787,-2.98164,0.31715,0.8577
513.696,56.77423,-2.98308,0.3231,0.85588
516.096,57.01093,-2.98572,0.3219,0.85405
518.496,57.24791,-2.98716,0.32811,0.8522
520.896,57.48502,-2.9893,0.33074,0.85035
523.296,57.722,-2.99075,0.33643,0.84848
525.696,57.9597,-2.99192,0.33734,0.84661
528.096,58.19744,-2.99444,0.33525,0.84472
530.496,58.4357,-2.99586,0.33865,0.84283
532.896,58.6732,-2.99621,0.34259,0.84092
535.296,58.91106,-2.99883,0.34778,0.839
537.696,59.14889,-2.99983,0.34936,0.83708
540.096,59.3867,-3.00011,0.35441,0.83514
542.496,59.6253,-3.00279,0.35775,0.83319
544.896,59.8624,-3.00204,0.35919,0.83123
547.296,60.10049,-3.00477,0.3648,0.82926
549.696,60.33896,-3.00739,0.36538,0.82728
552.096,60.57695,-3.00872,0.36565,0.82529
554.496,60.8147,-3.01007,0.3681,0.8233
556.896,61.0524,-3.01131,0.37111,0.82129
559.296,61.29051,-3.01268,0.37179,0.81927
561.696,61.52844,-3.01334,0.37223,0.81724
564.096,61.76704,-3.01432,0.37254,0.8152
566.496,62.00549,-3.01399,0.37452,0.81315
568.896,62.2426,-3.01647,0.37504,0.81109
571.296,62.4816,-3.01925,0.37542,0.80902
573.696,62.7193,-3.01926,0.37772,0.80694
576.096,62.95822,-3.02177,0.38103,0.80485
578.496,63.19684,-3.02225,0.38529,0.80276
580.896,63.4351,-3.02354,0.38666,0.80065
583.296,63.67405,-3.02454,0.39047,0.79853
585.696,63.9127,-3.02452,0.39193,0.7964
588.096,64.15154,-3.02654,0.39677,0.79427
590.496,64.39024,-3.02749,0.40016,0.79212
592.896,64.62847,-3.02804,0.40204,0.78997
595.296,64.86747,-3.02948,0.40404,0.7878
596.596,64.9964,-3.03045,0.40858,0.78663