Folder: fsri_materials_database/01_Data/Excelsior/STA/N2/10K_min (part 2)

File: Excelsior_STA_N2_10KData_2299_R3.csv
##Temp./Â°C,Time/min,Mass loss(subtr.2)/mg,DSC(subtr.2)/(mW/mg),Sensit./(uV/mW)
50.354,10.01,0.00132,0.01101447,1.02682
52.754,11.32421,0.000793391,0.08223503,1.02662
55.154,11.7661,0.0005300702,0.1171,1.02641
57.554,12.13256,0.00164336,0.14017,1.02619
59.954,12.46488,0.003228555,0.1567,1.02597
62.354,12.77838,0.0009120807,0.17224,1.02575
64.754,13.07723,0.00148458,0.18423,1.02553
67.154,13.3674,0.00121499,0.19703,1.0253
69.554,13.64936,-0.0001013463,0.20996,1.02506
71.954,13.92557,-0.001723527,0.22042,1.02482
74.354,14.1951,-0.00133429,0.2333,1.02458
76.754,14.4615,-0.004055722,0.24135,1.02434
79.154,14.72296,-0.00536821,0.24848,1.02409
81.554,14.98134,-0.006039081,0.25424,1.02383
83.954,15.2367,-0.006688955,0.25753,1.02358
86.354,15.4877,-0.008008455,0.25889,1.02331
88.754,15.7362,-0.008021601,0.25862,1.02305
91.154,15.9823,-0.009349664,0.25861,1.02278
93.554,16.226,-0.009515935,0.25471,1.0225
95.954,16.46807,-0.01145401,0.25279,1.02222
98.354,16.7073,-0.01018008,0.24893,1.02194
100.754,16.9466,-0.01400031,0.24446,1.02165
103.154,17.18342,-0.01346015,0.23876,1.02135
105.554,17.42044,-0.01361018,0.23412,1.02106
107.954,17.6568,-0.01396974,0.22975,1.02075
110.354,17.89224,-0.01360388,0.22705,1.02044
112.754,18.128,-0.01364649,0.22756,1.02013
115.154,18.36336,-0.01361149,0.22754,1.01981
117.554,18.59689,-0.01225697,0.22715,1.01949
119.954,18.83075,-0.01228854,0.22698,1.01916
122.354,19.06484,-0.01393969,0.22716,1.01883
124.754,19.29736,-0.01360635,0.22836,1.01849
127.154,19.53014,-0.01361429,0.2278,1.01815
129.554,19.76227,-0.01393684,0.22983,1.0178
131.954,19.99365,-0.01489199,0.23246,1.01745
134.354,20.22478,-0.0137986,0.2337,1.01709
136.754,20.45549,-0.01393324,0.23514,1.01672
139.154,20.68555,-0.01394,0.23669,1.01635
141.554,20.91495,-0.01295948,0.23877,1.01597
143.954,21.14494,-0.01402944,0.23804,1.01559
146.354,21.3736,-0.01393925,0.2403,1.01521
148.754,21.60215,-0.01264827,0.24307,1.01481
151.154,21.83061,-0.01394,0.24371,1.01441
153.554,22.05845,-0.01360796,0.24666,1.01401
155.954,22.2868,-0.01288344,0.24696,1.0136
158.354,22.51618,-0.01369109,0.24816,1.01318
160.754,22.7441,-0.01259043,0.24979,1.01276
163.154,22.97263,-0.01321486,0.25211,1.01233
165.554,23.2009,-0.01393972,0.2534,1.01189
167.954,23.42936,-0.01391901,0.25336,1.01145
170.354,23.65813,-0.01426963,0.25671,1.011
172.754,23.88674,-0.01391521,0.25606,1.01055
175.154,24.1159,-0.01394013,0.25718,1.01009
177.554,24.34466,-0.01526,0.2554,1.00962
179.954,24.57305,-0.01523325,0.2589,1.00915
182.354,24.80108,-0.01626648,0.2611,1.00866
184.754,25.02908,-0.01658178,0.26045,1.00818
187.154,25.25699,-0.0172578,0.26273,1.00768
189.554,25.48457,-0.01789,0.26413,1.00718
191.954,25.7115,-0.01788996,0.26692,1.00667
194.354,25.93863,-0.01854959,0.2682,1.00616
196.754,26.16487,-0.01921047,0.26866,1.00564
199.154,26.39295,-0.02149627,0.27071,1.00511
201.554,26.6201,-0.02020017,0.27135,1.00457
203.954,26.8477,-0.02128429,0.27089,1.00403
206.354,27.07436,-0.02051998,0.27177,1.00348
208.754,27.3027,-0.02315106,0.27136,1.00292
211.154,27.531,-0.02448,0.27364,1.00236
213.554,27.7586,-0.02683577,0.27484,1.00178
215.954,27.9871,-0.02722961,0.27637,1.0012
218.354,28.21515,-0.02855,0.27858,1.00062
220.754,28.4423,-0.02985933,0.2806,1.00002
223.154,28.67033,-0.03349761,0.28153,0.99942
225.554,28.89842,-0.03480051,0.28674,0.99881
227.954,29.1267,-0.04006992,0.28878,0.99819
230.354,29.3547,-0.04270821,0.29361,0.99756
232.754,29.5832,-0.04596494,0.29744,0.99693
235.154,29.81107,-0.04996647,0.30089,0.99629
237.554,30.03905,-0.05316931,0.30372,0.99564
239.954,30.26698,-0.06024514,0.3081,0.99498
242.354,30.49492,-0.06416962,0.31223,0.99431
244.754,30.7235,-0.07321166,0.31399,0.99364
247.154,30.95202,-0.08166184,0.31708,0.99295
249.554,31.17987,-0.0885935,0.31915,0.99226
251.954,31.40891,-0.09861724,0.3226,0.99156
254.354,31.6365,-0.10882,0.32913,0.99086
256.754,31.865,-0.11994,0.33134,0.99014
259.154,32.09377,-0.13199,0.33527,0.98941
261.554,32.32118,-0.14604,0.33907,0.98868
263.954,32.55062,-0.16186,0.3469,0.98794
266.354,32.77917,-0.17857,0.34758,0.98719
268.754,33.00698,-0.19721,0.3508,0.98643
271.154,33.23616,-0.21816,0.35719,0.98566
273.554,33.4651,-0.24158,0.35495,0.98488
275.954,33.694,-0.26803,0.35573,0.9841
278.354,33.9226,-0.29693,0.35616,0.9833
280.754,34.15206,-0.32664,0.35447,0.9825
283.154,34.38139,-0.35828,0.35161,0.98168
285.554,34.61053,-0.39556,0.35077,0.98086
287.954,34.83961,-0.4315,0.34466,0.98003
290.354,35.06906,-0.47049,0.34239,0.97919
292.754,35.29886,-0.50938,0.34012,0.97834
295.154,35.52786,-0.5508,0.33996,0.97748
297.554,35.75759,-0.59127,0.33651,0.97661
299.954,35.9871,-0.63642,0.33556,0.97573
302.354,36.2164,-0.67982,0.33662,0.97485
304.754,36.44675,-0.72568,0.33571,0.97395
307.154,36.67705,-0.77099,0.33977,0.97304
309.554,36.9074,-0.81818,0.34105,0.97213
311.954,37.13735,-0.86496,0.34701,0.9712
314.354,37.36829,-0.91451,0.3552,0.97026
316.754,37.59912,-0.96333,0.36405,0.96932
319.154,37.8297,-1.01337,0.37372,0.96836
321.554,38.06047,-1.06512,0.38681,0.9674
323.954,38.29139,-1.11848,0.40138,0.96642
326.354,38.52315,-1.17173,0.41133,0.96544
328.754,38.75398,-1.22831,0.42689,0.96445
331.154,38.9854,-1.28311,0.4422,0.96344
333.554,39.21662,-1.34242,0.46107,0.96243
335.954,39.44782,-1.40428,0.48224,0.9614
338.354,39.6787,-1.46814,0.50306,0.96037
340.754,39.91043,-1.53523,0.52672,0.95932
343.154,40.1411,-1.60688,0.55416,0.95827
345.554,40.37345,-1.68413,0.57935,0.9572
347.954,40.60587,-1.76514,0.60712,0.95613
350.354,40.83804,-1.85079,0.63423,0.95504
352.754,41.07002,-1.93932,0.66172,0.95395
355.154,41.30232,-2.03522,0.68294,0.95284
357.554,41.53468,-2.13379,0.69799,0.95172
359.954,41.7671,-2.23703,0.70488,0.9506
362.354,41.9992,-2.34195,0.69945,0.94946
364.754,42.23151,-2.44324,0.676,0.94831
367.154,42.46346,-2.54245,0.63263,0.94715
369.554,42.6953,-2.63412,0.56865,0.94598
371.954,42.9274,-2.71704,0.4785,0.9448
374.354,43.1596,-2.78326,0.37477,0.94361
376.754,43.3913,-2.83568,0.26456,0.94241
379.154,43.62332,-2.8751,0.16494,0.9412
381.554,43.85538,-2.90282,0.09403489,0.93998
383.954,44.08788,-2.91701,0.04668835,0.93875
386.354,44.32022,-2.9266,0.02064817,0.9375
388.754,44.55317,-2.93537,0.005181308,0.93625
391.154,44.78586,-2.94462,-0.00286744,0.93498
393.554,45.01895,-2.94989,-0.01242317,0.93371
395.954,45.25193,-2.95738,-0.01617479,0.93242
398.354,45.48513,-2.96406,-0.02341527,0.93112
400.754,45.7184,-2.97106,-0.02989861,0.92982
403.154,45.95203,-2.9766,-0.0366416,0.9285
405.554,46.1854,-2.98303,-0.04351877,0.92717
407.954,46.41953,-2.98961,-0.0500862,0.92583
410.354,46.65183,-2.99503,-0.05458758,0.92448
412.754,46.88623,-3.00052,-0.05798467,0.92311
415.154,47.12004,-3.00563,-0.06197966,0.92174
417.554,47.35362,-3.0125,-0.06363255,0.92036
419.954,47.58743,-3.02004,-0.06568034,0.91896
422.354,47.82134,-3.02397,-0.06534481,0.91755
424.754,48.05612,-3.02694,-0.06370034,0.91614
427.154,48.29063,-3.03232,-0.06560754,0.91471
429.554,48.52512,-3.03767,-0.06079768,0.91327
431.954,48.76023,-3.04233,-0.05883342,0.91182
434.354,48.9953,-3.04727,-0.05581063,0.91036
436.754,49.23036,-3.05231,-0.05253304,0.90889
439.154,49.46499,-3.05756,-0.05048727,0.9074
441.554,49.7005,-3.0602,-0.04551453,0.90591
443.954,49.93562,-3.06421,-0.04087639,0.9044
446.354,50.17028,-3.06811,-0.0371451,0.90289
448.754,50.40573,-3.07313,-0.03212924,0.90136
451.154,50.64058,-3.07568,-0.02703953,0.89982
453.554,50.8755,-3.0796,-0.01917526,0.89827
455.954,51.11056,-3.08325,-0.01218394,0.89671
458.354,51.3456,-3.08715,-0.003674017,0.89514
460.754,51.58055,-3.09152,0.00295999,0.89356
463.154,51.8162,-3.09184,0.00864703,0.89197
465.554,52.05187,-3.09543,0.01252451,0.89036
467.954,52.2873,-3.09742,0.01616285,0.88875
470.354,52.523,-3.10105,0.02210355,0.88712
472.754,52.7592,-3.10237,0.02413657,0.88548
475.154,52.9947,-3.10565,0.02621785,0.88384
477.554,53.231,-3.11026,0.02368247,0.88218
479.954,53.46655,-3.11279,0.02745295,0.88051
482.354,53.70254,-3.11421,0.02992466,0.87883
484.754,53.93812,-3.11686,0.02928588,0.87713
487.154,54.1748,-3.11817,0.02920695,0.87543
489.554,54.4109,-3.1208,0.03027766,0.87372
491.954,54.6467,-3.12202,0.02839784,0.87199
494.354,54.8829,-3.12272,0.02705205,0.87026
496.754,55.1197,-3.12673,0.02497269,0.86851
499.154,55.3568,-3.12936,0.0202839,0.86675
501.554,55.59335,-3.13089,0.01267987,0.86499
503.954,55.82969,-3.13331,0.0111037,0.86321
506.354,56.0665,-3.13236,0.00749957,0.86142
508.754,56.3031,-3.13823,0.0030119,0.85962
511.154,56.5398,-3.13693,0.0004390192,0.85781
513.554,56.77686,-3.1399,-0.001511791,0.85599
515.954,57.01308,-3.14202,-0.002510424,0.85415
518.354,57.2509,-3.14451,-0.00654022,0.85231
520.754,57.4881,-3.14648,-0.009018925,0.85046
523.154,57.72524,-3.1478,-0.01059326,0.84859
525.554,57.96324,-3.14912,-0.01270867,0.84672
527.954,58.20106,-3.15077,-0.01232719,0.84483
530.354,58.43874,-3.15335,-0.01561253,0.84294
532.754,58.6771,-3.15341,-0.01621595,0.84103
535.154,58.91502,-3.15726,-0.01692473,0.83912
537.554,59.15299,-3.15868,-0.01987384,0.83719
539.954,59.39056,-3.15967,-0.02136238,0.83525
542.354,59.62785,-3.16097,-0.02620162,0.83331
544.754,59.8657,-3.16364,-0.02556067,0.83135
547.154,60.1034,-3.16362,-0.03085069,0.82938
549.554,60.3406,-3.16526,-0.03018198,0.8274
551.954,60.5785,-3.16636,-0.03393677,0.82541
554.354,60.816,-3.16833,-0.03480457,0.82341
556.754,61.0531,-3.16965,-0.03838106,0.82141
559.154,61.29113,-3.17229,-0.03687363,0.81939
561.554,61.5283,-3.1736,-0.03904594,0.81736
563.954,61.76704,-3.17426,-0.04057438,0.81532
566.354,62.0049,-3.17561,-0.04430905,0.81327
568.754,62.24292,-3.17722,-0.04191809,0.81121
571.154,62.481,-3.17953,-0.04694409,0.80914
573.554,62.7194,-3.18085,-0.04922507,0.80707
575.954,62.95697,-3.18085,-0.04947764,0.80498
578.354,63.19624,-3.18348,-0.05341927,0.80288
580.754,63.4345,-3.18478,-0.05341871,0.80077
583.154,63.67324,-3.18478,-0.05126809,0.79866
585.554,63.9123,-3.18744,-0.05609363,0.79653
587.954,64.15091,-3.18843,-0.0573988,0.79439
590.354,64.38988,-3.18942,-0.06098571,0.79225
592.754,64.6289,-3.19073,-0.06328679,0.7901
595.154,64.86796,-3.19239,-0.06288416,0.78793
596.454,64.99829,-3.19238,-0.06604439,0.78676