Folder: fsri_materials_database/01_Data/Cedar_Shingle/STA/N2/10K_min (part 2)

File: Cedar_Shingle_STA_N2_10KData_220404_R3.csv
##Temp./Â°C,Time/min,Mass loss(subtr.2)/mg,DSC(subtr.2)/(mW/mg),Sensit./(uV/mW)
49.535,10.00917,-0.04016,0.02098943,1.06055
52.835,11.3366,-0.04248253,0.12529,1.05987
56.135,11.79905,-0.04520736,0.17568,1.05916
59.435,12.19489,-0.04548032,0.20467,1.05844
62.735,12.5669,-0.04686072,0.22723,1.05769
66.035,12.92843,-0.04686545,0.2412,1.05692
69.335,13.28384,-0.04958083,0.25526,1.05614
72.635,13.6344,-0.05111987,0.27104,1.05533
75.935,13.98008,-0.05211351,0.28455,1.05451
79.235,14.3223,-0.05341901,0.29268,1.05366
82.535,14.6608,-0.05739504,0.29934,1.0528
85.835,14.99635,-0.06000998,0.30266,1.05191
89.135,15.3287,-0.06000854,0.30301,1.05101
92.435,15.6591,-0.06264188,0.29859,1.05008
95.735,15.98761,-0.06658592,0.29262,1.04914
99.035,16.31257,-0.06791,0.28466,1.04818
102.335,16.63889,-0.0725067,0.28125,1.04719
105.635,16.9633,-0.07217851,0.27295,1.04619
108.935,17.2866,-0.07329631,0.26815,1.04517
112.235,17.6097,-0.07548,0.26722,1.04413
115.535,17.93202,-0.07541393,0.26673,1.04308
118.835,18.2541,-0.07876004,0.26465,1.042
122.135,18.57532,-0.07939993,0.26404,1.0409
125.435,18.8967,-0.08214179,0.26559,1.03979
128.735,19.21697,-0.08506434,0.2665,1.03866
132.035,19.537,-0.08631609,0.26896,1.03751
135.335,19.8563,-0.08699001,0.27472,1.03634
138.635,20.1754,-0.08993761,0.27244,1.03515
141.935,20.49393,-0.09258823,0.27445,1.03395
145.235,20.81193,-0.09324001,0.27762,1.03272
148.535,21.12921,-0.09522,0.28111,1.03148
151.835,21.44696,-0.09863646,0.28415,1.03023
155.135,21.76425,-0.10114,0.28607,1.02895
158.435,22.0807,-0.10245,0.28651,1.02765
161.735,22.39872,-0.10476,0.29232,1.02634
165.035,22.7155,-0.10575,0.29211,1.02501
168.335,23.0324,-0.10772,0.29415,1.02367
171.635,23.34923,-0.10904,0.2987,1.02231
174.935,23.66512,-0.11168,0.30155,1.02092
178.235,23.98217,-0.1143,0.30439,1.01953
181.535,24.29925,-0.11562,0.30704,1.01811
184.835,24.6158,-0.11956,0.30654,1.01668
188.135,24.9326,-0.11989,0.30847,1.01523
191.435,25.2491,-0.12484,0.31548,1.01377
194.735,25.5645,-0.12648,0.31662,1.01229
198.035,25.8805,-0.12878,0.32169,1.01079
201.335,26.19652,-0.13175,0.32672,1.00928
204.635,26.5123,-0.13437,0.33227,1.00775
207.935,26.8273,-0.13887,0.33695,1.0062
211.235,27.1422,-0.14143,0.34197,1.00464
214.535,27.4575,-0.14676,0.35084,1.00307
217.835,27.77188,-0.15204,0.35819,1.00147
221.135,28.0865,-0.15807,0.36293,0.99986
224.435,28.40145,-0.16521,0.36914,0.99824
227.735,28.7158,-0.17313,0.37288,0.9966
231.035,29.0312,-0.18034,0.37599,0.99494
234.335,29.34575,-0.19106,0.38219,0.99327
237.635,29.6604,-0.2003,0.38789,0.99159
240.935,29.9755,-0.21165,0.39296,0.98989
244.235,30.29015,-0.22341,0.39188,0.98817
247.535,30.60588,-0.23738,0.39179,0.98644
250.835,30.92138,-0.25177,0.3951,0.9847
254.135,31.23665,-0.26971,0.3949,0.98294
257.435,31.55149,-0.2864,0.39434,0.98117
260.735,31.86699,-0.30611,0.39121,0.97938
264.035,32.18188,-0.32443,0.39154,0.97758
267.335,32.49725,-0.34623,0.38595,0.97576
270.635,32.81195,-0.36923,0.38572,0.97393
273.935,33.12724,-0.39334,0.38516,0.97208
277.235,33.44291,-0.41988,0.38236,0.97023
280.535,33.75886,-0.44884,0.37918,0.96835
283.835,34.07464,-0.47885,0.37297,0.96647
287.135,34.3908,-0.50958,0.37024,0.96457
290.435,34.70697,-0.54263,0.36851,0.96266
293.735,35.0228,-0.57726,0.36827,0.96073
297.035,35.33813,-0.61671,0.3701,0.95879
300.335,35.65518,-0.6587,0.37376,0.95684
303.635,35.97343,-0.70422,0.37718,0.95487
306.935,36.2903,-0.74947,0.38602,0.9529
310.235,36.6075,-0.80239,0.39331,0.95091
313.535,36.92502,-0.8567,0.40314,0.9489
316.835,37.24256,-0.91534,0.41173,0.94689
320.135,37.5599,-0.98132,0.42462,0.94486
323.435,37.87758,-1.04753,0.43443,0.94282
326.735,38.19556,-1.11817,0.44518,0.94077
330.035,38.51321,-1.19368,0.45647,0.9387
333.335,38.8315,-1.27038,0.46793,0.93663
336.635,39.14971,-1.35005,0.48295,0.93454
339.935,39.46902,-1.43697,0.49663,0.93244
343.235,39.78862,-1.524,0.51758,0.93033
346.535,40.10849,-1.61643,0.54106,0.9282
349.835,40.42872,-1.71341,0.57253,0.92607
353.135,40.74886,-1.81677,0.60828,0.92392
356.435,41.06895,-1.92286,0.63835,0.92176
359.735,41.3892,-2.03678,0.66579,0.91959
363.035,41.70937,-2.15299,0.67797,0.91742
366.335,42.0302,-2.2705,0.67161,0.91522
369.635,42.35137,-2.38555,0.63043,0.91302
372.935,42.67241,-2.49232,0.56065,0.91081
376.235,42.99223,-2.58361,0.45498,0.90859
379.535,43.31268,-2.65856,0.3246,0.90636
382.835,43.63236,-2.71514,0.19327,0.90411
386.135,43.95193,-2.75157,0.08175794,0.90186
389.435,44.2712,-2.77404,0.0194687,0.8996
392.735,44.59025,-2.7901,-0.01074751,0.89732
396.035,44.91088,-2.80265,-0.02712806,0.89504
399.335,45.23149,-2.81399,-0.03802556,0.89275
402.635,45.55317,-2.82447,-0.05006865,0.89044
405.935,45.87481,-2.83645,-0.06006311,0.88813
409.235,46.197,-2.84975,-0.06934708,0.88581
412.535,46.51916,-2.85832,-0.07989367,0.88348
415.835,46.84148,-2.87071,-0.08975753,0.88113
419.135,47.1646,-2.88038,-0.1004,0.87878
422.435,47.48775,-2.8917,-0.1109,0.87643
425.735,47.81132,-2.90248,-0.11498,0.87406
429.035,48.13528,-2.91218,-0.12121,0.87168
432.335,48.4591,-2.92183,-0.11994,0.86929
435.635,48.78294,-2.93108,-0.12331,0.8669
438.935,49.10674,-2.94082,-0.11772,0.8645
442.235,49.4309,-2.94948,-0.1116,0.86209
445.535,49.75437,-2.95909,-0.1039,0.85967
448.835,50.07912,-2.96888,-0.0929848,0.85724
452.135,50.40457,-2.97569,-0.08565019,0.8548
455.435,50.73005,-2.98372,-0.073155,0.85236
458.735,51.0554,-2.99156,-0.06067551,0.8499
462.035,51.3808,-3.00169,-0.05144282,0.84744
465.335,51.70525,-3.00758,-0.04272336,0.84498
468.635,52.0315,-3.01274,-0.03421483,0.8425
471.935,52.3573,-3.01868,-0.03052032,0.84002
475.235,52.68326,-3.02539,-0.02052933,0.83753
478.535,53.0095,-3.02932,-0.01504696,0.83503
481.835,53.33574,-3.03421,-0.0145343,0.83253
485.135,53.66144,-3.03952,-0.007820556,0.83001
488.435,53.9873,-3.04438,-0.0005044061,0.8275
491.735,54.31378,-3.04744,0.00524097,0.82497
495.035,54.63998,-3.05137,0.01800055,0.82244
498.335,54.96624,-3.05596,0.03069587,0.8199
501.635,55.29376,-3.0609,0.03594699,0.81735
504.935,55.62099,-3.06422,0.04129394,0.8148
508.235,55.9488,-3.06911,0.04336589,0.81224
511.535,56.2759,-3.07307,0.04184996,0.80968
514.835,56.60309,-3.07604,0.0466869,0.8071
518.135,56.92991,-3.08,0.04878627,0.80453
521.435,57.25764,-3.08515,0.0495799,0.80194
524.735,57.58525,-3.08756,0.03631051,0.79935
528.035,57.9126,-3.09181,0.02742079,0.79676
531.335,58.24106,-3.09415,0.02344789,0.79416
534.635,58.56815,-3.09943,0.01794741,0.79155
537.935,58.8974,-3.10073,0.01444339,0.78894
541.235,59.2278,-3.10446,0.01611029,0.78632
544.535,59.55734,-3.10665,0.013522,0.7837
547.835,59.88695,-3.11058,0.007597061,0.78107
551.135,60.2158,-3.11284,0.00690061,0.77844
554.435,60.5444,-3.11641,0.009248407,0.7758
557.735,60.8732,-3.11971,0.01437399,0.77316
561.035,61.2022,-3.12102,0.01396792,0.77051
564.335,61.5313,-3.12365,0.02052814,0.76786
567.635,61.8595,-3.12496,0.03132683,0.7652
570.935,62.18889,-3.12957,0.02917945,0.76254
574.235,62.5183,-3.13284,0.02953091,0.75987
577.535,62.8484,-3.13484,0.02783659,0.7572
580.835,63.1782,-3.13813,0.02551369,0.75453
584.135,63.50806,-3.1401,0.02436644,0.75185
587.435,63.8383,-3.14174,0.02286084,0.74917
590.735,64.16879,-3.14538,0.02191915,0.74648
594.035,64.49909,-3.14801,0.02045059,0.74379
597.335,64.8296,-3.1493,0.01957377,0.7411
600.635,65.1593,-3.15206,0.01747754,0.7384
603.935,65.4902,-3.15336,0.02002778,0.7357
607.235,65.82085,-3.15598,0.01537725,0.73299
610.535,66.15162,-3.15864,0.01779399,0.73028
613.835,66.48199,-3.16137,0.0199173,0.72757
617.135,66.8126,-3.16392,0.02028139,0.72486
620.435,67.14381,-3.16456,0.01984636,0.72214
623.735,67.47471,-3.1678,0.02272579,0.71942
627.035,67.80582,-3.16917,0.0210114,0.7167
630.335,68.13765,-3.1718,0.02269897,0.71397
633.635,68.47,-3.17206,0.02669432,0.71124
636.935,68.8018,-3.17443,0.02420159,0.70851
640.235,69.13342,-3.17542,0.02433207,0.70577
643.535,69.46491,-3.17707,0.03100378,0.70304
646.835,69.79704,-3.1797,0.02955853,0.7003
650.135,70.12889,-3.18231,0.03250312,0.69756
653.435,70.46038,-3.18365,0.03306458,0.69481
656.735,70.7925,-3.18562,0.03330408,0.69207
660.035,71.12541,-3.18629,0.03911672,0.68932
663.335,71.45859,-3.1875,0.0467534,0.68657
666.635,71.79207,-3.18891,0.04827446,0.68382
669.935,72.12504,-3.18957,0.04965879,0.68106
673.235,72.45789,-3.19121,0.05940842,0.67831
676.535,72.79075,-3.19253,0.06250884,0.67555
679.835,73.12366,-3.19381,0.0709413,0.67279
683.135,73.45594,-3.19517,0.0747308,0.67004
686.435,73.78846,-3.19545,0.08317658,0.66728
689.735,74.1225,-3.19618,0.08913561,0.66451
693.035,74.4563,-3.19846,0.09294164,0.66175
696.335,74.79083,-3.19748,0.09933593,0.65899
699.635,75.12477,-3.20147,0.10383,0.65622
702.935,75.4587,-3.20142,0.10859,0.65346
706.235,75.79281,-3.20162,0.10535,0.65069
709.535,76.1263,-3.20406,0.10761,0.64792
712.835,76.45958,-3.20406,0.11811,0.64516
716.135,76.79265,-3.20419,0.1201,0.64239
719.435,77.12639,-3.20724,0.12252,0.63962
722.735,77.45968,-3.20817,0.13116,0.63685
726.035,77.7925,-3.20745,0.13139,0.63408
729.335,78.1259,-3.20876,0.13696,0.63131
732.635,78.45999,-3.20877,0.13823,0.62854
735.935,78.7946,-3.21042,0.14003,0.62578
739.235,79.12921,-3.21272,0.14079,0.62301
742.535,79.46503,-3.21403,0.14018,0.62024
745.835,79.799,-3.21535,0.14114,0.61747
749.135,80.13249,-3.21534,0.13967,0.6147
752.435,80.46834,-3.21633,0.13827,0.61193
755.735,80.80195,-3.21896,0.14379,0.60917
759.035,81.13569,-3.21868,0.13962,0.6064
762.335,81.4696,-3.21897,0.14534,0.60364
765.635,81.80373,-3.22028,0.14275,0.60087
768.935,82.13849,-3.22032,0.14548,0.59811
772.235,82.4731,-3.2216,0.14525,0.59534
775.535,82.8086,-3.22226,0.14067,0.59258
778.835,83.14367,-3.22357,0.14629,0.58982
782.135,83.47835,-3.22423,0.15004,0.58706
785.435,83.81385,-3.22555,0.14876,0.5843
788.735,84.14939,-3.22687,0.15175,0.58155
792.035,84.4834,-3.22586,0.16078,0.57879
795.335,84.81844,-3.2249,0.16027,0.57604
797.035,84.9905,-3.22686,0.16379,0.57462