Folder: fsri_materials_database/01_Data/Cedar_Shingle/STA/N2/30K_min

Note: 01_Data/README.md
# Materials and Products Database
## 01_Data

Raw data generated from each apparatus are included here in plain-text format. The data is organized first by material, next by the short name of test apparatus used, and where applicable additional filtering by test settings.

### material.json

Each material directory contains a json file of the same name as the material. This file links the data stored in the repository as well as data and graphs produced by the accompanying scripts (__02_Scripts__) to the respective landing page for the material on the front-end website.

File: Cedar_Shingle_STA_N2_30KData_220404_R1.csv
##Temp./Â°C,Time/min,Mass loss(subtr.2)/mg,DSC(subtr.2)/(mW/mg),Sensit./(uV/mW)
48.442,10.00667,-0.03828,0.02110774,1.07508
51.642,10.88374,-0.04086458,0.19222,1.07367
54.842,11.11811,-0.04083994,0.31223,1.07225
58.042,11.29854,-0.04067256,0.40366,1.07081
61.242,11.45425,-0.04262764,0.48243,1.06936
64.442,11.5954,-0.04287511,0.54832,1.0679
67.642,11.72752,-0.04220835,0.60907,1.06643
70.842,11.85373,-0.04281344,0.66294,1.06495
74.042,11.97586,-0.04481756,0.71575,1.06346
77.242,12.09489,-0.04613191,0.75956,1.06196
80.442,12.2112,-0.04609501,0.80773,1.06044
83.642,12.32549,-0.04781718,0.85071,1.05892
86.842,12.43829,-0.04851883,0.89016,1.05739
90.042,12.5496,-0.04975674,0.92923,1.05584
93.242,12.65974,-0.05218761,0.96263,1.05428
96.442,12.76866,-0.05382855,0.99587,1.05272
99.642,12.87698,-0.05551585,1.01926,1.05114
102.842,12.98548,-0.0568198,1.03736,1.04956
106.042,13.09352,-0.06077308,1.04756,1.04796
109.242,13.20174,-0.06167192,1.04877,1.04636
112.442,13.30915,-0.0630698,1.04942,1.04474
115.642,13.4162,-0.06575934,1.04484,1.04312
118.842,13.5229,-0.06736636,1.03661,1.04148
122.042,13.62884,-0.06866908,1.02575,1.03984
125.242,13.73475,-0.06998,1.01659,1.03818
128.442,13.8399,-0.06997985,1.01009,1.03652
131.642,13.94415,-0.07262482,1.00699,1.03485
134.842,14.04845,-0.07523707,1.00415,1.03317
138.042,14.15191,-0.07526559,1.0054,1.03148
141.242,14.25489,-0.07589915,1.01049,1.02978
144.442,14.3571,-0.07669144,1.01738,1.02807
147.642,14.45921,-0.07920757,1.02945,1.02636
150.842,14.5607,-0.08222878,1.0382,1.02463
154.042,14.66205,-0.08314,1.05172,1.0229
157.242,14.7629,-0.08442724,1.0643,1.02116
160.442,14.86377,-0.08512099,1.07592,1.01941
163.642,14.9642,-0.08774959,1.09105,1.01765
166.842,15.0644,-0.0900507,1.10504,1.01589
170.042,15.16448,-0.09154851,1.11844,1.01411
173.242,15.26416,-0.09300924,1.13248,1.01233
176.442,15.3634,-0.09554675,1.14538,1.01054
179.642,15.4626,-0.09754808,1.1587,1.00875
182.842,15.56131,-0.09959985,1.17156,1.00694
186.042,15.65986,-0.10255,1.18508,1.00513
189.242,15.758,-0.10421,1.19823,1.00331
192.442,15.8559,-0.10551,1.2113,1.00148
195.642,15.9536,-0.10916,1.22684,0.99965
198.842,16.0514,-0.11145,1.24117,0.9978
202.042,16.149,-0.11451,1.25757,0.99595
205.242,16.24654,-0.11583,1.27223,0.9941
208.442,16.34398,-0.11882,1.28396,0.99223
211.642,16.44136,-0.12273,1.29887,0.99036
214.842,16.5385,-0.12555,1.31347,0.98849
218.042,16.63526,-0.12871,1.33169,0.9866
221.242,16.73236,-0.13285,1.34507,0.98471
224.442,16.82957,-0.13699,1.36421,0.98282
227.642,16.92675,-0.14062,1.38249,0.98091
230.842,17.02419,-0.14548,1.40163,0.979
234.042,17.12098,-0.14999,1.41578,0.97708
237.242,17.218,-0.15645,1.43618,0.97516
240.442,17.31481,-0.16334,1.45449,0.97323
243.642,17.4117,-0.17048,1.47282,0.9713
246.842,17.50842,-0.17736,1.49005,0.96935
250.042,17.60514,-0.1858,1.50552,0.96741
253.242,17.70201,-0.19399,1.51792,0.96545
256.442,17.79869,-0.20412,1.53025,0.96349
259.642,17.89526,-0.21336,1.53542,0.96153
262.842,17.99178,-0.22374,1.53994,0.95956
266.042,18.08794,-0.2371,1.54228,0.95758
269.242,18.1849,-0.24982,1.54251,0.9556
272.442,18.28122,-0.26361,1.54041,0.95361
275.642,18.37783,-0.28022,1.53303,0.95161
278.842,18.47468,-0.29779,1.52978,0.94961
282.042,18.57134,-0.31425,1.52382,0.94761
285.242,18.66786,-0.33096,1.51577,0.9456
288.442,18.76466,-0.35364,1.5066,0.94358
291.642,18.86145,-0.37539,1.49826,0.94156
294.842,18.9583,-0.39938,1.48975,0.93954
298.042,19.05509,-0.42336,1.47708,0.9375
301.242,19.15201,-0.44666,1.47082,0.93547
304.442,19.2489,-0.47449,1.46138,0.93343
307.642,19.34579,-0.50441,1.45436,0.93138
310.842,19.44282,-0.53272,1.44832,0.92933
314.042,19.53977,-0.56394,1.44498,0.92727
317.242,19.637,-0.59862,1.44701,0.92521
320.442,19.73415,-0.63484,1.44635,0.92314
323.642,19.8313,-0.67313,1.4532,0.92107
326.842,19.92853,-0.71406,1.46357,0.919
330.042,20.02587,-0.75907,1.47614,0.91692
333.242,20.12311,-0.80719,1.49092,0.91483
336.442,20.22056,-0.85881,1.50738,0.91274
339.642,20.31816,-0.91422,1.52918,0.91065
342.842,20.4158,-0.97141,1.5491,0.90855
346.042,20.51345,-1.03452,1.57052,0.90645
349.242,20.61119,-1.09748,1.59228,0.90434
352.442,20.7092,-1.16572,1.61557,0.90223
355.642,20.8075,-1.23633,1.64251,0.90012
358.842,20.90578,-1.31027,1.67974,0.898
362.042,21.00408,-1.38672,1.7251,0.89587
365.242,21.10249,-1.46639,1.78257,0.89374
368.442,21.2011,-1.54949,1.8541,0.89161
371.642,21.29955,-1.63622,1.9317,0.88948
374.842,21.39874,-1.72955,2.01218,0.88734
378.042,21.49776,-1.82729,2.09048,0.88519
381.242,21.5968,-1.93084,2.14956,0.88304
384.442,21.69618,-2.03634,2.17857,0.88089
387.642,21.7956,-2.1434,2.16099,0.87873
390.842,21.89489,-2.24837,2.07969,0.87657
394.042,21.9943,-2.34921,1.92763,0.87441
397.242,22.0937,-2.43973,1.70547,0.87224
400.442,22.19308,-2.51745,1.4252,0.87007
403.642,22.29259,-2.5806,1.11737,0.8679
406.842,22.39196,-2.62776,0.82307,0.86572
410.042,22.49126,-2.66107,0.57704,0.86354
413.242,22.5907,-2.68466,0.40788,0.86135
416.442,22.6904,-2.7008,0.3036,0.85916
419.642,22.79007,-2.71519,0.24386,0.85697
422.842,22.89021,-2.72707,0.20267,0.85477
426.042,22.99033,-2.73815,0.17309,0.85257
429.242,23.0903,-2.74987,0.144,0.85037
432.442,23.19079,-2.76173,0.12327,0.84816
435.642,23.2914,-2.77224,0.09778045,0.84595
438.842,23.39189,-2.78352,0.07561854,0.84374
442.042,23.49277,-2.7941,0.05393033,0.84152
445.242,23.59349,-2.80326,0.03696942,0.8393
448.442,23.69451,-2.81339,0.0212469,0.83707
451.642,23.79563,-2.82248,0.01284921,0.83485
454.842,23.89685,-2.83117,0.008602176,0.83262
458.042,23.9983,-2.841,0.01501618,0.83038
461.242,24.09981,-2.85038,0.02689833,0.82815
464.442,24.20125,-2.85821,0.03822632,0.82591
467.642,24.3029,-2.86637,0.06172007,0.82367
470.842,24.40455,-2.87545,0.08965345,0.82142
474.042,24.50629,-2.88239,0.11886,0.81917
477.242,24.60817,-2.89055,0.14788,0.81692
480.442,24.70995,-2.89567,0.17989,0.81466
483.642,24.81172,-2.90249,0.20353,0.81241
486.842,24.9138,-2.90961,0.23042,0.81015
490.042,25.016,-2.91561,0.25623,0.80788
493.242,25.11821,-2.92004,0.27657,0.80562
496.442,25.22029,-2.92569,0.29141,0.80335
499.642,25.32271,-2.93232,0.30554,0.80107
502.842,25.4249,-2.93849,0.31727,0.7988
506.042,25.52745,-2.94145,0.3331,0.79652
509.242,25.63009,-2.94579,0.33911,0.79424
512.442,25.7324,-2.95023,0.34649,0.79196
515.642,25.83504,-2.95307,0.34997,0.78967
518.842,25.93778,-2.95692,0.35585,0.78738
522.042,26.0404,-2.96087,0.35877,0.78509
525.242,26.14299,-2.96523,0.36328,0.78279
528.442,26.2456,-2.96962,0.36288,0.7805
531.642,26.34842,-2.97323,0.36514,0.7782
534.842,26.4512,-2.97787,0.36531,0.7759
538.042,26.55402,-2.98146,0.36654,0.77359
541.242,26.65689,-2.98404,0.3671,0.77128
544.442,26.75975,-2.98686,0.37327,0.76897
547.642,26.8628,-2.9895,0.37801,0.76666
550.842,26.96592,-2.99233,0.38318,0.76435
554.042,27.06927,-2.9965,0.38567,0.76203
557.242,27.1728,-2.99973,0.39008,0.75971
560.442,27.2764,-3.00404,0.38686,0.75739
563.642,27.38012,-3.00672,0.38735,0.75506
566.842,27.4838,-3.00933,0.38442,0.75273
570.042,27.58741,-3.01363,0.38785,0.7504
573.242,27.6917,-3.01509,0.38013,0.74807
576.442,27.79547,-3.01774,0.37807,0.74574
579.642,27.8999,-3.02043,0.37393,0.7434
582.842,28.00488,-3.02343,0.36734,0.74106
586.042,28.10923,-3.02727,0.36382,0.73872
589.242,28.2138,-3.02864,0.36231,0.73638
592.442,28.3186,-3.0312,0.36108,0.73403
595.642,28.42339,-3.03447,0.35667,0.73169
598.842,28.5282,-3.03674,0.35225,0.72934
602.042,28.6331,-3.03884,0.3495,0.72699
605.242,28.7381,-3.04161,0.35241,0.72463
608.442,28.8432,-3.04316,0.3498,0.72228
611.642,28.94803,-3.04557,0.35019,0.71992
614.842,29.0534,-3.04949,0.34705,0.71756
618.042,29.1586,-3.05082,0.3423,0.7152
621.242,29.26395,-3.05508,0.3413,0.71283
624.442,29.36908,-3.0564,0.337,0.71047
627.642,29.4745,-3.05875,0.33705,0.7081
630.842,29.57998,-3.06101,0.33292,0.70573
634.042,29.6855,-3.06223,0.33109,0.70336
637.242,29.79096,-3.06463,0.3299,0.70099
640.442,29.8964,-3.06737,0.32882,0.69861
643.642,30.00188,-3.06869,0.32337,0.69624
646.842,30.10734,-3.07143,0.32086,0.69386
650.042,30.21313,-3.07274,0.31938,0.69148
653.242,30.31885,-3.07457,0.31572,0.68909
656.442,30.42448,-3.07626,0.31405,0.68671
659.642,30.5303,-3.0788,0.31245,0.68433
662.842,30.6361,-3.08006,0.31021,0.68194
666.042,30.7418,-3.08278,0.31256,0.67955
669.242,30.8476,-3.08273,0.31313,0.67716
672.442,30.95337,-3.08405,0.31656,0.67477
675.642,31.05923,-3.08668,0.31431,0.67238
678.842,31.16508,-3.08883,0.31526,0.66998
682.042,31.27088,-3.09006,0.3131,0.66759
685.242,31.3768,-3.09158,0.31695,0.66519
688.442,31.48292,-3.09194,0.31426,0.66279
691.642,31.58881,-3.09331,0.31571,0.66039
694.842,31.6946,-3.09457,0.31625,0.65799
698.042,31.80082,-3.09497,0.31975,0.65559
701.242,31.907,-3.0972,0.32275,0.65318
704.442,32.01316,-3.09852,0.32677,0.65078
707.642,32.1196,-3.09984,0.32417,0.64837
710.842,32.22607,-3.10113,0.32943,0.64597
714.042,32.3326,-3.10209,0.33206,0.64356
717.242,32.43897,-3.10337,0.33302,0.64115
720.442,32.54544,-3.1051,0.3372,0.63874
723.642,32.65201,-3.10511,0.33986,0.63633
726.842,32.75867,-3.10642,0.34328,0.63391
730.042,32.86542,-3.10774,0.34414,0.6315
733.242,32.97214,-3.10906,0.34091,0.62909
736.442,33.0788,-3.10904,0.34666,0.62667
739.642,33.18561,-3.11037,0.34734,0.62425
742.842,33.29233,-3.11167,0.34829,0.62184
746.042,33.3993,-3.113,0.35048,0.61942
749.242,33.50612,-3.11432,0.3531,0.617
752.442,33.6128,-3.11563,0.347,0.61458
755.642,33.7194,-3.11564,0.34782,0.61216
758.842,33.8264,-3.11696,0.34545,0.60974
762.042,33.93309,-3.11761,0.34298,0.60732
765.242,34.04013,-3.11893,0.33891,0.6049
768.442,34.147,-3.12027,0.34182,0.60248
771.642,34.25411,-3.12156,0.3391,0.60006
774.842,34.36125,-3.1209,0.33704,0.59764
778.042,34.4683,-3.12236,0.33923,0.59521
781.242,34.57544,-3.12432,0.33222,0.59279
784.442,34.6828,-3.12562,0.33302,0.59037
787.642,34.7901,-3.12589,0.334,0.58794
790.842,34.89732,-3.12693,0.33422,0.58552
793.842,34.99785,-3.12694,0.32825,0.58325

File: Cedar_Shingle_STA_N2_30KData_220405_R2.csv
##Temp./Â°C,Time/min,Mass loss(subtr.2)/mg,DSC(subtr.2)/(mW/mg),Sensit./(uV/mW)
48.464,10.00667,-0.00142,0.01526909,1.07507
51.664,10.88588,-0.001105914,0.14822,1.07366
54.864,11.11945,-0.0009404601,0.24368,1.07224
58.064,11.2996,-0.001111464,0.32073,1.0708
61.264,11.45527,-0.000231698,0.3828,1.06935
64.464,11.59652,0.000852027,0.43736,1.06789
67.664,11.7289,-0.002969577,0.48779,1.06642
70.864,11.85512,-0.003510502,0.52986,1.06494
74.064,11.97725,-0.002332845,0.5724,1.06345
77.264,12.09632,-0.00377159,0.60691,1.06195
80.464,12.2129,-0.001902436,0.64368,1.06043
83.664,12.32724,-0.00405972,0.67715,1.05891
86.864,12.43958,-0.007343631,0.71135,1.05737
90.064,12.5513,-0.00731309,0.73877,1.05583
93.264,12.66127,-0.009981464,0.76547,1.05427
96.464,12.7706,-0.0106937,0.78606,1.05271
99.664,12.87915,-0.01097566,0.80364,1.05113
102.864,12.98718,-0.01260996,0.81582,1.04955
106.064,13.09486,-0.01393895,0.8195,1.04795
109.264,13.2022,-0.0175401,0.82054,1.04634
112.464,13.3094,-0.01884609,0.81626,1.04473
115.664,13.41651,-0.02018026,0.80924,1.0431
118.864,13.52319,-0.02183354,0.79938,1.04147
122.064,13.62904,-0.0231401,0.78869,1.03983
125.264,13.73456,-0.02139155,0.78396,1.03817
128.464,13.83966,-0.0244588,0.78071,1.03651
131.664,13.9442,-0.0267502,0.78015,1.03484
134.864,14.0482,-0.02793062,0.78579,1.03316
138.064,14.1517,-0.02972,0.79018,1.03147
141.264,14.25479,-0.02971996,0.79852,1.02977
144.464,14.35728,-0.03104,0.8046,1.02806
147.664,14.45938,-0.0323585,0.81267,1.02635
150.864,14.561,-0.03369904,0.82289,1.02462
154.064,14.6627,-0.03564,0.83299,1.02289
157.264,14.76379,-0.03760783,0.84293,1.02115
160.464,14.86459,-0.03893,0.85265,1.0194
163.664,14.96531,-0.040247,0.86383,1.01764
166.864,15.0656,-0.0434032,0.87417,1.01588
170.064,15.1659,-0.04479893,0.88365,1.0141
173.264,15.2657,-0.04679125,0.89259,1.01232
176.464,15.36532,-0.04806842,0.90437,1.01053
179.664,15.4646,-0.04945243,0.9153,1.00873
182.864,15.5636,-0.05346651,0.92772,1.00693
186.064,15.66203,-0.05347281,0.93853,1.00512
189.264,15.76041,-0.05687212,0.95146,1.0033
192.464,15.8584,-0.05878996,0.96531,1.00147
195.664,15.95625,-0.06112082,0.97703,0.99963
198.864,16.05402,-0.06404661,0.98802,0.99779
202.064,16.15173,-0.06549391,1.00076,0.99594
205.264,16.2493,-0.0682325,1.01357,0.99409
208.464,16.3466,-0.07019168,1.02742,0.99222
211.664,16.44409,-0.07349706,1.03965,0.99035
214.864,16.54146,-0.07725458,1.05731,0.98847
218.064,16.63853,-0.07975926,1.0693,0.98659
221.264,16.73584,-0.08266835,1.08572,0.9847
224.464,16.83288,-0.08577433,1.10209,0.9828
227.664,16.92977,-0.09167809,1.11935,0.9809
230.864,17.02686,-0.09619364,1.13663,0.97899
234.064,17.1238,-0.10172,1.1537,0.97707
237.264,17.2208,-0.10769,1.1713,0.97515
240.464,17.31757,-0.11415,1.18683,0.97322
243.664,17.41423,-0.12113,1.20469,0.97128
246.864,17.511,-0.1282,1.22089,0.96934
250.064,17.60782,-0.13687,1.23453,0.96739
253.264,17.70436,-0.14561,1.24638,0.96544
256.464,17.80111,-0.15614,1.25968,0.96348
259.664,17.89767,-0.16676,1.26902,0.96151
262.864,17.99404,-0.17705,1.2723,0.95954
266.064,18.09086,-0.19142,1.27837,0.95757
269.264,18.18754,-0.20422,1.2773,0.95558
272.464,18.2842,-0.21983,1.27958,0.95359
275.664,18.3807,-0.23612,1.2776,0.9516
278.864,18.47738,-0.25383,1.26981,0.9496
282.064,18.5741,-0.27186,1.26551,0.94759
285.264,18.6708,-0.29081,1.26226,0.94558
288.464,18.76762,-0.31246,1.25689,0.94357
291.664,18.86448,-0.33502,1.25281,0.94155
294.864,18.96133,-0.3602,1.24376,0.93952
298.064,19.05818,-0.38632,1.23532,0.93749
301.264,19.15525,-0.41076,1.2281,0.93545
304.464,19.25214,-0.43826,1.21922,0.93341
307.664,19.34897,-0.46877,1.21769,0.93137
310.864,19.44603,-0.50039,1.21724,0.92931
314.064,19.54305,-0.53296,1.21748,0.92726
317.264,19.64014,-0.56701,1.2238,0.9252
320.464,19.73721,-0.6033,1.23313,0.92313
323.664,19.83448,-0.64533,1.24707,0.92106
326.864,19.93186,-0.68783,1.26138,0.91898
330.064,20.02929,-0.73402,1.28173,0.9169
333.264,20.1268,-0.78367,1.30301,0.91482
336.464,20.22435,-0.83684,1.33295,0.91273
339.664,20.32207,-0.89444,1.35574,0.91064
342.864,20.41998,-0.95447,1.38588,0.90854
346.064,20.5178,-1.01722,1.4175,0.90644
349.264,20.61609,-1.08638,1.45057,0.90433
352.464,20.71388,-1.15549,1.48793,0.90222
355.664,20.81212,-1.22798,1.52641,0.9001
358.864,20.91071,-1.3032,1.5709,0.89798
362.064,21.00917,-1.3815,1.62527,0.89586
365.264,21.10835,-1.46451,1.69233,0.89373
368.464,21.20715,-1.54996,1.76057,0.8916
371.664,21.3061,-1.64219,1.84582,0.88946
374.864,21.4052,-1.73739,1.93162,0.88732
378.064,21.50441,-1.8378,2.0113,0.88518
381.264,21.6036,-1.94294,2.0807,0.88303
384.464,21.70269,-2.05042,2.12119,0.88088
387.664,21.80235,-2.16225,2.12259,0.87872
390.864,21.90175,-2.27036,2.06125,0.87656
394.064,22.00142,-2.37569,1.92584,0.8744
397.264,22.10089,-2.47153,1.71928,0.87223
400.464,22.20037,-2.55442,1.44039,0.87006
403.664,22.29964,-2.62158,1.12426,0.86788
406.864,22.3989,-2.67343,0.80824,0.8657
410.064,22.49814,-2.71053,0.54134,0.86352
413.264,22.59723,-2.73493,0.35038,0.86133
416.464,22.69666,-2.75193,0.22783,0.85914
419.664,22.79645,-2.76637,0.1542,0.85695
422.864,22.8961,-2.77836,0.11304,0.85476
426.064,22.99578,-2.79121,0.07308784,0.85256
429.264,23.0956,-2.80333,0.04562038,0.85035
432.464,23.1958,-2.81452,0.01690667,0.84814
435.664,23.2961,-2.82535,-0.007087256,0.84593
438.864,23.39643,-2.8335,-0.03606693,0.84372
442.064,23.49689,-2.84488,-0.05937877,0.8415
445.264,23.59753,-2.85317,-0.07675828,0.83928
448.464,23.69809,-2.86404,-0.09505365,0.83706
451.664,23.79918,-2.8731,-0.10786,0.83483
454.864,23.90009,-2.88211,-0.10933,0.8326
458.064,24.00123,-2.89159,-0.10835,0.83037
461.264,24.10226,-2.90119,-0.09847398,0.82813
464.464,24.20351,-2.9089,-0.08436615,0.82589
467.664,24.3049,-2.91641,-0.06070257,0.82365
470.864,24.40643,-2.92532,-0.03626162,0.8214
474.064,24.50809,-2.93293,-0.00438083,0.81916
477.264,24.60981,-2.93954,0.02421234,0.8169
480.464,24.71151,-2.9459,0.05552362,0.81465
483.664,24.81334,-2.95428,0.08450197,0.81239
486.864,24.91529,-2.95916,0.11233,0.81013
490.064,25.01728,-2.96398,0.13828,0.80787
493.264,25.11942,-2.97074,0.16324,0.8056
496.464,25.22156,-2.97553,0.17927,0.80333
499.664,25.3235,-2.98245,0.19513,0.80106
502.864,25.42592,-2.98716,0.20934,0.79878
506.064,25.52843,-2.99147,0.21945,0.7965
509.264,25.63094,-2.9958,0.23122,0.79422
512.464,25.73333,-3.00013,0.23719,0.79194
515.664,25.83586,-3.00461,0.24236,0.78965
518.864,25.9387,-3.00842,0.24824,0.78736
522.064,26.0413,-3.01244,0.2524,0.78507
525.264,26.14406,-3.01719,0.25811,0.78278
528.464,26.247,-3.02186,0.25733,0.78048
531.664,26.35013,-3.02506,0.25888,0.77818
534.864,26.4532,-3.03005,0.25843,0.77588
538.064,26.55629,-3.03084,0.25701,0.77357
541.264,26.6597,-3.03347,0.25821,0.77127
544.464,26.763,-3.0385,0.25783,0.76896
547.664,26.8665,-3.04346,0.25812,0.76664
550.864,26.96997,-3.04586,0.25639,0.76433
554.064,27.07371,-3.04795,0.25773,0.76201
557.264,27.17742,-3.05002,0.26168,0.75969
560.464,27.28122,-3.05562,0.26229,0.75737
563.664,27.385,-3.05839,0.26835,0.75504
566.864,27.48917,-3.0625,0.26958,0.75272
570.064,27.59335,-3.06374,0.27344,0.75039
573.264,27.69753,-3.06664,0.27472,0.74806
576.464,27.8019,-3.06794,0.27542,0.74572
579.664,27.90608,-3.07197,0.27406,0.74339
582.864,28.0106,-3.07493,0.27404,0.74105
586.064,28.11515,-3.07865,0.27126,0.73871
589.264,28.2196,-3.07997,0.2693,0.73636
592.464,28.3244,-3.08377,0.2679,0.73402
595.664,28.42923,-3.08645,0.26736,0.73167
598.864,28.5339,-3.08908,0.26368,0.72932
602.064,28.63894,-3.0904,0.26131,0.72697
605.264,28.7441,-3.09304,0.26071,0.72462
608.464,28.8491,-3.09566,0.25863,0.72226
611.664,28.95427,-3.09841,0.25759,0.7199
614.864,29.05937,-3.09972,0.25537,0.71754
618.064,29.1647,-3.10104,0.25671,0.71518
621.264,29.2699,-3.10414,0.25573,0.71282
624.464,29.37528,-3.10649,0.25502,0.71045
627.664,29.48037,-3.10963,0.25051,0.70808
630.864,29.58557,-3.112,0.25061,0.70572
634.064,29.69112,-3.11474,0.24863,0.70334
637.264,29.7966,-3.11495,0.24289,0.70097
640.464,29.90199,-3.1176,0.24391,0.6986
643.664,30.00736,-3.11996,0.24124,0.69622
646.864,30.11298,-3.12185,0.2403,0.69384
650.064,30.2184,-3.12417,0.23913,0.69146
653.264,30.32388,-3.12516,0.23957,0.68908
656.464,30.42949,-3.12782,0.23676,0.68669
659.664,30.53505,-3.12914,0.23542,0.68431
662.864,30.64071,-3.13176,0.23168,0.68192
666.064,30.7462,-3.13207,0.23866,0.67953
669.264,30.8521,-3.13472,0.23767,0.67714
672.464,30.95782,-3.13472,0.23826,0.67475
675.664,31.06375,-3.13702,0.24142,0.67236
678.864,31.16958,-3.13714,0.23662,0.66997
682.064,31.2753,-3.13977,0.24296,0.66757
685.264,31.3815,-3.14107,0.24514,0.66517
688.464,31.48746,-3.14371,0.24784,0.66277
691.664,31.5937,-3.14503,0.24739,0.66037
694.864,31.6995,-3.14502,0.25019,0.65797
698.064,31.80568,-3.14634,0.2555,0.65557
701.264,31.91195,-3.14481,0.25392,0.65317
704.464,32.01814,-3.14903,0.25681,0.65076
707.664,32.1245,-3.14951,0.26191,0.64836
710.864,32.23083,-3.15187,0.26105,0.64595
714.064,32.33745,-3.15183,0.26279,0.64354
717.264,32.44396,-3.15315,0.26675,0.64113
720.464,32.55046,-3.15346,0.2639,0.63872
723.664,32.65698,-3.15446,0.27106,0.63631
726.864,32.76365,-3.15541,0.27363,0.6339
730.064,32.87027,-3.15577,0.27067,0.63148
733.264,32.97707,-3.15683,0.27545,0.62907
736.464,33.0837,-3.15811,0.27701,0.62665
739.664,33.19042,-3.15873,0.27632,0.62424
742.864,33.29732,-3.16038,0.27835,0.62182
746.064,33.40425,-3.16136,0.26909,0.6194
749.264,33.51105,-3.16263,0.26896,0.61699
752.464,33.61785,-3.16171,0.26921,0.61457
755.664,33.7248,-3.16301,0.27197,0.61215
758.864,33.83182,-3.16433,0.26786,0.60973
762.064,33.93889,-3.16558,0.2638,0.60731
765.264,34.04586,-3.16696,0.26381,0.60488
768.464,34.15262,-3.16828,0.25835,0.60246
771.664,34.2598,-3.16827,0.25772,0.60004
774.864,34.36697,-3.17091,0.25509,0.59762
778.064,34.47404,-3.17187,0.25341,0.5952
781.264,34.5812,-3.17221,0.24968,0.59277
784.464,34.68848,-3.17321,0.24486,0.59035
787.664,34.7957,-3.17416,0.24859,0.58793
790.864,34.90282,-3.17453,0.24439,0.5855
793.664,34.997,-3.17492,0.24377,0.58338