Folder: fsri_materials_database/01_Data/Cedar_Shingle/STA/N2/30K_min (part 2)

File: Cedar_Shingle_STA_N2_30KData_220405_R3.csv
##Temp./Â°C,Time/min,Mass loss(subtr.2)/mg,DSC(subtr.2)/(mW/mg),Sensit./(uV/mW)
48.484,10.00667,-0.02863,0.01969332,1.07506
51.684,10.88517,-0.02919857,0.19338,1.07365
54.884,11.1191,-0.02947027,0.31086,1.07223
58.084,11.2994,-0.0293454,0.40608,1.07079
61.284,11.45478,-0.02992097,0.48029,1.06934
64.484,11.59609,-0.03276128,0.54799,1.06788
67.684,11.7277,-0.03251118,0.60569,1.06641
70.884,11.85413,-0.03356134,0.65605,1.06493
74.084,11.97605,-0.03250344,0.70886,1.06344
77.284,12.09577,-0.03363336,0.754,1.06194
80.484,12.21238,-0.03397761,0.79799,1.06042
83.684,12.32705,-0.03673917,0.83895,1.0589
86.884,12.4396,-0.03684977,0.87667,1.05737
90.084,12.55067,-0.03961539,0.90932,1.05582
93.284,12.661,-0.04093332,0.94234,1.05426
96.484,12.7704,-0.04359472,0.96411,1.0527
99.684,12.8789,-0.04479916,0.98318,1.05112
102.884,12.9872,-0.04661611,0.99438,1.04954
106.084,13.09477,-0.04792326,0.99994,1.04794
109.284,13.20258,-0.04983026,0.99998,1.04633
112.484,13.3096,-0.05056977,0.99615,1.04472
115.684,13.41664,-0.05321025,0.98713,1.04309
118.884,13.523,-0.05452,0.97627,1.04146
122.084,13.62931,-0.05680756,0.96953,1.03982
125.284,13.73415,-0.05585709,0.96515,1.03816
128.484,13.8394,-0.05715,0.96057,1.0365
131.684,13.94391,-0.05813632,0.95518,1.03483
134.884,14.0473,-0.05977978,0.95736,1.03315
138.084,14.1511,-0.06242006,0.96365,1.03146
141.284,14.2541,-0.06175591,0.96795,1.02976
144.484,14.35736,-0.0643902,0.97601,1.02805
147.684,14.45924,-0.06570986,0.98519,1.02634
150.884,14.56085,-0.06807268,0.99471,1.02461
154.084,14.6623,-0.06964982,1.00778,1.02288
157.284,14.76315,-0.07106975,1.01885,1.02114
160.484,14.86409,-0.07339169,1.033,1.01939
163.684,14.96486,-0.07471091,1.04302,1.01763
166.884,15.0651,-0.0781753,1.05148,1.01586
170.084,15.16509,-0.07734084,1.06338,1.01409
173.284,15.26485,-0.08007755,1.07479,1.01231
176.484,15.3645,-0.08238029,1.08755,1.01052
179.684,15.46355,-0.08502746,1.0994,1.00872
182.884,15.5624,-0.0866472,1.11007,1.00692
186.084,15.66092,-0.08797362,1.11915,1.0051
189.284,15.75929,-0.09059723,1.13508,1.00328
192.484,15.85714,-0.09191632,1.14535,1.00146
195.684,15.95515,-0.09458818,1.15934,0.99962
198.884,16.05286,-0.09861017,1.16979,0.99778
202.084,16.15046,-0.10109,1.17969,0.99593
205.284,16.24804,-0.10141,1.19474,0.99407
208.484,16.34553,-0.10607,1.20637,0.99221
211.684,16.4428,-0.10942,1.2192,0.99034
214.884,16.54031,-0.11201,1.23234,0.98846
218.084,16.6375,-0.11489,1.24533,0.98658
221.284,16.73475,-0.11908,1.2617,0.98469
224.484,16.83205,-0.1221,1.27605,0.98279
227.684,16.92892,-0.12611,1.2916,0.98089
230.884,17.0259,-0.13034,1.30672,0.97898
234.084,17.12303,-0.13672,1.32479,0.97706
237.284,17.21936,-0.14271,1.33771,0.97514
240.484,17.31687,-0.14915,1.3551,0.97321
243.684,17.41347,-0.1572,1.36859,0.97127
246.884,17.51051,-0.16377,1.38391,0.96933
250.084,17.60741,-0.17259,1.39753,0.96738
253.284,17.70429,-0.18095,1.40901,0.96543
256.484,17.80118,-0.19081,1.42023,0.96347
259.684,17.89793,-0.20232,1.42845,0.9615
262.884,17.99469,-0.21227,1.43376,0.95953
266.084,18.09141,-0.22652,1.4365,0.95755
269.284,18.18818,-0.23875,1.43564,0.95557
272.484,18.28496,-0.25295,1.43257,0.95358
275.684,18.38167,-0.27032,1.42879,0.95159
278.884,18.4786,-0.28672,1.42716,0.94959
282.084,18.57529,-0.30445,1.4218,0.94758
285.284,18.67207,-0.32517,1.4137,0.94557
288.484,18.76901,-0.34587,1.40872,0.94356
291.684,18.8658,-0.36914,1.40093,0.94153
294.884,18.96266,-0.39153,1.38916,0.93951
298.084,19.05969,-0.41574,1.38322,0.93748
301.284,19.15663,-0.44322,1.37277,0.93544
304.484,19.2538,-0.46983,1.3679,0.9334
307.684,19.35065,-0.49851,1.36547,0.93135
310.884,19.44787,-0.53167,1.36434,0.9293
314.084,19.54496,-0.56399,1.36441,0.92724
317.284,19.6422,-0.59629,1.36644,0.92518
320.484,19.73939,-0.63604,1.37343,0.92312
323.684,19.83674,-0.67415,1.38338,0.92105
326.884,19.934,-0.71729,1.39639,0.91897
330.084,20.0315,-0.76242,1.41249,0.91689
333.284,20.1291,-0.81126,1.42985,0.91481
336.484,20.22674,-0.8636,1.45196,0.91272
339.684,20.3246,-0.92195,1.47387,0.91062
342.884,20.4224,-0.98324,1.49913,0.90852
346.084,20.5202,-1.04142,1.52289,0.90642
349.284,20.6183,-1.10971,1.5466,0.90432
352.484,20.7166,-1.17759,1.57249,0.9022
355.684,20.81475,-1.24825,1.60325,0.90009
358.884,20.91317,-1.32434,1.63717,0.89797
362.084,21.01173,-1.39978,1.6794,0.89584
365.284,21.11045,-1.48146,1.73765,0.89372
368.484,21.20883,-1.56787,1.8041,0.89158
371.684,21.30786,-1.65592,1.88523,0.88945
374.884,21.4067,-1.75171,1.97184,0.88731
378.084,21.50564,-1.84809,2.05982,0.88516
381.284,21.60475,-1.95373,2.12865,0.88301
384.484,21.704,-2.05607,2.17081,0.88086
387.684,21.80317,-2.16637,2.16946,0.87871
390.884,21.9025,-2.27344,2.10318,0.87655
394.084,22.00159,-2.37431,1.96078,0.87438
397.284,22.10088,-2.47204,1.7423,0.87221
400.484,22.2,-2.55263,1.45298,0.87004
403.684,22.29898,-2.6194,1.12831,0.86787
406.884,22.398,-2.66798,0.80828,0.86569
410.084,22.497,-2.70283,0.5332,0.86351
413.284,22.59599,-2.72741,0.33484,0.86132
416.484,22.69511,-2.74539,0.21304,0.85913
419.684,22.79476,-2.7583,0.1426,0.85694
422.884,22.89415,-2.76983,0.0973455,0.85474
426.084,22.99394,-2.78251,0.06316219,0.85254
429.284,23.09392,-2.79244,0.03224188,0.85034
432.484,23.19381,-2.80417,0.00508441,0.84813
435.684,23.29406,-2.81454,-0.02084384,0.84592
438.884,23.39432,-2.82414,-0.04922407,0.84371
442.084,23.49465,-2.83469,-0.0716166,0.84149
445.284,23.59481,-2.84422,-0.09351479,0.83927
448.484,23.69585,-2.85499,-0.10831,0.83705
451.684,23.79682,-2.86574,-0.1211,0.83482
454.884,23.89779,-2.8735,-0.12783,0.83259
458.084,23.99907,-2.88086,-0.12707,0.83036
461.284,24.10035,-2.89057,-0.118,0.82812
464.484,24.20166,-2.90103,-0.10163,0.82588
467.684,24.30313,-2.90861,-0.08187126,0.82364
470.884,24.4048,-2.91594,-0.05699803,0.82139
474.084,24.50649,-2.92149,-0.0272973,0.81914
477.284,24.60836,-2.92814,0.00222822,0.81689
480.484,24.7104,-2.93628,0.03056768,0.81463
483.684,24.8122,-2.94385,0.06248072,0.81238
486.884,24.9143,-2.94956,0.08930267,0.81012
490.084,25.0164,-2.95488,0.11203,0.80785
493.284,25.1187,-2.96017,0.13034,0.80559
496.484,25.22087,-2.96466,0.14562,0.80332
499.684,25.32327,-2.96988,0.16085,0.80104
502.884,25.42566,-2.97482,0.17105,0.79877
506.084,25.5281,-2.98074,0.18403,0.79649
509.284,25.63055,-2.98411,0.18994,0.79421
512.484,25.73309,-2.98817,0.19893,0.79193
515.684,25.83578,-2.99352,0.20226,0.78964
518.884,25.9387,-2.99819,0.20621,0.78735
522.084,26.0411,-3.00038,0.20622,0.78506
525.284,26.14426,-3.0033,0.21342,0.78276
528.484,26.24714,-3.0076,0.21024,0.78047
531.684,26.3501,-3.01291,0.20987,0.77817
534.884,26.45345,-3.01714,0.20747,0.77586
538.084,26.5565,-3.01878,0.20559,0.77356
541.284,26.65989,-3.02142,0.20801,0.77125
544.484,26.76318,-3.02553,0.20827,0.76894
547.684,26.8665,-3.02822,0.20998,0.76663
550.884,26.9698,-3.03343,0.2098,0.76431
554.084,27.07415,-3.03505,0.21077,0.762
557.284,27.17795,-3.03873,0.20993,0.75968
560.484,27.28192,-3.04123,0.21064,0.75736
563.684,27.38601,-3.04566,0.20923,0.75503
566.884,27.4901,-3.04769,0.20427,0.7527
570.084,27.5941,-3.05037,0.20325,0.75037
573.284,27.6986,-3.05308,0.19886,0.74804
576.484,27.80283,-3.05571,0.1924,0.74571
579.684,27.90728,-3.05849,0.19476,0.74337
582.884,28.0118,-3.06045,0.18139,0.74103
586.084,28.11615,-3.06451,0.17968,0.73869
589.284,28.221,-3.0672,0.17525,0.73635
592.484,28.32572,-3.069,0.16742,0.734
595.684,28.4304,-3.07273,0.15815,0.73166
598.884,28.5351,-3.07548,0.15594,0.72931
602.084,28.63999,-3.07747,0.15139,0.72696
605.284,28.74493,-3.08026,0.14676,0.7246
608.484,28.8499,-3.07823,0.14209,0.72225
611.684,28.9551,-3.08558,0.13795,0.71989
614.884,29.0601,-3.08854,0.13425,0.71753
618.084,29.16538,-3.09019,0.12778,0.71517
621.284,29.2705,-3.09151,0.12503,0.7128
624.484,29.37595,-3.09419,0.11774,0.71044
627.684,29.4813,-3.09688,0.11144,0.70807
630.884,29.58655,-3.09951,0.10706,0.7057
634.084,29.69218,-3.10051,0.1005,0.70333
637.284,29.79748,-3.10124,0.09519504,0.70096
640.484,29.9028,-3.10411,0.09329062,0.69858
643.684,30.00845,-3.10489,0.08761344,0.6962
646.884,30.11407,-3.10949,0.08127259,0.69383
650.084,30.2196,-3.11081,0.07753915,0.69145
653.284,30.3253,-3.11209,0.06958097,0.68906
656.484,30.43082,-3.11214,0.06684876,0.68668
659.684,30.53655,-3.11487,0.0609975,0.68429
662.884,30.64218,-3.11755,0.05802414,0.68191
666.084,30.7479,-3.11751,0.06113224,0.67952
669.284,30.8536,-3.11781,0.05646977,0.67713
672.484,30.95941,-3.12222,0.05353409,0.67474
675.684,31.06516,-3.12353,0.05052913,0.67235
678.884,31.17097,-3.12222,0.05123639,0.66995
682.084,31.2768,-3.12499,0.05145845,0.66756
685.284,31.3826,-3.12628,0.0489578,0.66516
688.484,31.48855,-3.1276,0.04845201,0.66276
691.684,31.59445,-3.12812,0.04814661,0.66036
694.884,31.7006,-3.13067,0.04875971,0.65796
698.084,31.8068,-3.13067,0.05146928,0.65556
701.284,31.91283,-3.1333,0.05115712,0.65315
704.484,32.01883,-3.13329,0.05030689,0.65075
707.684,32.12543,-3.13527,0.05458539,0.64834
710.884,32.232,-3.13528,0.05461996,0.64593
714.084,32.33853,-3.13659,0.05805912,0.64353
717.284,32.445,-3.13801,0.05604799,0.64112
720.484,32.55186,-3.13922,0.05204751,0.63871
723.684,32.6584,-3.14181,0.05877469,0.63629
726.884,32.765,-3.14054,0.05375947,0.63388
730.084,32.87177,-3.14185,0.05573656,0.63147
733.284,32.9785,-3.14254,0.04679316,0.62905
736.484,33.08526,-3.14383,0.04853254,0.62664
739.684,33.192,-3.14466,0.04769842,0.62422
742.884,33.29898,-3.14514,0.04279412,0.62181
746.084,33.40599,-3.14646,0.0394158,0.61939
749.284,33.51295,-3.14778,0.03805031,0.61697
752.484,33.61995,-3.14778,0.03475535,0.61455
755.684,33.72697,-3.1491,0.03062048,0.61213
758.884,33.8341,-3.15041,0.02268096,0.60971
762.084,33.94101,-3.15173,0.02311653,0.60729
765.284,34.0481,-3.15256,0.01785508,0.60487
768.484,34.15542,-3.15304,0.01605265,0.60245
771.684,34.26269,-3.15436,0.009981865,0.60003
774.884,34.36955,-3.15567,0.01089455,0.5976
778.084,34.47743,-3.15604,0.001938117,0.59518
781.284,34.58475,-3.15567,0.0001230521,0.59276
784.484,34.69198,-3.15699,0.003043181,0.59033
787.684,34.79939,-3.15963,0.000466986,0.58791
790.884,34.90679,-3.15931,-0.00354091,0.58549
793.584,34.99779,-3.15963,-0.006134518,0.58344