Folder: fsri_materials_database/01_Data/Cedar_Shingle/STA/N2/3K_min

Note: 01_Data/README.md
# Materials and Products Database
## 01_Data

Raw data generated from each apparatus are included here in plain-text format. The data is organized first by material, next by the short name of test apparatus used, and where applicable additional filtering by test settings.

### material.json

Each material directory contains a json file of the same name as the material. This file links the data stored in the repository as well as data and graphs produced by the accompanying scripts (__02_Scripts__) to the respective landing page for the material on the front-end website.

File: Cedar_Shingle_STA_N2_3KData_220405_R1.csv
##Temp./Â°C,Time/min,Mass loss(subtr.2)/mg,DSC(subtr.2)/(mW/mg),Sensit./(uV/mW)
50.466,10.0158,-0.03784,0.000551713,1.05027
53.666,12.31905,-0.04520468,0.05685517,1.0497
56.866,13.52539,-0.04718404,0.06799888,1.04911
60.066,14.67085,-0.0504595,0.07419095,1.0485
63.266,15.78224,-0.05341745,0.0816781,1.04788
66.466,16.87229,-0.05826541,0.0859247,1.04724
69.666,17.95665,-0.06105938,0.08900298,1.04659
72.866,19.03111,-0.06428006,0.09079932,1.04592
76.066,20.1019,-0.06720382,0.08874821,1.04523
79.266,21.17428,-0.06941842,0.08822522,1.04453
82.466,22.23816,-0.07316991,0.08475002,1.04381
85.666,23.30421,-0.07514003,0.08228844,1.04307
88.866,24.37527,-0.07776948,0.08242051,1.04232
92.066,25.44193,-0.08071919,0.07857224,1.04155
95.266,26.50693,-0.0827007,0.0804251,1.04077
98.466,27.5691,-0.08575319,0.08116138,1.03997
101.666,28.6327,-0.08699496,0.08215781,1.03915
104.866,29.69309,-0.0886142,0.08384221,1.03832
108.066,30.75317,-0.09020747,0.08349648,1.03747
111.266,31.80889,-0.09133047,0.08484599,1.0366
114.466,32.86244,-0.0956446,0.09204417,1.03572
117.666,33.91901,-0.09751019,0.09080161,1.03482
120.866,34.9778,-0.0988301,0.09385829,1.03391
124.066,36.03107,-0.10015,0.09416016,1.03298
127.266,37.08398,-0.10114,0.09732062,1.03203
130.466,38.13799,-0.10345,0.09736114,1.03107
133.666,39.19364,-0.10403,0.10137,1.03009
136.866,40.2444,-0.10673,0.10196,1.0291
140.066,41.29017,-0.10859,0.1036,1.02808
143.266,42.34218,-0.11025,0.10122,1.02706
146.466,43.39472,-0.1113,0.10551,1.02601
149.666,44.44243,-0.11518,0.10816,1.02495
152.866,45.48502,-0.1167,0.1095,1.02388
156.066,46.53737,-0.1183,0.1098,1.02279
159.266,47.58307,-0.119,0.11172,1.02168
162.466,48.6267,-0.1215,0.11465,1.02056
165.666,49.66878,-0.12329,0.11774,1.01942
168.866,50.71391,-0.12494,0.11429,1.01826
172.066,51.75758,-0.1279,0.12378,1.01709
175.266,52.8004,-0.13053,0.12664,1.0159
178.466,53.84315,-0.13284,0.12448,1.0147
181.666,54.8866,-0.13422,0.12765,1.01348
184.866,55.93034,-0.13809,0.12991,1.01224
188.066,56.9726,-0.13941,0.13131,1.01099
191.266,58.01339,-0.1427,0.13363,1.00973
194.466,59.05078,-0.14595,0.13453,1.00844
197.666,60.0912,-0.14866,0.13613,1.00714
200.866,61.1354,-0.15357,0.13812,1.00583
204.066,62.1762,-0.15589,0.14118,1.0045
207.266,63.21395,-0.16083,0.14598,1.00315
210.466,64.2577,-0.16541,0.14686,1.00179
213.666,65.29058,-0.17331,0.14906,1.00041
216.866,66.33402,-0.18087,0.15522,0.99902
220.066,67.36854,-0.1878,0.15869,0.99761
223.266,68.40776,-0.19827,0.15657,0.99619
226.466,69.4495,-0.20588,0.1582,0.99475
229.666,70.4871,-0.21852,0.16277,0.99329
232.866,71.52699,-0.22911,0.16096,0.99182
236.066,72.56868,-0.24488,0.16085,0.99034
239.266,73.60946,-0.25916,0.16509,0.98883
242.466,74.64764,-0.27829,0.16577,0.98732
245.666,75.6859,-0.2958,0.16736,0.98578
248.866,76.726,-0.31504,0.16456,0.98424
252.066,77.76794,-0.33707,0.1628,0.98267
255.266,78.8069,-0.36091,0.17001,0.9811
258.466,79.84721,-0.3863,0.16864,0.9795
261.666,80.8908,-0.41132,0.16845,0.97789
264.866,81.9328,-0.44139,0.16892,0.97627
268.066,82.96913,-0.47023,0.17288,0.97463
271.266,84.01,-0.50034,0.16933,0.97298
274.466,85.0502,-0.53672,0.16638,0.97131
277.666,86.09436,-0.57174,0.16835,0.96962
280.866,87.13513,-0.61154,0.17034,0.96792
284.066,88.17837,-0.65349,0.1714,0.96621
287.266,89.21874,-0.70228,0.17829,0.96448
290.466,90.25896,-0.75116,0.18424,0.96274
293.666,91.301,-0.80668,0.18715,0.96098
296.866,92.3425,-0.86336,0.19104,0.95921
300.066,93.38675,-0.92394,0.19389,0.95742
303.266,94.43274,-0.99158,0.19707,0.95562
306.466,95.48003,-1.05966,0.20407,0.9538
309.666,96.52247,-1.13357,0.21162,0.95197
312.866,97.56376,-1.20686,0.21775,0.95013
316.066,98.60876,-1.28747,0.22237,0.94827
319.266,99.6528,-1.36858,0.22853,0.94639
322.466,100.697,-1.45168,0.23881,0.9445
325.666,101.74,-1.54344,0.25171,0.9426
328.866,102.789,-1.63807,0.265,0.94068
332.066,103.836,-1.73787,0.27695,0.93875
335.266,104.882,-1.84073,0.29075,0.93681
338.466,105.929,-1.95104,0.29907,0.93485
341.666,106.973,-2.06266,0.30704,0.93288
344.866,108.018,-2.17755,0.30644,0.93089
348.066,109.068,-2.29002,0.29605,0.92889
351.266,110.12,-2.39084,0.27021,0.92688
354.466,111.165,-2.48104,0.23304,0.92485
357.666,112.211,-2.55256,0.18528,0.92281
360.866,113.257,-2.60027,0.14294,0.92075
364.066,114.309,-2.63016,0.11214,0.91868
367.266,115.3536,-2.64723,0.09626624,0.9166
370.466,116.405,-2.66226,0.08815355,0.91451
373.666,117.456,-2.67317,0.08600079,0.9124
376.866,118.504,-2.68238,0.08167898,0.91028
380.066,119.558,-2.6921,0.07766099,0.90814
383.266,120.612,-2.70634,0.07587157,0.90599
386.466,121.666,-2.71431,0.06818072,0.90383
389.666,122.722,-2.72484,0.06469804,0.90166
392.866,123.775,-2.73437,0.05813575,0.89947
396.066,124.83,-2.74425,0.05591577,0.89727
399.266,125.881,-2.75543,0.04867409,0.89506
402.466,126.9351,-2.76296,0.05007347,0.89284
405.666,127.993,-2.77508,0.0545347,0.8906
408.866,129.051,-2.7857,0.04765802,0.88835
412.066,130.104,-2.79403,0.04826598,0.88609
415.266,131.158,-2.80418,0.05134405,0.88381
418.466,132.211,-2.81186,0.05548146,0.88153
421.666,133.269,-2.82157,0.061261,0.87923
424.866,134.33,-2.82946,0.06386831,0.87692
428.066,135.392,-2.83768,0.07063593,0.87459
431.266,136.45,-2.84362,0.07768036,0.87226
434.466,137.5074,-2.85119,0.08213068,0.86991
437.666,138.567,-2.85722,0.08471197,0.86755
440.866,139.63,-2.8625,0.08997282,0.86518
444.066,140.694,-2.86903,0.0956601,0.8628
447.266,141.757,-2.87368,0.10001,0.86041
450.466,142.811,-2.87856,0.11257,0.85801
453.666,143.87,-2.88146,0.12186,0.85559
456.866,144.933,-2.88673,0.12356,0.85317
460.066,145.998,-2.88936,0.12399,0.85073
463.266,147.059,-2.89198,0.12564,0.84828
466.466,148.117,-2.89396,0.12796,0.84582
469.666,149.187,-2.89654,0.12605,0.84335
472.866,150.252,-2.90157,0.12073,0.84087
476.066,151.309,-2.90581,0.11496,0.83838
479.266,152.378,-2.9091,0.11678,0.83588
482.466,153.447,-2.91197,0.11689,0.83336
485.666,154.51,-2.91528,0.11745,0.83084
488.866,155.573,-2.9187,0.12123,0.82831
492.066,156.6418,-2.92002,0.11798,0.82576
495.266,157.708,-2.92393,0.119,0.82321
498.466,158.774,-2.92654,0.1166,0.82065
501.666,159.843,-2.92774,0.1175,0.81808
504.866,160.908,-2.92939,0.10896,0.81549
508.066,161.975,-2.934,0.0998488,0.8129
511.266,163.043,-2.93494,0.09944018,0.8103
514.466,164.108,-2.93906,0.0977749,0.80769
517.666,165.176,-2.94026,0.0984377,0.80507
520.866,166.245,-2.94265,0.09676043,0.80244
524.066,167.319,-2.94453,0.09841938,0.7998
527.266,168.384,-2.94781,0.0978707,0.79715
530.466,169.456,-2.94866,0.09776403,0.7945
533.666,170.532,-2.9521,0.10257,0.79183
536.866,171.6,-2.95223,0.10447,0.78916
540.066,172.67,-2.95479,0.10442,0.78647
543.266,173.739,-2.95681,0.10249,0.78378
546.466,174.806,-2.95953,0.10891,0.78108
549.666,175.872,-2.96076,0.10616,0.77838
552.866,176.94,-2.96263,0.10496,0.77566
556.066,178.018,-2.96262,0.1041,0.77294
559.266,179.09,-2.96387,0.10552,0.77021
562.466,180.162,-2.96664,0.10683,0.76747
565.666,181.233,-2.97085,0.10801,0.76472
568.866,182.3034,-2.97261,0.11601,0.76196
572.066,183.38,-2.97329,0.11382,0.7592
575.266,184.453,-2.9759,0.11927,0.75643
578.466,185.5279,-2.9759,0.12458,0.75366
581.666,186.602,-2.97919,0.123,0.75087
584.866,187.671,-2.97975,0.12655,0.74808
588.066,188.743,-2.98017,0.12703,0.74529
591.266,189.818,-2.98284,0.13024,0.74248
594.466,190.8899,-2.98122,0.1286,0.73967
597.666,191.966,-2.98344,0.13167,0.73686
600.866,193.037,-2.98676,0.12967,0.73403
604.066,194.115,-2.98741,0.12972,0.7312
607.266,195.192,-2.98962,0.13235,0.72837
610.466,196.266,-2.99093,0.13604,0.72553
613.666,197.339,-2.99062,0.13569,0.72268
616.866,198.417,-2.99389,0.13063,0.71983
620.066,199.496,-2.99465,0.13859,0.71697
623.266,200.569,-2.99424,0.13987,0.7141
626.466,201.648,-2.99618,0.14183,0.71123
629.666,202.721,-2.99586,0.14193,0.70836
632.866,203.799,-2.99751,0.14838,0.70548
636.066,204.876,-2.99883,0.14932,0.70259
639.266,205.955,-3.00013,0.15482,0.6997
642.466,207.035,-3.00078,0.1608,0.69681
645.666,208.115,-3.00079,0.16223,0.69391
648.866,209.194,-3.00251,0.16803,0.691
652.066,210.261,-3.00293,0.17161,0.6881
655.266,211.343,-3.00546,0.17234,0.68518
658.466,212.42,-3.00277,0.17841,0.68227
661.666,213.496,-3.00408,0.18439,0.67935
664.866,214.58,-3.00343,0.19185,0.67642
668.066,215.657,-3.00442,0.1976,0.67349
671.266,216.735,-3.00517,0.20806,0.67056
674.466,217.818,-3.00288,0.21081,0.66762
677.666,218.8946,-3.00288,0.22559,0.66469
680.866,219.976,-3.00288,0.23751,0.66174
684.066,221.052,-3.00353,0.24516,0.6588
687.266,222.135,-3.00684,0.24498,0.65585
690.466,223.219,-3.00681,0.25815,0.6529
693.666,224.298,-3.00551,0.26304,0.64994
696.866,225.378,-3.00739,0.26878,0.64699
700.066,226.454,-3.00843,0.2758,0.64403
703.266,227.534,-3.00883,0.28815,0.64107
706.466,228.621,-3.00914,0.29609,0.6381
709.666,229.705,-3.01116,0.30184,0.63514
712.866,230.783,-3.01144,0.30391,0.63217
716.066,231.865,-3.01406,0.30388,0.6292
719.266,232.946,-3.01427,0.30699,0.62623
722.466,234.029,-3.01329,0.30415,0.62326
725.666,235.114,-3.01469,0.30699,0.62028
728.866,236.189,-3.01604,0.30704,0.61731
732.066,237.273,-3.01637,0.30634,0.61433
735.266,238.358,-3.01639,0.30245,0.61135
738.466,239.442,-3.01702,0.3047,0.60837
741.666,240.525,-3.01764,0.30202,0.60539
744.866,241.611,-3.02195,0.29132,0.60241
748.066,242.69,-3.01999,0.28874,0.59943
751.266,243.7707,-3.02078,0.28461,0.59645
754.466,244.857,-3.01915,0.28496,0.59347
757.666,245.938,-3.01933,0.28392,0.59049
760.866,247.02,-3.01966,0.28367,0.5875
764.066,248.105,-3.02097,0.28279,0.58452
767.266,249.193,-3.02417,0.27786,0.58154
770.466,250.271,-3.02624,0.27956,0.57856
773.666,251.356,-3.02523,0.27337,0.57558
776.866,252.438,-3.02497,0.26991,0.5726
780.066,253.525,-3.02554,0.27699,0.56962
783.266,254.61,-3.0269,0.27281,0.56664
786.466,255.69,-3.02789,0.27856,0.56366
789.666,256.773,-3.02656,0.28168,0.56068
792.866,257.86,-3.02623,0.28747,0.55771
796.066,258.941,-3.02887,0.30146,0.55473
799.166,259.989,-3.02723,0.29841,0.55185