Folder: fsri_materials_database/01_Data/Concrete_Block/MCC

Note: 01_Data/README.md
# Materials and Products Database
## 01_Data

Raw data generated from each apparatus are included here in plain-text format. The data is organized first by material, next by the short name of test apparatus used, and where applicable additional filtering by test settings.

### material.json

Each material directory contains a json file of the same name as the material. This file links the data stored in the repository as well as data and graphs produced by the accompanying scripts (__02_Scripts__) to the respective landing page for the material on the front-end website.

File: Concrete_Block_MCC_30K_min_220224_R1.txt
Sample ID:	C:\MCC\MCC Cal\Test\Concrete_Block_MCC_30K_min_220224_R1.txt
Sample Weight (mg):	4.83
Heating Rate (C/s):	0.5
Combustor Temp (C):	900
N2 Flow Rate (cc/min):	80
O2 Flow Rate (cc/min):	20
Calibration File:	C:\MCC\MCC Cal\Coeff1 JN10440_30_210304.txt.txt
T Correction Coefficients:	0	1.024463	0
Time Shift (s):	14
*
Time (s)	Temperature (C)	N2 flow rate (cc/min)	O2 flow rate (cc/min)	Flow Rate (cc/min)	Oxygen (%)	HRR (W/g)	Heating rate (C/s)
0.000	115.107	80.005	19.994	103.856	20.048	-0.033	0.002
8.000	115.062	80.004	19.993	103.862	20.044	0.255	-0.001
16.000	115.059	80.002	19.996	103.896	20.041	0.441	0.035
24.000	115.174	80.003	19.995	104.004	20.027	1.397	0.023
32.000	115.750	80.006	19.993	104.061	20.014	2.231	0.058
40.000	116.867	80.004	19.992	104.055	20.014	2.228	0.134
48.000	118.300	80.004	19.993	104.064	20.010	2.516	0.169
56.000	120.133	80.007	19.994	104.069	20.009	2.587	0.227
64.000	122.211	80.006	19.992	104.074	20.006	2.756	0.302
72.000	124.582	80.005	19.992	104.100	20.002	3.054	0.293
80.001	127.213	80.004	19.992	104.110	20.001	3.133	0.368
88.000	130.081	80.005	19.993	104.110	20.003	2.958	0.341
96.000	133.192	80.005	19.994	104.112	20.005	2.846	0.403
104.000	136.396	80.005	19.994	104.109	20.005	2.826	0.417
112.000	139.724	80.005	19.994	104.109	20.003	3.011	0.400
120.000	143.218	80.004	19.994	104.108	20.003	2.964	0.455
128.000	146.842	80.006	19.993	104.109	20.002	3.048	0.430
136.000	150.624	80.006	19.993	104.111	20.004	2.945	0.470
144.000	154.394	80.006	19.994	104.111	20.000	3.188	0.488
152.000	158.280	80.003	19.993	104.111	20.001	3.147	0.503
160.001	162.228	80.003	19.992	104.113	20.007	2.692	0.502
168.000	166.303	80.005	19.993	104.105	20.007	2.697	0.524
176.000	170.380	80.004	19.994	104.101	20.009	2.583	0.491
184.000	174.428	80.004	19.994	104.094	20.014	2.248	0.546
192.000	178.517	80.005	19.994	104.090	20.014	2.239	0.521
200.000	182.604	80.005	19.994	104.073	20.016	2.121	0.500
208.001	186.702	80.004	19.995	104.080	20.014	2.250	0.522
216.000	190.730	80.005	19.994	104.071	20.019	1.916	0.517
224.000	194.701	80.006	19.993	104.071	20.021	1.789	0.487
232.000	198.603	80.005	19.993	104.057	20.022	1.688	0.463
240.000	202.561	80.003	19.994	104.058	20.018	1.978	0.477
248.000	206.456	80.005	19.994	104.058	20.017	2.018	0.487
256.000	210.372	80.005	19.993	104.055	20.025	1.537	0.482
264.000	214.277	80.005	19.994	104.046	20.024	1.563	0.477
272.000	218.204	80.004	19.995	104.053	20.028	1.316	0.494
280.000	222.149	80.004	19.993	104.036	20.025	1.500	0.486
288.000	226.087	80.003	19.995	104.035	20.026	1.419	0.495
296.000	230.021	80.005	19.994	104.030	20.030	1.147	0.519
304.000	234.000	80.007	19.995	104.031	20.032	1.028	0.516
312.000	237.997	80.003	19.994	104.029	20.029	1.206	0.505
320.000	241.890	80.005	19.993	104.030	20.027	1.353	0.484
328.000	245.889	80.003	19.994	104.033	20.032	1.034	0.486
336.000	249.867	80.004	19.993	104.031	20.033	0.968	0.510
344.000	253.864	80.002	19.993	104.035	20.034	0.879	0.499
352.000	257.876	80.003	19.993	104.030	20.036	0.745	0.502
360.000	261.862	80.005	19.993	104.022	20.037	0.677	0.526
368.000	265.889	80.003	19.995	104.019	20.034	0.890	0.495
376.000	269.924	80.005	19.995	104.024	20.036	0.791	0.507
384.000	273.975	80.005	19.995	104.018	20.033	0.968	0.511
392.000	277.987	80.003	19.994	104.020	20.039	0.562	0.500
400.000	282.041	80.002	19.993	104.027	20.039	0.587	0.539
408.000	286.127	80.002	19.993	104.029	20.039	0.547	0.498
416.000	290.234	80.003	19.992	103.997	20.046	0.079	0.516
424.000	294.265	80.001	19.994	103.994	20.044	0.248	0.479
432.000	298.256	80.003	19.994	103.994	20.045	0.160	0.435
440.000	302.321	80.005	19.994	103.993	20.045	0.173	0.498
448.000	306.250	80.004	19.993	103.992	20.051	-0.239	0.457
456.000	310.266	80.004	19.994	104.003	20.046	0.073	0.541
464.000	314.356	80.006	19.993	103.994	20.048	-0.066	0.543
472.000	318.461	80.003	19.994	103.996	20.047	-0.002	0.534
480.000	322.533	80.001	19.994	103.996	20.053	-0.351	0.507
488.000	326.674	80.003	19.995	103.984	20.048	-0.051	0.529
496.000	330.736	80.003	19.993	103.981	20.051	-0.231	0.504
504.000	334.787	80.004	19.993	103.981	20.054	-0.418	0.530
512.000	338.773	80.004	19.993	103.977	20.050	-0.206	0.499
520.000	342.748	80.004	19.993	103.980	20.053	-0.367	0.469
528.000	346.714	80.004	19.994	103.977	20.053	-0.352	0.486
536.000	350.683	80.005	19.993	103.977	20.057	-0.640	0.457
544.000	354.803	80.004	19.994	103.971	20.057	-0.640	0.505
552.000	358.774	80.002	19.994	103.970	20.056	-0.576	0.510
560.000	362.751	80.002	19.994	103.966	20.059	-0.760	0.497
568.000	366.799	80.003	19.994	103.963	20.063	-1.070	0.502
576.000	370.847	80.003	19.995	103.956	20.059	-0.760	0.512
584.000	374.882	80.002	19.995	103.963	20.063	-1.066	0.516
592.000	378.855	80.003	19.993	103.964	20.063	-1.020	0.496
600.000	382.860	80.005	19.994	103.966	20.063	-1.055	0.511
608.000	386.916	80.005	19.993	103.975	20.064	-1.117	0.494
616.000	390.948	80.004	19.995	103.975	20.064	-1.082	0.499
624.000	395.106	80.006	19.994	103.961	20.064	-1.082	0.528
632.000	399.251	80.006	19.994	103.959	20.065	-1.213	0.530
640.000	403.380	80.002	19.993	103.953	20.068	-1.374	0.521
648.000	407.552	80.004	19.994	103.954	20.067	-1.297	0.509
656.000	411.688	80.004	19.995	103.957	20.073	-1.717	0.506
664.000	415.767	80.003	19.995	103.958	20.068	-1.374	0.498
672.000	419.880	80.002	19.994	103.958	20.072	-1.633	0.504
680.000	423.959	80.004	19.995	103.950	20.074	-1.780	0.515
688.000	428.041	80.004	19.993	103.951	20.076	-1.910	0.487
696.000	432.126	80.005	19.994	103.954	20.071	-1.614	0.519
704.000	436.214	80.006	19.994	103.953	20.076	-1.921	0.507
712.000	440.265	80.004	19.992	103.950	20.071	-1.559	0.528
720.000	444.249	80.005	19.994	103.954	20.071	-1.587	0.451
728.000	448.229	80.003	19.993	103.953	20.074	-1.814	0.491
736.000	452.226	80.003	19.994	103.950	20.071	-1.583	0.510
744.000	456.226	80.003	19.993	103.947	20.074	-1.756	0.489
752.000	460.219	80.003	19.994	103.951	20.076	-1.921	0.530
760.000	464.300	80.003	19.993	103.948	20.073	-1.688	0.507
768.000	468.471	80.004	19.995	103.947	20.075	-1.879	0.523
776.000	472.641	80.005	19.994	103.951	20.077	-1.989	0.533
784.000	476.872	80.007	19.993	103.953	20.077	-1.990	0.519
792.000	481.089	80.005	19.994	103.949	20.082	-2.345	0.506
800.000	485.252	80.003	19.994	103.936	20.077	-1.979	0.515
808.000	489.404	80.004	19.994	103.943	20.079	-2.128	0.520
816.000	493.488	80.003	19.994	103.948	20.083	-2.401	0.497
824.000	497.567	80.003	19.995	103.944	20.083	-2.412	0.521
832.000	501.616	80.005	19.994	103.947	20.084	-2.469	0.492
840.000	505.643	80.006	19.994	103.940	20.082	-2.346	0.520
848.000	509.654	80.004	19.995	103.933	20.085	-2.546	0.491
856.000	513.637	80.004	19.994	103.940	20.080	-2.199	0.532
864.000	517.691	80.005	19.994	103.934	20.083	-2.408	0.525
872.000	521.718	80.005	19.993	103.938	20.087	-2.651	0.524
880.000	525.830	80.002	19.992	103.920	20.082	-2.331	0.513
888.000	529.966	80.004	19.994	103.934	20.091	-2.898	0.493
896.000	534.141	80.005	19.994	103.927	20.086	-2.610	0.551
904.000	538.380	80.003	19.994	103.934	20.085	-2.522	0.507
912.000	542.588	80.003	19.994	103.945	20.087	-2.639	0.529
920.000	546.811	80.004	19.993	103.929	20.085	-2.505	0.501
928.000	551.064	80.004	19.994	103.919	20.086	-2.592	0.527
936.000	555.283	80.004	19.994	103.921	20.085	-2.505	0.559
944.000	559.467	80.005	19.994	103.914	20.087	-2.661	0.542
952.000	563.642	80.004	19.994	103.921	20.090	-2.854	0.519
960.000	567.791	80.003	19.994	103.918	20.087	-2.687	0.511
968.000	571.930	80.003	19.993	103.918	20.091	-2.944	0.484
976.000	576.148	80.004	19.993	103.921	20.092	-2.958	0.498
984.000	580.229	80.003	19.994	103.921	20.091	-2.920	0.506
992.000	584.330	80.002	19.993	103.919	20.091	-2.925	0.531
1000.000	588.344	80.004	19.992	103.916	20.096	-3.277	0.479
1008.000	592.346	80.004	19.993	103.920	20.089	-2.780	0.501
1016.000	596.371	80.004	19.994	103.917	20.091	-2.942	0.531
1024.000	600.370	80.006	19.994	103.915	20.094	-3.103	0.512
1032.001	604.353	80.006	19.993	103.928	20.091	-2.911	0.466
1040.000	608.396	80.003	19.995	103.921	20.091	-2.901	0.528
1048.001	612.387	80.003	19.994	103.918	20.090	-2.879	0.487
1056.000	616.481	80.004	19.993	103.919	20.093	-3.070	0.522
1064.000	620.684	80.002	19.994	103.920	20.092	-3.001	0.528
1072.001	624.743	80.003	19.993	103.920	20.092	-3.021	0.486
1080.000	628.921	80.005	19.994	103.917	20.095	-3.170	0.631
1088.001	633.018	80.005	19.993	103.931	20.095	-3.174	0.516
1096.000	637.165	80.005	19.993	103.918	20.093	-3.032	0.554
1104.000	641.294	80.006	19.994	103.935	20.093	-3.067	0.503
1112.000	645.446	80.005	19.994	103.940	20.091	-2.901	0.514
1120.001	649.592	80.001	19.992	103.957	20.088	-2.737	0.497
1128.000	653.728	80.003	19.993	103.949	20.091	-2.917	0.445
1136.001	657.761	80.004	19.995	103.952	20.089	-2.780	0.459
1144.000	661.781	80.002	19.994	103.959	20.089	-2.796	0.487
1152.000	665.772	80.004	19.995	103.969	20.085	-2.532	0.489
1160.001	669.762	80.005	19.993	103.978	20.089	-2.780	0.486
1168.000	673.747	80.005	19.993	103.982	20.087	-2.641	0.484
1176.000	677.843	80.004	19.993	103.994	20.085	-2.511	0.507
1184.001	681.925	80.006	19.993	104.008	20.086	-2.581	0.508
1192.000	685.992	80.005	19.993	104.009	20.088	-2.713	0.523
1200.000	689.965	80.003	19.995	104.031	20.088	-2.714	0.489
1208.000	693.951	80.003	19.994	104.036	20.085	-2.514	0.509
1216.000	697.940	80.004	19.993	104.058	20.085	-2.523	0.499
1224.000	701.852	80.002	19.994	104.067	20.082	-2.320	0.491
1232.000	705.773	80.003	19.995	104.074	20.079	-2.124	0.491
1240.000	709.693	80.004	19.992	104.098	20.079	-2.126	0.506
1248.001	713.663	80.004	19.994	104.111	20.078	-2.067	0.490
1256.000	717.686	80.005	19.994	104.128	20.070	-1.489	0.507
1264.000	721.750	80.007	19.993	104.147	20.069	-1.445	0.509
1272.000	725.947	80.005	19.994	104.160	20.064	-1.136	0.533
1280.001	730.129	80.004	19.994	104.189	20.062	-0.997	0.519
1288.000	734.257	80.003	19.995	104.208	20.062	-0.997	0.489
1296.001	738.463	80.004	19.994	104.225	20.056	-0.594	0.534
1304.000	742.632	80.003	19.994	104.251	20.055	-0.541	0.495
1305.500	743.384	80.004	19.994	104.255	20.054	-0.464	0.502

File: Concrete_Block_MCC_30K_min_220224_R2.txt
Sample ID:	C:\MCC\MCC Cal\Test\Concrete_Block_MCC_30K_min_220224_R2.txt
Sample Weight (mg):	4.42
Heating Rate (C/s):	0.5
Combustor Temp (C):	900
N2 Flow Rate (cc/min):	80
O2 Flow Rate (cc/min):	20
Calibration File:	C:\MCC\MCC Cal\Coeff1 JN10440_30_210304.txt.txt
T Correction Coefficients:	0	1.024463	0
Time Shift (s):	14
*
Time (s)	Temperature (C)	N2 flow rate (cc/min)	O2 flow rate (cc/min)	Flow Rate (cc/min)	Oxygen (%)	HRR (W/g)	Heating rate (C/s)
0.000	112.407	80.006	19.995	103.792	20.035	-0.182	-0.016
8.000	112.434	80.005	19.994	103.786	20.033	-0.072	0.028
16.000	112.357	80.004	19.994	103.821	20.028	0.263	-0.006
24.000	112.532	80.004	19.995	103.908	20.009	1.689	0.053
32.000	113.114	80.005	19.993	103.977	20.005	2.003	0.089
40.000	114.190	80.004	19.994	104.003	19.992	2.958	0.178
48.000	115.744	80.003	19.994	104.066	19.991	3.023	0.200
56.000	117.693	80.005	19.994	104.023	19.989	3.185	0.294
64.000	119.856	80.006	19.994	104.015	19.991	3.015	0.305
72.001	122.308	80.005	19.994	104.026	19.989	3.144	0.331
80.000	125.015	80.006	19.994	104.027	19.986	3.405	0.339
88.000	127.843	80.008	19.994	104.026	19.985	3.451	0.366
96.000	130.934	80.004	19.994	104.037	19.984	3.563	0.407
104.000	134.204	80.005	19.994	104.044	19.981	3.772	0.426
112.000	137.637	80.004	19.994	104.056	19.981	3.731	0.472
120.000	141.252	80.005	19.994	104.063	19.980	3.817	0.496
128.000	144.921	80.006	19.993	104.055	19.983	3.598	0.471
136.000	148.843	80.005	19.994	104.058	19.986	3.407	0.450
144.000	152.753	80.006	19.994	104.052	19.982	3.672	0.529
152.000	156.779	80.006	19.994	104.051	19.983	3.632	0.510
160.000	160.865	80.006	19.994	104.041	19.984	3.519	0.540
168.000	165.028	80.007	19.995	104.038	19.987	3.294	0.536
176.000	169.147	80.004	19.995	104.030	19.991	3.001	0.508
184.000	173.296	80.003	19.994	104.021	19.993	2.858	0.484
192.000	177.384	80.004	19.994	104.026	19.993	2.856	0.500
200.000	181.527	80.003	19.994	103.994	19.992	2.914	0.478
208.000	185.586	80.002	19.993	103.991	19.993	2.854	0.525
216.000	189.598	80.004	19.994	103.987	19.998	2.533	0.514
224.000	193.619	80.005	19.994	103.989	19.998	2.533	0.515
232.000	197.501	80.006	19.993	103.988	19.998	2.491	0.506
240.000	201.449	80.004	19.995	103.989	20.001	2.264	0.474
248.000	205.306	80.007	19.993	103.986	20.000	2.356	0.463
256.000	209.215	80.007	19.993	103.985	20.003	2.108	0.447
264.000	213.168	80.003	19.994	103.978	19.999	2.427	0.511
272.000	217.033	80.004	19.995	103.982	20.001	2.248	0.474
280.000	220.927	80.006	19.993	103.980	20.004	2.023	0.462
288.000	224.880	80.002	19.994	103.972	20.000	2.352	0.481
296.000	228.836	80.002	19.995	103.984	20.003	2.146	0.516
304.000	232.813	80.006	19.994	103.974	20.004	2.047	0.486
312.000	236.785	80.007	19.993	103.967	20.003	2.134	0.473
320.000	240.820	80.005	19.993	103.970	20.006	1.937	0.504
328.000	244.771	80.006	19.994	103.963	20.010	1.598	0.480
336.000	248.821	80.007	19.993	103.954	20.008	1.754	0.475
344.000	252.915	80.005	19.993	103.955	20.011	1.532	0.518
352.000	256.904	80.005	19.994	103.951	20.011	1.550	0.515
360.000	260.944	80.005	19.993	103.955	20.012	1.437	0.512
368.000	264.949	80.004	19.993	103.952	20.011	1.554	0.508
376.000	268.967	80.005	19.993	103.953	20.010	1.616	0.539
384.000	272.960	80.005	19.994	103.952	20.013	1.413	0.486
392.000	276.986	80.006	19.995	103.947	20.015	1.229	0.511
400.000	280.988	80.006	19.994	103.948	20.013	1.407	0.488
408.000	284.959	80.007	19.993	103.946	20.018	1.052	0.489
416.000	288.966	80.007	19.995	103.946	20.015	1.229	0.484
424.000	293.019	80.004	19.993	103.949	20.017	1.135	0.487
432.000	297.049	80.006	19.993	103.935	20.018	1.010	0.489
440.000	301.036	80.005	19.992	103.940	20.014	1.297	0.488
448.000	305.044	80.005	19.993	103.929	20.017	1.072	0.485
456.000	309.085	80.003	19.995	103.934	20.019	0.936	0.471
464.000	313.158	80.004	19.994	103.931	20.021	0.784	0.509
472.000	317.189	80.007	19.994	103.913	20.022	0.731	0.487
480.000	321.227	80.005	19.994	103.933	20.022	0.750	0.500
488.000	325.246	80.005	19.994	103.914	20.022	0.719	0.515
496.000	329.341	80.006	19.993	103.918	20.024	0.585	0.510
504.000	333.418	80.004	19.993	103.917	20.024	0.583	0.527
512.000	337.432	80.004	19.993	103.917	20.024	0.581	0.490
520.000	341.471	80.006	19.994	103.912	20.023	0.669	0.515
528.000	345.472	80.005	19.994	103.912	20.027	0.333	0.512
536.000	349.450	80.004	19.994	103.912	20.025	0.529	0.496
544.000	353.507	80.004	19.995	103.911	20.026	0.427	0.499
552.000	357.521	80.005	19.993	103.911	20.028	0.281	0.512
560.000	361.543	80.006	19.993	103.914	20.028	0.269	0.489
568.000	365.537	80.005	19.996	103.908	20.028	0.293	0.493
576.000	369.569	80.006	19.993	103.907	20.028	0.260	0.517
584.000	373.592	80.005	19.994	103.907	20.029	0.232	0.500
592.000	377.611	80.006	19.994	103.908	20.029	0.248	0.493
600.000	381.671	80.005	19.993	103.906	20.030	0.134	0.499
608.000	385.712	80.006	19.994	103.898	20.030	0.112	0.508
616.000	389.702	80.003	19.994	103.912	20.033	-0.072	0.499
624.000	393.797	80.006	19.993	103.911	20.033	-0.100	0.484
632.000	397.834	80.006	19.995	103.909	20.033	-0.076	0.497
640.000	401.842	80.004	19.994	103.893	20.034	-0.154	0.494
648.000	405.894	80.005	19.994	103.903	20.033	-0.042	0.511
656.000	409.828	80.008	19.994	103.903	20.034	-0.136	0.476
664.000	413.842	80.005	19.994	103.897	20.034	-0.108	0.514
672.000	417.820	80.004	19.995	103.904	20.035	-0.200	0.475
680.000	421.819	80.005	19.994	103.889	20.034	-0.132	0.506
688.000	425.826	80.005	19.994	103.894	20.037	-0.335	0.507
696.000	429.855	80.004	19.993	103.883	20.035	-0.242	0.493
704.000	433.819	80.005	19.993	103.892	20.035	-0.240	0.474
712.000	437.854	80.006	19.993	103.880	20.039	-0.505	0.489
720.000	441.805	80.007	19.993	103.892	20.034	-0.168	0.485
728.000	445.843	80.006	19.994	103.884	20.036	-0.272	0.523
736.000	449.902	80.008	19.995	103.883	20.037	-0.353	0.509
744.000	453.966	80.007	19.994	103.877	20.038	-0.449	0.514
752.000	458.027	80.004	19.994	103.876	20.035	-0.184	0.520
760.000	462.170	80.004	19.995	103.881	20.037	-0.331	0.508
768.000	466.264	80.004	19.994	103.879	20.036	-0.315	0.538
776.000	470.388	80.005	19.994	103.886	20.040	-0.619	0.504
784.000	474.606	80.005	19.993	103.878	20.040	-0.563	0.552
792.000	478.804	80.006	19.993	103.872	20.043	-0.823	0.522
800.000	482.996	80.006	19.993	103.874	20.042	-0.739	0.495
808.000	487.169	80.007	19.993	103.873	20.044	-0.873	0.519
816.000	491.269	80.007	19.994	103.876	20.043	-0.783	0.499
824.000	495.411	80.007	19.994	103.876	20.046	-1.030	0.554
832.000	499.533	80.003	19.994	103.875	20.047	-1.062	0.503
840.000	503.622	80.006	19.994	103.874	20.043	-0.797	0.526
848.000	507.693	80.006	19.994	103.876	20.047	-1.132	0.449
856.000	511.830	80.005	19.994	103.874	20.046	-1.030	0.516
864.000	516.012	80.004	19.995	103.872	20.053	-1.520	0.528
872.000	520.128	80.005	19.995	103.874	20.049	-1.274	0.507
880.000	524.085	80.005	19.993	103.881	20.052	-1.500	0.471
888.000	528.150	80.005	19.993	103.874	20.052	-1.452	0.483
896.000	532.226	80.008	19.994	103.875	20.054	-1.645	0.494
904.000	536.319	80.008	19.993	103.871	20.050	-1.302	0.521
912.000	540.366	80.006	19.994	103.870	20.051	-1.422	0.487
920.000	544.368	80.003	19.994	103.871	20.050	-1.306	0.505
928.000	548.430	80.007	19.994	103.869	20.051	-1.422	0.497
936.000	552.520	80.004	19.994	103.871	20.053	-1.562	0.502
944.000	556.646	80.005	19.993	103.873	20.052	-1.452	0.502
952.000	560.835	80.005	19.996	103.875	20.056	-1.739	0.523
960.000	565.009	80.006	19.993	103.874	20.054	-1.586	0.511
968.000	569.169	80.006	19.993	103.872	20.054	-1.634	0.516
976.000	573.328	80.007	19.993	103.870	20.054	-1.611	0.486
984.000	577.563	80.007	19.993	103.870	20.052	-1.474	0.511
992.000	581.675	80.006	19.994	103.869	20.058	-1.911	0.510
1000.000	585.762	80.006	19.993	103.874	20.058	-1.891	0.515
1008.000	589.830	80.004	19.993	103.870	20.057	-1.817	0.526
1016.000	593.862	80.004	19.996	103.872	20.058	-1.883	0.549
1024.000	597.919	80.004	19.994	103.875	20.061	-2.157	0.527
1031.999	601.925	80.006	19.994	103.879	20.061	-2.126	0.502
1039.999	605.946	80.005	19.995	103.870	20.059	-1.975	0.518
1047.999	610.062	80.006	19.995	103.871	20.072	-2.949	0.506
1055.999	614.285	80.007	19.993	103.872	20.059	-1.955	0.479
1064.000	618.247	80.008	19.993	103.873	20.061	-2.099	0.971
1071.999	622.461	80.004	19.994	103.877	20.061	-2.156	0.483
1079.999	626.602	80.006	19.994	103.872	20.064	-2.332	0.529
1087.999	630.683	80.006	19.993	103.879	20.062	-2.184	0.542
1095.999	634.764	80.005	19.994	103.878	20.060	-2.078	0.530
1103.999	638.782	80.002	19.995	103.893	20.059	-1.993	0.509
1111.999	642.872	80.005	19.994	103.876	20.059	-1.992	0.528
1119.999	646.846	80.007	19.995	103.893	20.058	-1.936	0.481
1128.000	650.975	80.004	19.994	103.898	20.056	-1.772	0.537
1135.999	654.916	80.005	19.996	103.912	20.060	-2.064	0.502
1143.999	659.014	80.007	19.993	103.910	20.056	-1.734	0.521
1151.999	663.065	80.005	19.992	103.915	20.058	-1.924	0.484
1159.999	667.034	80.004	19.993	103.917	20.057	-1.846	0.486
1167.999	671.013	80.005	19.994	103.933	20.057	-1.828	0.486
1175.999	674.953	80.005	19.995	103.942	20.053	-1.510	0.498
1183.999	678.985	80.005	19.994	103.946	20.050	-1.333	0.500
1191.999	683.020	80.006	19.993	103.951	20.054	-1.594	0.490
1199.999	686.950	80.006	19.993	103.957	20.050	-1.346	0.499
1207.999	691.065	80.005	19.995	103.986	20.053	-1.536	0.524
1215.999	695.193	80.006	19.993	103.990	20.048	-1.145	0.517
1224.001	699.335	80.008	19.994	103.992	20.050	-1.302	0.528
1232.000	703.323	80.005	19.996	104.021	20.048	-1.202	0.504
1239.999	707.393	80.005	19.993	104.021	20.051	-1.408	0.481
1248.000	711.475	80.005	19.994	104.048	20.048	-1.158	0.501
1255.999	715.558	80.006	19.995	104.059	20.045	-0.923	0.520
1264.000	719.638	80.004	19.994	104.081	20.041	-0.630	0.479
1271.999	723.665	80.006	19.994	104.095	20.034	-0.116	0.507
1279.999	727.620	80.005	19.993	104.110	20.031	0.058	0.472
1288.000	731.608	80.006	19.994	104.126	20.026	0.424	0.498
1295.999	735.624	80.007	19.994	104.145	20.029	0.203	0.481
1303.999	739.588	80.008	19.994	104.152	20.027	0.404	0.494
1311.999	743.574	80.005	19.994	104.185	20.018	1.053	0.474