Folder: fsri_materials_database/01_Data/Concrete_Block/MCC (part 2)

File: Concrete_Block_MCC_30K_min_220224_R3.txt
Sample ID:	C:\MCC\MCC Cal\Test\Concrete_Block_MCC_30K_min_220224_R3.txt
Sample Weight (mg):	4.86
Heating Rate (C/s):	0.5
Combustor Temp (C):	900
N2 Flow Rate (cc/min):	80
O2 Flow Rate (cc/min):	20
Calibration File:	C:\MCC\MCC Cal\Coeff1 JN10440_30_210304.txt.txt
T Correction Coefficients:	0	1.024463	0
Time Shift (s):	14
*
Time (s)	Temperature (C)	N2 flow rate (cc/min)	O2 flow rate (cc/min)	Flow Rate (cc/min)	Oxygen (%)	HRR (W/g)	Heating rate (C/s)
-0.001	112.959	80.003	19.994	103.746	20.101	0.160	0.018
7.500	112.927	80.002	19.995	103.752	20.101	0.144	-0.028
15.000	112.922	80.003	19.992	103.752	20.096	0.476	0.007
22.500	112.987	80.004	19.994	103.856	20.085	1.209	0.015
30.000	113.407	80.003	19.994	103.943	20.064	2.617	0.081
37.499	114.344	80.004	19.993	103.983	20.054	3.285	0.130
44.999	115.819	80.005	19.993	103.974	20.054	3.279	0.222
52.500	117.623	80.003	19.992	103.985	20.050	3.566	0.285
59.999	119.692	80.006	19.992	103.987	20.050	3.554	0.309
67.499	122.042	80.007	19.993	103.993	20.047	3.756	0.322
74.999	124.670	80.002	19.993	104.006	20.047	3.742	0.357
82.499	127.455	80.003	19.992	104.014	20.044	3.954	0.370
89.999	130.512	80.003	19.994	104.027	20.042	4.096	0.421
97.500	133.743	80.002	19.994	104.008	20.043	4.006	0.451
104.999	137.104	80.004	19.995	104.018	20.042	4.101	0.467
112.499	140.616	80.003	19.994	104.018	20.046	3.802	0.461
119.999	144.201	80.004	19.993	104.013	20.046	3.814	0.482
127.500	147.855	80.002	19.994	104.007	20.047	3.732	0.490
135.000	151.649	80.003	19.995	104.013	20.047	3.714	0.521
142.500	155.347	80.007	19.993	103.999	20.044	3.933	0.506
150.000	159.100	80.006	19.992	103.993	20.046	3.831	0.539
157.500	162.872	80.004	19.992	104.001	20.047	3.717	0.488
165.000	166.678	80.005	19.992	103.989	20.046	3.772	0.480
172.500	170.470	80.004	19.993	103.989	20.046	3.795	0.455
180.000	174.294	80.005	19.994	103.985	20.047	3.711	0.492
187.500	178.035	80.005	19.994	103.987	20.050	3.563	0.483
195.000	181.821	80.006	19.994	103.986	20.050	3.534	0.505
202.500	185.634	80.007	19.992	103.960	20.050	3.543	0.516
210.000	189.343	80.007	19.992	103.960	20.053	3.357	0.515
217.500	193.083	80.000	19.994	103.965	20.050	3.517	0.496
225.000	196.743	80.004	19.995	103.953	20.051	3.435	0.478
232.500	200.407	80.006	19.993	103.948	20.050	3.561	0.453
240.000	204.080	80.004	19.993	103.951	20.050	3.504	0.482
247.500	207.773	80.004	19.992	103.953	20.050	3.528	0.532
255.000	211.430	80.003	19.993	103.951	20.046	3.803	0.462
262.500	215.143	80.004	19.992	103.955	20.051	3.475	0.484
270.000	218.822	80.014	19.992	103.955	20.048	3.694	0.481
277.500	222.579	80.005	19.994	103.958	20.048	3.676	0.493
285.000	226.292	80.008	19.994	103.952	20.045	3.834	0.517
292.500	230.051	80.004	19.995	103.940	20.044	3.956	0.494
300.000	233.787	80.000	19.994	103.949	20.051	3.438	0.504
307.500	237.556	80.004	19.993	103.950	20.051	3.482	0.503
315.000	241.284	80.007	19.994	103.937	20.051	3.479	0.465
322.500	245.108	80.004	19.994	103.941	20.047	3.752	0.507
330.000	248.893	80.003	19.993	103.943	20.050	3.523	0.521
337.500	252.644	80.002	19.993	103.936	20.051	3.433	0.496
345.000	256.411	80.005	19.993	103.938	20.049	3.587	0.529
352.500	260.150	80.005	19.993	103.933	20.051	3.489	0.481
360.000	263.864	80.008	19.993	103.939	20.053	3.341	0.543
367.500	267.599	80.004	19.994	103.924	20.053	3.339	0.522
375.000	271.296	80.010	19.994	103.927	20.054	3.289	0.518
382.500	275.043	80.010	19.993	103.925	20.053	3.334	0.514
390.000	278.740	79.993	19.994	103.913	20.054	3.273	0.473
397.500	282.459	79.998	19.994	103.927	20.051	3.459	0.471
405.000	286.185	79.995	19.995	103.923	20.052	3.364	0.487
412.500	289.963	80.007	19.993	103.920	20.049	3.605	0.514
420.000	293.699	80.006	19.993	103.915	20.051	3.443	0.457
427.500	297.436	80.006	19.992	103.911	20.052	3.397	0.505
435.000	301.162	79.996	19.993	103.906	20.054	3.237	0.489
442.500	304.937	80.008	19.993	103.914	20.055	3.215	0.492
450.000	308.740	80.002	19.993	103.904	20.055	3.228	0.539
457.500	312.461	80.002	19.992	103.913	20.054	3.235	0.496
465.000	316.285	80.009	19.992	103.907	20.054	3.277	0.525
472.500	320.045	80.011	19.992	103.914	20.055	3.213	0.519
480.000	323.807	80.006	19.995	103.911	20.052	3.406	0.530
487.500	327.557	79.987	19.995	103.904	20.051	3.481	0.517
495.000	331.352	80.002	19.992	103.885	20.054	3.249	0.524
502.500	335.103	80.000	19.994	103.894	20.052	3.388	0.491
510.000	338.882	79.987	19.995	103.905	20.054	3.253	0.520
517.500	342.637	80.001	19.995	103.893	20.053	3.326	0.491
525.000	346.402	80.005	19.994	103.908	20.055	3.226	0.534
532.500	350.161	80.006	19.992	103.896	20.054	3.262	0.511
540.000	353.949	80.009	19.993	103.898	20.053	3.307	0.494
547.500	357.706	80.000	19.992	103.909	20.056	3.125	0.518
555.000	361.465	79.997	19.993	103.899	20.051	3.457	0.499
562.500	365.245	80.021	19.992	103.900	20.056	3.113	0.505
570.000	369.139	80.020	19.991	103.899	20.056	3.098	0.569
577.500	372.971	80.001	19.994	103.896	20.056	3.140	0.523
585.000	376.776	80.004	19.994	103.900	20.056	3.144	0.502
592.500	380.613	80.003	19.996	103.894	20.058	2.978	0.520
600.000	384.457	80.002	19.994	103.905	20.058	2.977	0.461
607.500	388.231	80.002	19.995	103.900	20.055	3.187	0.494
615.000	392.052	80.005	19.994	103.895	20.058	2.999	0.503
622.500	395.927	80.008	19.993	103.903	20.053	3.340	0.525
630.000	399.784	80.006	19.992	103.886	20.059	2.957	0.531
637.500	403.605	80.001	19.991	103.876	20.057	3.065	0.477
645.000	407.476	80.005	19.992	103.900	20.056	3.139	0.539
652.500	411.275	80.012	19.991	103.868	20.060	2.870	0.543
660.000	414.968	80.006	19.994	103.889	20.055	3.208	0.513
667.500	418.639	80.003	19.994	103.888	20.054	3.237	0.493
675.000	422.332	80.004	19.994	103.889	20.056	3.143	0.474
682.500	426.069	80.002	19.993	103.877	20.053	3.340	0.478
690.000	429.849	80.002	19.994	103.884	20.048	3.666	0.491
697.500	433.643	80.007	19.995	103.890	20.050	3.518	0.494
705.000	437.469	80.006	19.993	103.884	20.048	3.637	0.518
712.500	441.316	80.006	19.994	103.880	20.053	3.341	0.540
720.000	445.148	80.005	19.992	103.884	20.050	3.531	0.539
727.500	449.003	80.005	19.992	103.881	20.052	3.405	0.571
735.000	452.796	80.003	19.993	103.886	20.049	3.587	0.488
742.500	456.706	80.003	19.992	103.878	20.050	3.526	0.506
750.000	460.537	80.004	19.993	103.871	20.050	3.504	0.492
757.500	464.327	80.007	19.995	103.878	20.050	3.511	0.495
765.000	468.145	80.005	19.994	103.872	20.050	3.547	0.482
772.500	471.964	80.002	19.995	103.871	20.051	3.471	0.506
780.000	475.732	80.004	19.994	103.874	20.048	3.665	0.477
787.500	479.502	80.005	19.994	103.873	20.049	3.596	0.521
795.000	483.311	80.005	19.994	103.874	20.048	3.662	0.515
802.500	487.091	80.006	19.993	103.877	20.051	3.489	0.504
810.000	490.919	80.007	19.992	103.876	20.048	3.654	0.536
817.500	494.796	80.005	19.994	103.872	20.048	3.664	0.522
825.000	498.681	80.002	19.994	103.873	20.045	3.844	0.537
832.500	502.467	80.005	19.994	103.871	20.047	3.751	0.494
840.000	506.267	80.005	19.994	103.871	20.045	3.848	0.495
847.500	510.053	80.003	19.995	103.872	20.046	3.795	0.463
855.000	513.940	80.005	19.995	103.868	20.048	3.660	0.531
862.500	517.807	80.004	19.995	103.876	20.050	3.536	0.510
870.000	521.705	80.006	19.993	103.873	20.048	3.678	0.529
877.500	525.594	80.003	19.993	103.870	20.044	3.910	0.513
885.000	529.463	80.006	19.994	103.869	20.048	3.673	0.523
892.500	533.254	80.005	19.993	103.869	20.047	3.749	0.520
900.000	537.126	80.005	19.993	103.868	20.046	3.784	0.484
907.500	540.962	80.004	19.993	103.874	20.049	3.580	0.538
915.000	544.800	80.005	19.992	103.873	20.044	3.924	0.519
922.500	548.623	80.004	19.993	103.874	20.046	3.768	0.498
930.000	552.509	80.003	19.993	103.875	20.047	3.757	0.494
937.500	556.364	80.005	19.994	103.878	20.051	3.485	0.505
945.000	560.312	80.005	19.994	103.870	20.047	3.751	0.527
952.500	564.176	80.005	19.995	103.870	20.045	3.838	0.510
960.000	568.078	80.003	19.994	103.864	20.044	3.959	0.519
967.500	571.857	80.005	19.994	103.867	20.044	3.906	0.503
975.000	575.688	80.006	19.996	103.870	20.043	3.984	0.521
982.500	579.479	80.003	19.995	103.874	20.042	4.083	0.526
990.000	583.177	80.003	19.994	103.871	20.043	4.009	0.510
997.500	586.938	80.004	19.993	103.876	20.041	4.112	0.496
1005.000	590.699	80.005	19.993	103.881	20.040	4.219	0.479
1012.500	594.519	80.004	19.994	103.872	20.043	4.026	0.533
1020.000	598.325	80.005	19.994	103.878	20.041	4.134	0.473
1027.499	602.135	80.008	19.992	103.864	20.033	4.637	0.521
1034.999	605.917	80.004	19.993	103.874	20.039	4.289	0.534
1042.499	609.519	80.005	19.994	103.871	20.043	4.010	0.334
1049.999	613.580	80.006	19.993	103.871	20.040	4.216	0.491
1057.500	617.482	80.006	19.992	103.873	20.040	4.167	0.501
1064.999	621.203	80.002	19.993	103.874	20.037	4.371	0.486
1072.499	624.951	80.001	19.995	103.874	20.037	4.400	0.500
1079.999	628.785	80.006	19.993	103.872	20.038	4.320	0.511
1087.499	632.517	80.004	19.994	103.873	20.039	4.238	0.491
1094.999	636.315	80.005	19.994	103.883	20.033	4.649	0.486
1102.499	640.081	80.004	19.994	103.888	20.034	4.621	0.493
1109.999	643.794	80.006	19.992	103.901	20.033	4.634	0.523
1117.499	647.474	80.006	19.992	103.911	20.035	4.564	0.471
1125.000	651.196	80.005	19.993	103.907	20.032	4.724	0.535
1132.499	654.777	80.006	19.995	103.912	20.031	4.811	0.287
1140.000	658.649	80.006	19.995	103.910	20.035	4.522	0.528
1147.499	662.443	80.007	19.993	103.913	20.033	4.641	0.483
1154.999	666.288	80.005	19.993	103.926	20.029	4.937	0.501
1162.499	670.173	80.009	19.993	103.944	20.028	4.992	0.496
1169.999	673.993	80.001	19.997	103.948	20.027	5.076	0.514
1177.499	677.922	80.003	19.997	103.955	20.022	5.385	0.528
1184.999	682.035	80.006	19.990	103.963	20.022	5.386	0.693
1192.500	685.503	80.003	19.997	103.983	20.021	5.446	0.457
1199.999	689.373	80.006	19.992	103.990	20.016	5.804	0.507
1207.501	693.128	80.000	19.998	103.992	20.017	5.754	0.476
1214.999	696.879	80.005	19.996	104.005	20.015	5.861	0.484
1222.500	700.611	79.998	20.001	104.020	20.010	6.209	0.481
1229.999	704.414	80.006	19.994	104.035	20.008	6.336	0.502
1237.499	708.157	80.005	19.993	104.063	20.009	6.286	0.500
1244.999	711.869	80.004	19.998	104.069	20.003	6.693	0.464
1252.500	715.646	80.004	19.995	104.083	20.002	6.723	0.487
1259.999	719.343	80.005	19.997	104.090	19.999	6.951	0.505
1267.499	723.115	80.005	19.987	104.108	19.996	7.143	0.541
1274.999	726.830	80.007	19.987	104.141	19.992	7.393	0.506
1282.499	730.607	80.007	19.996	104.144	19.987	7.748	0.523
1289.999	734.430	80.007	19.993	104.169	19.982	8.062	0.514
1297.499	738.337	80.007	19.989	104.181	19.978	8.327	0.528
1304.999	742.119	80.006	19.993	104.222	19.977	8.411	0.508
1307.500	743.489	80.004	19.996	104.224	19.975	8.539	0.549