Folder: fsri_materials_database/01_Data/Luan_Panel/STA/N2/10K_min (part 2)

File: Luan_STA_N2_10KData_221003_R3.csv
##Temp./Â°C,Time/min,Mass loss(subtr.2)/mg,DSC(subtr.2)/mW,Sensit./(uV/mW)
49.713,10.00917,-0.04344,0.06031738,1.07515
52.713,11.28332,-0.04723909,0.45219,1.07359
55.713,11.7165,-0.04782078,0.65057,1.07202
58.713,12.08425,-0.0477939,0.77444,1.07046
61.713,12.42817,-0.04936005,0.8621,1.0689
64.713,12.75958,-0.05104553,0.91636,1.06735
67.713,13.08582,-0.05199619,0.96819,1.06579
70.713,13.40794,-0.05461956,1.01388,1.06424
73.713,13.7258,-0.05602904,1.06905,1.06268
76.713,14.04026,-0.05726577,1.11342,1.06113
79.713,14.35014,-0.05989454,1.15308,1.05958
82.713,14.65896,-0.06558279,1.17314,1.05803
85.713,14.9645,-0.06811516,1.18851,1.05648
88.713,15.26789,-0.06221199,1.18354,1.05494
91.713,15.5679,-0.06624569,1.18035,1.05339
94.713,15.86597,-0.06953982,1.16356,1.05185
97.713,16.1623,-0.0708714,1.15403,1.05031
100.713,16.45625,-0.07700001,1.16048,1.04877
103.713,16.7497,-0.07400418,1.18672,1.04723
106.713,17.04166,-0.06959252,1.181,1.04569
109.713,17.3339,-0.07239641,1.1704,1.04415
112.713,17.62645,-0.07706036,1.14265,1.04262
115.713,17.91824,-0.07897,1.12475,1.04109
118.713,18.21,-0.08029022,1.10694,1.03955
121.713,18.5019,-0.08159963,1.09875,1.03802
124.713,18.79328,-0.08161,1.08606,1.03649
127.713,19.08492,-0.08292974,1.09763,1.03496
130.713,19.3757,-0.08343578,1.10393,1.03344
133.713,19.6662,-0.08456328,1.11028,1.03191
136.713,19.95619,-0.08555643,1.11779,1.03039
139.713,20.24529,-0.08817961,1.12782,1.02886
142.713,20.53545,-0.08735226,1.12776,1.02734
145.713,20.82464,-0.08851,1.13997,1.02582
148.713,21.1146,-0.08949999,1.1573,1.0243
151.713,21.404,-0.09185317,1.16153,1.02278
154.713,21.69249,-0.08980587,1.17448,1.02126
157.713,21.98085,-0.09371981,1.20187,1.01974
160.713,22.26921,-0.09346,1.2273,1.01822
163.713,22.55648,-0.0960902,1.26537,1.01671
166.713,22.8442,-0.09641024,1.29997,1.01519
169.713,23.13199,-0.09771683,1.35523,1.01367
172.713,23.41884,-0.0987001,1.41507,1.01216
175.713,23.70563,-0.10237,1.48145,1.01065
178.713,23.99249,-0.10562,1.53714,1.00913
181.713,24.2791,-0.10695,1.59841,1.00762
184.713,24.56699,-0.1096,1.67267,1.00611
187.713,24.85456,-0.11545,1.73907,1.0046
190.713,25.14205,-0.12077,1.81739,1.00308
193.713,25.42858,-0.12472,1.88133,1.00157
196.713,25.71537,-0.13014,1.95131,1.00006
199.713,26.00181,-0.13676,2.00615,0.99855
202.713,26.288,-0.14291,2.0372,0.99704
205.713,26.5752,-0.14852,2.06147,0.99553
208.713,26.86249,-0.15513,2.08363,0.99401
211.713,27.14872,-0.16287,2.117,0.9925
214.713,27.4349,-0.17123,2.15004,0.99099
217.713,27.72056,-0.17954,2.1874,0.98948
220.713,28.00562,-0.18746,2.23783,0.98797
223.713,28.29216,-0.19843,2.28534,0.98645
226.713,28.57832,-0.20968,2.3269,0.98494
229.713,28.86467,-0.22178,2.35883,0.98343
232.713,29.1511,-0.23357,2.35799,0.98191
235.713,29.4382,-0.24882,2.3476,0.9804
238.713,29.72506,-0.26103,2.32806,0.97888
241.713,30.01203,-0.27499,2.30885,0.97736
244.713,30.29898,-0.29196,2.28997,0.97585
247.713,30.58519,-0.30877,2.27196,0.97433
250.713,30.8716,-0.32509,2.28414,0.97281
253.713,31.1578,-0.3449,2.27962,0.97128
256.713,31.4435,-0.36565,2.27282,0.96976
259.713,31.7302,-0.38818,2.27252,0.96824
262.713,32.01692,-0.41454,2.26494,0.96671
265.713,32.30404,-0.44153,2.26654,0.96519
268.713,32.59113,-0.47376,2.25754,0.96366
271.713,32.8772,-0.50885,2.2474,0.96213
274.713,33.16342,-0.54746,2.22089,0.96059
277.713,33.44963,-0.58855,2.17551,0.95906
280.713,33.73618,-0.63244,2.09858,0.95752
283.713,34.02303,-0.68011,2.02937,0.95599
286.713,34.3096,-0.72971,1.93188,0.95445
289.713,34.59648,-0.78127,1.83212,0.9529
292.713,34.8829,-0.83375,1.75597,0.95136
295.713,35.1696,-0.89004,1.66528,0.94981
298.713,35.45547,-0.94886,1.59851,0.94826
301.713,35.74224,-1.00794,1.52651,0.94671
304.713,36.02905,-1.07161,1.48855,0.94516
307.713,36.31655,-1.13693,1.45583,0.9436
310.713,36.60434,-1.20316,1.44645,0.94204
313.713,36.89242,-1.27234,1.4503,0.94048
316.713,37.1808,-1.34581,1.46411,0.93891
319.713,37.46926,-1.42133,1.49931,0.93734
322.713,37.75782,-1.50162,1.51687,0.93577
325.713,38.04753,-1.58623,1.55066,0.93419
328.713,38.33725,-1.67579,1.57084,0.93262
331.713,38.6265,-1.7689,1.5836,0.93103
334.713,38.91585,-1.86479,1.58957,0.92945
337.713,39.20577,-1.96467,1.58423,0.92786
340.713,39.49511,-2.06719,1.55848,0.92627
343.713,39.78528,-2.17036,1.51971,0.92467
346.713,40.07564,-2.27299,1.43213,0.92307
349.713,40.3667,-2.37011,1.2972,0.92146
352.713,40.65777,-2.46447,1.12705,0.91985
355.713,40.94823,-2.54862,0.92334,0.91824
358.713,41.23878,-2.61869,0.68628,0.91662
361.713,41.52902,-2.67325,0.44788,0.915
364.713,41.81774,-2.70813,0.28058,0.91338
367.713,42.1075,-2.73254,0.15678,0.91175
370.713,42.39863,-2.7511,0.0855933,0.91011
373.713,42.68908,-2.76572,0.04114339,0.90847
376.713,42.98055,-2.77938,-0.005216803,0.90683
379.713,43.2729,-2.7926,-0.03350461,0.90518
382.713,43.5647,-2.8031,-0.0620123,0.90352
385.713,43.85637,-2.81281,-0.07802215,0.90186
388.713,44.1481,-2.82394,-0.09244574,0.9002
391.713,44.4401,-2.83445,-0.11761,0.89853
394.713,44.73215,-2.84471,-0.12678,0.89686
397.713,45.02466,-2.85435,-0.1395,0.89518
400.713,45.3169,-2.864,-0.13793,0.89349
403.713,45.60967,-2.87272,-0.13786,0.8918
406.713,45.9024,-2.87994,-0.14725,0.8901
409.713,46.19518,-2.88948,-0.15305,0.8884
412.713,46.48875,-2.89758,-0.12986,0.88669
415.713,46.782,-2.90579,-0.13682,0.88498
418.713,47.07547,-2.913,-0.13636,0.88326
421.713,47.36873,-2.92193,-0.10459,0.88153
424.713,47.6625,-2.92811,-0.10264,0.8798
427.713,47.95647,-2.93599,-0.08800418,0.87806
430.713,48.2507,-2.94277,-0.08376883,0.87632
433.713,48.54572,-2.94883,-0.06174075,0.87457
436.713,48.84131,-2.95694,-0.05101418,0.87281
439.713,49.13645,-2.96315,-0.02810552,0.87105
442.713,49.43108,-2.9687,-0.003438014,0.86928
445.713,49.72585,-2.9745,0.007785503,0.8675
448.713,50.01997,-2.97975,0.02806561,0.86572
451.713,50.31402,-2.98629,0.03050439,0.86393
454.713,50.60791,-2.99056,0.03309434,0.86214
457.713,50.9026,-2.99647,0.05507039,0.86033
460.713,51.1976,-3.00174,0.06771905,0.85852
463.713,51.49219,-3.00618,0.0705838,0.85671
466.713,51.7875,-3.01071,0.08488063,0.85488
469.713,52.08287,-3.01669,0.07223686,0.85305
472.713,52.3782,-3.02056,0.08880643,0.85121
475.713,52.6748,-3.02484,0.08242718,0.84937
478.713,52.9721,-3.02986,0.08783082,0.84752
481.713,53.27026,-3.03515,0.10562,0.84566
484.713,53.5687,-3.0385,0.07707885,0.84379
487.713,53.86691,-3.04379,0.12261,0.84191
490.713,54.1652,-3.04784,0.18175,0.84003
493.713,54.4627,-3.053,0.20703,0.83814
496.713,54.75906,-3.05607,0.25719,0.83625
499.713,55.0549,-3.06133,0.26868,0.83434
502.713,55.35055,-3.06397,0.27694,0.83243
505.713,55.64812,-3.06923,0.29582,0.83051
508.713,55.9462,-3.07318,0.29042,0.82858
511.713,56.24494,-3.07548,0.28675,0.82665
514.713,56.5436,-3.07808,0.2863,0.8247
517.713,56.8416,-3.08071,0.28002,0.82275
520.713,57.13989,-3.08541,0.28529,0.82079
523.713,57.438,-3.08865,0.26877,0.81883
526.713,57.73561,-3.09129,0.25262,0.81685
529.713,58.0333,-3.09491,0.2049,0.81487
532.713,58.3311,-3.0975,0.17369,0.81288
535.713,58.6297,-3.10017,0.13598,0.81088
538.713,58.92759,-3.10182,0.13096,0.80887
541.713,59.2265,-3.10329,0.11277,0.80685
544.713,59.52574,-3.1084,0.09353987,0.80483
547.713,59.82467,-3.11103,0.07429898,0.8028
550.713,60.12372,-3.11234,0.05436606,0.80076
553.713,60.42284,-3.11531,0.01944438,0.79871
556.713,60.7223,-3.11795,0.01335651,0.79665
559.713,61.0231,-3.11925,0.001151975,0.79459
562.713,61.3229,-3.12123,-0.01433451,0.79252
565.713,61.62271,-3.1244,-0.02336739,0.79044
568.713,61.92188,-3.12569,-0.04252493,0.78835
571.713,62.22093,-3.12913,-0.04582469,0.78625
574.713,62.52,-3.13044,-0.06791719,0.78414
577.713,62.8188,-3.13309,-0.08924184,0.78203
580.713,63.118,-3.13505,-0.08765822,0.7799
583.713,63.4176,-3.13689,-0.10464,0.77777
586.713,63.71891,-3.14031,-0.10836,0.77563
589.713,64.02088,-3.14131,-0.12377,0.77348
592.713,64.3216,-3.14361,-0.13182,0.77133
595.713,64.6234,-3.14525,-0.13949,0.76916
598.713,64.92535,-3.14755,-0.1461,0.76699
601.713,65.2264,-3.14892,-0.16639,0.76481
604.713,65.52712,-3.15052,-0.18558,0.76262
607.713,65.82819,-3.15151,-0.16067,0.76042
610.713,66.1285,-3.15414,-0.18002,0.75821
613.713,66.429,-3.15511,-0.16321,0.756
616.713,66.7312,-3.15727,-0.17768,0.75377
619.713,67.03328,-3.15907,-0.18248,0.75154
622.713,67.33605,-3.16183,-0.20305,0.7493
625.713,67.63879,-3.16169,-0.20662,0.74705
628.713,67.94148,-3.16444,-0.22828,0.7448
631.713,68.24337,-3.16773,-0.24251,0.74253
634.713,68.54471,-3.16839,-0.25865,0.74026
637.713,68.84647,-3.17037,-0.26633,0.73798
640.713,69.14839,-3.17201,-0.29402,0.73569
643.713,69.45047,-3.17422,-0.31735,0.73339
646.713,69.75307,-3.17528,-0.34226,0.73108
649.713,70.056,-3.17563,-0.35279,0.72877
652.713,70.35897,-3.17793,-0.35293,0.72645
655.713,70.66167,-3.1786,-0.37434,0.72412
658.713,70.9646,-3.18254,-0.38477,0.72178
661.713,71.26796,-3.18255,-0.40111,0.71943
664.713,71.57038,-3.18254,-0.39723,0.71708
667.713,71.8727,-3.18527,-0.41248,0.71471
670.713,72.17543,-3.1855,-0.42433,0.71234
673.713,72.47926,-3.18551,-0.42451,0.70997
676.713,72.7825,-3.18682,-0.4289,0.70758
679.713,73.0856,-3.18682,-0.44971,0.70519
682.713,73.3885,-3.18814,-0.44911,0.70278
685.713,73.69211,-3.19109,-0.45251,0.70038
688.713,73.996,-3.19097,-0.45717,0.69796
691.713,74.29905,-3.19241,-0.44976,0.69553
694.713,74.60253,-3.19373,-0.44723,0.6931
697.713,74.90637,-3.19505,-0.4644,0.69066
700.713,75.21014,-3.19505,-0.47519,0.68822
703.713,75.51392,-3.19669,-0.48114,0.68576
706.713,75.81753,-3.19807,-0.48116,0.6833
709.713,76.12119,-3.198,-0.47048,0.68083
712.713,76.42525,-3.20062,-0.48043,0.67836
715.713,76.72912,-3.20032,-0.47293,0.67587
718.713,77.0326,-3.20163,-0.49386,0.67339
721.713,77.3366,-3.20229,-0.49619,0.67089
724.713,77.6405,-3.2029,-0.49886,0.66838
727.713,77.94447,-3.20402,-0.51294,0.66587
730.713,78.24871,-3.20525,-0.52346,0.66336
733.713,78.55282,-3.20628,-0.53411,0.66083
736.713,78.85825,-3.20759,-0.53755,0.6583
739.713,79.16271,-3.20953,-0.53328,0.65576
742.713,79.46772,-3.21084,-0.52579,0.65322
745.713,79.77339,-3.21014,-0.54258,0.65067
747.913,79.9984,-3.2115,-0.55762,0.6488