Folder: fsri_materials_database/01_Data/Luan_Panel/STA/N2/10K_min

Note: 01_Data/README.md
# Materials and Products Database
## 01_Data

Raw data generated from each apparatus are included here in plain-text format. The data is organized first by material, next by the short name of test apparatus used, and where applicable additional filtering by test settings.

### material.json

Each material directory contains a json file of the same name as the material. This file links the data stored in the repository as well as data and graphs produced by the accompanying scripts (__02_Scripts__) to the respective landing page for the material on the front-end website.

File: Luan_Panel_STA_N2_10KData_221003_R1.csv
##Temp./Â°C,Time/min,Mass loss(subtr.2)/mg,DSC(subtr.2)/mW,Sensit./(uV/mW)
49.612,10.00917,0.0079,0.11353,1.0752
52.612,11.27984,0.01078719,0.51625,1.07364
55.612,11.71371,0.01098607,0.72781,1.07208
58.612,12.08185,0.01062367,0.85995,1.07052
61.612,12.42491,0.0091229,0.95019,1.06896
64.612,12.7563,0.009153628,1.02576,1.0674
67.612,13.082,0.009218601,1.08678,1.06584
70.612,13.40356,0.00780508,1.15362,1.06429
73.612,13.72139,0.007881093,1.233,1.06273
76.612,14.0369,0.00527304,1.27198,1.06118
79.612,14.34854,0.003949483,1.31714,1.05963
82.612,14.65751,0.002630002,1.35197,1.05808
85.612,14.9637,0.001320444,1.37301,1.05654
88.612,15.26635,-0.0004878703,1.3863,1.05499
91.612,15.56645,-0.001972448,1.38247,1.05344
94.612,15.86541,-0.00273668,1.37075,1.0519
97.612,16.16161,-0.00395,1.33962,1.05036
100.612,16.4567,-0.007108934,1.31557,1.04882
103.612,16.7511,-0.007897424,1.28887,1.04728
106.612,17.04673,-0.00789951,1.27956,1.04574
109.612,17.34056,-0.00789,1.30959,1.04421
112.612,17.634,-0.01055156,1.30059,1.04267
115.612,17.92708,-0.009299301,1.27676,1.04114
118.612,18.2201,-0.01053,1.24294,1.03961
121.612,18.51351,-0.01054169,1.22736,1.03807
124.612,18.80528,-0.01188019,1.19679,1.03654
127.612,19.09791,-0.01316012,1.20682,1.03502
130.612,19.38896,-0.01316,1.2025,1.03349
133.612,19.68079,-0.01316,1.20387,1.03196
136.612,19.97159,-0.01249999,1.21554,1.03044
139.612,20.26128,-0.01250923,1.21852,1.02891
142.612,20.55041,-0.01237518,1.23101,1.02739
145.612,20.8402,-0.0140305,1.23965,1.02587
148.612,21.12858,-0.01370974,1.26242,1.02435
151.612,21.41643,-0.01503318,1.2831,1.02283
154.612,21.70434,-0.01458203,1.30903,1.02131
157.612,21.99227,-0.01371011,1.32598,1.01979
160.612,22.28061,-0.01502553,1.35595,1.01827
163.612,22.56891,-0.01538196,1.37706,1.01676
166.612,22.8572,-0.01633998,1.41492,1.01524
169.612,23.14575,-0.01885982,1.45473,1.01373
172.612,23.43376,-0.02029003,1.51393,1.01221
175.612,23.7219,-0.02126652,1.56949,1.0107
178.612,24.0091,-0.02423966,1.64587,1.00918
181.612,24.2965,-0.02554657,1.71089,1.00767
184.612,24.58286,-0.02819136,1.78499,1.00616
187.612,24.8687,-0.03345,1.86203,1.00465
190.612,25.15503,-0.03719429,1.93982,1.00313
193.612,25.44122,-0.04119011,2.01915,1.00162
196.612,25.7269,-0.04660854,2.06851,1.00011
199.612,26.01362,-0.05286918,2.12477,0.9986
202.612,26.2999,-0.05988326,2.1628,0.99709
205.612,26.5865,-0.06757134,2.1918,0.99558
208.612,26.87405,-0.07396633,2.2291,0.99407
211.612,27.1609,-0.08074345,2.24433,0.99255
214.612,27.4481,-0.08877723,2.277,0.99104
217.612,27.7347,-0.09694758,2.30353,0.98953
220.612,28.0214,-0.10354,2.35737,0.98802
223.612,28.3083,-0.11473,2.40812,0.9865
226.612,28.59487,-0.12157,2.43693,0.98499
229.612,28.8809,-0.13332,2.47694,0.98348
232.612,29.16709,-0.14747,2.483,0.98196
235.612,29.453,-0.15919,2.47081,0.98045
238.612,29.7387,-0.17174,2.45377,0.97893
241.612,30.0243,-0.18527,2.43501,0.97741
244.612,30.30967,-0.19968,2.42154,0.9759
247.612,30.59555,-0.21639,2.42342,0.97438
250.612,30.882,-0.23475,2.41693,0.97286
253.612,31.16875,-0.25306,2.39448,0.97134
256.612,31.45542,-0.27307,2.38505,0.96981
259.612,31.74131,-0.29416,2.38165,0.96829
262.612,32.02737,-0.31882,2.37355,0.96676
265.612,32.314,-0.34722,2.35793,0.96524
268.612,32.60006,-0.37731,2.32931,0.96371
271.612,32.88572,-0.41321,2.29784,0.96218
274.612,33.17183,-0.4498,2.25746,0.96065
277.612,33.45783,-0.49019,2.18596,0.95911
280.612,33.74387,-0.53469,2.08981,0.95758
283.612,34.03024,-0.57927,2.00294,0.95604
286.612,34.31615,-0.62829,1.89588,0.9545
289.612,34.60314,-0.68027,1.79233,0.95296
292.612,34.89025,-0.73442,1.68119,0.95141
295.612,35.177,-0.78885,1.56916,0.94987
298.612,35.46403,-0.84692,1.47881,0.94832
301.612,35.75085,-0.90707,1.41365,0.94676
304.612,36.03737,-0.96806,1.36183,0.94521
307.612,36.3242,-1.03302,1.3293,0.94365
310.612,36.61161,-1.09874,1.30895,0.94209
313.612,36.8999,-1.16652,1.31398,0.94053
316.612,37.18874,-1.23857,1.31686,0.93896
319.612,37.47788,-1.31244,1.31598,0.9374
322.612,37.7675,-1.3919,1.32534,0.93582
325.612,38.0576,-1.47564,1.34517,0.93425
328.612,38.34711,-1.56404,1.36278,0.93267
331.612,38.6372,-1.65606,1.35478,0.93109
334.612,38.92617,-1.74987,1.35635,0.9295
337.612,39.2155,-1.84585,1.34299,0.92791
340.612,39.50544,-1.94622,1.31564,0.92632
343.612,39.79602,-2.04699,1.25836,0.92472
346.612,40.08755,-2.14843,1.1727,0.92312
349.612,40.37941,-2.24436,1.07284,0.92152
352.612,40.67049,-2.33584,0.9391,0.91991
355.612,40.96236,-2.41498,0.7786,0.9183
358.612,41.25372,-2.48128,0.62403,0.91668
361.612,41.54473,-2.53171,0.47106,0.91506
364.612,41.83578,-2.56601,0.36426,0.91343
367.612,42.1271,-2.58996,0.29556,0.9118
370.612,42.4187,-2.60643,0.23928,0.91017
373.612,42.70955,-2.62143,0.21661,0.90853
376.612,43.00051,-2.6345,0.18284,0.90688
379.612,43.29252,-2.64645,0.16655,0.90523
382.612,43.58508,-2.65832,0.1441,0.90358
385.612,43.87744,-2.66999,0.1156,0.90192
388.612,44.1701,-2.68148,0.10889,0.90026
391.612,44.4629,-2.69071,0.09198115,0.89859
394.612,44.75504,-2.69912,0.0812735,0.89691
397.612,45.04736,-2.70864,0.06758617,0.89523
400.612,45.33958,-2.71838,0.06990657,0.89355
403.612,45.6323,-2.7289,0.07658674,0.89186
406.612,45.9253,-2.73704,0.07119535,0.89016
409.612,46.21843,-2.74544,0.07268093,0.88846
412.612,46.51238,-2.75393,0.07254127,0.88675
415.612,46.8063,-2.76178,0.08615201,0.88504
418.612,47.09998,-2.77165,0.09544697,0.88332
421.612,47.3947,-2.77812,0.10229,0.88159
424.612,47.68884,-2.78471,0.12044,0.87986
427.612,47.98312,-2.79284,0.14342,0.87812
430.612,48.2773,-2.80003,0.16667,0.87638
433.612,48.57156,-2.80691,0.17859,0.87463
436.612,48.86528,-2.81355,0.1988,0.87287
439.612,49.15886,-2.81959,0.22931,0.87111
442.612,49.4535,-2.82692,0.23978,0.86934
445.612,49.74864,-2.83341,0.255,0.86756
448.612,50.04418,-2.83876,0.27432,0.86578
451.612,50.33955,-2.84395,0.29613,0.86399
454.612,50.6353,-2.84979,0.3179,0.8622
457.612,50.93083,-2.85585,0.32663,0.86039
460.612,51.22614,-2.86006,0.33426,0.85858
463.612,51.52069,-2.86579,0.35391,0.85677
466.612,51.8157,-2.87128,0.35974,0.85494
469.612,52.11117,-2.87641,0.36776,0.85311
472.612,52.40732,-2.88162,0.37931,0.85127
475.612,52.7023,-2.88692,0.37873,0.84943
478.612,52.9992,-2.89078,0.38979,0.84758
481.612,53.2956,-2.89601,0.39249,0.84572
484.612,53.59219,-2.89933,0.39535,0.84385
487.612,53.88899,-2.90393,0.39515,0.84198
490.612,54.18584,-2.90854,0.4073,0.8401
493.612,54.4823,-2.91249,0.4183,0.83821
496.612,54.77945,-2.91776,0.42136,0.83631
499.612,55.07575,-2.92137,0.46303,0.83441
502.612,55.3724,-2.92543,0.4828,0.83249
505.612,55.66965,-2.92965,0.49855,0.83057
508.612,55.9671,-2.93318,0.50761,0.82865
511.612,56.2646,-2.93783,0.52225,0.82671
514.612,56.56255,-2.94145,0.53979,0.82477
517.612,56.85971,-2.9454,0.54992,0.82282
520.612,57.15733,-2.94795,0.546,0.82086
523.612,57.45451,-2.9523,0.55144,0.81889
526.612,57.75134,-2.95424,0.56167,0.81692
529.612,58.04895,-2.95887,0.57394,0.81493
532.612,58.3469,-2.96152,0.58245,0.81294
535.612,58.64505,-2.96383,0.56427,0.81094
538.612,58.9451,-2.9658,0.53418,0.80894
541.612,59.24455,-2.97073,0.49974,0.80692
544.612,59.54461,-2.97238,0.48158,0.8049
547.612,59.844,-2.97502,0.47046,0.80287
550.612,60.14365,-2.97831,0.45861,0.80083
553.612,60.44379,-2.97923,0.45651,0.79878
556.612,60.74369,-2.9813,0.44444,0.79672
559.612,61.0429,-2.98401,0.45465,0.79466
562.612,61.3427,-2.98763,0.44233,0.79259
565.612,61.6425,-2.98909,0.43775,0.79051
568.612,61.9425,-2.99289,0.44073,0.78842
571.612,62.2408,-2.99552,0.43906,0.78632
574.612,62.53911,-2.9975,0.4407,0.78421
577.612,62.83744,-2.9998,0.43398,0.7821
580.612,63.13635,-3.00144,0.43021,0.77998
583.612,63.4364,-3.00624,0.41496,0.77784
586.612,63.7362,-3.00762,0.41031,0.77571
589.612,64.03582,-3.01023,0.40303,0.77356
592.612,64.33555,-3.01055,0.39508,0.7714
595.612,64.63594,-3.01319,0.39054,0.76924
598.612,64.9368,-3.01318,0.37514,0.76706
601.612,65.23813,-3.01547,0.37421,0.76488
604.612,65.54013,-3.01714,0.39676,0.76269
607.612,65.842,-3.01942,0.39438,0.76049
610.612,66.14401,-3.02108,0.40596,0.75829
613.612,66.44559,-3.02339,0.40628,0.75607
616.612,66.74706,-3.02602,0.42732,0.75385
619.612,67.04897,-3.02799,0.43435,0.75162
622.612,67.3509,-3.03042,0.44435,0.74938
625.612,67.65259,-3.03358,0.46917,0.74713
628.612,67.95421,-3.03464,0.46101,0.74487
631.612,68.2561,-3.0363,0.46836,0.74261
634.612,68.55794,-3.03852,0.48442,0.74033
637.612,68.8603,-3.04083,0.47528,0.73805
640.612,69.1623,-3.04208,0.47536,0.73576
643.612,69.46557,-3.04203,0.47334,0.73347
646.612,69.76841,-3.04511,0.46461,0.73116
649.612,70.07189,-3.04612,0.45272,0.72885
652.612,70.37519,-3.04609,0.45932,0.72652
655.612,70.67851,-3.04839,0.45411,0.72419
658.612,70.98101,-3.04755,0.43615,0.72186
661.612,71.28341,-3.05003,0.4438,0.71951
664.612,71.58548,-3.05004,0.42095,0.71716
667.612,71.88712,-3.04952,0.45162,0.71479
670.612,72.18949,-3.05434,0.47018,0.71242
673.612,72.49213,-3.05563,0.50371,0.71005
676.612,72.795,-3.05424,0.52102,0.70766
679.612,73.09675,-3.05606,0.54242,0.70527
682.612,73.39915,-3.05761,0.57311,0.70287
685.612,73.70177,-3.06057,0.59171,0.70046
688.612,74.00461,-3.06115,0.61757,0.69804
691.612,74.3077,-3.0609,0.64894,0.69562
694.612,74.6118,-3.06353,0.65629,0.69318
697.612,74.9161,-3.06352,0.69404,0.69075
700.612,75.2192,-3.06583,0.7205,0.6883
703.612,75.5228,-3.06682,0.76756,0.68585
706.612,75.82675,-3.06814,0.75996,0.68338
709.612,76.1306,-3.06748,0.80427,0.68092
712.612,76.43418,-3.06946,0.81585,0.67844
715.612,76.73815,-3.07044,0.82687,0.67596
718.612,77.04103,-3.07143,0.8491,0.67347
721.612,77.34443,-3.07307,0.84298,0.67097
724.612,77.6477,-3.07286,0.86033,0.66847
727.612,77.95107,-3.07275,0.86727,0.66596
730.612,78.2556,-3.07277,0.88339,0.66344
733.612,78.56028,-3.07504,0.90152,0.66092
736.612,78.86455,-3.07504,0.92845,0.65839
739.612,79.17008,-3.07472,0.9252,0.65585
742.612,79.4751,-3.07473,0.9219,0.65331
745.612,79.77938,-3.07735,0.91785,0.65076
747.712,79.99186,-3.07603,0.91499,0.64897

File: Luan_STA_N2_10KData_221003_R2.csv
##Temp./Â°C,Time/min,DSC(subtr.2)/mW,Mass loss(subtr.2)/mg,Sensit./(uV/mW)
49.511,10.01,0.10643,-0.04376,1.07525
52.511,11.2788,0.50751,-0.04752998,1.07369
55.511,11.71217,0.7044,-0.04951095,1.07213
58.511,12.08057,0.83133,-0.0500092,1.07057
61.511,12.42349,0.92511,-0.05169358,1.06901
64.511,12.75554,0.99178,-0.05163163,1.06745
67.511,13.08113,1.05088,-0.05362384,1.06589
70.511,13.40332,1.10667,-0.05539863,1.06434
73.511,13.72205,1.15602,-0.05813645,1.06279
76.511,14.03705,1.21853,-0.06077221,1.06123
79.511,14.34774,1.25978,-0.06218249,1.05968
82.511,14.6569,1.29873,-0.06642249,1.05814
85.511,14.9619,1.3145,-0.06902734,1.05659
88.511,15.2659,1.32324,-0.0703096,1.05504
91.511,15.5671,1.31899,-0.07269433,1.0535
94.511,15.8666,1.29697,-0.07426002,1.05195
97.511,16.1645,1.27163,-0.07689054,1.05041
100.511,16.46115,1.26016,-0.07886244,1.04887
103.511,16.7557,1.24709,-0.07952623,1.04733
106.511,17.05022,1.28482,-0.08084,1.04579
109.511,17.34381,1.28787,-0.08213089,1.04426
112.511,17.6366,1.25922,-0.08216143,1.04272
115.511,17.92997,1.22592,-0.0834684,1.04119
118.511,18.2232,1.2097,-0.08597013,1.03966
121.511,18.516,1.20266,-0.08613589,1.03813
124.511,18.808,1.19718,-0.08841,1.0366
127.511,19.09968,1.19567,-0.08873927,1.03507
130.511,19.39059,1.18729,-0.08874005,1.03354
133.511,19.68039,1.18794,-0.09005169,1.03201
136.511,19.97107,1.20562,-0.09266067,1.03049
139.511,20.26023,1.21066,-0.09137024,1.02896
142.511,20.5498,1.21036,-0.09367,1.02744
145.511,20.839,1.21517,-0.09143544,1.02592
148.511,21.12827,1.2224,-0.09238319,1.0244
151.511,21.4162,1.23089,-0.09304781,1.02288
154.511,21.70488,1.26672,-0.09401149,1.02136
157.511,21.99232,1.29323,-0.09532,1.01984
160.511,22.2804,1.31589,-0.09532014,1.01832
163.511,22.5683,1.35285,-0.09796228,1.01681
166.511,22.85586,1.38381,-0.10056,1.01529
169.511,23.14396,1.42198,-0.10157,1.01378
172.511,23.43165,1.4848,-0.10453,1.01226
175.511,23.71846,1.53833,-0.10552,1.01075
178.511,24.00686,1.60293,-0.10683,1.00923
181.511,24.29499,1.66384,-0.1098,1.00772
184.511,24.58249,1.72923,-0.11352,1.00621
187.511,24.8706,1.8082,-0.11903,1.0047
190.511,25.15821,1.86534,-0.12283,1.00319
193.511,25.44525,1.93756,-0.1293,1.00167
196.511,25.73239,1.99889,-0.13316,1.00016
199.511,26.01919,2.05212,-0.14007,0.99865
202.511,26.30507,2.09545,-0.14571,0.99714
205.511,26.59188,2.12202,-0.15333,0.99563
208.511,26.8776,2.15489,-0.16221,0.99412
211.511,27.16269,2.18462,-0.16748,0.9926
214.511,27.4485,2.20398,-0.17473,0.99109
217.511,27.7337,2.23451,-0.18405,0.98958
220.511,28.0191,2.29202,-0.19166,0.98807
223.511,28.3046,2.32532,-0.20286,0.98656
226.511,28.58979,2.36624,-0.21149,0.98504
229.511,28.8752,2.40851,-0.22391,0.98353
232.511,29.1601,2.4333,-0.23451,0.98201
235.511,29.44558,2.4023,-0.25054,0.9805
238.511,29.7305,2.38352,-0.26248,0.97898
241.511,30.016,2.35497,-0.2769,0.97747
244.511,30.30142,2.33608,-0.2929,0.97595
247.511,30.5873,2.32737,-0.31009,0.97443
250.511,30.8733,2.33157,-0.32676,0.97291
253.511,31.1596,2.31233,-0.34635,0.97139
256.511,31.44643,2.31087,-0.36637,0.96986
259.511,31.73225,2.29982,-0.38871,0.96834
262.511,32.0194,2.27596,-0.41249,0.96682
265.511,32.30565,2.26464,-0.43897,0.96529
268.511,32.59255,2.24508,-0.46941,0.96376
271.511,32.87894,2.21863,-0.50535,0.96223
274.511,33.16543,2.1885,-0.54053,0.9607
277.511,33.4517,2.11991,-0.58219,0.95916
280.511,33.7374,2.03438,-0.6248,0.95763
283.511,34.0246,1.95346,-0.67084,0.95609
286.511,34.31157,1.84836,-0.71855,0.95455
289.511,34.59928,1.73731,-0.7703,0.95301
292.511,34.88664,1.6165,-0.82397,0.95146
295.511,35.17518,1.52063,-0.87818,0.94992
298.511,35.46387,1.44911,-0.93497,0.94837
301.511,35.75135,1.37412,-0.99521,0.94682
304.511,36.0384,1.3286,-1.0539,0.94526
307.511,36.32584,1.30245,-1.1183,0.94371
310.511,36.6131,1.27854,-1.18474,0.94215
313.511,36.90078,1.2937,-1.25305,0.94058
316.511,37.18823,1.29134,-1.32204,0.93902
319.511,37.47648,1.30052,-1.39758,0.93745
322.511,37.76457,1.3253,-1.47379,0.93588
325.511,38.05305,1.34427,-1.55713,0.9343
328.511,38.3412,1.34664,-1.64278,0.93272
331.511,38.631,1.35165,-1.73191,0.93114
334.511,38.9212,1.33878,-1.82747,0.92955
337.511,39.21094,1.32896,-1.92446,0.92797
340.511,39.50071,1.30507,-2.02212,0.92637
343.511,39.79071,1.25253,-2.12326,0.92478
346.511,40.08057,1.17753,-2.22283,0.92318
349.511,40.37019,1.06447,-2.31959,0.92157
352.511,40.66101,0.92004,-2.41095,0.91996
355.511,40.9514,0.72807,-2.49403,0.91835
358.511,41.24179,0.55998,-2.56076,0.91673
361.511,41.5322,0.36911,-2.61375,0.91511
364.511,41.82241,0.22612,-2.64709,0.91349
367.511,42.11291,0.13614,-2.67071,0.91186
370.511,42.40379,0.073057,-2.68862,0.91022
373.511,42.69552,0.03300401,-2.70316,0.90858
376.511,42.98752,-0.01096654,-2.71728,0.90694
379.511,43.28035,-0.04034743,-2.72954,0.90529
382.511,43.57315,-0.06465422,-2.7427,0.90363
385.511,43.86546,-0.08113387,-2.75298,0.90198
388.511,44.15762,-0.09924497,-2.76279,0.90031
391.511,44.45064,-0.10612,-2.77275,0.89864
394.511,44.74303,-0.12304,-2.78351,0.89697
397.511,45.03588,-0.14591,-2.79171,0.89529
400.511,45.3282,-0.15121,-2.80139,0.8936
403.511,45.62189,-0.15076,-2.81007,0.89191
406.511,45.91446,-0.14034,-2.82005,0.89022
409.511,46.20735,-0.14911,-2.82671,0.88851
412.511,46.50098,-0.13664,-2.83495,0.88681
415.511,46.79416,-0.12497,-2.84286,0.88509
418.511,47.08724,-0.12975,-2.85034,0.88337
421.511,47.38095,-0.11419,-2.85764,0.88165
424.511,47.6741,-0.09643626,-2.86449,0.87992
427.511,47.9684,-0.07004158,-2.87391,0.87818
430.511,48.26282,-0.04674489,-2.87979,0.87644
433.511,48.55761,-0.0388889,-2.88642,0.87469
436.511,48.8516,-0.0193802,-2.89175,0.87293
439.511,49.14586,-0.003611482,-2.89987,0.87117
442.511,49.4402,0.024432,-2.90669,0.8694
445.511,49.73468,0.03892622,-2.91309,0.86762
448.511,50.02848,0.03752542,-2.9181,0.86584
451.511,50.3237,0.05956101,-2.92338,0.86405
454.511,50.6188,0.06895319,-2.92994,0.86226
457.511,50.9147,0.07704843,-2.93518,0.86045
460.511,51.21054,0.08313224,-2.93854,0.85864
463.511,51.50598,0.08962151,-2.94477,0.85683
466.511,51.8022,0.09262111,-2.95067,0.855
469.511,52.09917,0.0943359,-2.9543,0.85317
472.511,52.39608,0.08581976,-2.95837,0.85134
475.511,52.69265,0.10651,-2.96251,0.84949
478.511,52.98945,0.10262,-2.96777,0.84764
481.511,53.2858,0.1039,-2.97173,0.84578
484.511,53.5823,0.11991,-2.97682,0.84391
487.511,53.87837,0.13322,-2.98093,0.84204
490.511,54.1746,0.18022,-2.98488,0.84016
493.511,54.47135,0.21459,-2.98917,0.83827
496.511,54.7677,0.2316,-2.99444,0.83637
499.511,55.0642,0.23871,-2.99837,0.83447
502.511,55.36119,0.24586,-3.00233,0.83256
505.511,55.6577,0.27397,-3.00606,0.83064
508.511,55.955,0.28459,-3.01001,0.82871
511.511,56.2523,0.28412,-3.01264,0.82678
514.511,56.5497,0.2914,-3.01527,0.82483
517.511,56.848,0.27969,-3.01791,0.82288
520.511,57.14676,0.27767,-3.02122,0.82092
523.511,57.4456,0.27305,-3.02449,0.81896
526.511,57.74345,0.26137,-3.02714,0.81698
529.511,58.04218,0.2232,-3.02973,0.815
532.511,58.3398,0.20262,-3.03303,0.81301
535.511,58.63834,0.18352,-3.03502,0.81101
538.511,58.9367,0.16248,-3.03969,0.80901
541.511,59.2355,0.15836,-3.04217,0.80699
544.511,59.5339,0.14893,-3.04522,0.80497
547.511,59.8326,0.1266,-3.04752,0.80294
550.511,60.1313,0.11882,-3.0515,0.8009
553.511,60.43099,0.12037,-3.05385,0.79885
556.511,60.73,0.09384204,-3.05574,0.79679
559.511,61.02956,0.08747753,-3.05707,0.79473
562.511,61.32901,0.09002086,-3.05896,0.79266
565.511,61.6293,0.07831625,-3.06134,0.79058
568.511,61.92957,0.07663883,-3.06397,0.78849
571.511,62.22877,0.07330958,-3.06494,0.78639
574.511,62.52794,0.07213997,-3.06935,0.78428
577.511,62.82804,0.07347234,-3.07134,0.78217
580.511,63.1276,0.05881373,-3.07393,0.78005
583.511,63.42782,0.05947067,-3.07527,0.77792
586.511,63.7293,0.05744029,-3.07889,0.77578
589.511,64.03138,0.049562,-3.08015,0.77363
592.511,64.33279,0.04044565,-3.08415,0.77147
595.511,64.63388,0.03117021,-3.08547,0.76931
598.511,64.9341,0.02490488,-3.08701,0.76714
601.511,65.23467,0.0275372,-3.08964,0.76496
604.511,65.53485,0.04010371,-3.08995,0.76277
607.511,65.83583,0.04699124,-3.09194,0.76057
610.511,66.1367,0.0359793,-3.09442,0.75836
613.511,66.4375,0.04941021,-3.09589,0.75615
616.511,66.73827,0.03013499,-3.09721,0.75392
619.511,67.03859,0.04817123,-3.09851,0.75169
622.511,67.3391,0.05858683,-3.10115,0.74945
625.511,67.6404,0.05392443,-3.10379,0.74721
628.511,67.94226,0.05580726,-3.10512,0.74495
631.511,68.2444,0.04877305,-3.10682,0.74268
634.511,68.5471,0.05317908,-3.10906,0.74041
637.511,68.8505,0.05079977,-3.11103,0.73813
640.511,69.15513,0.02318828,-3.11497,0.73584
643.511,69.46032,0.006438851,-3.11619,0.73354
646.511,69.76435,0.001046249,-3.11749,0.73124
649.511,70.06801,-0.007788635,-3.11881,0.72892
652.511,70.37135,0.00872655,-3.12277,0.7266
655.511,70.67347,0.005983855,-3.12276,0.72427
658.511,70.9754,0.01691538,-3.12408,0.72193
661.511,71.27731,0.02445059,-3.12605,0.71959
664.511,71.57915,0.04119107,-3.12507,0.71723
667.511,71.8806,0.05453074,-3.1254,0.71487
670.511,72.18172,0.06004551,-3.12935,0.7125
673.511,72.4839,0.05849056,-3.12935,0.71013
676.511,72.7868,0.05261338,-3.13033,0.70774
679.511,73.0898,0.08125014,-3.13429,0.70535
682.511,73.3938,0.07544771,-3.13297,0.70295
685.511,73.69759,0.08994843,-3.1356,0.70054
688.511,74.00146,0.08496299,-3.13759,0.69812
691.511,74.305,0.08743998,-3.13757,0.6957
694.511,74.60713,0.11003,-3.1402,0.69327
697.511,74.91027,0.11708,-3.14152,0.69083
700.511,75.2132,0.12668,-3.14284,0.68838
703.511,75.51597,0.13792,-3.14317,0.68593
706.511,75.81939,0.12315,-3.14284,0.68347
709.511,76.12331,0.14203,-3.14416,0.681
712.511,76.4282,0.13199,-3.14551,0.67852
715.511,76.73352,0.13763,-3.14656,0.67604
718.511,77.03851,0.14567,-3.14591,0.67355
721.511,77.34404,0.15032,-3.14788,0.67106
724.511,77.64941,0.14644,-3.14788,0.66855
727.511,77.95349,0.13273,-3.1492,0.66604
730.511,78.25758,0.13898,-3.15019,0.66353
733.511,78.56234,0.12543,-3.15147,0.661
736.511,78.86654,0.13163,-3.15315,0.65847
739.511,79.17109,0.12805,-3.1525,0.65594
742.511,79.47495,0.11004,-3.15249,0.65339
745.511,79.77883,0.10461,-3.15212,0.65084
747.611,79.9918,0.10994,-3.15381,0.64905