Folder: fsri_materials_database/01_Data/Luan_Panel/STA/N2/30K_min

Note: 01_Data/README.md
# Materials and Products Database
## 01_Data

Raw data generated from each apparatus are included here in plain-text format. The data is organized first by material, next by the short name of test apparatus used, and where applicable additional filtering by test settings.

### material.json

Each material directory contains a json file of the same name as the material. This file links the data stored in the repository as well as data and graphs produced by the accompanying scripts (__02_Scripts__) to the respective landing page for the material on the front-end website.

File: Luan_Panel_STA_N2_30KData_221103_R1.csv
##Temp./Â°C,Time/min,Mass loss(subtr.2)/mg,DSC(subtr.2)/(mW/mg),Sensit./(uV/mW)
48.778,10.00917,-0.01513,0.02294641,1.08891
51.978,10.87417,-0.01481109,0.18912,1.08621
55.178,11.1066,-0.01474278,0.30064,1.08353
58.378,11.28543,-0.01610644,0.39298,1.08088
61.578,11.44003,-0.016253,0.47049,1.07823
64.778,11.58053,-0.01634697,0.53792,1.07561
67.978,11.7123,-0.01736339,0.59799,1.073
71.178,11.83822,-0.01688402,0.65277,1.07042
74.378,11.95999,-0.01834298,0.70686,1.06784
77.578,12.07873,-0.01879876,0.75686,1.06529
80.778,12.19505,-0.01860064,0.80307,1.06275
83.978,12.30942,-0.02128026,0.84995,1.06024
87.178,12.42217,-0.02145589,0.89422,1.05774
90.378,12.53333,-0.02452798,0.93531,1.05525
93.578,12.64343,-0.0258428,0.97099,1.05279
96.778,12.75273,-0.02725103,1.00543,1.05034
99.978,12.86138,-0.02846765,1.02681,1.04791
103.178,12.96955,-0.03114996,1.04714,1.04549
106.378,13.07753,-0.03378056,1.05741,1.04309
109.578,13.18486,-0.03510001,1.0586,1.04071
112.778,13.2919,-0.03641904,1.05811,1.03835
115.978,13.399,-0.03903947,1.04941,1.036
119.178,13.5055,-0.04037392,1.04436,1.03367
122.378,13.6116,-0.04167975,1.05378,1.03136
125.578,13.7173,-0.04298998,1.06448,1.02907
128.778,13.82244,-0.04561942,1.05933,1.02679
131.978,13.9268,-0.04562165,1.05158,1.02452
135.178,14.0312,-0.0469398,1.04629,1.02228
138.378,14.13459,-0.04825988,1.04202,1.02004
141.578,14.23765,-0.04912397,1.03789,1.01783
144.778,14.34029,-0.04824877,1.03815,1.01563
147.978,14.4422,-0.04957002,1.04291,1.01345
151.178,14.5443,-0.04988407,1.05361,1.01128
154.378,14.64586,-0.05122,1.0604,1.00913
157.578,14.7471,-0.05173751,1.07735,1.00699
160.778,14.84791,-0.0522254,1.08795,1.00487
163.978,14.9485,-0.05352,1.10583,1.00277
167.178,15.04902,-0.05448797,1.12283,1.00067
170.378,15.149,-0.05580695,1.14256,0.9986
173.578,15.24864,-0.05683775,1.16359,0.99654
176.778,15.3483,-0.05680995,1.18997,0.99449
179.978,15.4474,-0.05576771,1.22006,0.99246
183.178,15.5464,-0.05812686,1.25442,0.99044
186.378,15.645,-0.06080233,1.29416,0.98843
189.578,15.7433,-0.06207024,1.34249,0.98644
192.778,15.84123,-0.06400896,1.39213,0.98447
195.978,15.9392,-0.06668201,1.44516,0.9825
199.178,16.03714,-0.07080853,1.50293,0.98055
202.378,16.13499,-0.07488155,1.5634,0.97861
205.578,16.23265,-0.07962067,1.62406,0.97669
208.778,16.33013,-0.08394255,1.68417,0.97478
211.978,16.42782,-0.09003313,1.74399,0.97288
215.178,16.5255,-0.09731904,1.79496,0.97099
218.378,16.623,-0.10224,1.84651,0.96912
221.578,16.72035,-0.11015,1.89007,0.96725
224.778,16.81782,-0.11921,1.92917,0.9654
227.978,16.91509,-0.12658,1.97117,0.96356
231.178,17.01251,-0.13591,2.01292,0.96173
234.378,17.10971,-0.14319,2.05135,0.95992
237.578,17.207,-0.15361,2.08994,0.95811
240.778,17.30389,-0.1647,2.12117,0.95632
243.978,17.40094,-0.17579,2.14473,0.95453
247.178,17.49792,-0.18907,2.15184,0.95275
250.378,17.59496,-0.20188,2.14201,0.95099
253.578,17.69205,-0.2156,2.12936,0.94923
256.778,17.78882,-0.22973,2.10498,0.94749
259.978,17.88557,-0.24531,2.08708,0.94575
263.178,17.9823,-0.26152,2.0692,0.94402
266.378,18.0788,-0.2779,2.05498,0.9423
269.578,18.17555,-0.29573,2.03907,0.94059
272.778,18.27222,-0.31687,2.02669,0.93889
275.978,18.36879,-0.33843,2.01017,0.9372
279.178,18.46546,-0.36118,1.99204,0.93551
282.378,18.56205,-0.38727,1.9717,0.93383
285.578,18.65868,-0.41655,1.94386,0.93216
288.778,18.75534,-0.4493,1.90896,0.9305
291.978,18.85213,-0.4853,1.86239,0.92884
295.178,18.94877,-0.52303,1.80804,0.92719
298.378,19.04555,-0.564,1.74244,0.92554
301.578,19.1421,-0.60982,1.66184,0.92391
304.778,19.23885,-0.65618,1.57382,0.92227
307.978,19.33558,-0.70565,1.47732,0.92065
311.178,19.43212,-0.75659,1.38318,0.91903
314.378,19.52872,-0.81262,1.29378,0.91741
317.578,19.6256,-0.86515,1.20543,0.9158
320.778,19.72247,-0.92408,1.13523,0.91419
323.978,19.81939,-0.98453,1.07329,0.91259
327.178,19.9164,-1.04598,1.02499,0.91099
330.378,20.01362,-1.11344,0.99057,0.9094
333.578,20.11103,-1.17904,0.97211,0.90781
336.778,20.2084,-1.25025,0.96112,0.90622
339.978,20.30591,-1.32227,0.95297,0.90464
343.178,20.4035,-1.40014,0.95027,0.90305
346.378,20.50119,-1.48125,0.94258,0.90148
349.578,20.59897,-1.56544,0.93942,0.8999
352.778,20.69695,-1.65675,0.92954,0.89832
355.978,20.79509,-1.7483,0.91885,0.89675
359.178,20.89317,-1.85047,0.90155,0.89518
362.378,20.99158,-1.94909,0.8775,0.89361
365.578,21.08996,-2.05294,0.84005,0.89204
368.778,21.18872,-2.15378,0.79409,0.89047
371.978,21.28734,-2.25286,0.73202,0.88891
375.178,21.3858,-2.34438,0.65976,0.88734
378.378,21.48464,-2.43097,0.57471,0.88577
381.578,21.58357,-2.49814,0.48773,0.88421
384.778,21.6825,-2.55248,0.41127,0.88264
387.978,21.78185,-2.59067,0.35706,0.88107
391.178,21.88109,-2.61422,0.32253,0.8795
394.378,21.98046,-2.63361,0.29124,0.87793
397.578,22.08001,-2.64707,0.26921,0.87636
400.778,22.17984,-2.66055,0.2458,0.87478
403.978,22.2796,-2.67167,0.22928,0.87321
407.178,22.37949,-2.68185,0.2082,0.87163
410.378,22.47938,-2.69424,0.19534,0.87005
413.578,22.5795,-2.70313,0.18646,0.86847
416.778,22.6796,-2.71467,0.17365,0.86688
419.978,22.7798,-2.72388,0.16888,0.86529
423.178,22.88014,-2.73228,0.16059,0.8637
426.378,22.98075,-2.74134,0.15697,0.8621
429.578,23.08107,-2.75109,0.15642,0.8605
432.778,23.18178,-2.75981,0.15915,0.8589
435.978,23.2825,-2.76778,0.16326,0.85729
439.178,23.38345,-2.77654,0.17003,0.85568
442.378,23.48423,-2.78337,0.17996,0.85406
445.578,23.58531,-2.79217,0.1895,0.85244
448.778,23.68644,-2.79904,0.20242,0.85081
451.978,23.78772,-2.80615,0.21249,0.84918
455.178,23.8891,-2.81321,0.22592,0.84754
458.378,23.99053,-2.82146,0.23859,0.8459
461.578,24.09206,-2.82718,0.25121,0.84425
464.778,24.19368,-2.8347,0.26355,0.84259
467.978,24.2953,-2.8402,0.27924,0.84093
471.178,24.39696,-2.84511,0.28969,0.83926
474.378,24.49889,-2.85214,0.29833,0.83758
477.578,24.6006,-2.85625,0.31227,0.8359
480.778,24.7026,-2.86338,0.32251,0.83421
483.978,24.8043,-2.86834,0.33196,0.83251
487.178,24.90643,-2.8745,0.33709,0.8308
490.378,25.00827,-2.87884,0.3406,0.82909
493.578,25.11074,-2.88348,0.35019,0.82737
496.778,25.21293,-2.88866,0.35505,0.82564
499.978,25.31535,-2.89339,0.36159,0.8239
503.178,25.41776,-2.89884,0.36582,0.82215
506.378,25.5202,-2.90281,0.3687,0.82039
509.578,25.62291,-2.90714,0.37097,0.81863
512.778,25.72552,-2.91348,0.37567,0.81686
515.978,25.8283,-2.91654,0.37293,0.81507
519.178,25.93104,-2.92076,0.37556,0.81328
522.378,26.03408,-2.92528,0.37472,0.81148
525.578,26.1368,-2.93027,0.3734,0.80967
528.778,26.2401,-2.93475,0.36895,0.80785
531.978,26.34327,-2.93752,0.36611,0.80601
535.178,26.4466,-2.93946,0.3659,0.80417
538.378,26.5499,-2.94455,0.36659,0.80232
541.578,26.65372,-2.94726,0.36724,0.80046
544.778,26.75722,-2.95091,0.37142,0.79858
547.978,26.86119,-2.95396,0.37209,0.7967
551.178,26.9651,-2.95824,0.37635,0.79481
554.378,27.069,-2.96075,0.38244,0.7929
557.578,27.1732,-2.96281,0.38535,0.79098
560.778,27.2773,-2.96597,0.38708,0.78905
563.978,27.38162,-2.96869,0.3915,0.78712
567.178,27.48607,-2.9715,0.39401,0.78516
570.378,27.5902,-2.97413,0.3963,0.7832
573.578,27.69497,-2.97633,0.3996,0.78123
576.778,27.79918,-2.97983,0.39897,0.77924
579.978,27.90428,-2.98202,0.39959,0.77724
583.178,28.009,-2.98443,0.40081,0.77523
586.378,28.11376,-2.98729,0.39997,0.77321
589.578,28.21865,-2.99123,0.39787,0.77118
592.778,28.3236,-2.99253,0.39869,0.76913
595.978,28.4288,-2.99387,0.39692,0.76707
599.178,28.53405,-2.9965,0.39082,0.765
602.378,28.6394,-2.99915,0.38657,0.76291
605.578,28.7447,-3.00182,0.38133,0.76082
608.778,28.85026,-3.00316,0.37768,0.75871
611.978,28.9558,-3.00574,0.37085,0.75659
615.178,29.0615,-3.00702,0.36577,0.75445
618.378,29.1671,-3.00972,0.35894,0.7523
621.578,29.2726,-3.01167,0.35303,0.75014
624.778,29.3784,-3.01323,0.35275,0.74797
627.978,29.48384,-3.01541,0.35043,0.74578
631.178,29.5894,-3.01801,0.34888,0.74358
634.378,29.6947,-3.02041,0.34934,0.74137
637.578,29.8003,-3.02196,0.35391,0.73914
640.778,29.90573,-3.02365,0.35035,0.7369
643.978,30.0113,-3.02558,0.35393,0.73465
647.178,30.11678,-3.02689,0.35793,0.73239
650.378,30.22232,-3.02824,0.36447,0.73011
653.578,30.32791,-3.03008,0.36612,0.72781
656.778,30.4336,-3.03161,0.37082,0.72551
659.978,30.53936,-3.03402,0.37505,0.72319
663.178,30.6452,-3.03397,0.3776,0.72086
666.378,30.75098,-3.03798,0.38238,0.71851
669.578,30.8567,-3.03962,0.38116,0.71615
672.778,30.96247,-3.0406,0.382,0.71378
675.978,31.0684,-3.04192,0.37601,0.7114
679.178,31.1745,-3.04323,0.37337,0.709
682.378,31.28065,-3.04457,0.36354,0.70659
685.578,31.38669,-3.04582,0.35694,0.70416
688.778,31.4928,-3.04853,0.35214,0.70172
691.978,31.599,-3.04949,0.34914,0.69927
695.178,31.70512,-3.05077,0.34061,0.69681
698.378,31.8114,-3.05114,0.33457,0.69433
701.578,31.9178,-3.05377,0.32718,0.69184
704.778,32.02405,-3.05411,0.32228,0.68933
707.978,32.13029,-3.05508,0.31876,0.68682
711.178,32.23682,-3.0564,0.31747,0.68429
714.378,32.34344,-3.05773,0.31431,0.68174
717.578,32.44989,-3.06034,0.31528,0.67919
720.778,32.5565,-3.05937,0.31187,0.67662
723.978,32.66308,-3.05976,0.30819,0.67404
727.178,32.76964,-3.06034,0.30174,0.67144
730.378,32.8765,-3.06298,0.29767,0.66883
733.578,32.98318,-3.06551,0.29516,0.66621
736.778,33.0899,-3.0643,0.29131,0.66358
739.978,33.19681,-3.06561,0.28641,0.66094
743.178,33.3035,-3.06694,0.28199,0.65828
746.378,33.4101,-3.06693,0.28048,0.65561
749.578,33.51686,-3.0709,0.2757,0.65293
752.778,33.62361,-3.06802,0.26851,0.65024
755.978,33.73044,-3.06934,0.26552,0.64753
759.178,33.8375,-3.07223,0.26416,0.64481
762.378,33.94467,-3.07218,0.26193,0.64208
765.578,34.05173,-3.07207,0.26331,0.63934
768.778,34.15902,-3.07208,0.25528,0.63659
771.978,34.26656,-3.07341,0.25662,0.63382
775.178,34.37425,-3.07387,0.2556,0.63105
778.378,34.4818,-3.07472,0.25129,0.62826
781.578,34.58938,-3.07603,0.2495,0.62546
784.778,34.6971,-3.07653,0.25009,0.62265
787.978,34.8049,-3.07775,0.26032,0.61983
791.178,34.91254,-3.07767,0.25547,0.617
793.678,34.99686,-3.07864,0.25615,0.61478

File: Luan_Panel_STA_N2_30KData_221103_R2.csv
##Temp./Â°C,Time/min,Mass loss(subtr.2)/mg,DSC(subtr.2)/(mW/mg),Sensit./(uV/mW)
48.651,10.01,-0.03949,0.02019232,1.08901
51.851,10.87372,-0.04250598,0.18516,1.08632
55.051,11.10666,-0.04260871,0.29991,1.08364
58.251,11.2852,-0.04363676,0.39085,1.08098
61.451,11.43984,-0.04496218,0.46773,1.07834
64.651,11.5806,-0.04409863,0.53328,1.07571
67.851,11.71213,-0.04452178,0.59121,1.07311
71.051,11.83792,-0.04741272,0.64527,1.07052
74.251,11.9596,-0.04749287,0.69162,1.06795
77.451,12.07846,-0.04803333,0.73762,1.06539
80.651,12.19469,-0.04984236,0.78324,1.06285
83.851,12.30903,-0.05209172,0.82556,1.06034
87.051,12.42168,-0.05331743,0.86601,1.05783
90.251,12.53301,-0.05491723,0.90396,1.05535
93.451,12.6432,-0.05645381,0.93739,1.05288
96.651,12.7525,-0.0587359,0.96838,1.05043
99.851,12.8611,-0.06155671,0.99364,1.048
103.051,12.96924,-0.06416101,1.00856,1.04559
106.251,13.07703,-0.06499533,1.02,1.04319
109.451,13.18464,-0.06547972,1.02578,1.04081
112.651,13.29185,-0.06739129,1.02272,1.03844
115.851,13.39904,-0.0704187,1.018,1.0361
119.051,13.5056,-0.07142079,1.01786,1.03377
122.251,13.61165,-0.07436914,1.03081,1.03145
125.451,13.71708,-0.07569002,1.03574,1.02916
128.651,13.8224,-0.0756899,1.03033,1.02688
131.851,13.92707,-0.07702404,1.02267,1.02461
135.051,14.03113,-0.07966161,1.01689,1.02236
138.251,14.1347,-0.07841912,1.01309,1.02013
141.451,14.2377,-0.08095095,1.01065,1.01792
144.651,14.34027,-0.07876083,1.01018,1.01572
147.851,14.44237,-0.08442815,1.01776,1.01353
151.051,14.5443,-0.08275957,1.02696,1.01137
154.251,14.6458,-0.08180632,1.03567,1.00921
157.451,14.7469,-0.08167462,1.04898,1.00708
160.651,14.8479,-0.08543999,1.06022,1.00496
163.851,14.9485,-0.08677576,1.07413,1.00285
167.051,15.049,-0.08678256,1.09143,1.00076
170.251,15.14921,-0.0880798,1.10765,0.99868
173.451,15.24915,-0.08939014,1.12791,0.99662
176.651,15.34883,-0.08998047,1.14999,0.99457
179.851,15.448,-0.09006061,1.17988,0.99254
183.051,15.54713,-0.09148184,1.21363,0.99052
186.251,15.64564,-0.09311151,1.25317,0.98851
189.451,15.7439,-0.0958077,1.29734,0.98652
192.651,15.842,-0.09941137,1.34473,0.98454
195.851,15.93992,-0.10201,1.39624,0.98258
199.051,16.0378,-0.10468,1.45034,0.98063
202.251,16.13553,-0.10801,1.50837,0.97869
205.451,16.23336,-0.11252,1.57012,0.97677
208.651,16.33086,-0.11843,1.63147,0.97485
211.851,16.42856,-0.12357,1.68598,0.97295
215.051,16.5261,-0.13143,1.73709,0.97107
218.251,16.62343,-0.1385,1.78651,0.96919
221.451,16.72105,-0.14508,1.82884,0.96733
224.651,16.8186,-0.15451,1.86763,0.96548
227.851,16.9159,-0.16221,1.90527,0.96364
231.051,17.01303,-0.17084,1.9468,0.96181
234.251,17.11001,-0.17978,1.98685,0.95999
237.451,17.2071,-0.18933,2.02617,0.95818
240.651,17.30434,-0.20098,2.05806,0.95639
243.851,17.40137,-0.21251,2.07934,0.9546
247.051,17.4978,-0.22449,2.0868,0.95282
250.251,17.59496,-0.23679,2.08037,0.95106
253.451,17.69162,-0.24963,2.06085,0.9493
256.651,17.7883,-0.2653,2.04164,0.94756
259.851,17.885,-0.28077,2.02364,0.94582
263.051,17.98157,-0.29776,2.00668,0.94409
266.251,18.07806,-0.31548,1.99004,0.94237
269.451,18.17468,-0.33228,1.97515,0.94066
272.651,18.27144,-0.35117,1.95996,0.93896
275.851,18.3678,-0.37176,1.94663,0.93726
279.051,18.46451,-0.3954,1.92993,0.93558
282.251,18.5608,-0.42347,1.90798,0.9339
285.451,18.65767,-0.44875,1.88457,0.93223
288.651,18.75433,-0.48178,1.85079,0.93056
291.851,18.85108,-0.51737,1.80935,0.92891
295.051,18.94774,-0.55702,1.75435,0.92725
298.251,19.0446,-0.59765,1.69157,0.92561
301.451,19.14151,-0.64184,1.61516,0.92397
304.651,19.23834,-0.68795,1.52735,0.92234
307.851,19.33511,-0.7382,1.43473,0.92071
311.051,19.4321,-0.79043,1.34096,0.91909
314.251,19.52904,-0.84451,1.2502,0.91747
317.451,19.62604,-0.9025,1.16588,0.91586
320.651,19.72318,-0.95889,1.09458,0.91426
323.851,19.82035,-1.0199,1.03377,0.91265
327.051,19.91757,-1.08219,0.98642,0.91106
330.251,20.015,-1.14563,0.95697,0.90946
333.451,20.11242,-1.21554,0.9404,0.90787
336.651,20.2098,-1.28438,0.92811,0.90628
339.851,20.30753,-1.35772,0.9264,0.9047
343.051,20.40513,-1.43193,0.9235,0.90312
346.251,20.50293,-1.51504,0.92179,0.90154
349.451,20.60068,-1.59951,0.92114,0.89996
352.651,20.69847,-1.6882,0.91842,0.89839
355.851,20.79654,-1.78247,0.91205,0.89681
359.051,20.89472,-1.87871,0.89879,0.89524
362.251,20.99296,-1.98224,0.87698,0.89367
365.451,21.09132,-2.08131,0.84353,0.8921
368.651,21.18974,-2.18511,0.79699,0.89054
371.851,21.28816,-2.28166,0.73541,0.88897
375.051,21.38681,-2.37688,0.65831,0.8874
378.251,21.4856,-2.45857,0.5708,0.88583
381.451,21.58435,-2.53197,0.47331,0.88427
384.651,21.68319,-2.58601,0.38853,0.8827
387.851,21.78215,-2.62483,0.32196,0.88113
391.051,21.88129,-2.65025,0.281,0.87956
394.251,21.98043,-2.66881,0.25184,0.87799
397.451,22.0799,-2.68478,0.22082,0.87642
400.651,22.17938,-2.69676,0.199,0.87485
403.851,22.27871,-2.709,0.18064,0.87327
407.051,22.37866,-2.7197,0.16362,0.87169
410.251,22.47841,-2.73067,0.14816,0.87011
413.451,22.578,-2.74122,0.13143,0.86853
416.651,22.67819,-2.75073,0.12539,0.86694
419.851,22.77822,-2.75943,0.11517,0.86536
423.051,22.87848,-2.76928,0.10814,0.86376
426.251,22.97881,-2.77823,0.10372,0.86217
429.451,23.07902,-2.78705,0.10236,0.86057
432.651,23.17965,-2.79665,0.10392,0.85896
435.851,23.28024,-2.80535,0.10905,0.85736
439.051,23.38083,-2.81295,0.11296,0.85574
442.251,23.48173,-2.82153,0.12256,0.85413
445.451,23.58261,-2.82793,0.13234,0.8525
448.651,23.68357,-2.83531,0.14054,0.85088
451.851,23.78465,-2.8436,0.15389,0.84924
455.051,23.8855,-2.84978,0.16831,0.84761
458.251,23.987,-2.85644,0.1789,0.84596
461.451,24.08845,-2.86521,0.19113,0.84431
464.651,24.18968,-2.87114,0.20308,0.84266
467.851,24.29113,-2.87775,0.21436,0.84099
471.051,24.39273,-2.88354,0.22592,0.83932
474.251,24.49447,-2.88988,0.23513,0.83765
477.451,24.59637,-2.89636,0.24322,0.83596
480.651,24.69825,-2.90003,0.25255,0.83427
483.851,24.8001,-2.9047,0.25975,0.83258
487.051,24.9022,-2.91119,0.26804,0.83087
490.251,25.00432,-2.91729,0.27279,0.82916
493.451,25.10661,-2.92115,0.27415,0.82743
496.651,25.20891,-2.92631,0.28114,0.8257
499.851,25.31148,-2.93104,0.28593,0.82397
503.051,25.41388,-2.93528,0.28958,0.82222
506.251,25.5165,-2.93998,0.29315,0.82046
509.451,25.61917,-2.94463,0.29521,0.8187
512.651,25.72206,-2.94911,0.30348,0.81693
515.851,25.82471,-2.95311,0.30302,0.81514
519.051,25.92756,-2.95833,0.30592,0.81335
522.251,26.03056,-2.96167,0.30378,0.81155
525.451,26.13371,-2.96702,0.2995,0.80974
528.651,26.2369,-2.97165,0.29482,0.80792
531.851,26.34034,-2.97556,0.29802,0.80609
535.051,26.44373,-2.97837,0.29698,0.80425
538.251,26.5473,-2.98095,0.30065,0.80239
541.451,26.6507,-2.98484,0.30516,0.80053
544.651,26.7543,-2.98755,0.31342,0.79866
547.851,26.8581,-2.99194,0.31904,0.79678
551.051,26.9619,-2.9949,0.3253,0.79488
554.251,27.06588,-2.99672,0.32813,0.79298
557.451,27.1696,-3.00068,0.33289,0.79106
560.651,27.274,-3.00327,0.33536,0.78913
563.851,27.37803,-3.00655,0.34,0.78719
567.051,27.48228,-3.01085,0.34454,0.78524
570.251,27.58669,-3.01198,0.3442,0.78328
573.451,27.6911,-3.0147,0.34279,0.78131
576.651,27.79546,-3.01766,0.34525,0.77932
579.851,27.9,-3.02098,0.34118,0.77732
583.051,28.0046,-3.02238,0.33708,0.77531
586.251,28.1094,-3.02591,0.33378,0.77329
589.451,28.2143,-3.02856,0.32675,0.77126
592.651,28.31887,-3.0304,0.32109,0.76921
595.851,28.4242,-3.03248,0.31694,0.76715
599.051,28.52941,-3.037,0.30993,0.76508
602.251,28.6345,-3.03853,0.30028,0.763
605.451,28.7397,-3.04094,0.29658,0.7609
608.651,28.84485,-3.04219,0.28912,0.75879
611.851,28.95011,-3.04555,0.28452,0.75667
615.051,29.0555,-3.04719,0.28046,0.75454
618.251,29.16103,-3.04982,0.27843,0.75239
621.451,29.2664,-3.05214,0.27345,0.75023
624.651,29.37187,-3.05352,0.2693,0.74806
627.851,29.47735,-3.05608,0.26698,0.74587
631.051,29.583,-3.05607,0.26212,0.74367
634.251,29.6887,-3.05739,0.26192,0.74146
637.451,29.79447,-3.05869,0.26165,0.73923
640.651,29.90007,-3.06266,0.2623,0.73699
643.851,30.0058,-3.06267,0.26564,0.73474
647.051,30.11164,-3.06528,0.26554,0.73248
650.251,30.21742,-3.06781,0.26707,0.7302
653.451,30.3232,-3.07042,0.2688,0.72791
656.651,30.4291,-3.07188,0.26667,0.7256
659.851,30.535,-3.0732,0.26332,0.72328
663.051,30.6408,-3.07582,0.26268,0.72095
666.251,30.74655,-3.07714,0.26297,0.71861
669.451,30.8524,-3.07981,0.26224,0.71625
672.651,30.9582,-3.07838,0.25095,0.71388
675.851,31.06434,-3.08207,0.24664,0.71149
679.051,31.17029,-3.08238,0.24239,0.70909
682.251,31.2761,-3.08437,0.23488,0.70668
685.451,31.3821,-3.08603,0.22455,0.70426
688.651,31.4882,-3.08869,0.21703,0.70182
691.851,31.59425,-3.08997,0.21131,0.69937
695.051,31.70038,-3.09224,0.20307,0.69691
698.251,31.8066,-3.09132,0.19675,0.69443
701.451,31.91292,-3.09393,0.1918,0.69194
704.651,32.01914,-3.09557,0.19174,0.68943
707.851,32.1257,-3.09633,0.18134,0.68692
711.051,32.23209,-3.09752,0.17855,0.68439
714.251,32.33853,-3.09886,0.17366,0.68184
717.451,32.44518,-3.09872,0.17053,0.67929
720.651,32.5519,-3.09962,0.16289,0.67672
723.851,32.6585,-3.10093,0.15759,0.67414
727.051,32.76497,-3.10192,0.15015,0.67155
730.251,32.87187,-3.10192,0.13972,0.66894
733.451,32.97858,-3.10228,0.13792,0.66632
736.651,33.08542,-3.10452,0.13176,0.66369
739.851,33.19214,-3.10624,0.12847,0.66104
743.051,33.29899,-3.10652,0.12345,0.65839
746.251,33.406,-3.10752,0.11602,0.65572
749.451,33.51321,-3.10844,0.11362,0.65304
752.651,33.62039,-3.10883,0.10791,0.65034
755.851,33.72743,-3.11004,0.10259,0.64764
759.051,33.8348,-3.11147,0.09627629,0.64492
762.251,33.94235,-3.11015,0.09166826,0.64219
765.451,34.04998,-3.11146,0.08791335,0.63945
768.651,34.15761,-3.11278,0.08998773,0.6367
771.851,34.26536,-3.1141,0.08515229,0.63393
775.051,34.37296,-3.11409,0.08102587,0.63116
778.251,34.48077,-3.11581,0.07760111,0.62837
781.451,34.58848,-3.11673,0.07974456,0.62557
784.651,34.69627,-3.11804,0.07878028,0.62276
787.851,34.8039,-3.11665,0.07522358,0.61994
791.051,34.9118,-3.11886,0.07582923,0.61711
793.651,34.9993,-3.11937,0.07326555,0.6148