Folder: fsri_materials_database/01_Data/Luan_Panel/STA/N2/30K_min (part 2)

File: Luan_STA_N2_30KData_221103_R3.csv
##Temp./Â°C,Time/min,Mass loss(subtr.2)/mg,DSC(subtr.2)/(mW/mg),Sensit./(uV/mW)
48.786,10.01,-0.07787,0.02447033,1.0889
51.986,10.87605,-0.08123561,0.1825,1.08621
55.186,11.10919,-0.08264464,0.29148,1.08353
58.386,11.2882,-0.08373389,0.37664,1.08087
61.586,11.44293,-0.08468402,0.44908,1.07823
64.786,11.58365,-0.08379582,0.50985,1.0756
67.986,11.7156,-0.08693375,0.56219,1.073
71.186,11.84135,-0.08612045,0.6104,1.07041
74.386,11.96343,-0.09068359,0.65327,1.06784
77.586,12.0823,-0.08949684,0.69627,1.06528
80.786,12.19868,-0.08951951,0.73665,1.06275
83.986,12.31302,-0.09288866,0.77621,1.06023
87.186,12.42582,-0.09550397,0.81562,1.05773
90.386,12.53683,-0.09541988,0.84984,1.05525
93.586,12.64724,-0.0995983,0.88536,1.05278
96.786,12.75655,-0.10026,0.91451,1.05033
99.986,12.8653,-0.10225,0.93654,1.0479
103.186,12.97358,-0.10619,0.95247,1.04549
106.386,13.0814,-0.10958,0.96041,1.04309
109.586,13.18919,-0.11111,0.95865,1.04071
112.786,13.29664,-0.11161,0.95747,1.03834
115.986,13.4035,-0.1144,0.94999,1.036
119.186,13.5103,-0.11703,0.94731,1.03367
122.386,13.61638,-0.11703,0.95459,1.03136
125.586,13.7217,-0.11835,0.9612,1.02906
128.786,13.82705,-0.12099,0.9542,1.02678
131.986,13.93164,-0.12099,0.94697,1.02452
135.186,14.03555,-0.12361,0.9384,1.02227
138.386,14.13892,-0.12361,0.92903,1.02004
141.586,14.2419,-0.12639,0.92586,1.01782
144.786,14.34433,-0.12759,0.92295,1.01563
147.986,14.44626,-0.12888,0.92616,1.01344
151.186,14.5479,-0.13022,0.93275,1.01128
154.386,14.6492,-0.13086,0.93897,1.00912
157.586,14.7502,-0.13152,0.94783,1.00699
160.786,14.85085,-0.13282,0.95779,1.00487
163.986,14.9518,-0.1343,0.96817,1.00276
167.186,15.0519,-0.13444,0.98319,1.00067
170.386,15.15214,-0.13436,0.99632,0.99859
173.586,15.25215,-0.13696,1.0163,0.99653
176.786,15.35167,-0.13713,1.03631,0.99448
179.986,15.4512,-0.13842,1.06386,0.99245
183.186,15.55008,-0.13974,1.09144,0.99043
186.386,15.64886,-0.1424,1.12503,0.98843
189.586,15.7475,-0.14502,1.1694,0.98644
192.786,15.8457,-0.14762,1.21288,0.98446
195.986,15.94389,-0.1502,1.26259,0.9825
199.186,16.0418,-0.15539,1.31951,0.98055
202.386,16.14,-0.15827,1.37863,0.97861
205.586,16.23772,-0.16456,1.43506,0.97669
208.786,16.33545,-0.16904,1.49672,0.97477
211.986,16.43291,-0.17495,1.54793,0.97287
215.186,16.53077,-0.18139,1.60487,0.97099
218.386,16.62836,-0.18971,1.65124,0.96911
221.586,16.726,-0.19692,1.69601,0.96725
224.786,16.82335,-0.20628,1.73195,0.9654
227.986,16.92093,-0.21452,1.773,0.96356
231.186,17.0182,-0.22289,1.80954,0.96173
234.386,17.11542,-0.23216,1.84817,0.95991
237.586,17.21273,-0.24113,1.88446,0.95811
240.786,17.3098,-0.25324,1.91545,0.95631
243.986,17.40693,-0.26424,1.93439,0.95453
247.186,17.50401,-0.27592,1.94388,0.95275
250.386,17.6009,-0.2879,1.93646,0.95098
253.586,17.6977,-0.30322,1.91819,0.94923
256.786,17.79434,-0.31714,1.897,0.94748
259.986,17.89108,-0.33403,1.87841,0.94575
263.186,17.98761,-0.35077,1.86026,0.94402
266.386,18.08408,-0.3682,1.84425,0.9423
269.586,18.18061,-0.38586,1.8304,0.94059
272.786,18.27692,-0.40737,1.81778,0.93889
275.986,18.37341,-0.42913,1.8035,0.93719
279.186,18.4699,-0.45364,1.78642,0.93551
282.386,18.56638,-0.47916,1.76656,0.93383
285.586,18.6629,-0.50863,1.73883,0.93216
288.786,18.7594,-0.54057,1.7063,0.93049
291.986,18.85576,-0.57789,1.65857,0.92884
295.186,18.9524,-0.6148,1.60479,0.92719
298.386,19.04903,-0.65717,1.53837,0.92554
301.586,19.14552,-0.70214,1.46128,0.9239
304.786,19.2421,-0.74854,1.37503,0.92227
307.986,19.33865,-0.79951,1.28518,0.92064
311.186,19.43535,-0.85083,1.18889,0.91902
314.386,19.53209,-0.90558,1.09862,0.91741
317.586,19.62895,-0.96088,1.01639,0.9158
320.786,19.72574,-1.01895,0.94794,0.91419
323.986,19.8226,-1.08153,0.88219,0.91259
327.186,19.91975,-1.14321,0.84201,0.91099
330.386,20.01685,-1.21096,0.81066,0.90939
333.586,20.114,-1.27798,0.79349,0.9078
336.786,20.2114,-1.34871,0.78848,0.90622
339.986,20.30903,-1.42302,0.78445,0.90463
343.186,20.4067,-1.49873,0.78325,0.90305
346.386,20.50437,-1.58187,0.78221,0.90147
349.586,20.60189,-1.66485,0.78131,0.8999
352.786,20.70014,-1.75905,0.77587,0.89832
355.986,20.79821,-1.85173,0.76937,0.89675
359.186,20.89637,-1.95086,0.75881,0.89518
362.386,20.99459,-2.04965,0.73531,0.89361
365.586,21.09281,-2.15311,0.7018,0.89204
368.786,21.19139,-2.25694,0.65946,0.89047
371.986,21.28957,-2.35534,0.59913,0.8889
375.186,21.38835,-2.44914,0.53132,0.88734
378.386,21.4872,-2.53226,0.4454,0.88577
381.586,21.58589,-2.60373,0.35361,0.8842
384.786,21.68465,-2.65796,0.27675,0.88263
387.986,21.78375,-2.69723,0.21688,0.88107
391.186,21.88276,-2.72266,0.17839,0.8795
394.386,21.982,-2.73988,0.15075,0.87793
397.586,22.0813,-2.75601,0.12533,0.87635
400.786,22.1808,-2.76892,0.10172,0.87478
403.986,22.28056,-2.78135,0.08285322,0.8732
407.186,22.38027,-2.79351,0.06859697,0.87163
410.386,22.48006,-2.8027,0.05155031,0.87005
413.586,22.57997,-2.81235,0.03575459,0.86846
416.786,22.6799,-2.82353,0.02388124,0.86688
419.986,22.7799,-2.83088,0.01662648,0.86529
423.186,22.88007,-2.84241,0.01108503,0.8637
426.386,22.9805,-2.85196,0.01228877,0.8621
429.586,23.0805,-2.86154,0.01210328,0.8605
432.786,23.18115,-2.87124,0.0103266,0.8589
435.986,23.2815,-2.87877,0.01621548,0.85729
439.186,23.38196,-2.88767,0.01995973,0.85568
442.386,23.48272,-2.89512,0.02936379,0.85406
445.586,23.58354,-2.90439,0.03848788,0.85244
448.786,23.68434,-2.91208,0.05388025,0.85081
451.986,23.78527,-2.91939,0.06132896,0.84918
455.186,23.88635,-2.92634,0.07718848,0.84754
458.386,23.9875,-2.93243,0.08848592,0.84589
461.586,24.08886,-2.94075,0.09768411,0.84424
464.786,24.19019,-2.94772,0.11034,0.84259
467.986,24.2916,-2.95454,0.12293,0.84092
471.186,24.39322,-2.96108,0.13457,0.83925
474.386,24.49481,-2.96705,0.14268,0.83758
477.586,24.59666,-2.97266,0.15113,0.83589
480.786,24.69839,-2.97834,0.16028,0.8342
483.986,24.8003,-2.98336,0.16763,0.8325
487.186,24.9021,-2.98895,0.17373,0.8308
490.386,25.00424,-2.99363,0.17718,0.82908
493.586,25.10631,-2.99967,0.18071,0.82736
496.786,25.20851,-3.0047,0.18531,0.82563
499.986,25.31089,-3.00917,0.18738,0.82389
503.186,25.41317,-3.01321,0.19127,0.82215
506.386,25.5156,-3.01935,0.19628,0.82039
509.586,25.61806,-3.02307,0.1946,0.81863
512.786,25.7206,-3.02706,0.19831,0.81685
515.986,25.8234,-3.03514,0.19746,0.81507
519.186,25.92635,-3.03972,0.19669,0.81328
522.386,26.02928,-3.04401,0.19288,0.81147
525.586,26.13234,-3.04837,0.18886,0.80966
528.786,26.2355,-3.05111,0.18778,0.80784
531.986,26.3387,-3.05366,0.17982,0.80601
535.186,26.44193,-3.05759,0.1758,0.80417
538.386,26.5454,-3.06125,0.17683,0.80232
541.586,26.6488,-3.06355,0.17783,0.80045
544.786,26.75233,-3.06867,0.17886,0.79858
547.986,26.85585,-3.07299,0.18343,0.7967
551.186,26.9595,-3.07468,0.18407,0.7948
554.386,27.0632,-3.07874,0.18354,0.7929
557.586,27.1671,-3.08213,0.18324,0.79098
560.786,27.27102,-3.08469,0.18542,0.78905
563.986,27.37479,-3.08763,0.18603,0.78711
567.186,27.47911,-3.09031,0.1879,0.78516
570.386,27.5833,-3.0938,0.18792,0.7832
573.586,27.6876,-3.09601,0.18678,0.78122
576.786,27.79175,-3.09864,0.18298,0.77924
579.986,27.8963,-3.10118,0.17794,0.77724
583.186,28.00078,-3.10461,0.17586,0.77523
586.386,28.1054,-3.10785,0.17014,0.77321
589.586,28.20999,-3.11048,0.16182,0.77117
592.786,28.3147,-3.11254,0.15687,0.76912
595.986,28.4196,-3.1153,0.14475,0.76706
599.186,28.52458,-3.11764,0.13733,0.76499
602.386,28.6297,-3.12132,0.12517,0.76291
605.586,28.73493,-3.12299,0.1201,0.76081
608.786,28.84041,-3.12432,0.10451,0.7587
611.986,28.9456,-3.12692,0.09941878,0.75658
615.186,29.05139,-3.13042,0.09285663,0.75445
618.386,29.1568,-3.13231,0.08821077,0.7523
621.586,29.26248,-3.13408,0.07875345,0.75014
624.786,29.3681,-3.13655,0.07467902,0.74796
627.986,29.47379,-3.13795,0.06761592,0.74578
631.186,29.57944,-3.14108,0.06129883,0.74358
634.386,29.6851,-3.14239,0.05541841,0.74136
637.586,29.79069,-3.14392,0.04958595,0.73914
640.786,29.8965,-3.14651,0.0501692,0.7369
643.986,30.00207,-3.14931,0.04485573,0.73465
647.186,30.10772,-3.15148,0.04547298,0.73238
650.386,30.21363,-3.15409,0.04066986,0.7301
653.586,30.3196,-3.15541,0.03760916,0.72781
656.786,30.42541,-3.15545,0.03798352,0.7255
659.986,30.53149,-3.15946,0.03265378,0.72318
663.186,30.6376,-3.16084,0.02736097,0.72085
666.386,30.74372,-3.16082,0.02224332,0.71851
669.586,30.84972,-3.16345,0.01654093,0.71615
672.786,30.95585,-3.16482,0.005522565,0.71378
675.986,31.0621,-3.16716,-0.0007093702,0.71139
679.186,31.16828,-3.1684,-0.00913011,0.70899
682.386,31.27463,-3.16971,-0.01978206,0.70658
685.586,31.38093,-3.17177,-0.03330005,0.70416
688.786,31.4873,-3.17268,-0.04472279,0.70172
691.986,31.5936,-3.17399,-0.05580791,0.69927
695.186,31.69991,-3.1753,-0.06687848,0.6968
698.386,31.80653,-3.17596,-0.07447393,0.69432
701.586,31.913,-3.17728,-0.08021809,0.69183
704.786,32.01958,-3.17992,-0.08621659,0.68933
707.986,32.12619,-3.1799,-0.09383519,0.68681
711.186,32.23285,-3.18263,-0.09860676,0.68428
714.386,32.33951,-3.18386,-0.10779,0.68174
717.586,32.44628,-3.18451,-0.10976,0.67918
720.786,32.5531,-3.18516,-0.12059,0.67661
723.986,32.6596,-3.18646,-0.12604,0.67403
727.186,32.7667,-3.18715,-0.13279,0.67144
730.386,32.87372,-3.18711,-0.13571,0.66883
733.586,32.98072,-3.18846,-0.14448,0.66621
736.786,33.0878,-3.18979,-0.14703,0.66358
739.986,33.1948,-3.1911,-0.15877,0.66093
743.186,33.30195,-3.19242,-0.1643,0.65827
746.386,33.40915,-3.19306,-0.16945,0.6556
749.586,33.5163,-3.19439,-0.18045,0.65292
752.786,33.62363,-3.19505,-0.18256,0.65023
755.986,33.731,-3.19373,-0.18996,0.64752
759.186,33.83835,-3.19538,-0.19826,0.64481
762.386,33.94559,-3.19587,-0.1971,0.64208
765.586,34.0531,-3.19682,-0.20298,0.63933
768.786,34.16049,-3.19812,-0.20525,0.63658
771.986,34.26795,-3.20073,-0.21065,0.63382
775.186,34.37546,-3.19952,-0.21264,0.63104
778.386,34.48288,-3.20075,-0.21386,0.62825
781.586,34.5903,-3.20207,-0.21418,0.62545
784.786,34.698,-3.20337,-0.21232,0.62264
787.986,34.80546,-3.20337,-0.21273,0.61982
791.186,34.91308,-3.2047,-0.2192,0.61699
793.686,34.99685,-3.20469,-0.22072,0.61477