Folder: fsri_materials_database/01_Data/Luan_Panel/STA/N2/3K_min

Note: 01_Data/README.md
# Materials and Products Database
## 01_Data

Raw data generated from each apparatus are included here in plain-text format. The data is organized first by material, next by the short name of test apparatus used, and where applicable additional filtering by test settings.

### material.json

Each material directory contains a json file of the same name as the material. This file links the data stored in the repository as well as data and graphs produced by the accompanying scripts (__02_Scripts__) to the respective landing page for the material on the front-end website.

File: Luan_Panel_STA_N2_3KData_221103_R1.csv
##Temp./Â°C,Time/min,Mass loss(subtr.2)/mg,DSC(subtr.2)/(mW/mg),Sensit./(uV/mW)
50.121,10.01667,-0.03279,0.02278453,1.04801
53.221,12.27517,-0.03691781,0.07957911,1.04664
56.321,13.4518,-0.0411622,0.08637922,1.04527
59.421,14.5625,-0.04068898,0.09690709,1.04391
62.521,15.6355,-0.04255357,0.10546,1.04256
65.621,16.69799,-0.04519789,0.10568,1.04121
68.721,17.74962,-0.04880999,0.10979,1.03986
71.821,18.7953,-0.05275896,0.11061,1.03852
74.921,19.8351,-0.05538998,0.10621,1.03719
78.021,20.8663,-0.05836564,0.10599,1.03585
81.121,21.90819,-0.06030586,0.10166,1.03453
84.221,22.94528,-0.06162659,0.10188,1.03321
87.321,23.97651,-0.06263016,0.10118,1.03189
90.421,25.00984,-0.06559619,0.10207,1.03057
93.521,26.0426,-0.06558559,0.10225,1.02926
96.621,27.0648,-0.06823,0.10078,1.02796
99.721,28.09132,-0.06854998,0.09626032,1.02665
102.821,29.1204,-0.07090381,0.09686126,1.02535
105.921,30.14991,-0.07183557,0.09327695,1.02406
109.021,31.17581,-0.0724045,0.09698549,1.02277
112.121,32.1985,-0.07447997,0.09752014,1.02148
115.221,33.22399,-0.07678303,0.09554738,1.02019
118.321,34.24604,-0.07587268,0.09441651,1.01891
121.421,35.26314,-0.07582151,0.09734236,1.01763
124.521,36.28476,-0.07809,0.09410058,1.01636
127.621,37.3018,-0.07942074,0.10014,1.01508
130.721,38.3221,-0.08001625,0.10036,1.01381
133.821,39.3405,-0.08073202,0.10308,1.01254
136.921,40.35767,-0.0820409,0.10621,1.01128
140.021,41.3708,-0.08240496,0.10801,1.01001
143.121,42.38476,-0.08535456,0.11218,1.00875
146.221,43.40135,-0.08665,0.11069,1.00749
149.321,44.4165,-0.08697023,0.11364,1.00623
152.421,45.43731,-0.08836708,0.11538,1.00497
155.521,46.45055,-0.09125986,0.11904,1.00372
158.621,47.4589,-0.09225,0.1234,1.00246
161.721,48.4681,-0.09488,0.13189,1.00121
164.821,49.48239,-0.0988272,0.13612,0.99996
167.921,50.49688,-0.10081,0.14385,0.9987
171.021,51.5041,-0.10587,0.15071,0.99745
174.121,52.51231,-0.11033,0.15471,0.9962
177.221,53.5295,-0.11594,0.1564,0.99495
180.321,54.53951,-0.12187,0.1656,0.9937
183.421,55.5479,-0.12778,0.16989,0.99245
186.521,56.55449,-0.13555,0.17379,0.9912
189.621,57.56755,-0.14034,0.17278,0.98995
192.721,58.58035,-0.14831,0.17142,0.9887
195.821,59.5924,-0.15518,0.17298,0.98745
198.921,60.60049,-0.16244,0.17349,0.9862
202.021,61.60663,-0.17055,0.17664,0.98495
205.121,62.61421,-0.17876,0.18064,0.9837
208.221,63.62036,-0.18782,0.18042,0.98244
211.321,64.6277,-0.19897,0.18429,0.98119
214.421,65.63449,-0.20954,0.19226,0.97993
217.521,66.64395,-0.22319,0.19519,0.97867
220.621,67.65208,-0.23526,0.19708,0.97741
223.721,68.65488,-0.25093,0.19447,0.97615
226.821,69.66371,-0.26423,0.1958,0.97488
229.921,70.66423,-0.28157,0.19755,0.97361
233.021,71.66834,-0.29693,0.19331,0.97235
236.121,72.67948,-0.31676,0.19524,0.97107
239.221,73.68301,-0.33759,0.19596,0.9698
242.321,74.6873,-0.35937,0.19606,0.96852
245.421,75.69766,-0.38556,0.19437,0.96724
248.521,76.70206,-0.41515,0.19882,0.96596
251.621,77.7003,-0.44632,0.19944,0.96467
254.721,78.7082,-0.48305,0.19972,0.96338
257.821,79.7107,-0.52375,0.19918,0.96209
260.921,80.7105,-0.56954,0.19538,0.96079
264.021,81.7152,-0.61748,0.18771,0.95948
267.121,82.71999,-0.66746,0.18102,0.95818
270.221,83.72345,-0.72306,0.17481,0.95687
273.321,84.724,-0.78116,0.16689,0.95555
276.421,85.72807,-0.84092,0.15958,0.95423
279.521,86.73988,-0.90378,0.15328,0.95291
282.621,87.75107,-0.96821,0.15,0.95158
285.721,88.75568,-1.03745,0.15237,0.95024
288.821,89.75819,-1.10718,0.15029,0.9489
291.921,90.76389,-1.18006,0.1533,0.94756
295.021,91.77325,-1.2576,0.15276,0.94621
298.121,92.78065,-1.33535,0.157,0.94485
301.221,93.79077,-1.4201,0.15976,0.94349
304.321,94.8018,-1.5096,0.16552,0.94212
307.421,95.8057,-1.60116,0.16792,0.94075
310.521,96.8193,-1.69883,0.1683,0.93937
313.621,97.8322,-1.79891,0.17211,0.93798
316.721,98.83934,-1.90618,0.17336,0.93658
319.821,99.8506,-2.0139,0.17321,0.93518
322.921,100.866,-2.11995,0.16575,0.93378
326.021,101.881,-2.22614,0.1552,0.93236
329.121,102.887,-2.32524,0.14699,0.93094
332.221,103.898,-2.4184,0.1241,0.92951
335.321,104.911,-2.49763,0.11088,0.92807
338.421,105.928,-2.55625,0.08431887,0.92663
341.521,106.939,-2.59598,0.06993969,0.92518
344.621,107.954,-2.62422,0.05950455,0.92372
347.721,108.971,-2.64546,0.0525367,0.92225
350.821,109.983,-2.66229,0.05038084,0.92077
353.921,110.996,-2.67665,0.05254798,0.91929
357.021,112.017,-2.6894,0.04991193,0.91779
360.121,113.037,-2.70167,0.04763893,0.91629
363.221,114.051,-2.71445,0.04934297,0.91478
366.321,115.063,-2.72434,0.05133492,0.91326
369.421,116.0837,-2.73349,0.0478726,0.91174
372.521,117.106,-2.74494,0.04710288,0.9102
375.621,118.125,-2.75357,0.04888956,0.90865
378.721,119.14,-2.76445,0.04716828,0.9071
381.821,120.156,-2.77338,0.04694249,0.90553
384.921,121.18,-2.78252,0.04713181,0.90396
388.021,122.204,-2.79244,0.05043197,0.90237
391.121,123.219,-2.80028,0.04986152,0.90078
394.221,124.232,-2.8072,0.05161807,0.89917
397.321,125.255,-2.8176,0.05086285,0.89756
400.421,126.274,-2.82304,0.05194852,0.89593
403.521,127.292,-2.83254,0.05488927,0.8943
406.621,128.316,-2.84032,0.05153651,0.89266
409.721,129.339,-2.84822,0.0495094,0.891
412.821,130.36,-2.85315,0.04967578,0.88933
415.921,131.384,-2.86172,0.05292034,0.88766
419.021,132.4144,-2.8683,0.05113657,0.88597
422.121,133.439,-2.87213,0.05392478,0.88427
425.221,134.462,-2.87906,0.05519109,0.88256
428.321,135.4826,-2.88845,0.05713185,0.88084
431.421,136.504,-2.89098,0.07155722,0.87911
434.521,137.536,-2.89572,0.07472077,0.87737
437.621,138.5581,-2.90032,0.07751969,0.87561
440.721,139.582,-2.9046,0.07355437,0.87385
443.821,140.603,-2.91052,0.07981798,0.87207
446.921,141.63,-2.91546,0.08038059,0.87028
450.021,142.661,-2.92072,0.07777288,0.86848
453.121,143.684,-2.92533,0.08202409,0.86667
456.221,144.715,-2.92926,0.08356389,0.86485
459.321,145.737,-2.93225,0.07990634,0.86301
462.421,146.758,-2.94024,0.08146029,0.86116
465.521,147.79,-2.94422,0.06619668,0.8593
468.621,148.825,-2.9483,0.06049345,0.85743
471.721,149.859,-2.95185,0.05313659,0.85555
474.821,150.885,-2.95618,0.0527969,0.85365
477.921,151.918,-2.96255,0.04738609,0.85174
481.021,152.952,-2.9635,0.043366,0.84982
484.121,153.979,-2.96772,0.04076714,0.84789
487.221,155.006,-2.97337,0.03320116,0.84594
490.321,156.036,-2.97469,0.03058178,0.84398
493.421,157.073,-2.97995,0.0281108,0.84201
496.521,158.111,-2.98261,0.02371996,0.84003
499.621,159.142,-2.98637,0.0257515,0.83803
502.721,160.172,-2.98851,0.02180413,0.83602
505.821,161.205,-2.99205,0.02606988,0.834
508.921,162.2366,-2.99476,0.02532445,0.83197
512.021,163.275,-2.99757,0.0228751,0.82992
515.121,164.309,-3.00134,0.02429091,0.82786
518.221,165.346,-3.00332,0.02575876,0.82579
521.321,166.376,-3.0076,0.0276147,0.82371
524.421,167.4056,-3.0099,0.02693997,0.82161
527.521,168.443,-3.01155,0.02988605,0.8195
530.621,169.475,-3.0155,0.03182054,0.81737
533.721,170.516,-3.01718,0.03322479,0.81523
536.821,171.553,-3.01817,0.03325853,0.81308
539.921,172.594,-3.02235,0.03483512,0.81092
543.021,173.635,-3.02629,0.03884714,0.80874
546.121,174.67,-3.02567,0.03926414,0.80656
549.221,175.708,-3.02898,0.03900378,0.80435
552.321,176.743,-3.03228,0.04033593,0.80214
555.421,177.778,-3.03493,0.04012213,0.79991
558.521,178.816,-3.0371,0.04196059,0.79767
561.621,179.852,-3.04172,0.04699268,0.79542
564.721,180.888,-3.04127,0.04907386,0.79315
567.821,181.9292,-3.04401,0.05129424,0.79087
570.921,182.972,-3.04499,0.05575555,0.78858
574.021,184.01,-3.04642,0.05728631,0.78627
577.121,185.056,-3.04905,0.06122613,0.78395
580.221,186.092,-3.04906,0.06327947,0.78162
583.321,187.134,-3.05103,0.06220972,0.77927
586.421,188.179,-3.05465,0.0649118,0.77692
589.521,189.218,-3.0563,0.07060055,0.77455
592.621,190.259,-3.05791,0.07430429,0.77216
595.721,191.3054,-3.06194,0.07560116,0.76977
598.821,192.354,-3.06381,0.07636381,0.76736
601.921,193.392,-3.06342,0.0776176,0.76494
605.021,194.429,-3.06671,0.07796849,0.7625
608.121,195.473,-3.06767,0.07989927,0.76005
611.221,196.517,-3.06901,0.07996224,0.7576
614.321,197.557,-3.07048,0.07821393,0.75512
617.421,198.609,-3.06924,0.07846001,0.75264
620.521,199.649,-3.07296,0.07794946,0.75014
623.621,200.692,-3.07364,0.07930301,0.74763
626.721,201.738,-3.07528,0.08221353,0.74511
629.821,202.787,-3.07624,0.07907638,0.74258
632.921,203.8289,-3.07627,0.08207781,0.74003
636.021,204.872,-3.07727,0.08173467,0.73747
639.121,205.916,-3.07988,0.0839943,0.7349
642.221,206.964,-3.0809,0.08209553,0.73232
645.321,208.011,-3.07988,0.08526392,0.72972
648.421,209.0546,-3.08251,0.08615701,0.72712
651.521,210.104,-3.08344,0.09141892,0.7245
654.621,211.155,-3.08514,0.09117973,0.72187
657.721,212.198,-3.08711,0.08810635,0.71923
660.821,213.239,-3.08745,0.09038884,0.71657
663.921,214.29,-3.09008,0.0955942,0.71391
667.021,215.335,-3.09698,0.09709799,0.71123
670.121,216.38,-3.08941,0.0955458,0.70855
673.221,217.425,-3.09524,0.10351,0.70585
676.321,218.471,-3.09228,0.10299,0.70314
679.421,219.523,-3.09488,0.10945,0.70042
682.521,220.565,-3.0936,0.11831,0.69768
685.621,221.607,-3.09764,0.12155,0.69494
688.721,222.651,-3.09589,0.12596,0.69219
691.821,223.701,-3.09852,0.13303,0.68942
694.921,224.752,-3.09852,0.13294,0.68665
698.021,225.802,-3.10113,0.12924,0.68386
701.121,226.843,-3.10255,0.12668,0.68107
704.221,227.888,-3.10116,0.12804,0.67826
707.321,228.938,-3.10362,0.12786,0.67544
710.421,229.992,-3.10508,0.12362,0.67262
713.521,231.0378,-3.10741,0.12365,0.66978
716.621,232.081,-3.10876,0.12068,0.66694
719.721,233.131,-3.11008,0.11882,0.66408
722.821,234.173,-3.11039,0.11397,0.66121
725.921,235.218,-3.11267,0.10567,0.65834
729.021,236.266,-3.11332,0.096256,0.65545
732.121,237.325,-3.11479,0.09170642,0.65256
735.221,238.378,-3.11727,0.09154868,0.64966
738.321,239.427,-3.11735,0.08149739,0.64675
741.421,240.471,-3.12001,0.08178097,0.64383
744.521,241.519,-3.12004,0.07828892,0.6409
747.621,242.565,-3.12115,0.07723801,0.63796
749.821,243.312,-3.12121,0.07117894,0.63587