Folder: fsri_materials_database/01_Data/Polyolefin_Carpet_LowPile/Cone (part 2)

File: Polyolefin_Carpet_Low_Pile_Cone_HF50Scan_220411_R2.csv
Names,Time,Stack TC,Smoke TC,Exh Press,Smoke Comp,Smoke Meas,CO Meter,CO2 Meter,O2 Meter,Sample Mass,Ext Coeff,Start Test,Flame Verif
Chan Gain,,500,500,1,1,1,1,1,1,1,1,1.0,1.0
Offset,,0,0,0.133936,0,0,0,0,0,0,0,0.0,0.0
Gain,,1,1,25.011,13.0656,13.5076,1,1,1,1.00089,1.01037,1.0,1.0
Units,sec,C,C,Pa,%,%,%,%,%,g,/m,,
Baseline,,30.6088,31.6027,148.505,98.4192,95.4949,0.000996698,0.0536386,21.005,-835.199,0.267397,,
17,4,28.7254,29.8055,150.28,98.5443,95.0316,0.000994205,0.0550856,21.0039,198.147,0.321698,0.0,0.0
34,8.25,28.7273,29.6749,150.364,98.5419,94.593,0.00114221,0.0544224,20.9984,198.167,0.362484,0.0,0.0
51,12.5,28.8329,29.7816,143.875,98.512,92.2334,0.00197787,0.106306,20.9187,198.027,0.583675,0.0,1.0
68,16.75,30.0718,31.4317,132.346,98.4706,78.0692,0.00518151,0.25102,20.6622,197.786,2.05763,0.0,1.0
85,21,34.1009,34.7324,126.391,98.4223,69.2737,0.00986153,0.389304,20.4486,197.456,3.11268,0.0,0.0
102,25.25,37.5412,39.0579,118.335,98.3497,64.391,0.0145224,0.527455,20.2383,197.086,3.75395,0.0,0.0
119,29.5,42.9394,44.3957,115.675,98.2636,61.3245,0.0190169,0.684051,19.9409,196.585,4.17864,0.0,0.0
136,33.75,49.2874,51.3484,109.486,98.1735,58.6323,0.0227165,0.849942,19.6711,195.985,4.5684,0.0,0.0
153,38,56.5837,59.456,107.366,98.0607,60.6616,0.0245205,0.949347,19.4897,195.434,4.25664,0.0,0.0
170,42.25,63.0008,67.1229,105.502,97.9339,61.2544,0.023762,0.973541,19.4495,194.814,4.15899,0.0,0.0
187,46.5,68.5159,73.473,108.523,97.8266,64.109,0.0225234,0.944544,19.4905,194.283,3.74557,0.0,0.0
204,50.75,73.4754,78.765,110.933,97.7496,68.77,0.0198527,0.848595,19.6801,193.843,3.11658,0.0,0.0
221,55,76.1714,81.92,119.486,97.7337,70.843,0.0163083,0.703877,19.9227,193.433,2.85191,0.0,0.0
238,59.25,76.9567,82.7444,130.438,97.7453,75.3774,0.013106,0.548423,20.193,193.092,2.30309,0.0,0.0
255,63.5,75.785,82.1307,133.753,97.7752,76.6689,0.0100265,0.415388,20.4284,192.892,2.15524,0.0,0.0
272,67.75,74.1502,80.555,140.488,97.7883,81.4127,0.00744704,0.316128,20.5838,192.712,1.62434,0.0,0.0
289,72,72.0964,77.8946,145.797,97.7931,85.4302,0.00482448,0.243274,20.7165,192.582,1.19787,0.0,0.0
306,76.25,68.7468,75.1965,143.263,97.8162,89.6901,0.00323108,0.190968,20.8034,192.482,0.768688,0.0,0.0
323,80.5,66.225,72.3637,141.812,97.8545,92.0323,0.00239786,0.153607,20.8682,192.422,0.543673,0.0,0.0
340,84.75,63.536,69.8916,140.253,97.8709,93.2788,0.00194998,0.125818,20.9101,192.392,0.425915,0.0,0.0
357,89,61.193,67.3214,147.093,97.9044,93.9087,0.00146026,0.10771,20.9356,192.312,0.3693,0.0,0.0
374,93.25,59.09,65.0948,147.618,97.9219,94.2822,0.00140418,0.0939213,20.9518,192.312,0.335711,0.0,0.0
391,97.5,56.6243,62.5609,144.717,97.9319,94.055,0.00141645,0.0847966,20.9627,192.282,0.357991,0.0,0.0
408,101.75,54.6045,60.5241,141.06,97.9387,94.3749,0.00153024,0.0789606,20.9704,192.242,0.328513,0.0,0.0
425,106,52.9533,58.2108,143.645,97.9709,94.0616,0.00154672,0.0751915,20.9754,192.231,0.360904,0.0,0.0
442,110.25,50.9389,56.138,148.638,97.9809,94.7484,0.00123533,0.0723875,20.9798,192.242,0.297333,0.0,0.0
459,114.5,49.9785,54.9941,146.542,97.9845,93.4899,0.000989094,0.070525,20.9822,192.211,0.416168,0.0,0.0
476,118.75,48.2894,53.2367,143.27,97.9993,94.539,0.000934783,0.0692408,20.9849,192.211,0.318601,0.0,0.0
493,123,47.1528,51.9383,144.122,98.016,94.5027,0.000959167,0.0682102,20.9854,192.201,0.323518,0.0,0.0
510,127.25,45.9552,50.5124,147.566,98.0128,94.2434,0.000867962,0.0674349,20.9855,192.171,0.347579,0.0,0.0
527,131.5,44.9604,49.2166,146.973,98.0355,94.4042,0.000830496,0.066737,20.9862,192.161,0.334528,0.0,0.0
544,135.75,43.7935,48.0193,145.358,98.0411,94.3172,0.000911753,0.0663618,20.9876,192.131,0.343202,0.0,0.0
561,140,42.625,46.6677,143.133,98.0252,94.6152,0.00101029,0.0662009,20.9888,192.151,0.313799,0.0,0.0
578,144.25,42.368,46.0423,144.827,98.0328,94.8572,0.00115888,0.0673698,20.9872,192.111,0.291847,0.0,0.0
595,148.5,41.2456,45.0015,147.71,98.0443,93.8914,0.00131014,0.0670724,20.9881,192.101,0.383595,0.0,0.0
612,152.75,40.6344,44.2904,147.591,98.0527,94.722,0.00145817,0.0658344,20.9907,192.081,0.30629,0.0,0.0
629,157,39.8712,42.9909,149.538,98.0503,95.1874,0.00131512,0.0646418,20.992,192.091,0.262635,0.0,0.0
646,161.25,39.0522,42.3491,145.487,98.065,94.1791,0.00127951,0.0641435,20.993,192.071,0.358351,0.0,0.0
663,165.5,39.1723,42.2767,148.234,98.0495,94.6433,0.00114466,0.0635592,20.9918,192.061,0.313372,0.0,0.0
680,169.75,38.3978,41.2515,147.511,98.0339,94.5678,0.0008629,0.0629945,20.9924,192.061,0.319032,0.0,0.0
697,174,38.1319,41.0305,146.242,98.0228,94.196,0.00109159,0.0623127,20.9927,192.031,0.35294,0.0,0.0
714,178.25,37.7553,40.3471,147.134,98.0128,94.5283,0.00101811,0.0622398,20.9944,192.031,0.320832,0.0,0.0
731,182.5,37.3794,40.0466,149.12,97.9773,94.464,0.000935627,0.0622394,20.9935,192.001,0.323654,0.0,0.0
748,186.75,36.7987,39.0688,147.953,97.967,94.5011,0.00110001,0.0621396,20.9955,192.001,0.319235,0.0,0.0
765,191,36.5902,39.0041,146.848,97.9394,94.6272,0.000960007,0.0626509,20.996,191.981,0.304925,0.0,0.0
782,195.25,36.4785,38.9495,146.027,97.8864,94.1387,0.000867742,0.0626622,20.9954,191.961,0.345994,0.0,0.0
799,199.5,36.8371,38.753,145.184,97.8577,94.2537,0.000873519,0.0628518,20.9945,191.941,0.332573,0.0,0.0
816,203.75,36.1818,38.3672,143.426,97.8186,94.1193,0.00106637,0.0630966,20.9951,191.941,0.341679,0.0,0.0
833,208,36.4676,38.4436,146.963,97.7676,94.7653,0.00107944,0.0631631,20.9948,191.921,0.276434,0.0,0.0
850,212.25,35.7418,37.501,147.133,97.7182,93.6906,0.00112476,0.0634272,20.9939,191.901,0.373033,0.0,0.0
867,216.5,35.7387,37.7684,146.488,97.6763,94.3955,0.00114301,0.0634252,20.9924,191.901,0.302802,0.0,0.0
884,220.75,35.6573,37.4064,141.558,97.6097,94.0934,0.00117734,0.0631099,20.994,191.881,0.325174,0.0,0.0
901,225,34.9961,36.7155,151.7,97.5487,94.0489,0.000984922,0.0631897,20.9944,191.861,0.323827,0.0,0.0
918,229.25,35.4381,37.1714,144.617,97.5052,93.9413,0.000741131,0.0629452,20.9937,191.851,0.330022,0.0,0.0
935,233.5,35.4098,36.9504,150.167,97.4634,93.6746,0.000830508,0.0629297,20.9938,191.831,0.351414,0.0,0.0
952,237.75,35.2336,36.5235,144.495,97.4143,93.9202,0.000935935,0.0624839,20.9938,191.821,0.323739,0.0,0.0
969,242,35.1368,36.6254,144.723,97.3868,93.4965,0.000813405,0.0617732,20.9938,191.841,0.361314,0.0,0.0
986,246.25,35.1211,36.529,145.34,97.384,94.0715,0.000857057,0.0612963,20.9948,191.801,0.306717,0.0,0.0
1003,250.5,34.6924,35.8808,146.329,97.3836,93.8378,0.00117454,0.0607813,20.9975,191.791,0.328729,0.0,0.0
1020,254.75,34.7935,36.0387,149.626,97.4382,93.9038,0.00117079,0.0604398,20.9987,191.821,0.327471,0.0,0.0
1037,259,34.5918,35.9333,146.387,97.4996,94.2945,0.000807519,0.0606127,20.9975,191.811,0.296248,0.0,0.0
1054,263.25,34.7166,36.022,144.975,97.5854,94.6861,0.000860628,0.0606529,20.9955,191.771,0.267306,0.0,0.0
1071,267.5,34.6866,35.9666,149.734,97.6831,94.2888,0.00111252,0.0606176,20.9962,191.781,0.313448,0.0,0.0
1088,271.75,34.6221,35.6886,150.465,97.7943,94.4899,0.00112558,0.0601938,20.9951,191.771,0.304647,0.0,0.0
1105,276,34.633,35.7039,147.974,97.9,94.1511,0.00103098,0.0600739,20.9955,191.811,0.346058,0.0,0.0
1122,280.25,34.6113,35.5684,143.252,97.963,95.0637,0.0011359,0.0599806,20.999,191.811,0.26626,0.0,0.0
1139,284.5,34.2589,35.3854,145.691,98.0415,94.1231,0.000761319,0.0594046,21.001,191.761,0.361502,0.0,0.0
1156,288.75,34.0845,35.0928,145.268,98.0551,95.2727,0.000784033,0.0570829,21.0036,191.751,0.255125,0.0,0.0
1173,293,33.9084,34.9407,143.178,98.0308,95.0036,0.000824942,0.0554889,21.0058,191.771,0.278003,0.0,0.0
1190,297.25,34.429,35.1693,145.206,98.02,94.9108,0.000766884,0.0550087,21.0065,191.721,0.285687,0.0,0.0
1207,301.5,33.3975,34.7608,145.207,98.0359,94.2026,0.000748508,0.0547759,21.0072,191.711,0.353508,0.0,0.0
1224,305.75,33.3046,34.4719,146.539,97.9773,95.6087,0.000726446,0.054511,21.0068,191.731,0.216897,0.0,0.0
1241,310,33.4791,34.9142,145.62,97.9199,94.2797,0.000796378,0.0544071,21.0066,191.711,0.335763,0.0,0.0
1258,314.25,33.7023,34.9024,149.496,97.8569,93.4763,0.00100196,0.0544545,21.0066,191.671,0.405909,0.0,0.0
1275,318.5,33.3333,34.8433,142.532,97.7931,93.8102,0.00100932,0.0543035,21.0066,191.681,0.368527,0.0,0.0
1292,322.75,33.4981,34.5889,143.701,97.7329,94.37,0.000970881,0.0542338,21.0066,191.651,0.310338,0.0,0.0
1309,327,33.0922,34.5678,145.393,98.0343,94.4635,0.000978924,0.0541482,21.0066,191.671,0.328849,0.0,0.0
1326,331.25,33.7578,34.5045,147.021,98.341,94.4631,0.00104152,0.0542235,21.0055,191.681,0.356565,0.0,0.0
1343,335.5,33.7072,34.5722,146.96,98.4957,95.0217,0.0011094,0.0541457,21.0062,191.661,0.318245,0.0,0.0
1360,339.75,33.4354,34.5863,144.771,98.5403,94.6655,0.00101104,0.0543259,21.0065,191.621,0.355545,0.0,0.0
1377,344,33.4001,34.4312,146.256,98.4139,94.5068,0.000904852,0.0541448,21.0066,191.611,0.35904,0.0,0.0
1394,348.25,33.3009,34.5684,146.176,98.0906,94.4747,0.00065529,0.054319,21.0059,191.611,0.332886,0.0,0.0
1411,352.5,32.8636,33.7661,147.015,98.0519,94.1886,0.000546357,0.054376,21.0057,191.601,0.356269,0.0,0.0
1428,356.75,32.2836,33.7161,145.885,98.2521,94.2286,0.000396382,0.0542329,21.0056,191.571,0.370581,0.0,0.0
1445,361,32.9308,33.9066,141.766,98.4797,94.9182,0.000419989,0.0542067,21.0056,191.561,0.326466,0.0,0.0
1462,365.25,33.2202,34.1394,144.332,98.6643,94.7286,0.000603005,0.0543458,21.0056,191.551,0.360788,0.0,0.0
1479,369.5,33.4938,34.4755,144.57,98.7552,94.5485,0.00085612,0.0540695,21.007,191.571,0.385821,0.0,0.0
1496,373.75,32.8137,34.2347,145.916,98.6795,94.8247,0.000850803,0.0541512,21.0083,191.541,0.353167,0.0,0.0
1513,378,33.4393,34.264,146.929,98.4821,93.7306,0.000982148,0.0541905,21.0072,191.501,0.438273,0.0,0.0
1530,382.25,33.2759,34.4358,145.968,98.1839,94.849,0.00104894,0.0541166,21.0064,191.511,0.306268,0.0,0.0
1547,386.5,33.1466,34.3903,147.434,97.7688,93.8155,0.000870348,0.0540142,21.0063,191.511,0.365817,0.0,0.0
1564,390.75,33.4735,34.2159,145.027,97.3254,93.3914,0.000764279,0.0540138,21.0045,191.501,0.365694,0.0,0.0
1581,395,32.4611,33.626,143.589,96.9283,92.961,0.000780106,0.0539954,21.0055,191.481,0.370391,0.0,0.0
1598,399.25,32.6067,33.6158,146.858,96.7361,92.4878,,,,191.461,0.398033,0.0,0.0
1615,403.5,32.6275,33.881,145.547,96.752,92.2685,,,,191.471,0.420534,0.0,0.0
1625,406,32.8868,33.9394,147.06,96.8489,92.7467,,,,191.441,0.383592,0.0,0.0

File: Polyolefin_Carpet_Low_Pile_Cone_HF50Scan_220411_R3.csv
Names,Time,Stack TC,Smoke TC,Exh Press,Smoke Comp,Smoke Meas,CO Meter,CO2 Meter,O2 Meter,Sample Mass,Ext Coeff,Start Test,Flame Verif
Chan Gain,,500,500,1,1,1,1,1,1,1,1,1.0,1.0
Offset,,0,0,0.133936,0,0,0,0,0,0,0,0.0,0.0
Gain,,1,1,25.011,13.0656,13.5076,1,1,1,1.00089,1.01037,1.0,1.0
Units,sec,C,C,Pa,%,%,%,%,%,g,/m,,
Baseline,,31.4214,32.4933,148.292,97.1967,92.3781,0.00101046,0.0517908,21.0074,-835.45,0.450685,,
10,2.25,30.3252,31.0885,149.668,97.563,93.0047,0.000935317,0.057599,21.0011,194.704,0.42408,0.0,0.0
20,4.75,29.841,31.0134,150.422,97.5738,92.7821,0.000926267,0.0578239,21.0008,194.704,0.446295,0.0,0.0
30,7.25,30.1002,31.1265,147.203,97.5607,92.0475,0.000970206,0.0588175,20.9983,194.664,0.515548,0.0,0.0
40,9.75,30.1941,30.8208,147.432,97.5415,91.4882,0.00133707,0.0630789,20.986,194.584,0.567836,0.0,0.0
50,12.25,30.0449,31.3297,141.428,97.5535,91.6448,0.0018467,0.0920319,20.9477,194.494,0.553759,0.0,1.0
60,14.75,30.6229,32.1426,135.336,97.5379,85.4306,0.00306095,0.140802,20.8323,194.433,1.17466,0.0,1.0
70,17.25,32.1116,33.4593,129.316,97.5451,75.4599,0.00532986,0.22226,20.6773,194.303,2.27524,0.0,1.0
80,19.75,33.4147,34.2818,126.284,97.5343,68.2576,0.00877843,0.314954,20.5285,194.093,3.16332,0.0,0.0
90,22.25,35.8054,36.7124,125.956,97.5252,60.2882,0.0132113,0.42161,20.3238,193.863,4.26284,0.0,0.0
100,24.75,38.4507,39.5553,116.953,97.5088,57.3998,0.0170634,0.534692,20.1172,193.523,4.69649,0.0,0.0
110,27.25,41.4528,42.8325,114.549,97.516,58.5783,0.0198979,0.644276,19.9596,193.242,4.51701,0.0,0.0
120,29.75,44.8182,46.2011,113.038,97.4909,61.1093,0.0224996,0.756667,19.7509,192.912,4.13982,0.0,0.0
130,32.25,49.2351,51.5388,108.436,97.4969,56.7336,0.0246224,0.854159,19.5925,192.542,4.79886,0.0,0.0
140,34.75,54.196,56.4622,109.434,97.4809,57.6335,0.0259513,0.939117,19.481,192.151,4.65794,0.0,0.0
150,37.25,57.9221,61.1923,111.974,97.4757,59.9032,0.0268098,1.00487,19.3804,191.761,4.31513,0.0,0.0
160,39.75,62.9225,66.6119,98.6634,97.4693,61.8468,0.0268091,1.04615,19.3241,191.391,4.03155,0.0,0.0
170,42.25,67.1411,71.6223,104.725,97.4729,62.4853,0.0258672,1.05702,19.3155,191.08,3.94084,0.0,0.0
180,44.75,70.7056,75.8454,106.413,97.4566,64.2075,0.0246648,1.04108,19.3604,190.74,3.69838,0.0,0.0
190,47.25,74.4497,79.6632,111.351,97.443,64.7781,0.0234714,1.01015,19.4092,190.42,3.61874,0.0,0.0
200,49.75,76.8397,83.0744,112.563,97.4442,64.034,0.0218029,0.969757,19.4974,190.13,3.72124,0.0,0.0
210,52.25,79.3589,85.6932,116.461,97.4211,64.7026,0.0202545,0.896979,19.6255,189.829,3.62707,0.0,0.0
220,54.75,80.6295,87.3474,123.044,97.4175,68.0296,0.0183941,0.812079,19.7757,189.609,3.18235,0.0,0.0
230,57.25,81.3671,88.4919,117.658,97.4139,68.4958,0.0164409,0.711874,19.9437,189.399,3.12149,0.0,0.0
240,59.75,81.4462,88.7284,127.179,97.4163,71.1951,0.0142314,0.610602,20.0957,189.239,2.77915,0.0,0.0
250,62.25,80.1574,88.0728,129.342,97.4071,76.429,0.011668,0.515106,20.2622,189.079,2.14959,0.0,0.0
260,64.75,79.8529,87.128,136.51,97.4163,78.934,0.00940148,0.42642,20.433,188.959,1.86459,0.0,0.0
270,67.25,78.2122,85.6348,138.635,97.3912,82.1337,0.0073093,0.353223,20.5633,188.868,1.51013,0.0,0.0
280,69.75,76.5043,84.3785,139.844,97.4008,85.6594,0.00567215,0.297088,20.6494,188.788,1.13849,0.0,0.0
290,72.25,74.6629,82.1524,140.493,97.3832,87.6797,0.0042916,0.247999,20.7359,188.738,0.930287,0.0,0.0
300,74.75,73.3519,80.296,143.262,97.39,89.3125,0.00346192,0.213095,20.7902,188.668,0.767373,0.0,0.0
310,77.25,72.0677,78.6184,143.424,97.3756,90.8566,0.00288612,0.183003,20.8344,188.668,0.614141,0.0,0.0
320,79.75,70.2944,77.1192,142.965,97.3784,91.193,0.00242026,0.160415,20.8674,188.658,0.581643,0.0,0.0
330,82.25,68.1716,75.0895,141.895,97.386,92.1024,0.00210556,0.143036,20.8862,188.578,0.494391,0.0,0.0
340,84.75,66.1248,73.7464,144.242,97.3581,92.3567,0.00183691,0.128486,20.9075,188.568,0.46741,0.0,0.0
350,87.25,64.9354,71.5155,146.905,97.3553,92.4206,0.00171248,0.11616,20.927,188.558,0.461026,0.0,0.0
360,89.75,63.2845,69.9341,143.499,97.3525,92.0747,0.00169931,0.107026,20.9382,188.538,0.494,0.0,0.0
370,92.25,62.0189,68.019,145.541,97.3517,92.6069,0.00150482,0.0998505,20.9474,188.508,0.44285,0.0,0.0
380,94.75,60.2707,67.2422,144.074,97.3461,92.6246,0.00133238,0.0936265,20.9554,188.488,0.440645,0.0,0.0
390,97.25,58.6999,64.8996,143.865,97.3565,92.7772,0.00135796,0.0886102,20.9615,188.468,0.427007,0.0,0.0
400,99.75,57.1349,63.9012,148.744,97.335,93.3407,0.00160488,0.0840644,20.9678,188.478,0.371379,0.0,0.0
410,102.25,56.2648,61.9853,148.726,97.3457,92.7805,0.00168793,0.0803272,20.9712,188.468,0.425712,0.0,0.0
420,104.75,54.9355,61.7822,146.852,97.3354,92.3621,0.00172695,0.0772568,20.9746,188.468,0.464827,0.0,0.0
430,107.25,53.8379,59.6749,144.79,97.3278,92.4754,0.00169605,0.074813,20.979,188.418,0.453266,0.0,0.0
440,109.75,52.4382,59.2134,145.113,97.3087,92.2879,0.00164704,0.07288,20.9819,188.408,0.469517,0.0,0.0
450,112.25,52.0326,57.6894,148.126,97.3234,92.0611,0.0015484,0.0709828,20.9848,188.428,0.49266,0.0,0.0
460,114.75,51.0211,56.5824,143.235,97.3019,92.1065,0.00139494,0.0692416,20.9869,188.388,0.486335,0.0,0.0
470,117.25,50.1917,55.5361,147.279,97.3119,91.9119,0.00130691,0.0671082,20.9896,188.368,0.505986,0.0,0.0
480,119.75,49.4929,54.4031,145.899,97.2935,92.158,0.00125343,0.0643273,20.994,188.368,0.480615,0.0,0.0
490,122.25,48.8278,53.5174,142.34,97.3035,92.1118,0.00125462,0.0619144,20.9973,188.368,0.485965,0.0,0.0
500,124.75,47.5742,52.7162,148.279,97.2859,92.1807,0.00118883,0.0602437,20.9993,188.358,0.477746,0.0,0.0
510,127.25,46.104,51.2214,148.684,97.2895,91.7441,0.0010484,0.058521,21.0009,188.338,0.520145,0.0,0.0
520,129.75,45.9347,50.8739,144.464,97.2716,91.644,0.000943302,0.0568774,21.0015,188.358,0.528191,0.0,0.0
530,132.25,45.1629,49.7841,144.776,97.2616,91.5331,0.000978135,0.0559608,21.0018,188.358,0.538013,0.0,0.0
540,134.75,44.294,48.331,147.492,97.272,92.1073,0.0010887,0.0553702,21.0028,188.358,0.483531,0.0,0.0
550,137.25,43.4849,48.2402,144.573,97.2644,91.7483,0.00106631,0.054831,21.0031,188.328,0.517456,0.0,0.0
560,139.75,43.1731,47.3393,147.372,97.2811,92.515,0.00104341,0.0544699,21.0038,188.328,0.445224,0.0,0.0
570,142.25,42.7972,46.9467,147.501,97.2596,92.6725,0.00111002,0.0542246,21.0053,188.308,0.42819,0.0,0.0
580,144.75,42.3528,46.3912,145.837,97.2644,91.9684,0.00117994,0.0541136,21.0056,188.318,0.496218,0.0,0.0
590,147.25,41.6553,45.8041,148.195,97.2469,91.963,0.00117517,0.0539717,21.0056,188.318,0.495137,0.0,0.0
600,149.75,41.4867,45.135,143.681,97.2516,92.0739,0.00116154,0.0538751,21.0056,188.298,0.484892,0.0,0.0
610,152.25,40.8408,44.841,145.98,97.2457,92.2231,0.00130632,0.0537327,21.0065,188.308,0.469995,0.0,0.0
620,154.75,40.5735,44.0003,146.822,97.2508,92.2405,0.00130309,0.0536121,21.0069,188.278,0.468802,0.0,0.0
630,157.25,40.3103,43.8893,146.444,97.2469,92.3155,0.00122354,0.0535825,21.0071,188.278,0.461234,0.0,0.0
640,159.75,39.915,43.2116,144.231,97.2508,92.346,0.00129592,0.0535978,21.0059,188.268,0.458669,0.0,0.0
650,162.25,39.8228,42.9147,149.042,97.2588,92.3645,0.00129146,0.0533644,21.0057,188.258,0.457616,0.0,0.0
660,164.75,39.3406,42.9225,145.568,97.2429,91.9342,0.00112592,0.0533576,21.0055,188.258,0.497554,0.0,0.0
670,167.25,39.3301,41.7187,145.061,97.2532,92.3629,0.00108631,0.0533778,21.0056,188.268,0.457265,0.0,0.0
680,169.75,39.4926,42.022,145.598,97.2465,92.2673,0.00113224,0.0532395,21.0057,188.248,0.465829,0.0,0.0
690,172.25,38.7065,41.8354,145.65,97.25,92.1028,0.00113679,0.0530322,21.0057,188.238,0.481969,0.0,0.0
700,174.75,38.1263,40.3958,147.476,97.2381,92.4239,0.00111075,0.0529081,21.0049,188.228,0.450032,0.0,0.0
710,177.25,37.6282,40.4163,146.342,97.2477,91.855,0.00102962,0.0530041,21.0052,188.218,0.505623,0.0,0.0
720,179.75,38.1179,40.8706,149.501,97.2325,92.1902,0.000935573,0.0530843,21.0046,188.218,0.471964,0.0,0.0
730,182.25,37.3905,40.2075,143.759,97.2461,92.6898,0.000922845,0.0530193,21.0043,188.228,0.425299,0.0,0.0
740,184.75,37.4411,40.2549,146.81,97.2305,92.7178,0.000809028,0.0529379,21.0042,188.198,0.421202,0.0,0.0
750,187.25,36.9125,39.6741,145.155,97.2465,92.7351,0.000586651,0.0528459,21.0037,188.228,0.421001,0.0,0.0
760,189.75,37.13,39.4442,147.46,97.2381,92.6667,0.000471428,0.0528297,21.0035,188.228,0.426779,0.0,0.0
770,192.25,36.5899,39.2554,145.658,97.2469,92.4672,0.000468657,0.0527325,21.0034,188.198,0.446682,0.0,0.0
780,194.75,36.5268,38.6068,144.972,97.2437,92.2046,0.000452479,0.0527241,21.0048,188.188,0.471596,0.0,0.0
790,197.25,36.5124,38.6505,147.141,97.2425,92.1535,0.000424196,0.0526666,21.0066,188.198,0.476402,0.0,0.0
800,199.75,37.0336,38.7684,144.43,97.2389,92.5245,0.00050722,0.0526772,21.0082,188.198,0.440465,0.0,0.0
810,202.25,35.9977,38.1293,147.825,97.2309,92.8584,0.000740731,0.0526678,21.0087,188.188,0.407812,0.0,0.0
820,204.75,36.371,38.2604,146.411,97.2369,92.3295,0.000868497,0.0525174,21.0089,188.168,0.45898,0.0,0.0
830,207.25,36.1031,37.5812,147,97.2365,92.435,0.000943491,0.052633,21.009,188.168,0.44882,0.0,0.0
840,209.75,35.4767,37.4562,143.552,97.2433,92.1807,0.000919291,0.0526772,21.009,188.178,0.473857,0.0,0.0
850,212.25,36.1044,37.593,146.651,97.2337,92.3583,0.000926349,0.0528094,21.0084,188.168,0.45592,0.0,0.0
860,214.75,35.6432,37.3682,148.482,97.2477,92.2809,0.00105997,0.0528449,21.0073,188.158,0.464631,0.0,0.0
870,217.25,35.509,37.1103,151.284,97.2369,92.6696,0.00113463,0.0528594,21.0084,188.168,0.426395,0.0,0.0
880,219.75,35.2066,37.0428,150.288,97.2516,92.339,0.00102789,0.0528128,21.0086,188.158,0.459415,0.0,0.0
890,222.25,35.3816,37.2145,146.663,97.2381,92.6279,0.000785863,0.0528661,21.0081,188.148,0.430487,0.0,0.0
900,224.75,35.6527,36.5402,143.32,97.2516,92.9099,0.000740769,0.0526837,21.0067,188.138,0.404784,0.0,0.0
910,227.25,34.8768,36.8912,146.198,97.2409,92.6016,0.000872788,0.0526461,21.0061,188.158,0.433266,0.0,0.0
920,229.75,35.2497,36.5453,147.046,97.2473,92.4631,0.000937721,0.0527267,21.0067,188.148,0.447113,0.0,0.0
930,232.25,34.6607,36.1386,147.897,97.2381,92.5678,0.000918224,0.052599,21.0071,188.128,0.436247,0.0,0.0
940,234.75,34.9374,36.6575,147.572,97.2465,92.4078,0.000818951,0.0526385,21.0058,188.118,0.452337,0.0,0.0
950,237.25,34.9294,36.2672,147.513,97.2429,92.4494,,0.0526389,,188.138,0.448018,0.0,0.0
960,239.75,34.905,36.428,147.076,97.2425,92.8229,,,,188.118,0.41225,0.0,0.0
970,242.25,35.1566,36.4732,147.546,97.2381,92.2734,,,,188.108,0.464472,0.0,0.0
980,244.75,34.8531,36.5017,146.175,97.2409,92.1395,,,,188.098,0.477604,0.0,0.0
985,246,34.9632,35.9618,145.628,97.2321,92.7302,,,,188.118,0.420165,0.0,0.0

File: Polyolefin_Carpet_Low_Pile_Cone_HF75Scalar_220411_R1.csv
LABORATORY,FSRI
TEST IDENT,OlefinCarpet_HF75_1
OPERATOR,Dow
MATERIAL,Polyolefin carpet - low pile
ORIENTATION,Horizontal
HEAT FLUX,75
SURF AREA,0.00884
C FACTOR,0.0396972
SPEC HOLDER DIFF,-566
SPECIMEN MASS,13.68
SCAN TIME,0.25
O2 DELAY TIME,11
CO DELAY TIME,11
CO2 DELAY TIME,8
FLOW FACTOR,1
SCAN COUNT,1482
TIME TO IGN,6.25
END OF TEST SCAN,1002
END OF TEST TIME,250.5
TEST STATUS,1
PRE TEST CMT,Dimensions: 98.45 x 101.39 x 5.99 mm; with frame; with calcium silicate substrate