Folder: fsri_materials_database/01_Data/Polyolefin_Carpet_LowPile/Cone

Note: 01_Data/README.md
# Materials and Products Database
## 01_Data

Raw data generated from each apparatus are included here in plain-text format. The data is organized first by material, next by the short name of test apparatus used, and where applicable additional filtering by test settings.

### material.json

Each material directory contains a json file of the same name as the material. This file links the data stored in the repository as well as data and graphs produced by the accompanying scripts (__02_Scripts__) to the respective landing page for the material on the front-end website.

File: Polyolefin_Carpet_Low_Pile_Cone_HF25Scan_220406_R1.csv
Names,Time,Stack TC,Smoke TC,Exh Press,Smoke Comp,Smoke Meas,CO Meter,CO2 Meter,O2 Meter,Sample Mass,Ext Coeff,Start Test,Flame Verif
Chan Gain,,500,500,1,1,1,1,1,1,1,1,1.0,1.0
Offset,,0,0,0.132524,0,0,0,0,0,0,0,0.0,0.0
Gain,,1,1,25.011,13.2301,13.3727,1,1,1,1.0009,1.0066,1.0,1.0
Units,sec,C,C,Pa,%,%,%,%,%,g,/m,,
Baseline,,18.5234,19.0902,162.436,98.668,95.1083,0.00116674,0.0701335,20.9977,-833.663,0.324478,,
13,3,17.6956,18.3901,158.627,98.6935,94.8309,0.00125732,0.0786797,20.9927,201,0.352512,0.0,0.0
26,6.25,17.8509,17.5818,162.128,98.7056,95.4904,0.00134995,0.0784511,20.9912,201.07,0.292401,0.0,0.0
39,9.5,17.8678,18.3009,161.435,98.7116,95.3309,0.00112293,0.0811977,20.9885,201.11,0.307711,0.0,0.0
52,12.75,17.7381,18.0436,164.325,98.7241,94.8681,0.000863806,0.0817637,20.9885,201.09,0.351799,0.0,0.0
65,16,17.3794,18.2412,161.312,98.7504,95.2696,0.00106915,0.0811465,20.9906,201.1,0.316848,0.0,0.0
78,19.25,17.6249,18.4577,159.25,98.7871,94.8628,0.00116505,0.0784608,20.9943,201.08,0.357924,0.0,0.0
91,22.5,17.6788,18.5373,161.516,98.8323,95.3439,0.0009657,0.0745593,20.998,201.08,0.317292,0.0,0.0
104,25.75,17.7554,18.3557,159.859,98.8687,95.5117,0.00107076,0.0732542,20.9983,201.04,0.305018,0.0,0.0
117,29,17.5668,18.5606,157.884,98.8969,94.9795,0.0012103,0.0731883,20.9973,201.02,0.356877,0.0,0.0
130,32.25,17.4099,18.3824,161.136,98.9385,94.6844,0.00119954,0.0722541,20.9971,201.05,0.388063,0.0,0.0
143,35.5,18.0027,18.2808,162.281,98.9506,94.4934,0.00130573,0.0730068,20.9959,201.04,0.406972,0.0,0.0
156,38.75,18.1382,18.553,165.712,98.9841,94.5359,0.00150421,0.0778147,20.9838,201.27,0.405997,0.0,0.0
169,42,18.1575,18.197,158.178,99.0181,94.0078,0.00176779,0.111147,20.9299,200.9,0.458485,0.0,1.0
182,45.25,18.3495,19.0646,152.123,99.0322,89.7639,0.00250246,0.168447,20.8401,200.82,0.867633,0.0,0.0
195,48.5,19.0996,19.9538,147.841,99.0516,81.9745,0.00397712,0.227431,20.7333,200.73,1.67089,0.0,0.0
208,51.75,20.8235,20.7159,146.228,99.0625,79.5393,0.00612223,0.282449,20.6533,200.549,1.93814,0.0,0.0
221,55,22.5718,22.7912,143.45,99.0859,76.2578,0.00827271,0.334126,20.5581,200.369,2.31224,0.0,0.0
234,58.25,24.3139,24.8033,136.279,99.1073,73.2929,0.0100837,0.38996,20.4602,200.159,2.6643,0.0,0.0
247,61.5,26.0077,27.3478,137.582,99.1489,71.0504,0.0114888,0.445997,20.3701,199.909,2.94239,0.0,0.0
260,64.75,28.2095,29.9488,138.709,99.1662,70.0244,0.0124488,0.491642,20.3102,199.649,3.07236,0.0,0.0
273,68,31.0864,32.514,136.705,99.2034,70.0419,0.0130169,0.532494,20.239,199.418,3.07346,0.0,0.0
286,71.25,34.5278,36.0531,134.435,99.2171,70.8459,0.0133306,0.564965,20.1781,199.118,2.97391,0.0,0.0
299,74.5,37.0987,39.3388,129.185,99.2389,69.7901,0.0137129,0.581398,20.152,198.848,3.10842,0.0,0.0
312,77.75,39.5841,42.2846,138.631,99.2534,73.0562,0.0137572,0.593579,20.1308,198.568,2.70587,0.0,0.0
325,81,41.8772,45.2134,138.555,99.2757,73.301,0.0133529,0.59723,20.1253,198.277,2.6783,0.0,0.0
338,84.25,44.1872,47.8845,136.752,99.2983,73.9605,0.0128136,0.595269,20.1266,198.027,2.60123,0.0,0.0
351,87.5,45.5771,50.3643,129.111,99.3011,74.3058,0.0125636,0.589107,20.1389,197.767,2.56036,0.0,0.0
364,90.75,47.434,51.8478,129.215,99.3285,74.8004,0.0125005,0.574317,20.1657,197.487,2.50422,0.0,0.0
377,94,49.1852,54.091,133.935,99.3201,74.8706,0.0122801,0.560327,20.1899,197.246,2.49518,0.0,0.0
390,97.25,50.6578,54.9345,134.055,99.3415,76.2373,0.0116342,0.544641,20.2195,196.996,2.33735,0.0,0.0
403,100.5,51.8454,56.6806,135.544,99.3403,75.7754,0.0108918,0.528872,20.2447,196.776,2.39091,0.0,0.0
416,103.75,52.6982,57.4978,138.173,99.337,76.9793,0.0102765,0.507171,20.2879,196.556,2.25144,0.0,0.0
429,107,53.3732,58.5798,137.643,99.3455,79.101,0.00990316,0.481699,20.3314,196.366,2.01212,0.0,0.0
442,110.25,53.7405,59.0829,143.828,99.333,80.1213,0.00927597,0.445092,20.3883,196.165,1.89785,0.0,0.0
455,113.5,53.9811,59.2714,139.544,99.3354,81.3272,0.00823181,0.40452,20.462,196.015,1.76615,0.0,0.0
468,116.75,53.2774,58.6755,143.781,99.3148,83.209,0.00720953,0.360075,20.5415,195.885,1.56234,0.0,0.0
481,120,52.6833,58.1036,149.647,99.3023,84.1288,0.00607677,0.314884,20.6212,195.745,1.46415,0.0,0.0
494,123.25,51.8515,57.2166,149.679,99.2975,87.3018,0.00507659,0.276137,20.6872,195.655,1.13682,0.0,0.0
507,126.5,50.7846,56.1147,154.163,99.2688,89.013,0.00404873,0.243889,20.7437,195.565,0.962878,0.0,0.0
520,129.75,49.5556,54.7742,154.067,99.2458,90.736,0.00323329,0.216986,20.7834,195.505,0.791547,0.0,0.0
533,133,48.4568,53.6023,148.466,99.2349,92.6733,0.00265324,0.196196,20.8156,195.435,0.60404,0.0,0.0
546,136.25,47.4558,51.9494,155.196,99.1973,93.4875,0.00235952,0.177784,20.8432,195.405,0.523464,0.0,0.0
559,139.5,45.9755,50.9035,152.368,99.1872,93.6242,0.00234105,0.160731,20.8721,195.375,0.509663,0.0,0.0
572,142.75,44.3668,48.8302,156.098,99.1703,93.9498,0.0020807,0.145995,20.8942,195.335,0.477492,0.0,0.0
585,146,43.7006,48.3081,158.397,99.1509,94.5249,0.00198411,0.133802,20.9134,195.295,0.421888,0.0,0.0
598,149.25,42.0922,46.6253,157.564,99.0819,93.7197,0.00203473,0.124741,20.9264,195.245,0.491275,0.0,0.0
611,152.5,41.0718,45.5359,156.585,99.0685,95.1068,0.00205206,0.116776,20.9385,195.255,0.360356,0.0,0.0
624,155.75,39.8325,44.154,157.882,99.0318,94.4673,0.00208028,0.109405,20.947,195.245,0.416652,0.0,0.0
637,159,38.7922,42.7757,159.055,98.9942,95.2464,0.00208057,0.10413,20.9541,195.215,0.340783,0.0,0.0
650,162.25,37.7435,41.5671,162.928,98.9381,94.5942,0.00195638,0.0993592,20.961,195.215,0.396442,0.0,0.0
663,165.5,36.416,40.0058,159.687,98.8981,94.1616,0.00198806,0.0952014,20.966,195.125,0.433345,0.0,0.0
676,168.75,34.9993,38.9363,156.837,98.8558,93.6956,0.00206858,0.0924305,20.9702,195.185,0.473371,0.0,0.0
689,172,35.0025,38.3119,160.907,98.796,93.7748,0.00193999,0.0905295,20.9724,195.155,0.460574,0.0,0.0
702,175.25,34.2299,37.688,157.57,98.7564,94.6832,0.00185598,0.090298,20.9721,195.165,0.371911,0.0,0.0
715,178.5,33.2566,36.4433,161.192,98.7096,94.4175,0.00178586,0.0920203,20.971,195.155,0.392533,0.0,0.0
728,181.75,32.5164,35.8439,158.388,98.641,94.3804,0.00178591,0.093716,20.9703,195.145,0.389864,0.0,0.0
741,185,31.7258,35.0633,153.86,98.5913,93.6189,0.00169885,0.0922594,20.9744,195.135,0.456952,0.0,0.0
754,188.25,30.6469,33.5883,157.794,98.5303,93.2148,0.001497,0.0850481,20.9823,195.135,0.489679,0.0,0.0
767,191.5,30.1143,32.8263,160.227,98.4778,93.5275,0.0012745,0.0785035,20.989,195.125,0.455411,0.0,0.0
780,194.75,29.5783,31.8598,162.847,98.4318,93.3128,0.00126016,0.0746454,20.9944,195.115,0.471572,0.0,0.0
793,198,29.1035,31.4476,160.775,98.3818,93.2626,0.00128735,0.0722522,20.9965,195.115,0.471832,0.0,0.0
806,201.25,27.7349,30.6135,162.998,98.3075,93.6878,0.00114447,0.070387,20.9996,195.104,0.424993,0.0,0.0
819,204.5,27.1276,30.1793,162.193,98.2279,93.5825,0.0013052,0.0691853,21.002,195.094,0.427774,0.0,0.0
832,207.75,26.2363,28.7826,158.655,98.1859,93.6336,0.00135616,0.0682575,21.0026,195.074,0.419187,0.0,0.0
845,211,26.94,29.4451,161.22,98.1262,93.6919,0.00135208,0.067745,21.0023,195.074,0.40831,0.0,0.0
858,214.25,26.2913,28.1453,154.724,98.068,93.1936,0.00118694,0.0673697,21.002,195.064,0.450162,0.0,0.0
871,217.5,26.1215,27.9156,158.985,98.0406,93.0283,0.00106921,0.067206,21.003,195.074,0.463364,0.0,0.0
884,220.75,25.8288,27.4758,161.981,97.9845,93.7013,0.000975896,0.0672041,21.0039,195.064,0.394664,0.0,0.0
897,224,25.5939,27.6599,159.227,97.9461,93.5564,0.000924366,0.0670853,21.0042,195.064,0.40487,0.0,0.0
910,227.25,24.7706,26.8487,164.243,97.8993,93.2055,0.000888825,0.067143,21.0041,195.074,0.433833,0.0,0.0
923,230.5,24.9738,26.5709,159.797,97.8553,93.5838,0.00100284,0.0670617,21.0041,195.054,0.394096,0.0,0.0
936,233.75,24.4345,25.9842,160.883,97.806,93.2593,0.00115506,0.0670844,21.0041,195.054,0.420315,0.0,0.0
949,237,24.0469,25.2411,163.517,97.7418,93.3422,0.00103332,0.0669734,21.0041,195.044,0.406678,0.0,0.0
962,240.25,22.7718,24.385,162.4,97.6938,93.543,0.000819091,0.0669897,21.0041,195.044,0.383363,0.0,0.0
975,243.5,24.4815,24.483,161.155,97.6498,93.2328,0.000658208,0.0669388,21.0041,195.034,0.40871,0.0,0.0
988,246.75,23.4884,24.493,163.938,97.5876,93.1814,0.00068026,0.0668186,21.0041,195.034,0.407957,0.0,0.0
1001,250,23.1606,24.6518,159.367,97.5557,93.2814,0.000963285,0.0666476,21.0056,195.004,0.395601,0.0,0.0
1014,253.25,22.8971,23.6484,157.411,97.5282,93.2418,0.00102154,0.0666226,21.0062,195.034,0.396864,0.0,0.0
1027,256.5,23.1388,23.7932,158.64,97.4874,93.2397,0.0010245,0.0664362,21.0064,195.024,0.393365,0.0,0.0
1040,259.75,22.3269,23.8373,158.058,97.4644,93.1083,0.00104763,0.0663455,21.0064,195.004,0.403733,0.0,0.0
1053,263,22.5074,23.868,162.744,97.4547,93.5042,0.00122338,0.066237,21.007,195.004,0.365394,0.0,0.0
1066,266.25,22.321,23.5881,159.516,97.4402,92.8961,0.00119489,0.0662793,21.0072,195.004,0.421686,0.0,0.0
1079,269.5,21.8856,22.7142,164.146,97.4249,93.5483,0.000939411,0.0663863,21.0073,194.994,0.358525,0.0,0.0
1092,272.75,22.2246,22.6769,162.015,97.4136,93.3348,0.000611408,0.0664015,21.0076,194.994,0.377669,0.0,0.0
1105,276,22.3216,23.3394,161.032,97.4269,93.1475,0.000592489,0.0663579,21.0077,194.984,0.396616,0.0,0.0
1118,279.25,20.8635,22.2648,157.056,97.4184,92.9945,0.000810659,0.0662488,21.0077,194.984,0.410366,0.0,0.0
1131,282.5,21.6966,22.2157,160.99,97.4253,93.443,0.000864405,0.066213,21.0075,194.974,0.368506,0.0,0.0
1144,285.75,21.9104,22.4884,162.189,97.443,93.2891,0.000746396,0.066149,21.007,194.974,0.384665,0.0,0.0
1157,289,21.5946,22.61,162.192,97.4729,93.0626,0.000781994,0.0660449,21.0069,194.964,0.408836,0.0,0.0
1170,292.25,21.3706,22.4346,159.339,97.4951,93.5173,0.000999025,0.0660796,21.0085,194.964,0.367817,0.0,0.0
1183,295.5,21.3063,22.0904,155.97,97.5375,93.5446,,0.0661407,,194.964,0.369075,0.0,0.0
1196,298.75,21.6063,21.8954,164.324,97.5666,93.5393,,,,194.964,0.372207,0.0,0.0
1209,302,21.2085,21.6809,160.934,97.6005,93.2687,,,,194.954,0.400853,0.0,0.0
1222,305.25,20.8514,21.4345,157.949,97.6324,93.2075,,,,194.964,0.409536,0.0,0.0
1226,306.25,21.7948,21.7752,159.023,97.6498,94.3192,,,,194.954,0.306418,0.0,0.0

File: Polyolefin_Carpet_Low_Pile_Cone_HF25Scan_220406_R2.csv
Names,Time,Stack TC,Smoke TC,Exh Press,Smoke Comp,Smoke Meas,CO Meter,CO2 Meter,O2 Meter,Sample Mass,Ext Coeff,Start Test,Flame Verif
Chan Gain,,500,500,1,1,1,1,1,1,1,1,1.0,1.0
Offset,,0,0,0.132524,0,0,0,0,0,0,0,0.0,0.0
Gain,,1,1,25.011,13.2301,13.3727,1,1,1,1.0009,1.0066,1.0,1.0
Units,sec,C,C,Pa,%,%,%,%,%,g,/m,,
Baseline,,19.0989,19.5009,161.951,98.7003,95.2591,0.00103591,0.0662785,21.0056,-833.737,0.313378,,
13,3,17.8636,18.4865,163.26,98.7274,95.246,0.00114415,0.07605,20.9974,206.144,0.316985,0.0,0.0
26,6.25,18.1231,18.316,164.352,98.7447,95.5345,0.000891109,0.0740291,21,206.144,0.291829,0.0,0.0
39,9.5,17.8501,18.9243,163.954,98.7613,95.1721,0.000831697,0.0711584,21.0036,206.144,0.326868,0.0,0.0
52,12.75,18.2654,18.8078,164.618,98.7782,94.9534,0.000892478,0.0686141,21.0045,206.114,0.348702,0.0,0.0
65,16,18.5297,18.3763,159.458,98.7912,95.2031,0.000802884,0.0672903,21.0047,206.104,0.326661,0.0,0.0
78,19.25,18.3023,18.8689,158.105,98.8069,95.1399,0.00102101,0.0664624,21.006,206.094,0.333937,0.0,0.0
91,22.5,18.1655,18.7003,160.629,98.8138,95.2945,0.00119249,0.0661703,21.0074,206.084,0.320207,0.0,0.0
104,25.75,18.7061,18.653,158.852,98.8436,95.1595,0.00111611,0.0660481,21.0074,206.074,0.335402,0.0,0.0
117,29,18.4799,19.3455,161.745,98.8424,94.9921,0.00118876,0.0659578,21.0061,206.084,0.350834,0.0,0.0
130,32.25,18.6312,19.0625,159.982,98.844,94.1465,0.00110537,0.066296,21.005,206.074,0.42993,0.0,0.0
143,35.5,17.9245,18.4031,158.806,98.8562,93.7772,0.00105181,0.067578,21.0027,209.397,0.465718,0.0,0.0
156,38.75,18.5384,19.1277,161.025,98.8695,93.7156,0.00133239,0.069152,20.9971,205.564,0.472714,0.0,0.0
169,42,18.3914,19.415,154.559,98.8772,93.432,0.00163108,0.0907022,20.9622,206.004,0.500162,0.0,1.0
182,45.25,19.5262,19.3365,150.73,98.8751,87.5789,0.00263549,0.146147,20.8619,205.894,1.07121,0.0,1.0
195,48.5,19.4792,20.494,148.138,98.8772,83.795,0.00428441,0.206416,20.7706,205.814,1.46137,0.0,1.0
208,51.75,21.1636,21.8044,144.084,98.8808,79.1871,0.0060547,0.2502,20.7008,205.674,1.96111,0.0,0.0
221,55,22.234,22.6139,144.401,98.88,76.7205,0.00733571,0.29006,20.641,205.524,2.24045,0.0,0.0
234,58.25,23.8659,24.6153,147.493,98.901,74.9273,0.00830553,0.325084,20.5887,205.334,2.45116,0.0,0.0
247,61.5,26.1086,26.7871,143.4,98.8969,73.7622,0.00918167,0.352269,20.5326,205.163,2.58918,0.0,0.0
260,64.75,26.2353,27.1157,142.228,98.8856,73.2459,0.0098953,0.381694,20.4844,204.983,2.65019,0.0,0.0
273,68,28.7631,29.9069,144.714,98.8994,73.0949,0.0103484,0.406369,20.4403,204.763,2.66963,0.0,0.0
286,71.25,31.2573,32.7003,142.829,98.9111,75.0681,0.0103334,0.419861,20.42,204.533,2.43548,0.0,0.0
299,74.5,32.5853,34.2026,136.029,98.9115,72.3379,0.0102669,0.426969,20.4069,204.323,2.76264,0.0,0.0
312,77.75,34.6125,36.4993,135.002,98.9119,72.1033,0.0105901,0.433901,20.3949,204.133,2.79136,0.0,0.0
325,81,35.9237,38.2229,140.774,98.9248,73.0101,0.0107971,0.439642,20.3871,203.932,2.68216,0.0,0.0
338,84.25,38.4124,40.2213,139.148,98.9349,72.4285,0.0107656,0.440718,20.3821,203.712,2.75368,0.0,0.0
351,87.5,39.373,41.8587,139.983,98.9236,73.523,0.0105734,0.439027,20.3862,203.502,2.62023,0.0,0.0
364,90.75,40.3815,43.0892,141.743,98.9357,74.4903,0.0102276,0.435561,20.3934,203.322,2.50591,0.0,0.0
377,94,41.608,44.6024,140.189,98.9389,76.7911,0.00986323,0.430574,20.4016,203.082,2.23759,0.0,0.0
390,97.25,42.6843,45.8436,146.525,98.9482,77.6637,0.00951914,0.424976,20.4103,202.891,2.13866,0.0,0.0
403,100.5,43.7036,47.1879,140.283,98.9373,78.0918,0.0092568,0.418222,20.4229,202.711,2.08915,0.0,0.0
416,103.75,44.8829,47.8609,141.561,98.9373,78.515,0.00906069,0.409832,20.4396,202.521,2.04142,0.0,0.0
429,107,45.0327,49.145,145.964,98.9292,78.3215,0.00885249,0.398642,20.459,202.341,2.06248,0.0,0.0
442,110.25,46.1241,49.7457,150.472,98.9038,80.127,0.00832894,0.38639,20.4812,202.181,1.85898,0.0,0.0
455,113.5,45.8034,49.7185,141.809,98.903,79.6017,0.00800937,0.373296,20.5022,202.011,1.91698,0.0,0.0
468,116.75,46.6073,50.5099,144.859,98.901,79.6311,0.00792016,0.361158,20.5246,201.861,1.91354,0.0,0.0
481,120,46.3089,50.3733,143.974,98.9014,80.8767,0.00754852,0.344865,20.5511,201.69,1.77654,0.0,0.0
494,123.25,46.9332,50.6754,146.979,98.8763,81.7635,0.00688216,0.327281,20.5822,201.57,1.67801,0.0,0.0
507,126.5,46.2172,50.5728,148.418,98.8667,81.5749,0.00658851,0.311038,20.6064,201.44,1.69753,0.0,0.0
520,129.75,46.2111,50.3319,148.203,98.8408,83.5959,0.0062386,0.292017,20.6432,201.31,1.47914,0.0,0.0
533,133,45.5002,49.8936,148.149,98.821,83.3918,0.00565045,0.272377,20.6771,201.22,1.49895,0.0,0.0
546,136.25,45.3566,49.1457,147.709,98.8081,81.7875,0.00529133,0.256118,20.7035,201.1,1.66932,0.0,0.0
559,139.5,44.5088,48.654,151.501,98.7964,83.9807,0.00467519,0.241136,20.7296,201.01,1.43462,0.0,0.0
572,142.75,44.2354,48.4109,150.844,98.7597,86.295,0.00407487,0.225311,20.7574,200.93,1.19129,0.0,0.0
585,146,43.4793,47.6261,155.767,98.7738,86.9631,0.00361346,0.20903,20.7856,200.87,1.12446,0.0,0.0
598,149.25,42.8051,47.3464,149.917,98.7383,89.0759,0.00318896,0.193486,20.8088,200.78,0.90933,0.0,0.0
611,152.5,42.0269,46.0405,154.806,98.7253,90.2194,0.00278614,0.179279,20.8355,200.74,0.795543,0.0,0.0
624,155.75,41.3695,45.1168,155.541,98.7128,90.8687,0.00252877,0.166117,20.8561,200.689,0.731105,0.0,0.0
637,159,40.3945,44.3639,155.128,98.6793,90.8548,0.00231961,0.15447,20.8771,200.629,0.729456,0.0,0.0
650,162.25,39.7491,43.4077,155.064,98.6603,92.1321,0.00229354,0.144337,20.8926,200.589,0.60448,0.0,0.0
663,165.5,38.7019,42.2818,157.187,98.6345,92.9471,0.00210061,0.136683,20.907,200.559,0.524404,0.0,0.0
676,168.75,37.8837,41.3248,157.298,98.6402,93.3471,0.00174851,0.129528,20.9167,200.529,0.486998,0.0,0.0
689,172,37.437,40.7829,156.208,98.6321,93.9511,0.00167779,0.122968,20.925,200.499,0.429327,0.0,0.0
702,175.25,36.1021,39.8825,153.502,98.6446,93.6846,0.00179451,0.116652,20.9352,200.489,0.455528,0.0,0.0
715,178.5,35.4015,38.8381,158.64,98.7189,94.4983,0.00184773,0.110342,20.9454,200.449,0.385811,0.0,0.0
728,181.75,34.9451,38.0508,158.286,98.7794,95.2366,0.00185337,0.104246,20.9533,200.429,0.322512,0.0,0.0
741,185,34.4243,37.3404,162.214,98.8521,94.9693,0.00162399,0.0983243,20.9639,200.419,0.353823,0.0,0.0
754,188.25,33.9161,36.7364,156.676,98.9268,95.1395,0.00170394,0.0924023,20.973,200.409,0.344685,0.0,0.0
767,191.5,32.3003,35.4704,161.875,99.008,94.7579,0.00176632,0.0864144,20.9815,200.399,0.387411,0.0,0.0
780,194.75,31.5598,35.3109,159.397,99.0496,94.9432,0.00161344,0.0796228,20.9891,200.399,0.37387,0.0,0.0
793,198,30.8926,33.4456,158.07,99.1041,94.3102,0.00141768,0.0747907,20.9958,200.399,0.437791,0.0,0.0
806,201.25,30.3484,32.2374,157.399,99.1481,94.704,0.00138877,0.0718525,20.9999,200.389,0.404917,0.0,0.0
819,204.5,29.5017,31.7132,158.62,99.1905,94.8534,0.000979437,0.0702452,21.002,200.359,0.394776,0.0,0.0
832,207.75,27.8703,30.4908,160.461,99.226,94.8848,0.000715114,0.0693384,21.0033,200.369,0.395013,0.0,0.0
845,211,27.9319,30.6185,161.416,99.2474,95.3203,0.00111308,0.068513,21.0042,200.359,0.356489,0.0,0.0
858,214.25,27.9756,29.8494,162.086,99.2522,94.9579,0.00106368,0.0679488,21.0045,200.349,0.390553,0.0,0.0
871,217.5,26.8164,29.0423,164.724,99.2833,95.4839,0.000800713,0.0675782,21.0043,200.389,0.344539,0.0,0.0
884,220.75,27.0848,28.8458,162.254,99.2716,95.4896,0.000859195,0.0672842,21.0048,200.339,0.342969,0.0,0.0
897,224,26.5855,28.5069,161.27,99.3071,95.6333,0.000866349,0.0671106,21.0046,200.369,0.332856,0.0,0.0
910,227.25,25.3145,28.1159,159.751,99.3225,95.4937,0.000674408,0.0671312,21.0046,200.329,0.347115,0.0,0.0
923,230.5,25.7246,27.4833,159.702,99.3447,95.0407,0.00087812,0.0674764,21.0031,200.339,0.391075,0.0,0.0
936,233.75,25.3758,27.4062,161.854,99.3516,95.4966,0.000957564,0.0677856,21.0031,200.339,0.349436,0.0,0.0
949,237,25.1171,26.702,166.091,99.3734,95.186,0.00105177,0.067748,21.0031,200.329,0.380135,0.0,0.0
962,240.25,24.8057,26.2585,164.934,99.3851,94.9672,0.000911055,0.0676428,21.0036,200.329,0.40149,0.0,0.0
975,243.5,24.2023,25.9108,161.293,99.3762,95.7357,0.000761847,0.0674102,21.0039,200.319,0.32954,0.0,0.0
988,246.75,23.6222,25.3882,158.294,99.3992,95.448,0.000781346,0.0672427,21.0039,200.319,0.35816,0.0,0.0
1001,250,23.3326,24.9497,160.097,99.4,95.1137,0.000778173,0.0671255,21.0039,200.309,0.389206,0.0,0.0
1014,253.25,23.6966,25.0121,161.697,99.3972,95.7177,0.000730763,0.0669431,21.0039,200.309,0.333061,0.0,0.0
1027,256.5,23.112,24.9174,159.79,99.4125,95.5014,0.000810804,0.0670766,21.0039,200.319,0.354399,0.0,0.0
1040,259.75,23.6367,24.3559,162.764,99.4149,95.9263,0.000888681,0.0670698,21.0039,200.309,0.315422,0.0,0.0
1053,263,23.5892,24.1347,154.038,99.404,95.8296,0.000912168,0.0669745,21.0037,200.289,0.323362,0.0,0.0
1066,266.25,22.7615,24.0101,168.576,99.3919,95.8671,0.000907001,0.066767,21.0037,200.289,0.318828,0.0,0.0
1079,269.5,23.3457,24.1557,162.549,99.4012,95.4031,0.000909038,0.0665112,21.0033,200.289,0.362494,0.0,0.0
1092,272.75,22.5185,23.4001,158.346,99.4097,95.7879,0.000964197,0.0665584,21.0047,200.289,0.3277,0.0,0.0
1105,276,22.0178,23.4003,158.3,99.3956,95.6545,0.00093378,0.0666303,21.0053,200.289,0.338754,0.0,0.0
1118,279.25,22.2018,23.1004,162.183,99.3964,95.6186,0.000758415,0.0665026,21.0037,200.299,0.342143,0.0,0.0
1131,282.5,21.9743,23.0651,162.944,99.4137,95.5059,0.000821038,0.0663911,21.0049,200.289,0.354091,0.0,0.0
1144,285.75,22.4822,22.9027,160.998,99.4004,95.8528,0.000926838,0.0664368,21.0053,200.269,0.320895,0.0,0.0
1157,289,21.9511,22.8135,160.548,99.4065,96.0197,0.0011826,0.0662986,21.0064,200.269,0.306072,0.0,0.0
1170,292.25,21.6068,22.9641,160.821,99.3887,95.6794,0.00115445,0.0662179,21.007,200.269,0.335846,0.0,0.0
1183,295.5,21.3016,21.9224,159.964,99.3919,95.852,0.00095591,0.0661631,21.0089,200.269,0.320218,0.0,0.0
1196,298.75,21,22.2279,157.146,99.3871,96.052,0.00091078,0.0659692,21.0097,200.269,0.301385,0.0,0.0
1209,302,21.43,22.7286,164.511,99.3883,95.6994,0.000949735,0.0659013,21.0088,200.259,0.333965,0.0,0.0
1222,305.25,21.4162,22.3834,159.787,99.3988,95.9349,,0.0659476,,200.259,0.313199,0.0,0.0
1235,308.5,21.3032,22.0783,157.134,99.3782,95.8957,,,,200.259,0.314976,0.0,0.0
1248,311.75,21.2155,21.5592,158.556,99.3625,95.4068,,,,200.249,0.358709,0.0,0.0
1257,314,20.9207,21.5448,164.691,99.3677,95.7908,,,,200.249,0.323707,0.0,0.0