Folder: fsri_materials_database/01_Data/PVC/STA/N2/10K_min (part 2)

File: PVC_STA_N2_10KData_210705_R3.csv
##Temp./Â°C,Time/min,Mass loss(subtr.2)/mg,DSC(subtr.2)/mW,DTG(subtr.2)/(mg/min),Sensit./(uV/mW)
48.331,0.16683,0.01382,-0.10083,0.0,0.99127
51.531,0.20603,0.01560063,-0.08953959,0.002345819,0.99131
54.731,0.21779,0.01694483,-0.08722725,0.0003736345,0.99133
57.931,0.22729,0.01703638,-0.09270515,0.001052643,0.99133
61.131,0.23576,0.01828844,-0.10783,0.00139434,0.9913
64.331,0.24356,0.01838548,-0.1197,0.0001484686,0.99125
67.531,0.25089,0.01853466,-0.12111,0.00114043,0.99117
70.731,0.25783,0.01773236,-0.12244,0.0005416982,0.99108
73.931,0.26447,0.01821273,-0.12333,0.000781367,0.99096
77.131,0.27085,0.01600932,-0.09236557,0.0008131177,0.99081
80.331,0.27704,0.01985347,-0.06991127,0.0002280652,0.99065
83.531,0.28305,0.01985816,-0.10456,0.0004750634,0.99046
86.731,0.2889,0.01982913,-0.16251,0.0006002326,0.99024
89.931,0.2946,0.01972624,-0.19765,0.0002736603,0.99001
93.131,0.30019,0.01925609,-0.20603,-2.22667e-05,0.98975
96.331,0.30568,0.01913303,-0.20592,-0.0007832841,0.98947
99.531,0.3111,0.01875567,-0.21407,-0.000169516,0.98916
102.731,0.31645,0.01973548,-0.20571,-0.0008792969,0.98883
105.931,0.32174,0.01245853,-0.21199,-0.001823094,0.98848
109.131,0.32701,0.01831,-0.20391,-0.002555184,0.98811
112.331,0.33221,0.01732998,-0.20469,-0.002194545,0.98771
115.531,0.33739,0.01732693,-0.2083,-4.925286e-05,0.98729
118.731,0.34253,0.01733,-0.20436,0.00131805,0.98685
121.931,0.34764,0.01733148,-0.20729,0.0002273125,0.98639
125.131,0.35271,0.01733296,-0.21249,0.000130754,0.9859
128.331,0.35774,0.01854059,-0.20964,0.0002565012,0.98539
131.531,0.36273,0.01733,-0.21094,-1.624101e-05,0.98486
134.731,0.36769,0.01765984,-0.22199,-0.001241049,0.98431
137.931,0.37262,0.01733,-0.21686,-0.002665045,0.98373
141.131,0.37752,0.01600857,-0.22656,-0.002338876,0.98314
144.331,0.38241,0.01666948,-0.22978,-0.000476732,0.98252
147.531,0.38726,0.01639263,-0.23477,0.0008411795,0.98188
150.731,0.3921,0.01567996,-0.22813,0.0006213512,0.98121
153.931,0.39694,0.01666999,-0.21778,-0.000742452,0.98053
157.131,0.40176,0.01469009,-0.21275,-0.0009821778,0.97982
160.331,0.40657,0.01527415,-0.20981,-0.0006955004,0.97909
163.531,0.41137,0.0147931,-0.19424,-0.0006163656,0.97834
166.731,0.41618,0.01468959,-0.15136,-0.00154851,0.97757
169.931,0.42097,0.01437,-0.10767,-0.00146909,0.97678
173.131,0.42576,0.01436003,-0.06267146,0.0003521293,0.97597
176.331,0.43056,0.01436133,-0.03611394,0.0006156475,0.97513
179.531,0.43533,0.01404,-0.006908774,-0.0009789307,0.97428
182.731,0.44008,0.01372289,0.02770203,-0.002702576,0.9734
185.931,0.44485,0.01265987,0.0550077,-0.002465771,0.9725
189.131,0.44959,0.01239216,0.09585072,-0.0001569252,0.97158
192.331,0.45433,0.01271981,0.13756,-0.00020887,0.97064
195.531,0.45907,0.01398009,0.18414,-0.003090805,0.96968
198.731,0.46379,0.01138899,0.23006,-0.002970307,0.9687
201.931,0.46852,0.01041,0.25886,-0.00169876,0.9677
205.131,0.47324,0.0087588,0.3026,-0.001324871,0.96668
208.331,0.47797,0.00976062,0.33165,-0.00155714,0.96564
211.531,0.48269,0.008439883,0.34875,-0.002412856,0.96458
214.731,0.48742,0.008455395,0.35221,-0.004295423,0.9635
217.931,0.49215,0.006800141,0.36843,-0.003877955,0.9624
221.131,0.49688,0.006275821,0.38353,-0.002205588,0.96128
224.331,0.5016,0.004824477,0.37959,-0.003933642,0.96014
227.531,0.50633,0.005150493,0.38188,-0.004953232,0.95898
230.731,0.51104,0.00285,0.39047,-0.004603446,0.9578
233.931,0.51578,0.002190266,0.3964,-0.006161779,0.9566
237.131,0.5205,-0.0004399421,0.40007,-0.00832493,0.95538
240.331,0.52523,-0.002028955,0.40198,-0.00971916,0.95414
243.531,0.52997,-0.005190777,0.36756,-0.01427821,0.95289
246.731,0.53471,-0.008581789,0.27456,-0.02400832,0.95161
249.931,0.53945,-0.01860281,0.51186,-0.03628331,0.95032
253.131,0.5442,-0.03054653,0.64295,-0.04506571,0.94901
256.331,0.54894,-0.04569144,0.71587,-0.04923131,0.94768
259.531,0.5537,-0.05884488,0.78578,-0.05305651,0.94633
262.731,0.55845,-0.07479775,0.85544,-0.05817944,0.94496
265.931,0.56319,-0.09408098,0.92102,-0.0641993,0.94357
269.131,0.56795,-0.11138,0.9896,-0.0713729,0.94217
272.331,0.57271,-0.13316,1.0671,-0.08000226,0.94075
275.531,0.57747,-0.15667,1.15543,-0.09164205,0.93931
278.731,0.58224,-0.18424,1.2544,-0.10678,0.93785
281.931,0.58702,-0.21793,1.37923,-0.12374,0.93637
285.131,0.59181,-0.25553,1.51375,-0.14525,0.93488
288.331,0.59659,-0.29971,1.65469,-0.17051,0.93337
291.531,0.60138,-0.35231,1.83336,-0.1992,0.93184
294.731,0.60617,-0.41388,2.02406,-0.2334,0.9303
297.931,0.61097,-0.48573,2.23173,-0.27209,0.92874
301.131,0.61578,-0.57195,2.43027,-0.31095,0.92716
304.331,0.62059,-0.6661,2.6194,-0.34436,0.92557
307.531,0.6254,-0.77198,2.72629,-0.36979,0.92396
310.731,0.63023,-0.88073,2.79392,-0.38832,0.92233
313.931,0.63505,-0.99652,2.81369,-0.39849,0.92068
317.131,0.63987,-1.11479,2.70967,-0.39845,0.91902
320.331,0.64469,-1.22902,2.55378,-0.39241,0.91735
323.531,0.64951,-1.34139,2.42641,-0.38064,0.91566
326.731,0.65433,-1.44948,2.2815,-0.35988,0.91395
329.931,0.65915,-1.55126,2.10674,-0.33307,0.91222
333.131,0.66399,-1.64203,1.89712,-0.30491,0.91049
336.331,0.66884,-1.72904,1.65503,-0.27512,0.90873
339.531,0.67368,-1.8036,1.36606,-0.24235,0.90696
342.731,0.67852,-1.87047,1.01332,-0.20517,0.90518
345.931,0.68337,-1.92553,0.6323,-0.16659,0.90338
349.131,0.68823,-1.96706,0.27668,-0.13045,0.90156
352.331,0.69309,-1.99881,-0.009216786,-0.09697186,0.89973
355.531,0.69797,-2.02307,-0.2121,-0.07077554,0.89789
358.731,0.70284,-2.0394,-0.316,-0.05345575,0.89603
361.931,0.70774,-2.0533,-0.37414,-0.04042526,0.89416
365.131,0.71264,-2.06286,-0.37647,-0.02973809,0.89227
368.331,0.71754,-2.06814,-0.37865,-0.02421537,0.89037
371.531,0.72246,-2.07757,-0.36522,-0.02299055,0.88846
374.731,0.72737,-2.08299,-0.3534,-0.02220108,0.88653
377.931,0.73229,-2.09078,-0.33192,-0.02085787,0.88459
381.131,0.73725,-2.09458,-0.32836,-0.02014327,0.88263
384.331,0.74219,-2.10135,-0.30727,-0.0191687,0.88066
387.531,0.74715,-2.10529,-0.30291,-0.01889947,0.87868
390.731,0.75211,-2.11329,-0.28837,-0.02005236,0.87669
393.931,0.75708,-2.11734,-0.2837,-0.02100225,0.87468
397.131,0.76206,-2.12528,-0.30385,-0.02223146,0.87266
400.331,0.76703,-2.1318,-0.30118,-0.02434164,0.87063
403.531,0.77203,-2.13874,-0.29919,-0.02725183,0.86858
406.731,0.77704,-2.14846,-0.3215,-0.03102375,0.86652
409.931,0.78204,-2.15698,-0.33658,-0.03342483,0.86445
413.131,0.78704,-2.16991,-0.34519,-0.03538493,0.86237
416.331,0.79205,-2.17777,-0.34972,-0.03632668,0.86028
419.531,0.79707,-2.18969,-0.35641,-0.03998529,0.85817
422.731,0.80209,-2.20184,-0.3544,-0.04564824,0.85605
425.931,0.80714,-2.22356,-0.35207,-0.05444343,0.85392
429.131,0.81219,-2.23408,-0.31495,-0.06483048,0.85178
432.331,0.81723,-2.25688,-0.26216,-0.07498992,0.84963
435.531,0.82228,-2.27943,-0.19084,-0.08664112,0.84747
438.731,0.82734,-2.3088,-0.07307001,-0.10038,0.8453
441.931,0.83241,-2.34178,0.06549186,-0.11458,0.84311
445.131,0.83749,-2.37919,0.24531,-0.12632,0.84092
448.331,0.84258,-2.41958,0.41365,-0.13371,0.83871
451.531,0.84767,-2.45959,0.55271,-0.13712,0.8365
454.731,0.85276,-2.50309,0.70211,-0.13981,0.83427
457.931,0.85786,-2.54574,0.82576,-0.14663,0.83203
461.131,0.86298,-2.59508,0.85426,-0.14928,0.82979
464.331,0.86809,-2.63956,0.95759,-0.13839,0.82753
467.531,0.8732,-2.67942,0.99869,-0.13048,0.82527
470.731,0.87833,-2.7169,1.00021,-0.1256,0.82299
473.931,0.88345,-2.75721,0.99064,-0.1164,0.82071
477.131,0.88859,-2.79028,0.96525,-0.10742,0.81841
480.331,0.89374,-2.82249,0.93865,-0.09934095,0.81611
483.531,0.89889,-2.85063,0.91718,-0.08721661,0.8138
486.731,0.90405,-2.8771,0.89083,-0.07784746,0.81148
489.931,0.9092,-2.89947,0.83699,-0.06985971,0.80915
493.131,0.91435,-2.91812,0.79136,-0.05984895,0.80681
496.331,0.91951,-2.93673,0.74428,-0.05058379,0.80447
499.531,0.92468,-2.95067,0.7,-0.04398309,0.80211
502.731,0.92987,-2.96537,0.64645,-0.03766944,0.79975
505.931,0.93505,-2.97454,0.60531,-0.03112692,0.79738
509.131,0.94024,-2.98347,0.60422,-0.02624791,0.795
512.331,0.94544,-2.98984,0.58481,-0.02274711,0.79262
515.531,0.95065,-2.99794,0.58067,-0.01743523,0.79022
518.731,0.95586,-3.0007,0.58958,-0.01430945,0.78782
521.931,0.96107,-3.00704,0.59994,-0.01271791,0.78541
525.131,0.96629,-3.00779,0.61744,-0.01043368,0.783
528.331,0.97153,-3.01224,0.62092,-0.00879382,0.78058
531.531,0.97674,-3.01439,0.58931,-0.00731745,0.77815
534.731,0.98195,-3.01802,0.51513,-0.006393861,0.77571
537.931,0.98718,-3.01768,0.55365,-0.006223296,0.77327
541.131,0.99243,-3.02031,0.59991,-0.005871006,0.77082
544.331,0.99768,-3.02295,0.60557,-0.00468684,0.76836
547.531,1.00293,-3.02333,0.5862,-0.0033715,0.7659
550.731,1.00819,-3.02427,0.56308,-0.003984045,0.76344
553.931,1.01346,-3.0255,0.53966,-0.003834262,0.76096
557.131,1.01873,-3.02756,0.53349,-0.003875312,0.75848
560.331,1.02399,-3.02888,0.52991,-0.0030563,0.756
563.531,1.02929,-3.02887,0.52739,-0.002445767,0.75351
566.731,1.03459,-3.03116,0.50016,-0.003619908,0.75101
569.931,1.03989,-3.03141,0.52028,-0.00192788,0.74851
573.131,1.04518,-3.0324,0.52844,-0.000757751,0.746
576.331,1.05047,-3.03172,0.55642,-0.002605921,0.74349
579.531,1.05579,-3.03867,0.56347,-0.003622375,0.74097
582.731,1.06112,-3.03447,0.5822,-0.003934283,0.73845
585.931,1.06646,-3.03577,0.60511,-0.002891763,0.73593
589.131,1.07178,-3.03546,0.61928,-0.00160343,0.7334
592.331,1.07711,-3.04186,0.63781,-0.001664084,0.73086
595.531,1.08243,-3.03865,0.7001,-0.00296475,0.72832
598.731,1.08776,-3.0383,0.72101,-0.003620485,0.72578
601.931,1.0931,-3.03957,0.73927,-0.001566959,0.72323
605.131,1.09844,-3.03886,0.74925,-0.0003538215,0.72068
608.331,1.10378,-3.03884,0.7342,-0.00306006,0.71813
611.531,1.10913,-3.04148,0.75091,-0.003243075,0.71557
614.731,1.11451,-3.04116,0.82363,-0.001919462,0.71301
617.931,1.11988,-3.04247,0.86265,-0.002896277,0.71044
621.131,1.12525,-3.0449,0.9118,-0.001636809,0.70787
624.331,1.13063,-3.04313,0.96896,-0.000339963,0.7053
627.531,1.13602,-3.04401,1.03452,-0.002180154,0.70273
630.731,1.14141,-3.04447,1.04769,-0.003685808,0.70015
633.931,1.1468,-3.04724,1.08047,-0.00358922,0.69757
637.131,1.15219,-3.0487,1.15175,-0.00177361,0.69498
640.331,1.1576,-3.04567,1.17715,-0.00068822,0.6924
643.531,1.16302,-3.04708,1.22763,-0.008384321,0.68981
645.631,1.16658,-3.0495,1.26006,-0.01792109,0.68811