Folder: fsri_materials_database/01_Data/PVC/STA/N2/10K_min

Note: 01_Data/README.md
# Materials and Products Database
## 01_Data

Raw data generated from each apparatus are included here in plain-text format. The data is organized first by material, next by the short name of test apparatus used, and where applicable additional filtering by test settings.

### material.json

Each material directory contains a json file of the same name as the material. This file links the data stored in the repository as well as data and graphs produced by the accompanying scripts (__02_Scripts__) to the respective landing page for the material on the front-end website.

File: PVC_STA_N2_10KData_210505_R1.csv
##Temp./Â°C,Time/min,DSC(subtr.2)/mW,Mass loss(subtr.2)/mg,DTG(subtr.2)/(mg/min),Sensit./(uV/mW)
48.346,0.16683,-0.0561854,0.01416,-0.07443178,0.99127
51.646,0.20649,0.17006,0.01038613,-0.003985003,0.99131
54.946,0.21843,0.26984,0.006560161,0.003454678,0.99133
58.246,0.22813,0.32885,0.004050966,-0.001571116,0.99132
61.546,0.23677,0.35583,0.002165221,-0.0005826236,0.99129
64.846,0.24472,0.38182,0.007959389,-0.000594754,0.99124
68.146,0.25219,0.40943,0.006039893,-0.005552508,0.99116
71.446,0.25929,0.45935,0.0008115008,0.002832578,0.99105
74.746,0.26603,0.50724,0.006159456,-0.003001275,0.99092
78.046,0.27262,0.57058,0.004785735,0.002799411,0.99077
81.346,0.27893,0.6326,0.003160309,-0.003004067,0.99059
84.646,0.28507,0.6358,-0.0004050849,0.00357696,0.99038
87.946,0.29104,0.62575,0.0071411,-0.002194589,0.99016
91.246,0.29687,0.65715,0.0005272688,-0.003170085,0.9899
94.546,0.30259,0.6998,-0.0006534675,-0.001219103,0.98963
97.846,0.30822,0.74901,-0.001498875,-0.00167443,0.98932
101.146,0.31378,0.78591,0.00156034,-0.00213333,0.989
104.446,0.31927,0.81779,-0.00704773,-0.004278029,0.98865
107.746,0.32472,0.85003,0.003537078,-0.003799287,0.98827
111.046,0.33013,0.87263,0.001726233,-0.001379524,0.98787
114.346,0.33549,0.90318,-0.00493228,0.0009856735,0.98745
117.646,0.34082,0.92677,-0.0004176941,-0.002888038,0.987
120.946,0.3461,0.95131,-0.007345031,-0.003664123,0.98653
124.246,0.35135,0.96633,-0.0058066,0.001606721,0.98604
127.546,0.35655,0.9812,-0.003953108,-0.000369277,0.98552
130.846,0.36172,1.0008,-0.006059645,-0.007103878,0.98498
134.146,0.36685,1.0263,-0.008095564,-0.005967705,0.98441
137.446,0.37193,1.04053,-0.01414024,0.00347325,0.98382
140.746,0.37701,1.05454,-0.009203838,0.001045645,0.98321
144.046,0.38204,1.06881,-0.01526914,-0.000404346,0.98257
147.346,0.38706,1.08608,-0.007998035,-0.00271663,0.98191
150.646,0.39206,1.09794,-0.01399353,-0.005121003,0.98123
153.946,0.39705,1.10699,-0.008928596,-0.00347611,0.98052
157.246,0.40202,1.10898,-0.01420401,-0.0016146,0.9798
160.546,0.40698,1.11961,-0.01551849,-0.0006283111,0.97904
163.846,0.41194,1.11337,-0.01326429,-0.0009471101,0.97827
167.146,0.41689,1.12114,-0.0159043,-0.0018967,0.97747
170.446,0.42185,1.11931,-0.0063595,-0.003913628,0.97665
173.746,0.42679,1.11941,-0.01759097,-0.005983962,0.97581
177.046,0.43171,1.11925,-0.01632735,0.002203151,0.97494
180.346,0.43665,1.12009,-0.01064314,0.002370652,0.97406
183.646,0.44156,1.13043,-0.02103324,-0.003946765,0.97315
186.946,0.44647,1.12085,-0.01846544,-0.0060856,0.97221
190.246,0.45137,1.1203,-0.02037907,-0.006258695,0.97126
193.546,0.45625,1.11551,-0.02189149,-0.00119298,0.97028
196.846,0.46114,1.11806,-0.01469543,0.00023318,0.96928
200.146,0.46602,1.11551,-0.02032879,-0.007201589,0.96826
203.446,0.47089,1.12462,-0.03274028,-0.007184701,0.96722
206.746,0.47577,1.12988,-0.02412406,-0.004767826,0.96616
210.046,0.48063,1.12589,-0.03081574,-0.00175382,0.96508
213.346,0.48552,1.12033,-0.02536462,-0.00321112,0.96397
216.646,0.4904,1.11683,-0.03056597,-0.00426655,0.96284
219.946,0.49528,1.11561,-0.0273638,-0.002835401,0.9617
223.246,0.50016,1.1018,-0.02650616,-0.00419144,0.96053
226.546,0.50504,1.10628,-0.03252039,-0.0054186,0.95934
229.846,0.50993,1.10965,-0.0294059,-0.00544922,0.95813
233.146,0.51482,1.11023,-0.02701926,-0.005225929,0.9569
236.446,0.51971,1.10127,-0.03937878,-0.01018752,0.95564
239.746,0.5246,1.09793,-0.04211591,-0.01226663,0.95437
243.046,0.52949,1.04975,-0.0429943,-0.01996615,0.95308
246.346,0.53438,0.93031,-0.04939191,-0.03047204,0.95177
249.646,0.53927,1.22787,-0.0560296,-0.04176498,0.95044
252.946,0.54417,1.34242,-0.08077255,-0.05089978,0.94908
256.246,0.54907,1.40909,-0.08897129,-0.05659625,0.94771
259.546,0.55397,1.48837,-0.11235,-0.06148522,0.94632
262.846,0.55887,1.53892,-0.12636,-0.06407313,0.94491
266.146,0.56378,1.59068,-0.15297,-0.06746203,0.94348
269.446,0.56869,1.65915,-0.16422,-0.0741201,0.94203
272.746,0.57361,1.73431,-0.19127,-0.08766036,0.94056
276.046,0.57853,1.82787,-0.21624,-0.10141,0.93907
279.346,0.58346,1.93348,-0.25809,-0.11476,0.93757
282.646,0.58839,2.04864,-0.2782,-0.13762,0.93604
285.946,0.59332,2.20669,-0.33039,-0.16128,0.9345
289.246,0.59826,2.37002,-0.3756,-0.18847,0.93294
292.546,0.6032,2.561,-0.4384,-0.22621,0.93136
295.846,0.60815,2.76831,-0.51243,-0.26692,0.92976
299.146,0.6131,2.99929,-0.59832,-0.30682,0.92814
302.446,0.61806,3.18036,-0.69746,-0.34499,0.92651
305.746,0.62303,3.33453,-0.80364,-0.37881,0.92486
309.046,0.62798,3.47042,-0.92628,-0.40388,0.92319
312.346,0.63296,3.49108,-1.04875,-0.41601,0.9215
315.646,0.63794,3.42223,-1.1724,-0.42357,0.9198
318.946,0.64292,3.36634,-1.30094,-0.42508,0.91807
322.246,0.6479,3.25539,-1.42781,-0.41498,0.91634
325.546,0.65287,3.106,-1.54969,-0.39904,0.91458
328.846,0.65785,2.96095,-1.66548,-0.37233,0.91281
332.146,0.66285,2.74442,-1.77638,-0.3459,0.91102
335.446,0.66784,2.49826,-1.87489,-0.31785,0.90922
338.746,0.67284,2.1739,-1.97057,-0.27695,0.9074
342.046,0.67783,1.79194,-2.03885,-0.23397,0.90556
345.346,0.68284,1.39823,-2.11877,-0.19831,0.90371
348.646,0.68786,0.96121,-2.16184,-0.1599,0.90184
351.946,0.69287,0.59557,-2.20194,-0.11774,0.89995
355.246,0.6979,0.33251,-2.22667,-0.0876906,0.89805
358.546,0.70294,0.1498,-2.25221,-0.07089354,0.89614
361.846,0.70798,0.06853531,-2.27879,-0.05469884,0.89421
365.146,0.71303,0.03370646,-2.28639,-0.03824722,0.89226
368.446,0.7181,0.00317586,-2.29144,-0.03005725,0.8903
371.746,0.72316,-0.00748328,-2.30428,-0.03060519,0.88833
375.046,0.72825,-0.00973391,-2.3151,-0.02852646,0.88634
378.346,0.73335,-0.009604247,-2.32113,-0.02426469,0.88433
381.646,0.73844,-0.003374099,-2.3298,-0.02138348,0.88232
384.946,0.74356,-0.01753556,-2.33521,-0.01768773,0.88028
388.246,0.74868,-0.00925229,-2.33909,-0.02222154,0.87824
391.546,0.75382,-0.03221724,-2.34834,-0.02727138,0.87618
394.846,0.75895,-0.03900251,-2.35482,-0.02976586,0.8741
398.146,0.76409,-0.05176665,-2.37004,-0.029907,0.87201
401.446,0.76924,-0.06664769,-2.37471,-0.03176487,0.86991
404.746,0.77441,-0.10215,-2.38083,-0.03156035,0.8678
408.046,0.77957,-0.12683,-2.39841,-0.03250807,0.86567
411.346,0.78474,-0.15554,-2.40805,-0.03805119,0.86353
414.646,0.7899,-0.18648,-2.42076,-0.04240987,0.86138
417.946,0.79507,-0.21893,-2.43399,-0.04445135,0.85921
421.246,0.80025,-0.25425,-2.44315,-0.04554282,0.85704
424.546,0.80544,-0.27087,-2.45456,-0.0580297,0.85485
427.846,0.81062,-0.26369,-2.48452,-0.07040047,0.85264
431.146,0.81584,-0.23587,-2.50567,-0.07784593,0.85043
434.446,0.82106,-0.20187,-2.52938,-0.09457528,0.8482
437.746,0.82627,-0.14053,-2.56298,-0.11077,0.84597
441.046,0.83149,-0.04729102,-2.59854,-0.1215,0.84372
444.346,0.83672,0.08290142,-2.64061,-0.13597,0.84146
447.646,0.84197,0.217,-2.68529,-0.14867,0.83918
450.946,0.84723,0.35833,-2.73029,-0.16115,0.8369
454.246,0.85249,0.47695,-2.78885,-0.15795,0.83461
457.546,0.85778,0.58782,-2.84064,-0.14937,0.8323
460.846,0.86307,0.57523,-2.87805,-0.15665,0.82999
464.146,0.86834,0.61788,-2.93381,-0.15567,0.82766
467.446,0.87363,0.68649,-2.98025,-0.14037,0.82533
470.746,0.87892,0.66384,-3.02749,-0.14029,0.82298
474.046,0.88419,0.57321,-3.06754,-0.13278,0.82063
477.346,0.88949,0.50769,-3.11219,-0.11351,0.81826
480.646,0.89479,0.45441,-3.13796,-0.10411,0.81588
483.946,0.9001,0.38014,-3.17243,-0.09749457,0.8135
487.246,0.90541,0.28658,-3.21366,-0.08180259,0.81111
490.546,0.91074,0.22188,-3.22532,-0.0695467,0.8087
493.846,0.91607,0.14349,-3.24611,-0.06651964,0.80629
497.146,0.92139,0.07814437,-3.26006,-0.05423256,0.80387
500.446,0.92671,0.01451744,-3.28163,-0.03802916,0.80144
503.746,0.93206,-0.04083481,-3.2964,-0.03102875,0.799
507.046,0.93741,-0.0674571,-3.30814,-0.0373111,0.79655
510.346,0.94276,-0.11345,-3.3249,-0.02598162,0.7941
513.646,0.94813,-0.12768,-3.31695,-0.01782848,0.79163
516.946,0.95349,-0.15575,-3.32755,-0.02204788,0.78916
520.246,0.95888,-0.17048,-3.33631,-0.01073648,0.78668
523.546,0.96426,-0.18613,-3.33341,-0.01319533,0.7842
526.846,0.96965,-0.20736,-3.33642,-0.02020069,0.7817
530.146,0.97504,-0.19775,-3.3488,0.0009883005,0.7792
533.446,0.98046,-0.22403,-3.34265,-0.007988887,0.77669
536.746,0.98586,-0.20393,-3.35137,-0.02211085,0.77417
540.046,0.99126,-0.21324,-3.36023,-0.00194163,0.77165
543.346,0.9967,-0.21318,-3.35025,0.0111854,0.76912
546.646,1.00215,-0.21076,-3.34973,-0.007324853,0.76658
549.946,1.00756,-0.21108,-3.36403,-0.02176451,0.76404
553.246,1.01297,-0.20678,-3.36472,-0.001738271,0.76149
556.546,1.01841,-0.18762,-3.35374,0.000278787,0.75894
559.846,1.02386,-0.19559,-3.36239,-0.01093036,0.75637
563.146,1.0293,-0.21878,-3.37281,-0.008339595,0.75381
566.446,1.03477,-0.20765,-3.36938,0.007042885,0.75123
569.746,1.04026,-0.21448,-3.35749,-0.0004850655,0.74865
573.046,1.04572,-0.22578,-3.37495,-0.005214055,0.74607
576.346,1.0512,-0.22261,-3.36981,0.002116546,0.74348
579.646,1.05668,-0.22411,-3.36514,-1.39736e-05,0.74088
582.946,1.06217,-0.21311,-3.36913,-0.00448853,0.73828
586.246,1.06766,-0.18783,-3.36692,-0.005709247,0.73568
589.546,1.07316,-0.17382,-3.38236,-0.00615264,0.73307
592.846,1.07865,-0.14865,-3.38248,-0.003801955,0.73045
596.146,1.08418,-0.11235,-3.37138,-0.00282241,0.72784
599.446,1.08969,-0.07500238,-3.37608,-0.003245027,0.72521
602.746,1.09521,-0.05595441,-3.37534,-0.00241048,0.72258
606.046,1.10074,-0.03040697,-3.38247,-0.00677897,0.71995
609.346,1.10629,-0.06831778,-3.37822,-0.001767886,0.71732
612.646,1.11185,-0.0594305,-3.37722,-0.00247175,0.71468
615.946,1.11739,-0.04030072,-3.37961,-0.00197306,0.71203
619.246,1.12296,-0.000862055,-3.37962,-0.008095429,0.70939
622.546,1.1285,0.02918153,-3.38356,-0.005324,0.70674
625.846,1.13408,0.07748364,-3.38053,-0.00830131,0.70408
629.146,1.13964,0.09940759,-3.38881,0.00135089,0.70142
632.446,1.14524,0.15732,-3.37235,0.004407976,0.69877
635.746,1.1508,0.18172,-3.37889,-0.004830046,0.6961
639.046,1.15639,0.17439,-3.38624,-0.0073957,0.69344
642.346,1.16198,0.1984,-3.39753,0.001324575,0.69077
645.046,1.16656,0.20655,-3.39053,0.04139305,0.68858

File: PVC_STA_N2_10KData_210605_R2.csv
##Temp./Â°C,Time/min,Mass loss(subtr.2)/mg,DSC(subtr.2)/mW,DTG(subtr.2)/(mg/min),Sensit./(uV/mW)
48.356,0.16683,0.01756,0.0415617,-0.04966694,0.99127
51.656,0.20634,0.01711981,0.29936,-0.0002313873,0.99131
54.956,0.21835,0.01789694,0.42911,0.002333533,0.99133
58.256,0.22806,0.02004178,0.49947,0.001841261,0.99132
61.556,0.23672,0.0200418,0.53626,0.000160186,0.99129
64.856,0.24473,0.02008261,0.56914,0.003214861,0.99124
68.156,0.25222,0.02186522,0.60513,0.001261828,0.99116
71.456,0.25932,0.01947045,0.6549,-0.0008638374,0.99105
74.756,0.2661,0.01989193,0.70107,-0.002389894,0.99092
78.056,0.27267,0.02107062,0.7762,0.00144038,0.99077
81.356,0.279,0.02436025,0.84105,0.00152131,0.99059
84.656,0.28515,0.01891017,0.85303,-0.002254188,0.99038
87.956,0.29113,0.02206816,0.86155,0.000699283,0.99016
91.256,0.29697,0.02023725,0.89213,-0.001480936,0.9899
94.556,0.3027,0.01926599,0.9333,-5.082082e-05,0.98962
97.856,0.30835,0.02628289,0.98287,0.003353078,0.98932
101.156,0.3139,0.02401733,1.03599,0.001279703,0.989
104.456,0.31939,0.02136522,1.06776,-0.001965509,0.98865
107.756,0.32483,0.02150947,1.09237,-0.001191135,0.98827
111.056,0.33023,0.0200932,1.13658,-0.001455745,0.98787
114.356,0.3356,0.01922646,1.16859,0.0006878172,0.98745
117.656,0.34092,0.02181569,1.19366,0.0006342015,0.987
120.956,0.34621,0.02048916,1.22804,0.0001188358,0.98653
124.256,0.35145,0.02183995,1.24489,0.0009549255,0.98604
127.556,0.35666,0.02195008,1.26789,-0.001357926,0.98552
130.856,0.36182,0.02128661,1.29418,-0.00168874,0.98498
134.156,0.36694,0.0200867,1.3134,-5.807205e-05,0.98441
137.456,0.37205,0.02095821,1.33432,0.0005298137,0.98382
140.756,0.37711,0.02052448,1.34934,-0.00297606,0.98321
144.056,0.38214,0.01869025,1.36382,-0.002327287,0.98257
147.356,0.38717,0.01930826,1.3807,0.002371816,0.98191
150.656,0.39216,0.02191455,1.39184,1.114703e-05,0.98123
153.956,0.39715,0.01959303,1.39593,-0.00361803,0.98052
157.256,0.40212,0.01733951,1.41271,-0.0021717,0.97979
160.556,0.40708,0.02091969,1.42758,-0.00297561,0.97904
163.856,0.41203,0.01522081,1.42877,-0.00132657,0.97827
167.156,0.41699,0.01733706,1.4308,-0.00165779,0.97747
170.456,0.42194,0.02076624,1.44336,-0.00321896,0.97665
173.756,0.42689,0.01503976,1.45086,-0.000474953,0.97581
177.056,0.43183,0.01569108,1.44622,3.296366e-05,0.97494
180.356,0.43675,0.01632572,1.44893,-0.003515558,0.97405
183.656,0.44165,0.01246746,1.4441,-0.002973817,0.97314
186.956,0.44654,0.01405003,1.44287,-0.001047905,0.97221
190.256,0.45143,0.01142749,1.44263,-0.00200647,0.97126
193.556,0.4563,0.0141604,1.44027,-0.00580309,0.97028
196.856,0.46118,0.00894396,1.44045,-0.0057184,0.96928
200.156,0.46606,0.009076944,1.43645,0.002334834,0.96826
203.456,0.47093,0.01215725,1.43484,0.002525317,0.96722
206.756,0.47581,0.009771562,1.43585,-0.00345301,0.96616
210.056,0.48069,0.00834,1.43116,-0.005514865,0.96507
213.356,0.48556,0.00701972,1.43036,-0.004508572,0.96397
216.656,0.49044,0.005990766,1.42829,-0.004738426,0.96284
219.956,0.49531,0.004432124,1.41797,-0.004584943,0.96169
223.256,0.50019,0.00308,1.40638,-0.0028202,0.96052
226.556,0.50507,0.002201656,1.39202,-0.003042216,0.95933
229.856,0.50995,0.0008799992,1.39501,-0.003646082,0.95812
233.156,0.51484,0.0002315032,1.38349,-0.005531526,0.95689
236.456,0.51972,-0.0010969,1.37767,-0.008219985,0.95564
239.756,0.52461,-0.002279437,1.37128,-0.00891022,0.95437
243.056,0.5295,-0.008113415,1.31768,-0.01531043,0.95308
246.356,0.53438,-0.01073741,1.17094,-0.02846327,0.95176
249.656,0.53926,-0.02299528,1.44927,-0.0430111,0.95043
252.956,0.54416,-0.03945848,1.56087,-0.04937299,0.94908
256.256,0.54906,-0.05190358,1.63136,-0.05458043,0.94771
259.556,0.55397,-0.07139806,1.70016,-0.05951558,0.94632
262.856,0.55886,-0.08573839,1.75295,-0.06276765,0.9449
266.156,0.56378,-0.10658,1.82977,-0.07238359,0.94347
269.456,0.56869,-0.13185,1.89456,-0.08245186,0.94202
272.756,0.57361,-0.15641,1.98746,-0.09162328,0.94056
276.056,0.57853,-0.18322,2.07317,-0.1063,0.93907
279.356,0.58346,-0.22024,2.18287,-0.11863,0.93756
282.656,0.58838,-0.25049,2.30415,-0.13802,0.93604
285.956,0.59331,-0.29798,2.44461,-0.16798,0.93449
289.256,0.59826,-0.35276,2.62432,-0.19769,0.93293
292.556,0.6032,-0.41558,2.81022,-0.23092,0.93135
295.856,0.60815,-0.48772,3.0038,-0.26959,0.92975
299.156,0.61312,-0.57155,3.19654,-0.30971,0.92814
302.456,0.61808,-0.67524,3.39572,-0.35036,0.9265
305.756,0.62305,-0.78415,3.5321,-0.38923,0.92485
309.056,0.62802,-0.90786,3.63505,-0.4164,0.92318
312.356,0.63299,-1.03357,3.76932,-0.43147,0.92149
315.656,0.63796,-1.16294,3.74886,-0.43992,0.91979
318.956,0.64293,-1.29819,3.66969,-0.43863,0.91807
322.256,0.64791,-1.42914,3.55199,-0.4259,0.91633
325.556,0.65289,-1.55513,3.39011,-0.40275,0.91458
328.856,0.65787,-1.67089,3.18308,-0.37889,0.9128
332.156,0.66286,-1.76934,2.94952,-0.35313,0.91102
335.456,0.66785,-1.88125,2.69571,-0.31725,0.90921
338.756,0.67286,-1.97156,2.35799,-0.2777,0.90739
342.056,0.67787,-2.05005,1.93841,-0.23649,0.90555
345.356,0.68288,-2.11513,1.47987,-0.19407,0.9037
348.656,0.68788,-2.16642,1.03177,-0.15075,0.90183
351.956,0.69289,-2.20627,0.66517,-0.11083,0.89995
355.256,0.69791,-2.23152,0.40737,-0.08059647,0.89805
358.556,0.70295,-2.25158,0.27035,-0.05962286,0.89613
361.856,0.70802,-2.26512,0.21083,-0.04398965,0.8942
365.156,0.71309,-2.27767,0.20624,-0.0344372,0.89226
368.456,0.71818,-2.28537,0.20415,-0.02984673,0.8903
371.756,0.72326,-2.29599,0.19504,-0.02534129,0.88832
375.056,0.72835,-2.30176,0.19306,-0.02408013,0.88633
378.356,0.73344,-2.30979,0.17581,-0.02422043,0.88433
381.656,0.73855,-2.31735,0.17701,-0.02164995,0.88231
384.956,0.74366,-2.32402,0.1639,-0.0196119,0.88028
388.256,0.74878,-2.33037,0.16177,-0.02061769,0.87823
391.556,0.75391,-2.33564,0.14438,-0.02262516,0.87617
394.856,0.75904,-2.34067,0.11561,-0.02322715,0.8741
398.156,0.76419,-2.34879,0.0913476,-0.02945693,0.87201
401.456,0.76933,-2.36132,0.06753026,-0.03243801,0.86991
404.756,0.77448,-2.37064,0.04274199,-0.02918977,0.86779
408.056,0.77963,-2.37809,0.00462617,-0.03451504,0.86567
411.356,0.78479,-2.39209,-0.01732388,-0.03507343,0.86353
414.656,0.78997,-2.40185,-0.0544895,-0.03936282,0.86137
417.956,0.79515,-2.41596,-0.07950057,-0.04541847,0.85921
421.256,0.80034,-2.42758,-0.10595,-0.0470597,0.85703
424.556,0.80555,-2.44504,-0.12001,-0.05607833,0.85484
427.856,0.81076,-2.4635,-0.13232,-0.06737607,0.85264
431.156,0.81596,-2.48514,-0.11136,-0.08103876,0.85042
434.456,0.82118,-2.51192,-0.07636229,-0.09347586,0.8482
437.756,0.8264,-2.54714,-0.01063354,-0.10611,0.84596
441.056,0.83164,-2.57713,0.09831504,-0.12262,0.84371
444.356,0.83688,-2.62117,0.21636,-0.13895,0.84145
447.656,0.84212,-2.66862,0.35171,-0.15073,0.83918
450.956,0.84736,-2.7181,0.50166,-0.15519,0.83689
454.256,0.85261,-2.76518,0.62512,-0.1558,0.8346
457.556,0.85786,-2.81444,0.73024,-0.15866,0.8323
460.856,0.86312,-2.86934,0.733,-0.16051,0.82998
464.156,0.86839,-2.91846,0.8317,-0.1552,0.82766
467.456,0.87369,-2.96473,0.87219,-0.14592,0.82532
470.756,0.87898,-3.0125,0.8354,-0.1395,0.82297
474.056,0.88428,-3.0525,0.75031,-0.12892,0.82062
477.356,0.88958,-3.09529,0.68512,-0.11798,0.81825
480.656,0.8949,-3.13039,0.63729,-0.10535,0.81588
483.956,0.90022,-3.15969,0.58018,-0.09513424,0.81349
487.256,0.90554,-3.19158,0.50593,-0.08638825,0.8111
490.556,0.91086,-3.21519,0.43957,-0.07306366,0.80869
493.856,0.91618,-3.23921,0.38498,-0.0621487,0.80628
497.156,0.92152,-3.25375,0.34501,-0.05480127,0.80386
500.456,0.92686,-3.27214,0.26643,-0.04857267,0.80143
503.756,0.93222,-3.28481,0.22845,-0.04054524,0.79899
507.056,0.93757,-3.29999,0.18617,-0.03064151,0.79655
510.356,0.94293,-3.30432,0.15359,-0.02457061,0.79409
513.656,0.9483,-3.3139,0.13644,-0.02114569,0.79163
516.956,0.95369,-3.31936,0.13427,-0.0174326,0.78915
520.256,0.95905,-3.32356,0.12631,-0.01644375,0.78668
523.556,0.96442,-3.33072,0.11449,-0.01507857,0.78419
526.856,0.9698,-3.33468,0.09955886,-0.01120923,0.78169
530.156,0.97519,-3.33719,0.08660185,-0.01048677,0.77919
533.456,0.98059,-3.33984,0.07917156,-0.01019996,0.77668
536.756,0.986,-3.3429,0.06503906,-0.008736981,0.77417
540.056,0.99142,-3.34663,0.04478639,-0.00738186,0.77164
543.356,0.99684,-3.35068,0.04671984,-0.004594926,0.76911
546.656,1.00225,-3.3487,0.03647508,-0.004061137,0.76658
549.956,1.00768,-3.35265,0.0507265,-0.005765576,0.76403
553.256,1.01311,-3.35474,0.02970803,-0.005777809,0.76148
556.556,1.01855,-3.3541,0.02660814,-0.001965992,0.75893
559.856,1.02399,-3.35386,0.02716259,-0.003991128,0.75637
563.156,1.02944,-3.3588,0.01801611,-0.004805414,0.7538
566.456,1.0349,-3.35645,0.01753855,-0.004986955,0.75123
569.756,1.04035,-3.36012,0.01285859,-0.004590407,0.74865
573.056,1.04582,-3.36143,-0.0105729,-0.002147616,0.74606
576.356,1.05128,-3.36208,-0.01494551,-0.001570727,0.74347
579.656,1.05676,-3.36045,-0.03117368,-0.003243672,0.74088
582.956,1.06224,-3.36576,-0.02192868,-0.003037963,0.73828
586.256,1.06774,-3.36441,-0.03064636,-0.000902205,0.73567
589.556,1.07325,-3.36461,-0.03086171,-0.00171886,0.73306
592.856,1.07875,-3.36369,-0.01232566,-0.003062589,0.73045
596.156,1.08425,-3.36668,0.003016408,-0.004474508,0.72783
599.456,1.08976,-3.36942,0.03149081,-0.00392576,0.7252
602.756,1.09528,-3.3679,0.07611924,-0.002755154,0.72258
606.056,1.10081,-3.37053,0.06932325,-0.004662988,0.71994
609.356,1.10633,-3.37316,0.06304987,-0.003648045,0.71731
612.656,1.11187,-3.37185,0.04158025,-0.002954937,0.71467
615.956,1.1174,-3.37383,0.04710204,-0.00292557,0.71202
619.256,1.12294,-3.37355,0.07980701,-0.002616397,0.70938
622.556,1.1285,-3.37514,0.13063,-0.003018368,0.70673
625.856,1.13406,-3.37968,0.15487,-0.0004991755,0.70407
629.156,1.13962,-3.37413,0.19275,0.0002673613,0.70142
632.456,1.14519,-3.3769,0.21697,-0.006423356,0.69876
635.756,1.15075,-3.3838,0.24144,-0.002450594,0.69609
639.056,1.15635,-3.37295,0.30832,0.000735264,0.69343
642.356,1.16194,-3.37768,0.3331,-0.00331758,0.69076
645.056,1.16651,-3.38115,0.35331,0.01241525,0.68858