Folder: fsri_materials_database/01_Data/PVC/STA/N2/30K_min (part 2)

File: PVC_STA_N2_30KData_210810_R3.csv
##Temp./Â°C,Time/min,Mass loss(subtr.2)/mg,DSC(subtr.2)/mW,DTG(subtr.2)/(mg/min),Sensit./(uV/mW)
49.379,10.01,0.00669,-0.01230537,-0.07641981,1.05401
52.479,11.63218,0.007107963,0.34756,-0.004644045,1.05406
55.579,12.01153,0.0070909,0.61559,-0.001999287,1.05406
58.679,12.2935,0.008224258,0.8206,0.00677822,1.05401
61.779,12.5326,0.00762439,1.01797,0.0003404018,1.05392
64.879,12.748,0.009176798,1.13758,0.003103363,1.05378
67.979,12.9482,0.00753937,1.11928,0.001273929,1.05359
71.079,13.1369,0.007164335,1.19899,0.006934012,1.05336
74.179,13.31724,0.00929696,1.3077,-0.006026025,1.05309
77.279,13.49053,0.00917427,1.42771,0.002061435,1.05276
80.379,13.6571,0.008797243,1.59446,0.00125434,1.0524
83.479,13.81754,0.00860862,1.72348,0.0005153514,1.05199
86.579,13.9716,0.008317846,1.80876,0.000167207,1.05153
89.679,14.1201,0.009656534,1.8743,-0.001594396,1.05103
92.779,14.263,0.006735494,1.96433,0.00589363,1.05049
95.879,14.402,0.01133124,2.07635,0.002167784,1.0499
98.979,14.5379,0.0101646,2.21207,-0.005129955,1.04927
102.079,14.6695,0.009348293,2.3466,-0.0005758188,1.0486
105.179,14.7976,0.01004445,2.50116,0.0027388,1.04788
108.279,14.9232,0.009041805,2.62724,0.003631879,1.04713
111.379,15.0454,0.01015078,2.75287,-0.0001106087,1.04633
114.479,15.1661,0.009895702,2.87614,-0.0007794261,1.04549
117.579,15.28462,0.009024673,2.99436,-0.003000978,1.04461
120.679,15.40182,0.007597775,3.10426,-0.00502658,1.04369
123.779,15.5164,0.008760385,3.1948,0.0037538,1.04273
126.879,15.62919,0.009914763,3.30003,0.001607484,1.04173
129.979,15.74,0.00954991,3.40017,-0.002125732,1.04069
133.079,15.84953,0.007974455,3.50026,0.00472104,1.03961
136.179,15.95735,0.01042357,3.57375,0.003439453,1.0385
139.279,16.0639,0.009550824,3.65876,-0.000843982,1.03734
142.379,16.1693,0.01100096,3.74923,-0.001890397,1.03615
145.479,16.2731,0.00975663,3.82665,-0.004596581,1.03492
148.579,16.3762,0.008343257,3.89424,-0.00354556,1.03365
151.679,16.47786,0.009437105,3.96615,-8.285657e-05,1.03235
154.779,16.57872,0.009629426,4.03281,-0.0004164428,1.03101
157.879,16.67853,0.009663648,4.09734,-0.003564366,1.02963
160.979,16.77746,0.008231179,4.16773,0.00131291,1.02822
164.079,16.87588,0.009087862,4.21673,0.000392616,1.02677
167.179,16.97342,0.008384795,4.28058,-0.0016687,1.02529
170.279,17.07019,0.008339243,4.32917,-0.004741564,1.02378
173.379,17.16631,0.00705933,4.37347,-0.007263751,1.02223
176.479,17.26137,0.006798704,4.43246,-0.0001355709,1.02065
179.579,17.3562,0.00738467,4.45779,0.005643604,1.01903
182.679,17.45,0.00823,4.50317,8.559263e-05,1.01738
185.779,17.5431,0.007257624,4.53572,-0.005118811,1.01571
188.879,17.6355,0.007732935,4.55793,-0.0057815,1.014
191.979,17.72746,0.006683227,4.60847,-0.0109943,1.01225
195.079,17.81868,0.004381719,4.62124,-0.00700334,1.01048
198.179,17.9097,0.005039862,4.6652,0.003615798,1.00868
201.279,17.99994,0.00635981,4.69354,0.00343992,1.00685
204.379,18.08994,0.005710001,4.74839,8.392314e-05,1.00499
207.479,18.1794,0.005709402,4.78235,-0.001194051,1.0031
210.579,18.2685,0.005058051,4.82162,-0.002333041,1.00118
213.679,18.357,0.005024843,4.85744,0.0005857418,0.99923
216.779,18.44596,0.00571001,4.8996,0.000318858,0.99726
219.879,18.53462,0.00571003,4.92528,-0.004201444,0.99526
222.979,18.62245,0.004383807,4.97085,-0.004738653,0.99323
226.079,18.7103,0.004387531,5.00556,-0.00529429,0.99118
229.179,18.79769,0.00431417,5.01438,-0.01388797,0.9891
232.279,18.8848,0.00164965,5.04129,-0.009962228,0.987
235.379,18.97171,0.001660403,5.07041,-0.001401135,0.98487
238.479,19.05837,0.001766926,5.07679,-0.00497372,0.98271
241.579,19.14479,0.001626329,5.10909,-0.00750932,0.98054
244.679,19.23094,0.0003299197,5.12564,-0.002994396,0.97834
247.779,19.31699,0.00164698,5.14862,-0.002657526,0.97612
250.879,19.40269,0.00033114,5.16524,-0.00776015,0.97387
253.979,19.4885,-0.000329619,5.18634,-0.01374702,0.9716
257.079,19.57395,-0.002272502,5.18079,-0.02249022,0.96931
260.179,19.6594,-0.004890342,5.08957,-0.03079864,0.96701
263.279,19.74444,-0.007798714,4.80282,-0.03784936,0.96468
266.379,19.82953,-0.009605933,5.00785,-0.05770974,0.96233
269.479,19.91447,-0.01505697,5.30032,-0.09663237,0.95996
272.579,19.99912,-0.02610486,5.57957,-0.13516,0.95757
275.679,20.08367,-0.0393753,5.84659,-0.16371,0.95516
278.779,20.1684,-0.05471336,6.1191,-0.18498,0.95273
281.879,20.25299,-0.07104066,6.40649,-0.2088,0.95029
284.979,20.33746,-0.08813104,6.732,-0.23963,0.94783
288.079,20.42183,-0.11285,7.05543,-0.26576,0.94535
291.179,20.50655,-0.13532,7.37439,-0.28657,0.94286
294.279,20.59121,-0.159,7.6768,-0.32044,0.94035
297.379,20.67582,-0.18743,7.99189,-0.36549,0.93783
300.479,20.76032,-0.22118,8.34029,-0.41017,0.93529
303.579,20.84515,-0.25731,8.7073,-0.46505,0.93273
306.679,20.9299,-0.30079,9.1105,-0.53217,0.93016
309.779,21.01444,-0.34883,9.55854,-0.59808,0.92758
312.879,21.09899,-0.39955,10.0283,-0.67462,0.92499
315.979,21.18362,-0.45868,10.5363,-0.76972,0.92238
319.079,21.26838,-0.53012,11.04728,-0.8693,0.91976
322.179,21.353,-0.60717,11.572,-0.9653,0.91713
325.279,21.43764,-0.69232,12.06136,-1.06198,0.91448
328.379,21.5225,-0.78774,12.44758,-1.1575,0.91183
331.479,21.60708,-0.89128,12.77246,-1.2373,0.90916
334.579,21.69179,-0.9999,12.96235,-1.28938,0.90649
337.679,21.77662,-1.10944,13.06377,-1.32603,0.90381
340.779,21.8614,-1.22285,13.00538,-1.35553,0.90111
343.879,21.94625,-1.3415,12.82433,-1.35427,0.89841
346.979,22.03107,-1.45258,12.4624,-1.33114,0.8957
350.079,22.11619,-1.56804,11.97069,-1.28955,0.89298
353.179,22.20102,-1.67591,11.3529,-1.22146,0.89026
356.279,22.28602,-1.77809,10.66735,-1.13449,0.88753
359.379,22.37109,-1.87068,9.77966,-1.03492,0.88479
362.479,22.4563,-1.95388,8.7277,-0.92342,0.88204
365.579,22.5414,-2.02755,7.53524,-0.79816,0.87929
368.679,22.6268,-2.08991,6.18716,-0.65096,0.87654
371.779,22.71207,-2.13784,4.85794,-0.5029,0.87377
374.879,22.79743,-2.17579,3.72287,-0.37651,0.87101
377.979,22.8831,-2.2021,2.88161,-0.27261,0.86824
381.079,22.969,-2.22104,2.34328,-0.19634,0.86547
384.179,23.05472,-2.23348,2.10946,-0.14772,0.86269
387.279,23.14086,-2.24582,2.03133,-0.12205,0.85991
390.379,23.227,-2.25414,2.04375,-0.10995,0.85713
393.479,23.3134,-2.26292,2.06274,-0.10065,0.85435
396.579,23.39978,-2.27158,2.08398,-0.08787069,0.85156
399.679,23.4866,-2.27843,2.09627,-0.08074152,0.84878
402.779,23.57366,-2.28568,2.08966,-0.07853229,0.84599
405.879,23.66074,-2.29216,2.09752,-0.07655351,0.8432
408.979,23.748,-2.2986,2.08077,-0.07753855,0.84041
412.079,23.83534,-2.30566,2.06794,-0.09009738,0.83762
415.179,23.9229,-2.31383,2.03987,-0.09705935,0.83484
418.279,24.01067,-2.32332,2.00858,-0.09645554,0.83205
421.379,24.09843,-2.3305,1.95696,-0.10379,0.82927
424.479,24.18649,-2.34149,1.91786,-0.12127,0.82648
427.579,24.27386,-2.35192,1.83864,-0.13783,0.8237
430.679,24.36293,-2.36663,1.78385,-0.14421,0.82092
433.779,24.4518,-2.37862,1.71774,-0.14484,0.81815
436.879,24.54032,-2.3912,1.6662,-0.1514,0.81537
439.979,24.62942,-2.40476,1.59672,-0.15996,0.8126
443.079,24.7184,-2.4185,1.56777,-0.17993,0.80984
446.179,24.8075,-2.43685,1.56747,-0.20902,0.80708
449.279,24.8969,-2.45716,1.59725,-0.22781,0.80432
452.379,24.98623,-2.47831,1.6999,-0.26269,0.80156
455.479,25.07591,-2.50855,1.85973,-0.31856,0.79882
458.579,25.1659,-2.53195,2.07677,-0.34099,0.79607
461.679,25.25585,-2.56598,2.35691,-0.3649,0.79334
464.779,25.34611,-2.60052,2.69633,-0.38968,0.79061
467.879,25.43652,-2.63444,3.04073,-0.41523,0.78788
470.979,25.52735,-2.67573,3.39221,-0.43889,0.78516
474.079,25.6183,-2.71743,3.72711,-0.44629,0.78245
477.179,25.70935,-2.75762,3.94062,-0.43854,0.77975
480.279,25.80057,-2.79367,4.19939,-0.43757,0.77705
483.379,25.8921,-2.83807,4.37402,-0.43628,0.77436
486.479,25.9837,-2.87611,4.45995,-0.4233,0.77168
489.579,26.0756,-2.91264,4.43242,-0.42719,0.769
492.679,26.16757,-2.96334,4.38281,-0.41821,0.76634
495.779,26.2596,-2.98967,4.33538,-0.37326,0.76368
498.879,26.35162,-3.02511,4.23485,-0.34707,0.76103
501.979,26.44425,-3.0554,4.14041,-0.32951,0.7584
505.079,26.53687,-3.08456,3.98263,-0.30382,0.75577
508.179,26.6296,-3.11255,3.83578,-0.27944,0.75315
511.279,26.72255,-3.13736,3.67677,-0.25161,0.75054
514.379,26.81567,-3.15992,3.5224,-0.22222,0.74794
517.479,26.90888,-3.17794,3.37442,-0.19858,0.74535
520.579,27.00217,-3.19614,3.19885,-0.16363,0.74277
523.679,27.09563,-3.2072,3.04678,-0.13043,0.7402
526.779,27.1892,-3.22018,2.90637,-0.11243,0.73765
529.879,27.28303,-3.22676,2.79193,-0.11565,0.7351
532.979,27.37674,-3.24748,2.70515,-0.11132,0.73257
536.079,27.4707,-3.25064,2.61716,-0.07135952,0.73005
539.179,27.56506,-3.25663,2.56923,-0.0554586,0.72754
542.279,27.65922,-3.25969,2.52611,-0.05501186,0.72504
545.379,27.7537,-3.26668,2.49316,-0.05019448,0.72255
548.479,27.8481,-3.26983,2.44637,-0.04213798,0.72008
551.579,27.94288,-3.27417,2.44403,-0.03694241,0.71761
554.679,28.0376,-3.27687,2.45035,-0.02593566,0.71517
557.779,28.13243,-3.27917,2.45931,-0.020869,0.71273
560.879,28.22744,-3.28043,2.47964,-0.02200089,0.71031
563.979,28.3226,-3.28355,2.48397,-0.01956237,0.7079
567.079,28.41777,-3.2838,2.50996,-0.02072177,0.7055
570.179,28.51312,-3.28655,2.52713,-0.02270128,0.70312
573.279,28.6086,-3.28902,2.54601,-0.01258062,0.70075
576.379,28.70412,-3.28904,2.55599,-0.01038681,0.69839
579.479,28.79986,-3.2919,2.59334,-0.01456408,0.69605
582.579,28.8957,-3.2922,2.64092,-0.01423369,0.69372
585.679,28.9916,-3.29311,2.68781,-0.01379765,0.6914
588.779,29.08747,-3.29444,2.74558,-0.01168945,0.6891
591.879,29.1836,-3.29539,2.80013,-0.002156456,0.68682
594.979,29.28005,-3.29442,2.85883,-0.007207224,0.68455
598.079,29.3765,-3.29743,2.9386,-0.01758499,0.68229
601.179,29.4729,-3.29837,3.0407,-0.013692,0.68004
604.279,29.5695,-3.30112,3.13367,-0.000635368,0.67782
607.379,29.66645,-3.29875,3.18434,-0.002808094,0.6756
610.479,29.7631,-3.30334,3.18835,-0.03232849,0.6734
613.579,29.86014,-3.30451,2.98341,-0.01710821,0.67122
616.679,29.9575,-3.3045,2.76193,0.01997594,0.66905
617.979,29.9983,-3.30317,2.71616,0.05262662,0.66815