Folder: fsri_materials_database/01_Data/PVC/STA/N2/30K_min

Note: 01_Data/README.md
# Materials and Products Database
## 01_Data

Raw data generated from each apparatus are included here in plain-text format. The data is organized first by material, next by the short name of test apparatus used, and where applicable additional filtering by test settings.

### material.json

Each material directory contains a json file of the same name as the material. This file links the data stored in the repository as well as data and graphs produced by the accompanying scripts (__02_Scripts__) to the respective landing page for the material on the front-end website.

File: PVC_STA_N2_30KData_210710_R1.csv
##Temp./Â°C,Time/min,Mass loss(subtr.2)/mg,DSC(subtr.2)/mW,DTG(subtr.2)/(mg/min),Sensit./(uV/mW)
49.367,10.01,-0.00679,-0.03981153,-0.01265136,1.05401
52.467,11.63359,-0.008023185,0.1667,-0.006311427,1.05406
55.567,12.01348,-0.008475678,0.27843,0.002688126,1.05406
58.667,12.2944,-0.007023141,0.37555,-0.002329569,1.05401
61.767,12.534,-0.00904621,0.4822,0.001856689,1.05392
64.867,12.74875,-0.006930915,0.53609,0.000702214,1.05378
67.967,12.94903,-0.00863177,0.45028,-0.002940535,1.05359
71.067,13.1383,-0.00765757,0.47332,-0.004230286,1.05336
74.167,13.3187,-0.008288631,0.53321,0.000718974,1.05309
77.267,13.49205,-0.008622301,0.60777,-0.003398417,1.05276
80.367,13.65826,-0.00788829,0.71848,0.004813215,1.0524
83.467,13.81851,-0.009110982,0.83663,-0.00213859,1.05199
86.567,13.97303,-0.00769988,0.86582,0.002286805,1.05153
89.667,14.1217,-0.007760953,0.85553,-0.001322645,1.05103
92.767,14.2653,-0.009473747,0.8727,-0.000859828,1.05049
95.867,14.40431,-0.007599039,0.93086,0.003019323,1.0499
98.967,14.53926,-0.0061297,0.99492,-0.001993477,1.04927
102.067,14.67107,-0.007874699,1.07346,-0.0005837417,1.0486
105.167,14.7994,-0.00752116,1.15086,0.000307349,1.04789
108.267,14.92503,-0.0075315,1.22502,0.000893449,1.04713
111.367,15.0478,-0.006592194,1.28917,0.0002958304,1.04633
114.467,15.16845,-0.007560533,1.35218,-0.00638619,1.04549
117.567,15.2871,-0.00875186,1.42262,-0.005155437,1.04462
120.667,15.40325,-0.01052535,1.46467,-0.00780633,1.04369
123.767,15.5182,-0.01043785,1.51152,0.000300684,1.04273
126.867,15.63066,-0.00926956,1.55514,0.004031194,1.04173
129.967,15.74136,-0.008929507,1.5989,0.003600617,1.0407
133.067,15.8512,-0.008253623,1.62114,0.0006070053,1.03962
136.167,15.95921,-0.009619725,1.67624,-0.002235346,1.0385
139.267,16.06579,-0.009064169,1.69261,0.0005061769,1.03734
142.367,16.1708,-0.00877239,1.72958,-0.002990649,1.03615
145.467,16.27467,-0.009711,1.77808,-0.005055662,1.03492
148.567,16.37744,-0.01009009,1.80238,-0.003667198,1.03365
151.667,16.47934,-0.01013134,1.82718,-0.00304326,1.03235
154.767,16.57988,-0.01139987,1.83958,-0.00213102,1.03101
157.867,16.67999,-0.01140001,1.85393,-0.002147337,1.02963
160.967,16.7791,-0.01141002,1.87588,-0.0003032331,1.02822
164.067,16.8774,-0.01132638,1.90346,-0.0007282455,1.02678
167.167,16.97508,-0.01224841,1.93438,-0.002949752,1.0253
170.267,17.07179,-0.01137125,1.95959,-0.00545198,1.02378
173.367,17.1678,-0.01263825,1.9683,-0.005218027,1.02223
176.467,17.2633,-0.01254564,1.96338,-0.00178334,1.02065
179.567,17.35775,-0.01261099,1.9684,0.004162092,1.01904
182.667,17.4516,-0.01195739,1.97088,-4.316487e-05,1.01739
185.767,17.5447,-0.01298889,1.97173,-0.0109728,1.01571
188.867,17.63731,-0.01425992,1.95464,-0.0118076,1.014
191.967,17.72907,-0.01557543,1.94791,-0.001822384,1.01226
195.067,17.8203,-0.01393034,1.92486,0.002783628,1.01049
198.167,17.91124,-0.0150023,1.92008,0.000280384,1.00869
201.267,18.00149,-0.01393733,1.9107,-8.96043e-05,1.00686
204.367,18.0915,-0.01398627,1.91497,-0.00806174,1.00499
207.467,18.18111,-0.01524948,1.92424,-0.01320822,1.00311
210.567,18.27025,-0.017874,1.92342,-0.00483066,1.00119
213.667,18.35913,-0.01655,1.92825,-0.000355317,0.99924
216.767,18.4476,-0.01654669,1.92811,-0.00475045,0.99727
219.867,18.53565,-0.01787021,1.94035,-0.004819992,0.99527
222.967,18.6237,-0.01693377,1.93136,-0.00399958,0.99324
226.067,18.71134,-0.0182,1.93323,-0.00493766,0.99119
229.167,18.7987,-0.01954409,1.92456,-0.00208654,0.98911
232.267,18.8859,-0.0181996,1.90699,-0.001503582,0.987
235.367,18.97267,-0.01831657,1.8987,-0.009855145,0.98488
238.467,19.0593,-0.02044841,1.8861,-0.01444051,0.98272
241.567,19.14574,-0.02215841,1.88172,-0.007738568,0.98055
244.667,19.23188,-0.02108752,1.86786,-0.00120925,0.97835
247.767,19.31792,-0.02116958,1.85146,-0.007873224,0.97612
250.867,19.40369,-0.02248675,1.85488,-0.01757238,0.97388
253.967,19.48925,-0.02511006,1.8365,-0.01943545,0.97161
257.067,19.5748,-0.02640575,1.80441,-0.01868531,0.96932
260.167,19.66,-0.02796,1.67419,-0.02116587,0.96701
263.267,19.7452,-0.02918913,1.41817,-0.03299412,0.96468
266.367,19.8302,-0.03225996,1.59178,-0.06453912,0.96233
269.467,19.91471,-0.04090484,1.86911,-0.10595,0.95997
272.567,19.9998,-0.05030385,2.12678,-0.13678,0.95758
275.667,20.08448,-0.0632967,2.35221,-0.16119,0.95517
278.767,20.16907,-0.07857792,2.58681,-0.18365,0.95274
281.867,20.25362,-0.09538722,2.8354,-0.20719,0.9503
284.967,20.33835,-0.11169,3.10106,-0.23782,0.94784
288.067,20.42289,-0.1359,3.36688,-0.25991,0.94536
291.167,20.5075,-0.15722,3.6532,-0.28061,0.94287
294.267,20.5921,-0.18111,3.92982,-0.31587,0.94036
297.367,20.67667,-0.21034,4.21596,-0.35869,0.93783
300.467,20.76134,-0.24241,4.53787,-0.4031,0.9353
303.567,20.84582,-0.27765,4.89035,-0.45579,0.93274
306.667,20.9302,-0.31887,5.26466,-0.5191,0.93017
309.767,21.0148,-0.36548,5.68207,-0.59017,0.92759
312.867,21.09921,-0.41714,6.1446,-0.6748,0.925
315.967,21.18368,-0.47899,6.62801,-0.76745,0.92239
319.067,21.26819,-0.54855,7.13289,-0.86295,0.91977
322.167,21.35277,-0.62556,7.64495,-0.95912,0.91714
325.267,21.43731,-0.7093,8.1254,-1.05712,0.91449
328.367,21.52201,-0.80383,8.51765,-1.15141,0.91184
331.467,21.60664,-0.90436,8.71126,-1.22704,0.90917
334.567,21.69128,-1.01173,8.84042,-1.28043,0.9065
337.667,21.77585,-1.12069,8.89712,-1.32296,0.90382
340.767,21.8607,-1.23828,8.86103,-1.35393,0.90112
343.867,21.94549,-1.35499,8.70173,-1.35123,0.89842
346.967,22.03051,-1.4698,8.40541,-1.32221,0.89571
350.067,22.1155,-1.58076,8.019,-1.27774,0.89299
353.167,22.20052,-1.68553,7.47075,-1.21876,0.89027
356.267,22.2855,-1.78676,6.79265,-1.1389,0.88754
359.367,22.37055,-1.87868,5.98021,-1.04464,0.8848
362.467,22.45583,-1.96608,5.00072,-0.93337,0.88205
365.567,22.5413,-2.04143,3.87909,-0.80018,0.8793
368.667,22.62673,-2.10444,2.53355,-0.65752,0.87655
371.767,22.71221,-2.15432,1.20658,-0.50753,0.87379
374.867,22.7977,-2.19069,0.06725678,-0.37243,0.87102
377.967,22.88339,-2.21529,-0.76088,-0.27075,0.86825
381.067,22.9691,-2.23501,-1.28441,-0.19832,0.86548
384.167,23.05501,-2.24903,-1.5335,-0.14999,0.8627
387.267,23.14122,-2.25953,-1.60433,-0.12329,0.85992
390.367,23.22745,-2.26821,-1.60682,-0.10767,0.85714
393.467,23.31397,-2.27825,-1.58868,-0.09134023,0.85436
396.567,23.40053,-2.28461,-1.57432,-0.08278437,0.85157
399.667,23.4875,-2.29062,-1.58209,-0.08716164,0.84879
402.767,23.57425,-2.30031,-1.59034,-0.09075252,0.846
405.867,23.66159,-2.30716,-1.60372,-0.08709485,0.84321
408.967,23.7488,-2.31534,-1.60733,-0.08400174,0.84042
412.067,23.8363,-2.32213,-1.63107,-0.08733248,0.83764
415.167,23.92377,-2.33088,-1.67503,-0.09387726,0.83485
418.267,24.01139,-2.3392,-1.71327,-0.09489102,0.83206
421.367,24.09938,-2.34709,-1.76952,-0.10419,0.82928
424.467,24.1874,-2.35718,-1.82585,-0.11502,0.82649
427.567,24.27555,-2.36785,-1.88717,-0.1215,0.82371
430.667,24.36394,-2.37805,-1.9738,-0.1338,0.82093
433.767,24.4525,-2.39118,-2.03974,-0.14482,0.81816
436.867,24.54114,-2.4029,-2.12242,-0.1531,0.81538
439.967,24.63,-2.41748,-2.17818,-0.16867,0.81261
443.067,24.7191,-2.43251,-2.23643,-0.19146,0.80985
446.167,24.8081,-2.45258,-2.25595,-0.21222,0.80709
449.267,24.89728,-2.47089,-2.21839,-0.23526,0.80433
452.367,24.98677,-2.49497,-2.12646,-0.26624,0.80157
455.467,25.0765,-2.5183,-1.97227,-0.30578,0.79883
458.567,25.16631,-2.5484,-1.76076,-0.34362,0.79608
461.667,25.25635,-2.58044,-1.48361,-0.37668,0.79335
464.767,25.34652,-2.61603,-1.17467,-0.39075,0.79062
467.867,25.43713,-2.64755,-0.83712,-0.40133,0.78789
470.967,25.5277,-2.69113,-0.50649,-0.43682,0.78517
474.067,25.61846,-2.7308,-0.2314,-0.44366,0.78246
477.167,25.70955,-2.77211,-0.04885057,-0.44095,0.77976
480.267,25.8008,-2.81168,0.22725,-0.44855,0.77706
483.367,25.8921,-2.85103,0.37393,-0.44878,0.77437
486.467,25.98358,-2.90122,0.37668,-0.41423,0.77169
489.567,26.07541,-2.92972,0.2079,-0.40418,0.76901
492.667,26.16724,-2.96718,0.0969481,-0.40355,0.76635
495.767,26.2594,-3.00316,-0.02121495,-0.38214,0.76369
498.867,26.35169,-3.03884,-0.12404,-0.35674,0.76104
501.967,26.44414,-3.06952,-0.23536,-0.32746,0.75841
505.067,26.53665,-3.09861,-0.42321,-0.29776,0.75578
508.167,26.6293,-3.12564,-0.63531,-0.26903,0.75316
511.267,26.7222,-3.14863,-0.79257,-0.23866,0.75055
514.367,26.8152,-3.17043,-1.00437,-0.21269,0.74795
517.467,26.9083,-3.18813,-1.2004,-0.19851,0.74536
520.567,27.00163,-3.20669,-1.37732,-0.17696,0.74278
523.667,27.09507,-3.22079,-1.56075,-0.14648,0.74021
526.767,27.1887,-3.2338,-1.71278,-0.1301,0.73766
529.867,27.28227,-3.24525,-1.87972,-0.10974,0.73511
532.967,27.37623,-3.26212,-1.99327,-0.07068308,0.73258
536.067,27.47007,-3.25692,-2.11311,-0.06955283,0.73006
539.167,27.564,-3.26716,-2.22519,-0.07605563,0.72755
542.267,27.6584,-3.27276,-2.32365,-0.06264784,0.72505
545.367,27.7527,-3.27842,-2.3786,-0.04757212,0.72256
548.467,27.84713,-3.28219,-2.4452,-0.03847196,0.72009
551.567,27.9417,-3.2862,-2.52383,-0.03162454,0.71762
554.667,28.03652,-3.28752,-2.85221,-0.02659231,0.71518
557.767,28.13141,-3.29055,-2.99852,-0.02441522,0.71274
560.867,28.2264,-3.29303,-3.07076,-0.02127485,0.71032
563.967,28.3217,-3.29435,-3.12099,-0.02608137,0.70791
567.067,28.41661,-3.29777,-3.17368,-0.02016097,0.70551
570.167,28.51227,-3.2978,-3.1986,-0.008655329,0.70312
573.267,28.6077,-3.29913,-3.23132,-0.01086867,0.70075
576.367,28.70337,-3.30038,-3.2812,-0.01724984,0.6984
579.467,28.79908,-3.3031,-3.31135,-0.01737293,0.69606
582.567,28.89507,-3.30438,-3.32954,-0.01556719,0.69373
585.667,28.99077,-3.30571,-3.35539,-0.01453429,0.69141
588.767,29.0869,-3.30703,-3.21317,-0.01378932,0.68911
591.867,29.18314,-3.30834,-2.99902,-0.01191599,0.68683
594.967,29.27958,-3.30966,-2.91206,-0.00882814,0.68455
598.067,29.3759,-3.31031,-2.88759,-0.007235002,0.6823
601.167,29.47263,-3.31095,-2.85815,-0.00900429,0.68005
604.267,29.56945,-3.3123,-2.81892,-0.01518289,0.67783
607.367,29.66628,-3.31364,-2.83154,-0.01060304,0.67561
610.467,29.76316,-3.31432,-2.96358,-0.007625759,0.67341
613.567,29.86022,-3.31428,-3.21737,-0.008619111,0.67123
616.667,29.9576,-3.31559,-3.44551,-0.0005896209,0.66906
617.967,29.9983,-3.31559,-3.52821,5.78906e-05,0.66815

File: PVC_STA_N2_30KData_210810_R2.csv
##Temp./Â°C,Time/min,Mass loss(subtr.2)/mg,DSC(subtr.2)/mW,DTG(subtr.2)/(mg/min),Sensit./(uV/mW)
49.364,10.00917,-0.00701,-0.04487844,0.0,1.05401
52.464,11.62998,-0.008228896,0.4685,0.001430504,1.05406
55.564,12.01153,-0.00781266,0.80007,-0.000823465,1.05406
58.664,12.29149,-0.006511153,1.0813,0.000569492,1.05401
61.764,12.53151,-0.008089965,1.31383,-0.001166818,1.05392
64.864,12.7475,-0.007827298,1.49886,-0.0005769371,1.05378
67.964,12.94716,-0.007220235,1.53111,-0.004479074,1.05359
71.064,13.1362,-0.008927256,1.63181,-0.00183372,1.05336
74.164,13.31625,-0.0104363,1.77544,-0.00510299,1.05309
77.264,13.48995,-0.00957169,1.93023,0.001585536,1.05277
80.364,13.65598,-0.01061154,2.10856,0.0005326368,1.0524
83.464,13.8157,-0.01076118,2.26612,-0.00078624,1.05199
86.564,13.96996,-0.008128115,2.38234,0.006346409,1.05153
89.664,14.1183,-0.01092193,2.47278,-0.007664122,1.05103
92.764,14.26179,-0.008724753,2.57053,0.01073876,1.05049
95.864,14.40068,-0.00764329,2.70887,-0.002078685,1.0499
98.964,14.53573,-0.00994364,2.85738,-0.00370089,1.04927
102.064,14.66746,-0.00890319,3.02186,-0.001082075,1.0486
105.164,14.79549,-0.008567837,3.17825,-0.002433064,1.04789
108.264,14.92087,-0.008922537,3.34059,-0.003285444,1.04713
111.364,15.04394,-0.01078122,3.4871,0.00197649,1.04633
114.464,15.1645,-0.009325813,3.62649,-0.0004481673,1.0455
117.564,15.28319,-0.009737654,3.76501,-0.004304725,1.04462
120.664,15.39969,-0.01086939,3.90952,0.00259495,1.0437
123.764,15.51418,-0.00918914,4.03336,0.00324593,1.04274
126.864,15.62667,-0.009245191,4.13969,-0.005086065,1.04174
129.964,15.7374,-0.01143414,4.25575,-0.000861994,1.0407
133.064,15.84704,-0.01024928,4.37076,0.0001129579,1.03962
136.164,15.9549,-0.01097888,4.48607,-0.001147016,1.0385
139.264,16.06154,-0.01092382,4.58412,-0.001404748,1.03735
142.364,16.16656,-0.009994473,4.67927,-0.00281173,1.03615
145.464,16.27039,-0.0104279,4.77772,-0.0007729049,1.03492
148.564,16.3732,-0.01021338,4.87668,-0.004248862,1.03366
151.664,16.47515,-0.01144765,4.97048,-0.009143959,1.03235
154.764,16.5759,-0.0127462,5.06872,-0.003535558,1.03101
157.864,16.67569,-0.01250867,5.14274,-3.902885e-06,1.02964
160.964,16.77485,-0.01253102,5.22528,-0.00805703,1.02823
164.064,16.87315,-0.01382098,5.30622,-0.0075756,1.02678
167.164,16.9705,-0.01383834,5.37662,-0.000124669,1.0253
170.264,17.0674,-0.01381002,5.44625,-0.0009570178,1.02378
173.364,17.16347,-0.01534539,5.51836,-0.004388647,1.02224
176.464,17.25879,-0.01524332,5.57533,-0.002505906,1.02065
179.564,17.35343,-0.01387464,5.63574,-0.001770551,1.01904
182.664,17.44724,-0.01523957,5.68838,-0.00294903,1.01739
185.764,17.54028,-0.01512759,5.7292,-0.00488153,1.01571
188.864,17.63283,-0.01642063,5.78299,-0.007913889,1.014
191.964,17.72474,-0.01736136,5.83013,-0.00487298,1.01226
195.064,17.81602,-0.01647433,5.85529,0.0005944062,1.01049
198.164,17.90663,-0.01643809,5.8984,-0.000915795,1.00869
201.264,17.99697,-0.01780194,5.95147,-0.003633818,1.00686
204.364,18.08697,-0.01773847,6.00205,0.0002677244,1.005
207.464,18.17643,-0.01742937,6.04382,0.003191625,1.00311
210.564,18.26555,-0.01741254,6.09514,-0.004259751,1.00119
213.664,18.35442,-0.02028748,6.13099,-0.01460951,0.99924
216.764,18.44279,-0.01970207,6.17535,-0.006851981,0.99727
219.864,18.53107,-0.01882638,6.22107,-0.004424218,0.99527
222.964,18.61898,-0.02007,6.24484,-0.003230962,0.99324
226.064,18.70663,-0.02007,6.26504,0.000129691,0.99119
229.164,18.79409,-0.01990824,6.29553,0.00133238,0.98911
232.264,18.88124,-0.01974183,6.3155,-0.00185292,0.98701
235.364,18.96806,-0.02007122,6.33665,-0.008885967,0.98488
238.464,19.05465,-0.02139045,6.35756,-0.01490693,0.98273
241.564,19.14105,-0.02372915,6.36565,-0.01462123,0.98055
244.664,19.22709,-0.02401001,6.38531,-0.00729551,0.97835
247.764,19.31321,-0.02401,6.38926,-0.004905813,0.97613
250.864,19.3989,-0.02400135,6.3959,-0.00794395,0.97388
253.964,19.4844,-0.02605469,6.39385,-0.005308524,0.97161
257.064,19.57009,-0.02599066,6.3725,-0.005874447,0.96933
260.164,19.65534,-0.02269606,6.28125,-0.02470618,0.96702
263.264,19.74054,-0.03047983,5.97191,-0.03531362,0.96469
266.364,19.82584,-0.03172382,6.06747,-0.05175301,0.96234
269.464,19.91076,-0.03648584,6.35779,-0.09163466,0.95997
272.564,19.9954,-0.04852203,6.63885,-0.12664,0.95758
275.664,20.08042,-0.05818645,6.89716,-0.15654,0.95517
278.764,20.16496,-0.07508362,7.14183,-0.1861,0.95275
281.864,20.2497,-0.09083541,7.39153,-0.20756,0.9503
284.964,20.33411,-0.10967,7.64907,-0.23018,0.94784
288.064,20.41884,-0.12921,7.95077,-0.26259,0.94537
291.164,20.50346,-0.15354,8.25527,-0.29511,0.94287
294.264,20.58791,-0.18005,8.55905,-0.32636,0.94036
297.364,20.67239,-0.20786,8.84553,-0.36685,0.93784
300.464,20.75704,-0.24112,9.14993,-0.41472,0.9353
303.564,20.84167,-0.27848,9.47843,-0.46571,0.93274
306.664,20.92613,-0.31905,9.83096,-0.5227,0.93017
309.764,21.01052,-0.366,10.2262,-0.58988,0.92759
312.864,21.09504,-0.41829,10.66039,-0.66696,0.925
315.964,21.17946,-0.47815,11.0959,-0.76524,0.92239
319.064,21.26399,-0.54964,11.56296,-0.87515,0.91977
322.164,21.34848,-0.62619,12.05258,-0.95484,0.91714
325.264,21.433,-0.70997,12.50822,-1.04403,0.9145
328.364,21.51766,-0.80238,12.87684,-1.14149,0.91184
331.464,21.60233,-0.90291,13.145,-1.22345,0.90918
334.564,21.687,-1.01047,13.3283,-1.28305,0.9065
337.664,21.7717,-1.11936,13.42355,-1.32104,0.90382
340.764,21.85661,-1.23542,13.39209,-1.33708,0.90113
343.864,21.94151,-1.34946,13.21389,-1.33951,0.89842
346.964,22.0265,-1.46645,12.91136,-1.32352,0.89571
350.064,22.11167,-1.57664,12.46247,-1.28768,0.893
353.164,22.19664,-1.68431,11.91339,-1.23522,0.89027
356.264,22.28193,-1.78608,11.21147,-1.15807,0.88754
359.364,22.3671,-1.88208,10.36497,-1.06128,0.8848
362.464,22.45231,-1.96842,9.3149,-0.94209,0.88205
365.564,22.5377,-2.04409,8.0506,-0.80606,0.8793
368.664,22.62301,-2.10724,6.59574,-0.66307,0.87655
371.764,22.7085,-2.1583,5.1454,-0.51535,0.87379
374.864,22.79393,-2.1959,3.91965,-0.36774,0.87102
377.964,22.87954,-2.21869,3.05472,-0.25135,0.86825
381.064,22.9653,-2.23647,2.55786,-0.1779,0.86548
384.164,23.05115,-2.24792,2.37158,-0.1346,0.8627
387.264,23.13705,-2.2575,2.35437,-0.11591,0.85993
390.364,23.2236,-2.26823,2.38427,-0.10176,0.85714
393.464,23.3099,-2.27516,2.39631,-0.0877597,0.85436
396.564,23.3965,-2.28317,2.40332,-0.07861202,0.85158
399.664,23.48351,-2.28899,2.37451,-0.0746224,0.84879
402.764,23.57049,-2.29488,2.34409,-0.0710712,0.846
405.864,23.65757,-2.30129,2.30808,-0.07369109,0.84321
408.964,23.74481,-2.30774,2.27579,-0.08565197,0.84043
412.064,23.83214,-2.31719,2.22657,-0.09410653,0.83764
415.164,23.9198,-2.32441,2.17174,-0.09580409,0.83485
418.264,24.00737,-2.3329,2.11542,-0.10351,0.83206
421.364,24.09526,-2.34289,2.03649,-0.1099,0.82928
424.464,24.1832,-2.35212,1.96062,-0.11431,0.8265
427.564,24.27139,-2.36255,1.88865,-0.11532,0.82371
430.664,24.35967,-2.37269,1.79762,-0.11824,0.82094
433.764,24.44815,-2.38291,1.70163,-0.13165,0.81816
436.864,24.53679,-2.39782,1.62215,-0.14797,0.81539
439.964,24.62558,-2.4094,1.55209,-0.16165,0.81262
443.064,24.71446,-2.42319,1.49708,-0.18403,0.80985
446.164,24.80351,-2.44237,1.48301,-0.21074,0.80709
449.264,24.89284,-2.46218,1.49512,-0.2363,0.80433
452.364,24.98235,-2.48281,1.56185,-0.26358,0.80158
455.464,25.07199,-2.51013,1.68864,-0.29499,0.79883
458.564,25.1619,-2.53655,1.90294,-0.32505,0.79609
461.664,25.2519,-2.568,2.18922,-0.35732,0.79335
464.764,25.3421,-2.60092,2.49509,-0.38994,0.79062
467.864,25.43252,-2.63963,2.85648,-0.41518,0.78789
470.964,25.52329,-2.67758,3.21127,-0.43168,0.78517
474.064,25.6141,-2.71809,3.52668,-0.43799,0.78246
477.164,25.70521,-2.75703,3.7338,-0.43342,0.77976
480.264,25.79659,-2.7955,4.04116,-0.43747,0.77706
483.364,25.88799,-2.8366,4.22375,-0.44794,0.77437
486.464,25.9796,-2.87887,4.28468,-0.44335,0.77169
489.564,26.07143,-2.91962,4.21912,-0.42258,0.76902
492.664,26.16346,-2.95575,4.07752,-0.40147,0.76635
495.764,26.2557,-2.9934,4.00068,-0.38351,0.76369
498.864,26.3479,-3.02826,3.89738,-0.359,0.76105
501.964,26.44036,-3.05966,3.77988,-0.32631,0.75841
505.064,26.533,-3.0867,3.64572,-0.30152,0.75578
508.164,26.6257,-3.1144,3.53051,-0.28046,0.75316
511.264,26.71875,-3.13965,3.3572,-0.25979,0.75055
514.364,26.81188,-3.16373,3.20819,-0.22979,0.74795
517.464,26.905,-3.18322,3.07379,-0.19207,0.74536
520.564,26.99847,-3.19987,2.93443,-0.16021,0.74278
523.664,27.09208,-3.21312,2.79724,-0.14106,0.74022
526.764,27.1857,-3.22567,2.67179,-0.13319,0.73766
529.864,27.27948,-3.23862,2.58184,-0.1136,0.73511
532.964,27.3735,-3.24726,2.49667,-0.08985118,0.73258
536.064,27.46752,-3.25443,2.42824,-0.07084471,0.73006
539.164,27.56145,-3.25952,2.37669,-0.06728206,0.72755
542.264,27.65578,-3.26818,2.34597,-0.06734481,0.72505
545.364,27.75024,-3.27297,2.29974,-0.05004012,0.72256
548.464,27.84485,-3.27605,2.29296,-0.03864905,0.72009
551.564,27.9393,-3.2795,2.28467,-0.0379912,0.71763
554.664,28.03391,-3.28455,2.28051,-0.03595774,0.71518
557.764,28.1287,-3.28726,2.29694,-0.02820967,0.71274
560.864,28.2238,-3.28852,2.30571,-0.02139126,0.71032
563.964,28.3191,-3.28991,2.31605,-0.01974558,0.70791
567.064,28.41429,-3.29295,2.3295,-0.02052208,0.70551
570.164,28.5098,-3.29452,2.3414,-0.02043999,0.70313
573.264,28.6053,-3.29704,2.35638,-0.02103807,0.70076
576.364,28.70093,-3.2987,2.37342,-0.01514647,0.6984
579.464,28.79665,-3.30011,2.38995,-0.00660315,0.69606
582.564,28.8923,-3.29882,2.40267,-0.0057489,0.69373
585.664,28.98831,-3.30071,2.43616,-0.007882893,0.69141
588.764,29.0843,-3.30011,2.45233,-0.009866468,0.68911
591.864,29.1803,-3.30144,2.46957,-0.02175625,0.68683
594.964,29.27655,-3.3056,2.50212,-0.01998503,0.68456
598.064,29.37343,-3.3069,2.54288,-0.0103051,0.6823
601.164,29.46995,-3.30732,2.58849,-0.008965409,0.68006
604.264,29.5666,-3.30826,2.64877,-0.01066438,0.67783
607.364,29.6634,-3.30898,2.65783,-0.009814839,0.67561
610.464,29.7605,-3.31043,2.58247,-0.01214085,0.67341
613.564,29.85738,-3.31076,2.36557,-0.01698321,0.67123
616.664,29.9547,-3.31372,2.17349,-0.01072551,0.66906
618.064,29.9985,-3.31372,2.12354,0.00105423,0.66809