Folder: fsri_materials_database/01_Data/PVC/STA/N2/3K_min

Note: 01_Data/README.md
# Materials and Products Database
## 01_Data

Raw data generated from each apparatus are included here in plain-text format. The data is organized first by material, next by the short name of test apparatus used, and where applicable additional filtering by test settings.

### material.json

Each material directory contains a json file of the same name as the material. This file links the data stored in the repository as well as data and graphs produced by the accompanying scripts (__02_Scripts__) to the respective landing page for the material on the front-end website.

File: PVC_STA_N2_3KData_211007_R1.csv
Temp/C,Time/min,DSC/mW,Mass loss/mg,Sensit./(uV/mW)
50.2,10.0326,-0.0218393,-0.011257,0.997841
52.8,13.9451,0.0962863,-0.0140676,0.999821
55.4,15.4921,0.138698,-0.0155069,1.00173
58,16.766,0.172092,-0.016589,1.00356
60.6,17.9014,0.172897,-0.0197379,1.00532
63.2,18.9596,0.186593,-0.0200102,1.007
65.8,19.9655,0.213664,-0.0192212,1.00862
68.4,20.9399,0.226725,-0.0214373,1.01016
71,21.8837,0.251613,-0.0240704,1.01163
73.6,22.8117,0.2566059,-0.023609,1.01303
76.2,23.7274,0.272784,-0.0259393,1.01436
78.8,24.6328,0.286416,-0.0249149,1.01562
81.4,25.5305,0.302133,-0.0269554,1.0168
84,26.4195,0.28775,-0.0279917,1.01792
86.6,27.2988,0.293701,-0.0270379,1.01897
89.2,28.1734,0.301894,-0.029414,1.01995
91.8,29.04,0.307025,-0.0305896,1.02086
94.4,29.9047,0.32146,-0.0316067,1.0217
97,30.7645,0.339171,-0.0335012,1.02248
99.6,31.6199,0.347221,-0.0335417,1.02319
102.2,32.4691,0.34822,-0.0333603,1.02383
104.8,33.3169,0.353279,-0.034411,1.0244
107.4,34.1633,0.367491,-0.0359261,1.02491
110,35.0096,0.374656,-0.0367684,1.02535
112.6,35.8548,0.371732,-0.0373996,1.02572
115.2,36.6974,0.387403,-0.0390265,1.02604
117.8,37.5392,0.386862,-0.0400766,1.02628
120.4,38.381,0.390723,-0.0398867,1.02647
123,39.2221,0.394808,-0.0399418,1.02659
125.6,40.0638,0.393824,-0.0433408,1.02664
128.2,40.9014,0.389665,-0.0373782,1.02664
130.8,41.7362,0.403958,-0.04437248,1.02657
133.4,42.5689,0.411382,-0.0460464,1.02644
136,43.4039,0.404134,-0.04551187,1.02625
138.6,44.2395,0.403642,-0.046717,1.026
141.2,45.0727,0.395484,-0.0470711,1.02569
143.8,45.9031,0.407787,-0.0479185,1.02532
146.4,46.7322,0.417328,-0.0498759,1.02489
149,47.556,0.4182,-0.0523103,1.0244
151.6,48.3821,0.41276,-0.0522314,1.02385
154.2,49.2067,0.418041,-0.0548069,1.02325
156.8,50.0339,0.427157,-0.0533179,1.02259
159.4,50.8603,0.423195,-0.0544252,1.02187
162,51.6877,0.418788,-0.0561567,1.0211
164.6,52.5123,0.414218,-0.0582785,1.02027
167.2,53.3352,0.423225,-0.0581423,1.01939
169.8,54.1607,0.421697,-0.0593283,1.01845
172.4,54.9853,0.408475,-0.0575882,1.01747
175,55.8118,0.411405,-0.0606734,1.01642
177.6,56.6371,0.407096,-0.0605422,1.01533
180.2,57.4635,0.424796,-0.0614951,1.01418
182.8,58.2896,0.423887,-0.0635171,1.01298
185.4,59.1123,0.411347,-0.0634947,1.01174
188,59.938,0.421368,-0.0640562,1.01044
190.6,60.7606,0.412904,-0.06525621,1.00909
193.2,61.584,0.416239,-0.0676554,1.00769
195.8,62.4083,0.409548,-0.0693564,1.00625
198.4,63.2292,0.41527,-0.0691336,1.00476
201,64.0519,0.42104,-0.0708404,1.00322
203.6,64.8747,0.40767,-0.0715293,1.00163
206.2,65.6968,0.405512,-0.0742923,0.999999
208.8,66.5203,0.416719,-0.07604488,0.998319
211.4,67.3437,0.415944,-0.0776576,0.996599
214,68.1657,0.410873,-0.0803881,0.994839
216.6,68.9891,0.414292,-0.0834405,0.9930293
219.2,69.8111,0.409074,-0.0858802,0.991179
221.8,70.635,0.418359,-0.08882148,0.989289
224.4,71.4605,0.39968,-0.092888,0.987349
227,72.2817,0.36408,-0.09750429,0.985379
229.6,73.1049,0.457776,-0.108105,0.983359
232.2,73.929,0.489175,-0.122403,0.9813092
234.8,74.7551,0.51738,-0.136376,0.979219
237.4,75.5798,0.525268,-0.149662,0.977089
240,76.4047,0.54673,-0.164445,0.974919
242.6,77.2274,0.557923,-0.179176,0.972709
245.2,78.0523,0.57745,-0.19562,0.970469
247.8,78.8776,0.593763,-0.214552,0.968189
250.4,79.7025,0.613955,-0.233133,0.9658791
253,80.5283,0.648671,-0.258059,0.963529
255.6,81.3534,0.68034,-0.283818,0.961149
258.2,82.1809,0.707645,-0.3138,0.958739
260.8,83.0088,0.756793,-0.350097,0.956299
263.4,83.8325,0.808148,-0.388009,0.953819
266,84.6584,0.850411,-0.4356,0.951309
268.6,85.4849,0.905246,-0.489921,0.948779
271.2,86.3086,0.972021,-0.551566,0.946209
273.8,87.1357,1.05344,-0.624893,0.943609
276.4,87.9642,1.12429,-0.703721,0.940989
279,88.7932,1.22416,-0.795501,0.938329
281.6,89.6219,1.24363,-0.891747,0.935649
284.2,90.4496,1.2784,-0.998951,0.932949
286.8,91.2804,1.29932,-1.10561,0.930219
289.4,92.1083,1.27532,-1.21398,0.927459
292,92.9333,1.27087,-1.32258,0.924679
294.6,93.7609,1.23744,-1.429,0.921879
297.2,94.5913,1.1828,-1.52988,0.919049
299.8,95.4232,1.12915,-1.62424,0.9161989
302.4,96.2547,1.09691,-1.71225,0.913329
305,97.0866,1.04632,-1.79314,0.910429
307.6,97.921,0.987367,-1.87111,0.907519
310.2,98.7556,0.916909,-1.94324,0.904589
312.8,99.592,0.824786,-2.01236,0.901629
315.4,100.428,0.740725,-2.07154,0.898659
318,101.259,0.650714,-2.12232,0.895669
320.6,102.09,0.548363,-2.16656,0.892669
323.2,102.921,0.435549,-2.20861,0.889649
325.8,103.755,0.35202,-2.24214,0.886609
328.4,104.586,0.286827,-2.26646,0.883549
331,105.417,0.224834,-2.29002,0.880489
333.6,106.251,0.175687,-2.30136,0.877399
336.2,107.085,0.159674,-2.31913,0.8743088
338.8,107.918,0.149761,-2.32713,0.8711988
341.4,108.752,0.145902,-2.33795,0.8680788
344,109.588,0.145554,-2.3475,0.864949
346.6,110.424,0.150207,-2.35276,0.861799
349.2,111.262,0.149688,-2.35868,0.858649
351.8,112.105,0.154042,-2.36296,0.855489
354.4,112.949,0.140092,-2.36799,0.852319
357,113.807,0.140205,-2.37089,0.849139
359.6,114.653,0.11432,-2.37446,0.845949
362.2,115.493,0.11996,-2.38007,0.842749
364.8,116.321,0.130777,-2.38183,0.839549
367.4,117.158,0.132192,-2.38814,0.836349
370,118.018,0.160956,-2.39029,0.833129
372.6,118.875,0.159898,-2.39433,0.829909
375.2,119.749,0.184876,-2.39889,0.826689
377.8,120.603,0.144612,-2.40409,0.823469
380.4,121.446,0.114193,-2.41089,0.820239
383,122.272,0.090585,-2.41398,0.817009
385.6,123.126,0.113871,-2.4187,0.813769
388.2,123.989,0.133654,-2.428,0.810539
390.8,124.873,0.124402,-2.4334,0.807309
393.4,125.722,0.0837303,-2.43946,0.804069
396,126.567,0.071175,-2.44927,0.800839
398.6,127.403,0.0436633,-2.45719,0.797599
401.2,128.257,0.0417377,-2.46518,0.794369
403.8,129.102,0.0273087,-2.47793,0.791139
406.4,129.94,0.0267871,-2.48876,0.787909
409,130.787,0.0364784,-2.50032,0.784689
411.6,131.657,0.05904777,-2.51789,0.781469
414.2,132.489,0.0309629,-2.53266,0.778249
416.8,133.342,0.0408897,-2.55456,0.775039
419.4,134.205,0.078933,-2.57856,0.771839
422,135.036,0.06633425,-2.60267,0.768629
424.6,135.888,0.127525,-2.63982,0.765439
427.2,136.742,0.164544,-2.67341,0.762249
429.8,137.591,0.205566,-2.7114,0.759069
432.4,138.448,0.241484,-2.75616,0.755899
435,139.312,0.277568,-2.79757,0.752739
437.6,140.159,0.297337,-2.84216,0.749579
440.2,141.003,0.320365,-2.88403,0.746439
442.8,141.836,0.342365,-2.92671,0.7432988
445.4,142.704,0.344593,-2.9701,0.7401688
448,143.566,0.346529,-3.00646,0.7370588
450.6,144.421,0.352369,-3.04567,0.733949
453.2,145.28,0.318778,-3.08186,0.730859
455.8,146.135,0.283382,-3.11601,0.727779
458.4,146.992,0.287477,-3.14422,0.724709
461,147.849,0.29724,-3.16927,0.721659
463.6,148.706,0.293261,-3.19393,0.718619
466.2,149.577,0.257549,-3.21645,0.715589
468.8,150.428,0.204929,-3.23391,0.712569
471.4,151.292,0.231688,-3.24998,0.709579
474,152.158,0.208552,-3.2644,0.706589
476.6,153.019,0.196719,-3.27625,0.703619
479.2,153.878,0.184833,-3.28683,0.700669
481.8,154.75,0.201575,-3.29771,0.697729
484.4,155.599,0.170402,-3.30147,0.694809
487,156.463,0.171909,-3.30815,0.691909
489.6,157.318,0.174158,-3.31378,0.689019
492.2,158.207,0.184207,-3.31847,0.6861589
494.8,159.074,0.183081,-3.32585,0.683309
497.4,159.939,0.15555,-3.32837,0.680469
500,160.797,0.150165,-3.33104,0.677659
502.6,161.668,0.165542,-3.33545,0.674869
505.2,162.526,0.129228,-3.33709,0.672099
507.8,163.401,0.122182,-3.34048,0.669339
510.4,164.226,0.0789516,-3.34313,0.666609
513,165.12,0.148484,-3.34405,0.663889
515.6,166.015,0.145655,-3.34658,0.661199
518.2,166.834,0.0420347,-3.34718,0.658529
520.8,167.697,0.0995796,-3.34865,0.655879
523.4,168.589,0.11217,-3.35311,0.653249
526,169.458,0.0940906,-3.35332,0.650639
528.6,170.326,0.0997436,-3.35474,0.648059
531.2,171.215,0.101464,-3.35683,0.645499
533.8,172.044,0.0162952,-3.35562,0.642959
536.4,172.916,0.0843331,-3.35665,0.640439
539,173.805,0.110798,-3.35754,0.637949
541.6,174.679,0.0670289,-3.36001,0.635479
544.2,175.56,0.0714147,-3.36128,0.633039
546.8,176.435,0.0689621,-3.36238,0.630619
549.4,177.289,0.0814797,-3.365,0.628219
552,178.18,0.124445,-3.36505,0.6258491
554.6,179.052,0.116869,-3.3656,0.6234991
557.2,179.876,0.0900535,-3.36483,0.621179
559.8,180.769,0.178329,-3.36622,0.618879
562.4,181.652,0.181823,-3.36716,0.616609
565,182.547,0.214295,-3.36789,0.614359
567.6,183.423,0.188105,-3.36835,0.612139
570.2,184.296,0.210847,-3.37109,0.609949
572.8,185.173,0.303058,-3.37116,0.607779
575.4,186.047,0.349196,-3.3727,0.605639
578,186.921,0.377162,-3.37541,0.603519
580.6,187.796,0.433078,-3.37495,0.6014292
583.2,188.676,0.509045,-3.3739,0.599369
585.8,189.553,0.539973,-3.37525,0.597329
588.4,190.429,0.596399,-3.37473,0.595329
591,191.302,0.608793,-3.37629,0.593339
593.6,192.191,0.626076,-3.37559,0.591389
596.2,193.077,0.669153,-3.37604,0.589459
598.8,193.953,0.698887,-3.37718,0.587559
601.4,194.83,0.717436,-3.37798,0.585689
604,195.711,0.741239,-3.37928,0.5838493
606.6,196.593,0.731353,-3.37958,0.5820293
609.2,197.461,0.74266,-3.38158,0.580239
611.8,198.341,0.782523,-3.38151,0.578479
614.4,199.229,0.803789,-3.38118,0.576749
617,200.114,0.8397768,-3.38182,0.575049
619.6,200.993,0.803542,-3.38286,0.573369
622.2,201.877,0.897798,-3.38357,0.571719
624.8,202.765,0.907765,-3.38359,0.570099
627.4,203.649,0.929814,-3.38369,0.5685094
630,204.528,0.946393,-3.38416,0.5669494
632.6,205.418,0.982057,-3.38577,0.565409
635.2,206.316,0.967563,-3.38586,0.563909
637.8,207.19,0.944477,-3.38765,0.562429
640.4,208.062,0.992131,-3.38825,0.560979
643,208.949,1.01682,-3.39014,0.55956
645.6,209.842,1.04271,-3.38906,0.558169
648.2,,,,
650.8,,,,
653.4,,,,
656,,,,
658.6,,,,
661.2,,,,
663.8,,,,
666.4,,,,
669,,,,
671.6,,,,
674.2,,,,
676.8,,,,
679.4,,,,
682,,,,
684.6,,,,
687.2,,,,
689.8,,,,
692.4,,,,
695,,,,
697.6,,,,
700.2,,,,
702.8,,,,
705.4,,,,
708,,,,
710.6,,,,
713.2,,,,
715.8,,,,
718.4,,,,
721,,,,
723.6,,,,
726.2,,,,
728.8,,,,
731.4,,,,
734,,,,
736.6,,,,
739.2,,,,
741.8,,,,
744.4,,,,
747,,,,
749.6,,,,
750,,,,