Folder: fsri_materials_database/01_Data/Overstuffed_Chair_Polyester_Fabric/Cone

Note: 01_Data/README.md
# Materials and Products Database
## 01_Data

Raw data generated from each apparatus are included here in plain-text format. The data is organized first by material, next by the short name of test apparatus used, and where applicable additional filtering by test settings.

### material.json

Each material directory contains a json file of the same name as the material. This file links the data stored in the repository as well as data and graphs produced by the accompanying scripts (__02_Scripts__) to the respective landing page for the material on the front-end website.

File: Overstuffed_Chair_Polyester_Fabric_Cone_HF25Scalar_210324_R2.csv
LABORATORY,FSRI
TEST IDENT,Fabric_H25_2
OPERATOR,Morrissey
MATERIAL,Polyester Microfiber Fabric
ORIENTATION,Horizontal
HEAT FLUX,35
SURF AREA,0.01
C FACTOR,0.0386052
SPEC HOLDER DIFF,-97.97
SPECIMEN MASS,1.93
SCAN TIME,0.25
O2 DELAY TIME,11
CO DELAY TIME,11
CO2 DELAY TIME,8
FLOW FACTOR,1
SCAN COUNT,816
TIME TO IGN,27.75
END OF TEST SCAN,336
END OF TEST TIME,84
TEST STATUS,1
PRE TEST CMT,test w/o retainer grid or frame
POST TEST CMT,Sample folded over spark igniter and the sample was ignited upon contact

File: Overstuffed_Chair_Polyester_Fabric_Cone_HF50Scalar_210326_R2.csv
LABORATORY,FSRI
TEST IDENT,fabric_HF50_2
OPERATOR,Dow
MATERIAL,PE microfiber fabric
ORIENTATION,Horizontal
HEAT FLUX,50
SURF AREA,0.01
C FACTOR,0.0386052
SPEC HOLDER DIFF,-90.8
SPECIMEN MASS,1.91
SCAN TIME,0.25
O2 DELAY TIME,11
CO DELAY TIME,11
CO2 DELAY TIME,8
FLOW FACTOR,1
SCAN COUNT,699
TIME TO IGN,22
END OF TEST SCAN,219
END OF TEST TIME,54.75
TEST STATUS,1
PRE TEST CMT,without frame or grid
POST TEST CMT,sample shriveled toward center at start of exposure; foil folded slightly inwards at end of test

File: Overstuffed_Chair_Polyester_Fabric_Cone_HF50Scan_210326_R1.csv
Names,Time,Stack TC,Smoke TC,Exh Press,Smoke Comp,Smoke Meas,CO Meter,CO2 Meter,O2 Meter,Sample Mass,Ext Coeff,Start Test,Flame Verif
Chan Gain,,500,500,1,1,1,1,1,1,1,1,1.0,1.0
Offset,,0,0,0.138348,0,0,0,0,0,0,0,0.0,0.0
Gain,,1,1,25.011,13.5067,16.616,1,1,1,1.00091,1.04608,1.0,1.0
Units,sec,C,C,Pa,%,%,%,%,%,g,/m,,
Baseline,,33.069,35.2162,162.117,102.365,99.5025,-0.00140775,0.0476228,20.9575,-0.00788218,0.260305,,
7,1.5,31.2642,32.9945,162.148,102.718,99.5731,-0.00102591,0.0499098,20.9524,470.138,0.285341,0.0,0.0
14,3.25,30.7671,32.8199,157.838,102.72,99.6405,-0.00106508,0.0514376,20.9478,469.217,0.279276,0.0,0.0
21,5,31.3782,33.6143,160.568,102.73,99.6633,-0.00120671,0.0535345,20.9436,468.897,0.278132,0.0,0.0
28,6.75,30.6171,33.4002,162.493,102.749,99.6953,-0.00135459,0.055321,20.9416,468.907,0.276848,0.0,0.0
35,8.5,31.4944,33.6119,164.63,102.762,100.021,-0.00148539,0.0567969,20.9401,468.897,0.248075,0.0,0.0
42,10.25,31.4164,33.3583,159.966,102.768,99.82,-0.00154473,0.0580666,20.939,468.887,0.267067,0.0,0.0
49,12,31.32,33.1165,163.351,102.768,100.236,-0.0015621,0.059451,20.9385,468.877,0.228923,0.0,0.0
56,13.75,31.5881,33.9276,161.832,102.791,99.6649,-0.00154129,0.0601178,20.9383,468.877,0.283403,0.0,0.0
63,15.5,31.1783,33.5516,162.145,102.803,100.123,-0.00146381,0.0603806,20.9382,468.877,0.242398,0.0,0.0
70,17.25,31.0666,33.7436,158.117,102.808,99.6958,-0.00133641,0.0602188,20.9394,468.877,0.282064,0.0,0.0
77,19,31.3414,34.5067,161.284,102.808,98.9504,-0.00109669,0.0597166,20.9399,468.887,0.35093,0.0,0.0
84,20.75,31.3479,33.9612,154.763,102.825,97.457,-0.0007611,0.0618209,20.9353,468.827,0.492016,0.0,1.0
91,22.5,31.5542,34.5015,159.559,102.851,91.7641,-0.000109719,0.0714174,20.9088,468.817,1.04662,0.0,1.0
98,24.25,30.7661,33.9305,155.363,102.857,89.0618,0.00104319,0.0931536,20.8705,468.707,1.32144,0.0,1.0
105,26,32.1422,34.9792,159.066,102.884,87.3226,0.0024657,0.125879,20.8221,468.587,1.5048,0.0,0.0
112,27.75,32.9304,36.6986,157.508,102.882,83.2644,0.0041712,0.168201,20.7706,468.436,1.94129,0.0,0.0
119,29.5,34.4248,38.4461,140.327,102.89,78.1733,0.00680106,0.218342,20.712,468.226,2.52097,0.0,0.0
126,31.25,35.7742,41.7704,152.595,102.909,76.9148,0.00908909,0.273029,20.6294,467.986,2.67156,0.0,0.0
133,33,37.36,43.8101,149.36,102.918,77.2951,0.0103845,0.328904,20.5701,467.746,2.62711,0.0,0.0
140,34.75,38.4244,45.3378,147.172,102.925,78.0912,0.0104125,0.365693,20.5406,467.556,2.53378,0.0,0.0
147,36.5,39.0134,45.7615,156.995,102.94,85.706,0.00921617,0.369382,20.5493,467.426,1.68126,0.0,0.0
154,38.25,39.7293,46.306,152.81,102.935,88.7622,0.00757133,0.353841,20.5959,467.325,1.35931,0.0,0.0
161,40,39.0134,45.5614,154.292,102.934,91.5704,0.00585959,0.323548,20.6607,467.245,1.07347,0.0,0.0
168,41.75,38.7795,45.541,159.372,102.938,93.8081,0.00441992,0.290045,20.7127,467.175,0.852253,0.0,0.0
175,43.5,38.618,45.1355,157.325,102.927,95.1346,0.0032748,0.257066,20.754,467.155,0.722449,0.0,0.0
182,45.25,38.1536,44.5296,156.412,102.931,97.1001,0.0023762,0.227614,20.7908,467.125,0.535138,0.0,0.0
189,47,37.5989,43.7001,155.795,102.949,99.6618,0.00164566,0.195785,20.8301,467.125,0.297802,0.0,0.0
196,48.75,37.4378,42.8931,157.152,102.948,99.7141,0.0011388,0.16817,20.861,467.135,0.292884,0.0,0.0
203,50.5,36.8529,41.9226,163.268,102.936,99.5498,0.000879097,0.144388,20.8859,467.095,0.306914,0.0,0.0
210,52.25,36.3975,41.7521,160.236,102.932,100.518,0.000769109,0.125852,20.9006,467.125,0.217703,0.0,0.0
217,54,35.0938,40.563,161.771,102.937,100.002,0.000733544,0.112055,20.9098,467.125,0.265434,0.0,0.0
224,55.75,35.0655,39.9477,163.028,102.928,100.151,0.000760993,0.102316,20.9152,467.125,0.250984,0.0,0.0
231,57.5,34.9764,38.942,163.056,102.916,100.252,0.0008507,0.0936868,20.9194,467.105,0.240724,0.0,0.0
238,59.25,34.7852,38.6575,158.307,102.914,100.284,0.000959913,0.087372,20.9228,467.135,0.237579,0.0,0.0
245,61,34.4243,38.6546,162.135,102.911,100.223,0.00111231,0.0818134,20.9264,467.115,0.242855,0.0,0.0
252,62.75,34.0901,37.729,160.055,102.9,100.659,0.00131572,0.0773886,20.9291,467.115,0.202013,0.0,0.0
259,64.5,33.8683,37.3313,164.115,102.903,99.8687,0.00148263,0.0742947,20.931,467.115,0.274621,0.0,0.0
266,66.25,33.6449,37.0208,158.959,102.886,99.8246,0.00162804,0.0716671,20.9325,467.115,0.277167,0.0,0.0
273,68,33.1674,36.2949,161.8,102.879,99.8733,0.00173774,0.0696986,20.9332,467.095,0.272106,0.0,0.0
280,69.75,33.5629,36.7554,161.253,102.883,99.9975,0.00178502,0.0681617,20.9335,467.075,0.261067,0.0,0.0
287,71.5,33.0436,36.0282,164.775,102.866,100.974,0.0017895,0.0667344,20.9345,467.075,0.17042,0.0,0.0
294,73.25,32.3969,36.6008,157.762,102.844,99.8302,0.00187096,0.0650899,20.936,467.075,0.272904,0.0,0.0
301,75,32.8855,35.8541,160.381,102.827,100.151,0.00207094,0.0634684,20.9383,467.075,0.241987,0.0,0.0
308,76.75,32.3792,35.6395,163.793,102.819,100.287,0.00222168,0.06197,20.9396,467.065,0.228844,0.0,0.0
315,78.5,31.9602,35.4373,163.499,102.814,99.8469,0.00228362,0.0607296,20.9412,466.905,0.268681,0.0,0.0
322,80.25,32.092,34.8457,162.715,102.791,99.5345,0.00222955,0.0594613,20.9422,466.985,0.295372,0.0,0.0
329,82,32.4228,34.201,158.91,102.755,99.5832,0.00209706,0.0584725,20.9428,467.065,0.287683,0.0,0.0
336,83.75,31.9762,34.2885,160.165,102.759,100.387,0.00196297,0.0580153,20.943,467.075,0.21429,0.0,0.0
343,85.5,31.8388,34.5902,163.154,102.758,99.8292,0.00186189,0.057561,20.9431,467.075,0.265382,0.0,0.0
350,87.25,31.7101,34.032,163.05,102.737,99.9656,0.00185076,0.0571274,20.9432,467.055,0.250901,0.0,0.0
357,89,31.7538,34.3392,162.25,102.721,99.7607,0.00193905,0.0567887,20.9433,467.035,0.268363,0.0,0.0
364,90.75,31.5632,34.6239,158.976,102.705,99.7318,0.00202751,0.0564573,20.9437,467.035,0.269548,0.0,0.0
371,92.5,31.806,34.4663,159.62,102.707,99.785,0.00197796,0.0562394,20.9442,467.015,0.264872,0.0,0.0
378,94.25,31.8304,34.3947,157.776,102.693,100.05,0.00179645,0.056029,20.9454,467.025,0.239274,0.0,0.0
385,96,32.0053,34.2592,159.698,102.673,99.963,0.0016408,0.0556986,20.9459,467.015,0.245463,0.0,0.0
392,97.75,31.2698,33.9359,161.563,102.674,100.089,0.00151575,0.0554499,20.9462,467.005,0.233952,0.0,0.0
399,99.5,31.2878,34.2385,157.006,102.684,100.154,0.00140452,0.0551744,20.9463,467.015,0.228889,0.0,0.0
406,101.25,31.4952,33.4429,157.757,102.678,99.5974,0.00132037,0.0549669,20.9465,466.995,0.279564,0.0,0.0
413,103,31.6491,33.2439,157.467,102.669,100.262,0.00117535,0.0547006,20.9474,466.985,0.217709,0.0,0.0
420,104.75,32.2343,33.4972,158.182,102.656,100.617,0.000999047,0.0543731,20.9478,466.995,0.184065,0.0,0.0
427,106.5,31.623,34.4904,163.172,102.651,99.891,0.000865572,0.0541435,20.948,466.995,0.250085,0.0,0.0
434,108.25,31.7883,33.9303,161.621,102.646,99.89,0.000839895,0.0537742,20.9481,466.995,0.249773,0.0,0.0
441,110,31.7244,33.6791,166.88,102.638,99.9377,0.000809864,0.0534845,20.9481,466.955,0.244659,0.0,0.0
448,111.75,31.3899,34.4163,161.941,102.612,99.6684,0.000700368,0.0533161,20.9481,466.985,0.267056,0.0,0.0
455,113.5,31.9407,34.0629,156.934,102.594,99.6258,0.000539654,0.0533375,20.9481,466.975,0.269356,0.0,0.0
462,115.25,31.2409,34.4,162.235,102.589,99.6628,0.000415483,0.0534885,20.9481,466.975,0.265506,0.0,0.0
469,117,30.8313,33.4116,161.684,102.574,99.9164,0.000305127,0.0542386,20.9472,466.985,0.240864,0.0,0.0
476,118.75,31.7664,33.6102,160.959,102.551,99.6735,0.000207877,0.0554766,20.9463,466.975,0.261132,0.0,0.0
483,120.5,31.1937,33.2769,161.904,102.535,99.1989,0.000122408,0.0565353,20.944,466.995,0.303493,0.0,0.0
490,122.25,31.4956,33.2365,160.878,102.518,99.8185,0.000183563,0.0575163,20.9425,466.985,0.244876,0.0,0.0
497,124,30.9918,33.9104,165.763,102.489,100.041,0.00028757,0.0590458,20.9399,466.985,0.221862,0.0,0.0
504,125.75,31.5291,34.0089,158.143,102.475,99.6547,0.000359297,0.0607488,20.9378,466.945,0.25607,0.0,0.0
511,127.5,31.4165,33.8215,162.377,102.453,99.3571,0.000348522,0.0627208,20.9361,466.955,0.281526,0.0,0.0
518,129.25,31.1263,33.487,161.3,102.441,99.7232,0.000316196,0.0641491,20.935,466.945,0.246742,0.0,0.0
525,131,31.2764,34.3171,162.58,102.434,100.268,0.000376884,0.0649848,20.9346,466.965,0.196101,0.0,0.0
532,132.75,30.8949,33.9666,157.528,102.418,99.5198,0.000386444,0.065426,20.9348,466.955,0.263441,0.0,0.0
539,134.5,31.285,34.068,163.673,102.404,99.6963,0.000247188,0.0654171,20.9348,466.945,0.245929,0.0,0.0
546,136.25,31.375,33.9375,165.986,102.371,99.4296,0.000116679,0.0650897,20.9349,466.955,0.267519,0.0,0.0
553,138,31.4526,33.0988,160.554,102.371,99.6314,4.84012e-05,0.0648391,20.9351,466.945,0.248913,0.0,0.0
560,139.75,30.7347,33.6451,162.235,102.368,99.6126,1.64696e-05,0.0643826,20.9366,466.935,0.250345,0.0,0.0
567,141.5,31.7942,33.7099,157.972,102.326,99.8033,1.79457e-05,0.063888,20.9382,466.945,0.229104,0.0,0.0
574,143.25,31.4032,33.9956,159.41,102.301,100.004,8.45602e-05,0.0630997,20.9389,466.925,0.208331,0.0,0.0
581,145,30.659,33.6819,163.863,102.278,100.063,0.00013064,0.0624582,20.94,466.925,0.2009,0.0,0.0
588,146.75,31.0856,33.7133,161.421,102.265,99.7414,0.000134463,0.0621322,20.9406,466.915,0.22932,0.0,0.0
595,148.5,31.5385,33.9388,165.098,102.245,99.3434,3.95572e-05,0.0623254,20.9404,466.925,0.264164,0.0,0.0
602,150.25,31.2475,33.4251,162.101,102.21,99.8048,-8.74681e-05,0.0629449,20.9383,466.925,0.218533,0.0,0.0
609,152,31.5025,34.2011,160.393,102.196,99.9118,-0.000173739,0.0633807,20.9373,466.915,0.207406,0.0,0.0
616,153.75,31.1512,33.2945,161.303,102.176,99.422,-0.000202779,0.0633579,20.9378,466.915,0.250692,0.0,0.0
623,155.5,31.1094,33.3983,163.792,102.164,99.1649,-0.000248,0.062562,20.9387,466.925,0.273377,0.0,0.0
630,157.25,31.2337,33.5553,165.844,102.119,99.4838,-0.000298458,0.0617434,20.9409,466.915,0.23991,0.0,0.0
637,159,31.0613,33.695,162.464,102.085,99.3758,-0.000298418,0.0605182,20.9422,466.905,0.246804,0.0,0.0
644,160.75,30.8568,33.7278,162.193,102.076,99.388,-0.000210642,0.0595358,20.9435,466.925,0.244901,0.0,0.0
651,162.5,31.0485,32.9836,160.6,102.056,99.2714,,0.0587409,,466.915,0.253822,0.0,0.0
658,164.25,30.5864,33.3817,161.391,102.035,99.1715,,0.0578019,,466.915,0.261209,0.0,0.0
665,166,31.4316,33.4318,164.395,102.021,98.8855,,,,466.915,0.286448,0.0,0.0
672,167.75,30.8145,33.7277,160.521,101.993,98.9519,,,,466.915,0.277728,0.0,0.0
679,169.5,31.1178,33.4111,158.667,101.989,98.9179,,,,466.905,0.280582,0.0,0.0
686,171.25,31.3555,33.5314,160.726,101.994,99.4113,,,,466.925,0.235372,0.0,0.0
690,172.25,31.1198,33.7863,157.432,101.949,99.2917,,,,466.925,0.242345,0.0,0.0

File: Overstuffed_Chair_Polyester_Fabric_Cone_HF75Scalar_210325_R1.csv
LABORATORY,FSRI
TEST IDENT,Fabric_HF75_1
OPERATOR,Morrissey
MATERIAL,PE Microfiber Fabric
ORIENTATION,Horizontal
HEAT FLUX,75
SURF AREA,0.01
C FACTOR,0.0386052
SPEC HOLDER DIFF,-90.79
SPECIMEN MASS,1.94
SCAN TIME,0.25
O2 DELAY TIME,11
CO DELAY TIME,11
CO2 DELAY TIME,8
FLOW FACTOR,1
SCAN COUNT,638
TIME TO IGN,9
END OF TEST SCAN,158
END OF TEST TIME,39.5
TEST STATUS,1
PRE TEST CMT,test w/o frame or grid
POST TEST CMT,small amount of foil lift

File: Overstuffed_Chair_Polyester_Fabric_Cone_HF75Scan_210325_R1.csv
Names,Time,Stack TC,Smoke TC,Exh Press,Smoke Comp,Smoke Meas,CO Meter,CO2 Meter,O2 Meter,Sample Mass,Ext Coeff,Start Test,Flame Verif
Chan Gain,,500,500,1,1,1,1,1,1,1,1,1.0,1.0
Offset,,0,0,0.138348,0,0,0,0,0,0,0,0.0,0.0
Gain,,1,1,25.011,13.5067,16.616,1,1,1,1.00091,1.04608,1.0,1.0
Units,sec,C,C,Pa,%,%,%,%,%,g,/m,,
Baseline,,40.6246,44.4532,156.728,101.979,99.6591,-0.000489724,0.0818589,20.8722,-0.0784881,0.211152,,
7,1.5,35.3425,37.5784,159.097,101.817,99.5092,-0.000299347,0.0850308,20.8705,483.67,0.210345,0.0,0.0
14,3.25,36.4927,38.5335,160.966,101.83,99.7729,-0.000286731,0.0854451,20.8694,478.125,0.187288,0.0,0.0
21,5,36.2062,39.016,153.258,101.822,99.3069,-0.000307375,0.085732,20.8688,477.875,0.229505,0.0,0.0
28,6.75,36.2912,39.4717,153.511,101.805,99.1187,-0.000365748,0.0859804,20.8681,477.875,0.245382,0.0,0.0
35,8.5,36.7834,39.8846,154.304,101.798,99.2227,-0.000227537,0.0869757,20.8646,477.875,0.235168,0.0,0.0
42,10.25,37.358,40.3621,149.75,101.793,95.3055,0.000256968,0.0928095,20.8452,477.815,0.604254,0.0,1.0
49,12,38.2707,41.2859,151.525,101.804,88.3514,0.00109588,0.107251,20.8148,477.795,1.30049,0.0,1.0
56,13.75,37.18,41.0956,148.966,101.787,84.5351,0.00286141,0.136056,20.7611,477.695,1.70414,0.0,1.0
63,15.5,37.7181,42.7541,148.107,101.786,77.7433,0.00524655,0.176215,20.6727,477.535,2.4726,0.0,0.0
70,17.25,39.2441,46.0055,139.994,101.789,73.9372,0.00742065,0.234833,20.5827,477.314,2.93348,0.0,0.0
77,19,42.29,48.3624,145.491,101.78,71.9611,0.00946222,0.295661,20.5083,477.054,3.18124,0.0,0.0
84,20.75,42.6307,50.3269,141.454,101.771,73.3987,0.0106618,0.351957,20.4651,476.844,2.99892,0.0,0.0
91,22.5,44.2224,52.7016,142.285,101.765,72.8566,0.0106826,0.39102,20.4523,476.554,3.06638,0.0,0.0
98,24.25,44.9017,53.1064,149.877,101.735,80.2088,0.00971838,0.40643,20.4815,476.404,2.18156,0.0,0.0
105,26,44.9057,53.9564,148.893,101.746,82.2629,0.00855194,0.400788,20.5143,476.364,1.95048,0.0,0.0
112,27.75,45.4661,53.762,148.562,101.743,87.0944,0.00671366,0.377556,20.5644,476.324,1.42652,0.0,0.0
119,29.5,45.3782,53.5184,148.532,101.722,88.8793,0.00520417,0.354406,20.6113,476.233,1.23843,0.0,0.0
126,31.25,45.1735,53.6288,152.111,101.728,88.6354,0.00402224,0.320849,20.6518,476.203,1.26417,0.0,0.0
133,33,45.3548,53.29,153.487,101.726,92.2301,0.00311777,0.292644,20.683,476.173,0.899186,0.0,0.0
140,34.75,44.5531,52.6022,151.353,101.736,96.7831,0.00229743,0.264643,20.7182,476.153,0.457986,0.0,0.0
147,36.5,44.3668,52.1821,152.172,101.704,98.9261,0.00170283,0.237182,20.7542,476.123,0.25413,0.0,0.0
154,38.25,43.6775,51.3312,152.248,101.703,99.3221,0.00134176,0.209707,20.7829,476.073,0.217358,0.0,0.0
161,40,42.7317,49.0136,157.73,101.697,99.5224,0.00109911,0.187307,20.7997,476.163,0.198351,0.0,0.0
168,41.75,41.8749,48.9282,157.683,101.71,99.4113,0.000892355,0.168362,20.8093,476.163,0.209786,0.0,0.0
175,43.5,41.8329,47.5477,154.779,101.718,99.5386,0.000762791,0.15563,20.8174,476.153,0.198715,0.0,0.0
182,45.25,41.396,47.4535,155.748,101.712,99.7115,0.000704897,0.14341,20.8247,476.103,0.182268,0.0,0.0
189,47,40.7552,46.5461,158.441,101.715,99.426,0.000671878,0.134258,20.83,476.083,0.208875,0.0,0.0
196,48.75,40.9214,46.2178,154.657,101.721,99.5401,0.000669194,0.12703,20.8344,476.093,0.198871,0.0,0.0
203,50.5,40.5149,45.8338,157.779,101.735,99.3662,0.000658381,0.121391,20.8384,476.103,0.216184,0.0,0.0
210,52.25,40.4445,45.7207,156.917,101.727,99.7212,0.000638574,0.116305,20.8424,476.093,0.182757,0.0,0.0
217,54,40.155,45.4799,156.496,101.718,99.4565,0.000681508,0.112528,20.8448,476.083,0.206328,0.0,0.0
224,55.75,39.886,45.4125,151.221,101.726,99.5102,0.000718192,0.108702,20.8481,476.073,0.202039,0.0,0.0
231,57.5,39.77,44.5547,155.957,101.74,99.6106,0.000732183,0.105607,20.85,476.043,0.194086,0.0,0.0
238,59.25,39.5527,44.5077,157.508,101.73,99.5168,0.00076241,0.103144,20.8533,476.083,0.201804,0.0,0.0
245,61,39.0867,44.5798,156.811,101.729,99.3495,0.000784773,0.100757,20.8549,476.063,0.217171,0.0,0.0
252,62.75,39.9508,44.4691,156.589,101.728,99.782,0.000740127,0.0987347,20.8556,476.103,0.177196,0.0,0.0
259,64.5,39.9359,44.0072,154.351,101.726,99.5685,0.000637563,0.0971403,20.857,476.053,0.196737,0.0,0.0
266,66.25,39.7437,43.9895,151.886,101.719,99.3687,0.000557258,0.0960546,20.8587,476.063,0.214499,0.0,0.0
273,68,39.0852,44.2085,157.751,101.712,99.5178,0.000528226,0.0949422,20.8599,476.063,0.200073,0.0,0.0
280,69.75,39.3728,43.7239,163.463,101.709,99.3079,0.00058254,0.0940878,20.8605,476.113,0.219265,0.0,0.0
287,71.5,38.746,43.3549,155.017,101.716,99.3926,0.000691055,0.0931785,20.8607,476.023,0.212001,0.0,0.0
294,73.25,38.6534,43.0712,153.485,101.708,99.7759,0.000767552,0.0928776,20.8604,476.023,0.176008,0.0,0.0
301,75,38.6242,43.3035,155.533,101.693,99.8337,0.000752407,0.0926447,20.8603,476.043,0.169317,0.0,0.0
308,76.75,39.0288,43.0943,155.89,101.684,99.4423,0.000658892,0.092339,20.8607,476.033,0.204551,0.0,0.0
315,78.5,39.2121,43.5802,159.071,101.672,99.7856,0.000555408,0.0919294,20.8616,476.053,0.171886,0.0,0.0
322,80.25,39.2502,43.1976,154.878,101.683,99.5325,0.000504867,0.0916373,20.8621,476.013,0.196188,0.0,0.0
329,82,39.1375,42.9842,156.801,101.666,99.3368,0.000561233,0.0914533,20.8623,475.983,0.212688,0.0,0.0
336,83.75,38.7169,43.1181,155.177,101.651,99.1005,0.000633904,0.0912276,20.8624,475.983,0.233204,0.0,0.0
343,85.5,38.701,42.6204,152.962,101.618,99.6988,0.000697234,0.0910544,20.8624,475.983,0.174989,0.0,0.0
350,87.25,38.6108,42.6317,155.165,101.611,98.9509,0.000729068,0.0907778,20.8635,476.013,0.243454,0.0,0.0
357,89,38.7669,42.881,161.258,101.609,99.4889,0.000693723,0.0904817,20.8649,475.973,0.193475,0.0,0.0
364,90.75,38.9444,42.5612,154.726,101.582,99.5371,0.00056262,0.0902489,20.8655,475.963,0.186575,0.0,0.0
371,92.5,38.7334,42.9904,153.703,101.574,99.1512,0.000427908,0.090033,20.8658,475.983,0.221512,0.0,0.0
378,94.25,38.8975,42.7123,154.277,101.558,99.3403,0.000350295,0.0896508,20.8659,475.943,0.202608,0.0,0.0
385,96,38.8849,42.8276,151.764,101.556,99.2531,0.000310965,0.0892846,20.866,475.983,0.210445,0.0,0.0
392,97.75,38.6311,42.71,157.874,101.528,99.2846,0.000290361,0.0888679,20.8671,475.963,0.205043,0.0,0.0
399,99.5,38.5936,42.5923,155.254,101.511,99.1015,0.00029268,0.0884987,20.8678,475.983,0.220413,0.0,0.0
406,101.25,38.2487,42.8778,152.539,101.509,99.0391,0.000346831,0.0882949,20.8681,475.983,0.226003,0.0,0.0
413,103,39.1562,42.5581,160.561,101.509,98.8622,0.000389761,0.0879307,20.8682,475.983,0.242452,0.0,0.0
420,104.75,38.4512,42.5783,152.704,101.5,98.9479,0.00041765,0.08764,20.8683,476.013,0.233643,0.0,0.0
427,106.5,38.5223,42.3828,155.793,101.484,99.3479,0.000509368,0.0873545,20.8684,475.993,0.1952,0.0,0.0
434,108.25,38.1489,42.9345,157.416,101.466,98.848,0.000681138,0.0870774,20.8696,476.013,0.239857,0.0,0.0
441,110,38.2143,42.766,161.421,101.454,99.2222,0.00082534,0.0869335,20.8702,475.993,0.204101,0.0,0.0
448,111.75,38.3716,42.1078,159.165,101.461,98.9869,0.000817356,0.0866036,20.8702,475.993,0.226519,0.0,0.0
455,113.5,38.1966,41.9899,166.117,101.454,98.9225,0.000670157,0.0864186,20.8701,475.993,0.231858,0.0,0.0
462,115.25,38.6057,42.0599,155.648,101.416,98.9631,0.00052268,0.0861949,20.8701,475.973,0.224702,0.0,0.0
469,117,38.3322,42.7037,157.331,101.435,98.7156,0.000477543,0.0859879,20.8701,475.973,0.249355,0.0,0.0
476,118.75,38.3969,42.2089,155.449,101.43,98.9088,0.000533628,0.0858285,20.87,475.953,0.230965,0.0,0.0
483,120.5,38.2606,41.8647,154.717,101.414,98.9291,0.000576302,0.0856319,20.87,475.973,0.227629,0.0,0.0
490,122.25,37.9677,42.8552,156.128,101.405,98.9783,0.000563248,0.0854893,20.87,475.933,0.222285,0.0,0.0
497,124,37.9513,42.0743,153.337,101.403,98.9671,0.000547932,0.0853418,20.87,475.933,0.223133,0.0,0.0
504,125.75,38.1954,41.9173,157.172,101.416,98.7724,0.000561872,0.0852322,20.8701,475.923,0.242324,0.0,0.0
511,127.5,38.362,42.3705,158.687,101.411,98.997,0.000559353,0.085107,20.8713,475.933,0.221031,0.0,0.0
518,129.25,38.3191,42.1567,155.929,101.404,98.9012,0.000541852,0.0848999,20.8723,475.933,0.229322,0.0,0.0
525,131,38.2688,42.0976,156.095,101.401,98.991,0.000481233,0.0845776,20.8728,475.903,0.2207,0.0,0.0
532,132.75,37.5022,41.8769,158.598,101.41,98.9717,0.000363617,0.0844352,20.873,475.903,0.223306,0.0,0.0
539,134.5,38.4661,41.7615,157.136,101.418,98.6827,0.000276236,0.0843917,20.8729,475.913,0.250927,0.0,0.0
546,136.25,37.9799,42.3632,156.51,101.4,98.5569,0.000210429,0.0843464,20.8725,475.943,0.260949,0.0,0.0
553,138,38.053,41.7426,156.403,101.388,98.7663,0.00016876,0.0840818,20.872,475.893,0.240427,0.0,0.0
560,139.75,38.4106,41.3549,160.236,101.4,98.9169,9.80446e-05,0.0839357,20.8717,475.913,0.227527,0.0,0.0
567,141.5,38.4182,42.4427,157.864,101.409,99.2075,2.85578e-05,0.0839399,20.8716,475.973,0.201359,0.0,0.0
574,143.25,38.0202,41.9316,156.85,101.411,99.0143,2.3315e-05,0.0838834,20.8715,475.933,0.219432,0.0,0.0
581,145,38.2764,42.0666,151.786,101.409,98.6913,7.72047e-05,0.0838791,20.8715,475.923,0.249305,0.0,0.0
588,146.75,37.9291,41.8111,158.242,101.409,98.919,0.000121108,0.083932,20.8715,475.913,0.228123,0.0,0.0
595,148.5,38.5939,41.9692,157.14,101.422,99.0898,,0.0839009,,475.923,0.213441,0.0,0.0
602,150.25,38.2391,42.0635,153.739,101.432,99.1862,,0.0837327,,475.943,0.205418,0.0,0.0
609,152,38.4199,42.2571,155.825,101.424,99.1187,,,,475.933,0.210988,0.0,0.0
616,153.75,38.5088,42.1672,158.706,101.413,98.8307,,,,475.943,0.236647,0.0,0.0
623,155.5,38.0619,42.2351,150.626,101.417,99.2612,,,,475.893,0.197136,0.0,0.0
630,157.25,37.9269,42.0962,153.234,101.412,98.7313,,,,475.913,0.245805,0.0,0.0
637,159,38.4312,42.1196,155.831,101.43,99.0706,,,,475.903,0.216008,0.0,0.0
638,159.25,38.4552,42.3236,157.632,101.421,99.0716,,,,475.933,0.215094,0.0,0.0