Folder: fsri_materials_database/01_Data/Overstuffed_Chair_Polyester_Fabric/Cone (part 2)

File: Overstuffed_Chair_Polyester_Fabric_Cone_HF75Scan_210325_R3.csv
Names,Time,Stack TC,Smoke TC,Exh Press,Smoke Comp,Smoke Meas,CO Meter,CO2 Meter,O2 Meter,Sample Mass,Ext Coeff,Start Test,Flame Verif
Chan Gain,,500,500,1,1,1,1,1,1,1,1,1.0,1.0
Offset,,0,0,0.138348,0,0,0,0,0,0,0,0.0,0.0
Gain,,1,1,25.011,13.5067,16.616,1,1,1,1.00091,1.04608,1.0,1.0
Units,sec,C,C,Pa,%,%,%,%,%,g,/m,,
Baseline,,40.6641,44.4855,156.459,102.019,99.3066,-0.000610263,0.0819431,20.8725,-0.408496,0.247306,,
7,1.5,35.9665,38.0186,157.319,102.03,99.0944,-0.000710302,0.0896215,20.8669,471.779,0.267897,0.0,0.0
14,3.25,36.4945,38.6832,157.079,102.021,99.1766,-0.000675693,0.0907042,20.8662,468.536,0.259515,0.0,0.0
21,5,36.8956,39.1521,157.181,102.02,99.1299,-0.00062873,0.0908854,20.8663,468.396,0.263722,0.0,0.0
28,6.75,37.14,39.7131,158.725,102.019,99.1603,-0.000562501,0.0904715,20.8671,468.486,0.260832,0.0,0.0
35,8.5,37.0382,39.8416,154.19,102.021,99.3317,-0.000298315,0.0906001,20.864,468.476,0.245171,0.0,0.0
42,10.25,37.4629,40.2562,150.946,102.022,91.976,0.000471894,0.0977472,20.8351,468.406,0.951227,0.0,1.0
49,12,38.4281,41.8845,151.037,102.021,84.4327,0.00187188,0.126248,20.7747,468.316,1.73631,0.0,1.0
56,13.75,37.7133,42.1143,147.625,101.999,77.542,0.00467409,0.173075,20.6923,468.166,2.51559,0.0,1.0
63,15.5,39.1138,44.9106,141.862,102.014,71.3465,0.00803052,0.243382,20.5653,467.926,3.28107,0.0,0.0
70,17.25,41.8089,48.4319,140.096,102.017,69.9379,0.0105903,0.33335,20.4555,467.616,3.46427,0.0,0.0
77,19,43.5323,50.7606,138.427,101.986,71.8146,0.0126222,0.407355,20.3947,467.275,3.21855,0.0,0.0
84,20.75,44.5858,53.5067,138.736,101.978,70.1387,0.0128916,0.45279,20.3654,467.135,3.43448,0.0,0.0
91,22.5,46.0044,54.6176,140.952,101.982,77.3473,0.0114495,0.465749,20.4016,466.945,2.53714,0.0,0.0
98,24.25,45.9031,55.0525,154.506,101.977,81.8355,0.00929586,0.449565,20.4723,466.815,2.01911,0.0,0.0
105,26,45.8092,54.0057,151.635,101.975,86.1401,0.00732402,0.411997,20.5432,466.735,1.54849,0.0,0.0
112,27.75,45.719,54.5598,153.147,101.961,88.3859,0.0055017,0.370709,20.599,466.635,1.31109,0.0,0.0
119,29.5,45.0211,53.9047,158.905,101.955,93.2742,0.00391168,0.326931,20.6529,466.605,0.816541,0.0,0.0
126,31.25,45.1017,52.8652,157.115,101.962,98.5853,0.00262848,0.284963,20.7096,466.625,0.309007,0.0,0.0
133,33,44.3692,52.0958,158.275,101.949,99.2095,0.00174837,0.241567,20.7552,466.635,0.249939,0.0,0.0
140,34.75,44.4824,51.5578,151.073,101.933,99.316,0.00120734,0.206486,20.7888,466.625,0.238648,0.0,0.0
147,36.5,43.3499,50.4062,156.606,101.93,99.0665,0.000884229,0.178575,20.8115,466.615,0.261431,0.0,0.0
154,38.25,43.1346,49.9998,152.972,101.93,99.2445,0.000682707,0.157025,20.8273,466.595,0.244997,0.0,0.0
161,40,42.5598,49.1719,158.217,101.934,99.3758,0.000576035,0.141416,20.8366,466.615,0.23327,0.0,0.0
168,41.75,41.5669,47.4266,158.127,101.93,99.4321,0.000527225,0.13025,20.8424,466.625,0.227666,0.0,0.0
175,43.5,41.1702,47.4764,159.849,101.906,99.3277,0.00046527,0.122417,20.8479,466.605,0.235158,0.0,0.0
182,45.25,40.7397,46.7412,158.091,101.911,99.1035,0.000401287,0.115369,20.8524,466.585,0.256333,0.0,0.0
189,47,40.9038,46.4286,159.104,101.897,99.0761,0.000372277,0.110149,20.8547,466.595,0.257644,0.0,0.0
196,48.75,40.1748,45.8246,151.491,101.884,99.5665,0.000363161,0.106385,20.856,466.615,0.211116,0.0,0.0
203,50.5,40.6181,45.4099,152.364,101.878,99.1674,0.000361045,0.103345,20.8576,466.605,0.247449,0.0,0.0
210,52.25,39.6126,45.1566,153.655,101.888,99.3302,0.00031306,0.101213,20.8584,466.575,0.233254,0.0,0.0
217,54,39.8514,44.5275,158.24,101.881,99.0782,0.000228388,0.0994385,20.8595,466.575,0.256009,0.0,0.0
224,55.75,39.8147,44.9853,155.919,101.862,99.5487,0.000160073,0.0981653,20.8605,466.575,0.210747,0.0,0.0
231,57.5,39.87,44.6009,151.15,101.852,99.5259,0.000239427,0.0969628,20.861,466.555,0.212034,0.0,0.0
238,59.25,39.2342,43.7969,154.912,101.879,99.1923,0.000434847,0.0961048,20.8612,466.555,0.245225,0.0,0.0
245,61,39.2216,44.4914,152.467,101.875,99.2648,0.000594166,0.0952223,20.8613,466.515,0.238185,0.0,0.0
252,62.75,39.4093,43.429,157.203,101.859,99.208,0.000599918,0.0944008,20.8614,466.515,0.241988,0.0,0.0
259,64.5,39.4915,43.6639,153.993,101.844,99.2252,0.000527879,0.0938339,20.8614,466.525,0.239057,0.0,0.0
266,66.25,39.0355,43.9523,156.685,101.843,98.991,0.000364247,0.0932411,20.8614,466.515,0.260636,0.0,0.0
273,68,39.1818,43.3286,156.03,101.844,99.0173,0.000157027,0.0928042,20.8614,466.505,0.258304,0.0,0.0
280,69.75,38.8157,43.4781,156.254,101.847,99.3038,7.38484e-06,0.0923628,20.8614,466.485,0.232052,0.0,0.0
287,71.5,38.5165,43.4402,159.353,101.835,99.2668,5.65815e-06,0.0920273,20.8626,466.525,0.234359,0.0,0.0
294,73.25,39.2025,43.4413,156.254,101.832,99.0229,0.000189838,0.0916896,20.8632,466.505,0.25671,0.0,0.0
301,75,38.8519,42.9136,155.583,101.832,99.2628,0.000261983,0.0914381,20.8634,466.505,0.234473,0.0,0.0
308,76.75,39.3358,42.6168,152.69,101.846,99.2663,0.000229537,0.0912966,20.8636,466.505,0.235408,0.0,0.0
315,78.5,39.1551,43.2767,161.286,101.85,98.9732,0.000290822,0.0911702,20.8636,466.445,0.262913,0.0,0.0
322,80.25,38.6682,42.8629,156.683,101.825,98.9311,0.000359649,0.0908292,20.8637,466.475,0.26455,0.0,0.0
329,82,38.5204,43.1647,151.808,101.816,99.1182,0.000335399,0.0904601,20.8638,466.475,0.246431,0.0,0.0
336,83.75,38.5572,42.8371,155.255,101.826,99.3175,0.000267289,0.09025,20.8642,466.455,0.228892,0.0,0.0
343,85.5,38.6332,42.4935,153.619,101.831,99.209,0.000276947,0.090074,20.8644,466.465,0.239406,0.0,0.0
350,87.25,38.1292,42.6903,153.352,101.818,99.1684,0.000389051,0.089882,20.8653,466.465,0.241971,0.0,0.0
357,89,38.3952,42.9211,156.109,101.813,99.1477,0.000569483,0.089561,20.8662,466.475,0.243411,0.0,0.0
364,90.75,38.956,42.555,152.804,101.824,99.4052,0.000685894,0.0893535,20.8666,466.455,0.220605,0.0,0.0
371,92.5,38.8581,42.1479,153.031,101.828,99.1781,0.000713446,0.0891305,20.8667,466.495,0.241934,0.0,0.0
378,94.25,37.9494,42.4146,158.617,101.81,98.9818,0.000689229,0.0888076,20.8662,466.475,0.25851,0.0,0.0
385,96,38.5482,42.559,157.835,101.802,99.1122,0.000642252,0.0886395,20.865,466.475,0.245694,0.0,0.0
392,97.75,38.6544,42.2751,154.289,101.811,99.2587,0.000583268,0.0885888,20.8647,466.455,0.232992,0.0,0.0
399,99.5,38.7578,42.5508,156.039,101.828,99.1629,0.000552779,0.0883507,20.8654,466.465,0.243341,0.0,0.0
406,101.25,38.3041,42.2652,155.925,101.821,99.2521,0.00058638,0.0880886,20.8658,466.455,0.234456,0.0,0.0
413,103,38.0731,42.6747,153.046,101.814,99.1618,0.000610456,0.0879148,20.866,466.465,0.242171,0.0,0.0
420,104.75,37.9684,42.6386,156.192,101.81,99.1578,0.000594871,0.0878606,20.8661,466.435,0.242176,0.0,0.0
427,106.5,38.438,42.3301,157.911,101.816,99.2653,0.000586426,0.0880899,20.8659,466.465,0.232827,0.0,0.0
434,108.25,38.3628,42.227,155.745,101.816,99.3312,0.000565535,0.0884558,20.8648,466.485,0.226698,0.0,0.0
441,110,38.6063,41.9549,154.738,101.807,99.0417,0.000506583,0.0889469,20.8643,466.465,0.252705,0.0,0.0
448,111.75,38.9802,42.5925,158.271,101.798,99.1532,0.000369052,0.0893697,20.864,466.425,0.24152,0.0,0.0
455,113.5,38.4347,42.5441,154.4,101.805,99.5853,0.000318646,0.0897451,20.8638,466.455,0.202257,0.0,0.0
462,115.25,38.3903,42.3822,152.642,101.808,99.3596,0.000354289,0.0896448,20.8642,466.445,0.22337,0.0,0.0
469,117,37.9515,42.5163,157.973,101.81,99.0057,0.000449421,0.0892461,20.8652,466.425,0.256264,0.0,0.0
476,118.75,38.8948,42.5118,154.796,101.784,99.3236,0.0005966,0.0887542,20.8656,466.445,0.22454,0.0,0.0
483,120.5,38.67,42.4246,157.863,101.801,99.2049,0.000703902,0.0883725,20.866,466.415,0.237033,0.0,0.0
490,122.25,38.8732,42.5899,154.222,101.784,98.8353,0.000686368,0.0879216,20.8672,466.415,0.269765,0.0,0.0
497,124,38.4944,42.6794,158.991,101.779,99.2628,0.000587845,0.0875177,20.8678,466.445,0.229718,0.0,0.0
504,125.75,38.6586,42.7196,158.447,101.762,99.2359,0.000423183,0.0872347,20.8681,466.485,0.230679,0.0,0.0
511,127.5,38.6206,42.5152,152.413,101.754,99.1248,0.000327664,0.087054,20.8682,466.435,0.240247,0.0,0.0
518,129.25,38.5256,42.5261,156.792,101.749,99.3393,0.000242072,0.0867248,20.8683,466.435,0.219929,0.0,0.0
525,131,38.3988,42.2524,155.927,101.749,99.2871,0.000144966,0.0864368,20.8683,466.445,0.224755,0.0,0.0
532,132.75,38.0208,42.4471,155.116,101.729,99.0782,6.74609e-05,0.0861217,20.8686,466.415,0.242262,0.0,0.0
539,134.5,38.3997,42.7561,158.577,101.687,98.9453,6.33422e-05,0.0858052,20.8693,466.395,0.250819,0.0,0.0
546,136.25,38.7484,42.3985,157.017,101.667,99.3571,0.000132528,0.0853861,20.8697,466.405,0.210927,0.0,0.0
553,138,38.4211,42.3892,156.99,101.642,99.1167,0.000120479,0.0850434,20.8706,466.375,0.230845,0.0,0.0
560,139.75,38.1,42.154,156.138,101.634,99.0427,5.41411e-05,0.084805,20.8713,466.365,0.236957,0.0,0.0
567,141.5,38.2895,42.3563,151.672,101.599,99.0254,1.63732e-05,0.0846535,20.8715,466.405,0.235391,0.0,0.0
574,143.25,38.353,41.9285,155.794,101.584,99.0609,-2.58613e-05,0.0845774,20.8719,466.395,0.230761,0.0,0.0
581,145,37.9999,42.337,158.787,101.582,98.9362,-0.00010763,0.0845527,20.8721,466.385,0.242212,0.0,0.0
588,146.75,38.3874,42.3467,152.442,101.572,99.0777,-0.00016315,0.0844585,20.8726,466.395,0.228132,0.0,0.0
595,148.5,38.0112,42.2128,155.133,101.566,98.9271,-0.000202861,0.0844151,20.8729,466.405,0.241532,0.0,0.0
602,150.25,38.3159,42.9448,151.616,101.525,98.779,-0.000278933,0.084308,20.873,466.405,0.25159,0.0,0.0
609,152,38.0815,42.8853,153.836,101.511,99.0183,,0.084299,,466.415,0.228116,0.0,0.0
616,153.75,38.4275,42.4491,160.101,101.53,98.7724,,,,466.415,0.252686,0.0,0.0
623,155.5,38.5508,42.9602,155.04,101.524,99.0107,,,,466.445,0.230013,0.0,0.0
630,157.25,38.232,42.0847,156.288,101.516,98.8231,,,,466.425,0.24671,0.0,0.0
637,159,38.0391,42.0279,153.344,101.526,98.8713,,,,466.395,0.243132,0.0,0.0
644,160.75,38.4614,41.6452,154.481,101.537,98.6,,,,466.405,0.269312,0.0,0.0
646,161.25,38.1424,42.3094,155.799,101.535,98.8916,,,,466.395,0.242106,0.0,0.0