Folder: fsri_materials_database/01_Data/Overstuffed_Chair_Polyester_Fabric/MCC

Note: 01_Data/README.md
# Materials and Products Database
## 01_Data

Raw data generated from each apparatus are included here in plain-text format. The data is organized first by material, next by the short name of test apparatus used, and where applicable additional filtering by test settings.

### material.json

Each material directory contains a json file of the same name as the material. This file links the data stored in the repository as well as data and graphs produced by the accompanying scripts (__02_Scripts__) to the respective landing page for the material on the front-end website.

File: Overstuffed_Chair_Polyester_Fabric_MCC_30K_min_210308_R1.txt
Sample ID:	C:\MCC\MCC Cal\Test\Polyester_Fabric_30_1.txt
Sample Weight (mg):	3.05
Heating Rate (C/s):	0.5
Combustor Temp (C):	900
N2 Flow Rate (cc/min):	80
O2 Flow Rate (cc/min):	20
Calibration File:	C:\MCC\MCC Cal\Coeff1 JN10440_30_210304.txt.txt
T Correction Coefficients:	0	1.024463	0
Time Shift (s):	14
*
Time (s)	Temperature (C)	N2 flow rate (cc/min)	O2 flow rate (cc/min)	Flow Rate (cc/min)	Oxygen (%)	HRR (W/g)	Heating rate (C/s)
0.000	107.357	79.993	19.991	99.583	20.291	-0.025	-0.025
7.500	107.338	79.992	19.992	99.604	20.295	-0.469	0.016
15.000	107.271	79.993	19.992	99.596	20.293	-0.271	-0.030
22.500	107.310	79.994	19.991	99.602	20.286	0.464	-0.010
30.000	107.336	79.993	19.992	99.673	20.282	0.897	0.012
37.501	107.645	79.995	19.991	99.781	20.265	2.655	0.043
45.000	108.517	79.996	19.990	99.803	20.258	3.285	0.146
52.500	109.591	79.993	19.991	99.799	20.252	3.971	0.155
60.000	111.127	79.993	19.991	99.800	20.243	4.875	0.219
67.500	112.931	79.993	19.992	99.875	20.242	4.932	0.316
75.000	115.049	79.993	19.992	99.875	20.236	5.555	0.290
82.500	117.496	79.994	19.992	99.873	20.238	5.405	0.360
90.000	120.221	79.993	19.993	99.891	20.234	5.822	0.368
97.500	123.160	79.997	19.992	99.910	20.242	4.960	0.377
105.001	126.206	79.995	19.992	99.885	20.235	5.674	0.418
112.500	129.495	79.994	19.993	99.903	20.234	5.748	0.430
120.000	132.817	79.994	19.992	99.909	20.240	5.180	0.449
127.500	136.368	79.995	19.992	99.899	20.234	5.750	0.480
135.000	139.956	79.993	19.990	99.913	20.238	5.348	0.470
142.500	143.652	79.994	19.992	99.906	20.231	6.104	0.487
150.000	147.340	79.994	19.992	99.906	20.237	5.477	0.492
157.500	151.111	79.994	19.992	99.911	20.234	5.749	0.487
165.000	154.862	79.994	19.991	99.912	20.237	5.487	0.481
172.500	158.590	79.994	19.991	99.897	20.239	5.264	0.484
180.000	162.409	79.995	19.994	99.907	20.239	5.307	0.527
187.500	166.173	79.995	19.991	99.902	20.234	5.786	0.504
195.000	169.955	79.992	19.990	99.885	20.239	5.305	0.496
202.500	173.703	79.996	19.991	99.891	20.237	5.479	0.540
210.000	177.421	79.994	19.992	99.894	20.241	5.107	0.476
217.500	181.164	79.991	19.991	99.905	20.240	5.189	0.528
225.001	184.947	79.992	19.991	99.846	20.241	5.068	0.518
232.500	188.689	79.994	19.991	99.908	20.236	5.605	0.492
240.001	192.459	79.994	19.991	99.908	20.238	5.345	0.509
247.500	196.054	79.993	19.991	99.900	20.237	5.490	0.473
255.000	199.815	79.994	19.991	99.921	20.241	5.118	0.509
262.500	203.491	79.995	19.991	99.908	20.240	5.132	0.498
270.000	207.273	79.994	19.992	99.928	20.235	5.657	0.508
277.500	210.976	79.994	19.991	99.891	20.236	5.538	0.477
285.000	214.675	79.996	19.991	99.887	20.230	6.207	0.465
292.500	218.431	79.996	19.991	99.928	20.242	4.981	0.495
300.000	222.193	79.994	19.992	99.911	20.238	5.363	0.519
307.500	225.964	79.992	19.992	99.915	20.237	5.491	0.520
315.000	229.766	79.993	19.990	99.901	20.234	5.775	0.495
322.500	233.529	79.993	19.990	99.881	20.229	6.298	0.482
330.000	237.257	79.991	19.992	99.907	20.235	5.650	0.488
337.500	240.942	79.994	19.992	99.897	20.229	6.313	0.470
345.000	244.749	79.996	19.992	99.906	20.227	6.498	0.501
352.500	248.472	79.994	19.992	99.922	20.233	5.902	0.511
360.000	252.316	79.996	19.993	99.911	20.234	5.784	0.514
367.500	256.049	79.995	19.990	99.887	20.232	6.038	0.475
375.000	259.795	79.995	19.992	99.915	20.235	5.642	0.472
382.500	263.524	79.992	19.992	99.916	20.232	5.983	0.528
390.000	267.287	79.992	19.993	99.912	20.237	5.485	0.487
397.500	271.013	79.994	19.995	99.919	20.233	5.867	0.486
405.000	274.793	79.993	19.992	99.908	20.234	5.793	0.462
412.500	278.547	79.992	19.991	99.918	20.229	6.280	0.496
420.000	282.326	79.994	19.991	99.914	20.228	6.391	0.488
427.500	286.064	79.995	19.991	99.931	20.229	6.300	0.474
435.000	289.843	79.994	19.991	99.913	20.227	6.554	0.505
442.500	293.663	79.994	19.992	99.926	20.220	7.196	0.482
450.000	297.495	79.995	19.992	99.917	20.218	7.406	0.512
457.500	301.250	79.995	19.991	99.934	20.221	7.153	0.501
465.000	305.027	79.993	19.992	99.925	20.216	7.603	0.492
472.500	308.917	79.993	19.992	99.924	20.213	7.942	0.531
480.000	312.743	79.992	19.992	99.920	20.215	7.725	0.506
487.500	316.558	79.993	19.992	99.917	20.216	7.595	0.514
495.000	320.329	79.994	19.991	99.924	20.210	8.245	0.483
502.500	324.187	79.994	19.990	99.918	20.215	7.719	0.490
510.000	328.029	79.993	19.992	99.916	20.210	8.217	0.500
517.500	331.813	79.994	19.990	99.925	20.219	7.330	0.487
525.000	335.597	79.993	19.989	99.918	20.210	8.195	0.520
532.500	339.384	79.997	19.991	99.933	20.204	8.869	0.486
540.000	343.161	79.993	19.992	99.930	20.201	9.141	0.485
547.500	346.939	79.994	19.992	99.923	20.189	10.421	0.505
555.000	350.770	79.993	19.993	99.924	20.185	10.763	0.481
562.500	354.552	79.993	19.992	99.916	20.177	11.622	0.459
570.000	358.400	79.992	19.993	99.953	20.158	13.525	0.495
577.500	362.184	79.993	19.991	99.945	20.151	14.319	0.452
585.000	366.004	79.994	19.990	99.952	20.147	14.734	0.511
592.500	369.857	79.993	19.991	99.936	20.134	16.048	0.542
600.000	373.736	79.996	19.992	99.949	20.124	17.010	0.519
607.500	377.576	79.996	19.990	99.949	20.111	18.396	0.523
615.000	381.416	79.995	19.990	99.958	20.106	18.894	0.515
622.500	385.260	79.994	19.992	99.965	20.097	19.775	0.532
630.000	389.070	79.994	19.992	99.961	20.089	20.601	0.523
637.500	393.018	79.994	19.992	99.957	20.083	21.220	0.552
645.000	396.822	79.994	19.991	99.959	20.064	23.218	0.498
652.500	400.604	79.992	19.991	99.970	20.020	27.706	0.493
660.000	404.406	79.992	19.992	100.000	19.965	33.309	0.493
667.500	408.206	79.995	19.992	99.990	19.904	39.601	0.486
675.000	411.971	79.995	19.992	100.039	19.827	47.512	0.506
682.500	415.682	79.993	19.989	100.098	19.709	59.564	0.496
690.000	419.442	79.996	19.990	100.112	19.596	71.194	0.491
697.500	423.193	79.995	19.990	100.176	19.455	85.660	0.507
705.000	426.932	79.993	19.992	100.231	19.246	107.295	0.471
712.500	430.693	79.993	19.991	100.356	19.029	129.440	0.499
720.000	434.471	79.994	19.991	100.327	18.770	156.243	0.502
727.500	438.241	79.993	19.991	100.429	18.714	161.924	0.521
735.000	442.103	79.993	19.992	100.452	18.677	165.818	0.520
742.500	445.936	79.993	19.991	100.451	18.636	170.004	0.529
750.000	449.815	79.996	19.994	100.425	18.666	166.867	0.537
757.500	453.633	79.995	19.991	100.408	18.793	153.533	0.514
765.000	457.443	79.996	19.990	100.351	18.995	132.759	0.511
772.500	461.229	79.996	19.989	100.303	19.257	105.902	0.497
780.000	465.071	79.996	19.990	100.168	19.556	75.184	0.523
787.500	468.892	79.995	19.992	100.131	19.781	52.142	0.521
795.000	472.688	79.995	19.989	99.998	19.922	37.706	0.538
802.500	476.550	79.994	19.991	100.006	20.022	27.440	0.536
810.000	480.351	79.994	19.992	99.989	20.088	20.673	0.494
817.500	484.189	79.994	19.992	99.944	20.135	15.870	0.514
825.000	488.046	79.993	19.991	99.952	20.170	12.319	0.495
832.500	491.883	79.993	19.992	99.913	20.194	9.870	0.548
840.000	495.722	79.995	19.992	99.904	20.201	9.150	0.506
847.500	499.528	79.995	19.993	99.891	20.212	8.009	0.527
855.000	503.467	79.997	19.991	99.907	20.218	7.401	0.559
862.500	507.415	79.996	19.991	99.909	20.222	6.995	0.441
870.000	511.099	79.993	19.991	99.945	20.220	7.210	0.463
877.500	515.127	79.993	19.992	99.902	20.219	7.289	0.573
885.000	519.047	79.996	19.990	99.893	20.221	7.077	0.495
892.500	523.018	79.994	19.992	99.896	20.223	6.951	0.529
900.000	526.963	79.993	19.992	99.883	20.218	7.408	0.515
907.500	530.919	79.993	19.992	99.913	20.226	6.599	0.525
915.000	534.921	79.997	19.992	99.910	20.225	6.743	0.539
922.500	538.869	79.993	19.992	99.891	20.227	6.458	0.547
930.000	542.737	79.995	19.991	99.883	20.226	6.628	0.560
937.500	546.637	80.000	19.991	99.902	20.226	6.566	0.519
945.000	550.528	79.996	19.990	99.884	20.224	6.848	0.539
952.500	554.406	79.994	19.991	99.898	20.221	7.083	0.546
960.000	558.264	79.992	19.990	99.885	20.225	6.693	0.517
967.500	562.031	79.993	19.990	99.887	20.222	6.990	0.499
975.001	565.911	79.992	19.991	99.884	20.224	6.784	0.543
982.500	569.731	79.993	19.992	99.884	20.223	6.932	0.520
990.000	573.588	79.996	19.992	99.865	20.222	7.019	0.534
997.500	577.472	79.997	19.991	99.821	20.222	6.968	0.522
1005.000	581.313	79.993	19.993	99.901	20.227	6.461	0.515
1012.500	585.161	79.994	19.992	99.889	20.224	6.767	0.521
1020.000	589.033	79.997	19.992	99.898	20.226	6.652	0.542
1027.500	592.854	79.993	19.990	99.872	20.221	7.093	0.508
1035.000	596.804	79.993	19.991	99.891	20.225	6.683	0.509
1042.500	600.666	79.991	19.991	99.913	20.220	7.257	0.509
1050.001	604.546	79.994	19.991	99.875	20.221	7.154	0.508
1057.500	608.409	79.992	19.992	99.876	20.224	6.823	0.468
1065.000	612.301	79.994	19.992	99.877	20.218	7.458	0.525
1072.500	616.139	79.993	19.992	99.875	20.224	6.791	0.533
1080.000	619.994	79.994	19.990	99.877	20.228	6.401	0.504
1087.500	623.802	79.993	19.990	99.877	20.223	6.882	0.518
1095.000	627.621	79.993	19.992	99.877	20.226	6.644	0.523
1102.500	631.368	79.997	19.993	99.861	20.221	7.080	0.483
1110.000	635.226	79.994	19.992	99.865	20.231	6.092	0.510
1117.500	638.959	79.994	19.991	99.871	20.222	7.003	0.490
1125.000	642.772	79.994	19.991	99.815	20.221	7.070	0.483
1132.500	646.432	79.995	19.991	99.880	20.226	6.635	0.479
1140.000	650.291	79.993	19.992	99.915	20.227	6.486	0.520
1147.500	654.145	79.995	19.992	99.879	20.227	6.467	0.502
1155.000	658.029	79.995	19.992	99.874	20.230	6.231	0.500
1162.500	661.872	79.996	19.992	99.875	20.231	6.070	0.499
1170.001	665.716	79.995	19.991	99.854	20.231	6.126	0.524
1177.500	669.464	79.995	19.992	99.871	20.233	5.871	0.500
1185.000	673.303	79.995	19.991	99.871	20.230	6.206	0.493
1192.500	677.174	79.995	19.993	99.870	20.232	5.983	0.511
1200.000	680.966	79.994	19.991	99.868	20.232	5.992	0.539
1207.500	684.771	79.995	19.991	99.879	20.224	6.806	0.590
1215.000	688.517	79.994	19.992	99.871	20.230	6.146	0.496
1222.500	692.397	79.992	19.991	99.871	20.230	6.200	0.518
1230.000	696.255	79.993	19.991	99.881	20.228	6.398	0.515
1237.500	700.059	79.996	19.991	99.883	20.231	6.070	0.495
1245.000	703.876	79.995	19.991	99.874	20.231	6.079	0.515
1252.500	707.662	79.994	19.992	99.822	20.231	6.081	0.516
1260.000	711.571	79.995	19.992	99.857	20.233	5.903	0.502
1267.500	715.432	79.996	19.990	99.870	20.230	6.244	0.476
1275.000	719.257	79.992	19.993	99.872	20.229	6.269	0.489
1282.500	723.071	79.992	19.992	99.843	20.228	6.451	0.554
1290.001	726.861	79.993	19.993	99.893	20.228	6.380	0.541
1297.500	730.721	79.994	19.991	99.878	20.227	6.552	0.522
1305.000	734.497	79.994	19.991	99.856	20.228	6.434	0.488
1312.500	738.338	79.995	19.993	99.870	20.223	6.862	0.517
1320.001	742.161	79.996	19.991	99.870	20.219	7.359	0.508
1322.501	743.441	79.995	19.992	99.872	20.226	6.590	0.485

File: Overstuffed_Chair_Polyester_Fabric_MCC_30K_min_210308_R3.txt
Sample ID:	C:\MCC\MCC Cal\Test\Polyester_Fabric_30_3.txt
Sample Weight (mg):	3.6
Heating Rate (C/s):	0.5
Combustor Temp (C):	900
N2 Flow Rate (cc/min):	80
O2 Flow Rate (cc/min):	20
Calibration File:	C:\MCC\MCC Cal\Coeff1 JN10440_30_210304.txt.txt
T Correction Coefficients:	0	1.024463	0
Time Shift (s):	14
*
Time (s)	Temperature (C)	N2 flow rate (cc/min)	O2 flow rate (cc/min)	Flow Rate (cc/min)	Oxygen (%)	HRR (W/g)	Heating rate (C/s)
-0.001	110.139	79.995	19.991	99.586	20.301	0.147	-0.002
5.999	110.093	79.996	19.991	99.608	20.306	-0.272	0.030
12.000	110.062	79.996	19.991	99.594	20.302	0.071	0.012
18.000	110.088	79.996	19.991	99.610	20.304	-0.047	0.021
23.999	110.091	79.997	19.991	99.603	20.302	0.085	-0.010
29.999	110.063	79.994	19.992	99.634	20.295	0.688	-0.018
35.999	110.175	79.993	19.991	99.670	20.290	1.155	0.011
42.000	110.387	79.995	19.990	99.695	20.281	1.894	0.048
47.999	110.803	79.994	19.991	99.757	20.266	3.171	0.092
53.999	111.521	79.994	19.990	99.791	20.262	3.573	0.142
59.999	112.391	79.994	19.992	99.795	20.263	3.484	0.157
65.999	113.480	79.993	19.992	99.793	20.262	3.569	0.220
71.999	114.713	79.996	19.990	99.817	20.256	4.061	0.211
77.999	116.102	79.996	19.990	99.823	20.252	4.386	0.222
83.999	117.697	79.996	19.991	99.865	20.249	4.692	0.270
89.999	119.465	79.995	19.992	99.871	20.249	4.655	0.295
95.999	121.374	79.995	19.991	99.845	20.246	4.898	0.341
101.999	123.344	79.999	19.991	99.830	20.246	4.924	0.348
108.000	125.500	79.997	19.991	99.824	20.250	4.576	0.340
113.999	127.681	79.994	19.991	99.853	20.248	4.742	0.398
119.999	130.049	79.995	19.992	99.883	20.248	4.750	0.360
126.001	132.381	79.995	19.993	99.861	20.245	5.063	0.395
132.000	134.851	79.996	19.990	99.896	20.244	5.107	0.401
138.000	137.383	79.996	19.990	99.891	20.242	5.288	0.424
144.000	139.976	79.995	19.991	99.905	20.244	5.149	0.407
150.000	142.656	79.994	19.991	99.880	20.242	5.262	0.451
156.000	145.419	79.996	19.991	99.897	20.241	5.379	0.437
162.000	148.175	79.997	19.991	99.890	20.239	5.574	0.442
168.000	151.003	79.998	19.991	99.890	20.240	5.483	0.453
174.000	153.791	79.995	19.992	99.910	20.237	5.728	0.476
180.000	156.687	79.997	19.991	99.902	20.238	5.623	0.500
186.000	159.605	79.998	19.991	99.911	20.236	5.836	0.473
192.000	162.529	79.996	19.990	99.901	20.236	5.843	0.507
198.000	165.463	79.994	19.991	99.895	20.234	5.932	0.484
204.000	168.448	79.995	19.992	99.890	20.237	5.720	0.499
210.000	171.411	79.995	19.992	99.881	20.238	5.635	0.527
216.000	174.504	79.996	19.992	99.901	20.236	5.770	0.493
222.000	177.508	79.996	19.990	99.896	20.241	5.383	0.482
228.000	180.498	79.996	19.991	99.893	20.237	5.730	0.479
234.000	183.508	79.995	19.991	99.886	20.238	5.616	0.492
240.000	186.559	79.998	19.992	99.904	20.242	5.270	0.494
246.000	189.563	79.996	19.991	99.890	20.239	5.532	0.493
252.000	192.625	79.997	19.990	99.904	20.238	5.585	0.542
258.000	195.590	79.998	19.991	99.890	20.238	5.613	0.463
264.000	198.550	79.999	19.990	99.887	20.232	6.145	0.505
270.000	201.517	79.997	19.991	99.880	20.234	5.998	0.524
276.000	204.464	79.996	19.991	99.901	20.236	5.817	0.482
282.000	207.521	79.995	19.992	99.906	20.236	5.779	0.515
288.000	210.484	79.994	19.991	99.893	20.234	5.934	0.500
294.000	213.484	79.995	19.991	99.902	20.234	5.958	0.507
300.000	216.419	79.994	19.992	99.912	20.233	6.069	0.490
306.000	219.403	79.994	19.992	99.913	20.233	6.063	0.501
312.000	222.346	79.994	19.991	99.904	20.226	6.700	0.501
318.000	225.351	79.995	19.991	99.899	20.230	6.278	0.517
324.000	228.299	79.997	19.991	99.912	20.227	6.539	0.513
330.000	231.238	79.995	19.990	99.905	20.223	6.949	0.488
336.000	234.212	79.997	19.991	99.909	20.230	6.356	0.475
342.000	237.123	79.997	19.990	99.908	20.229	6.425	0.496
348.000	240.073	79.996	19.991	99.905	20.229	6.385	0.480
354.000	243.015	79.997	19.992	99.906	20.228	6.487	0.465
360.000	245.965	79.995	19.991	99.906	20.227	6.601	0.504
366.000	248.882	79.996	19.991	99.913	20.227	6.591	0.473
372.000	251.856	79.994	19.991	99.913	20.221	7.073	0.473
378.000	254.786	79.997	19.990	99.914	20.224	6.871	0.493
384.000	257.744	79.994	19.991	99.912	20.225	6.714	0.509
390.000	260.650	79.994	19.992	99.909	20.225	6.722	0.461
396.000	263.699	79.994	19.992	99.909	20.227	6.595	0.492
402.000	266.741	79.996	19.991	99.922	20.226	6.657	0.525
408.000	269.812	79.996	19.990	99.870	20.222	6.990	0.534
414.000	272.921	79.995	19.991	99.909	20.224	6.881	0.520
420.000	275.933	79.994	19.991	99.911	20.221	7.142	0.498
426.000	279.010	79.997	19.991	99.914	20.222	6.995	0.512
432.000	282.064	79.996	19.991	99.921	20.225	6.767	0.470
438.000	285.199	79.996	19.991	99.924	20.219	7.265	0.526
444.000	288.259	79.995	19.992	99.925	20.218	7.372	0.501
450.000	291.285	79.993	19.994	99.847	20.216	7.554	0.488
456.000	294.394	79.995	19.991	99.908	20.215	7.616	0.514
462.000	297.406	79.996	19.992	99.920	20.217	7.466	0.499
468.000	300.483	79.996	19.992	99.936	20.214	7.694	0.486
474.000	303.535	79.992	19.993	99.916	20.212	7.874	0.513
480.000	306.515	79.994	19.993	99.915	20.207	8.355	0.482
486.000	309.501	79.997	19.992	99.937	20.208	8.268	0.521
492.000	312.533	79.998	19.990	99.937	20.202	8.780	0.509
498.000	315.549	79.995	19.991	99.920	20.203	8.697	0.516
504.000	318.528	79.996	19.991	99.925	20.202	8.745	0.484
510.000	321.548	80.000	19.991	99.917	20.200	8.882	0.511
516.000	324.579	79.997	19.991	99.920	20.202	8.719	0.492
522.000	327.577	79.995	19.991	99.919	20.198	9.100	0.504
528.000	330.647	79.995	19.992	99.934	20.192	9.641	0.519
534.000	333.709	79.994	19.991	99.947	20.192	9.605	0.530
540.000	336.697	79.996	19.991	99.941	20.189	9.914	0.503
546.000	339.701	79.995	19.991	99.934	20.185	10.186	0.500
552.000	342.742	79.994	19.991	99.948	20.178	10.792	0.517
558.000	345.748	79.994	19.991	99.928	20.174	11.175	0.509
564.000	348.797	79.995	19.993	99.928	20.171	11.463	0.491
570.000	351.908	79.996	19.992	99.947	20.152	13.097	0.506
576.000	354.982	79.999	19.991	99.950	20.145	13.718	0.533
582.000	357.987	79.997	19.991	99.983	20.143	13.827	0.512
588.000	361.004	79.998	19.992	99.962	20.136	14.460	0.493
594.000	364.113	79.999	19.992	99.947	20.117	16.116	0.487
600.000	367.104	79.996	19.991	99.945	20.122	15.648	0.504
606.000	370.446	79.995	19.990	99.946	20.110	16.721	0.592
612.000	373.571	79.997	19.991	99.969	20.108	16.931	0.787
618.000	376.483	79.996	19.991	99.955	20.103	17.327	0.557
624.000	379.574	79.996	19.992	99.960	20.094	18.133	0.502
630.000	382.658	79.995	19.993	99.955	20.086	18.814	0.543
636.000	385.726	79.996	19.992	99.986	20.071	20.088	0.502
642.000	388.823	79.996	19.993	99.961	20.056	21.425	0.500
648.000	391.940	79.996	19.993	99.982	20.042	22.608	0.528
654.000	395.088	79.996	19.993	99.991	20.024	24.151	0.514
660.000	398.148	79.995	19.993	100.022	19.993	26.850	0.520
666.000	401.305	79.997	19.990	100.011	19.923	32.988	0.554
672.000	404.380	79.999	19.991	99.963	19.867	37.821	0.488
678.000	407.526	79.998	19.990	100.090	19.824	41.564	0.514
684.000	410.564	79.996	19.990	100.116	19.735	49.329	0.516
690.000	413.692	79.995	19.991	100.105	19.647	56.953	0.572
696.000	416.792	79.997	19.992	100.228	19.550	65.436	0.507
702.000	419.822	79.996	19.991	100.199	19.421	76.667	0.489
708.000	422.829	79.995	19.991	100.245	19.271	89.711	0.516
714.000	425.828	79.994	19.992	100.310	19.100	104.861	0.496
720.000	428.822	79.996	19.992	100.329	18.941	118.356	0.472
726.000	431.815	79.996	19.991	100.654	18.494	157.776	0.506
732.000	434.810	79.997	19.991	100.272	18.389	166.817	0.511
738.000	437.838	79.996	19.992	100.704	18.327	172.278	0.512
744.000	440.910	79.994	19.992	100.578	18.276	176.719	0.517
750.000	443.905	79.997	19.991	100.605	18.251	178.862	0.519
756.000	446.984	79.999	19.990	100.582	18.283	176.041	0.501
762.000	450.072	79.996	19.991	100.555	18.395	166.117	0.511
768.000	453.125	79.995	19.991	100.534	18.572	150.589	0.501
774.000	456.175	79.995	19.991	100.429	18.801	130.584	0.496
780.000	459.191	79.996	19.990	100.339	19.041	109.608	0.488
786.000	462.265	79.996	19.991	100.288	19.313	85.910	0.490
792.000	465.285	79.996	19.990	100.201	19.561	64.340	0.497
798.000	468.426	79.995	19.992	100.173	19.747	48.194	0.531
804.000	471.473	79.994	19.992	100.082	19.879	36.744	0.490
810.000	474.584	79.996	19.992	100.048	19.969	28.911	0.541
816.000	477.683	79.997	19.991	100.032	20.036	23.176	0.533
822.000	480.686	79.996	19.990	100.015	20.086	18.788	0.478
828.000	483.863	79.996	19.992	99.996	20.121	15.771	0.490
834.000	486.988	79.998	19.991	99.989	20.146	13.628	0.528
840.000	490.065	79.998	19.991	99.955	20.165	11.979	0.500
846.000	493.110	79.997	19.991	99.946	20.178	10.801	0.493
852.000	496.257	79.995	19.991	99.955	20.183	10.419	0.526
858.000	499.332	79.995	19.991	99.959	20.190	9.759	0.533
864.000	502.432	79.996	19.991	99.955	20.194	9.415	0.506
870.000	505.494	79.997	19.991	99.932	20.201	8.837	0.490
876.000	508.571	79.995	19.991	99.910	20.199	8.974	0.524
882.000	511.652	79.997	19.990	99.952	20.198	9.094	0.532
888.000	514.716	79.995	19.990	99.925	20.201	8.866	0.541
894.000	517.750	79.996	19.990	99.951	20.202	8.729	0.486
900.000	520.864	79.997	19.992	99.859	20.202	8.713	0.557
906.000	523.918	79.997	19.991	99.931	20.200	8.951	0.511
912.000	527.025	79.998	19.992	99.984	20.201	8.796	0.487
918.000	530.112	80.017	19.994	99.911	20.201	8.826	0.508
924.000	533.218	80.011	19.992	99.927	20.204	8.531	0.521
930.000	536.278	80.011	19.993	99.914	20.205	8.457	0.488
936.000	539.335	80.013	19.991	99.937	20.204	8.543	0.485
942.000	542.394	80.014	19.991	99.940	20.205	8.520	0.483
948.000	545.403	79.999	19.991	99.910	20.206	8.403	0.536
954.000	548.465	79.997	19.990	99.946	20.208	8.258	0.512
960.000	551.512	79.996	19.991	99.913	20.205	8.512	0.516
966.000	554.655	79.996	19.991	99.946	20.205	8.527	0.544
972.000	557.682	79.998	19.992	99.938	20.203	8.637	0.528
978.000	560.744	79.997	19.991	99.942	20.200	8.887	0.545
984.000	563.767	79.996	19.991	99.942	20.201	8.794	0.501
990.000	566.807	79.997	19.992	99.934	20.200	8.940	0.505
996.000	569.860	79.997	19.992	99.939	20.196	9.290	0.498
1002.000	572.859	79.998	19.990	99.930	20.194	9.477	0.485
1008.000	575.970	79.996	19.992	99.989	20.196	9.289	0.506
1014.000	579.029	79.995	19.992	99.877	20.196	9.253	0.531
1020.000	582.131	79.994	19.992	99.918	20.194	9.436	0.533
1026.000	585.157	79.997	19.991	99.949	20.194	9.464	0.491
1031.999	588.245	79.997	19.991	99.908	20.196	9.264	0.511
1037.999	591.319	79.995	19.991	99.915	20.190	9.791	0.554
1041.999	593.363	80.002	19.991	99.929	20.190	9.762	0.538