Folder: fsri_materials_database/01_Data/Nylon_Carpet_LowPile/Cone (part 2)

File: Nylon_Carpet_Low_Pile_Cone_HF75Scan_220318_R1.csv
Names,Time,Stack TC,Smoke TC,Exh Press,Smoke Comp,Smoke Meas,CO Meter,CO2 Meter,O2 Meter,Sample Mass,Ext Coeff,Start Test,Flame Verif
Chan Gain,,500,500,1,1,1,1,1,1,1,1,1.0,1.0
Offset,,0,0,0.133174,0,0,0,0,0,0,0,0.0,0.0
Gain,,1,1,25.011,13.6925,14.0864,1,1,1,1.0009,1.00821,1.0,1.0
Units,sec,C,C,Pa,%,%,%,%,%,g,/m,,
Baseline,,50.4278,53.178,125.962,103.605,100.245,0.000226653,0.0514458,21.0091,-838.01,0.291687,,
14,3.25,48.7676,52.295,127.815,103.475,100.051,0.000175059,0.0543583,21.005,-314.473,0.297666,0.0,0.0
28,6.75,49.2227,51.9593,127.97,103.459,100.315,0.000237733,0.054681,21.0042,-314.513,0.272936,0.0,0.0
42,10.25,49.3348,52.3721,124.464,103.427,99.4415,8.91312e-05,0.0543954,21.0042,-314.543,0.347495,0.0,0.0
56,13.75,49.4279,52.1905,124.065,103.422,97.0561,0.000365643,0.0547981,21.0027,-314.633,0.561874,0.0,0.0
70,17.25,49.8067,52.8495,125.017,103.395,93.3389,0.00153585,0.0575423,20.9899,-314.723,0.904925,0.0,0.0
84,20.75,50.3458,53.2133,114.905,103.358,95.7668,0.0031774,0.137471,20.7681,-315.134,0.674668,0.0,1.0
98,24.25,53.6474,56.199,104.664,103.345,95.0988,0.00462272,0.402297,20.3242,-315.594,0.735468,0.0,1.0
112,27.75,57.3539,61.1768,100.539,103.31,91.9469,0.00581074,0.615661,20.0379,-316.064,1.03055,0.0,0.0
126,31.25,63.1048,67.2407,90.8329,103.287,92.9941,0.00656729,0.814424,19.73,-316.645,0.928355,0.0,0.0
140,34.75,69.3216,74.412,95.9476,103.207,94.5984,0.00706564,0.966573,19.5537,-317.286,0.770281,0.0,0.0
154,38.25,75.6451,81.8815,96.0018,103.161,95.021,0.00742109,1.02314,19.4998,-317.946,0.726888,0.0,0.0
168,41.75,80.4398,87.0892,90.5291,103.088,91.9194,0.00813146,1.04985,19.4337,-318.437,1.01418,0.0,0.0
182,45.25,85.4709,93.8745,92.4014,103.115,87.544,0.00991221,1.15194,19.2825,-319.077,1.44776,0.0,0.0
196,48.75,91.0323,100.724,83.2345,103.162,85.6586,0.0128012,1.34732,18.9324,-319.868,1.64436,0.0,0.0
210,52.25,98.5551,108.961,81.8484,103.183,82.909,0.0154535,1.55209,18.6714,-320.679,1.93469,0.0,0.0
224,55.75,103.962,116.577,81.4439,103.236,81.0188,0.0171917,1.61417,18.5986,-321.369,2.14323,0.0,0.0
238,59.25,109.403,122.7,87.1532,103.285,75.2098,0.0190971,1.59585,18.6445,-322.11,2.80537,0.0,0.0
252,62.75,113.431,127.705,94.46,103.339,75.0568,0.0210755,1.53635,18.7338,-322.821,2.828,0.0,0.0
266,66.25,116.668,131.869,88.4278,103.384,74.5895,0.0229704,1.48913,18.8221,-323.501,2.88709,0.0,0.0
280,69.75,118.909,134.533,93.2082,103.463,71.245,0.0235418,1.4248,18.9111,-324.102,3.29956,0.0,0.0
294,73.25,121.148,137.29,96.8406,103.515,69.4709,0.0230873,1.33403,19.0562,-324.672,3.52701,0.0,0.0
308,76.75,121.88,138.966,95.0752,103.574,71.6848,0.0215383,1.23059,19.2369,-325.203,3.25463,0.0,0.0
322,80.25,122.237,139.231,100.621,103.638,67.7982,0.0198982,1.08812,19.4478,-325.683,3.75304,0.0,0.0
336,83.75,121.757,138.269,107.856,103.718,68.9288,0.0177375,0.930188,19.6899,-326.083,3.61362,0.0,0.0
350,87.25,120.069,136.822,105.979,103.772,68.2036,0.0158694,0.796259,19.8753,-326.444,3.71179,0.0,0.0
364,90.75,118.896,134.751,102.175,103.837,74.0212,0.0143426,0.710076,19.9895,-326.824,2.9934,0.0,0.0
378,94.25,117.102,132.768,112.829,103.87,73.8884,0.0124803,0.639372,20.0998,-327.094,3.01209,0.0,0.0
392,97.75,115.482,131.193,107.573,103.884,74.7726,0.010973,0.584026,20.1853,-327.375,2.90809,0.0,0.0
406,101.25,113.21,128.463,106.646,103.907,75.9771,0.0098095,0.539639,20.2474,-327.665,2.76871,0.0,0.0
420,104.75,111.184,126.77,112.226,103.901,77.3369,0.0087689,0.502556,20.3206,-327.825,2.6113,0.0,0.0
434,108.25,109.631,125.113,110.412,103.932,79.7171,0.00830868,0.465598,20.3716,-328.105,2.34588,0.0,0.0
448,111.75,107.529,121.762,110.639,103.937,79.6475,0.00769336,0.444912,20.3992,-328.265,2.354,0.0,0.0
462,115.25,106.121,120.047,110.657,103.958,81.4431,0.0070676,0.424458,20.4385,-328.536,2.15865,0.0,0.0
476,118.75,104.46,117.862,110.303,103.948,83.0388,0.00666907,0.402534,20.4701,-328.706,1.98615,0.0,0.0
490,122.25,103.108,116.015,110.731,103.953,81.8038,0.00615381,0.386066,20.4975,-328.886,2.11914,0.0,0.0
504,125.75,101.156,113.714,113.591,103.947,82.477,0.00570173,0.370334,20.5194,-329.126,2.04612,0.0,0.0
518,129.25,100.053,112.504,118.109,103.964,85.0718,0.00542362,0.351913,20.551,-329.266,1.77367,0.0,0.0
532,132.75,98.4384,110.692,114.753,103.96,83.2473,0.00541255,0.338233,20.5695,-329.477,1.96504,0.0,0.0
546,136.25,97.3344,108.81,114.607,103.97,84.0534,0.00529815,0.330587,20.5778,-329.667,1.88068,0.0,0.0
560,139.75,95.9599,107.382,112.451,103.971,84.5159,0.00538337,0.330762,20.5781,-329.827,1.83225,0.0,0.0
574,143.25,94.6796,106.348,113.333,103.967,84.8792,0.00524623,0.32912,20.5817,-329.967,1.79396,0.0,0.0
588,146.75,93.5394,104.705,117.248,103.985,83.651,0.00519442,0.322898,20.5915,-330.107,1.92436,0.0,0.0
602,150.25,93.1842,103.602,114.633,103.967,85.3194,0.00510991,0.314607,20.6017,-330.347,1.74818,0.0,0.0
616,153.75,91.947,102.158,114.185,103.964,83.3875,0.00484747,0.31019,20.6085,-330.477,1.95052,0.0,0.0
630,157.25,91.1159,100.796,116.687,103.945,83.6084,0.00483569,0.307722,20.6132,-330.648,1.92552,0.0,0.0
644,160.75,90.2096,99.7607,113.269,103.921,85.2231,0.00483506,0.304619,20.6173,-330.808,1.75425,0.0,0.0
658,164.25,89.663,99.613,113.466,103.903,85.4995,0.00455494,0.300641,20.6258,-330.948,1.72412,0.0,0.0
672,167.75,89.2095,98.3557,113.987,103.869,86.9753,0.00430966,0.296912,20.6306,-331.108,1.56982,0.0,0.0
686,171.25,88.0192,97.232,112.719,103.831,85.2575,0.00433556,0.295259,20.6352,-331.248,1.743,0.0,0.0
700,174.75,87.7514,96.5416,116.439,103.792,87.1343,0.00403584,0.291336,20.6459,-331.418,1.54711,0.0,0.0
714,178.25,86.8368,95.4608,112.199,103.757,90.2239,0.00383393,0.286165,20.6544,-331.518,1.236,0.0,0.0
728,181.75,86.5088,94.9476,118.273,103.72,90.7909,0.00368338,0.280517,20.6671,-331.709,1.17743,0.0,0.0
742,185.25,85.7202,93.8903,115.813,103.679,91.6541,0.00355421,0.272174,20.6834,-331.829,1.09028,0.0,0.0
756,188.75,84.7434,93.1779,117.12,103.63,92.9653,0.00301208,0.257607,20.7107,-331.929,0.960458,0.0,0.0
770,192.25,84.3923,91.8206,120.5,103.593,95.1216,0.00255042,0.23722,20.7432,-332.039,0.754495,0.0,0.0
784,195.75,83.2181,91.3495,116.858,103.538,97.2976,0.00220768,0.210461,20.787,-332.109,0.549779,0.0,0.0
798,199.25,81.8525,89.6444,114.02,103.489,99.1685,0.00202332,0.173939,20.8501,-332.169,0.377129,0.0,0.0
812,202.75,80.3711,87.9594,120.999,103.467,99.5085,0.00212178,0.137629,20.9117,-332.189,0.345035,0.0,0.0
826,206.25,77.9244,85.6899,125.568,103.404,99.3409,0.00202563,0.110447,20.9466,-332.209,0.354517,0.0,0.0
840,209.75,77.0217,83.9742,123.79,103.38,99.0898,0.00196537,0.0961835,20.964,-332.209,0.374858,0.0,0.0
854,213.25,75.4835,82.1104,124.044,103.332,98.9058,0.00168461,0.0889229,20.9743,-332.209,0.387183,0.0,0.0
868,216.75,73.795,80.3946,128.512,103.299,98.5447,0.00132832,0.0836302,20.9795,-332.209,0.41674,0.0,0.0
882,220.25,73.1802,79.0915,120.811,103.234,98.9806,0.00089166,0.0794131,20.9814,-332.169,0.372124,0.0,0.0
896,223.75,71.6886,77.9004,122.525,103.176,99.2373,0.000409242,0.0746912,20.9864,-332.229,0.344246,0.0,0.0
910,227.25,71.1935,76.5488,120.602,103.101,98.7292,0.000183214,0.0700477,20.9911,-332.249,0.38316,0.0,0.0
924,230.75,70.0732,75.5005,123.547,103.029,98.715,0.000209803,0.0658576,20.9945,-332.259,0.378299,0.0,0.0
938,234.25,69.3671,74.4912,123.392,102.941,98.8164,0.000254005,0.0627783,20.9973,-332.319,0.361643,0.0,0.0
952,237.75,67.9327,73.569,127.184,102.87,98.5482,0.000170937,0.0613913,20.9979,-332.339,0.379579,0.0,0.0
966,241.25,67.9155,73.1809,126.365,102.782,98.623,0.0001666,0.0603639,21.0008,-332.289,0.365285,0.0,0.0
980,244.75,66.7961,72.2383,123.257,102.715,98.4334,0.000128059,0.0590728,21.0023,-332.319,0.376583,0.0,0.0
994,248.25,66.5001,70.8879,123.577,102.649,98.5589,6.95712e-05,0.0580411,21.0027,-332.229,0.359625,0.0,0.0
1008,251.75,66.1614,69.9158,119.272,102.593,98.7266,8.03838e-05,0.0571747,21.0035,-332.219,0.339769,0.0,0.0
1022,255.25,65.7402,69.3849,119.801,102.54,98.4975,-9.62233e-05,0.0565694,21.0048,-332.279,0.355706,0.0,0.0
1036,258.75,64.922,69.0984,123.313,102.525,98.9187,-6.81415e-05,0.0561648,21.0053,-332.239,0.316663,0.0,0.0
1050,262.25,64.4163,68.0457,121.454,102.516,98.1127,5.22981e-05,0.0558084,21.0058,-332.319,0.388228,0.0,0.0
1064,265.75,63.4674,67.8579,123.36,102.485,98.2907,1.41403e-05,0.0555811,21.0058,-332.349,0.369606,0.0,0.0
1078,269.25,63.539,67.2016,121.445,102.468,98.6888,5.82154e-05,0.0552341,21.0056,-332.389,0.332381,0.0,0.0
1092,272.75,63.6034,66.4266,122.163,102.435,98.8762,8.90743e-05,0.0550688,21.005,-332.359,0.312715,0.0,0.0
1106,276.25,62.858,66.5903,122.916,102.422,99.0344,-8.7676e-05,0.0549307,21.0049,-332.379,0.297459,0.0,0.0
1120,279.75,61.8596,65.8731,123.346,102.375,98.0413,-9.29132e-05,0.0545403,21.0049,-332.359,0.382543,0.0,0.0
1134,283.25,61.885,64.937,124.69,102.347,98.2245,-0.000134877,0.0543317,21.0049,-332.339,0.363583,0.0,0.0
1148,286.75,61.8316,64.9468,122.183,102.32,98.6707,0.000158639,0.0542442,21.0045,-332.349,0.32115,0.0,0.0
1162,290.25,61.4086,64.1777,126.559,102.297,98.0469,0.000286956,0.0539432,21.0053,-332.349,0.375286,0.0,0.0
1176,293.75,60.8586,63.7336,123.024,102.238,99.0954,0.000206724,0.0536861,21.0056,-332.379,0.276118,0.0,0.0
1190,297.25,60.2334,63.2484,124.007,102.218,98.3599,-4.27214e-05,0.0535222,21.0044,-332.389,0.340308,0.0,0.0
1204,300.75,60.728,63.5389,122.65,102.18,98.4257,-5.49014e-05,0.0536104,21.0037,-332.389,0.331105,0.0,0.0
1218,304.25,60.52,63.6906,120.63,102.151,98.0078,-3.88929e-07,0.0534748,21.0035,-332.379,0.366162,0.0,0.0
1232,307.75,60.257,63.0301,121.707,102.129,98.693,0.000199555,0.0534492,21.0034,-332.379,0.302699,0.0,0.0
1246,311.25,60.0935,62.426,123.069,102.099,98.7532,0.000186157,0.0535294,21.0058,-332.369,0.294666,0.0,0.0
1260,314.75,59.8171,62.5495,123.814,102.07,98.3074,,,,-332.379,0.332181,0.0,0.0
1274,318.25,59.4228,62.2099,124.122,102.047,98.1002,,,,-332.399,0.348849,0.0,0.0
1288,321.75,59.7041,62.0869,125.746,102.04,98.1742,,,,-332.369,0.341607,0.0,0.0
1291,322.5,59.3819,61.4991,123.971,102.047,98.1269,,,,-332.389,0.346447,0.0,0.0

File: Nylon_Carpet_Low_Pile_Cone_HF75Scan_220318_R2.csv
Names,Time,Stack TC,Smoke TC,Exh Press,Smoke Comp,Smoke Meas,CO Meter,CO2 Meter,O2 Meter,Sample Mass,Ext Coeff,Start Test,Flame Verif
Chan Gain,,500,500,1,1,1,1,1,1,1,1,1.0,1.0
Offset,,0,0,0.133174,0,0,0,0,0,0,0,0.0,0.0
Gain,,1,1,25.011,13.6925,14.0864,1,1,1,1.0009,1.00821,1.0,1.0
Units,sec,C,C,Pa,%,%,%,%,%,g,/m,,
Baseline,,54.5106,56.904,125.228,103.034,99.3408,0.000264893,0.0512983,21.006,-838.47,0.322959,,
14,3.25,51.7872,54.3887,124.285,103.006,98.8465,0.000122824,0.0529607,21.0041,-322.21,0.364549,0.0,0.0
28,6.75,52.216,54.7475,124.203,102.984,99.5038,0.000175438,0.0524292,21.0047,-322.27,0.304069,0.0,0.0
42,10.25,52.5918,54.6331,126.541,102.988,99.7364,0.000192806,0.052183,21.0077,-322.37,0.283745,0.0,0.0
56,13.75,52.1409,54.8627,126.999,102.978,96.8084,0.000610277,0.0532394,21.0029,-322.48,0.546364,0.0,0.0
70,17.25,52.3545,55.1409,125.115,102.972,90.2562,0.00148915,0.0604766,20.9637,-322.64,1.1657,0.0,0.0
84,20.75,54.0354,56.3317,110.142,102.973,95.4109,0.00250965,0.204466,20.6835,-322.901,0.674537,0.0,1.0
98,24.25,56.7687,59.7065,103.873,102.978,95.4951,0.0035891,0.425531,20.342,-323.391,0.667161,0.0,0.0
112,27.75,60.6032,64.3791,99.2587,102.963,95.042,0.00455105,0.576646,20.1293,-323.761,0.707931,0.0,0.0
126,31.25,65.8591,69.3061,96.4384,102.956,94.3641,0.00530902,0.704719,19.9618,-324.362,0.770702,0.0,0.0
140,34.75,71.0543,75.832,98.7168,102.95,94.0924,0.0059544,0.800162,19.8421,-324.892,0.795662,0.0,0.0
154,38.25,75.2845,80.702,100.73,102.958,93.7141,0.00648463,0.828407,19.7902,-325.383,0.831938,0.0,0.0
168,41.75,79.5044,85.6324,99.177,102.951,94.5129,0.00670651,0.880474,19.7026,-325.903,0.756306,0.0,0.0
182,45.25,83.7073,90.5762,98.5023,102.943,87.268,0.0080658,0.950203,19.5745,-326.444,1.46098,0.0,0.0
196,48.75,89.1258,96.4312,88.2454,102.941,84.3878,0.0105821,1.113,19.2903,-327.124,1.75757,0.0,0.0
210,52.25,94.2514,103.738,91.5557,102.916,83.728,0.0127021,1.24574,19.1289,-327.705,1.82488,0.0,0.0
224,55.75,99.2991,109.611,92.2755,102.906,82.0772,0.0146043,1.31713,19.0349,-328.366,2.00009,0.0,0.0
238,59.25,104.136,115.285,87.4089,102.88,77.7749,0.0167969,1.35418,18.97,-329.066,2.47403,0.0,0.0
252,62.75,108.893,120.244,89.804,102.868,77.474,0.0188053,1.38582,18.9294,-329.707,2.50731,0.0,0.0
266,66.25,111.688,125.01,89.949,102.842,73.9425,0.0207421,1.38239,18.9488,-330.357,2.91765,0.0,0.0
280,69.75,115.067,128.5,91.3351,102.83,69.9442,0.022727,1.35009,18.9889,-331.058,3.40825,0.0,0.0
294,73.25,117.609,131.834,94.1394,102.807,66.4926,0.024412,1.27618,19.1093,-331.628,3.85383,0.0,0.0
308,76.75,118.72,133.317,97.9153,102.791,63.5862,0.0247729,1.17749,19.2399,-332.139,4.24771,0.0,0.0
322,80.25,118.699,134.083,98.9603,102.782,68.624,0.0231165,1.07744,19.4118,-332.599,3.57268,0.0,0.0
336,83.75,118.405,133.224,98.9977,102.915,70.4708,0.0209107,0.950151,19.5962,-333.04,3.34928,0.0,0.0
350,87.25,117.956,132.87,101.574,103.006,69.1764,0.0179684,0.842294,19.7877,-333.48,3.52102,0.0,0.0
364,90.75,116.244,131.229,104.895,103.116,74.7129,0.0155836,0.732738,19.9437,-333.77,2.84953,0.0,0.0
378,94.25,115.662,129.985,103.28,103.21,70.7794,0.0137995,0.662312,20.0521,-334.031,3.33587,0.0,0.0
392,97.75,114.59,129.014,108.433,103.282,76.7896,0.0125186,0.604306,20.1384,-334.381,2.62124,0.0,0.0
406,101.25,112.804,127.142,109.993,103.346,74.6609,0.0108878,0.559369,20.2042,-334.651,2.87542,0.0,0.0
420,104.75,110.863,125.02,111.885,103.41,78.1317,0.00954307,0.524387,20.2603,-334.921,2.47902,0.0,0.0
434,108.25,109.744,123.212,110.566,103.47,79.969,0.00894258,0.48867,20.3281,-335.152,2.2786,0.0,0.0
448,111.75,108.133,121.787,108.806,103.524,80.3525,0.00834489,0.451587,20.3848,-335.422,2.24086,0.0,0.0
462,115.25,106.17,119.562,113.018,103.561,82.8978,0.00744071,0.425613,20.429,-335.622,1.96827,0.0,0.0
476,118.75,104.329,117.297,113.843,103.585,81.3567,0.00675704,0.401711,20.4665,-335.772,2.13627,0.0,0.0
490,122.25,103.458,115.694,112.582,103.617,82.9903,0.00639253,0.381854,20.4954,-335.962,1.96316,0.0,0.0
504,125.75,101.492,113.681,109.169,103.64,82.2655,0.00592924,0.365325,20.5243,-336.173,2.04273,0.0,0.0
518,129.25,100.135,111.968,112.973,103.658,84.0645,0.00552476,0.35234,20.5439,-336.353,1.85294,0.0,0.0
532,132.75,99.0026,110.593,113.546,103.666,85.6469,0.00537898,0.341251,20.5616,-336.523,1.68869,0.0,0.0
546,136.25,97.4249,108.321,111.909,103.668,84.8925,0.00529764,0.330807,20.5783,-336.673,1.76712,0.0,0.0
560,139.75,96.4171,107.208,113.266,103.678,85.8524,0.00515435,0.318434,20.5987,-336.843,1.66846,0.0,0.0
574,143.25,95.3165,105.42,113.242,103.695,87.1438,0.00506611,0.308347,20.6166,-337.013,1.53792,0.0,0.0
588,146.75,94.0046,104.361,113.272,103.703,87.8342,0.00485714,0.299846,20.6267,-337.153,1.46878,0.0,0.0
602,150.25,92.9913,102.684,112.189,103.706,87.4198,0.00467393,0.292436,20.6389,-337.284,1.51085,0.0,0.0
616,153.75,91.8602,101.382,117.279,103.723,86.508,0.00454756,0.285351,20.6517,-337.444,1.60504,0.0,0.0
630,157.25,90.5958,100.247,110.704,103.722,86.6077,0.00405227,0.278959,20.6611,-337.574,1.59478,0.0,0.0
644,160.75,90.0671,99.2365,112.517,103.728,89.8284,0.00379569,0.273806,20.6703,-337.704,1.2724,0.0,0.0
658,164.25,88.4723,97.4568,115.74,103.73,88.9742,0.00373905,0.268708,20.6784,-337.834,1.35704,0.0,0.0
672,167.75,87.7717,96.7856,118.999,103.721,89.3521,0.00375261,0.265264,20.6835,-338.004,1.31881,0.0,0.0
686,171.25,87.0361,95.5122,114.167,103.726,87.7027,0.00370082,0.262396,20.6885,-338.124,1.48399,0.0,0.0
700,174.75,86.4735,94.8957,114.672,103.705,89.1161,0.00348158,0.254734,20.7022,-338.244,1.34085,0.0,0.0
714,178.25,85.4584,93.7275,114.923,103.676,90.2089,0.00336734,0.245792,20.7153,-338.354,1.23057,0.0,0.0
728,181.75,84.8337,92.5669,115.17,103.666,89.2855,0.00350262,0.240037,20.7218,-338.465,1.32071,0.0,0.0
742,185.25,84.1451,91.7797,116.838,103.639,89.7596,0.00360052,0.237841,20.7283,-338.635,1.27158,0.0,0.0
756,188.75,83.3804,90.709,115.252,103.621,90.9895,0.00342095,0.233135,20.7337,-338.705,1.14969,0.0,0.0
770,192.25,82.4767,90.0623,114.463,103.59,90.2519,0.00295604,0.226467,20.7443,-338.855,1.21901,0.0,0.0
784,195.75,81.6503,89.3695,120.8,103.568,90.3735,0.00278184,0.217509,20.7573,-338.955,1.20524,0.0,0.0
798,199.25,81.7107,88.4776,117.91,103.548,92.2745,0.00263722,0.207569,20.7744,-339.035,1.01943,0.0,0.0
812,202.75,80.5215,87.2149,119.831,103.515,94.6805,0.00233244,0.194999,20.7949,-339.075,0.788958,0.0,0.0
826,206.25,79.62,86.136,118.167,103.462,97.0801,0.00215698,0.177351,20.8311,-339.155,0.563075,0.0,0.0
840,209.75,78.8721,85.1638,119.751,103.421,97.7417,0.00178811,0.152703,20.8725,-339.225,0.499508,0.0,0.0
854,213.25,77.5204,83.9811,121.83,103.366,99.3121,0.00173277,0.127714,20.9123,-339.215,0.353828,0.0,0.0
868,216.75,75.6102,82.1915,120.882,103.288,98.856,0.00188544,0.108563,20.9384,-339.225,0.387886,0.0,0.0
882,220.25,74.1054,80.4248,121.565,103.239,98.8968,0.00182043,0.096109,20.9571,-339.265,0.380046,0.0,0.0
896,223.75,73.2679,79.2394,125.01,103.21,99.2588,0.00173172,0.0900449,20.9665,-339.285,0.345267,0.0,0.0
910,227.25,72.71,78.1387,124.506,103.236,99.3654,0.00167569,0.0869007,20.9716,-339.265,0.337956,0.0,0.0
924,230.75,71.8558,76.4413,121.14,103.266,98.9867,0.00126246,0.0835302,20.9765,-339.285,0.374306,0.0,0.0
938,234.25,70.9498,75.9914,119.669,103.311,99.1285,0.000824226,0.0794459,20.9821,-339.295,0.365506,0.0,0.0
952,237.75,69.7661,74.6407,121.932,103.344,99.3013,0.000677524,0.0759137,20.9855,-339.365,0.352891,0.0,0.0
966,241.25,69.5254,74.3415,121.723,103.39,99.5107,0.000579539,0.0717769,20.9874,-339.345,0.338197,0.0,0.0
980,244.75,68.633,73.0681,123.132,103.43,99.0602,0.000256345,0.0680789,20.9901,-339.365,0.381758,0.0,0.0
994,248.25,68.3436,72.5868,123.525,103.45,98.96,9.05097e-05,0.0646788,20.9921,-339.455,0.392456,0.0,0.0
1008,251.75,67.5331,72.1873,122.987,103.494,99.6745,5.94623e-05,0.0616926,20.9957,-339.385,0.332585,0.0,0.0
1022,255.25,67.0877,71.5837,122.133,103.517,99.4613,0.000123634,0.0596771,20.9973,-339.405,0.353487,0.0,0.0
1036,258.75,66.7117,70.7373,122.688,103.535,98.8749,0.000402175,0.0582651,20.9976,-339.455,0.40728,0.0,0.0
1050,262.25,66.184,69.4764,120.559,103.556,99.248,0.000329834,0.0572144,20.9992,-339.415,0.375823,0.0,0.0
1064,265.75,65.1557,69.2133,123.196,103.592,99.8331,-3.07325e-05,0.0563897,21.0011,-339.375,0.326837,0.0,0.0
1078,269.25,64.9514,68.7523,121.355,103.608,99.0077,-0.00014677,0.0560697,21.0023,-339.365,0.401685,0.0,0.0
1092,272.75,64.6423,67.7392,125.865,103.627,99.3899,-0.000105263,0.0557074,21.0019,-339.395,0.369183,0.0,0.0
1106,276.25,63.8925,67.4288,124.444,103.657,99.8653,0.000131501,0.0554178,21.0027,-339.375,0.329545,0.0,0.0
1120,279.75,63.9326,67.7886,122.485,103.676,99.0726,0.000267022,0.0550125,21.0037,-339.365,0.401701,0.0,0.0
1134,283.25,63.4032,66.827,124.016,103.696,99.432,0.000163646,0.0547242,21.004,-339.425,0.371317,0.0,0.0
1148,286.75,62.4566,65.8148,121.842,103.717,99.7398,0.000124587,0.054698,21.0045,-339.466,0.345836,0.0,0.0
1162,290.25,62.9522,65.7379,125.189,103.722,99.9522,0.000148061,0.0549334,21.0047,-339.455,0.327418,0.0,0.0
1176,293.75,62.328,65.5294,120.585,103.747,99.5511,3.32175e-05,0.0548297,21.0048,-339.476,0.365115,0.0,0.0
1190,297.25,62.0637,65.0598,123.019,103.767,99.9397,6.85914e-06,0.0546548,21.0048,-339.455,0.332404,0.0,0.0
1204,300.75,62.192,65.2,122.823,103.791,99.9573,0.00010855,0.0544493,21.0048,-339.445,0.332839,0.0,0.0
1218,304.25,61.9561,64.5,120.568,103.827,99.6053,0.000188335,0.0542246,21.0048,-339.445,0.367106,0.0,0.0
1232,307.75,61.691,64.2235,123.649,103.835,99.889,0.000177067,0.0541054,21.0048,-339.445,0.342626,0.0,0.0
1246,311.25,61.3791,63.8237,125.662,103.845,98.8994,9.94988e-05,0.0539751,21.0053,-339.486,0.431568,0.0,0.0
1260,314.75,61.2835,63.6109,124.145,103.859,100.1,3.90992e-05,0.0538499,21.0055,-339.476,0.325983,0.0,0.0
1274,318.25,61.1798,63.8303,123.59,103.902,99.9049,0.000206895,0.0537077,21.0055,-339.486,0.346911,0.0,0.0
1288,321.75,60.691,63.1215,122.718,103.925,100.045,0.000121863,0.0534496,21.0055,-339.486,0.336541,0.0,0.0
1302,325.25,60.5521,62.8917,122.403,103.931,100.599,,0.0532022,,-339.486,0.288192,0.0,0.0
1316,328.75,60.6384,63.1719,124.644,103.95,100.244,,,,-339.486,0.321099,0.0,0.0
1330,332.25,60.2101,63.2757,121.535,103.966,99.6556,,,,-339.486,0.374485,0.0,0.0
1343,335.5,60.4001,62.5885,123.951,103.984,100.114,,,,-339.496,0.335475,0.0,0.0