Folder: fsri_materials_database/01_Data/Nylon_Carpet_LowPile/Cone (part 3)

File: Nylon_Carpet_Low_Pile_Cone_HF75Scan_220318_R3.csv
Names,Time,Stack TC,Smoke TC,Exh Press,Smoke Comp,Smoke Meas,CO Meter,CO2 Meter,O2 Meter,Sample Mass,Ext Coeff,Start Test,Flame Verif
Chan Gain,,500,500,1,1,1,1,1,1,1,1,1.0,1.0
Offset,,0,0,0.133174,0,0,0,0,0,0,0,0.0,0.0
Gain,,1,1,25.011,13.6925,14.0864,1,1,1,1.0009,1.00821,1.0,1.0
Units,sec,C,C,Pa,%,%,%,%,%,g,/m,,
Baseline,,55.7791,57.9025,124.815,103.583,99.8036,0.000101716,0.0534107,21.0025,-838.65,0.328791,,
13,3,53.2134,55.609,123.931,103.086,99.4806,5.00826e-05,0.0572701,20.9973,-315.414,0.314884,0.0,0.0
26,6.25,53.1117,55.1531,124.367,103.092,100.107,-3.08076e-05,0.0585837,20.9955,-315.484,0.259878,0.0,0.0
39,9.5,53.5162,55.3818,123.792,103.096,98.9626,4.4111e-05,0.0592549,20.9951,-315.524,0.361844,0.0,0.0
52,12.75,53.7119,55.859,121.91,103.085,97.3871,0.000121907,0.0584893,20.995,-315.604,0.502844,0.0,0.0
65,16,53.8481,56.4017,124.522,103.083,92.4795,0.000670836,0.0596507,20.9823,-315.694,0.960021,0.0,0.0
78,19.25,54.3355,56.5995,107.459,103.099,96.4783,0.00177135,0.159683,20.8572,-315.994,0.587014,0.0,1.0
91,22.5,56.4145,59.084,103.893,103.073,93.4141,0.00358825,0.359824,20.4816,-316.415,0.870165,0.0,1.0
104,25.75,60.9262,63.5613,94.6462,103.059,93.2542,0.00502029,0.595377,20.1235,-316.905,0.884135,0.0,0.0
117,29,65.1293,69.0538,93.0243,103.053,94.9797,0.00559153,0.752334,19.8842,-317.296,0.721482,0.0,0.0
130,32.25,70.8006,75.0901,94.5417,103.029,94.8482,0.00611653,0.871958,19.7064,-317.936,0.73166,0.0,0.0
143,35.5,75.5603,80.5657,97.1872,103.013,94.3929,0.00653134,0.940055,19.6113,-318.407,0.772883,0.0,0.0
156,38.75,80.4668,86.5634,89.3407,103.002,93.4098,0.00721723,1.02226,19.472,-319.047,0.864511,0.0,0.0
169,42,85.4298,92.8064,92.3679,103.007,88.1682,0.00877638,1.11769,19.3393,-319.578,1.37564,0.0,0.0
182,45.25,90.4397,98.716,87.8195,103.002,84.8538,0.0112075,1.25316,19.1117,-320.278,1.71411,0.0,0.0
195,48.5,97.3192,105.776,83.5665,103.004,82.204,0.0139242,1.45519,18.8105,-320.959,1.99484,0.0,0.0
208,51.75,102.545,113.707,83.9108,102.999,80.3104,0.0169672,1.57969,18.679,-321.649,2.20052,0.0,0.0
221,55,107.239,119.561,89.5575,102.985,78.1416,0.0187894,1.54677,18.732,-322.3,2.44148,0.0,0.0
234,58.25,110.428,122.594,90.0315,102.996,76.7776,0.0195624,1.44584,18.8657,-322.971,2.59815,0.0,0.0
247,61.5,113.205,126.449,93.3235,102.999,74.9764,0.0206923,1.39229,18.9265,-323.511,2.80832,0.0,0.0
260,64.75,115.446,129.464,93.1968,102.978,72.7578,0.0216833,1.36627,18.9622,-324.112,3.07221,0.0,0.0
273,68,118.466,132.16,93.2403,102.96,72.453,0.0220888,1.34664,18.9836,-324.672,3.10776,0.0,0.0
286,71.25,120.684,135.427,90.8489,102.948,70.3388,0.0223248,1.30703,19.0583,-325.213,3.36862,0.0,0.0
299,74.5,121.501,137.081,90.8489,102.945,69.6523,0.0219003,1.22304,19.1992,-325.733,3.45511,0.0,0.0
312,77.75,122.176,137.621,99.59,102.895,70.7476,0.0212412,1.10091,19.3831,-326.154,3.31288,0.0,0.0
325,81,122.83,137.978,98.4618,102.865,70.7248,0.0204295,0.990624,19.5404,-326.594,3.31311,0.0,0.0
338,84.25,122.322,137.768,100.566,102.842,68.688,0.0185819,0.908395,19.6625,-326.944,3.56956,0.0,0.0
351,87.5,121.127,136.822,104.354,102.796,68.265,0.0167045,0.8326,19.7821,-327.305,3.62028,0.0,0.0
364,90.75,120.681,135.691,106.114,102.758,71.8163,0.0151451,0.764039,19.8621,-327.655,3.16846,0.0,0.0
377,94,119.284,134.081,103.37,102.738,72.6339,0.0136827,0.705412,19.9715,-327.945,3.06665,0.0,0.0
390,97.25,117.76,132.577,105.877,102.713,71.438,0.0121175,0.647056,20.0687,-328.245,3.21129,0.0,0.0
403,100.5,116.607,130.71,108.713,102.697,75.4407,0.0106008,0.595447,20.1496,-328.506,2.72782,0.0,0.0
416,103.75,114.918,129.365,108.316,102.664,75.3697,0.00943609,0.555356,20.2148,-328.766,2.73329,0.0,0.0
429,107,113.844,127.849,109.996,102.64,76.3924,0.00861794,0.518933,20.2745,-328.986,2.61197,0.0,0.0
442,110.25,111.8,125.407,109.345,102.606,77.1163,0.00812596,0.489803,20.3229,-329.226,2.52568,0.0,0.0
455,113.5,109.903,123.712,113.727,102.564,79.9703,0.00777379,0.459754,20.3667,-329.426,2.20061,0.0,0.0
468,116.75,108.674,121.788,107.884,102.534,80.3035,0.00748257,0.43052,20.4126,-329.677,2.16128,0.0,0.0
481,120,107.274,119.973,110.072,102.488,80.4037,0.00694344,0.412051,20.4451,-329.827,2.14626,0.0,0.0
494,123.25,105.659,118.184,110.814,102.456,80.5683,0.00653473,0.393076,20.4762,-330.017,2.12543,0.0,0.0
507,126.5,104.565,116.765,114.081,102.432,82.7396,0.00641835,0.379219,20.4975,-330.197,1.88818,0.0,0.0
520,129.75,103.367,115.16,110.432,102.395,79.3023,0.00630579,0.366549,20.5203,-330.417,2.26027,0.0,0.0
533,133,102.045,113.733,111.763,102.375,81.4607,0.0060604,0.354525,20.5344,-330.557,2.02104,0.0,0.0
546,136.25,100.733,112.528,111.476,102.348,83.9855,0.00568231,0.349917,20.541,-330.728,1.74872,0.0,0.0
559,139.5,100.036,111.167,109.161,102.331,82.0626,0.00551216,0.34586,20.5465,-330.878,1.95215,0.0,0.0
572,142.75,98.6622,109.634,111.503,102.312,81.9052,0.00531365,0.339822,20.558,-331.058,1.96742,0.0,0.0
585,146,97.7745,108.632,113.298,102.29,82.1675,0.00526004,0.330194,20.5743,-331.168,1.93724,0.0,0.0
598,149.25,96.7749,107.317,108.977,102.275,83.3286,0.00503249,0.321048,20.5905,-331.328,1.81188,0.0,0.0
611,152.5,95.6779,106.086,110.705,102.251,83.7065,0.0048868,0.314862,20.5981,-331.488,1.76977,0.0,0.0
624,155.75,94.7932,104.997,112.095,102.244,83.341,0.00498345,0.305919,20.6152,-331.618,1.80788,0.0,0.0
637,159,93.7411,103.768,113.698,102.232,84.8783,0.00508689,0.297055,20.6267,-331.739,1.64522,0.0,0.0
650,162.25,92.9586,102.613,112.422,102.22,84.8263,0.00492899,0.291666,20.636,-331.889,1.64959,0.0,0.0
663,165.5,92.5597,101.725,113.181,102.2,85.0705,0.00458724,0.284024,20.651,-332.019,1.62244,0.0,0.0
676,168.75,91.6048,101.013,115.827,102.19,87.5604,0.00404425,0.275041,20.6679,-332.119,1.36647,0.0,0.0
689,172,90.6975,99.7284,114.246,102.193,88.7262,0.00369983,0.264598,20.6858,-332.259,1.24968,0.0,0.0
702,175.25,89.6712,98.3818,114.146,102.175,90.4784,0.00331197,0.255674,20.6999,-332.399,1.07517,0.0,0.0
715,178.5,89.0326,97.8321,113.755,102.178,91.5149,0.00276479,0.248981,20.7137,-332.469,0.974764,0.0,0.0
728,181.75,88.3556,96.7038,115.692,102.16,93.2464,0.00250969,0.236802,20.7338,-332.529,0.807362,0.0,0.0
741,185,87.521,95.27,114.627,102.15,95.2033,0.00229995,0.216866,20.764,-332.619,0.622855,0.0,0.0
754,188.25,86.6672,94.9449,116.887,102.148,97.1201,0.00197491,0.190244,20.8152,-332.699,0.446378,0.0,0.0
767,191.5,84.9186,92.9094,117.444,102.149,97.9751,0.00204342,0.155,20.8749,-332.699,0.368929,0.0,0.0
780,194.75,83.2108,90.7415,119.951,102.167,97.5986,0.00229136,0.12415,20.9183,-332.729,0.404579,0.0,0.0
793,198,81.6803,88.5328,121.577,102.146,97.688,0.00199456,0.103658,20.9455,-332.779,0.394672,0.0,0.0
806,201.25,79.9776,86.9291,120.201,102.17,98.1282,0.00155339,0.0945153,20.9596,-332.81,0.356971,0.0,0.0
819,204.5,78.8458,85.9806,121.973,102.171,97.6097,0.00120049,0.0891343,20.9679,-332.84,0.403892,0.0,0.0
832,207.75,77.1259,83.4853,123.851,102.18,98.0594,0.000960017,0.0850511,20.9725,-332.83,0.364077,0.0,0.0
845,211,76.5831,82.5562,119.872,102.194,97.6484,0.000769052,0.0808081,20.9788,-332.85,0.402376,0.0,0.0
858,214.25,75.3406,80.7671,122.859,102.203,97.7516,0.000616602,0.0763564,20.9823,-332.87,0.393797,0.0,0.0
871,217.5,74.1898,80.2143,122.187,102.213,97.8948,0.000670324,0.0725295,20.986,-332.87,0.381723,0.0,0.0
884,220.75,73.5825,78.9717,121.874,102.223,97.7787,0.000411088,0.0685347,20.9898,-332.88,0.393082,0.0,0.0
897,224,72.6945,78.148,121.035,102.232,97.7482,3.63206e-05,0.0648971,20.9938,-332.88,0.396674,0.0,0.0
910,227.25,71.7707,77.0923,124.706,102.274,97.9468,-1.15673e-05,0.0615002,20.9967,-332.89,0.382374,0.0,0.0
923,230.5,71.0025,75.6716,120.921,102.284,98.2081,0.000129332,0.0589645,20.9982,-332.91,0.359637,0.0,0.0
936,233.75,70.287,74.9797,121.011,102.3,97.8247,-4.21316e-05,0.0572279,21.0001,-332.88,0.395572,0.0,0.0
949,237,68.8967,73.7703,120.832,102.339,98.3315,-0.000272729,0.0560657,21.0008,-332.88,0.353266,0.0,0.0
962,240.25,68.6404,72.8923,123.046,102.353,98.3375,-0.000189777,0.0556563,21.001,-332.89,0.353952,0.0,0.0
975,243.5,68.4948,72.6382,124.413,102.378,98.2172,-2.91223e-05,0.0553777,21.001,-332.92,0.366914,0.0,0.0
988,246.75,68.058,71.5344,118.017,102.399,98.3444,6.50187e-05,0.0551456,21.002,-332.91,0.357339,0.0,0.0
1001,250,67.1094,71.2081,118.816,102.435,98.2632,-8.013e-05,0.0549808,21.0025,-332.92,0.367752,0.0,0.0
1014,253.25,66.6832,70.1881,119.051,102.45,98.4033,4.80136e-05,0.0548647,20.9998,-332.93,0.356375,0.0,0.0
1027,256.5,66.4898,70.5316,123.056,102.49,97.9657,0.000101202,0.0546748,20.999,-332.92,0.399292,0.0,0.0
1040,259.75,65.7316,69.5378,124.091,102.523,98.1879,-6.36978e-06,0.0546509,20.9988,-332.91,0.382062,0.0,0.0
1053,263,65.8323,69.0005,121.335,102.546,98.2511,6.60051e-05,0.054596,20.9987,-332.92,0.378426,0.0,0.0
1066,266.25,65.5124,68.5853,121.163,102.587,98.0297,0.000103237,0.0546044,20.9987,-332.92,0.401836,0.0,0.0
1079,269.5,64.8419,67.7376,123.545,102.62,97.771,0.000104215,0.0545388,21.0004,-332.94,0.428095,0.0,0.0
1092,272.75,64.2838,67.5514,124.293,102.663,99.0533,8.07483e-05,0.0545364,21.0008,-332.91,0.316563,0.0,0.0
1105,276,64.2728,67.012,123.219,102.699,99.4664,-5.81973e-05,0.0545337,21.0027,-332.91,0.282815,0.0,0.0
1118,279.25,64.3969,67.5675,122.941,102.743,98.359,-0.000157553,0.0544091,21.0025,-332.93,0.385642,0.0,0.0
1131,282.5,63.6111,66.5079,123.819,102.784,98.7283,-0.000212636,0.0543244,21.0014,-332.92,0.356026,0.0,0.0
1144,285.75,63.8521,65.7608,123.596,102.821,98.5417,-0.000306398,0.0544059,21.0011,-332.89,0.375989,0.0,0.0
1157,289,63.5464,65.9353,123.508,102.862,98.7072,-0.000210177,0.0544026,21.0011,-332.9,0.36467,0.0,0.0
1170,292.25,62.2475,65.5474,120.228,102.89,98.9514,-0.000104059,0.0543998,21.0023,-332.94,0.345154,0.0,0.0
1183,295.5,62.578,65.6193,120.293,102.928,98.4807,-0.000134006,0.0544021,21.0035,-332.93,0.390594,0.0,0.0
1196,298.75,62.0868,65.08,121.642,102.952,98.4261,-0.000153491,0.0544172,21.0018,-332.92,0.39758,0.0,0.0
1209,302,62.4328,64.5361,123.388,102.984,98.4411,-7.50668e-05,0.0544372,21.0007,-332.96,0.398993,0.0,0.0
1222,305.25,62.2663,64.7062,123.1,102.998,99.0971,,0.0545213,,-332.95,0.341436,0.0,0.0
1235,308.5,61.5848,64.6931,121.305,103.017,98.7954,,,,-332.94,0.37006,0.0,0.0
1248,311.75,61.6473,64.0963,121.981,103.029,98.2017,,,,-332.92,0.424368,0.0,0.0
1255,313.5,61.8392,63.4525,123.226,103.037,98.7829,,,,-332.93,0.372934,0.0,0.0