Folder: fsri_materials_database/01_Data/Nylon_Carpet_LowPile/Cone

Note: 01_Data/README.md
# Materials and Products Database
## 01_Data

Raw data generated from each apparatus are included here in plain-text format. The data is organized first by material, next by the short name of test apparatus used, and where applicable additional filtering by test settings.

### material.json

Each material directory contains a json file of the same name as the material. This file links the data stored in the repository as well as data and graphs produced by the accompanying scripts (__02_Scripts__) to the respective landing page for the material on the front-end website.

File: Nylon_Carpet_Low_Pile_Cone_HF25Scalar_220317_R1.csv
LABORATORY,FSRI
TEST IDENT,NylonCarpetLP_HF25_1
OPERATOR,Dow
MATERIAL,Nylon Carpet - low pile
ORIENTATION,Horizontal
HEAT FLUX,25
SURF AREA,0.01
C FACTOR,0.0418642
SPEC HOLDER DIFF,-566
SPECIMEN MASS,26.26
SCAN TIME,0.25
O2 DELAY TIME,11
CO DELAY TIME,11
CO2 DELAY TIME,8
FLOW FACTOR,1
SCAN COUNT,4176
TIME TO IGN,625.25
END OF TEST SCAN,3696
END OF TEST TIME,924
TEST STATUS,1
PRE TEST CMT,Dimensions: 100.31 x 98.98 x 14.52 mm; 60 mm spacing
POST TEST CMT,"
At start of heat flux exposure the sample corners lifted and curled towards the center. The sample continued to warp, then relaxed as the material started melting. The sample remained as a partially melted mass with less than half of the original exposed surfaced area. Ignition began as a candle sized flame which slowly spread across the sample surface. The time to ignition event was recorded when flames had spread across the majority of the sample area, more than a minute after the initial ignition. By the time of peak heat release rate, the flames had spread across the entire foil pan area. "

File: Nylon_Carpet_Low_Pile_Cone_HF25Scan_220317_R2.csv
Names,Time,Stack TC,Smoke TC,Exh Press,Smoke Comp,Smoke Meas,CO Meter,CO2 Meter,O2 Meter,Sample Mass,Ext Coeff,Start Test,Flame Verif
Chan Gain,,500,500,1,1,1,1,1,1,1,1,1.0,1.0
Offset,,0,0,0.13495,0,0,0,0,0,0,0,0.0,0.0
Gain,,1,1,25.011,13.0212,13.19,1,1,1,1.0009,1.01015,1.0,1.0
Units,sec,C,C,Pa,%,%,%,%,%,g,/m,,
Baseline,,24.2988,25.2419,138.58,98.6956,93.0442,0.000746846,0.044563,21.0242,-489.167,0.522551,,
56,13.75,23.3484,24.5687,141.063,98.5374,92.2499,0.000169683,0.0477473,21.0194,29.5566,0.584249,0.0,0.0
112,27.75,23.6783,24.5915,136.735,99.025,93.3113,0.000802173,0.0446191,21.025,29.5065,0.52661,0.0,0.0
168,41.75,23.8092,24.5077,140.114,97.3409,91.0153,0.000656024,0.0439773,21.0267,29.4265,0.595379,0.0,0.0
224,55.75,24.4076,25.1147,139.985,98.5823,92.1524,0.000668006,0.0434161,21.0265,29.3464,0.597647,0.0,0.0
280,69.75,24.5402,25.7894,136.472,98.3164,91.3796,0.000489733,0.0434256,21.0283,29.1962,0.648347,0.0,0.0
336,83.75,24.4106,25.0436,134.531,98.5334,92.0244,0.000562384,0.0443724,21.0271,29.1362,0.60557,0.0,0.0
392,97.75,24.2405,25.6833,136.425,99.2423,92.1774,0.000624434,0.0440669,21.0249,29.1562,0.654377,0.0,0.0
448,111.75,24.9093,25.4652,138.366,98.5406,91.5837,0.00074788,0.04391,21.0215,29.1562,0.648755,0.0,0.0
504,125.75,24.7749,25.9967,135.404,97.7398,91.1147,0.000819644,0.0440292,21.0238,29.1362,0.621948,0.0,0.0
560,139.75,24.4629,25.7017,141.333,97.3929,90.802,0.000540639,0.0438957,21.0238,29.0962,0.620911,0.0,0.0
616,153.75,24.5743,25.4112,137.838,97.3516,90.5625,0.000843342,0.0482574,21.0176,29.1262,0.640552,0.0,0.0
672,167.75,24.4748,26.0879,138.494,97.3925,90.8756,0.00103048,0.0483677,21.0196,29.1262,0.613689,0.0,0.0
728,181.75,25.2796,26.3816,135.88,97.3953,90.4719,0.000776014,0.0468014,21.019,29.0761,0.653397,0.0,0.0
784,195.75,24.8048,26.0069,138.015,97.3743,90.7162,0.00100868,0.0458482,21.0218,29.0461,0.627583,0.0,0.0
840,209.75,24.6661,25.9847,135.29,97.3508,90.4876,0.000549554,0.0452214,21.0213,29.0261,0.647809,0.0,0.0
896,223.75,24.6918,25.6148,140.37,97.3476,90.201,0.00099841,0.0443285,21.0219,29.0061,0.67563,0.0,0.0
952,237.75,24.8159,26.1961,138.774,97.3488,90.7516,0.000668993,0.0443389,21.024,28.9861,0.621808,0.0,0.0
1008,251.75,25.1473,25.9581,137.942,97.375,90.6953,0.000985926,0.044128,21.0228,28.9861,0.629699,0.0,0.0
1064,265.75,24.3938,26.0961,141.174,97.5157,90.7947,0.000420286,0.0445822,21.022,28.9961,0.632782,0.0,0.0
1120,279.75,24.6391,25.7675,137.586,97.7907,90.62,0.00108367,0.0443115,21.0234,28.916,0.6748,0.0,0.0
1176,293.75,25.1844,25.8172,134.777,98.3013,91.3885,0.0010832,0.0443753,21.0234,28.936,0.646127,0.0,0.0
1232,307.75,25.2366,25.6141,135.972,98.8167,92.1798,0.000892008,0.0441318,21.0237,28.876,0.616063,0.0,0.0
1288,321.75,25.2665,25.8312,136.957,99.1783,92.3163,0.000562388,0.0439235,21.0238,28.8559,0.635324,0.0,0.0
1344,335.75,24.8791,25.8261,141.549,99.1136,92.9768,0.000637503,0.0439002,21.0237,28.8459,0.566359,0.0,0.0
1400,349.75,25.2715,25.6325,142.621,98.6288,92.4225,0.000517029,0.0440503,21.0245,28.876,0.575892,0.0,0.0
1456,363.75,24.7373,25.8882,139.743,98.7925,92.0703,0.000634541,0.0438556,21.0244,28.8259,0.624421,0.0,0.0
1512,377.75,25.0804,26.4256,137.196,98.7198,92.3239,0.000777922,0.0439094,21.0236,28.7959,0.593524,0.0,0.0
1568,391.75,25.1856,25.6946,136.341,98.1209,91.5656,0.00043881,0.0440329,21.0244,28.8059,0.612695,0.0,0.0
1624,405.75,24.6526,25.787,139.817,98.4933,92.1541,0.000680824,0.0438942,21.0249,28.7558,0.589488,0.0,0.0
1680,419.75,25.0745,25.8931,138.48,98.5123,92.7957,0.000591923,0.0449352,21.0223,28.7458,0.529723,0.0,0.0
1736,433.75,24.8132,26.2025,137.217,97.9421,91.5515,0.000540648,0.0442013,21.0244,28.7358,0.597895,0.0,0.0
1792,447.75,25.3571,26.0245,134.744,97.381,91.0157,0.00044072,0.0441698,21.0221,28.6758,0.598992,0.0,0.0
1848,461.75,25.294,26.0021,137.614,97.474,91.0314,0.000151042,0.0441636,21.0247,28.7058,0.605922,0.0,0.0
1904,475.75,25.1829,26.0676,136.974,98.1348,92.1235,0.000284091,0.0438532,21.0228,28.6357,0.560125,0.0,0.0
1960,489.75,25.2243,26.1907,140.887,98.8744,93.0694,0.000748519,0.0439713,21.0238,28.6458,0.536127,0.0,0.0
2016,503.75,25.266,26.0964,140.711,99.261,93.544,0.000732535,0.0439635,21.0237,28.6157,0.525641,0.0,0.0
2072,517.75,24.9013,25.9193,133.379,99.0051,92.6041,0.000510154,0.0437388,21.0254,28.5657,0.592249,0.0,0.0
2128,531.75,24.3693,26.1592,138.579,98.5056,92.8367,0.000738504,0.0437634,21.0249,28.5857,0.525196,0.0,0.0
2184,545.75,24.4764,25.6578,138.099,98.9403,93.1129,0.000703961,0.043992,21.026,28.5357,0.537899,0.0,0.0
2240,559.75,25.0927,26.0561,138.06,98.6308,92.5159,0.000644828,0.0439887,21.0246,28.5557,0.567122,0.0,0.0
2296,573.75,24.6021,25.418,136.83,98.1376,92.5244,0.000709037,0.0439588,21.0233,28.5056,0.521897,0.0,0.0
2352,587.75,25.0237,25.9389,137.181,98.4313,92.59,0.000534156,0.044053,21.0226,28.4656,0.542092,0.0,0.0
2408,601.75,24.3432,25.5549,138.964,98.591,92.3992,0.000542327,0.0441066,21.0223,28.4656,0.574739,0.0,0.0
2464,615.75,24.9077,25.6856,136.637,98.2576,92.9929,0.000850415,0.043996,21.0226,28.4556,0.487968,0.0,0.0
2520,629.75,24.8431,26.2565,141.343,97.6441,92.5047,0.000306716,0.043869,21.0256,28.4155,0.479111,0.0,0.0
2576,643.75,24.8034,25.7759,136.939,97.2991,92.5304,0.000259128,0.0439637,21.0256,28.3955,0.445288,0.0,0.0
2632,657.75,24.64,25.7895,137.213,97.6663,92.5228,0.000658967,0.0442111,21.0236,28.3855,0.479396,0.0,0.0
2688,671.75,24.7557,25.8824,142.844,98.477,93.7279,0.000341912,0.0440046,21.0242,28.3455,0.437966,0.0,0.0
2744,685.75,25.043,25.9174,136.149,99.0862,93.554,0.000105799,0.0440242,21.0253,28.3355,0.509066,0.0,0.0
2800,699.75,24.6911,26.0731,137.169,99.226,93.2352,0.000444183,0.0441501,21.0205,28.3255,0.551813,0.0,0.0
2856,713.75,24.8891,25.4117,135.448,98.893,93.3516,0.000721019,0.0442496,21.022,28.2954,0.510977,0.0,0.0
2912,727.75,24.9945,25.9203,137.441,98.4551,93.2578,0.000716833,0.0440276,21.0252,28.2654,0.480558,0.0,0.0
2968,741.75,25.3443,26.3347,135.597,98.9502,94.0999,0.000241428,0.0440812,21.0248,28.2354,0.445356,0.0,0.0
3024,755.75,24.4441,26.3381,140.602,98.7766,94.0033,0.00046131,0.0441666,21.0246,28.2154,0.438894,0.0,0.0
3080,769.75,24.8519,25.651,135.28,98.1313,93.5001,0.000497105,0.0456021,21.0222,28.2054,0.428368,0.0,0.0
3136,783.75,24.905,26.0378,136.353,98.3276,93.063,0.000752025,0.0452231,21.0213,28.1853,0.487601,0.0,0.0
3192,797.75,24.9708,25.7244,136.372,98.5342,93.9819,0.000345187,0.0447244,21.0253,28.1453,0.419133,0.0,0.0
3248,811.75,24.9654,26.1024,137.344,98.5501,93.9268,0.000405218,0.0445161,21.0207,28.1253,0.425763,0.0,0.0
3304,825.75,25.299,26.3061,134.752,98.2997,93.2127,0.000337809,0.0445049,21.0203,28.1053,0.470849,0.0,0.0
3360,839.75,25.2949,26.0152,138.821,97.896,92.9301,0.000525286,0.0445768,21.0236,28.0352,0.461283,0.0,0.0
3416,853.75,24.9693,26.4188,135.23,97.5439,92.5542,0.00075145,0.0443807,21.023,28.0352,0.465279,0.0,0.0
3472,867.75,25.1213,26.1738,139.403,97.2896,92.6339,0.00055999,0.0452941,21.0215,27.9852,0.434519,0.0,0.0
3528,881.75,25.0941,25.8477,139.547,97.2956,92.2088,0.00094678,0.0448603,21.0233,27.9852,0.475815,0.0,0.0
3584,895.75,25.3961,26.5479,138.45,97.5988,93.1137,0.000398912,0.0447599,21.0259,27.9151,0.416853,0.0,0.0
3640,909.75,25.4338,26.6097,137.842,98.1177,93.0811,0.000511502,0.0447366,21.0216,27.9151,0.466949,0.0,0.0
3696,923.75,25.0796,26.5788,133.959,98.6502,92.0973,0.00057767,0.0503892,21.0143,27.855,0.609058,0.0,0.0
3752,937.75,26.3279,27.2585,132.355,99.0254,92.4322,0.000908942,0.0944999,20.9509,27.7349,0.610524,0.0,0.0
3808,951.75,28.4934,29.3996,128.7,99.2042,91.8079,0.00148496,0.129025,20.9033,27.5147,0.686564,0.0,0.0
3864,965.75,29.7071,31.1606,134.393,99.2375,91.3369,0.00162242,0.139552,20.8875,27.2645,0.735116,0.0,0.0
3920,979.75,31.9833,33.3378,133.267,99.2455,91.2488,0.0024053,0.15958,20.8565,26.9542,0.744383,0.0,0.0
3976,993.75,33.1291,34.7861,132.305,99.2459,89.1383,0.00277309,0.194128,20.8074,26.5339,0.951765,0.0,0.0
4032,1007.75,35.5708,37.501,126.266,99.2121,88.4886,0.00418587,0.246811,20.7231,25.9633,1.01357,0.0,1.0
4088,1021.75,39.0463,41.5777,121.641,99.0031,86.8008,0.0048711,0.307473,20.6344,25.2527,1.16552,0.0,0.0
4144,1035.75,46.4624,48.4955,118.872,98.3065,83.5899,0.00704457,0.487505,20.3522,24.1017,1.43696,0.0,0.0
4200,1049.75,53.0033,57.2359,110.213,97.4506,82.7643,0.00740385,0.566946,20.2399,22.8105,1.44742,0.0,0.0
4256,1063.75,59.0653,64.1016,114.229,97.4804,78.8807,0.00941207,0.598845,20.189,21.4092,1.87599,0.0,0.0
4312,1077.75,64.6366,70.6965,112.201,98.4126,80.3789,0.0110309,0.65865,20.0858,19.968,1.7936,0.0,0.0
4368,1091.75,69.2274,76.4293,114.627,98.3884,75.6122,0.0122973,0.658006,20.0843,18.4366,2.33313,0.0,0.0
4424,1105.75,71.6865,79.2594,113.752,98.8906,77.9952,0.0135266,0.638758,20.1031,16.9753,2.1033,0.0,0.0
4480,1119.75,74.0825,80.5091,116.627,98.7377,76.821,0.0113096,0.579846,20.199,15.604,2.22399,0.0,0.0
4536,1133.75,71.8115,80.8264,116.949,98.9808,79.437,0.00889568,0.478051,20.3523,14.483,1.94907,0.0,0.0
4592,1147.75,69.1427,76.7801,118.808,97.3158,82.171,0.00542214,0.362989,20.5457,13.7524,1.49891,0.0,0.0
4648,1161.75,64.4215,71.7003,124.305,98.3649,87.1889,0.00342511,0.247883,20.7219,13.2219,1.0687,0.0,0.0
4704,1175.75,58.4396,65.6602,131.819,98.1889,89.0268,0.00268734,0.163477,20.848,12.8916,0.867976,0.0,0.0
4760,1189.75,53.0184,58.2547,130.876,98.9125,92.1315,0.00180775,0.097535,20.9447,12.7715,0.629293,0.0,0.0
4816,1203.75,47.2428,51.2171,133.441,98.9316,91.8099,0.00162618,0.0654544,20.9913,12.7214,0.661987,0.0,0.0
4872,1217.75,42.6168,46.545,136.663,99.0834,92.1573,0.00101068,0.0567362,21.0018,12.7314,0.642109,0.0,0.0
4928,1231.75,40.1657,42.841,134.707,97.9656,91.5825,0.00129742,0.0558028,21.0023,12.7415,0.597017,0.0,0.0
4984,1245.75,37.5112,39.7176,133.613,97.3083,90.5278,0.000819775,0.0547566,21.0052,12.6914,0.639997,0.0,0.0
5040,1259.75,35.707,37.605,135.152,97.5769,91.3031,0.00104435,0.0547188,21.0059,12.6914,0.588865,0.0,0.0
5096,1273.75,34.4736,36.6038,133.628,98.1042,91.6461,0.000987731,0.0532518,21.0092,12.6414,0.603399,0.0,0.0
5152,1287.75,33.3353,34.7334,135.11,98.4098,91.8143,0.000796447,0.0519411,21.0122,12.7214,0.614703,0.0,0.0
5208,1301.75,32.5523,33.1787,137.776,98.5461,92.3754,0.000911644,0.0498883,21.0118,12.6614,0.57298,0.0,0.0
5264,1315.75,31.7828,32.4607,136.35,98.5334,91.954,,,,12.6514,0.612356,0.0,0.0
5291,1322.5,30.8793,32.3077,135.814,98.4941,91.8264,,,,12.6814,0.621121,0.0,0.0

File: Nylon_Carpet_Low_Pile_Cone_HF50Scalar_220318_R2.csv
LABORATORY,FSRI
TEST IDENT,NylonCarpetLP_HF50_2
OPERATOR,Dow
MATERIAL,Nylon Carpet - low pile
ORIENTATION,Horizontal
HEAT FLUX,50
SURF AREA,0.01
C FACTOR,0.0418642
SPEC HOLDER DIFF,-566
SPECIMEN MASS,27.16
SCAN TIME,0.25
O2 DELAY TIME,11
CO DELAY TIME,11
CO2 DELAY TIME,8
FLOW FACTOR,1
SCAN COUNT,1681
TIME TO IGN,53.25
END OF TEST SCAN,1201
END OF TEST TIME,300.25
TEST STATUS,1
PRE TEST CMT,Dimensions: 102.44 x 100.49 x 13.72 mm; 60 mm spacing
POST TEST CMT,"Prior to ignition the sample corners lifted and curled toward the center, then a few seconds later returned to a flat position as the material began melting."

File: Nylon_Carpet_Low_Pile_Cone_HF50Scan_220318_R2.csv
Names,Time,Stack TC,Smoke TC,Exh Press,Smoke Comp,Smoke Meas,CO Meter,CO2 Meter,O2 Meter,Sample Mass,Ext Coeff,Start Test,Flame Verif
Chan Gain,,500,500,1,1,1,1,1,1,1,1,1.0,1.0
Offset,,0,0,0.13495,0,0,0,0,0,0,0,0.0,0.0
Gain,,1,1,25.011,13.0212,13.19,1,1,1,1.0009,1.01015,1.0,1.0
Units,sec,C,C,Pa,%,%,%,%,%,g,/m,,
Baseline,,41.3257,42.5503,130.038,98.7981,92.9862,0.000408658,0.0421488,21.0245,-489.361,0.537264,,
18,4.25,40.6769,42.0073,126.751,98.6498,92.7663,0.000479081,0.0445745,21.0217,30.3573,0.544888,0.0,0.0
36,8.75,40.7882,41.6159,128.47,98.6065,93.7557,0.000467206,0.0459405,21.0203,30.3473,0.446989,0.0,0.0
54,13.25,40.767,41.8476,126.719,98.5564,92.66,0.000374627,0.0459409,21.021,30.2572,0.546652,0.0,0.0
72,17.75,41.1733,42.2862,130.651,98.5203,92.9056,0.000312612,0.0448272,21.0217,30.1971,0.519951,0.0,0.0
90,22.25,40.6208,42.3591,130.028,98.4492,92.7796,0.000436837,0.0435623,21.0238,30.1671,0.525575,0.0,0.0
108,26.75,40.8695,41.9158,128.165,98.4102,92.8279,0.000495111,0.042977,21.0239,30.077,0.517458,0.0,0.0
126,31.25,40.817,42.6858,129.929,98.353,92.3581,0.000706148,0.0428507,21.0239,30.087,0.557258,0.0,0.0
144,35.75,40.9499,42.5212,134.024,98.3435,92.2011,0.000898227,0.0425227,21.0239,29.9769,0.571473,0.0,0.0
162,40.25,40.7239,41.9949,130.621,98.4138,90.9835,0.000851907,0.0426897,21.0237,29.9169,0.695608,0.0,0.0
180,44.75,41.0594,42.3138,126.237,98.5799,90.2578,0.000557892,0.0427142,21.0219,29.8268,0.781517,0.0,0.0
198,49.25,41.399,42.8894,130.151,98.709,89.4024,0.000661537,0.042925,21.0214,29.7768,0.877493,0.0,0.0
216,53.75,41.5292,43.07,120.274,98.8223,91.9777,0.00118587,0.0610369,20.9907,29.6767,0.636009,0.0,1.0
234,58.25,43.322,44.9372,113.088,98.9232,92.7908,0.00227113,0.241645,20.6988,29.3664,0.567066,0.0,1.0
252,62.75,46.7335,49.0149,113.297,99.0011,91.632,0.00330412,0.386347,20.4845,29.0461,0.685402,0.0,0.0
270,67.25,51.0256,53.1544,102.413,99.0607,88.8755,0.00406477,0.482224,20.3283,28.5056,0.961385,0.0,0.0
288,71.75,55.5814,58.0272,107.377,99.0969,85.7764,0.00533452,0.587587,20.1864,28.0252,1.27911,0.0,0.0
306,76.25,59.926,63.2518,104.134,99.1422,85.6351,0.00735196,0.687646,20.0358,27.5047,1.29777,0.0,0.0
324,80.75,64.4066,69.2524,105.471,99.1609,85.7527,0.00812406,0.759905,19.9142,26.9843,1.28728,0.0,0.0
342,85.25,69.1466,73.9716,102.795,99.1764,83.2812,0.00875674,0.797338,19.8517,26.4037,1.54781,0.0,0.0
360,89.75,73.6052,78.5633,102.919,99.2038,82.0619,0.0101469,0.823082,19.8095,25.8332,1.68094,0.0,0.0
378,94.25,77.0214,83.2168,100.533,99.1974,82.1714,0.0112094,0.848966,19.7762,25.2227,1.66856,0.0,0.0
396,98.75,80.0825,87.5668,100.531,99.2193,79.4636,0.011736,0.877092,19.7284,24.6021,1.96743,0.0,0.0
414,103.25,84.412,91.51,103.293,99.1883,76.3348,0.0124834,0.917582,19.6683,23.9816,2.32061,0.0,0.0
432,107.75,86.8591,94.8833,99.5188,99.1744,77.4308,0.0129701,0.903555,19.6895,23.361,2.19304,0.0,0.0
450,112.25,89.0024,97.471,102.246,99.1322,77.2956,0.0126165,0.865704,19.7508,22.7805,2.20476,0.0,0.0
468,116.75,90.3835,99.2405,106.438,99.0774,76.9156,0.0120439,0.796494,19.842,22.26,2.24353,0.0,0.0
486,121.25,90.8703,100.84,107.043,99.0027,78.1216,0.0116831,0.737933,19.9377,21.7996,2.09899,0.0,0.0
504,125.75,91.2976,101.176,104.902,98.8958,75.2338,0.0107626,0.664357,20.0488,21.3392,2.42317,0.0,0.0
522,130.25,91.0517,100.799,107.178,98.7798,77.1024,0.00989479,0.625632,20.1088,20.9588,2.19538,0.0,0.0
540,134.75,91.1064,100.709,107.758,98.686,76.2675,0.00990009,0.590534,20.1658,20.5685,2.28343,0.0,0.0
558,139.25,90.7994,100.096,111.293,98.7436,77.1249,0.00923091,0.55658,20.2153,20.1281,2.18954,0.0,0.0
576,143.75,90.1846,99.7407,108.912,98.7941,75.8932,0.008805,0.526255,20.2631,19.8178,2.33673,0.0,0.0
594,148.25,89.3222,98.9398,111.36,98.8604,76.7413,0.0085002,0.496905,20.3094,19.4275,2.2442,0.0,0.0
612,152.75,88.4715,98.0416,113.578,98.9268,75.4927,0.00858789,0.486387,20.3249,19.1172,2.39551,0.0,0.0
630,157.25,89.0186,96.6599,110.047,99.0083,74.3559,0.00802942,0.46872,20.3532,18.8169,2.53724,0.0,0.0
648,161.75,87.2924,96.3302,112.894,99.0707,77.0581,0.00753157,0.44044,20.3959,18.5367,2.22652,0.0,0.0
666,166.25,85.7832,95.7263,112.433,99.1303,76.7095,0.00709703,0.428704,20.4161,18.2364,2.27203,0.0,0.0
684,170.75,85.9161,94.509,110.969,99.2046,79.8818,0.00673709,0.422623,20.4259,17.9361,1.9196,0.0,0.0
702,175.25,84.797,94.045,110.947,99.2682,79.1549,0.00645964,0.411317,20.4476,17.6659,2.00628,0.0,0.0
720,179.75,84.0413,93.1635,112.245,99.3429,81.2685,0.00630235,0.395524,20.4717,17.3856,1.77944,0.0,0.0
738,184.25,83.5812,92.1928,116.345,99.3913,81.5229,0.00619439,0.382242,20.4908,17.1054,1.75607,0.0,0.0
756,188.75,83.0516,90.2027,111.42,99.4374,80.703,0.00577641,0.371713,20.5087,16.8852,1.84975,0.0,0.0
774,193.25,81.4714,90.7794,109.212,99.4736,81.3039,0.00562255,0.361402,20.5274,16.6249,1.78723,0.0,0.0
792,197.75,81.757,89.398,112.806,99.4867,80.0372,0.00564009,0.354013,20.5382,16.3547,1.92755,0.0,0.0
810,202.25,80.768,88.9216,112.464,99.5113,81.2251,0.00530986,0.345872,20.5511,16.1345,1.7992,0.0,0.0
828,206.75,80.1978,87.7744,113.227,99.495,82.1187,0.00557905,0.339278,20.5596,15.8543,1.70079,0.0,0.0
846,211.25,79.3561,87.5483,115.219,99.4931,83.8407,0.00530018,0.335018,20.5698,15.6441,1.51673,0.0,0.0
864,215.75,79.1547,86.731,112.685,99.4358,82.2314,0.00495463,0.330473,20.5775,15.4139,1.68337,0.0,0.0
882,220.25,78.6447,86.1792,117.208,99.3643,83.5311,0.00468337,0.328609,20.5825,15.2037,1.53803,0.0,0.0
900,224.75,77.812,85.4423,114.507,99.2991,83.414,0.00446705,0.31721,20.5994,14.9935,1.54465,0.0,0.0
918,229.25,77.5436,84.7507,118.659,99.2153,82.295,0.00455018,0.306619,20.6168,14.7833,1.65684,0.0,0.0
936,233.75,77.0787,84.0987,117.188,99.104,83.0855,0.00465334,0.302251,20.6254,14.5431,1.56218,0.0,0.0
954,238.25,76.2595,83.2494,117.772,98.9689,83.703,0.00449755,0.299636,20.6302,14.3629,1.48448,0.0,0.0
972,242.75,75.5764,82.5102,115.256,98.8382,83.9425,0.0044901,0.295884,20.6349,14.1027,1.44745,0.0,0.0
990,247.25,75.13,82.4507,121.397,98.6689,84.1796,0.00442155,0.291267,20.6427,13.9325,1.40727,0.0,0.0
1008,251.75,75.2175,81.2573,117.695,98.5084,84.0757,0.00429364,0.286472,20.6531,13.7424,1.40378,0.0,0.0
1026,256.25,74.7114,81.0355,118.296,98.318,85.1292,0.00421023,0.276083,20.6657,13.5822,1.27631,0.0,0.0
1044,260.75,74.1984,80.2523,118.866,98.1527,84.2597,0.00379612,0.268058,20.6807,13.372,1.35237,0.0,0.0
1062,265.25,72.9312,80.1068,114.527,97.9973,85.0563,0.00382572,0.257217,20.6999,13.2519,1.25495,0.0,0.0
1080,269.75,73.1966,79.218,116.455,97.8658,84.8675,0.00366502,0.245398,20.718,13.0818,1.26274,0.0,0.0
1098,274.25,72.3738,77.1954,116.08,97.7661,84.5994,0.00333707,0.236014,20.7324,12.9617,1.28174,0.0,0.0
1116,278.75,70.6985,77.2549,117.089,97.6723,86.8463,0.00289769,0.227346,20.7456,12.8015,1.04096,0.0,0.0
1134,283.25,70.4169,76.7636,119.522,97.6369,86.6753,0.00264539,0.214842,20.7648,12.6514,1.05523,0.0,0.0
1152,287.75,70.3237,74.7833,117.366,97.5773,88.8497,0.00253318,0.198027,20.7923,12.5713,0.830261,0.0,0.0
1170,292.25,69.1284,74.2965,122.252,97.5908,89.9679,0.00236041,0.177366,20.829,12.4412,0.720662,0.0,0.0
1188,296.75,68.4511,72.7734,127.179,97.6047,90.4087,0.00216952,0.149169,20.873,12.4112,0.67862,0.0,0.0
1206,301.25,65.905,71.1759,125.376,97.6715,90.7215,0.00224079,0.110831,20.9283,12.3611,0.654079,0.0,0.0
1224,305.75,64.7144,69.3087,123.082,97.7577,91.9407,0.00182087,0.0847313,20.9686,12.3711,0.543604,0.0,0.0
1242,310.25,62.4378,66.8607,123.331,97.8547,91.4126,0.00137896,0.0754121,20.9859,12.3511,0.603433,0.0,0.0
1260,314.75,60.9578,64.8865,126.662,97.9862,91.4758,0.00130802,0.0695335,20.9942,12.291,0.609211,0.0,0.0
1278,319.25,60.1458,64.2462,127.446,98.0943,91.7765,0.00103884,0.0633355,21.0007,12.3011,0.589902,0.0,0.0
1296,323.75,58.6868,62.6057,126.676,98.2417,92.117,0.000854873,0.0572911,21.0058,12.271,0.570392,0.0,0.0
1314,328.25,58.0184,61.7222,127.968,98.3355,91.7551,0.000678286,0.0525473,21.0115,12.261,0.613724,0.0,0.0
1332,332.75,57.2946,59.9691,126.098,98.4571,92.3537,0.000515754,0.0494051,21.0151,12.271,0.567058,0.0,0.0
1350,337.25,56.0176,59.4363,125.057,98.5592,92.2611,0.00045241,0.0469573,21.0188,12.261,0.585131,0.0,0.0
1368,341.75,54.774,57.76,124.86,98.6419,92.7341,0.000328338,0.0451204,21.0203,12.3111,0.54725,0.0,0.0
1386,346.25,54.4993,58.0279,127.584,98.7186,92.0309,0.000343301,0.0437952,21.0224,12.3211,0.621586,0.0,0.0
1404,350.75,54.3266,56.9355,126.885,98.7571,92.2104,0.000348185,0.043075,21.0227,12.291,0.607777,0.0,0.0
1422,355.25,53.4333,56.1818,129.999,98.8139,92.3231,0.000523987,0.0427245,21.0227,12.251,0.602051,0.0,0.0
1440,359.75,52.9987,55.5211,124.038,98.8422,92.3473,0.000329153,0.0427831,21.0225,12.261,0.602262,0.0,0.0
1458,364.25,52.6787,54.8124,124.318,98.8533,92.6818,5.76621e-05,0.0426673,21.022,12.231,0.571221,0.0,0.0
1476,368.75,51.3462,53.5061,130.922,98.8322,92.3698,-3.15542e-05,0.0426473,21.0221,12.251,0.599209,0.0,0.0
1494,373.25,51.7449,53.6438,128.189,98.837,92.7172,0.000145021,0.0425693,21.0226,12.241,0.566375,0.0,0.0
1512,377.75,50.9272,53.2549,126.972,98.8076,93.1113,0.000123361,0.0426294,21.0227,12.201,0.526157,0.0,0.0
1530,382.25,50.7772,52.9472,126.366,98.7671,92.5614,0.000287067,0.0424632,21.0232,12.231,0.575004,0.0,0.0
1548,386.75,50.5833,52.3183,129.003,98.7365,92.8045,0.000424927,0.0423637,21.0233,12.271,0.549014,0.0,0.0
1566,391.25,49.9706,52.1772,126.891,98.6717,92.2736,0.000799391,0.0422536,21.0228,12.271,0.594037,0.0,0.0
1584,395.75,49.8691,51.8174,127.604,98.6276,92.2329,0.000475618,0.0421855,21.0237,12.251,0.59398,0.0,0.0
1602,400.25,49.4159,51.6409,126.733,98.566,92.5038,0.000427628,0.0422802,21.024,12.261,0.562458,0.0,0.0
1620,404.75,49.3191,50.6773,124.208,98.5461,92.1275,0.000464372,0.0421129,21.022,12.251,0.596796,0.0,0.0
1638,409.25,49.0239,50.9437,128.923,98.4901,92.243,,0.0422053,,12.241,0.580653,0.0,0.0
1656,413.75,48.9039,50.7279,127.929,98.4559,92.8549,,,,12.251,0.518998,0.0,0.0
1674,418.25,48.8286,50.3143,126.073,98.4186,92.4048,,,,12.261,0.558685,0.0,0.0
1681,420,48.9087,49.855,123.814,98.4027,91.8675,,,,12.251,0.608934,0.0,0.0

File: Nylon_Carpet_Low_Pile_Cone_HF75Scalar_220318_R1.csv
LABORATORY,FSRI
TEST IDENT,NylonCarpetLP_HF75_1
OPERATOR,Dow
MATERIAL,Nylon Carpet - low pile
ORIENTATION,Horizontal
HEAT FLUX,75
SURF AREA,0.01
C FACTOR,0.0397524
SPEC HOLDER DIFF,-566
SPECIMEN MASS,26.35
SCAN TIME,0.25
O2 DELAY TIME,11
CO DELAY TIME,11
CO2 DELAY TIME,8
FLOW FACTOR,1
SCAN COUNT,1291
TIME TO IGN,19.5
END OF TEST SCAN,811
END OF TEST TIME,202.75
TEST STATUS,1
PRE TEST CMT,Dimensions: 102.31 x 98.93 x 14.15 mm; 60 mm spacing

File: Nylon_Carpet_Low_Pile_Cone_HF75Scalar_220318_R3.csv
LABORATORY,FSRI
TEST IDENT,NylonCarpetLP_HF75_3
OPERATOR,Dow
MATERIAL,Nylon Carpet - low pile
ORIENTATION,Horizontal
HEAT FLUX,75
SURF AREA,0.01
C FACTOR,0.0397524
SPEC HOLDER DIFF,-566
SPECIMEN MASS,26.1
SCAN TIME,0.25
O2 DELAY TIME,11
CO DELAY TIME,11
CO2 DELAY TIME,8
FLOW FACTOR,1
SCAN COUNT,1255
TIME TO IGN,17.25
END OF TEST SCAN,775
END OF TEST TIME,193.75
TEST STATUS,1
PRE TEST CMT,Dimensions: 100.90 x 99.42 x 13.78 mm; 60 mm spacing