Folder: fsri_materials_database/01_Data/Feather_PillowA_Cover/MCC

Note: 01_Data/README.md
# Materials and Products Database
## 01_Data

Raw data generated from each apparatus are included here in plain-text format. The data is organized first by material, next by the short name of test apparatus used, and where applicable additional filtering by test settings.

### material.json

Each material directory contains a json file of the same name as the material. This file links the data stored in the repository as well as data and graphs produced by the accompanying scripts (__02_Scripts__) to the respective landing page for the material on the front-end website.

File: Feather_PillowA_Cover_MCC_30K_min_220106_R1.txt
Sample ID:	C:\MCC\MCC Cal\Test\Feather_PillowA_Cover_MCC_30K_min_220106_R1.txt
Sample Weight (mg):	4.29
Heating Rate (C/s):	0.5
Combustor Temp (C):	900
N2 Flow Rate (cc/min):	80
O2 Flow Rate (cc/min):	20
Calibration File:	C:\MCC\MCC Cal\Coeff1 JN10440_30_210304.txt.txt
T Correction Coefficients:	0	1.024463	0
Time Shift (s):	14
*
Time (s)	Temperature (C)	N2 flow rate (cc/min)	O2 flow rate (cc/min)	Flow Rate (cc/min)	Oxygen (%)	HRR (W/g)	Heating rate (C/s)
0.000	110.495	80.010	19.993	104.228	19.959	-0.268	-0.030
8.001	110.497	80.011	19.994	104.218	19.960	-0.355	0.003
16.000	110.447	80.010	19.994	104.249	19.951	0.351	0.003
24.001	110.652	80.010	19.993	104.325	19.944	0.853	0.053
32.000	111.116	80.011	19.993	104.349	19.937	1.430	0.085
40.000	112.024	80.010	19.993	104.379	19.926	2.206	0.142
48.001	113.226	80.009	19.994	104.439	19.927	2.160	0.184
56.000	114.816	80.010	19.994	104.398	19.925	2.328	0.209
64.001	116.659	80.009	19.993	104.441	19.923	2.501	0.246
72.001	118.841	80.010	19.993	104.456	19.922	2.561	0.286
80.001	121.285	80.008	19.993	104.460	19.915	3.098	0.293
88.000	124.004	80.011	19.993	104.458	19.914	3.165	0.307
96.001	126.957	80.011	19.993	104.457	19.915	3.096	0.381
104.001	130.114	80.010	19.993	104.462	19.913	3.250	0.420
112.000	133.413	80.009	19.993	104.469	19.919	2.765	0.442
120.000	136.802	80.012	19.993	104.468	19.913	3.210	0.435
128.000	140.396	80.009	19.994	104.467	19.916	3.029	0.487
136.000	143.968	80.009	19.995	104.461	19.915	3.086	0.417
144.000	147.683	80.010	19.995	104.465	19.914	3.138	0.438
152.000	151.376	80.009	19.992	104.455	19.914	3.163	0.446
160.000	155.137	80.009	19.994	104.458	19.914	3.146	0.492
168.000	158.984	80.008	19.994	104.458	19.913	3.250	0.472
176.000	162.881	80.010	19.992	104.457	19.911	3.346	0.481
184.000	166.815	80.010	19.994	104.458	19.915	3.073	0.490
192.001	170.735	80.010	19.993	104.459	19.915	3.089	0.464
200.000	174.686	80.011	19.993	104.454	19.914	3.154	0.479
208.000	178.675	80.011	19.993	104.433	19.912	3.280	0.499
216.000	182.634	80.009	19.994	104.441	19.913	3.212	0.463
224.000	186.674	80.009	19.994	104.432	19.915	3.045	0.518
232.000	190.668	80.008	19.995	104.441	19.918	2.810	0.482
240.000	194.652	80.008	19.995	104.422	19.918	2.829	0.491
248.000	198.646	80.008	19.994	104.419	19.915	3.080	0.509
256.001	202.599	80.010	19.993	104.423	19.915	3.066	0.487
264.000	206.568	80.009	19.993	104.421	19.911	3.361	0.504
272.000	210.531	80.008	19.992	104.421	19.913	3.211	0.486
280.000	214.444	80.011	19.994	104.418	19.911	3.394	0.514
288.000	218.426	80.012	19.992	104.416	19.910	3.463	0.487
296.000	222.308	80.009	19.994	104.416	19.903	3.944	0.512
304.000	226.291	80.007	19.993	104.417	19.913	3.253	0.493
312.000	230.335	80.007	19.992	104.418	19.903	3.969	0.504
320.000	234.369	80.009	19.992	104.418	19.904	3.936	0.497
328.000	238.328	80.008	19.994	104.420	19.905	3.796	0.497
336.000	242.354	80.008	19.994	104.410	19.907	3.657	0.516
344.000	246.412	80.009	19.994	104.409	19.905	3.794	0.547
352.000	250.430	80.012	19.994	104.405	19.902	4.044	0.464
360.001	254.448	80.011	19.994	104.411	19.900	4.189	0.519
368.000	258.425	80.011	19.993	104.406	19.895	4.618	0.508
376.000	262.461	80.011	19.993	104.407	19.891	4.918	0.526
384.000	266.429	80.009	19.994	104.419	19.890	4.993	0.477
392.000	270.275	80.009	19.993	104.421	19.884	5.418	0.595
400.000	274.491	80.010	19.993	104.421	19.878	5.867	0.504
408.000	278.507	80.010	19.993	104.415	19.877	5.932	0.520
416.000	282.541	80.010	19.994	104.418	19.872	6.337	0.485
424.000	286.559	80.009	19.993	104.420	19.861	7.159	0.536
432.000	290.569	80.011	19.995	104.413	19.847	8.222	0.478
440.000	294.580	80.010	19.994	104.419	19.837	8.981	0.511
448.000	298.648	80.010	19.994	104.431	19.821	10.201	0.534
456.000	302.595	80.013	19.994	104.448	19.808	11.166	0.471
464.000	306.606	80.009	19.994	104.459	19.785	12.953	0.491
472.000	310.633	80.009	19.994	104.460	19.757	15.058	0.496
480.000	314.698	80.008	19.993	104.460	19.728	17.304	0.508
488.000	318.736	80.010	19.993	104.491	19.691	20.093	0.518
496.000	322.778	80.009	19.993	104.498	19.649	23.278	0.506
504.000	326.805	80.009	19.995	104.533	19.592	27.640	0.516
512.000	330.790	80.009	19.994	104.574	19.516	33.464	0.476
520.000	334.761	80.010	19.994	104.605	19.429	40.081	0.520
528.000	338.735	80.009	19.994	104.651	19.302	49.770	0.504
536.000	342.658	80.010	19.993	104.727	19.151	61.328	0.488
544.000	346.575	80.012	19.993	104.796	18.965	75.610	0.454
552.000	350.624	80.010	19.993	104.892	18.732	93.400	0.495
560.000	354.687	80.011	19.994	104.993	18.464	113.993	0.504
568.000	358.757	80.010	19.993	105.085	18.201	134.174	0.551
576.000	362.837	80.009	19.994	105.142	17.957	152.755	0.521
584.000	367.023	80.009	19.994	105.139	17.812	163.671	0.548
592.000	371.201	80.011	19.993	105.035	17.847	160.720	0.540
600.000	375.459	80.010	19.994	104.864	18.115	139.940	0.506
608.000	379.763	80.010	19.994	104.660	18.591	103.637	0.547
616.000	384.034	80.012	19.993	104.489	19.116	63.711	0.551
624.000	388.336	80.013	19.994	104.395	19.524	32.715	0.533
632.000	392.552	80.011	19.993	104.344	19.765	14.458	0.514
640.001	396.801	80.010	19.994	104.345	19.863	7.016	0.534
648.000	400.968	80.011	19.994	104.356	19.896	4.495	0.496
656.000	405.081	80.010	19.993	104.364	19.904	3.930	0.503
664.000	409.169	80.010	19.994	104.373	19.909	3.510	0.498
672.000	413.195	80.009	19.994	104.360	19.911	3.366	0.505
680.000	417.183	80.011	19.993	104.369	19.908	3.574	0.516
688.000	421.126	80.013	19.994	104.356	19.911	3.343	0.479
696.000	425.087	80.011	19.994	104.352	19.913	3.245	0.473
704.000	429.057	80.011	19.995	104.355	19.914	3.135	0.493
712.000	433.049	80.011	19.992	104.353	19.913	3.257	0.488
720.000	436.989	80.010	19.994	104.350	19.915	3.049	0.493
728.000	440.882	80.009	19.995	104.357	19.915	3.064	0.450
736.000	444.870	80.011	19.994	104.375	19.914	3.112	0.526
744.000	448.825	80.011	19.993	104.366	19.916	2.962	0.510
752.000	452.814	80.007	19.993	104.367	19.915	3.035	0.474
760.000	456.837	80.010	19.993	104.355	19.920	2.700	0.513
768.000	460.877	80.012	19.993	104.347	19.919	2.783	0.516
776.000	464.863	80.012	19.993	104.351	19.921	2.646	0.491
784.000	468.927	80.012	19.992	104.353	19.923	2.438	0.514
792.000	473.047	80.011	19.993	104.345	19.927	2.153	0.549
800.000	477.159	80.012	19.993	104.349	19.927	2.165	0.491
808.000	481.299	80.008	19.993	104.351	19.928	2.092	0.511
816.000	485.460	80.009	19.994	104.346	19.928	2.048	0.517
824.000	489.594	80.012	19.995	104.341	19.928	2.078	0.526
832.000	493.783	80.010	19.994	104.346	19.934	1.662	0.531
840.000	497.936	80.010	19.993	104.341	19.929	1.982	0.524
848.000	502.105	80.011	19.993	104.342	19.933	1.689	0.509
856.000	506.293	80.012	19.993	104.342	19.933	1.672	0.535
864.000	510.449	80.011	19.993	104.346	19.931	1.847	0.519
872.000	514.593	80.012	19.992	104.342	19.932	1.805	0.539
880.000	518.708	80.014	19.993	104.339	19.934	1.591	0.497
888.000	522.825	80.012	19.995	104.342	19.938	1.319	0.499
896.000	526.928	80.012	19.994	104.342	19.939	1.279	0.522
904.000	531.038	80.009	19.995	104.341	19.938	1.306	0.503
912.000	535.106	80.010	19.993	104.343	19.939	1.256	0.490
920.000	539.136	80.009	19.994	104.343	19.937	1.425	0.535
928.000	543.180	80.009	19.994	104.346	19.939	1.242	0.530
936.000	547.198	80.011	19.993	104.341	19.940	1.175	0.512
944.000	551.309	80.012	19.992	104.339	19.937	1.362	0.534
952.000	555.434	80.012	19.994	104.336	19.940	1.146	0.535
960.000	559.590	80.013	19.993	104.337	19.938	1.316	0.538
968.000	563.677	80.012	19.993	104.339	19.942	1.052	0.529
976.001	567.739	80.011	19.993	104.342	19.939	1.229	0.483
984.000	571.854	80.007	19.994	104.348	19.940	1.173	0.498
992.000	576.020	80.007	19.995	104.344	19.943	0.913	0.514
1000.000	580.037	80.009	19.994	104.343	19.943	0.961	0.517
1008.000	584.073	80.010	19.995	104.340	19.940	1.194	0.462
1016.000	588.132	80.011	19.996	104.338	19.943	0.913	0.535
1024.001	592.377	80.013	19.994	104.339	19.940	1.200	0.542
1032.000	596.737	80.010	19.994	104.340	19.943	0.963	0.528
1040.002	601.181	80.008	19.992	104.344	19.935	1.556	0.550
1048.000	605.610	80.007	19.986	104.348	19.942	1.025	0.537
1056.000	610.046	80.011	19.993	104.346	19.940	1.171	0.550
1064.000	614.482	80.010	19.991	104.343	19.940	1.206	0.580
1072.000	618.773	80.006	19.999	104.347	19.940	1.156	0.516
1080.000	623.093	80.010	19.993	104.341	19.942	1.021	0.535
1088.000	627.361	80.011	19.995	104.337	19.942	1.029	0.537
1096.000	631.493	80.002	19.999	104.342	19.941	1.119	0.484
1104.000	635.633	80.012	19.994	104.339	19.945	0.794	0.499
1112.000	639.779	80.018	19.993	104.341	19.945	0.805	0.510
1120.000	643.831	80.013	19.994	104.340	19.947	0.674	0.516
1128.000	647.796	80.021	19.989	104.336	19.947	0.645	0.537
1136.001	651.774	80.004	19.991	104.337	19.949	0.514	0.473
1144.000	655.845	80.013	19.990	104.334	19.946	0.751	0.510
1152.000	659.843	80.011	19.994	104.339	19.947	0.622	0.512
1160.000	663.874	80.027	19.991	104.344	19.944	0.878	0.507
1168.001	667.848	79.998	19.997	104.338	19.946	0.724	0.535
1176.001	671.768	80.013	19.994	104.341	19.944	0.876	0.492
1184.000	675.742	80.009	19.994	104.341	19.945	0.774	0.479
1192.000	679.701	80.007	19.996	104.342	19.946	0.734	0.507
1200.000	683.597	80.006	19.994	104.335	19.943	0.934	0.481
1208.000	687.577	80.014	19.994	104.326	19.946	0.682	0.490
1216.000	691.528	80.009	19.995	104.334	19.948	0.591	0.487
1224.000	695.540	80.012	19.995	104.341	19.948	0.601	0.497
1232.000	699.565	80.007	19.992	104.330	19.943	0.919	0.480
1240.000	703.501	80.018	19.992	104.337	19.942	1.027	0.489
1248.000	707.375	80.017	19.993	104.341	19.944	0.867	0.477
1256.001	711.259	80.011	19.989	104.336	19.946	0.734	0.491
1264.001	715.194	80.016	19.991	104.341	19.945	0.786	0.520
1272.001	719.145	80.011	19.994	104.338	19.944	0.842	0.457
1280.001	723.196	80.008	19.992	104.329	19.943	0.938	0.520
1288.000	727.229	80.020	19.993	104.328	19.937	1.362	0.499
1296.001	731.314	80.021	19.993	104.329	19.941	1.059	0.471
1304.001	735.388	80.015	19.994	104.348	19.943	0.975	0.531
1312.000	739.502	80.011	19.992	104.337	19.945	0.824	0.519
1320.000	743.543	80.010	19.993	104.301	19.939	1.267	0.517

File: Feather_PillowA_Cover_MCC_30K_min_220106_R2.txt
Sample ID:	C:\MCC\MCC Cal\Test\Feather_PillowA_Cover_MCC_30K_min_220106_R2.txt
Sample Weight (mg):	4.09
Heating Rate (C/s):	0.5
Combustor Temp (C):	900
N2 Flow Rate (cc/min):	80
O2 Flow Rate (cc/min):	20
Calibration File:	C:\MCC\MCC Cal\Coeff1 JN10440_30_210304.txt.txt
T Correction Coefficients:	0	1.024463	0
Time Shift (s):	14
*
Time (s)	Temperature (C)	N2 flow rate (cc/min)	O2 flow rate (cc/min)	Flow Rate (cc/min)	Oxygen (%)	HRR (W/g)	Heating rate (C/s)
0.000	111.897	80.008	19.994	104.220	20.061	-0.355	-0.018
8.000	111.894	80.010	19.994	104.240	20.056	0.028	-0.009
16.000	111.987	80.009	19.993	104.283	20.052	0.364	0.025
24.000	112.301	80.006	19.993	104.317	20.046	0.849	0.051
32.000	112.843	80.007	19.995	104.391	20.035	1.744	0.053
40.000	113.850	80.010	19.994	104.407	20.029	2.199	0.155
48.000	115.123	80.011	19.993	104.422	20.021	2.861	0.173
56.000	116.769	80.010	19.993	104.453	20.019	2.995	0.240
64.000	118.795	80.011	19.993	104.481	20.018	3.100	0.265
72.000	121.246	80.012	19.993	104.471	20.016	3.249	0.309
80.000	123.930	80.008	19.993	104.494	20.015	3.279	0.310
88.000	126.924	80.009	19.992	104.490	20.019	3.002	0.352
96.000	130.110	80.009	19.993	104.493	20.016	3.238	0.404
104.000	133.423	80.009	19.993	104.498	20.017	3.148	0.428
112.000	136.847	80.009	19.994	104.493	20.016	3.200	0.426
120.000	140.446	80.008	19.994	104.492	20.016	3.216	0.439
128.000	144.113	80.010	19.995	104.492	20.015	3.316	0.462
136.000	147.831	80.009	19.993	104.487	20.014	3.357	0.491
144.000	151.703	80.010	19.993	104.478	20.012	3.580	0.469
152.000	155.455	80.012	19.992	104.478	20.017	3.189	0.455
160.000	159.347	80.009	19.993	104.473	20.014	3.390	0.444
168.000	163.269	80.009	19.992	104.467	20.014	3.398	0.466
176.000	167.237	80.011	19.992	104.457	20.020	2.915	0.482
184.000	171.214	80.011	19.993	104.468	20.016	3.263	0.514
192.000	175.223	80.010	19.994	104.456	20.014	3.396	0.489
200.000	179.239	80.009	19.994	104.456	20.018	3.108	0.499
208.000	183.241	80.009	19.993	104.454	20.018	3.033	0.517
216.000	187.327	80.009	19.994	104.454	20.017	3.186	0.506
224.000	191.365	80.009	19.994	104.439	20.013	3.487	0.515
232.000	195.310	80.011	19.992	104.431	20.010	3.681	0.476
240.000	199.320	80.012	19.993	104.430	20.015	3.279	0.510
248.000	203.326	80.009	19.993	104.416	20.014	3.368	0.512
256.001	207.299	80.009	19.994	104.420	20.009	3.759	0.481
264.000	211.302	80.011	19.992	104.416	20.012	3.541	0.472
272.000	215.265	80.011	19.993	104.410	20.012	3.523	0.495
280.000	219.191	80.008	19.994	104.414	20.006	3.991	0.520
288.000	223.138	80.010	19.994	104.416	20.011	3.652	0.496
296.000	227.129	80.010	19.993	104.418	20.011	3.659	0.482
304.001	231.155	80.010	19.993	104.419	20.009	3.785	0.478
312.000	235.180	80.011	19.996	104.413	20.008	3.903	0.492
320.000	239.098	80.011	19.994	104.410	20.007	3.923	0.454
328.000	243.041	80.008	19.992	104.413	20.006	4.041	0.482
336.000	247.034	80.009	19.992	104.416	20.010	3.740	0.498
344.000	251.031	80.008	19.992	104.414	20.006	4.060	0.492
352.000	255.015	80.008	19.992	104.417	20.000	4.466	0.498
360.001	259.030	80.009	19.993	104.412	20.002	4.333	0.527
368.000	262.973	80.011	19.993	104.418	19.998	4.667	0.503
376.000	266.904	80.009	19.993	104.414	19.995	4.916	0.509
384.000	270.902	80.011	19.992	104.408	19.991	5.254	0.481
392.000	274.888	80.011	19.993	104.412	19.985	5.726	0.485
400.000	278.846	80.013	19.993	104.412	19.974	6.560	0.437
408.000	282.846	80.009	19.995	104.415	19.967	7.139	0.482
416.000	286.843	80.007	19.993	104.417	19.956	7.986	0.503
424.000	290.910	80.008	19.993	104.421	19.947	8.731	0.500
432.000	294.979	80.009	19.992	104.419	19.933	9.847	0.505
440.000	298.987	80.010	19.994	104.415	19.920	10.883	0.500
448.000	303.011	80.009	19.993	104.434	19.900	12.469	0.541
456.000	307.042	80.011	19.992	104.443	19.882	13.946	0.496
464.000	311.109	80.011	19.993	104.453	19.856	15.990	0.513
472.000	315.259	80.010	19.993	104.473	19.827	18.309	0.540
480.000	319.200	80.010	19.993	104.486	19.787	21.514	0.485
488.000	323.298	80.011	19.994	104.505	19.732	25.862	0.534
496.000	327.378	80.008	19.993	104.535	19.671	30.737	0.500
504.000	331.336	80.008	19.994	104.571	19.593	36.959	0.438
512.000	335.435	80.010	19.994	104.602	19.491	45.131	0.467
520.000	339.455	80.008	19.993	104.662	19.367	55.126	0.508
528.000	343.457	80.010	19.994	104.727	19.205	68.128	0.470
536.000	347.431	80.011	19.993	104.801	19.019	83.031	0.482
544.000	351.391	80.010	19.993	104.879	18.802	100.471	0.492
552.000	355.415	80.009	19.993	104.974	18.559	119.990	0.496
560.000	359.413	80.013	19.994	105.039	18.331	138.281	0.506
568.000	363.392	80.012	19.994	105.074	18.149	152.860	0.512
576.000	367.356	80.008	19.994	105.051	18.052	160.431	0.486
584.000	371.431	80.009	19.995	104.967	18.113	155.239	0.501
592.000	375.723	80.009	19.993	104.787	18.395	132.518	0.538
600.000	380.067	80.009	19.995	104.588	18.857	95.561	0.553
608.000	384.487	80.007	19.994	104.465	19.341	56.931	0.530
616.000	388.963	80.010	19.993	104.377	19.691	29.059	0.564
624.000	393.320	80.010	19.991	104.350	19.889	13.352	0.543
632.000	397.628	80.010	19.994	104.338	19.980	6.119	0.501
640.000	401.804	80.010	19.992	104.343	19.999	4.561	0.521
648.000	405.904	80.013	19.993	104.342	20.007	3.924	0.484
656.000	409.929	80.010	19.992	104.338	20.007	3.946	0.494
664.000	413.867	80.009	19.994	104.339	20.017	3.152	0.452
672.000	417.742	80.011	19.995	104.346	20.018	3.030	0.471
680.000	421.644	80.010	19.993	104.346	20.013	3.453	0.461
688.000	425.512	80.008	19.995	104.343	20.022	2.786	0.485
696.000	429.413	80.010	19.995	104.348	20.015	3.283	0.493
704.000	433.349	80.012	19.994	104.351	20.026	2.435	0.469
712.000	437.329	80.009	19.993	104.342	20.025	2.500	0.514
720.000	441.302	80.010	19.993	104.341	20.023	2.637	0.472
728.000	445.285	80.012	19.993	104.346	20.026	2.435	0.490
736.000	449.375	80.009	19.993	104.354	20.024	2.605	0.525
744.000	453.465	80.008	19.993	104.344	20.023	2.696	0.537
752.000	457.538	80.009	19.994	104.352	20.026	2.426	0.474
760.000	461.647	80.010	19.993	104.340	20.029	2.160	0.515
768.000	465.720	80.008	19.993	104.341	20.027	2.360	0.514
776.000	469.803	80.009	19.994	104.342	20.027	2.382	0.508
784.000	473.903	80.011	19.994	104.337	20.028	2.279	0.522
792.000	478.050	80.010	19.995	104.335	20.029	2.186	0.551
800.001	482.095	80.010	19.994	104.338	20.030	2.088	0.526
808.000	486.168	80.013	19.993	104.339	20.032	1.950	0.488
816.000	490.215	80.009	19.994	104.340	20.030	2.131	0.492
824.000	494.336	80.011	19.994	104.350	20.027	2.376	0.509
832.000	498.517	80.009	19.994	104.337	20.025	2.522	0.510
840.000	502.762	80.011	19.992	104.341	20.031	2.057	0.534
848.000	507.036	80.010	19.994	104.339	20.027	2.334	0.541
856.000	511.333	80.010	19.995	104.340	20.028	2.269	0.569
864.000	515.574	80.012	19.994	104.338	20.028	2.304	0.540
872.000	519.818	80.011	19.994	104.339	20.026	2.467	0.542
880.000	523.977	80.009	19.994	104.342	20.027	2.341	0.505
888.000	528.067	80.011	19.993	104.335	20.030	2.087	0.475
896.000	532.238	80.013	19.994	104.334	20.030	2.077	0.495
904.000	536.323	80.009	19.994	104.336	20.031	2.037	0.492
912.000	540.400	80.009	19.992	104.333	20.027	2.371	0.478
920.000	544.512	80.010	19.994	104.338	20.030	2.116	0.513
928.001	548.657	80.010	19.993	104.334	20.029	2.223	0.536
936.000	552.756	80.009	19.993	104.341	20.036	1.634	0.491
944.001	556.998	80.009	19.993	104.341	20.035	1.712	0.518
952.000	561.185	80.009	19.993	104.337	20.033	1.880	0.486
960.000	565.305	80.011	19.993	104.334	20.034	1.771	0.514
968.000	569.408	80.012	19.994	104.335	20.033	1.863	0.521
976.000	573.478	80.010	19.995	104.328	20.036	1.636	0.524
984.000	577.504	80.009	19.994	104.333	20.032	1.939	0.484
992.001	581.542	80.008	19.993	104.335	20.032	1.926	0.507
1000.000	585.483	80.010	19.993	104.336	20.028	2.256	0.485
1008.000	589.518	80.009	19.993	104.340	20.030	2.079	0.515
1016.000	593.550	80.009	19.994	104.323	20.033	1.885	0.505
1024.000	597.689	80.012	19.994	104.338	20.031	2.070	0.510
1032.000	601.691	80.014	19.992	104.337	20.032	1.939	0.521
1040.001	605.773	80.012	19.993	104.335	20.037	1.562	0.527
1048.000	609.865	80.013	19.995	104.333	20.037	1.555	0.487
1056.000	613.912	80.013	19.993	104.328	20.037	1.544	0.506
1064.000	617.925	80.011	19.993	104.330	20.038	1.499	0.476
1072.000	621.948	80.010	19.995	104.333	20.036	1.599	0.497
1080.000	625.978	80.011	19.994	104.330	20.036	1.621	0.495
1088.000	630.066	80.011	19.993	104.329	20.038	1.514	0.485
1096.000	634.110	80.009	19.993	104.336	20.036	1.673	0.500
1104.000	638.234	80.009	19.994	104.336	20.035	1.701	0.505
1112.001	642.286	80.011	19.992	104.310	20.033	1.852	0.519
1120.000	646.286	80.012	19.993	104.332	20.032	1.937	0.509
1128.001	650.383	80.011	19.994	104.324	20.034	1.773	0.549
1136.000	654.403	80.012	19.993	104.337	20.035	1.747	0.494
1144.000	658.468	80.011	19.993	104.337	20.032	1.961	0.490
1152.000	662.500	80.008	19.993	104.336	20.034	1.830	0.530
1160.000	666.525	80.009	19.994	104.336	20.032	1.924	0.489
1168.000	670.551	80.010	19.995	104.334	20.034	1.773	0.494
1176.000	674.661	80.010	19.994	104.330	20.033	1.872	0.501
1184.000	678.730	80.009	19.994	104.336	20.031	2.022	0.495
1192.000	682.735	80.013	19.993	104.328	20.029	2.164	0.506
1200.000	686.815	80.011	19.993	104.332	20.028	2.251	0.522
1208.000	690.880	80.012	19.993	104.335	20.032	1.980	0.532
1216.000	694.852	80.013	19.993	104.334	20.028	2.253	0.506
1224.000	698.878	80.013	19.993	104.329	20.028	2.281	0.498
1232.001	702.872	80.010	19.994	104.323	20.033	1.884	0.537
1240.000	706.875	80.010	19.993	104.316	20.031	2.026	0.517
1248.001	710.918	80.011	19.994	104.337	20.034	1.799	0.487
1256.000	714.997	80.011	19.993	104.310	20.028	2.246	0.517
1264.001	719.142	80.007	19.995	104.323	20.028	2.273	0.516
1272.000	723.177	80.011	19.993	104.318	20.030	2.107	0.485
1280.000	727.277	80.012	19.993	104.316	20.028	2.306	0.500
1288.000	731.428	80.011	19.993	104.309	20.026	2.449	0.533
1296.001	735.535	80.012	19.993	104.310	20.024	2.567	0.505
1304.000	739.735	80.011	19.993	104.330	20.027	2.366	0.535
1311.000	743.437	80.010	19.993	104.333	20.022	2.724	0.552