Folder: fsri_materials_database/01_Data/PlasticA/STA/N2/30K_min

Note: 01_Data/README.md
# Materials and Products Database
## 01_Data

Raw data generated from each apparatus are included here in plain-text format. The data is organized first by material, next by the short name of test apparatus used, and where applicable additional filtering by test settings.

### material.json

Each material directory contains a json file of the same name as the material. This file links the data stored in the repository as well as data and graphs produced by the accompanying scripts (__02_Scripts__) to the respective landing page for the material on the front-end website.

File: PlasticA_STA_N2_30KData_211019_R1.csv
,Time/min,DSC/mW,Mass loss/mg,Sensit./(uV/mW)
50.0,10.9797,0.0428483,0.0554644,1.05402
52.4,11.6062,0.555352,0.0577328,1.05406
54.8,11.9215,0.908023,0.0584855,1.05406
57.2,12.1597,1.18985,0.0572106,1.05404
59.6,12.3631,1.42277,0.0585864,1.05399
62,12.5443,1.61723,0.0569522,1.05391
64.4,12.7118,1.80016,0.0601504,1.0538
66.8,12.8707,1.95663,0.059876,1.05367
69.2,13.0212,2.10108,0.0606434,1.05351
71.6,13.1662,2.23332,0.0611845,1.05332
74,13.306,2.36356,0.0587608,1.0531
76.4,13.4417,2.48979,0.0618546,1.05286
78.8,13.573,2.61339,0.0624767,1.05259
81.2,13.701,2.71299,0.0611153,1.05229
83.6,13.8247,2.80653,0.0608499,1.05197
86,13.9448,2.89329,0.0622326,1.05162
88.4,14.0616,2.97218,0.0639341,1.05124
90.8,14.1751,3.01107,0.062359,1.05084
93.2,14.2857,3.07979,0.0647014,1.05041
95.6,14.3935,3.16728,0.0639042,1.04996
98,14.4992,3.25815,0.0656225,1.04948
100.4,14.6023,3.37515,0.0613,1.04897
102.8,14.7029,3.49387,0.061574,1.04844
105.2,14.8024,3.6237,0.0657873,1.04788
107.6,14.9003,3.75879,0.0635361,1.0473
110,14.9962,3.93381,0.0662012,1.04669
112.4,15.0907,4.11129,0.0691599,1.04606
114.8,15.184,4.28575,0.0682309,1.04541
117.2,15.2758,4.39794,0.0678451,1.04472
119.6,15.3667,4.51403,0.0670357,1.04402
122,15.456,4.61581,0.0662096,1.04329
124.4,15.5445,4.7193,0.0655328,1.04254
126.8,15.6317,4.82212,0.0679027,1.04176
129.2,15.7178,4.92092,0.0680646,1.04096
131.6,15.8029,5.01179,0.0670076,1.04014
134,15.8873,5.08349,0.0671001,1.03929
136.4,15.9706,5.1257,0.068223,1.03842
138.8,16.0532,5.16005,0.0674159,1.03753
141.2,16.1347,5.20963,0.0685398,1.03661
143.6,16.2159,5.26531,0.0673036,1.03567
146,16.2953,5.3272,0.0685585,1.03471
148.4,16.3754,5.39364,0.0695018,1.03373
150.8,16.4546,5.44785,0.0687797,1.03272
153.2,16.5331,5.50039,0.0687593,1.03169
155.6,16.6109,5.57665,0.0687714,1.03065
158,16.6881,5.63772,0.0702,1.02957
160.4,16.7647,5.70366,0.0688797,1.02848
162.8,16.8411,5.76404,0.068355,1.02738
165.2,16.9172,5.83293,0.06887,1.02625
167.6,16.9926,5.89323,0.0661964,1.02508
170,17.0675,5.93822,0.0648062,1.02391
172.4,17.1418,5.99631,0.0661631,1.02272
174.8,17.2158,6.06267,0.06635,1.0215
177.2,17.2896,6.1168,0.06635,1.02027
179.6,17.3627,6.17863,0.065036,1.01902
182,17.4353,6.23886,0.0667174,1.01774
184.4,17.5075,6.30027,0.0687403,1.01645
186.8,17.5793,6.35591,0.0692491,1.01514
189.2,17.6507,6.42223,0.06888,1.01381
191.6,17.7216,6.47289,0.0697601,1.01247
194,17.7923,6.52335,0.0692,1.0111
196.4,17.8629,6.57394,0.0692,1.00971
198.8,17.933,6.63105,0.0665814,1.00831
201.2,18.003,6.67419,0.0666216,1.00689
203.6,18.0726,6.72885,0.0666305,1.00545
206,18.1421,6.77642,0.0654062,1.004
208.4,18.2113,6.8256,0.06383,1.00253
210.8,18.2803,6.86931,0.06383,1.00104
213.2,18.3492,6.91839,0.0654206,0.999533
215.6,18.4177,6.96716,0.0669,0.998014
218,18.4862,7.01104,0.064177,0.996473
220.4,18.5543,7.04906,0.06426,0.994923
222.8,18.6223,7.09393,0.0651226,0.993353
225.2,18.6902,7.14595,0.0641898,0.991762
227.6,18.7579,7.1741,0.0655583,0.990162
230,18.8256,7.2255,0.064581,0.988543
232.4,18.893,7.24245,0.0648453,0.986912
234.8,18.9603,7.28824,0.0659137,0.985263
237.2,19.0274,7.33517,0.0630623,0.983602
239.6,19.0944,7.36105,0.06174,0.981932
242,19.1613,7.40001,0.0616971,0.980242
244.4,19.2281,7.42075,0.0624,0.978541
246.8,19.2945,7.46676,0.0617496,0.976823
249.2,19.361,7.50784,0.059,0.975091
251.6,19.4274,7.54304,0.059,0.973342
254,19.4938,7.58173,0.0589976,0.971591
256.4,19.56,7.6083,0.06032,0.969821
258.8,19.6262,7.63303,0.059,0.968032
261.2,19.6922,7.66652,0.0613449,0.966242
263.6,19.7581,7.68416,0.0603927,0.964432
266,19.8239,7.7023,0.05988,0.962612
268.4,19.8897,7.72305,0.058516,0.960781
270.8,19.9554,7.73731,0.0593359,0.958941
273.2,20.0209,7.76496,0.0546267,0.957082
275.6,20.0866,7.77796,0.0533,0.955221
278,20.152,7.78881,0.0519719,0.953342
280.4,20.2175,7.79974,0.05066,0.951461
282.8,20.2829,7.81149,0.0516375,0.949561
285.2,20.3483,7.81277,0.0506723,0.947651
287.6,20.4136,7.81418,0.0506699,0.945741
290,20.479,7.82119,0.0479108,0.943811
292.4,20.5444,7.81827,0.0456958,0.941871
294.8,20.6097,7.80992,0.0450508,0.93993
297.2,20.6749,7.79402,0.0450649,0.937971
299.6,20.7402,7.7812,0.0424265,0.93601
302,20.8056,7.75896,0.0378156,0.934031
304.4,20.8707,7.73857,0.0346588,0.932051
306.8,20.9356,7.70855,0.0339415,0.930062
309.2,21.001,7.66286,0.0375998,0.928061
311.6,21.0664,7.62955,0.0360755,0.92606
314,21.1318,7.58189,0.0318502,0.924041
316.4,21.1969,7.53534,0.0319905,0.922021
318.8,21.2622,7.47979,0.03038,0.919991
321.2,21.3274,7.42246,0.0280907,0.91796
323.6,21.3926,7.37316,0.0227929,0.915911
326,21.4578,7.32531,0.0215486,0.913871
328.4,21.5232,7.28926,0.0205233,0.91181
330.8,21.5886,7.28049,0.0212699,0.90975
333.2,21.6539,7.24455,0.0180643,0.90768
335.6,21.7193,7.21107,0.0150133,0.905611
338,21.7847,7.14504,0.0156043,0.903531
340.4,21.8502,7.08239,0.01458,0.90144
342.8,21.9158,7.01289,0.013058,0.89935
345.2,21.9814,6.91068,0.0130495,0.897261
347.6,22.047,6.81456,0.00850028,0.895161
350,22.1126,6.69744,0.00114692,0.89305
352.4,22.1783,6.57528,-0.0018702,0.89094
354.8,22.2441,6.42543,-0.00127965,0.88883
357.2,22.31,6.27794,-0.00470118,0.88671
359.6,22.3757,6.12924,-0.00797942,0.88459
362,22.4416,5.96497,-0.011128,0.882471
364.4,22.5076,5.78905,-0.0112485,0.88034
366.8,22.5736,5.61004,-0.0140628,0.878211
369.2,22.6397,5.43554,-0.0158648,0.87607
371.6,22.7059,5.24971,-0.0203983,0.87393
374,22.772,5.08936,-0.0255685,0.87179
376.4,22.8383,4.93266,-0.0374891,0.86965
378.8,22.9047,4.77883,-0.037848,0.86751
381.2,22.971,4.6376,-0.0431644,0.86536
383.6,23.0373,4.53765,-0.0472323,0.86321
386,23.104,4.4744,-0.0567893,0.86106
388.4,23.1707,4.43921,-0.0652983,0.85891
390.8,23.2373,4.47667,-0.0721949,0.85675
393.2,23.3039,4.58094,-0.0854961,0.8546
395.6,23.3705,4.76006,-0.0961007,0.85244
398,23.4376,5.01684,-0.106495,0.85028
400.4,23.5047,5.37631,-0.124476,0.84813
402.8,23.572,5.82683,-0.141022,0.84597
405.2,23.6396,6.39332,-0.160202,0.84381
407.6,23.7071,7.0718,-0.175878,0.84165
410,23.7746,7.87821,-0.196817,0.83949
412.4,23.8423,8.79997,-0.223702,0.83734
414.8,23.91,9.84578,-0.253727,0.83518
417.2,23.9779,11.0221,-0.289855,0.83302
419.6,24.0457,12.3024,-0.328373,0.83086
422,24.1138,13.6937,-0.365864,0.82871
424.4,24.1824,15.217,-0.41139,0.82655
426.8,24.2511,16.8897,-0.466926,0.8244
429.2,24.32,18.657,-0.525397,0.82225
431.6,24.3888,20.5244,-0.598245,0.8201
434,24.4581,22.5195,-0.673332,0.81795
436.4,24.5273,24.5996,-0.758569,0.8158
438.8,24.5967,26.7051,-0.865573,0.81366
441.2,24.6659,28.8373,-0.974561,0.81151
443.6,24.7362,30.868,-1.09233,0.80937
446,24.806,32.6986,-1.22303,0.807231
448.4,24.8761,34.2904,-1.36226,0.8051
450.8,24.946,35.4716,-1.52476,0.802971
453.2,25.0162,36.2503,-1.67797,0.800841
455.6,25.0861,36.4612,-1.8498,0.79871
458,25.1561,36.1789,-2.0229,0.796591
460.4,25.2261,35.3848,-2.18274,0.794461
462.8,25.2961,34.1259,-2.34187,0.79235
465.2,25.3661,32.3597,-2.49909,0.790231
467.6,25.4359,29.8703,-2.64248,0.788121
470,25.5056,27.1666,-2.78821,0.78602
472.4,25.5754,24.2356,-2.91851,0.78392
474.8,25.6451,21.5939,-3.04027,0.78182
477.2,25.7148,18.9882,-3.14721,0.779731
479.6,25.7845,16.6137,-3.24366,0.777641
482,25.8544,14.4301,-3.32993,0.775551
484.4,25.9242,12.4452,-3.40339,0.773471
486.8,25.9942,10.7152,-3.46875,0.7714
489.2,26.0645,9.21429,-3.52501,0.76933
491.6,26.1348,7.98823,-3.57405,0.767261
494,26.2053,6.98991,-3.6133,0.765201
496.4,26.276,6.20201,-3.64286,0.76315
498.8,26.3469,5.55881,-3.67307,0.761101
501.2,26.4181,5.03135,-3.70036,0.75906
503.6,26.4891,4.57277,-3.72112,0.757021
506,26.5603,4.17701,-3.73598,0.75499
508.4,26.6316,3.82132,-3.75077,0.752961
510.8,26.7033,3.49619,-3.76257,0.750942
513.2,26.7749,3.23029,-3.77113,0.74893
515.6,26.8467,2.98776,-3.77026,0.74692
518,26.9185,2.81003,-3.77572,0.74492
520.4,26.9904,2.68852,-3.78321,0.742922
522.8,27.0624,2.604,-3.78855,0.740931
525.2,27.1342,2.544,-3.7952,0.738951
527.6,27.2065,2.5019,-3.79388,0.736971
530,27.2787,2.47675,-3.79328,0.735001
532.4,27.351,2.44865,-3.79038,0.733041
534.8,27.4235,2.45881,-3.79197,0.731081
537.2,27.496,2.46089,-3.79296,0.729141
539.6,27.5686,2.48884,-3.79156,0.727191
542,27.6413,2.50493,-3.79766,0.725261
544.4,27.714,2.49639,-3.79448,0.723331
546.8,27.7869,2.51633,-3.79989,0.721411
549.2,27.8599,2.52703,-3.79966,0.719501
551.6,27.9328,2.52063,-3.79567,0.717601
554,28.0059,2.54024,-3.79453,0.715701
556.4,28.079,2.55364,-3.79569,0.713811
558.8,28.1522,2.54358,-3.79711,0.711931
561.2,28.2257,2.5475,-3.79482,0.710052
563.6,28.2992,2.52849,-3.79547,0.708191
566,28.373,2.51766,-3.79082,0.706331
568.4,28.4465,2.53767,-3.78856,0.704481
570.8,28.5203,2.53477,-3.79129,0.702642
573.2,28.5941,2.53625,-3.79027,0.700802
575.6,28.668,2.57102,-3.79129,0.698982
578,28.7422,2.55855,-3.79541,0.697162
580.4,28.8162,2.57392,-3.7969,0.695352
582.8,28.8904,2.59872,-3.79426,0.693552
585.2,28.9646,2.59356,-3.79294,0.691762
587.6,29.039,2.60516,-3.79165,0.689972
590,29.1134,2.61445,-3.79287,0.688203
592.4,29.1878,2.63673,-3.78677,0.686432
594.8,29.2622,2.6394,-3.78981,0.684672
597.2,29.3366,2.65274,-3.79569,0.682922
599.6,29.4109,2.6656,-3.79292,0.681182
602,29.4855,2.67123,-3.79327,0.679452
604.4,29.5602,2.70915,-3.7954,0.677733
606.8,29.6351,2.70086,-3.79836,0.676012
609.2,29.7103,2.72562,-3.78794,0.674312
611.6,29.7847,2.7383,-3.79429,0.672612
614,29.86,2.76294,-3.79427,0.670922
616.4,29.9353,2.75726,-3.793,0.669242
618.8,,,,
621.2,,,,
623.6,,,,
626,,,,
628.4,,,,
630.8,,,,
633.2,,,,
635.6,,,,
638,,,,
640.4,,,,
642.8,,,,
645.2,,,,
647.6,,,,
650,,,,
652.4,,,,
654.8,,,,
657.2,,,,
659.6,,,,
662,,,,
664.4,,,,
666.8,,,,
669.2,,,,
671.6,,,,
674,,,,
676.4,,,,
678.8,,,,
681.2,,,,
683.6,,,,
686,,,,
688.4,,,,
690.8,,,,
693.2,,,,
695.6,,,,
698,,,,
700.4,,,,
702.8,,,,
705.2,,,,
707.6,,,,
710,,,,
712.4,,,,
714.8,,,,
717.2,,,,
719.6,,,,
722,,,,
724.4,,,,
726.8,,,,
729.2,,,,
731.6,,,,
734,,,,
736.4,,,,
738.8,,,,
741.2,,,,
743.6,,,,
746,,,,
748.4,,,,
750,,,,