Folder: fsri_materials_database/01_Data/Asphalt_Shingle/Cone (part 5)

File: Asphalt_Shingle_Cone_HF75Scan_220415_R3.csv
Names,Time,Stack TC,Smoke TC,Exh Press,Smoke Comp,Smoke Meas,CO Meter,CO2 Meter,O2 Meter,Sample Mass,Ext Coeff,Start Test,Flame Verif
Chan Gain,,500,500,1,1,1,1,1,1,1,1,1.0,1.0
Offset,,0,0,0.134662,0,0,0,0,0,0,0,0.0,0.0
Gain,,1,1,25.011,14.0001,15.1165,1,1,1,1.00131,1.00941,1.0,1.0
Units,sec,C,C,Pa,%,%,%,%,%,g,/m,,
Baseline,,45.573,47.0067,137.836,104.371,102.3,0.000322996,0.0451989,21.0119,-839.046,0.17748,,
8,1.75,42.5129,44.1272,138.087,103.874,102.04,0.00012695,0.0524983,21.0031,-305.65,0.157743,0.0,0.0
16,3.75,43.2731,44.2048,138.236,103.884,101.644,0.000187016,0.0520309,21.0045,-305.57,0.19307,0.0,0.0
24,5.75,42.9156,44.0898,138.544,103.881,101.474,0.000126426,0.0510354,21.0061,-305.65,0.207584,0.0,0.0
32,7.75,43.0834,44.4193,136.024,103.882,101.458,3.28891e-05,0.0500206,21.0071,-305.61,0.209061,0.0,0.0
40,9.75,42.9525,44.645,136.069,103.888,100.917,1.78162e-05,0.0489747,21.0075,-305.65,0.256922,0.0,0.0
48,11.75,42.7714,44.8902,136.598,103.889,99.5531,0.000384804,0.0487947,21.0084,-305.65,0.377496,0.0,0.0
56,13.75,42.9837,44.4148,137.559,103.884,101.314,0.00114246,0.0565492,20.9891,-305.72,0.221776,0.0,0.0
64,15.75,43.1155,44.6979,132.177,103.882,102.014,0.00207842,0.0807748,20.9399,-305.77,0.16068,0.0,1.0
72,17.75,43.6871,45.3401,130.492,103.884,91.6337,0.00382518,0.123408,20.8638,-305.93,1.11099,0.0,1.0
80,19.75,44.2564,45.8268,125.016,103.879,73.6026,0.00775571,0.195325,20.7201,-306.01,3.05078,0.0,1.0
88,21.75,45.4588,46.8718,106.77,103.883,55.6715,0.0136202,0.337879,20.4182,-306.331,5.52338,0.0,0.0
96,23.75,48.3414,49.3432,112.835,103.885,56.6117,0.0196579,0.520945,20.1446,-306.621,5.37527,0.0,0.0
104,25.75,51.5108,52.2448,107.086,103.88,47.3277,0.0251991,0.64586,19.9328,-306.842,6.96086,0.0,0.0
112,27.75,54.9197,56.4391,107.091,103.883,46.7713,0.0300137,0.725576,19.772,-307.172,7.06582,0.0,0.0
120,29.75,57.7716,60.167,97.5721,103.885,39.178,0.034249,0.803046,19.6224,-307.492,8.63465,0.0,0.0
128,31.75,61.6618,63.6791,99.9558,103.889,40.2732,0.0379495,0.890906,19.4911,-307.883,8.39086,0.0,0.0
136,33.75,65.2354,68.0959,100.73,103.894,41.6322,0.0404829,0.95347,19.3972,-308.203,8.09739,0.0,0.0
144,35.75,68.3678,71.4115,104.338,103.904,39.4506,0.0430253,0.9879,19.3387,-308.524,8.57481,0.0,0.0
152,37.75,71.5396,75.6984,94.6769,103.905,37.4559,0.0468016,1.03915,19.2296,-308.954,9.03435,0.0,0.0
160,39.75,75.3819,79.7478,95.1265,103.927,34.1422,0.0520697,1.12247,19.0569,-309.415,9.85642,0.0,0.0
168,41.75,79.1279,83.679,97.8552,103.941,32.5359,0.0575691,1.22343,18.8596,-309.896,10.2843,0.0,0.0
176,43.75,82.9793,87.9776,93.6053,103.96,30.8793,0.0616244,1.32534,18.7207,-310.256,10.7486,0.0,0.0
184,45.75,87.3618,93.3333,90.5171,103.972,30.2035,0.0626264,1.38171,18.6587,-310.757,10.9456,0.0,0.0
192,47.75,91.3956,97.5589,99.4077,103.993,35.8141,0.059164,1.36573,18.7533,-311.157,9.43874,0.0,0.0
200,49.75,93.6362,100.605,113.744,104.017,41.9971,0.0522894,1.24836,18.9931,-311.468,8.03064,0.0,0.0
208,51.75,94.7439,102.858,115.42,104.022,52.5835,0.0418818,1.06495,19.3013,-311.748,6.04058,0.0,0.0
216,53.75,95.5878,103.506,120.412,104.044,65.034,0.0315045,0.858656,19.6495,-311.898,4.16074,0.0,0.0
224,55.75,94.3014,102.71,119.488,104.054,76.2381,0.0225787,0.664815,19.9622,-312.078,2.75419,0.0,0.0
232,57.75,93.1842,101.654,128.892,104.064,88.8358,0.016768,0.527751,20.1814,-312.098,1.40096,0.0,0.0
240,59.75,91.7171,100.246,128.946,104.091,94.3472,0.0120829,0.393405,20.4259,-312.118,0.870245,0.0,0.0
248,61.75,90.2447,98.838,131.208,104.101,98.9562,0.00939438,0.296874,20.6059,-312.199,0.448793,0.0,0.0
256,63.75,89.1506,97.3068,131.559,104.147,101.312,0.00795069,0.233248,20.7195,-312.249,0.24442,0.0,0.0
264,65.75,86.7032,94.9022,133.283,104.146,102.52,0.0071466,0.190632,20.794,-312.279,0.13934,0.0,0.0
272,67.75,84.8898,93.3003,133.783,104.166,102.722,0.00684386,0.163409,20.844,-312.269,0.123573,0.0,0.0
280,69.75,83.3236,91.3727,134.155,104.201,102.669,0.00668627,0.14607,20.8748,-312.359,0.131125,0.0,0.0
288,71.75,81.9473,89.5612,131.733,104.213,102.472,0.00654267,0.135835,20.8917,-312.369,0.149186,0.0,0.0
296,73.75,80.0587,87.9801,136.279,104.24,102.637,0.00644917,0.13007,20.902,-312.389,0.137214,0.0,0.0
304,75.75,79.275,86.5194,138.043,104.258,102.999,0.00646896,0.126498,20.9074,-312.439,0.107551,0.0,0.0
312,77.75,77.3025,84.9218,132.681,104.276,102.861,0.0064736,0.12441,20.9108,-312.419,0.120981,0.0,0.0
320,79.75,75.456,83.5636,131.5,104.295,103.398,0.00641268,0.123264,20.9125,-312.459,0.0765095,0.0,0.0
328,81.75,74.4394,81.965,133.636,104.31,102.806,0.00625285,0.122042,20.9121,-312.539,0.128573,0.0,0.0
336,83.75,73.6771,81.5895,133.828,104.33,102.552,0.00593839,0.120452,20.9152,-312.549,0.152234,0.0,0.0
344,85.75,72.7147,79.8551,135.127,104.345,102.841,0.00565974,0.119584,20.9172,-312.569,0.128488,0.0,0.0
352,87.75,71.2922,78.7081,136.53,104.354,102.751,0.00550727,0.119145,20.9181,-312.629,0.137033,0.0,0.0
360,89.75,70.3954,77.3698,135.073,104.367,102.646,0.00545791,0.118716,20.9189,-312.649,0.14719,0.0,0.0
368,91.75,69.2074,76.185,135.023,104.387,102.543,0.00538383,0.117802,20.9203,-312.669,0.157736,0.0,0.0
376,93.75,68.1705,74.9153,135.817,104.399,103.733,0.00528426,0.116918,20.9221,-312.739,0.0566454,0.0,0.0
384,95.75,67.6407,73.9284,135.824,104.425,102.741,0.00519059,0.116777,20.9228,-312.769,0.143961,0.0,0.0
392,97.75,67.0176,73.6195,134.154,104.398,102.971,0.00510795,0.117064,20.9236,-312.779,0.121901,0.0,0.0
400,99.75,66.2308,72.7645,135.392,104.407,102.853,0.00499547,0.116885,20.925,-312.789,0.132783,0.0,0.0
408,101.75,64.8634,72.0408,133.753,104.406,102.997,0.00490523,0.116706,20.9259,-312.819,0.120256,0.0,0.0
416,103.75,64.7636,70.9131,136.207,104.404,102.969,0.00485912,0.116284,20.9279,-312.93,0.122571,0.0,0.0
424,105.75,64.165,69.8135,133.67,104.387,102.777,0.00483411,0.116163,20.9301,-312.93,0.137675,0.0,0.0
432,107.75,63.5952,69.7241,134.802,104.382,103.189,0.00469857,0.115993,20.9308,-312.96,0.101819,0.0,0.0
440,109.75,63.3263,68.7132,137.711,104.382,102.587,0.00446025,0.115741,20.931,-312.95,0.15359,0.0,0.0
448,111.75,62.0499,67.8053,133.841,104.359,103.07,0.0043124,0.115777,20.9318,-312.99,0.110045,0.0,0.0
456,113.75,61.1739,67.3225,133.099,104.369,103.156,0.00428452,0.11599,20.9327,-313.05,0.103583,0.0,0.0
464,115.75,60.8591,66.5753,132.813,104.354,102.411,0.00434171,0.115891,20.9333,-313.12,0.166381,0.0,0.0
472,117.75,60.1981,65.9375,134.915,104.352,102.352,0.00439114,0.115193,20.9347,-313.11,0.171306,0.0,0.0
480,119.75,60.0424,64.7982,135.21,104.333,102.574,0.00433771,0.115237,20.9353,-313.13,0.150536,0.0,0.0
488,121.75,59.4485,64.602,134.63,104.323,102.769,0.00423359,0.115735,20.9344,-313.17,0.132916,0.0,0.0
496,123.75,58.8799,63.6787,132.975,104.321,103.134,0.00426414,0.116672,20.9338,-313.19,0.101311,0.0,0.0
504,125.75,58.4847,63.9248,132.507,104.307,103.244,0.0043954,0.117368,20.9338,-313.21,0.0906933,0.0,0.0
512,127.75,58.3224,63.319,137.278,104.289,102.717,0.00441936,0.117194,20.9351,-313.25,0.134504,0.0,0.0
520,129.75,57.5865,63.1608,135.007,104.287,102.56,0.00424113,0.116875,20.9359,-313.28,0.14789,0.0,0.0
528,131.75,56.8647,62.6904,135.411,104.267,102.433,0.00405723,0.116694,20.9363,-313.36,0.157108,0.0,0.0
536,133.75,57.3242,61.6501,137.336,104.264,102.778,0.00390996,0.116648,20.9371,-313.41,0.127112,0.0,0.0
544,135.75,56.376,61.4872,135.774,104.25,102.58,0.00382812,0.115967,20.9392,-313.38,0.142945,0.0,0.0
552,137.75,56.1527,61.1923,137.041,104.238,102.827,0.00389583,0.115386,20.9403,-313.39,0.12069,0.0,0.0
560,139.75,56.4171,60.533,133.377,104.219,102.388,0.0038972,0.115047,20.9408,-313.47,0.156989,0.0,0.0
568,141.75,55.7401,60.1646,134.172,104.203,102.776,0.00375316,0.114882,20.941,-313.48,0.122084,0.0,0.0
576,143.75,55.5527,59.8143,134.103,104.203,102.679,0.00363667,0.114665,20.9411,-313.47,0.130431,0.0,0.0
584,145.75,55.0774,59.228,132.983,104.189,102.674,0.00359722,0.114279,20.9411,-313.48,0.129671,0.0,0.0
592,147.75,54.9147,59.382,131.691,104.176,102.843,0.0036568,0.113994,20.9418,-313.57,0.114073,0.0,0.0
600,149.75,54.3649,58.8363,135.897,104.168,102.226,0.00374073,0.113433,20.9419,-313.57,0.166569,0.0,0.0
608,151.75,54.0766,58.3058,136.32,104.147,102.519,0.00376221,0.112982,20.9429,-313.63,0.139532,0.0,0.0
616,153.75,54.3443,57.8798,137.655,104.142,102.63,0.00371707,0.112935,20.9433,-313.68,0.129535,0.0,0.0
624,155.75,53.3669,57.6075,136.282,104.13,101.998,0.00367712,0.112712,20.9435,-313.721,0.183215,0.0,0.0
632,157.75,53.8808,57.9413,135.553,104.112,102.372,0.00369121,0.112262,20.9436,-313.731,0.149229,0.0,0.0
640,159.75,53.9823,57.604,135.484,104.089,103.21,0.00365783,0.111432,20.9436,-313.721,0.075105,0.0,0.0
648,161.75,53.7928,57.3235,134.312,104.077,102.427,0.00358247,0.110532,20.9432,-313.761,0.141502,0.0,0.0
656,163.75,53.4099,56.6144,134.86,104.066,102.574,0.00353261,0.110767,20.943,-313.781,0.127809,0.0,0.0
664,165.75,53.3371,56.4696,136.315,104.052,102.536,0.00352315,0.111347,20.9429,-313.841,0.129875,0.0,0.0
672,167.75,52.9342,56.5181,132.851,104.044,102.828,0.00347064,0.111178,20.9429,-313.901,0.104116,0.0,0.0
680,169.75,53.2558,56.5151,133.847,104.041,102.091,0.00331932,0.110599,20.9428,-313.911,0.167532,0.0,0.0
688,171.75,52.8574,56.0791,136.57,104.012,102.201,0.00313,0.110916,20.9432,-313.911,0.155542,0.0,0.0
696,173.75,52.3524,55.4674,136.975,104,102.75,0.00304372,0.111509,20.9437,-314.001,0.107125,0.0,0.0
704,175.75,51.784,55.6856,136.517,103.986,102.225,0.00302802,0.111464,20.9439,-313.961,0.151244,0.0,0.0
712,177.75,52.2805,55.4692,134.167,103.973,102.411,0.00296537,0.110479,20.9453,-314.041,0.133988,0.0,0.0
720,179.75,51.8556,55.2058,138.767,103.964,102.075,0.00285216,0.10918,20.9464,-314.081,0.162349,0.0,0.0
728,181.75,51.2245,54.9326,136.043,103.954,102.261,,0.108582,,-314.051,0.145396,0.0,0.0
736,183.75,51.7556,54.6342,135.328,103.945,102.904,,0.108206,,-314.131,0.0891239,0.0,0.0
744,185.75,51.6405,54.3202,136.831,103.926,102.143,,,,-314.161,0.153265,0.0,0.0
752,187.75,51.061,54.395,133.618,103.923,102.179,,,,-314.141,0.149812,0.0,0.0
760,189.75,51.5845,54.1435,137.765,103.905,102.252,,,,-314.131,0.141973,0.0,0.0
768,191.75,50.9958,54.237,131.198,103.9,102.336,,,,-314.161,0.134305,0.0,0.0
770,192.25,51.0667,54.178,134.858,103.906,102.3,,,,-314.151,0.137889,0.0,0.0