Folder: fsri_materials_database/01_Data/Asphalt_Shingle/Cone

Note: 01_Data/README.md
# Materials and Products Database
## 01_Data

Raw data generated from each apparatus are included here in plain-text format. The data is organized first by material, next by the short name of test apparatus used, and where applicable additional filtering by test settings.

### material.json

Each material directory contains a json file of the same name as the material. This file links the data stored in the repository as well as data and graphs produced by the accompanying scripts (__02_Scripts__) to the respective landing page for the material on the front-end website.

File: Asphalt_Shingle_Cone_HF25Scalar_220415_R1.csv
LABORATORY,FSRI
TEST IDENT,Shingles_HF25_1
OPERATOR,Dow
MATERIAL,Fiberglass asphalt shingles
ORIENTATION,Horizontal
HEAT FLUX,25
SURF AREA,0.01
C FACTOR,0.0403665
SPEC HOLDER DIFF,-566
SPECIMEN MASS,35.86
SCAN TIME,0.25
O2 DELAY TIME,11
CO DELAY TIME,11
CO2 DELAY TIME,8
FLOW FACTOR,1
SCAN COUNT,2056
TIME TO IGN,86
END OF TEST SCAN,1576
END OF TEST TIME,394
TEST STATUS,1
PRE TEST CMT,Dimensions: 101.89 x 101.05 x 2.50 mm
POST TEST CMT,Test picture available.

File: Asphalt_Shingle_Cone_HF25Scalar_220415_R2.csv
LABORATORY,FSRI
TEST IDENT,Shingles_HF25_2
OPERATOR,Dow
MATERIAL,Fiberglass asphalt shingles
ORIENTATION,Horizontal
HEAT FLUX,25
SURF AREA,0.01
C FACTOR,0.0403665
SPEC HOLDER DIFF,-566
SPECIMEN MASS,37.98
SCAN TIME,0.25
O2 DELAY TIME,11
CO DELAY TIME,11
CO2 DELAY TIME,8
FLOW FACTOR,1
SCAN COUNT,2660
TIME TO IGN,88.75
END OF TEST SCAN,2180
END OF TEST TIME,545
TEST STATUS,1
PRE TEST CMT,Dimensions: 100.76 x 101.77 x 2.53 mm

File: Asphalt_Shingle_Cone_HF25Scalar_220415_R3.csv
LABORATORY,FSRI
TEST IDENT,Shingles_HF25_3
OPERATOR,Dow
MATERIAL,Fiberglass asphalt shingles
ORIENTATION,Horizontal
HEAT FLUX,25
SURF AREA,0.01
C FACTOR,0.0403665
SPEC HOLDER DIFF,-566
SPECIMEN MASS,36.32
SCAN TIME,0.25
O2 DELAY TIME,11
CO DELAY TIME,11
CO2 DELAY TIME,8
FLOW FACTOR,1
SCAN COUNT,1605
TIME TO IGN,88.5
END OF TEST SCAN,1125
END OF TEST TIME,281.25
TEST STATUS,1
PRE TEST CMT,Dimensions: 100.64 x 101.73 x 2.53 mm

File: Asphalt_Shingle_Cone_HF25Scan_220415_R1.csv
Names,Time,Stack TC,Smoke TC,Exh Press,Smoke Comp,Smoke Meas,CO Meter,CO2 Meter,O2 Meter,Sample Mass,Ext Coeff,Start Test,Flame Verif
Chan Gain,,500,500,1,1,1,1,1,1,1,1,1.0,1.0
Offset,,0,0,0.133554,0,0,0,0,0,0,0,0.0,0.0
Gain,,1,1,25.011,13.1255,13.9488,1,1,1,1.0009,1.00465,1.0,1.0
Units,sec,C,C,Pa,%,%,%,%,%,g,/m,,
Baseline,,16.8256,17.1395,144.941,98.104,94.0548,0.000936691,0.044529,21.0121,-833.61,0.371473,,
22,5.25,16.1416,16.6073,145.711,97.968,93.7864,0.00105334,0.0547777,21.0013,-296.267,0.38442,0.0,0.0
44,10.75,16.6845,16.791,148.345,97.968,93.7962,0.00105822,0.053788,21.0029,-296.267,0.383501,0.0,0.0
66,16.25,16.6166,16.3823,142.934,97.9604,93.9448,0.000876692,0.0500265,21.0075,-296.267,0.368868,0.0,0.0
88,21.75,16.0041,16.8714,142.391,97.95,93.9644,0.00079247,0.0496939,21.0081,-296.277,0.366095,0.0,0.0
110,27.25,16.0544,16.9582,143.395,97.9512,93.9154,0.000821688,0.049462,21.0085,-296.297,0.370795,0.0,0.0
132,32.75,16.6341,17.1483,143.277,97.9264,93.8052,0.000821992,0.0467588,21.0104,-296.317,0.378913,0.0,0.0
154,38.25,16.7274,16.7928,142.059,97.9456,93.2139,0.000938539,0.0445825,21.0135,-296.327,0.436368,0.0,0.0
176,43.75,16.8025,17.2755,143.005,97.9324,92.8729,0.001061,0.0432076,21.0138,-296.367,0.467474,0.0,0.0
198,49.25,16.6172,16.8971,147.688,97.9428,93.1023,0.000892637,0.0427613,21.0139,-296.387,0.446665,0.0,0.0
220,54.75,17.0319,17.1886,141.292,97.9452,92.9053,0.000929921,0.0424902,21.0149,-296.387,0.465558,0.0,0.0
242,60.25,16.7823,17.3907,138.916,97.9504,93.2633,0.000920251,0.0427024,21.0152,-296.397,0.432133,0.0,0.0
264,65.75,16.682,17.9457,143.344,97.9468,92.8406,0.000724517,0.042645,21.0152,-296.477,0.471842,0.0,0.0
286,71.25,16.9624,17.437,142.736,97.9336,92.8201,0.001005,0.0430961,21.0131,-296.477,0.472592,0.0,0.0
308,76.75,17.0461,17.3654,144.911,97.9524,92.3761,0.000909427,0.0444415,21.0132,-296.457,0.516541,0.0,0.0
330,82.25,17.5884,18.2374,143.092,97.938,91.1519,0.00145385,0.0510598,21.0008,-296.517,0.632821,0.0,0.0
352,87.75,17.6955,18.1802,139.904,97.9456,93.6408,0.00230364,0.0698101,20.97,-296.567,0.396093,0.0,1.0
374,93.25,17.9635,18.2248,134.86,97.964,92.2348,0.00255203,0.10013,20.9203,-296.677,0.531079,0.0,1.0
396,98.75,18.9774,19.1338,140.042,97.9484,87.6966,0.00263153,0.12572,20.884,-296.757,0.974318,0.0,1.0
418,104.25,20.5243,20.7366,138.994,97.9492,82.2665,0.00348447,0.142597,20.8496,-296.887,1.53769,0.0,0.0
440,109.75,21.3447,21.8491,137.024,97.9452,79.7133,0.00425365,0.164072,20.8124,-297.028,1.81518,0.0,0.0
462,115.25,22.7417,23.0428,139.04,97.9484,79.6814,0.00442511,0.161856,20.8175,-297.198,1.81899,0.0,0.0
484,120.75,22.9511,23.9839,138.28,97.944,80.9141,0.00476343,0.162977,20.8143,-297.348,1.6833,0.0,0.0
506,126.25,23.7003,24.3047,135.184,97.948,76.3261,0.0053939,0.180612,20.7791,-297.558,2.19809,0.0,0.0
528,131.75,25.5034,26.5564,132.917,97.942,75.6173,0.00608535,0.214865,20.7174,-297.738,2.27976,0.0,0.0
550,137.25,26.7547,27.8486,132.422,97.9408,69.8225,0.00718411,0.244231,20.6599,-297.998,2.98229,0.0,0.0
572,142.75,28.4259,29.7391,131.953,97.9536,66.6805,0.00833679,0.274372,20.6122,-298.309,3.38921,0.0,0.0
594,148.25,30.3557,31.6184,130.241,97.946,64.4797,0.00969793,0.299126,20.5689,-298.629,3.6843,0.0,0.0
616,153.75,31.9795,33.2927,130.585,97.942,63.6654,0.00994884,0.300385,20.5675,-298.979,3.79595,0.0,0.0
638,159.25,32.7972,34.0586,130.373,97.9412,66.3489,0.00942367,0.284457,20.599,-299.24,3.43203,0.0,0.0
660,164.75,33.56,35.2869,132.838,97.9376,69.702,0.00812527,0.259289,20.6484,-299.48,2.99722,0.0,0.0
682,170.25,33.6211,35.5082,135.637,97.9396,76.6684,0.00641673,0.224211,20.7107,-299.68,2.1579,0.0,0.0
704,175.75,33.2243,35.0658,136.977,97.9472,80.9925,0.00526776,0.196089,20.7616,-299.88,1.67506,0.0,0.0
726,181.25,33.3484,35.224,138.224,97.9428,82.5828,0.00435093,0.178418,20.7934,-300.01,1.50329,0.0,0.0
748,186.75,33.5317,35.199,136.58,97.9512,83.2286,0.0042602,0.170287,20.8061,-300.14,1.43541,0.0,0.0
770,192.25,32.6057,35.2934,135.903,97.9564,83.5364,0.00417484,0.165719,20.8161,-300.281,1.40334,0.0,0.0
792,197.75,32.8286,34.9101,137.501,97.9696,84.9343,0.00400624,0.160215,20.8278,-300.401,1.25828,0.0,0.0
814,203.25,32.2181,34.8231,138.559,97.9756,83.9821,0.00429874,0.158561,20.8297,-300.501,1.35818,0.0,0.0
836,208.75,32.0961,34.5787,139.916,98.0025,84.3252,0.00402957,0.159441,20.8291,-300.631,1.32466,0.0,0.0
858,214.25,32.0197,34.0173,135.679,98.0277,84.2485,0.00408376,0.153514,20.837,-300.761,1.33495,0.0,0.0
880,219.75,31.3455,33.8477,134.805,98.0714,84.4686,0.00414363,0.149385,20.844,-300.881,1.31588,0.0,0.0
902,225.25,31.3137,33.5867,139.889,98.101,84.3728,0.00392778,0.145193,20.8507,-300.981,1.32854,0.0,0.0
924,230.75,31.128,33.1302,138.849,98.1174,84.7926,0.00420709,0.139029,20.8621,-301.091,1.28628,0.0,0.0
946,236.25,30.686,33.2123,141.478,98.1403,86.5506,0.00401965,0.131359,20.8722,-301.191,1.10748,0.0,0.0
968,241.75,30.5167,32.5083,135.915,98.1527,87.68,0.0040172,0.121842,20.8889,-301.271,0.994347,0.0,0.0
990,247.25,29.8123,32.3122,138.177,98.1471,88.8625,0.00417955,0.112063,20.9024,-301.341,0.87578,0.0,0.0
1012,252.75,29.2424,31.52,139.665,98.115,89.3729,0.0042119,0.10467,20.9154,-301.402,0.822429,0.0,0.0
1034,258.25,28.9481,30.9815,140.448,98.0966,90.4448,0.00425551,0.0986568,20.9253,-301.462,0.715709,0.0,0.0
1056,263.75,27.8573,29.9041,140.915,98.0565,90.3818,0.00433583,0.0968219,20.927,-301.502,0.71825,0.0,0.0
1078,269.25,27.63,29.7676,142.142,98.0369,90.6406,0.00438549,0.0942742,20.9324,-301.572,0.691287,0.0,0.0
1100,274.75,27.3616,29.0056,141.451,98.0037,89.4998,0.00435972,0.0923781,20.9358,-301.602,0.799922,0.0,0.0
1122,280.25,27.0019,28.9249,139.53,97.9848,89.8897,0.0046678,0.0901582,20.9374,-301.662,0.759917,0.0,0.0
1144,285.75,26.9331,28.2993,139.45,97.9696,90.0536,0.00465118,0.0878573,20.9418,-301.722,0.742495,0.0,0.0
1166,291.25,26.8364,27.8247,138.419,97.95,90.7964,0.0044891,0.0868218,20.9453,-301.762,0.668335,0.0,0.0
1188,296.75,26.3075,27.7543,139.401,97.9452,91.2987,0.00477308,0.0839225,20.95,-301.792,0.619282,0.0,0.0
1210,302.25,25.7843,27.3932,140.473,97.9304,91.6648,0.00509023,0.0808496,20.9544,-301.842,0.582682,0.0,0.0
1232,307.75,25.4867,27.0041,143.218,97.93,92.477,0.00509556,0.0780701,20.9601,-301.872,0.504903,0.0,0.0
1254,313.25,24.507,26.1192,140.698,97.9348,92.4923,0.00486141,0.0740627,20.9659,-301.902,0.503876,0.0,0.0
1276,318.75,24.6818,26.048,142.287,97.9412,92.904,0.0051014,0.0713416,20.9705,-301.912,0.465319,0.0,0.0
1298,324.25,24.1149,25.61,141.577,97.9472,93.4774,0.00515135,0.0684961,20.9744,-301.962,0.411635,0.0,0.0
1320,329.75,23.9758,25.4696,143.196,97.95,93.4816,0.00516448,0.0662388,20.9771,-301.992,0.411486,0.0,0.0
1342,335.25,23.3836,25.0881,143.167,97.9668,93.6123,0.00558376,0.0643998,20.9822,-302.002,0.400687,0.0,0.0
1364,340.75,23.215,24.6493,139.012,97.9684,93.8699,0.00549066,0.0625309,20.9849,-302.022,0.376619,0.0,0.0
1386,346.25,22.9627,24.1134,140.497,97.9684,93.4497,0.00545322,0.060825,20.9871,-302.042,0.416153,0.0,0.0
1408,351.75,23.0034,23.9183,144.605,97.9692,93.5216,0.00553793,0.0598948,20.9893,-302.082,0.409444,0.0,0.0
1430,357.25,22.6648,23.7492,140.743,97.9576,93.663,0.00531455,0.0588769,20.9872,-302.102,0.395091,0.0,0.0
1452,362.75,22.5252,23.5161,140.225,97.952,93.6787,0.00568291,0.0588537,20.9881,-302.102,0.393105,0.0,0.0
1474,368.25,22.2877,23.2834,142.677,97.9344,93.9031,0.0059371,0.058382,20.9886,-302.122,0.37044,0.0,0.0
1496,373.75,21.9129,23.1192,142.767,97.9264,93.7843,0.00609215,0.0579973,20.9895,-302.152,0.380872,0.0,0.0
1518,379.25,22.1128,23.1555,141.882,97.9256,93.5046,0.00614216,0.0572244,20.9901,-302.172,0.407121,0.0,0.0
1540,384.75,22.0717,22.9496,142.957,97.934,93.9916,0.00610782,0.0575083,20.9907,-302.202,0.362098,0.0,0.0
1562,390.25,21.6952,22.708,138.948,97.9336,93.4914,0.00612988,0.0578538,20.9912,-302.202,0.409085,0.0,0.0
1584,395.75,21.0231,22.1421,140.084,97.9332,93.5378,0.00641455,0.0566402,20.9924,-302.222,0.404676,0.0,0.0
1606,401.25,21.2326,21.5931,141.124,97.93,93.7268,0.00623344,0.0561512,20.9917,-302.252,0.386599,0.0,0.0
1628,406.75,20.2322,21.2849,142.101,97.9175,93.7034,0.00617921,0.0561933,20.994,-302.272,0.387683,0.0,0.0
1650,412.25,20.7418,21.2569,145.351,97.92,93.686,0.00626325,0.0561258,20.9925,-302.292,0.389541,0.0,0.0
1672,417.75,21.1858,21.2373,145.502,97.924,93.6477,0.00634395,0.05608,20.9929,-302.302,0.393506,0.0,0.0
1694,423.25,20.3575,21.8617,143.531,97.9272,93.8716,0.00643966,0.0560356,20.9942,-302.332,0.372748,0.0,0.0
1716,428.75,20.4591,21.2107,141.25,97.9252,93.7141,0.00657895,0.0563945,20.9947,-302.322,0.387366,0.0,0.0
1738,434.25,20.5479,21.2751,143.755,97.9212,94.0167,0.0065774,0.0564378,20.9948,-302.362,0.358591,0.0,0.0
1760,439.75,20.2024,20.7466,140.507,97.9187,94.1197,0.00639208,0.0567978,20.9933,-302.372,0.348722,0.0,0.0
1782,445.25,20.7954,20.8727,139.691,97.9195,93.7745,0.00627207,0.057015,20.9932,-302.402,0.381179,0.0,0.0
1804,450.75,20.3039,21.0722,139.755,97.926,93.8605,0.0064234,0.0575788,20.9946,-302.412,0.373679,0.0,0.0
1826,456.25,20.3454,20.6365,141.044,97.9224,93.7353,0.00637057,0.0575199,20.9948,-302.432,0.385114,0.0,0.0
1848,461.75,19.9953,20.9699,142.747,97.9276,93.9529,0.00641723,0.0576215,20.9928,-302.452,0.365155,0.0,0.0
1870,467.25,19.8737,20.6923,143.66,97.9412,93.8303,0.00650769,0.0578432,20.9925,-302.462,0.377886,0.0,0.0
1892,472.75,19.9869,20.6721,144.104,97.96,94.1112,0.00655269,0.0578894,20.9915,-302.473,0.353233,0.0,0.0
1914,478.25,20.1013,20.6471,140.872,97.9772,94.0491,0.0064777,0.0576872,20.9918,-302.493,0.360604,0.0,0.0
1936,483.75,20.2495,20.5163,142.219,97.97,93.9363,0.00650427,0.0573466,20.9919,-302.533,0.370532,0.0,0.0
1958,489.25,19.7442,20.7296,142.697,97.9917,94.3858,0.00629256,0.0572984,20.9919,-302.543,0.330406,0.0,0.0
1980,494.75,19.8209,20.4562,142.926,98.0009,93.9252,0.00624523,0.0572314,20.9924,-302.563,0.374344,0.0,0.0
2002,500.25,19.6909,20.3292,142.56,98.0297,94.044,0.00600263,0.0574792,20.9922,-302.673,0.365801,0.0,0.0
2024,505.75,19.9913,20.3142,145.372,98.0549,93.8796,,0.058229,,-302.623,0.383481,0.0,0.0
2046,511.25,19.6578,20.5463,146.088,98.0774,94.316,,,,-302.633,0.344633,0.0,0.0
2056,513.75,20.3044,20.559,139.125,98.1038,94.2308,,,,-302.623,0.354966,0.0,0.0

File: Asphalt_Shingle_Cone_HF25Scan_220415_R2.csv
Names,Time,Stack TC,Smoke TC,Exh Press,Smoke Comp,Smoke Meas,CO Meter,CO2 Meter,O2 Meter,Sample Mass,Ext Coeff,Start Test,Flame Verif
Chan Gain,,500,500,1,1,1,1,1,1,1,1,1.0,1.0
Offset,,0,0,0.133554,0,0,0,0,0,0,0,0.0,0.0
Gain,,1,1,25.011,13.1255,13.9488,1,1,1,1.0009,1.00465,1.0,1.0
Units,sec,C,C,Pa,%,%,%,%,%,g,/m,,
Baseline,,19.3623,19.8378,143.387,98.4382,94.4813,0.000844549,0.0430385,21.0135,-830.386,0.361567,,
28,6.75,17.8952,18.9939,141.377,98.1294,94.1729,0.00130402,0.0486433,21.0061,-305.025,0.362684,0.0,0.0
56,13.75,18.4335,19.1748,142.003,98.1322,94.2594,0.00110292,0.0458339,21.0092,-305.035,0.354854,0.0,0.0
84,20.75,18.4086,19.1666,142.959,98.1258,94.4569,0.000852701,0.0441591,21.0117,-305.055,0.33583,0.0,0.0
112,27.75,18.824,19.0154,142.666,98.1551,94.1419,0.000868728,0.0482619,21.0061,-305.085,0.367895,0.0,0.0
140,34.75,18.9196,18.8892,141.382,98.1871,93.9963,0.000730754,0.0474965,21.0068,-305.095,0.384411,0.0,0.0
168,41.75,18.7741,19.1857,139.709,98.2504,93.8524,0.000914493,0.0445796,21.0134,-305.125,0.403589,0.0,0.0
196,48.75,18.902,19.5595,141.194,98.3045,93.5195,0.000906091,0.0433202,21.0154,-305.135,0.439752,0.0,0.0
224,55.75,19.4721,19.6983,139.255,98.3778,93.4872,0.00059967,0.0428759,21.0157,-305.155,0.449369,0.0,0.0
252,62.75,19.2296,19.6715,143.083,98.4407,93.3105,0.000762751,0.0428494,21.0149,-305.175,0.471669,0.0,0.0
280,69.75,19.3829,19.7761,143.16,98.5136,93.5531,0.00101288,0.0431945,21.013,-305.205,0.455308,0.0,0.0
308,76.75,19.551,20.0686,142.723,98.5917,93.1189,0.000733064,0.0438816,21.0119,-305.225,0.503288,0.0,0.0
336,83.75,19.9025,20.338,141.595,98.6594,93.159,0.00134317,0.0502651,21.0029,-305.285,0.505551,0.0,0.0
364,90.75,19.9788,20.126,141.349,98.7343,94.674,0.00210799,0.0761469,20.9581,-305.375,0.370075,0.0,1.0
392,97.75,20.6649,21.0196,139.844,98.8108,91.5554,0.0025152,0.121246,20.8891,-305.505,0.672082,0.0,1.0
420,104.75,21.8364,22.2996,132.83,98.8468,78.7121,0.00447747,0.177093,20.7919,-305.695,2.00732,0.0,0.0
448,111.75,24.5758,25.0093,131.275,98.9101,72.6686,0.00682699,0.227923,20.7,-305.976,2.71698,0.0,0.0
476,118.75,27.33,27.9552,131.788,98.987,71.2345,0.0081035,0.24766,20.6612,-306.286,2.8995,0.0,0.0
504,125.75,28.9447,29.8697,134.418,99.0455,67.5877,0.0101482,0.274321,20.6124,-306.676,3.36783,0.0,0.0
532,132.75,32.2173,33.3208,125.277,99.0808,65.6414,0.0122036,0.336565,20.5043,-307.127,3.62846,0.0,0.0
560,139.75,35.1328,36.4719,130.55,99.112,61.6,0.0130729,0.361918,20.4614,-307.587,4.19124,0.0,0.0
588,146.75,37.9904,39.6455,128.498,99.1404,62.1878,0.0128094,0.360737,20.4625,-308.068,4.11007,0.0,0.0
616,153.75,39.8739,41.5099,121,99.1388,65.1323,0.0106995,0.341556,20.4967,-308.518,3.70224,0.0,0.0
644,160.75,40.7281,43.1461,129.018,99.1609,67.2888,0.00909206,0.314213,20.5494,-308.908,3.41714,0.0,0.0
672,167.75,41.1192,43.9203,127.748,99.1473,70.1911,0.0073868,0.289122,20.5949,-309.249,3.04378,0.0,0.0
700,174.75,40.9466,43.8581,137.654,99.1376,77.1511,0.00555216,0.253775,20.6652,-309.569,2.20974,0.0,0.0
728,181.75,40.888,43.7662,130.243,99.1477,79.7235,0.00472897,0.208582,20.7394,-309.819,1.92158,0.0,0.0
756,188.75,39.7107,42.6094,136.846,99.1837,82.3951,0.00459101,0.176095,20.7943,-309.989,1.6343,0.0,0.0
784,195.75,38.333,41.5073,139.422,99.2286,85.1323,0.00424896,0.153176,20.832,-310.149,1.35029,0.0,0.0
812,202.75,37.1782,40.3245,139.72,99.2506,87.648,0.00436476,0.13211,20.8679,-310.27,1.09559,0.0,0.0
840,209.75,35.6267,38.6058,136.767,99.2686,90.7326,0.00370261,0.11243,20.9042,-310.36,0.792383,0.0,0.0
868,216.75,34.6904,37.4094,140.903,99.2943,93.1594,0.00422313,0.0968332,20.9306,-310.43,0.562041,0.0,0.0
896,223.75,32.837,36.0974,138.268,99.2951,93.674,0.00431755,0.0871106,20.9444,-310.46,0.513561,0.0,0.0
924,230.75,32.0328,35.0381,138.661,99.2939,94.2998,0.00424412,0.086163,20.948,-310.52,0.454779,0.0,0.0
952,237.75,30.9212,33.5627,139.912,99.2895,94.5744,0.00425452,0.0790565,20.9595,-310.56,0.428766,0.0,0.0
980,244.75,29.878,32.2913,144.04,99.2762,94.3236,0.00441003,0.0719847,20.9698,-310.59,0.450987,0.0,0.0
1008,251.75,29.4674,32.2521,140.874,99.2714,95.0724,0.00430283,0.0664016,20.9774,-310.62,0.380877,0.0,0.0
1036,258.75,27.9478,30.4721,140,99.263,94.0882,0.0043498,0.062163,20.9825,-310.66,0.471836,0.0,0.0
1064,265.75,27.4502,29.2793,139.736,99.2374,94.1151,0.00444884,0.0592889,20.987,-310.69,0.467048,0.0,0.0
1092,272.75,27.0428,28.7788,141.303,99.221,94.3356,0.00449703,0.0573914,20.9907,-310.7,0.444965,0.0,0.0
1120,279.75,26.0978,27.4846,138.755,99.1905,94.5684,0.00445236,0.0561471,20.9934,-310.72,0.420536,0.0,0.0
1148,286.75,25.9075,28.0045,142.336,99.1581,94.4811,0.00457425,0.055074,20.9925,-310.75,0.425788,0.0,0.0
1176,293.75,24.7878,26.216,140.72,99.1172,94.6033,0.00449318,0.054489,20.9942,-310.75,0.410769,0.0,0.0
1204,300.75,24.3668,25.8498,139.851,99.0832,94.6348,0.00468891,0.0538181,20.9965,-310.78,0.404806,0.0,0.0
1232,307.75,24.3927,25.6444,143.229,99.0571,94.4049,0.00490723,0.0537167,20.9973,-310.79,0.423923,0.0,0.0
1260,314.75,24.3243,25.5598,143.731,99.0231,94.3062,0.00493239,0.0538666,20.9978,-310.82,0.430117,0.0,0.0
1288,321.75,24.1132,25.4743,140.209,99.0055,94.797,0.00518091,0.0556976,20.9949,-310.84,0.382802,0.0,0.0
1316,328.75,23.9258,24.7676,140.036,98.9866,94.7463,0.00487868,0.0554367,20.9948,-310.86,0.385836,0.0,0.0
1344,335.75,23.6124,24.4106,139.726,98.9878,94.5748,0.00509924,0.0542919,20.9951,-310.88,0.401914,0.0,0.0
1372,342.75,23.5811,24.4005,141.542,98.965,94.7212,0.00516475,0.0542401,20.9962,-310.9,0.386247,0.0,0.0
1400,349.75,23.4425,24.3391,139.39,98.9618,94.8004,0.00555577,0.0542393,20.9984,-310.92,0.378598,0.0,0.0
1428,356.75,23.0834,24.1405,144.695,98.9778,94.4999,0.00578275,0.054518,20.9968,-310.94,0.408007,0.0,0.0
1456,363.75,23.385,23.9627,141.754,99.0427,94.8885,0.00557352,0.0562623,20.9946,-310.98,0.377613,0.0,0.0
1484,370.75,22.8138,24.0238,140.721,99.1348,94.9651,0.0054957,0.0555805,20.9947,-311,0.378693,0.0,0.0
1512,377.75,23.0213,23.6899,143.724,99.2077,94.8528,0.00570941,0.055648,20.9947,-311.02,0.395607,0.0,0.0
1540,384.75,23.0791,23.4558,141.389,99.2686,95.0665,0.0060772,0.0559639,20.9947,-311.05,0.381182,0.0,0.0
1568,391.75,22.7751,23.4151,142.335,99.3171,94.9843,0.00625474,0.0575046,20.9916,-311.05,0.393102,0.0,0.0
1596,398.75,22.3206,23.1908,144.099,99.3491,95.0171,0.00627595,0.0572683,20.9908,-311.09,0.392905,0.0,0.0
1624,405.75,22.0429,22.435,141.546,99.382,95.0252,0.00624135,0.0580442,20.9906,-311.11,0.395068,0.0,0.0
1652,412.75,22.2664,23.1776,143.707,99.4381,95.2584,0.00630937,0.0595992,20.988,-311.14,0.378431,0.0,0.0
1680,419.75,22.4638,23.3007,143.747,99.4994,95.7957,0.00627868,0.0588968,20.9896,-311.18,0.334301,0.0,0.0
1708,426.75,22.3059,22.7404,141.158,99.5739,95.5262,0.00673975,0.0609279,20.9865,-311.2,0.365721,0.0,0.0
1736,433.75,22.3122,23.066,145.051,99.658,95.5245,0.00668566,0.0606864,20.986,-311.22,0.37332,0.0,0.0
1764,440.75,21.7894,22.4633,141.567,99.7313,95.748,0.0071072,0.0618561,20.9853,-311.24,0.359205,0.0,0.0
1792,447.75,22.6518,23.2163,143.544,99.7729,95.7871,0.00701048,0.0615431,20.9869,-311.27,0.359282,0.0,0.0
1820,454.75,22.1695,22.6949,138.284,99.7661,96.2473,0.00661429,0.0613791,20.9874,-311.3,0.316445,0.0,0.0
1848,461.75,22.3016,22.5862,138.743,99.7289,95.7633,0.00641831,0.0649582,20.9836,-311.32,0.357583,0.0,0.0
1876,468.75,22.1409,22.7722,143.658,99.6464,95.3904,0.00652591,0.0674054,20.9787,-311.35,0.384671,0.0,0.0
1904,475.75,21.6654,22.2545,145.678,99.5246,95.5079,0.00655255,0.06612,20.9792,-311.381,0.363048,0.0,0.0
1932,482.75,22.598,22.7494,140.872,99.3559,95.2933,0.00655486,0.0648248,20.9823,-311.391,0.367923,0.0,0.0
1960,489.75,21.9641,22.3366,141.473,99.1785,95.0554,0.00630629,0.0629926,20.9865,-311.431,0.374203,0.0,0.0
1988,496.75,22.602,22.9562,142.691,99.2414,95.1077,0.00675874,0.0609124,20.9884,-311.461,0.374936,0.0,0.0
2016,503.75,22.0529,22.5556,141.344,99.3167,95.3146,0.00659256,0.0612249,20.9888,-311.471,0.362472,0.0,0.0
2044,510.75,21.9942,22.7784,141.706,99.4128,95.2665,0.00661075,0.0611479,20.9888,-311.501,0.375446,0.0,0.0
2072,517.75,22.241,22.954,142.652,99.5186,95.6254,0.00644657,0.0600714,20.9907,-311.521,0.351681,0.0,0.0
2100,524.75,22.0141,22.7076,140.737,99.6291,95.6445,0.00649737,0.0595948,20.9911,-311.541,0.359701,0.0,0.0
2128,531.75,22.1845,22.7432,138.013,99.7301,95.9085,0.00626611,0.0590058,20.9905,-311.571,0.344341,0.0,0.0
2156,538.75,22.0064,22.4819,142.634,99.8282,95.7122,0.00598958,0.0615557,20.9871,-311.601,0.371059,0.0,0.0
2184,545.75,21.7341,22.1747,140.244,99.8975,95.9744,0.00562024,0.0612818,20.9886,-311.611,0.353063,0.0,0.0
2212,552.75,21.4449,21.7963,141.355,99.9556,96.0213,0.00546137,0.0629863,20.9861,-311.641,0.353887,0.0,0.0
2240,559.75,21.299,22.2348,145.546,99.9744,96.2218,0.00580715,0.0582126,20.9916,-311.661,0.337164,0.0,0.0
2268,566.75,21.1462,22.0458,140.721,99.9772,95.9029,0.00507784,0.0559277,20.9946,-311.681,0.366662,0.0,0.0
2296,573.75,21.4209,22.1069,145.707,99.9576,96.0017,0.00508784,0.0549447,20.9972,-311.701,0.355861,0.0,0.0
2324,580.75,21.5995,22.0568,143.103,99.8735,95.6735,0.00494939,0.0542768,20.9986,-311.721,0.378621,0.0,0.0
2352,587.75,21.3405,21.7479,139.439,99.7665,95.6739,0.00501417,0.0540285,20.9986,-311.741,0.369141,0.0,0.0
2380,594.75,21.4914,22.2591,141.704,99.6432,95.4657,0.00464112,0.0536279,20.9996,-311.751,0.377431,0.0,0.0
2408,601.75,21.5378,21.7423,146.311,99.4885,95.5786,0.0048266,0.0532699,21.0002,-311.781,0.353338,0.0,0.0
2436,608.75,20.9083,22.1139,142.826,99.3363,95.0039,0.00465308,0.0530257,21.0002,-311.801,0.392992,0.0,0.0
2464,615.75,21.2994,21.7735,139.867,99.2041,95.2968,0.00439111,0.0571308,20.9939,-311.821,0.354131,0.0,0.0
2492,622.75,21.2982,21.848,145.22,99.0808,94.9792,0.00463634,0.0575369,20.9955,-311.821,0.372581,0.0,0.0
2520,629.75,21.3059,21.889,139.176,98.963,95.3844,0.00446491,0.0536684,21.0017,-311.841,0.324578,0.0,0.0
2548,636.75,20.8197,22.2904,139.618,98.8729,94.9115,0.00442278,0.052437,21.0027,-311.851,0.360353,0.0,0.0
2576,643.75,21.3116,21.981,143.335,98.7791,94.7591,0.00388078,0.0518652,21.005,-311.881,0.366156,0.0,0.0
2604,650.75,21.4588,21.8919,142.292,98.6281,95.2129,0.00388822,0.0516129,21.0068,-311.891,0.310572,0.0,0.0
2632,657.75,21.4554,21.9476,142.584,98.4839,94.2283,,,,-311.901,0.389286,0.0,0.0
2660,664.75,20.5845,21.6039,143.85,98.3742,94.4049,,,,-311.921,0.362953,0.0,0.0