Folder: fsri_materials_database/01_Data/Asphalt_Shingle/Cone (part 2)

File: Asphalt_Shingle_Cone_HF25Scan_220415_R3.csv
Names,Time,Stack TC,Smoke TC,Exh Press,Smoke Comp,Smoke Meas,CO Meter,CO2 Meter,O2 Meter,Sample Mass,Ext Coeff,Start Test,Flame Verif
Chan Gain,,500,500,1,1,1,1,1,1,1,1,1.0,1.0
Offset,,0,0,0.133554,0,0,0,0,0,0,0,0.0,0.0
Gain,,1,1,25.011,13.1255,13.9488,1,1,1,1.0009,1.00465,1.0,1.0
Units,sec,C,C,Pa,%,%,%,%,%,g,/m,,
Baseline,,20.2509,20.8088,143.072,99.2758,95.2132,0.000783376,0.0442448,21.0135,-834.056,0.36824,,
17,4,19.0241,19.507,142.361,99.1312,95.0503,0.000765634,0.0586585,20.9914,-300.791,0.370476,0.0,0.0
34,8.25,19.4911,19.8418,142.121,99.1072,94.8728,0.000649763,0.0552734,20.9967,-300.791,0.384811,0.0,0.0
51,12.5,19.2672,20.0551,141.242,99.0864,95.1282,0.000379594,0.0515002,21.0029,-300.791,0.359266,0.0,0.0
68,16.75,19.55,19.7565,142.436,99.0732,95.0779,0.000431689,0.0500893,21.0056,-300.801,0.362745,0.0,0.0
85,21,19.5459,20.1501,141.618,99.0503,95.0805,0.00034309,0.0492773,21.0079,-300.801,0.360478,0.0,0.0
102,25.25,19.4775,20.2729,145.284,99.0147,95.0826,0.000391309,0.0468208,21.0108,-300.821,0.357108,0.0,0.0
119,29.5,19.5612,20.0378,142.122,99.0035,95.0447,0.000655134,0.0449143,21.0126,-300.841,0.359621,0.0,0.0
136,33.75,19.5943,20.206,142.625,98.9874,94.8936,0.00070727,0.0438116,21.0142,-300.851,0.372218,0.0,0.0
153,38,19.5364,19.9827,139.917,98.9622,94.4513,0.00069166,0.043589,21.0143,-300.861,0.411143,0.0,0.0
170,42.25,19.5335,19.8068,140.456,98.9534,94.6123,0.000892664,0.0434816,21.014,-300.871,0.395357,0.0,0.0
187,46.5,20.1788,20.4367,144.462,98.9418,94.2342,0.00109781,0.0432025,21.0149,-300.861,0.429603,0.0,0.0
204,50.75,19.6238,20.2598,141.711,98.9318,94.104,0.00121688,0.0429688,21.016,-300.891,0.440902,0.0,0.0
221,55,19.8998,20.2899,142.394,98.9205,93.8107,0.00124924,0.042725,21.0162,-300.911,0.467412,0.0,0.0
238,59.25,19.7549,20.057,143.811,98.9081,93.8911,0.000899413,0.0425887,21.0144,-300.891,0.458751,0.0,0.0
255,63.5,19.9828,20.5109,141.841,98.9594,94.1572,0.000650475,0.0425959,21.0152,-300.931,0.43838,0.0,0.0
272,67.75,20.1027,20.8309,144.134,99.0471,94.0125,0.00060026,0.0442171,21.0152,-300.931,0.459746,0.0,0.0
289,72,20.069,20.4574,143.462,99.098,93.471,0.000693614,0.0479867,21.0093,-300.961,0.515176,0.0,0.0
306,76.25,20.1318,20.5005,142.85,99.1372,93.872,0.00091689,0.0512015,21.0041,-300.971,0.480939,0.0,0.0
323,80.5,20.2782,20.9305,145.163,99.1549,93.72,0.00122122,0.0599876,20.9918,-301.021,0.496785,0.0,0.0
340,84.75,20.1355,20.7212,141.302,99.1597,93.3799,0.00138514,0.0673904,20.9789,-301.041,0.529253,0.0,0.0
357,89,20.3738,21.2626,141.86,99.1433,94.814,0.00187751,0.080073,20.9584,-301.171,0.393476,0.0,1.0
374,93.25,20.931,21.3221,136.492,99.1192,94.7787,0.00202324,0.101539,20.9253,-301.151,0.394623,0.0,1.0
391,97.5,21.2646,21.9433,140.661,99.0852,90.3179,0.00242282,0.122209,20.8922,-301.231,0.816445,0.0,0.0
408,101.75,22.4769,22.9855,137.11,99.0704,79.9138,0.00386653,0.150105,20.8356,-301.331,1.8937,0.0,0.0
425,106,23.3984,23.6495,130.4,99.0587,72.9279,0.00578221,0.191051,20.7645,-301.472,2.69883,0.0,0.0
442,110.25,24.9862,25.7276,131.647,99.0804,74.468,0.00644293,0.224791,20.7157,-301.662,2.51658,0.0,0.0
459,114.5,26.5617,26.9493,132.826,99.1244,76.2423,0.00600958,0.207936,20.7369,-301.812,2.31299,0.0,0.0
476,118.75,26.5686,28.6796,134.877,99.1364,77.5951,0.00599046,0.195843,20.7554,-301.962,2.15906,0.0,0.0
493,123,28.2726,28.6806,135.706,99.1825,72.1446,0.00675779,0.208071,20.7271,-302.122,2.805,0.0,0.0
510,127.25,29.1065,30.2719,131.38,99.2714,70.2427,0.00783763,0.235555,20.6821,-302.332,3.04835,0.0,0.0
527,131.5,30.5706,31.5633,125.975,99.3519,68.3352,0.00836302,0.2626,20.6375,-302.533,3.29812,0.0,0.0
544,135.75,31.996,32.8419,128.938,99.4232,65.3286,0.00940823,0.287898,20.5934,-302.793,3.70097,0.0,0.0
561,140,33.6938,34.5295,126.7,99.5058,65.1868,0.0103649,0.306041,20.5606,-303.053,3.72743,0.0,0.0
578,144.25,35.1345,36.673,127.928,99.5827,66.2978,0.0105305,0.320048,20.5354,-303.303,3.5853,0.0,0.0
595,148.5,36.6522,37.9215,126.136,99.6247,64.9889,0.0108827,0.323974,20.5284,-303.553,3.76476,0.0,0.0
612,152.75,37.2116,39.2706,130.876,99.6772,64.1869,0.0105819,0.316909,20.5415,-303.804,3.87883,0.0,0.0
629,157,38.348,40.4734,124.649,99.7044,68.6838,0.00944435,0.306172,20.5593,-304.064,3.28448,0.0,0.0
646,161.25,39.3414,40.8042,132.772,99.7213,67.113,0.00881557,0.30348,20.5653,-304.294,3.48985,0.0,0.0
663,165.5,39.0487,41.8802,128.781,99.7357,67.4868,0.00853404,0.303916,20.5664,-304.514,3.44219,0.0,0.0
680,169.75,40.0481,42.4048,128.466,99.7473,69.4185,0.00820732,0.300211,20.5726,-304.765,3.1945,0.0,0.0
697,174,40.6819,43.1968,130.261,99.7369,70.1247,0.00748725,0.290864,20.5922,-304.975,3.10438,0.0,0.0
714,178.25,40.8101,43.5194,135.239,99.7141,72.6273,0.00698325,0.27776,20.6142,-305.175,2.79333,0.0,0.0
731,182.5,40.6,44.0924,132.231,99.6852,73.2727,0.00632707,0.264144,20.6389,-305.365,2.71282,0.0,0.0
748,186.75,41.0605,43.4752,133.732,99.6395,75.1133,0.00603113,0.251661,20.6641,-305.545,2.49014,0.0,0.0
765,191,40.9006,43.1239,130.315,99.5682,75.4854,0.00597267,0.23653,20.6891,-305.705,2.44029,0.0,0.0
782,195.25,40.3003,43.4058,138.457,99.4945,78.6129,0.00583156,0.218772,20.721,-305.856,2.07599,0.0,0.0
799,199.5,39.6945,42.9798,136.188,99.4024,80.5638,0.00549659,0.20008,20.751,-305.976,1.85179,0.0,0.0
816,203.75,39.1569,42.7291,136.207,99.3143,82.4002,0.00528034,0.180734,20.7838,-306.106,1.64535,0.0,0.0
833,208,38.592,41.8777,139.222,99.1921,85.0326,0.0046797,0.160813,20.8226,-306.186,1.35737,0.0,0.0
850,212.25,38.2807,41.3783,137.186,99.1917,87.0155,0.00476966,0.143163,20.8518,-306.256,1.15419,0.0,0.0
867,216.5,37.1397,40.5799,138.994,99.229,89.8918,0.0046394,0.127322,20.8801,-306.316,0.870902,0.0,0.0
884,220.75,36.6452,39.2181,137.475,99.2814,91.6929,0.00444786,0.112721,20.9053,-306.366,0.700734,0.0,0.0
901,225,36.0579,38.4964,138.155,99.3367,92.7409,0.00422606,0.101291,20.922,-306.396,0.605482,0.0,0.0
918,229.25,34.8444,37.7155,137.225,99.39,93.4484,0.00428011,0.0913683,20.9368,-306.416,0.543234,0.0,0.0
935,233.5,34.0702,36.8491,140.633,99.4485,94.276,0.00441281,0.083472,20.9482,-306.456,0.470719,0.0,0.0
952,237.75,33.2762,35.8479,140.193,99.5182,94.651,0.00460511,0.0773391,20.96,-306.476,0.441906,0.0,0.0
969,242,32.7401,34.8074,140.603,99.5767,95.1354,0.00459027,0.0727889,20.9669,-306.486,0.402095,0.0,0.0
986,246.25,31.8525,34.1343,141.445,99.6255,95.035,0.0045191,0.0688366,20.9724,-306.526,0.415729,0.0,0.0
1003,250.5,30.6926,33.9989,140.851,99.6956,95.2171,0.00431859,0.0660216,20.9758,-306.536,0.405049,0.0,0.0
1020,254.75,29.9461,33.5215,140.852,99.7521,95.2827,0.00440976,0.0628439,20.9815,-306.546,0.403975,0.0,0.0
1037,259,29.5289,32.0498,141.76,99.8038,95.158,0.00456899,0.0600268,20.9871,-306.556,0.420082,0.0,0.0
1054,263.25,29.0478,31.3596,141.164,99.8591,95.5121,0.00466678,0.0578381,20.9889,-306.566,0.392223,0.0,0.0
1071,267.5,28.512,30.6201,137.415,99.8991,95.3121,0.00478433,0.0562862,20.9899,-306.576,0.414236,0.0,0.0
1088,271.75,27.8912,30.2665,138.394,99.9352,95.2252,0.0050605,0.0552712,20.9919,-306.586,0.425449,0.0,0.0
1105,276,27.5739,29.7371,139.559,99.9556,95.4491,0.00498074,0.0550755,20.9945,-306.586,0.406552,0.0,0.0
1122,280.25,27.3223,29.3852,144.805,99.9684,95.5424,0.00480857,0.0577989,20.9916,-306.616,0.399079,0.0,0.0
1139,284.5,26.2776,28.5178,140.828,99.9816,95.3287,0.0050739,0.0598268,20.9889,-306.606,0.419978,0.0,0.0
1156,288.75,26.0934,27.6384,140.322,99.9736,95.679,0.00510705,0.0591172,20.9902,-306.626,0.386943,0.0,0.0
1173,293,25.5158,27.4534,144.65,99.9688,95.9472,0.00525331,0.0575568,20.9917,-306.626,0.361853,0.0,0.0
1190,297.25,25.225,27.4658,140.468,99.9708,95.7246,0.00539009,0.056196,20.9925,-306.656,0.382502,0.0,0.0
1207,301.5,25.2463,26.9598,143.956,99.9336,95.4726,0.00535183,0.0556752,20.9943,-306.646,0.402449,0.0,0.0
1224,305.75,24.7024,26.3173,141.824,99.9384,95.8825,0.00520267,0.0553043,20.9954,-306.656,0.365114,0.0,0.0
1241,310,24.1126,25.4819,141.095,99.9223,95.7697,0.00500622,0.0551784,20.995,-306.636,0.374075,0.0,0.0
1258,314.25,24.0971,25.6534,141.474,99.8755,95.6956,0.00529482,0.0550178,20.9949,-306.656,0.376759,0.0,0.0
1275,318.5,24.3983,25.5927,145.146,99.8518,95.891,0.00531346,0.0551035,20.9948,-306.686,0.356698,0.0,0.0
1292,322.75,24.3879,24.6523,141.935,99.8198,95.5066,0.00560252,0.0552832,20.9944,-306.686,0.389267,0.0,0.0
1309,327,24.1557,24.6588,142.631,99.7853,95.831,0.00574749,0.0553719,20.9945,-306.696,0.356346,0.0,0.0
1326,331.25,23.8598,24.7422,141.854,99.7497,95.8191,0.00559137,0.0555452,20.9962,-306.716,0.354293,0.0,0.0
1343,335.5,23.1238,24.6639,140.539,99.7177,95.4483,0.00566208,0.0557205,20.9946,-306.716,0.385628,0.0,0.0
1360,339.75,23.6003,24.3816,140.669,99.7016,95.6275,0.00584191,0.0558278,20.9933,-306.736,0.367681,0.0,0.0
1377,344,23.4285,24.213,142.285,99.6652,95.5266,0.00578436,0.0559762,20.9939,-306.756,0.373761,0.0,0.0
1394,348.25,23.5126,24.019,140.76,99.6307,95.6624,0.00601114,0.0561466,20.9921,-306.756,0.358195,0.0,0.0
1411,352.5,23.0753,24.1895,140.784,99.5783,95.1018,0.00623276,0.0561321,20.9917,-306.776,0.405352,0.0,0.0
1428,356.75,23.0734,23.8521,140.159,99.5202,95.3176,0.00631784,0.0563245,20.9916,-306.786,0.380233,0.0,0.0
1445,361,22.9635,24.2274,140.975,99.4869,95.275,0.00643197,0.0566389,20.9916,-306.796,0.381225,0.0,0.0
1462,365.25,22.5096,23.904,142.909,99.4361,95.453,0.00636334,0.0564127,20.9924,-306.806,0.360274,0.0,0.0
1479,369.5,22.8921,23.0767,143.118,99.3568,95.1129,0.00619406,0.0566379,20.9936,-306.826,0.384701,0.0,0.0
1496,373.75,22.4712,23.1641,140.469,99.2903,95.0418,0.00632281,0.0568128,20.9924,-306.846,0.38539,0.0,0.0
1513,378,22.1793,23.3802,141.34,99.231,95.2712,0.00647238,0.0568177,20.9932,-306.846,0.358878,0.0,0.0
1530,382.25,22.7738,23.4272,148.641,99.1573,94.877,0.00650602,0.0570811,20.9938,-306.866,0.388867,0.0,0.0
1547,386.5,22.4023,23.7637,143.217,99.0836,95.0741,0.00652334,0.0573809,20.9939,-306.866,0.364027,0.0,0.0
1564,390.75,22.5084,23.2437,141.999,99.0151,95.0877,,0.0576181,,-306.896,0.35667,0.0,0.0
1581,395,22.8937,23.6091,137.807,98.953,94.7676,,,,-306.906,0.380861,0.0,0.0
1598,399.25,22.7845,23.0674,140.756,98.8845,94.7276,,,,-306.937,0.37848,0.0,0.0
1605,401,22.2049,23.0478,137.707,98.8717,94.562,,,,-306.937,0.392756,0.0,0.0

File: Asphalt_Shingle_Cone_HF50Scalar_220415_R1.csv
LABORATORY,FSRI
TEST IDENT,Shingles_HF50_1
OPERATOR,Dow
MATERIAL,Fiberglass asphalt shingles
ORIENTATION,Horizontal
HEAT FLUX,50
SURF AREA,0.01
C FACTOR,0.0397182
SPEC HOLDER DIFF,-566
SPECIMEN MASS,36.61
SCAN TIME,0.25
O2 DELAY TIME,11
CO DELAY TIME,11
CO2 DELAY TIME,8
FLOW FACTOR,1
SCAN COUNT,833
TIME TO IGN,28.75
END OF TEST SCAN,353
END OF TEST TIME,88.25
TEST STATUS,1
PRE TEST CMT,Dimensions: 101.39 x 101.28 x 2.34 mm

File: Asphalt_Shingle_Cone_HF50Scalar_220415_R2.csv
LABORATORY,FSRI
TEST IDENT,Shingles_HF50_2
OPERATOR,Dow
MATERIAL,Fiberglass asphalt shingles
ORIENTATION,Horizontal
HEAT FLUX,50
SURF AREA,0.01
C FACTOR,0.0397182
SPEC HOLDER DIFF,-566
SPECIMEN MASS,36.95
SCAN TIME,0.25
O2 DELAY TIME,11
CO DELAY TIME,11
CO2 DELAY TIME,8
FLOW FACTOR,1
SCAN COUNT,858
TIME TO IGN,26
END OF TEST SCAN,378
END OF TEST TIME,94.5
TEST STATUS,1
PRE TEST CMT,Dimensions: 100.51 x 101.47 x 2.51 mm

File: Asphalt_Shingle_Cone_HF50Scalar_220415_R3.csv
LABORATORY,FSRI
TEST IDENT,Shingles_HF50_3
OPERATOR,Dow
MATERIAL,Fiberglass asphalt shingles
ORIENTATION,Horizontal
HEAT FLUX,50
SURF AREA,0.01
C FACTOR,0.0397182
SPEC HOLDER DIFF,-566
SPECIMEN MASS,36.25
SCAN TIME,0.25
O2 DELAY TIME,11
CO DELAY TIME,11
CO2 DELAY TIME,8
FLOW FACTOR,1
SCAN COUNT,845
TIME TO IGN,26
END OF TEST SCAN,365
END OF TEST TIME,91.25
TEST STATUS,1
PRE TEST CMT,Dimensions: 101.56 x 100.75 x 2.49 mm

File: Asphalt_Shingle_Cone_HF50Scan_220415_R1.csv
Names,Time,Stack TC,Smoke TC,Exh Press,Smoke Comp,Smoke Meas,CO Meter,CO2 Meter,O2 Meter,Sample Mass,Ext Coeff,Start Test,Flame Verif
Chan Gain,,500,500,1,1,1,1,1,1,1,1,1.0,1.0
Offset,,0,0,0.134662,0,0,0,0,0,0,0,0.0,0.0
Gain,,1,1,25.011,14.0001,15.1165,1,1,1,1.00131,1.00941,1.0,1.0
Units,sec,C,C,Pa,%,%,%,%,%,g,/m,,
Baseline,,30.7903,32.0622,143.362,104.611,102.064,0.000665663,0.0446522,21.0111,-836.028,0.218208,,
9,2,28.947,30.296,145.865,104.642,102.205,0.00034838,0.046778,21.0124,-308.554,0.208704,0.0,0.0
18,4.25,28.7012,29.7045,142.52,104.642,101.831,0.000363767,0.046474,21.0128,-308.474,0.241136,0.0,0.0
27,6.5,28.7289,30.5446,144.031,104.654,102.067,0.000501854,0.0462107,21.013,-308.494,0.221598,0.0,0.0
36,8.75,28.6535,29.9154,142.453,104.679,102.225,0.000609395,0.0458799,21.013,-308.524,0.210019,0.0,0.0
45,11,29.0357,29.952,141.389,104.672,101.939,0.000659929,0.0455004,21.0131,-308.524,0.234325,0.0,0.0
54,13.25,29.1778,30.3193,142.971,104.692,101.517,0.000785683,0.04531,21.0131,-308.554,0.272765,0.0,0.0
63,15.5,29.1903,30.8637,144.508,104.716,101.469,0.000920315,0.0456443,21.0131,-308.544,0.278934,0.0,0.0
72,17.75,29.1476,30.3641,142.583,104.745,101.326,0.00100873,0.0462839,21.0136,-308.564,0.293842,0.0,0.0
81,20,29.6895,30.3255,148.689,104.764,100.978,0.00106469,0.0465939,21.0141,-308.594,0.325879,0.0,0.0
90,22.25,29.197,30.6194,144.508,104.796,100.345,0.00105568,0.0473857,21.0129,-308.624,0.384301,0.0,0.0
99,24.5,29.3242,30.718,147.022,104.823,99.3026,0.00123947,0.0503809,21.0083,-308.614,0.479014,0.0,0.0
108,26.75,29.2721,30.5577,142.732,104.838,100.121,0.00160803,0.0595969,20.9913,-308.664,0.407681,0.0,1.0
117,29,29.5539,31.2447,135.388,104.855,102.555,0.00206991,0.082632,20.9418,-308.754,0.196332,0.0,1.0
126,31.25,30.1809,31.4386,131.422,104.893,95.4437,0.00309685,0.124069,20.8742,-308.784,0.835883,0.0,1.0
135,33.5,31.0201,31.7155,134.533,104.909,83.8835,0.00541039,0.191582,20.744,-308.934,1.98047,0.0,1.0
144,35.75,31.2467,31.8078,126.84,104.918,72.7759,0.0080877,0.283613,20.5766,-309.105,3.23889,0.0,1.0
153,38,33.1629,34.1259,122.855,104.941,66.0752,0.0110796,0.362395,20.4601,-309.295,4.0961,0.0,0.0
162,40.25,34.8524,35.7317,119.119,104.974,66.6565,0.0138358,0.414539,20.3806,-309.475,4.02136,0.0,0.0
171,42.5,37.2496,38.3582,122.506,104.975,59.9083,0.0169671,0.455124,20.2997,-309.715,4.96653,0.0,0.0
180,44.75,39.1358,40.442,116.588,104.994,51.8301,0.0206869,0.511873,20.2002,-309.986,6.25067,0.0,0.0
189,47,40.9489,42.5326,111,105.015,47.8914,0.0248263,0.580428,20.0713,-310.276,6.95222,0.0,0.0
198,49.25,43.9527,45.3281,111.136,105.035,43.9817,0.0288447,0.652545,19.9262,-310.586,7.70805,0.0,0.0
207,51.5,46.9845,48.5018,111.795,105.056,49.5854,0.03183,0.716743,19.8163,-310.947,6.64793,0.0,0.0
216,53.75,50.0387,52.1065,108.611,105.096,47.7558,0.0345257,0.768952,19.7188,-311.247,6.98421,0.0,0.0
225,56,52.6783,55.132,107.113,105.121,43.3271,0.0372447,0.836161,19.5901,-311.648,7.84799,0.0,0.0
234,58.25,56.1695,58.935,107.982,105.131,42.6531,0.0401327,0.909311,19.4867,-312.028,7.98767,0.0,0.0
243,60.5,60.1652,63.1058,106.501,105.135,43.4766,0.042457,0.973035,19.3682,-312.459,7.81876,0.0,0.0
252,62.75,63.3477,66.8151,102.661,105.172,40.221,0.0434186,1.02524,19.2883,-312.869,8.51101,0.0,0.0
261,65,66.8873,71.021,110.494,105.192,40.3774,0.0431685,1.04799,19.2597,-313.22,8.47834,0.0,0.0
270,67.25,70.3361,74.9378,109.276,105.201,44.127,0.0416107,1.02428,19.298,-313.55,7.6928,0.0,0.0
279,69.5,73.032,78.1909,110.401,105.222,50.9121,0.0378315,0.943066,19.4628,-313.871,6.42809,0.0,0.0
288,71.75,74.8039,80.6353,117.695,105.238,59.6154,0.0321764,0.805519,19.7096,-314.141,5.03207,0.0,0.0
297,74,75.6595,81.823,121.059,105.238,65.1696,0.0254934,0.650139,19.978,-314.271,4.24334,0.0,0.0
306,76.25,75.4306,81.9197,127.72,105.249,76.3622,0.0185896,0.50762,20.2678,-314.441,2.84086,0.0,0.0
315,78.5,74.5389,81.067,134.621,105.271,88.0847,0.0131381,0.385974,20.4702,-314.492,1.57824,0.0,0.0
324,80.75,72.7363,79.3414,137.186,105.271,97.3231,0.00917838,0.296941,20.6138,-314.542,0.695082,0.0,0.0
333,83,72.2193,78.6908,137.845,105.262,101.751,0.00704386,0.225884,20.7429,-314.562,0.300384,0.0,0.0
342,85.25,70.15,76.7387,140.291,105.282,102.745,0.00639449,0.172003,20.8283,-314.562,0.215987,0.0,0.0
351,87.5,68.3316,74.9883,140.589,105.27,102.083,0.00664358,0.134878,20.8779,-314.582,0.27221,0.0,0.0
360,89.75,66.6612,72.5253,140.702,105.256,102.45,0.00748176,0.111387,20.9113,-314.602,0.239235,0.0,0.0
369,92,64.5941,70.9526,145,105.248,102.606,0.00819984,0.0987902,20.9323,-314.632,0.225082,0.0,0.0
378,94.25,62.623,68.6666,139.273,105.238,102.902,0.00845838,0.0935643,20.9416,-314.642,0.198774,0.0,0.0
387,96.5,61.6254,68.139,142.004,105.246,102.532,0.00850361,0.0919818,20.9459,-314.662,0.231314,0.0,0.0
396,98.75,59.9505,65.6661,139.561,105.222,102.678,0.00857041,0.0916737,20.9475,-314.702,0.21668,0.0,0.0
405,101,59.2119,65.1516,137.169,105.206,102.729,0.00852296,0.0925614,20.9482,-314.712,0.2109,0.0,0.0
414,103.25,58.0084,64.0413,141.861,105.206,102.732,0.00833692,0.0934978,20.9484,-314.722,0.210698,0.0,0.0
423,105.5,55.8703,62.6206,141.08,105.191,102.406,0.00809637,0.0940183,20.9485,-314.772,0.237519,0.0,0.0
432,107.75,55.6426,61.2266,138.438,105.167,102.536,0.00785037,0.0944635,20.9476,-314.802,0.224339,0.0,0.0
441,110,54.2005,59.6998,139.694,105.149,102.516,0.00768135,0.0957431,20.9467,-314.822,0.224541,0.0,0.0
450,112.25,53.4256,59.2344,140.256,105.141,102.553,0.00741711,0.0969916,20.9466,-314.832,0.220671,0.0,0.0
459,114.5,52.1105,58.1585,144.205,105.109,102.619,0.00714558,0.0977532,20.9467,-314.872,0.212314,0.0,0.0
468,116.75,51.4938,57.0357,141.001,105.081,103.05,0.0069785,0.0978992,20.9467,-314.902,0.172763,0.0,0.0
477,119,50.9861,56.2513,138.733,105.077,102.636,0.00685089,0.0983582,20.9467,-314.922,0.208069,0.0,0.0
486,121.25,49.7394,55.1408,141.006,105.078,102.752,0.00672128,0.0985106,20.9465,-314.912,0.198194,0.0,0.0
495,123.5,49.3713,54.3102,140.644,105.037,102.619,0.00674037,0.0987465,20.9461,-314.952,0.206194,0.0,0.0
504,125.75,48.9503,53.7913,136.714,105.012,102.449,0.00675656,0.0996152,20.9451,-315.002,0.218768,0.0,0.0
513,128,47.4808,52.828,140.792,104.999,102.472,0.00669812,0.100309,20.9442,-315.012,0.215654,0.0,0.0
522,130.25,47.2874,52.2108,142.763,104.971,102.328,0.00663539,0.100741,20.9438,-315.042,0.225761,0.0,0.0
531,132.5,47.1369,51.8985,144.502,104.94,102.268,0.00655515,0.10046,20.9437,-315.042,0.228393,0.0,0.0
540,134.75,46.1555,51.0175,140.826,104.937,102.476,0.00642654,0.0998553,20.9442,-315.092,0.210145,0.0,0.0
549,137,45.1979,49.7868,139.975,104.924,102.44,0.00639359,0.0995364,20.9448,-315.102,0.212141,0.0,0.0
558,139.25,45.4211,49.9116,136.301,104.89,102.71,0.00641576,0.100269,20.9438,-315.122,0.185956,0.0,0.0
567,141.5,44.1495,48.9256,136.607,104.878,102.566,0.00620309,0.100461,20.9439,-315.172,0.19736,0.0,0.0
576,143.75,44.1779,49.0246,141.184,104.872,102.187,0.00589021,0.0994667,20.9446,-315.182,0.229652,0.0,0.0
585,146,43.8799,48.3471,142.397,104.851,102.335,0.00573782,0.098287,20.9456,-315.192,0.215102,0.0,0.0
594,148.25,43.4161,47.59,138.751,104.833,102.24,0.00569214,0.0972932,20.9468,-315.233,0.2217,0.0,0.0
603,150.5,42.8814,47.3341,139.664,104.833,102.296,0.00562109,0.0969722,20.9472,-315.283,0.21698,0.0,0.0
612,152.75,42.6103,46.6208,140.676,104.826,102.203,0.00557582,0.0962324,20.9474,-315.263,0.224396,0.0,0.0
621,155,42.33,45.9625,138.507,104.799,102.346,0.00548906,0.0959456,20.9474,-315.303,0.209741,0.0,0.0
630,157.25,41.9472,45.4901,140.445,104.798,102.321,0.00540204,0.0959101,20.9484,-315.343,0.211865,0.0,0.0
639,159.5,41.6142,45.3374,142.316,104.726,102.317,0.00535977,0.0952966,20.9512,-315.363,0.206041,0.0,0.0
648,161.75,41.9453,45.3017,138.152,104.695,102.216,0.00534712,0.0945321,20.9528,-315.343,0.212155,0.0,0.0
657,164,40.9718,44.7018,139.426,104.676,102.289,0.00533799,0.0942779,20.9533,-315.413,0.20429,0.0,0.0
666,166.25,40.7375,44.1584,140.205,104.701,102.216,0.00530589,0.0937584,20.9536,-315.393,0.212657,0.0,0.0
675,168.5,40.6146,44.1942,143.378,104.717,102.115,0.00522141,0.0930266,20.955,-315.413,0.222789,0.0,0.0
684,170.75,40.8168,43.7727,141.217,104.728,102.217,0.00522922,0.0923328,20.9556,-315.453,0.214929,0.0,0.0
693,173,40.1795,43.5809,138.507,104.734,102.314,0.00517669,0.0917447,20.9556,-315.453,0.206971,0.0,0.0
702,175.25,39.9461,42.892,141.45,104.761,102.099,0.00508176,0.0910104,20.9554,-315.473,0.227907,0.0,0.0
711,177.5,39.0976,42.6412,140.547,104.769,102.13,0.00503858,0.0908844,20.9553,-315.503,0.225916,0.0,0.0
720,179.75,39.6369,42.4588,139.719,104.8,102.323,0.00506021,0.0904492,20.9554,-315.523,0.211809,0.0,0.0
729,182,39.3307,41.8276,142.523,104.819,102.228,0.00509659,0.0897596,20.9562,-315.513,0.221585,0.0,0.0
738,184.25,38.6224,41.5908,140.928,104.851,102.263,0.00499241,0.0891116,20.9574,-315.553,0.221332,0.0,0.0
747,186.5,38.6165,41.6948,140.58,104.862,102.865,0.00487886,0.0886094,20.9583,-315.583,0.170223,0.0,0.0
756,188.75,38.3554,41.4433,141.637,104.873,102.026,0.00474863,0.0885424,20.9586,-315.573,0.243686,0.0,0.0
765,191,38.4277,41.3638,141.021,104.9,102.137,0.0046859,0.0881685,20.9588,-315.613,0.236314,0.0,0.0
774,193.25,38.4225,40.6892,138.87,104.909,102.357,0.00466945,0.0876153,20.9588,-315.623,0.218059,0.0,0.0
783,195.5,38.0102,40.9761,141.882,104.911,102.298,0.00462716,0.0874535,20.9596,-315.603,0.223345,0.0,0.0
792,197.75,37.7679,40.7256,140.273,104.94,102.631,,0.087651,,-315.653,0.197054,0.0,0.0
801,200,38.1832,40.7455,144.075,104.964,102.69,,0.0874085,,-315.653,0.19394,0.0,0.0
810,202.25,37.6582,40.3969,143.07,104.97,102.254,,,,-315.693,0.232114,0.0,0.0
819,204.5,37.7003,39.9505,141.157,104.983,102.507,,,,-315.713,0.211328,0.0,0.0
828,206.75,37.9957,40.2311,143.378,104.994,102.731,,,,-315.713,0.192888,0.0,0.0
833,208,37.6463,39.4117,144.73,105.012,102.733,,,,-315.753,0.194353,0.0,0.0