Folder: fsri_materials_database/01_Data/Asphalt_Shingle/Cone (part 3)

File: Asphalt_Shingle_Cone_HF50Scan_220415_R2.csv
Names,Time,Stack TC,Smoke TC,Exh Press,Smoke Comp,Smoke Meas,CO Meter,CO2 Meter,O2 Meter,Sample Mass,Ext Coeff,Start Test,Flame Verif
Chan Gain,,500,500,1,1,1,1,1,1,1,1,1.0,1.0
Offset,,0,0,0.134662,0,0,0,0,0,0,0,0.0,0.0
Gain,,1,1,25.011,14.0001,15.1165,1,1,1,1.00131,1.00941,1.0,1.0
Units,sec,C,C,Pa,%,%,%,%,%,g,/m,,
Baseline,,32.7739,33.6618,142.873,105.4,102.84,0.000421789,0.0448984,21.0141,-836.367,0.217706,,
9,2,30.9244,31.9007,141.932,105.161,102.69,0.000436696,0.0513188,21.0073,-302.856,0.21054,0.0,0.0
18,4.25,31.0824,32.2056,146.339,105.143,102.749,0.000385829,0.0502667,21.0086,-302.826,0.203938,0.0,0.0
27,6.5,30.6789,32.0698,142.687,105.128,102.349,0.000371905,0.0494722,21.0098,-302.886,0.237218,0.0,0.0
36,8.75,31.0463,32.1096,140.755,105.112,102.375,0.000284518,0.0484932,21.011,-302.926,0.233687,0.0,0.0
45,11,30.4491,32.0067,146.176,105.107,102.37,0.000249129,0.0476257,21.0122,-302.926,0.233655,0.0,0.0
54,13.25,31.3381,31.8817,143.553,105.094,102.217,0.000278513,0.0468691,21.0133,-302.906,0.245756,0.0,0.0
63,15.5,31.1973,31.9886,145.742,105.072,101.974,0.000309051,0.0462603,21.0149,-302.926,0.265045,0.0,0.0
72,17.75,31.4282,31.9928,144.108,105.072,101.228,0.000424734,0.0455582,21.0163,-302.966,0.330018,0.0,0.0
81,20,31.56,31.9669,143.409,105.075,101.306,0.000539235,0.0449787,21.0169,-302.976,0.32345,0.0,0.0
90,22.25,31.3323,31.8954,140.544,105.05,100.43,0.000597339,0.0455018,21.015,-302.997,0.398232,0.0,0.0
99,24.5,31.3599,32.0686,142.832,105.034,99.1744,0.000883668,0.0502229,21.0051,-303.017,0.508304,0.0,0.0
108,26.75,31.7184,32.2318,140.875,105.039,102.396,0.00125632,0.0672689,20.9899,-303.057,0.225619,0.0,1.0
117,29,32.2873,32.1988,139.116,105.049,100.902,0.00175103,0.091012,20.9571,-303.147,0.356604,0.0,1.0
126,31.25,32.1825,32.55,135.154,105.013,92.6015,0.00297295,0.150504,20.8544,-303.237,1.11369,0.0,1.0
135,33.5,32.5909,33.5069,126.17,105.004,81.2171,0.00541525,0.215378,20.7331,-303.367,2.2745,0.0,0.0
144,35.75,34.235,34.6857,125.068,105.017,72.9516,0.00824131,0.285431,20.6207,-303.537,3.22593,0.0,0.0
153,38,35.1829,35.8589,131.034,104.995,72.47,0.0120421,0.345735,20.4852,-303.737,3.2827,0.0,0.0
162,40.25,36.9151,38.0274,122.708,104.976,66.7773,0.0158644,0.418465,20.3678,-303.938,4.00546,0.0,0.0
171,42.5,39.3916,39.8476,122.091,104.987,59.8742,0.0196622,0.478091,20.2453,-304.178,4.97262,0.0,0.0
180,44.75,41.3204,42.8447,118.869,104.991,57.3526,0.0233435,0.543493,20.1118,-304.418,5.35397,0.0,0.0
189,47,43.2108,44.5351,116.664,104.973,53.34,0.0261233,0.620318,19.994,-304.759,5.9946,0.0,0.0
198,49.25,46.9395,48.1819,114.88,104.973,52.7657,0.0285052,0.685073,19.8934,-305.059,6.09046,0.0,0.0
207,51.5,49.9598,51.3164,111.407,104.977,48.361,0.0308321,0.737253,19.8074,-305.34,6.86261,0.0,0.0
216,53.75,53.1589,54.8195,110.561,104.96,49.613,0.0328974,0.78725,19.7157,-305.65,6.63492,0.0,0.0
225,56,56.3407,58.1708,104.534,104.951,47.0001,0.0349006,0.836365,19.6318,-305.98,7.11318,0.0,0.0
234,58.25,58.6122,61.597,107.436,104.975,45.0077,0.0366367,0.884551,19.5451,-306.391,7.49879,0.0,0.0
243,60.5,62.4509,65.6053,109.822,104.966,42.2665,0.0380147,0.92305,19.4835,-306.751,8.05439,0.0,0.0
252,62.75,65.9932,69.0981,109.895,104.963,42.249,0.0391249,0.938639,19.4517,-307.122,8.05785,0.0,0.0
261,65,68.823,72.8666,111.505,104.981,41.3799,0.0389183,0.937536,19.4541,-307.482,8.24338,0.0,0.0
270,67.25,71.178,75.7092,106.439,104.99,43.1569,0.0371814,0.909028,19.5012,-307.813,7.87186,0.0,0.0
279,69.5,73.0885,78.3544,118.749,105,45.4155,0.0338664,0.849434,19.6087,-308.083,7.42101,0.0,0.0
288,71.75,75.3911,80.2367,114.977,105.013,52.7283,0.0291579,0.74791,19.775,-308.323,6.10016,0.0,0.0
297,74,75.7963,81.2216,126.058,105.032,60.4467,0.0243454,0.627065,19.9659,-308.514,4.89214,0.0,0.0
306,76.25,75.7193,81.3441,127.515,105.059,70.4093,0.0186208,0.520791,20.1499,-308.704,3.54354,0.0,0.0
315,78.5,74.7837,81.0418,127.419,105.068,79.9019,0.0137025,0.413509,20.3589,-308.804,2.4244,0.0,0.0
324,80.75,74.0738,80.4416,137.172,105.097,89.0738,0.00989282,0.322136,20.5384,-308.864,1.4647,0.0,0.0
333,83,72.9145,78.9196,133.486,105.116,95.202,0.00738071,0.251829,20.6649,-308.894,0.877181,0.0,0.0
342,85.25,71.2121,77.4297,139.883,105.154,100.233,0.00615712,0.197484,20.7695,-308.974,0.424358,0.0,0.0
351,87.5,69.8664,75.9332,138.191,105.154,101.202,0.00595726,0.157332,20.8456,-309.054,0.339149,0.0,0.0
360,89.75,68.2526,74.0708,141.618,105.189,102.699,0.00629928,0.128991,20.8909,-309.024,0.212118,0.0,0.0
369,92,66.4984,72.6418,139.324,105.215,102.717,0.00687855,0.11079,20.922,-309.064,0.2128,0.0,0.0
378,94.25,65.0688,70.4171,141.795,105.224,102.514,0.00751568,0.0997053,20.9423,-309.054,0.231031,0.0,0.0
387,96.5,63.0872,68.8656,142.608,105.236,102.538,0.00809193,0.0936971,20.9516,-309.054,0.229965,0.0,0.0
396,98.75,61.5002,67.2866,139.324,105.274,102.675,0.00849067,0.0914764,20.9512,-309.064,0.221305,0.0,0.0
405,101,60.2628,65.9324,144.043,105.289,102.682,0.00857445,0.0908545,20.9514,-309.094,0.222002,0.0,0.0
414,103.25,58.8875,64.6124,142.193,105.3,102.579,0.00851679,0.0911605,20.9518,-309.125,0.23178,0.0,0.0
423,105.5,57.8077,63.9386,146.419,105.306,102.831,0.00845077,0.0920121,20.9507,-309.145,0.210563,0.0,0.0
432,107.75,56.5738,62.4138,140.333,105.334,102.685,0.00830713,0.0930476,20.9503,-309.135,0.225539,0.0,0.0
441,110,55.6303,61.4549,141.479,105.34,103.019,0.00798934,0.0937048,20.9503,-309.205,0.197288,0.0,0.0
450,112.25,54.5395,59.8935,140.217,105.352,102.965,0.00767441,0.0940069,20.9507,-309.205,0.202934,0.0,0.0
459,114.5,53.5052,58.5926,138.085,105.361,102.961,0.0075336,0.0945872,20.9508,-309.255,0.203966,0.0,0.0
468,116.75,52.7997,57.88,141.791,105.388,102.757,0.00746828,0.095755,20.9498,-309.255,0.223896,0.0,0.0
477,119,52.1312,57.3385,142.154,105.387,102.702,0.00730543,0.0966541,20.9491,-309.265,0.228556,0.0,0.0
486,121.25,51.2234,55.6865,139.7,105.41,102.8,0.00699666,0.0967893,20.9478,-309.285,0.222027,0.0,0.0
495,123.5,50.6175,55.5477,141.205,105.425,102.836,0.0067998,0.0975143,20.9458,-309.315,0.220144,0.0,0.0
504,125.75,49.8947,54.5735,136.971,105.429,102.7,0.00679339,0.0985925,20.945,-309.335,0.232228,0.0,0.0
513,128,49.3391,53.6951,138.864,105.444,103.138,0.0067828,0.0984733,20.9446,-309.345,0.195859,0.0,0.0
522,130.25,48.5074,53.0795,135.491,105.463,103.069,0.00672193,0.0985818,20.9445,-309.405,0.203264,0.0,0.0
531,132.5,47.8596,52.7642,139.323,105.477,103.145,0.00664773,0.098787,20.9448,-309.405,0.197912,0.0,0.0
540,134.75,47.4582,51.9286,137.914,105.479,102.901,0.00660538,0.0989289,20.9451,-309.425,0.219029,0.0,0.0
549,137,46.6819,51.2875,140.602,105.491,103.002,0.00645168,0.0989331,20.9452,-309.505,0.211345,0.0,0.0
558,139.25,46.0563,50.9446,137.227,105.502,103.105,0.00619143,0.098033,20.9462,-309.485,0.203474,0.0,0.0
567,141.5,46.2139,50.1635,139.841,105.524,103.011,0.00607614,0.0972721,20.9471,-309.485,0.213427,0.0,0.0
576,143.75,45.2726,49.3683,138.17,105.52,102.964,0.00599489,0.0976289,20.9486,-309.505,0.217186,0.0,0.0
585,146,44.7369,48.6803,140.959,105.533,103.262,0.00602691,0.0978459,20.9494,-309.555,0.192596,0.0,0.0
594,148.25,43.8428,48.0747,136.698,105.541,103.346,0.00616703,0.0979026,20.9497,-309.565,0.18608,0.0,0.0
603,150.5,44.1954,48.2011,140.47,105.538,103.19,0.00620617,0.0976513,20.9498,-309.555,0.199273,0.0,0.0
612,152.75,43.2748,47.1637,141.705,105.541,103.001,0.00626288,0.0971226,20.9499,-309.615,0.215734,0.0,0.0
621,155,43.2799,47.1831,137.543,105.559,103.247,0.0062322,0.0974417,20.9499,-309.595,0.196048,0.0,0.0
630,157.25,42.9122,46.781,142.544,105.555,102.815,0.00611802,0.0973366,20.9507,-309.655,0.232838,0.0,0.0
639,159.5,42.8034,46.4384,144.758,105.553,102.93,0.00589355,0.0969502,20.9516,-309.675,0.222843,0.0,0.0
648,161.75,42.0531,45.8014,139.903,105.565,103.193,0.00569066,0.0964961,20.952,-309.695,0.201215,0.0,0.0
657,164,42.1249,45.5676,139.391,105.548,103.225,0.00551214,0.095654,20.9518,-309.695,0.19709,0.0,0.0
666,166.25,41.4698,45.0953,141.548,105.541,103.343,0.0053333,0.0950101,20.9525,-309.705,0.186353,0.0,0.0
675,168.5,41.7719,44.9427,138.194,105.541,103.185,0.00533829,0.0943783,20.9534,-309.765,0.199885,0.0,0.0
684,170.75,41.1005,44.2522,140.557,105.552,103.079,0.00534575,0.0937636,20.9551,-309.785,0.209923,0.0,0.0
693,173,41.2703,43.6661,138.754,105.538,103.075,0.00526541,0.093052,20.9557,-309.805,0.209061,0.0,0.0
702,175.25,40.6857,43.883,143.28,105.529,103.062,0.00524615,0.092349,20.9565,-309.815,0.209493,0.0,0.0
711,177.5,40.5378,43.8068,140.889,105.516,103.013,0.0052362,0.0919817,20.9568,-309.855,0.212544,0.0,0.0
720,179.75,40.1138,43.3899,140.37,105.515,102.736,0.00520664,0.0914629,20.9576,-309.876,0.236336,0.0,0.0
729,182,40.548,43.3567,140.376,105.511,103.018,0.00512913,0.0908374,20.9587,-309.835,0.211721,0.0,0.0
738,184.25,39.4004,43.0378,139.844,105.487,103.1,0.00492914,0.0901426,20.9604,-309.886,0.202619,0.0,0.0
747,186.5,39.3234,42.612,139.522,105.501,103.312,0.00474,0.0896034,20.9612,-309.896,0.185675,0.0,0.0
756,188.75,39.4639,42.232,142.437,105.484,103.025,0.00469099,0.0892511,20.9615,-309.896,0.208867,0.0,0.0
765,191,39.2831,41.4308,139.233,105.466,103.127,0.00475235,0.0887094,20.9621,-309.936,0.198639,0.0,0.0
774,193.25,39.4246,42.0977,137.331,105.455,103.129,0.0048862,0.0884475,20.9625,-309.946,0.197508,0.0,0.0
783,195.5,38.8415,41.3306,137.887,105.455,103.224,0.00494655,0.0887784,20.9627,-309.956,0.189317,0.0,0.0
792,197.75,39.2269,41.5434,142.946,105.443,102.909,0.00488003,0.088278,20.9632,-309.976,0.215377,0.0,0.0
801,200,38.7209,41.3926,139.563,105.414,102.812,0.00474631,0.0875586,20.9643,-309.996,0.221241,0.0,0.0
810,202.25,38.8111,41.2372,143.412,105.411,103.232,0.0045633,0.0873838,20.9648,-309.996,0.18502,0.0,0.0
819,204.5,38.4373,40.9668,141.066,105.406,103.282,,0.0874426,,-310.046,0.180281,0.0,0.0
828,206.75,38.4105,40.5829,141.402,105.374,103.118,,,,-310.096,0.191601,0.0,0.0
837,209,38.3639,40.4917,141.792,105.364,103.413,,,,-310.066,0.165495,0.0,0.0
846,211.25,38.7308,40.7507,141.767,105.342,103.072,,,,-310.066,0.19291,0.0,0.0
855,213.5,38.222,40.5228,142.307,105.326,103.103,,,,-310.086,0.188847,0.0,0.0
858,214.25,38.5097,40.4214,141.391,105.322,102.772,,,,-310.096,0.217015,0.0,0.0

File: Asphalt_Shingle_Cone_HF50Scan_220415_R3.csv
Names,Time,Stack TC,Smoke TC,Exh Press,Smoke Comp,Smoke Meas,CO Meter,CO2 Meter,O2 Meter,Sample Mass,Ext Coeff,Start Test,Flame Verif
Chan Gain,,500,500,1,1,1,1,1,1,1,1,1.0,1.0
Offset,,0,0,0.134662,0,0,0,0,0,0,0,0.0,0.0
Gain,,1,1,25.011,14.0001,15.1165,1,1,1,1.00131,1.00941,1.0,1.0
Units,sec,C,C,Pa,%,%,%,%,%,g,/m,,
Baseline,,33.0838,33.9898,142.636,104.199,101.822,0.00034763,0.0452237,21.0149,-836.61,0.204362,,
9,2,31.4982,32.5593,142.844,104.512,101.904,0.000340062,0.0524652,21.0057,-304.078,0.223808,0.0,0.0
18,4.25,31.4335,32.1857,143.037,104.52,102.144,0.000239572,0.0517304,21.0075,-304.098,0.203636,0.0,0.0
27,6.5,31.7055,32.2008,143.884,104.511,102.221,0.000317644,0.0504485,21.0094,-304.108,0.196164,0.0,0.0
36,8.75,31.516,31.8118,143.818,104.519,102.17,0.000545759,0.0491754,21.0108,-304.118,0.201325,0.0,0.0
45,11,31.5792,32.7335,137.991,104.525,101.795,0.000569951,0.0478047,21.0118,-304.138,0.234322,0.0,0.0
54,13.25,31.6439,32.5475,140.822,104.526,101.868,0.000568389,0.046799,21.0131,-304.158,0.22805,0.0,0.0
63,15.5,31.4559,32.4916,144.094,104.496,101.596,0.000608085,0.0460132,21.0136,-304.188,0.249245,0.0,0.0
72,17.75,31.722,32.522,140.586,104.493,100.718,0.000523032,0.0456395,21.0144,-304.178,0.325841,0.0,0.0
81,20,31.928,32.6993,138.456,104.484,100.818,0.000480177,0.0457165,21.0138,-304.238,0.31632,0.0,0.0
90,22.25,31.7623,32.4347,143.759,104.452,99.7104,0.00074719,0.0485999,21.0089,-304.228,0.411344,0.0,0.0
99,24.5,31.3054,32.4763,140.112,104.428,100.042,0.00126187,0.0575528,20.9929,-304.278,0.379873,0.0,0.0
108,26.75,31.7346,32.5225,136.327,104.415,102.221,0.00183146,0.0796874,20.9505,-304.378,0.188013,0.0,1.0
117,29,32.1745,33.1375,136.635,104.395,98.7777,0.00287023,0.121334,20.8909,-304.418,0.489749,0.0,1.0
126,31.25,32.4655,33.5072,128.197,104.371,83.2003,0.00513594,0.181859,20.787,-304.539,2.00729,0.0,1.0
135,33.5,33.1899,34.1681,125.419,104.361,73.7663,0.00802325,0.274023,20.6007,-304.679,3.07209,0.0,0.0
144,35.75,35.3874,35.5938,124.323,104.351,63.9573,0.01153,0.364086,20.4719,-304.909,4.33471,0.0,0.0
153,38,37.3047,37.8645,119.731,104.337,66.7003,0.0148379,0.421083,20.3694,-305.089,3.9616,0.0,0.0
162,40.25,38.1022,40.1675,121.184,104.316,57.0693,0.0182483,0.48233,20.275,-305.31,5.34069,0.0,0.0
171,42.5,40.5878,43.0802,114.981,104.325,51.0399,0.0226049,0.548663,20.1527,-305.63,6.33014,0.0,0.0
180,44.75,44.362,44.8102,113.396,104.313,46.1056,0.0269184,0.636892,20.0003,-305.94,7.22934,0.0,0.0
189,47,47.1144,48.4381,107.856,104.296,45.9548,0.0306378,0.71383,19.8518,-306.231,7.25688,0.0,0.0
198,49.25,50.1607,51.3694,109.365,104.296,45.8298,0.0335863,0.783743,19.7235,-306.601,7.281,0.0,0.0
207,51.5,53.5738,55.0763,109.156,104.289,46.2592,0.0365986,0.828076,19.6495,-306.962,7.19782,0.0,0.0
216,53.75,56.5616,58.5429,100.908,104.289,41.7065,0.0400233,0.898829,19.5144,-307.262,8.11523,0.0,0.0
225,56,59.7266,62.3357,106.153,104.284,41.7249,0.0433856,0.968941,19.384,-307.723,8.11087,0.0,0.0
234,58.25,62.9101,66.2856,107.984,104.287,42.9221,0.04619,1.0236,19.2962,-308.123,7.8607,0.0,0.0
243,60.5,66.7388,69.7522,101.9,104.257,36.9913,0.0481076,1.05974,19.235,-308.554,9.17477,0.0,0.0
252,62.75,69.4862,73.5852,102.525,104.232,39.929,0.0478374,1.05516,19.2265,-308.964,8.49604,0.0,0.0
261,65,72.3907,76.8485,120.398,104.223,36.5517,0.0444004,0.979626,19.3147,-309.315,9.2778,0.0,0.0
270,67.25,74.1076,79.3225,116.187,104.205,42.004,0.0374323,0.862806,19.5055,-309.665,8.04513,0.0,0.0
279,69.5,74.7914,80.3586,123.89,104.181,54.5395,0.0294107,0.732159,19.7602,-309.835,5.73067,0.0,0.0
288,71.75,75.1788,81.1335,127.9,104.158,65.6406,0.0219483,0.605949,20.0144,-309.956,4.0882,0.0,0.0
297,74,74.4062,80.7859,127.753,104.134,79.4115,0.0154502,0.48533,20.2453,-310.096,2.39988,0.0,0.0
306,76.25,73.6884,79.6879,132.269,104.121,90.1482,0.0108152,0.374361,20.4697,-310.166,1.2759,0.0,0.0
315,78.5,73.0014,78.524,131.974,104.078,98.2453,0.00801863,0.286593,20.6311,-310.176,0.510669,0.0,0.0
324,80.75,71.5327,77.4995,137.156,104.049,100.544,0.00654907,0.221135,20.742,-310.176,0.30341,0.0,0.0
333,83,69.907,76.16,139.616,104.014,101.235,0.00653948,0.166396,20.8258,-310.226,0.239738,0.0,0.0
342,85.25,68.1141,74.6538,138.157,103.98,101.444,0.00727053,0.12942,20.8889,-310.246,0.218681,0.0,0.0
351,87.5,66.2714,73.1231,139.612,103.917,101.769,0.00812319,0.107552,20.9183,-310.276,0.18499,0.0,0.0
360,89.75,65.4037,70.8924,137.036,103.882,101.526,0.00891576,0.0973238,20.9353,-310.286,0.203105,0.0,0.0
369,92,63.5468,69.4995,139.511,103.852,101.247,0.00957648,0.0909952,20.9467,-310.296,0.22497,0.0,0.0
378,94.25,62.0795,67.4586,138.793,103.818,101.261,0.0101589,0.0887159,20.9514,-310.336,0.220842,0.0,0.0
387,96.5,60.3761,66.0011,140.218,103.787,101.673,0.0105957,0.0878729,20.9532,-310.386,0.182155,0.0,0.0
396,98.75,58.9272,64.1392,137.13,103.748,101.21,0.0108913,0.0878416,20.9539,-310.356,0.219342,0.0,0.0
405,101,57.8552,63.705,137.223,103.706,101.012,0.0109885,0.0882442,20.954,-310.366,0.233062,0.0,0.0
414,103.25,56.9947,62.5883,139.251,103.657,101.531,0.0109551,0.0885608,20.9537,-310.356,0.183449,0.0,0.0
423,105.5,55.9988,61.296,143.174,103.643,101.433,0.0108803,0.0895598,20.9522,-310.396,0.190858,0.0,0.0
432,107.75,54.7091,60.4342,139.255,103.614,100.991,0.0108797,0.0909544,20.9516,-310.406,0.227072,0.0,0.0
441,110,53.2222,59.4461,137.849,103.572,101.198,0.0107769,0.092205,20.9509,-310.456,0.205279,0.0,0.0
450,112.25,53.2074,58.0639,139.58,103.528,101.451,0.0105065,0.0929869,20.9482,-310.536,0.17942,0.0,0.0
459,114.5,52.1152,57.8204,140.488,103.523,101.048,0.0102533,0.0929531,20.9472,-310.546,0.214318,0.0,0.0
468,116.75,50.9306,56.4403,138.7,103.511,101.356,0.0102216,0.0941659,20.9466,-310.546,0.186336,0.0,0.0
477,119,50.5539,56.1588,140.182,103.465,100.942,0.0103205,0.0964134,20.9451,-310.576,0.218576,0.0,0.0
486,121.25,50.338,54.7205,139.978,103.456,101.154,0.0103233,0.0974367,20.9439,-310.606,0.199172,0.0,0.0
495,123.5,49.3802,54.3961,141.548,103.454,101.139,0.0103024,0.0978878,20.9439,-310.637,0.200396,0.0,0.0
504,125.75,48.7962,53.6693,137.161,103.441,101.275,0.010347,0.0982243,20.9428,-310.626,0.187319,0.0,0.0
513,128,48.2059,52.991,139.718,103.433,101.457,0.0103393,0.0982689,20.9423,-310.687,0.170744,0.0,0.0
522,130.25,47.9019,52.3098,139.794,103.458,101.539,0.0102853,0.0982372,20.9421,-310.687,0.165818,0.0,0.0
531,132.5,46.9259,51.8283,140.468,103.474,101.308,0.0102385,0.0985147,20.942,-310.707,0.187345,0.0,0.0
540,134.75,46.558,51.4187,138.718,103.471,101.021,0.0101009,0.098917,20.9425,-310.737,0.212208,0.0,0.0
549,137,46.0448,50.2719,140.511,103.503,101.071,0.00983049,0.0988897,20.9428,-310.747,0.210466,0.0,0.0
558,139.25,45.9483,50.2662,136.559,103.525,101.168,0.00970255,0.0989692,20.9429,-310.807,0.203925,0.0,0.0
567,141.5,45.0298,48.7603,139.741,103.527,101.682,0.00969577,0.0990205,20.9429,-310.837,0.159239,0.0,0.0
576,143.75,45.0819,49.0057,139.143,103.515,101.347,0.00956979,0.0984925,20.9429,-310.847,0.187432,0.0,0.0
585,146,44.4816,48.6024,140.509,103.53,101.793,0.00931613,0.098284,20.9436,-310.857,0.149821,0.0,0.0
594,148.25,44.5296,48.0813,139.47,103.547,101.541,0.00924081,0.0978401,20.945,-310.887,0.173216,0.0,0.0
603,150.5,44.0947,47.5469,141.662,103.55,101.416,0.00938651,0.0972563,20.9466,-310.907,0.184348,0.0,0.0
612,152.75,43.8159,46.8942,139.925,103.576,101.538,0.0093749,0.0975204,20.9464,-310.917,0.175986,0.0,0.0
621,155,43.3233,47.3,142.251,103.623,101.408,0.00929152,0.0980303,20.9457,-310.957,0.191355,0.0,0.0
630,157.25,43.0458,46.5955,139.57,103.652,101.256,0.00923641,0.0986459,20.9458,-310.967,0.207058,0.0,0.0
639,159.5,43.1149,46.1726,142.034,103.644,101.457,0.00898995,0.0987225,20.9475,-310.987,0.18887,0.0,0.0
648,161.75,43.1864,45.7812,137.227,103.589,101.01,0.00881785,0.0975037,20.9485,-311.017,0.22326,0.0,0.0
657,164,42.3195,45.678,139.508,103.601,101.514,0.00887739,0.0966148,20.95,-311.047,0.180232,0.0,0.0
666,166.25,42.4169,45.2033,141.955,103.6,101.638,0.00888688,0.0956405,20.9514,-311.067,0.169229,0.0,0.0
675,168.5,41.9242,45.1075,139.827,103.62,101.621,0.00866472,0.0950351,20.9531,-311.097,0.172505,0.0,0.0
684,170.75,41.4742,44.9046,138.841,103.661,101.44,0.00832471,0.0946527,20.9541,-311.117,0.191744,0.0,0.0
693,173,41.5248,44.3608,139.744,103.698,101.622,0.00819161,0.0939609,20.9544,-311.137,0.179107,0.0,0.0
702,175.25,41.2096,44.1217,138.935,103.716,101.591,0.00819437,0.0945815,20.9529,-311.137,0.183256,0.0,0.0
711,177.5,40.7134,43.8625,138.832,103.75,101.532,0.00806053,0.096695,20.9498,-311.167,0.191322,0.0,0.0
720,179.75,40.4254,43.6028,141.256,103.797,101.317,0.00791623,0.0979087,20.9469,-311.177,0.214136,0.0,0.0
729,182,40.0579,43.0897,139.145,103.829,101.928,0.00779575,0.0985228,20.9445,-311.217,0.163614,0.0,0.0
738,184.25,40.7148,43.4086,140.16,103.869,101.534,0.00768706,0.0974651,20.9442,-311.197,0.201292,0.0,0.0
747,186.5,40.7813,43.2388,140.394,103.934,101.706,0.00761817,0.0948378,20.9494,-311.227,0.191906,0.0,0.0
756,188.75,40.217,42.955,138.252,103.988,101.475,0.00755873,0.0926159,20.9525,-311.257,0.216558,0.0,0.0
765,191,40.0422,42.7446,142.576,104.022,101.914,0.00745243,0.0909379,20.9549,-311.307,0.181233,0.0,0.0
774,193.25,40.1887,42.7451,139.162,104.082,101.742,0.00733029,0.0896485,20.9574,-311.277,0.201398,0.0,0.0
783,195.5,39.3742,41.565,137.052,104.138,101.809,0.00732543,0.0889755,20.9584,-311.287,0.200259,0.0,0.0
792,197.75,39.6954,41.8426,140.644,104.199,101.854,0.00728135,0.0881027,20.96,-311.297,0.201525,0.0,0.0
801,200,39.4745,41.6372,139.07,104.247,101.891,0.00722202,0.0875228,20.9609,-311.357,0.202382,0.0,0.0
810,202.25,39.2357,41.6885,140.204,104.316,102.055,,0.0868909,,-311.367,0.194035,0.0,0.0
819,204.5,39.1308,41.6953,140.706,104.379,102.631,,,,-311.468,0.149518,0.0,0.0
828,206.75,39.2688,41.3725,140.056,104.431,102.347,,,,-311.448,0.178527,0.0,0.0
837,209,38.5565,41.5672,138.184,104.476,102.208,,,,-311.388,0.194314,0.0,0.0
845,211,38.7359,41.4675,142.478,104.523,102.404,,,,-311.418,0.181327,0.0,0.0

File: Asphalt_Shingle_Cone_HF75Scalar_220415_R1.csv
LABORATORY,FSRI
TEST IDENT,Shingles_HF75_1
OPERATOR,Dow
MATERIAL,Fiberglass asphalt shingles
ORIENTATION,Horizontal
HEAT FLUX,75
SURF AREA,0.01
C FACTOR,0.0397182
SPEC HOLDER DIFF,-566
SPECIMEN MASS,36.25
SCAN TIME,0.25
O2 DELAY TIME,11
CO DELAY TIME,11
CO2 DELAY TIME,8
FLOW FACTOR,1
SCAN COUNT,746
TIME TO IGN,14.75
END OF TEST SCAN,266
END OF TEST TIME,66.5
TEST STATUS,1
PRE TEST CMT,Dimensions: 100.93 x 100.95 x 2.54 mm

File: Asphalt_Shingle_Cone_HF75Scalar_220415_R2.csv
LABORATORY,FSRI
TEST IDENT,Shingles_HF75_2
OPERATOR,Dow
MATERIAL,Fiberglass asphalt shingles
ORIENTATION,Horizontal
HEAT FLUX,75
SURF AREA,0.01
C FACTOR,0.0397182
SPEC HOLDER DIFF,-566
SPECIMEN MASS,36.27
SCAN TIME,0.25
O2 DELAY TIME,11
CO DELAY TIME,11
CO2 DELAY TIME,8
FLOW FACTOR,1
SCAN COUNT,741
TIME TO IGN,14
END OF TEST SCAN,261
END OF TEST TIME,65.25
TEST STATUS,1
PRE TEST CMT,Dimensions: 100.37 x 101.79 x 2.53 mm

File: Asphalt_Shingle_Cone_HF75Scalar_220415_R3.csv
LABORATORY,FSRI
TEST IDENT,Shingles_HF75_3
OPERATOR,Dow
MATERIAL,Fiberglass asphalt shingles
ORIENTATION,Horizontal
HEAT FLUX,75
SURF AREA,0.01
C FACTOR,0.0397182
SPEC HOLDER DIFF,-566
SPECIMEN MASS,37.52
SCAN TIME,0.25
O2 DELAY TIME,11
CO DELAY TIME,11
CO2 DELAY TIME,8
FLOW FACTOR,1
SCAN COUNT,770
TIME TO IGN,15
END OF TEST SCAN,290
END OF TEST TIME,72.5
TEST STATUS,1
PRE TEST CMT,Dimensions: 100.96 x 100.75 x 2.47 mm