Folder: fsri_materials_database/01_Data/Asphalt_Shingle/Cone (part 4)

File: Asphalt_Shingle_Cone_HF75Scan_220415_R1.csv
Names,Time,Stack TC,Smoke TC,Exh Press,Smoke Comp,Smoke Meas,CO Meter,CO2 Meter,O2 Meter,Sample Mass,Ext Coeff,Start Test,Flame Verif
Chan Gain,,500,500,1,1,1,1,1,1,1,1,1.0,1.0
Offset,,0,0,0.134662,0,0,0,0,0,0,0,0.0,0.0
Gain,,1,1,25.011,14.0001,15.1165,1,1,1,1.00131,1.00941,1.0,1.0
Units,sec,C,C,Pa,%,%,%,%,%,g,/m,,
Baseline,,41.6048,43.5646,138.042,104.893,102.803,0.000611192,0.0444425,21.0105,-838.449,0.178206,,
8,1.75,40.5722,41.7589,140.564,104.874,102.407,0.000415761,0.0497558,21.0056,-311.418,0.210754,0.0,0.0
16,3.75,40.2235,41.9806,140.026,104.875,102.703,0.0004634,0.0491772,21.006,-311.478,0.185366,0.0,0.0
24,5.75,39.8254,41.9771,140.596,104.869,102.444,0.000590265,0.0486954,21.0061,-311.458,0.207162,0.0,0.0
32,7.75,40.871,42.3147,139.996,104.882,102.649,0.000659118,0.0482394,21.007,-311.498,0.190599,0.0,0.0
40,9.75,40.3066,42.19,139.784,104.88,101.916,0.000645081,0.0478945,21.0071,-311.488,0.253796,0.0,0.0
48,11.75,40.6681,41.9678,139.751,104.858,100.97,0.000829215,0.0480185,21.0089,-311.478,0.334547,0.0,0.0
56,13.75,40.6521,42.6197,136.941,104.868,100.861,0.00126749,0.055509,20.9872,-311.578,0.345002,0.0,0.0
64,15.75,40.5908,42.5837,133.562,104.873,102.84,0.00179025,0.0799335,20.945,-311.648,0.173266,0.0,1.0
72,17.75,41.1169,42.9292,133.133,104.877,94.2221,0.00357757,0.116664,20.87,-311.748,0.948644,0.0,1.0
80,19.75,40.873,43.2824,124.588,104.877,75.1429,0.0078445,0.187446,20.7016,-311.878,2.95209,0.0,1.0
88,21.75,42.6251,44.525,111.128,104.883,56.2814,0.0139457,0.319287,20.3943,-312.148,5.51171,0.0,0.0
96,23.75,45.2271,46.772,102.87,104.883,49.4077,0.0211168,0.489227,20.0926,-312.429,6.66514,0.0,0.0
104,25.75,48.8898,50.4618,107.972,104.881,50.8692,0.0259296,0.641768,19.8978,-312.719,6.40681,0.0,0.0
112,27.75,52.5103,54.2615,103.5,104.881,48.4367,0.0302423,0.733515,19.7562,-313.02,6.84069,0.0,0.0
120,29.75,55.6939,58.0281,99.3459,104.882,42.5322,0.0339206,0.786174,19.6489,-313.32,7.99183,0.0,0.0
128,31.75,58.8301,61.3945,97.1942,104.874,36.9701,0.0382396,0.858559,19.5236,-313.66,9.23213,0.0,0.0
136,33.75,62.5297,65.6621,104.335,104.874,39.7685,0.0422637,0.945763,19.3794,-314.101,8.58603,0.0,0.0
144,35.75,66.3587,70.1895,100.444,104.863,35.4957,0.0455412,1.01308,19.2704,-314.472,9.59154,0.0,0.0
152,37.75,69.9889,74.2873,105.193,104.878,39.2707,0.0484852,1.06232,19.1916,-314.802,8.69795,0.0,0.0
160,39.75,73.627,78.0908,90.7255,104.868,34.926,0.0516456,1.11358,19.0923,-315.212,9.73521,0.0,0.0
168,41.75,77.8133,82.4619,87.5174,104.87,32.696,0.0550005,1.18733,18.9466,-315.663,10.3196,0.0,0.0
176,43.75,81.1488,86.9799,95.0884,104.868,33.7723,0.0573648,1.25881,18.8334,-316.064,10.0327,0.0,0.0
184,45.75,85.2308,91.7901,92.0032,104.859,33.2671,0.0578809,1.30725,18.7785,-316.484,10.1653,0.0,0.0
192,47.75,89.2844,96.4216,95.1998,104.863,35.8639,0.0557032,1.30339,18.8106,-316.925,9.50018,0.0,0.0
200,49.75,92.1353,100.084,104.609,104.858,45.386,0.0499863,1.21704,19.0359,-317.215,7.4148,0.0,0.0
208,51.75,94.0619,102.752,115.485,104.867,53.3949,0.0405975,1.03353,19.3486,-317.405,5.97659,0.0,0.0
216,53.75,94.4351,103.714,119.87,104.862,67.8388,0.0306286,0.834098,19.7237,-317.596,3.85622,0.0,0.0
224,55.75,93.688,102.996,124.687,104.852,82.5175,0.0217406,0.64027,20.0665,-317.676,2.12097,0.0,0.0
232,57.75,92.4325,101.652,126.257,104.848,95.5863,0.0148609,0.47662,20.3056,-317.746,0.818881,0.0,0.0
240,59.75,90.5277,99.7812,132.334,104.851,101.053,0.0103496,0.359903,20.5085,-317.766,0.326728,0.0,0.0
248,61.75,88.6839,98.1886,133.722,104.853,102.874,0.0080045,0.269306,20.6703,-317.806,0.168672,0.0,0.0
256,63.75,86.8511,96.2683,129.253,104.859,103.138,0.00703249,0.206758,20.777,-317.836,0.146569,0.0,0.0
264,65.75,84.9993,94.0556,131.452,104.879,103.147,0.00658539,0.169351,20.8354,-317.846,0.147398,0.0,0.0
272,67.75,83.1268,92.0555,136.536,104.861,103.293,0.00632307,0.148392,20.8683,-317.896,0.133377,0.0,0.0
280,69.75,80.8185,90.2326,134.25,104.87,103.075,0.00616479,0.136741,20.8877,-317.956,0.152859,0.0,0.0
288,71.75,79.8937,87.8673,133.88,104.868,103.451,0.00616226,0.129683,20.8998,-317.996,0.12044,0.0,0.0
296,73.75,78.1925,87.1381,138.7,104.845,103.145,0.00623037,0.125654,20.906,-317.996,0.144746,0.0,0.0
304,75.75,76.2628,84.707,134.592,104.855,103.53,0.00628634,0.123519,20.91,-318.016,0.112645,0.0,0.0
312,77.75,75.5686,83.6427,132.905,104.856,103.005,0.00630307,0.122321,20.913,-318.066,0.157727,0.0,0.0
320,79.75,73.7372,81.8277,135.697,104.854,103.515,0.00621784,0.12101,20.914,-318.116,0.113835,0.0,0.0
328,81.75,72.7256,80.9252,134.938,104.858,103.34,0.00608065,0.120173,20.9141,-318.166,0.129128,0.0,0.0
336,83.75,71.3853,79.6548,135.124,104.855,102.919,0.00596359,0.119139,20.9167,-318.176,0.164998,0.0,0.0
344,85.75,70.2038,78.2767,136.891,104.865,103.058,0.00584507,0.118223,20.9183,-318.276,0.153925,0.0,0.0
352,87.75,70.1012,77.0317,135.292,104.861,103.027,0.00561931,0.117492,20.9197,-318.307,0.156261,0.0,0.0
360,89.75,68.7194,75.8745,134.001,104.866,102.953,0.00535472,0.116988,20.9215,-318.267,0.163002,0.0,0.0
368,91.75,67.9814,75.4507,135.057,104.859,103.422,0.00519449,0.116645,20.923,-318.307,0.122243,0.0,0.0
376,93.75,66.8966,74.0484,135.911,104.862,102.85,0.00510965,0.116364,20.9236,-318.337,0.171494,0.0,0.0
384,95.75,66.2901,73.4086,135.146,104.862,103.051,0.00497469,0.116432,20.9239,-318.367,0.154267,0.0,0.0
392,97.75,65.058,72.1558,136.992,104.854,103.125,0.00481529,0.116721,20.9246,-318.417,0.147281,0.0,0.0
400,99.75,64.911,71.2889,132.185,104.858,103.367,0.00464379,0.117017,20.9256,-318.467,0.126796,0.0,0.0
408,101.75,63.937,70.7957,135.492,104.844,103.144,0.00453207,0.116768,20.9261,-318.497,0.144717,0.0,0.0
416,103.75,62.9305,69.5455,138.874,104.827,102.755,0.00455467,0.116466,20.9285,-318.487,0.176756,0.0,0.0
424,105.75,61.5525,68.6165,133.124,104.841,103.454,0.00463713,0.116212,20.9297,-318.567,0.117926,0.0,0.0
432,107.75,61.2962,68.3745,138.15,104.83,104.162,0.00466752,0.116581,20.9302,-318.557,0.0566621,0.0,0.0
440,109.75,60.5706,67.5812,136.314,104.827,103.446,0.00463135,0.11676,20.9304,-318.587,0.117371,0.0,0.0
448,111.75,60.2856,66.4473,136.36,104.826,103.09,0.0046127,0.116648,20.9306,-318.637,0.147874,0.0,0.0
456,113.75,59.8724,65.5164,133.335,104.826,103.293,0.00465807,0.116646,20.9306,-318.667,0.130493,0.0,0.0
464,115.75,59.1917,65.3143,137.104,104.819,103.589,0.00465032,0.116624,20.9309,-318.717,0.104564,0.0,0.0
472,117.75,58.641,64.5166,132.655,104.819,103.453,0.00460032,0.116522,20.932,-318.717,0.116169,0.0,0.0
480,119.75,58.5946,63.952,135.785,104.815,103.235,0.00454133,0.116202,20.9326,-318.787,0.134424,0.0,0.0
488,121.75,57.8468,63.6801,133.864,104.805,102.933,0.00447219,0.116417,20.9328,-318.837,0.159589,0.0,0.0
496,123.75,57.7486,63.2208,133.74,104.797,103.026,0.0044205,0.116565,20.9329,-318.847,0.150851,0.0,0.0
504,125.75,56.9817,62.6391,134.039,104.796,103.179,0.00440032,0.116371,20.9335,-318.897,0.137665,0.0,0.0
512,127.75,56.7291,61.6172,132.413,104.785,103.344,0.00447039,0.116254,20.9345,-318.947,0.12264,0.0,0.0
520,129.75,55.9938,61.2654,133.208,104.78,102.873,0.00455456,0.115789,20.9359,-318.947,0.162619,0.0,0.0
528,131.75,56.0305,61.3022,133.894,104.763,103.234,0.00449972,0.115544,20.9368,-318.957,0.130175,0.0,0.0
536,133.75,55.3833,60.6845,133.704,104.768,102.993,0.00423764,0.115852,20.9373,-319.048,0.15129,0.0,0.0
544,135.75,55.2125,60.5627,134.207,104.76,103.031,0.00395602,0.115603,20.9385,-319.038,0.147346,0.0,0.0
552,137.75,55.0092,59.8819,134.828,104.745,103.565,0.00375045,0.114877,20.9393,-319.078,0.100297,0.0,0.0
560,139.75,53.7975,59.8513,136.398,104.739,103.149,0.0036494,0.114645,20.9396,-319.098,0.135472,0.0,0.0
568,141.75,53.8087,59.1123,135.734,104.724,103.041,0.0036535,0.114362,20.9398,-319.158,0.143483,0.0,0.0
576,143.75,53.9454,58.2503,135.124,104.717,102.933,0.00369428,0.113785,20.9398,-319.178,0.15215,0.0,0.0
584,145.75,53.173,58.4208,135.462,104.71,103.312,0.00372757,0.113313,20.9398,-319.188,0.118975,0.0,0.0
592,147.75,53.2698,57.3208,134.205,104.708,102.982,0.0037766,0.113659,20.9399,-319.228,0.147145,0.0,0.0
600,149.75,53.2923,57.5347,136.944,104.695,102.768,0.00377363,0.113471,20.9406,-319.238,0.164489,0.0,0.0
608,151.75,53.3748,56.9516,137.731,104.68,103.084,0.00371292,0.112998,20.9411,-319.268,0.13604,0.0,0.0
616,153.75,52.8366,56.6883,135.201,104.679,103.177,0.00366653,0.112571,20.9422,-319.318,0.128002,0.0,0.0
624,155.75,52.6177,57.115,135.891,104.674,103.075,0.00363574,0.1122,20.9431,-319.348,0.136322,0.0,0.0
632,157.75,52.0671,56.8538,133.363,104.668,102.998,0.00359937,0.111804,20.9435,-319.378,0.142472,0.0,0.0
640,159.75,51.9346,56.1124,134.544,104.647,102.816,0.00356123,0.111371,20.9437,-319.418,0.156305,0.0,0.0
648,161.75,51.9597,56.0593,133.933,104.641,102.811,0.00352627,0.111211,20.9438,-319.418,0.15616,0.0,0.0
656,163.75,51.7719,55.3622,136.917,104.642,102.881,0.00349851,0.111183,20.9442,-319.458,0.150234,0.0,0.0
664,165.75,51.6,55.0374,136.153,104.631,102.968,0.00335327,0.110919,20.9453,-319.508,0.14183,0.0,0.0
672,167.75,51.046,55.0535,136.694,104.622,102.666,0.00314977,0.110152,20.9458,-319.528,0.167169,0.0,0.0
680,169.75,51.1193,54.8885,135.13,104.598,102.662,0.00304073,0.109486,20.946,-319.568,0.165501,0.0,0.0
688,171.75,51.2743,54.8406,134.441,104.59,103.06,0.00298991,0.109148,20.9462,-319.558,0.130467,0.0,0.0
696,173.75,51.0171,54.4743,135.983,104.579,102.728,0.0029631,0.109268,20.9465,-319.598,0.15807,0.0,0.0
704,175.75,50.9586,54.6877,136.161,104.558,102.983,,0.108894,,-319.628,0.134412,0.0,0.0
712,177.75,50.6045,53.6791,135.805,104.551,102.976,,0.10836,,-319.648,0.134392,0.0,0.0
720,179.75,50.3284,54.172,136.183,104.544,102.642,,,,-319.678,0.162543,0.0,0.0
728,181.75,50.4612,54.1117,133.885,104.538,102.551,,,,-319.728,0.169919,0.0,0.0
736,183.75,49.7117,53.8566,135.637,104.538,102.882,,,,-319.768,0.141401,0.0,0.0
744,185.75,50.7217,53.3301,134.801,104.531,102.834,,,,-319.778,0.144917,0.0,0.0
746,186.25,50.0622,54.0231,136.776,104.52,102.71,,,,-319.798,0.154704,0.0,0.0

File: Asphalt_Shingle_Cone_HF75Scan_220415_R2.csv
Names,Time,Stack TC,Smoke TC,Exh Press,Smoke Comp,Smoke Meas,CO Meter,CO2 Meter,O2 Meter,Sample Mass,Ext Coeff,Start Test,Flame Verif
Chan Gain,,500,500,1,1,1,1,1,1,1,1,1.0,1.0
Offset,,0,0,0.134662,0,0,0,0,0,0,0,0.0,0.0
Gain,,1,1,25.011,14.0001,15.1165,1,1,1,1.00131,1.00941,1.0,1.0
Units,sec,C,C,Pa,%,%,%,%,%,g,/m,,
Baseline,,45.0921,46.6954,137.929,105.385,103.351,0.000280276,0.0435808,21.0143,-838.806,0.172578,,
8,1.75,42.4607,43.8046,134.176,105.247,103.304,0.0004458,0.0454039,21.0128,-306.211,0.164981,0.0,0.0
16,3.75,42.0087,43.8776,136.549,105.218,103.258,0.000446519,0.0459284,21.0122,-306.151,0.166532,0.0,0.0
24,5.75,42.2096,44.1243,139.078,105.196,102.587,0.000471324,0.046543,21.0119,-306.191,0.222367,0.0,0.0
32,7.75,42.5628,44.1814,136.517,105.174,102.706,0.000411294,0.0465643,21.0118,-306.231,0.210227,0.0,0.0
40,9.75,42.6924,43.8993,137.41,105.149,101.984,0.000385353,0.0462775,21.0117,-306.251,0.270566,0.0,0.0
48,11.75,42.4581,44.6798,132.711,105.127,101.145,0.000649324,0.0465258,21.0061,-306.261,0.341924,0.0,0.0
56,13.75,42.954,44.3285,136.55,105.091,103.103,0.00115905,0.054724,20.9793,-306.171,0.16907,0.0,1.0
64,15.75,43.1937,44.516,133.08,105.062,102.553,0.00213586,0.0810296,20.9228,-306.381,0.214051,0.0,1.0
72,17.75,43.2906,44.9646,128.134,105.043,91.3163,0.00364687,0.129391,20.8628,-306.511,1.24,0.0,1.0
80,19.75,43.936,45.3565,118.228,105.021,68.6826,0.00846861,0.200749,20.7103,-306.651,3.76015,0.0,1.0
88,21.75,45.301,46.7882,110.278,104.996,54.7125,0.0145227,0.31827,20.4912,-306.872,5.77164,0.0,0.0
96,23.75,47.9713,49.1273,109.89,104.955,46.2754,0.0225435,0.484145,20.1682,-307.182,7.25114,0.0,0.0
104,25.75,51.284,52.5924,109.701,104.934,51.0108,0.0282264,0.639292,19.924,-307.522,6.3867,0.0,0.0
112,27.75,54.9159,56.4352,110.075,104.918,48.6973,0.0322415,0.733947,19.7702,-307.813,6.79627,0.0,0.0
120,29.75,57.821,60.2487,104.522,104.923,46.214,0.0354325,0.812316,19.6318,-308.123,7.26019,0.0,0.0
128,31.75,61.3383,63.8861,102.591,104.935,39.3837,0.0388601,0.883589,19.4919,-308.504,8.6773,0.0,0.0
136,33.75,64.8177,67.8252,99.7764,104.935,41.992,0.0425746,0.951636,19.3562,-308.814,8.10945,0.0,0.0
144,35.75,68.8743,71.9134,97.2851,104.943,36.2546,0.046615,1.02889,19.2264,-309.235,9.41098,0.0,0.0
152,37.75,72.7459,76.4588,100.741,104.95,37.5011,0.0517964,1.12794,19.0658,-309.645,9.11231,0.0,0.0
160,39.75,76.6975,81.1225,91.5193,104.969,33.8276,0.0565152,1.23186,18.8738,-310.046,10.0267,0.0,0.0
168,41.75,81.0748,86.2002,90.0217,104.981,30.7474,0.059608,1.32407,18.7435,-310.526,10.8731,0.0,0.0
176,43.75,85.4961,91.357,97.7308,104.986,34.67,0.0604657,1.36519,18.6871,-310.947,9.81038,0.0,0.0
184,45.75,89.3368,95.7694,94.4487,104.997,34.8517,0.0588151,1.35575,18.7108,-311.367,9.76502,0.0,0.0
192,47.75,92.5543,99.9708,108.305,105,41.1598,0.054133,1.27422,18.907,-311.718,8.29224,0.0,0.0
200,49.75,95.0951,103.324,110.501,105.022,45.511,0.0460362,1.09549,19.2426,-311.958,7.40425,0.0,0.0
208,51.75,95.3777,104.015,119.702,105.028,63.502,0.0350119,0.869898,19.6195,-312.128,4.45521,0.0,0.0
216,53.75,94.7941,103.361,122.742,105.04,78.5931,0.0249134,0.668481,20.0109,-312.229,2.56829,0.0,0.0
224,55.75,93.5915,102.638,124.564,105.049,92.0359,0.0169093,0.50427,20.2954,-312.289,1.171,0.0,0.0
232,57.75,92.5971,100.95,128.717,105.081,100.148,0.0120416,0.382517,20.4726,-312.329,0.425783,0.0,0.0
240,59.75,90.6436,99.0753,131.514,105.082,102.625,0.00850812,0.287602,20.6368,-312.379,0.209532,0.0,0.0
248,61.75,88.9262,97.3652,132.335,105.107,103.115,0.00701137,0.224884,20.7619,-312.399,0.169371,0.0,0.0
256,63.75,86.8488,95.3993,134.554,105.121,103.295,0.00667284,0.178811,20.8297,-312.429,0.155159,0.0,0.0
264,65.75,85.1229,93.3107,136.817,105.133,103.455,0.0066483,0.153414,20.8638,-312.449,0.142459,0.0,0.0
272,67.75,82.9786,91.0019,134.163,105.159,103.779,0.00668371,0.13928,20.8825,-312.539,0.116976,0.0,0.0
280,69.75,81.495,89.5459,130.289,105.179,104.175,0.00665222,0.13113,20.8957,-312.519,0.0848887,0.0,0.0
288,71.75,80.1482,88.2538,134.45,105.19,103.548,0.00655741,0.126337,20.9044,-312.579,0.139311,0.0,0.0
296,73.75,77.9392,86.3966,134.215,105.21,103.757,0.00644132,0.123627,20.9091,-312.579,0.123149,0.0,0.0
304,75.75,77.1361,84.7216,135.022,105.216,103.72,0.00632342,0.122055,20.913,-312.659,0.126802,0.0,0.0
312,77.75,75.7861,83.8794,137.401,105.234,103.546,0.00614673,0.12075,20.9159,-312.669,0.143132,0.0,0.0
320,79.75,74.7668,81.7967,132.451,105.268,103.824,0.005998,0.119842,20.9173,-312.689,0.122292,0.0,0.0
328,81.75,73.6955,80.8392,133.574,105.287,103.875,0.00587989,0.119359,20.9187,-312.759,0.119544,0.0,0.0
336,83.75,72.2131,79.2874,134.413,105.298,103.709,0.00567985,0.118974,20.9207,-312.819,0.134649,0.0,0.0
344,85.75,71.515,78.5568,131.797,105.334,103.345,0.00554214,0.118586,20.9217,-312.809,0.168793,0.0,0.0
352,87.75,70.0515,77.6228,135.35,105.334,104.048,0.00546313,0.118195,20.9224,-312.849,0.108761,0.0,0.0
360,89.75,69.7973,76.1456,133.103,105.353,103.833,0.0053497,0.117678,20.9231,-312.899,0.12869,0.0,0.0
368,91.75,67.9059,75.3987,135.553,105.367,104.554,0.00513838,0.117344,20.9235,-312.879,0.0686031,0.0,0.0
376,93.75,67.4132,74.2156,135.327,105.385,103.964,0.00480189,0.116686,20.9251,-312.94,0.120146,0.0,0.0
384,95.75,66.7463,73.5551,134.607,105.411,104.053,0.00456874,0.116142,20.927,-312.99,0.114827,0.0,0.0
392,97.75,66.1448,72.8104,134.22,105.424,103.616,0.00446947,0.116151,20.9277,-312.96,0.153201,0.0,0.0
400,99.75,65.3904,71.649,135.367,105.443,103.823,0.00442991,0.1163,20.9281,-313.03,0.137133,0.0,0.0
408,101.75,64.9621,70.6008,139.052,105.453,103.558,0.00436859,0.116666,20.9285,-313.05,0.16053,0.0,0.0
416,103.75,63.5899,69.94,134.251,105.47,103.698,0.00430438,0.116785,20.929,-313.08,0.150096,0.0,0.0
424,105.75,62.839,69.2576,136.776,105.488,103.944,0.00422816,0.117598,20.9295,-313.12,0.130596,0.0,0.0
432,107.75,62.1532,68.1601,137.513,105.514,103.765,0.00414068,0.117881,20.9297,-313.18,0.14793,0.0,0.0
440,109.75,61.7841,68.0679,132.003,105.523,104.18,0.00404803,0.117541,20.9302,-313.23,0.113401,0.0,0.0
448,111.75,61.5939,66.5599,137.871,105.533,103.643,0.00396313,0.117351,20.9313,-313.25,0.159981,0.0,0.0
456,113.75,61.6322,66.2243,133.667,105.564,103.466,0.00401135,0.117497,20.932,-313.31,0.177749,0.0,0.0
464,115.75,59.9946,65.2022,137.354,105.576,104.166,0.00415164,0.117426,20.9324,-313.29,0.118986,0.0,0.0
472,117.75,59.1874,65.7064,137.646,105.588,103.648,0.00427255,0.117454,20.9334,-313.33,0.164171,0.0,0.0
480,119.75,58.8974,64.4754,134.627,105.598,103.922,0.00438925,0.117574,20.9344,-313.41,0.141616,0.0,0.0
488,121.75,58.8895,64.4534,134.742,105.624,103.945,0.0044818,0.117831,20.9347,-313.46,0.141911,0.0,0.0
496,123.75,58.5549,63.3867,135.666,105.629,104.094,0.00456551,0.118259,20.9349,-313.48,0.129622,0.0,0.0
504,125.75,58.0131,63.0456,138.296,105.638,103.705,0.00454518,0.118662,20.935,-313.54,0.163512,0.0,0.0
512,127.75,57.6545,62.0956,132.886,105.656,103.832,0.00424679,0.118732,20.9351,-313.59,0.154231,0.0,0.0
520,129.75,57.0448,62.1807,133.871,105.676,103.83,0.00392886,0.118133,20.9363,-313.56,0.156039,0.0,0.0
528,131.75,56.6768,61.712,133.435,105.685,103.967,0.00375838,0.117431,20.9374,-313.61,0.14511,0.0,0.0
536,133.75,56.608,61.6125,134.698,105.687,103.848,0.00377631,0.116799,20.94,-313.63,0.155467,0.0,0.0
544,135.75,55.7378,60.9014,136.053,105.691,103.996,0.00380583,0.116048,20.9411,-313.65,0.143211,0.0,0.0
552,137.75,56.405,60.6294,132.342,105.71,103.862,0.00378736,0.115358,20.9412,-313.69,0.156109,0.0,0.0
560,139.75,55.8952,60.0456,137.791,105.71,103.931,0.00374421,0.114795,20.9413,-313.731,0.150326,0.0,0.0
568,141.75,55.1577,59.536,136.304,105.721,104.179,0.00371874,0.114511,20.9424,-313.721,0.130101,0.0,0.0
576,143.75,55.0698,59.4432,134.044,105.739,104.125,0.00364543,0.114137,20.9431,-313.761,0.136229,0.0,0.0
584,145.75,55.1423,59.3161,135.955,105.749,104.135,0.00346294,0.114183,20.9425,-313.831,0.136188,0.0,0.0
592,147.75,54.3773,58.7881,133.115,105.755,104.723,0.00334379,0.114209,20.9418,-313.821,0.0868915,0.0,0.0
600,149.75,54.2051,58.3013,136.642,105.77,103.895,0.00334751,0.114033,20.9416,-313.891,0.158326,0.0,0.0
608,151.75,54.1463,57.6658,135.434,105.777,104.419,0.00333067,0.113564,20.9414,-313.921,0.114422,0.0,0.0
616,153.75,53.5109,57.3628,138.003,105.787,103.893,0.00329481,0.113104,20.9423,-313.921,0.159953,0.0,0.0
624,155.75,53.4335,57.4651,136.935,105.794,104.096,0.00328005,0.112645,20.9442,-313.971,0.143314,0.0,0.0
632,157.75,52.8635,56.9877,137.224,105.808,104.095,0.00322195,0.111677,20.9457,-314.001,0.144534,0.0,0.0
640,159.75,53.1288,56.7694,136.04,105.828,104.653,0.00305627,0.111171,20.946,-314.031,0.0987877,0.0,0.0
648,161.75,53.0396,56.4904,138.16,105.814,104.325,0.00289624,0.110784,20.946,-314.021,0.125513,0.0,0.0
656,163.75,53.1841,56.6082,134.841,105.821,104.472,0.00283353,0.110631,20.9471,-314.051,0.113607,0.0,0.0
664,165.75,52.6561,56.1283,131.489,105.816,104.647,0.00281242,0.110618,20.9473,-314.051,0.0983691,0.0,0.0
672,167.75,52.9159,55.9679,134.055,105.825,103.957,0.00280269,0.110001,20.9474,-314.141,0.157633,0.0,0.0
680,169.75,52.578,56.3081,137.359,105.821,104.277,0.00281913,0.109845,20.9474,-314.181,0.130162,0.0,0.0
688,171.75,52.6464,56.1084,134.432,105.813,103.985,0.00282691,0.10995,20.9474,-314.151,0.154235,0.0,0.0
696,173.75,52.2936,55.3686,134.745,105.817,103.818,0.00274629,0.10991,20.9487,-314.211,0.1689,0.0,0.0
704,175.75,52.5223,55.5262,132.934,105.812,104.425,,0.109054,,-314.211,0.116842,0.0,0.0
712,177.75,51.8485,55.1808,134.678,105.814,103.93,,,,-314.281,0.159021,0.0,0.0
720,179.75,51.6305,55.1135,134.607,105.82,104.134,,,,-314.251,0.142199,0.0,0.0
728,181.75,51.5905,54.481,138.139,105.809,104.503,,,,-314.321,0.109987,0.0,0.0
736,183.75,51.3473,54.3754,133.975,105.811,104.22,,,,-314.311,0.134119,0.0,0.0
741,185,51.6539,54.2922,134.564,105.819,104.251,,,,-314.351,0.132214,0.0,0.0