Folder: fsri_materials_database/01_Data/Asphalt_Shingle/HFM

Note: 01_Data/README.md
# Materials and Products Database
## 01_Data

Raw data generated from each apparatus are included here in plain-text format. The data is organized first by material, next by the short name of test apparatus used, and where applicable additional filtering by test settings.

### material.json

Each material directory contains a json file of the same name as the material. This file links the data stored in the repository as well as data and graphs produced by the accompanying scripts (__02_Scripts__) to the respective landing page for the material on the front-end website.

File: Asphalt_Shingle_Density_Dry_R2.csv
,Asphalt_Shingle_DRY_2
Sample Mass [g],110.7
Sample Volume [cm3],90.8
Sample Density [kg/m3],1219

File: Asphalt_Shingle_Density_Wet_R1.csv
,Asphalt_Shingle_DRY_1
Sample Mass [g],109.9
Sample Volume [cm3],89.6
Sample Density [kg/m3],1227

File: Asphalt_Shingle_Density_Wet_R3.csv
,Asphalt_Shingle_DRY_3
Sample Mass [g],109.9
Sample Volume [cm3],90.7
Sample Density [kg/m3],1211