Folder: fsri_materials_database/01_Data/Asphalt_Shingle/MCC

Note: 01_Data/README.md
# Materials and Products Database
## 01_Data

Raw data generated from each apparatus are included here in plain-text format. The data is organized first by material, next by the short name of test apparatus used, and where applicable additional filtering by test settings.

### material.json

Each material directory contains a json file of the same name as the material. This file links the data stored in the repository as well as data and graphs produced by the accompanying scripts (__02_Scripts__) to the respective landing page for the material on the front-end website.

File: Asphalt_Shingle_MCC_30K_min_210928_R1.txt
Sample ID:	C:\MCC\MCC Cal\Test\Asphalt_Shingle\Asphalt_Shingle_MCC_30K_min_210928_R1.txt
Sample Weight (mg):	4.94
Heating Rate (C/s):	0.5
Combustor Temp (C):	900
N2 Flow Rate (cc/min):	80
O2 Flow Rate (cc/min):	20
Calibration File:	C:\MCC\MCC Cal\Coeff1 JN10440_30_210304.txt.txt
T Correction Coefficients:	0	1.024463	0
Time Shift (s):	14
*
Time (s)	Temperature (C)	N2 flow rate (cc/min)	O2 flow rate (cc/min)	Flow Rate (cc/min)	Oxygen (%)	HRR (W/g)	Heating rate (C/s)
0.000	108.626	80.008	19.995	100.200	20.143	-0.254	0.012
8.000	108.600	80.009	19.995	100.210	20.140	-0.067	0.026
16.000	108.599	80.006	19.995	100.210	20.137	0.147	-0.014
24.000	108.647	80.006	19.995	100.237	20.132	0.449	0.019
32.000	108.803	80.009	19.995	100.254	20.124	0.927	0.028
40.001	109.219	80.009	19.995	100.325	20.120	1.213	0.111
48.000	110.013	80.008	19.996	100.396	20.104	2.215	0.123
56.000	111.314	80.008	19.996	100.405	20.103	2.302	0.173
64.001	112.968	80.011	19.994	100.405	20.097	2.635	0.257
72.001	114.978	80.008	19.994	100.425	20.096	2.725	0.246
80.001	117.282	80.007	19.995	100.447	20.092	2.957	0.294
88.000	119.976	80.007	19.994	100.447	20.097	2.680	0.351
96.000	122.851	80.008	19.996	100.442	20.092	3.014	0.378
104.000	126.009	80.009	19.994	100.446	20.096	2.723	0.404
112.000	129.236	80.009	19.997	100.442	20.093	2.909	0.415
120.000	132.674	80.008	19.994	100.440	20.093	2.914	0.437
128.000	136.153	80.009	19.996	100.443	20.095	2.816	0.457
136.000	139.784	80.008	19.995	100.446	20.094	2.877	0.462
144.000	143.473	80.011	19.994	100.432	20.095	2.789	0.482
152.000	147.184	80.007	19.995	100.442	20.096	2.730	0.428
160.000	151.051	80.008	19.993	100.437	20.094	2.867	0.480
168.001	154.858	80.006	19.997	100.420	20.095	2.821	0.451
176.000	158.769	80.009	19.995	100.417	20.092	2.963	0.516
184.000	162.656	80.008	19.996	100.418	20.098	2.586	0.485
192.000	166.659	80.008	19.994	100.414	20.099	2.565	0.464
200.000	170.674	80.007	19.994	100.407	20.104	2.243	0.515
208.000	174.660	80.011	19.996	100.409	20.104	2.193	0.538
216.000	178.647	80.007	19.992	100.407	20.096	2.743	0.480
224.000	182.659	80.011	19.995	100.403	20.095	2.786	0.529
232.000	186.692	80.009	19.996	100.398	20.102	2.367	0.487
240.000	190.750	80.011	19.993	100.381	20.094	2.867	0.512
248.000	194.640	80.006	19.997	100.377	20.098	2.592	0.458
256.000	198.621	80.002	19.995	100.378	20.097	2.640	0.481
264.000	202.571	80.009	19.993	100.381	20.095	2.820	0.520
272.000	206.523	80.006	19.995	100.376	20.079	3.798	0.475
280.000	210.465	80.007	19.994	100.371	20.100	2.491	0.463
288.001	214.392	79.999	19.993	100.373	20.094	2.880	0.485
296.000	218.282	80.012	19.994	100.369	20.085	3.406	0.460
304.000	222.289	80.009	19.998	100.363	20.087	3.270	0.507
312.000	226.197	80.009	19.997	100.364	20.087	3.308	0.465
320.000	230.246	80.008	19.995	100.368	20.088	3.220	0.513
328.000	234.223	80.007	19.994	100.366	20.085	3.451	0.519
336.000	238.256	80.006	19.993	100.368	20.083	3.557	0.534
344.000	242.194	80.010	19.993	100.368	20.079	3.815	0.517
352.000	246.196	80.003	19.998	100.363	20.074	4.091	0.504
360.000	250.220	80.005	19.996	100.362	20.073	4.166	0.494
368.000	254.187	80.011	19.995	100.365	20.069	4.461	0.493
376.000	258.182	80.012	19.996	100.363	20.069	4.422	0.527
384.000	262.201	80.014	19.995	100.365	20.064	4.733	0.497
392.000	266.179	80.013	19.994	100.360	20.056	5.239	0.501
400.000	270.206	80.010	19.994	100.359	20.053	5.461	0.496
408.000	274.253	80.017	19.996	100.363	20.053	5.428	0.495
416.000	278.241	80.005	19.994	100.363	20.047	5.837	0.487
424.000	282.309	80.013	19.995	100.347	20.043	6.068	0.477
432.001	286.258	80.005	19.997	100.352	20.032	6.767	0.491
440.000	290.363	80.007	19.997	100.337	20.031	6.863	0.538
448.000	294.304	80.009	19.994	100.326	20.025	7.243	0.495
456.000	298.337	80.011	19.994	100.330	20.023	7.383	0.556
464.000	302.285	80.008	19.996	100.345	20.016	7.783	0.476
472.001	306.317	80.006	19.995	100.350	20.014	7.894	0.504
480.000	310.325	80.006	19.995	100.335	20.007	8.338	0.516
488.000	314.334	80.009	19.994	100.343	20.007	8.371	0.504
496.000	318.380	80.009	19.994	100.331	20.003	8.648	0.478
504.000	322.409	80.010	19.996	100.331	19.998	8.923	0.514
512.000	326.504	80.009	19.995	100.327	19.995	9.114	0.542
520.000	330.517	80.008	19.996	100.328	19.987	9.639	0.495
528.000	334.647	80.008	19.997	100.330	19.983	9.895	0.555
536.000	338.653	80.008	19.995	100.324	19.981	10.044	0.504
544.000	342.703	80.014	19.994	100.330	19.974	10.455	0.493
552.000	346.771	80.015	19.993	100.329	19.973	10.523	0.562
560.000	350.784	80.013	19.994	100.322	19.966	10.992	0.490
568.000	354.846	80.001	19.996	100.323	19.966	10.969	0.501
576.000	358.874	80.012	19.995	100.327	19.961	11.308	0.520
584.000	362.940	80.020	19.994	100.324	19.956	11.582	0.530
592.000	366.952	79.996	19.997	100.333	19.954	11.711	0.487
600.000	370.949	80.013	19.996	100.333	19.949	12.030	0.484
608.000	375.014	80.018	19.995	100.328	19.943	12.439	0.510
616.000	379.018	80.009	19.995	100.317	19.932	13.097	0.478
624.001	383.076	80.002	19.996	100.324	19.930	13.254	0.508
632.000	387.073	80.000	19.997	100.317	19.922	13.750	0.491
640.000	391.143	80.002	19.995	100.320	19.916	14.140	0.552
648.000	395.153	80.004	19.996	100.321	19.906	14.747	0.516
656.001	399.192	80.000	19.997	100.304	19.900	15.150	0.520
664.000	403.205	80.011	19.995	100.305	19.890	15.809	0.511
672.000	407.267	80.012	19.995	100.320	19.873	16.822	0.551
680.000	411.287	80.019	19.992	100.302	19.863	17.458	0.525
688.000	415.252	80.004	19.995	100.305	19.851	18.258	0.525
696.000	419.232	80.015	19.994	100.299	19.836	19.212	0.506
704.000	423.282	80.012	19.995	100.306	19.827	19.755	0.479
712.000	427.273	80.024	19.994	100.306	19.815	20.540	0.518
720.000	431.374	80.016	19.995	100.291	19.800	21.477	0.522
728.000	435.420	80.015	19.995	100.296	19.790	22.098	0.506
736.000	439.419	80.001	19.995	100.292	19.774	23.123	0.508
744.000	443.492	80.012	19.993	100.304	19.772	23.243	0.527
752.000	447.409	80.010	19.994	100.294	19.770	23.358	0.512
760.000	451.414	80.012	19.995	100.292	19.769	23.413	0.481
768.000	455.500	80.011	19.994	100.288	19.783	22.540	0.517
776.000	459.507	80.010	19.994	100.289	19.802	21.340	0.511
784.000	463.586	80.011	19.995	100.290	19.825	19.871	0.526
792.000	467.572	80.013	19.995	100.289	19.860	17.677	0.482
800.000	471.616	80.007	19.995	100.296	19.904	14.914	0.477
808.001	475.684	80.012	19.994	100.299	19.945	12.322	0.475
816.000	479.763	80.008	19.996	100.295	19.981	10.031	0.523
824.000	483.741	80.009	19.997	100.294	20.015	7.877	0.492
832.000	487.752	80.008	19.996	100.309	20.041	6.206	0.479
840.001	491.720	80.009	19.994	100.301	20.063	4.787	0.513
848.000	495.694	80.007	19.996	100.289	20.080	3.710	0.493
856.000	499.522	80.009	19.995	100.293	20.089	3.180	0.468
864.000	503.326	80.012	19.994	100.302	20.096	2.754	0.455
872.000	507.173	80.007	19.994	100.315	20.105	2.180	0.480
880.000	511.038	80.009	19.995	100.313	20.107	2.006	0.460
888.000	514.950	80.010	19.995	100.303	20.115	1.499	0.497
896.000	518.920	80.009	19.995	100.308	20.114	1.584	0.512
904.000	522.912	80.008	19.996	100.294	20.116	1.445	0.516
912.000	526.935	80.009	19.996	100.312	20.119	1.290	0.511
920.000	530.938	80.009	19.996	100.289	20.111	1.777	0.507
928.000	534.952	80.008	19.995	100.299	20.110	1.843	0.514
936.000	538.899	80.008	19.994	100.294	20.106	2.118	0.501
944.000	542.967	80.013	19.995	100.326	20.110	1.840	0.547
952.001	547.056	80.009	19.994	100.329	20.111	1.766	0.527
960.000	551.235	80.010	19.995	100.322	20.113	1.638	0.513
968.000	555.398	80.013	19.994	100.322	20.118	1.332	0.510
976.000	559.481	80.010	19.994	100.325	20.118	1.319	0.527
984.000	563.699	80.009	19.995	100.323	20.118	1.347	0.512
992.000	567.905	80.009	19.995	100.326	20.118	1.323	0.514
1000.000	572.193	80.010	19.994	100.310	20.119	1.245	0.540
1008.000	576.484	80.008	19.995	100.325	20.120	1.217	0.527
1016.000	580.718	80.006	19.996	100.329	20.120	1.193	0.506
1024.000	584.914	80.010	19.995	100.321	20.126	0.854	0.515
1032.000	589.028	80.010	19.995	100.322	20.126	0.811	0.550
1040.000	593.167	80.010	19.995	100.325	20.126	0.854	0.484
1048.000	597.281	80.010	19.996	100.308	20.126	0.844	0.491
1056.000	601.305	80.011	19.995	100.323	20.124	0.930	0.514
1064.000	605.332	80.009	19.995	100.323	20.122	1.072	0.506
1072.000	609.292	80.009	19.995	100.329	20.124	0.970	0.514
1080.000	613.263	80.009	19.996	100.329	20.127	0.747	0.490
1088.001	617.275	80.009	19.996	100.327	20.124	0.923	0.489
1096.000	621.304	80.007	19.996	100.329	20.123	1.029	0.479
1104.000	625.306	80.008	19.996	100.329	20.123	1.045	0.477
1112.000	629.243	80.011	19.997	100.329	20.123	1.024	0.468
1120.000	633.302	80.010	19.995	100.343	20.125	0.917	0.498
1128.000	637.361	80.011	19.994	100.334	20.121	1.138	0.533
1136.001	641.398	80.012	19.995	100.342	20.120	1.200	0.492
1144.000	645.472	80.009	19.995	100.354	20.118	1.308	0.534
1152.000	649.537	80.010	19.995	100.357	20.116	1.450	0.531
1160.001	653.660	80.009	19.995	100.365	20.118	1.346	0.547
1168.000	657.718	80.011	19.995	100.365	20.115	1.495	0.490
1176.000	661.769	80.010	19.996	100.366	20.110	1.822	0.516
1184.000	665.666	80.007	19.996	100.384	20.112	1.730	0.468
1192.001	669.811	80.011	19.995	100.399	20.109	1.912	0.527
1200.000	674.019	80.009	19.996	100.404	20.107	2.011	0.573
1208.000	678.178	80.008	19.996	100.404	20.109	1.906	0.546
1216.000	682.248	80.012	19.995	100.409	20.105	2.135	0.497
1224.001	686.221	80.010	19.994	100.431	20.107	2.046	0.501
1232.000	690.119	80.009	19.995	100.436	20.100	2.504	0.486
1240.000	694.066	80.009	19.995	100.452	20.102	2.366	0.504
1248.000	698.069	80.009	19.996	100.462	20.098	2.572	0.509
1256.000	702.078	80.009	19.994	100.465	20.094	2.853	0.504
1264.000	706.019	80.008	19.994	100.483	20.097	2.682	0.498
1272.000	709.972	80.011	19.995	100.486	20.091	3.074	0.475
1280.000	713.963	80.009	19.995	100.523	20.091	3.065	0.527
1288.000	718.059	80.009	19.995	100.520	20.087	3.301	0.508
1296.000	722.193	80.009	19.995	100.532	20.087	3.307	0.522
1304.000	726.522	80.010	19.996	100.541	20.098	2.582	0.509
1312.001	730.763	80.010	19.995	100.548	20.084	3.467	0.635
1320.000	734.952	80.009	19.995	100.538	20.082	3.595	0.321
1328.000	739.103	80.009	19.995	100.523	20.084	3.463	0.578
1336.000	743.179	80.009	19.995	100.476	20.087	3.285	0.527
1336.500	743.397	80.010	19.995	100.473	20.089	3.154	0.453

File: Asphalt_Shingle_MCC_30K_min_210928_R2.txt
Sample ID:	C:\MCC\MCC Cal\Test\Asphalt_Shingle\Asphalt_Shingle_MCC_30K_min_210928_R2.txt
Sample Weight (mg):	4.54
Heating Rate (C/s):	0.5
Combustor Temp (C):	900
N2 Flow Rate (cc/min):	80
O2 Flow Rate (cc/min):	20
Calibration File:	C:\MCC\MCC Cal\Coeff1 JN10440_30_210304.txt.txt
T Correction Coefficients:	0	1.024463	0
Time Shift (s):	14
*
Time (s)	Temperature (C)	N2 flow rate (cc/min)	O2 flow rate (cc/min)	Flow Rate (cc/min)	Oxygen (%)	HRR (W/g)	Heating rate (C/s)
0.000	107.786	80.009	19.997	100.205	20.180	-0.447	-0.037
8.000	107.746	80.008	19.992	100.203	20.190	-1.153	0.040
16.000	107.775	80.027	19.998	100.261	20.175	-0.156	0.039
24.000	107.921	80.031	19.997	100.287	20.173	-0.015	0.040
32.000	108.381	80.032	19.996	100.323	20.164	0.636	0.048
39.999	109.083	80.031	19.996	100.372	20.160	0.919	0.060
47.999	110.027	80.029	19.995	100.359	20.150	1.631	0.118
55.999	111.363	80.028	19.995	100.392	20.142	2.141	0.175
63.999	112.924	80.033	19.997	100.416	20.138	2.407	0.186
72.000	114.925	80.031	19.996	100.403	20.145	1.957	0.260
79.999	117.051	80.027	19.997	100.437	20.144	2.010	0.270
87.999	119.480	80.028	19.995	100.444	20.144	1.984	0.322
95.999	122.189	80.023	19.995	100.446	20.141	2.219	0.327
103.999	125.101	80.029	19.995	100.445	20.140	2.291	0.376
111.999	128.229	80.031	19.995	100.444	20.142	2.138	0.409
119.999	131.423	80.023	19.996	100.441	20.140	2.313	0.397
127.999	134.791	80.039	19.994	100.448	20.141	2.199	0.463
136.000	138.269	80.023	19.997	100.442	20.135	2.624	0.467
144.000	141.828	80.006	19.995	100.444	20.141	2.242	0.466
152.000	145.495	80.013	19.994	100.440	20.142	2.150	0.434
160.000	149.221	80.014	19.994	100.441	20.146	1.856	0.434
168.000	153.012	80.013	19.994	100.444	20.146	1.857	0.480
176.000	156.799	79.996	19.996	100.439	20.142	2.117	0.484
184.000	160.650	80.010	19.996	100.434	20.140	2.313	0.490
192.000	164.540	80.009	19.995	100.432	20.147	1.797	0.481
200.000	168.434	80.007	19.997	100.421	20.142	2.181	0.459
208.000	172.407	80.009	19.996	100.416	20.143	2.113	0.481
216.000	176.323	80.010	19.995	100.416	20.143	2.111	0.502
224.000	180.277	80.009	19.994	100.410	20.143	2.062	0.492
232.000	184.307	80.010	19.995	100.407	20.144	1.994	0.528
240.000	188.283	80.011	19.995	100.392	20.146	1.868	0.487
248.000	192.103	80.012	19.995	100.376	20.149	1.678	0.457
256.000	195.865	80.010	19.996	100.393	20.148	1.728	0.434
264.000	199.661	80.008	19.996	100.397	20.145	1.939	0.485
272.000	203.370	80.009	19.996	100.385	20.145	1.921	0.460
280.000	207.113	80.011	19.995	100.389	20.144	1.992	0.463
288.000	210.859	80.007	19.995	100.394	20.138	2.440	0.463
296.000	214.647	80.007	19.994	100.401	20.135	2.638	0.458
304.000	218.482	80.012	19.996	100.403	20.136	2.540	0.502
312.000	222.321	80.010	19.995	100.398	20.133	2.790	0.512
320.000	226.272	80.010	19.996	100.379	20.132	2.852	0.487
328.000	230.242	80.013	19.995	100.382	20.129	3.052	0.533
336.000	234.192	80.015	19.995	100.383	20.124	3.375	0.502
344.000	238.070	80.010	19.995	100.370	20.124	3.400	0.505
352.000	241.958	80.010	19.995	100.370	20.124	3.372	0.487
360.000	245.866	80.010	19.994	100.375	20.124	3.421	0.444
368.000	249.830	80.009	19.995	100.375	20.118	3.786	0.512
376.000	253.806	80.010	19.995	100.379	20.111	4.263	0.450
384.000	257.860	80.010	19.994	100.394	20.109	4.433	0.525
392.000	261.901	80.011	19.997	100.372	20.104	4.766	0.494
400.000	265.972	80.009	19.997	100.365	20.102	4.904	0.476
408.000	270.010	80.011	19.994	100.364	20.099	5.084	0.515
416.000	274.042	80.011	19.996	100.363	20.099	5.133	0.494
424.000	278.043	80.007	19.996	100.367	20.090	5.719	0.500
432.000	281.998	80.008	19.995	100.367	20.088	5.861	0.513
440.000	285.912	80.010	19.996	100.365	20.089	5.822	0.480
448.000	289.820	80.009	19.996	100.364	20.084	6.161	0.466
456.000	293.763	80.009	19.995	100.364	20.082	6.313	0.499
464.000	297.667	80.008	19.996	100.364	20.077	6.611	0.472
472.000	301.643	80.012	19.996	100.361	20.071	7.040	0.503
480.000	305.662	80.011	19.995	100.367	20.069	7.192	0.502
488.000	309.684	80.010	19.996	100.362	20.062	7.676	0.508
496.000	313.797	80.011	19.996	100.359	20.064	7.546	0.512
504.000	317.844	80.010	19.995	100.364	20.061	7.741	0.480
512.000	322.018	80.010	19.995	100.363	20.060	7.832	0.509
520.000	326.158	80.010	19.994	100.361	20.051	8.404	0.534
528.000	330.402	80.011	19.995	100.363	20.047	8.721	0.511
536.000	334.676	80.010	19.995	100.356	20.046	8.761	0.544
544.000	338.901	80.011	19.995	100.341	20.042	9.029	0.507
552.000	342.961	80.013	19.994	100.337	20.041	9.106	0.513
560.000	346.923	80.010	19.995	100.333	20.040	9.180	0.492
568.000	350.859	80.011	19.996	100.331	20.037	9.369	0.512
576.000	354.794	80.012	19.995	100.333	20.032	9.727	0.477
584.000	358.684	80.015	19.997	100.326	20.025	10.211	0.484
592.000	362.623	80.010	19.996	100.336	20.020	10.529	0.447
600.000	366.596	80.010	19.996	100.344	20.018	10.702	0.515
608.000	370.527	80.011	19.995	100.336	20.010	11.233	0.465
616.000	374.559	80.009	19.995	100.345	20.007	11.453	0.482
624.000	378.581	80.008	19.996	100.338	20.003	11.744	0.508
632.000	382.661	80.011	19.995	100.340	19.998	12.089	0.504
640.000	386.733	80.011	19.994	100.331	19.990	12.598	0.492
648.000	390.840	80.011	19.996	100.331	19.982	13.201	0.492
656.000	395.086	80.011	19.996	100.333	19.977	13.512	0.544
664.000	399.287	80.012	19.996	100.339	19.968	14.113	0.536
672.000	403.552	80.009	19.996	100.333	19.957	14.890	0.535
680.000	407.817	80.010	19.996	100.335	19.947	15.620	0.554
688.000	412.005	80.009	19.997	100.327	19.932	16.600	0.507
696.000	416.113	80.008	19.996	100.327	19.923	17.234	0.517
704.000	420.124	80.009	19.995	100.319	19.910	18.138	0.481
712.000	424.029	80.009	19.996	100.322	19.899	18.917	0.466
720.000	427.899	80.012	19.995	100.322	19.886	19.825	0.490
728.000	431.748	80.010	19.996	100.314	19.880	20.199	0.465
736.000	435.659	80.012	19.996	100.320	19.868	21.063	0.494
744.000	439.568	80.012	19.995	100.324	19.865	21.269	0.484
752.000	443.489	80.011	19.995	100.326	19.860	21.589	0.484
760.000	447.491	80.011	19.995	100.327	19.857	21.808	0.530
768.000	451.564	80.009	19.996	100.325	19.861	21.521	0.498
776.000	455.702	80.010	19.996	100.319	19.877	20.392	0.517
784.000	459.855	80.010	19.998	100.317	19.889	19.609	0.495
792.000	463.992	80.010	19.995	100.323	19.916	17.712	0.514
800.000	468.125	80.011	19.995	100.323	19.949	15.446	0.546
808.000	472.285	80.012	19.995	100.321	19.985	12.955	0.538
816.000	476.447	80.011	19.996	100.321	20.023	10.323	0.486
824.000	480.642	80.012	19.994	100.326	20.055	8.135	0.504
832.000	484.829	80.010	19.995	100.328	20.082	6.255	0.533
840.000	488.849	80.009	19.996	100.324	20.103	4.866	0.471
848.000	493.059	80.008	19.996	100.325	20.121	3.581	0.525
856.000	497.199	80.010	19.996	100.323	20.135	2.597	0.512
864.000	501.367	80.008	19.996	100.324	20.149	1.682	0.539
872.000	505.476	80.009	19.996	100.326	20.154	1.321	0.519
880.000	509.673	80.008	19.997	100.335	20.160	0.907	0.527
888.000	513.715	80.010	19.995	100.325	20.163	0.694	0.491
896.000	517.886	80.009	19.994	100.330	20.164	0.598	0.531
904.000	521.963	80.010	19.996	100.327	20.171	0.117	0.499
912.000	525.986	80.012	19.995	100.326	20.170	0.205	0.509
920.000	530.037	80.011	19.995	100.323	20.171	0.169	0.515
928.000	534.122	80.011	19.996	100.325	20.175	-0.134	0.524
936.000	538.114	80.010	19.994	100.325	20.175	-0.132	0.497
944.000	542.160	80.011	19.995	100.328	20.177	-0.256	0.500
952.000	546.200	80.010	19.995	100.327	20.177	-0.263	0.505
960.000	550.264	80.009	19.995	100.333	20.179	-0.435	0.497
968.000	554.339	80.013	19.996	100.327	20.175	-0.152	0.519
976.000	558.406	80.010	19.996	100.323	20.175	-0.156	0.488
984.000	562.488	80.010	19.996	100.325	20.178	-0.356	0.498
992.000	566.611	80.013	19.995	100.324	20.177	-0.271	0.542
1000.000	570.710	80.011	19.996	100.322	20.179	-0.399	0.535
1008.000	574.857	80.010	19.995	100.326	20.181	-0.540	0.508
1016.000	579.018	80.011	19.996	100.327	20.179	-0.408	0.532
1024.000	583.041	80.025	19.996	100.328	20.183	-0.672	0.499
1031.999	587.098	80.011	19.995	100.330	20.182	-0.636	0.501
1039.999	591.138	80.009	19.996	100.325	20.182	-0.615	0.500
1047.999	595.195	80.010	19.995	100.325	20.181	-0.527	0.526
1055.999	599.105	80.012	19.995	100.324	20.184	-0.732	0.459
1063.999	603.085	80.010	19.994	100.325	20.181	-0.516	0.516
1072.000	607.024	80.011	19.997	100.323	20.182	-0.610	0.514
1079.999	611.051	80.011	19.995	100.325	20.181	-0.536	0.501
1088.000	615.033	80.009	19.995	100.330	20.181	-0.561	0.458
1095.999	619.115	80.009	19.995	100.330	20.180	-0.502	0.495
1104.000	623.207	80.012	19.995	100.340	20.179	-0.386	0.530
1111.999	627.260	80.010	19.996	100.346	20.178	-0.356	0.484
1119.999	631.451	80.010	19.995	100.358	20.180	-0.444	0.527
1127.999	635.688	80.011	19.995	100.349	20.177	-0.262	0.539
1135.999	639.754	80.011	19.994	100.361	20.182	-0.600	0.492
1143.999	643.798	80.009	19.995	100.366	20.181	-0.557	0.488
1151.999	647.866	80.012	19.994	100.367	20.178	-0.307	0.524
1159.999	651.870	80.014	19.995	100.367	20.178	-0.329	0.512
1167.999	655.843	80.009	19.996	100.369	20.176	-0.200	0.510
1175.999	659.812	80.009	19.996	100.389	20.177	-0.288	0.472
1183.999	663.828	80.011	19.996	100.394	20.177	-0.235	0.530
1191.999	667.906	80.011	19.992	100.402	20.171	0.156	0.502
1200.000	672.110	80.009	19.996	100.406	20.170	0.222	0.566
1208.000	676.316	80.009	19.995	100.410	20.168	0.324	0.539
1215.999	680.532	80.012	19.995	100.428	20.168	0.350	0.504
1223.999	684.636	80.011	19.994	100.438	20.166	0.499	0.515
1231.999	688.703	80.010	19.995	100.447	20.166	0.507	0.518
1239.999	692.774	80.012	19.995	100.441	20.164	0.661	0.492
1247.999	696.957	80.010	19.995	100.472	20.163	0.686	0.551
1255.999	701.131	80.009	19.997	100.480	20.160	0.922	0.514
1263.999	705.247	80.008	19.995	100.484	20.159	0.978	0.508
1271.999	709.376	80.010	19.995	100.502	20.157	1.124	0.520
1279.999	713.350	80.009	19.996	100.513	20.154	1.352	0.312
1287.999	717.553	80.010	19.996	100.520	20.150	1.587	0.571
1296.000	721.518	80.009	19.994	100.528	20.152	1.471	0.456
1304.000	725.573	80.012	19.998	100.523	20.151	1.555	0.484
1311.999	729.688	80.010	19.994	100.521	20.150	1.567	0.524
1319.999	733.769	80.014	19.997	100.514	20.153	1.357	0.513
1327.999	737.763	80.011	19.998	100.490	20.155	1.240	0.518
1336.000	741.885	80.010	19.999	100.459	20.162	0.793	0.512
1338.999	743.406	80.009	19.996	100.437	20.163	0.695	0.519