Folder: fsri_materials_database/01_Data/Asphalt_Shingle/MCC (part 2)

File: Asphalt_Shingle_MCC_30K_min_210928_R3.txt
Sample ID:	C:\MCC\MCC Cal\Test\Asphalt_Shingle\Asphalt_Shingle_MCC_30K_min_210928_R3.txt
Sample Weight (mg):	4.13
Heating Rate (C/s):	0.5
Combustor Temp (C):	900
N2 Flow Rate (cc/min):	80
O2 Flow Rate (cc/min):	20
Calibration File:	C:\MCC\MCC Cal\Coeff1 JN10440_30_210304.txt.txt
T Correction Coefficients:	0	1.024463	0
Time Shift (s):	14
*
Time (s)	Temperature (C)	N2 flow rate (cc/min)	O2 flow rate (cc/min)	Flow Rate (cc/min)	Oxygen (%)	HRR (W/g)	Heating rate (C/s)
0.000	110.318	80.012	19.994	100.245	20.241	0.012	0.006
8.000	110.318	80.011	19.994	100.247	20.240	0.112	0.006
16.000	110.236	80.009	19.995	100.281	20.235	0.464	-0.005
24.000	110.491	80.012	19.995	100.373	20.214	2.051	0.040
32.001	111.143	80.012	19.995	100.395	20.207	2.609	0.072
40.000	112.223	80.007	19.997	100.421	20.207	2.564	0.126
48.001	113.711	80.009	19.996	100.443	20.201	3.016	0.213
56.000	115.538	80.010	19.997	100.474	20.197	3.344	0.236
64.000	117.780	80.009	19.996	100.464	20.196	3.397	0.269
72.000	120.244	80.008	19.995	100.478	20.196	3.461	0.286
80.000	123.033	80.009	19.995	100.461	20.194	3.598	0.334
88.001	125.978	80.009	19.995	100.471	20.194	3.549	0.381
96.001	129.101	80.009	19.996	100.479	20.195	3.472	0.413
104.001	132.317	80.010	19.995	100.480	20.193	3.686	0.426
112.000	135.741	80.012	19.995	100.480	20.196	3.443	0.426
120.000	139.269	80.009	19.996	100.483	20.195	3.547	0.441
128.000	142.921	80.009	19.996	100.483	20.195	3.480	0.440
136.000	146.694	80.013	19.995	100.483	20.196	3.420	0.474
144.000	150.494	80.010	19.996	100.470	20.197	3.393	0.491
152.000	154.286	80.007	19.996	100.464	20.195	3.510	0.472
160.000	158.192	80.009	19.997	100.453	20.201	3.067	0.527
168.000	162.111	80.010	19.995	100.451	20.201	3.082	0.488
176.000	166.126	80.009	19.995	100.444	20.200	3.166	0.515
184.000	170.067	80.009	19.996	100.446	20.200	3.123	0.483
192.001	173.940	80.010	19.996	100.441	20.198	3.307	0.485
200.000	177.935	80.012	19.996	100.442	20.199	3.205	0.496
208.000	181.865	80.011	19.996	100.435	20.199	3.214	0.533
216.000	185.789	80.011	19.996	100.435	20.195	3.514	0.496
224.000	189.720	80.012	19.995	100.420	20.196	3.445	0.505
232.000	193.622	80.009	19.995	100.414	20.197	3.360	0.469
240.000	197.550	80.008	19.997	100.410	20.199	3.203	0.476
248.000	201.520	80.008	19.996	100.406	20.194	3.557	0.514
256.000	205.433	80.008	19.996	100.406	20.190	3.890	0.528
264.000	209.372	80.008	19.995	100.411	20.192	3.768	0.493
272.000	213.366	80.009	19.996	100.407	20.186	4.188	0.502
280.000	217.356	80.011	19.995	100.402	20.185	4.241	0.478
288.000	221.332	80.010	19.995	100.404	20.184	4.341	0.508
296.000	225.350	80.011	19.994	100.400	20.182	4.502	0.525
304.000	229.326	80.012	19.995	100.402	20.179	4.728	0.500
312.000	233.356	80.010	19.995	100.401	20.176	4.956	0.529
320.000	237.287	80.007	19.996	100.388	20.175	4.991	0.511
328.000	241.318	80.010	19.995	100.402	20.176	4.968	0.504
336.000	245.264	80.008	19.995	100.393	20.172	5.227	0.466
344.000	249.302	80.007	19.997	100.395	20.168	5.537	0.509
352.000	253.282	80.008	19.996	100.393	20.166	5.671	0.481
360.000	257.285	80.011	19.996	100.392	20.166	5.705	0.478
368.000	261.176	80.010	19.995	100.393	20.157	6.413	0.470
376.000	265.155	80.009	19.996	100.376	20.156	6.426	0.497
384.000	269.122	80.011	19.995	100.392	20.150	6.919	0.488
392.000	273.092	80.009	19.994	100.383	20.148	7.033	0.436
400.000	277.114	80.009	19.994	100.393	20.145	7.270	0.492
408.000	281.232	80.009	19.996	100.381	20.140	7.648	0.523
416.000	285.298	80.009	19.996	100.362	20.140	7.668	0.504
424.000	289.352	80.009	19.996	100.365	20.134	8.122	0.495
432.000	293.412	80.009	19.996	100.370	20.129	8.498	0.512
440.000	297.454	80.010	19.996	100.365	20.127	8.629	0.524
448.000	301.404	80.009	19.996	100.370	20.125	8.834	0.525
456.000	305.382	80.009	19.996	100.364	20.122	9.016	0.496
464.000	309.377	80.010	19.995	100.365	20.115	9.535	0.489
472.000	313.482	80.012	19.995	100.361	20.115	9.605	0.513
480.000	317.451	80.009	19.996	100.360	20.111	9.905	0.510
488.000	321.468	80.007	19.996	100.362	20.110	9.959	0.535
496.000	325.463	80.011	19.996	100.362	20.109	10.060	0.513
504.000	329.473	80.009	19.995	100.362	20.101	10.605	0.492
512.000	333.449	80.008	19.996	100.364	20.104	10.423	0.482
520.000	337.445	80.010	19.996	100.362	20.100	10.743	0.521
528.000	341.520	80.010	19.995	100.364	20.097	10.900	0.491
536.000	345.490	80.009	19.997	100.362	20.093	11.223	0.517
544.000	349.520	80.010	19.996	100.357	20.091	11.390	0.506
552.001	353.614	80.013	19.995	100.356	20.086	11.749	0.550
560.000	357.557	80.009	19.995	100.352	20.083	11.960	0.494
568.000	361.590	80.008	19.995	100.357	20.080	12.229	0.479
576.000	365.579	80.009	19.996	100.360	20.075	12.627	0.485
584.000	369.615	80.008	19.995	100.347	20.073	12.745	0.499
592.000	373.722	80.009	19.995	100.355	20.067	13.188	0.527
600.000	377.655	80.010	19.995	100.352	20.065	13.368	0.487
608.000	381.648	80.011	19.996	100.350	20.060	13.710	0.477
616.000	385.679	80.010	19.996	100.342	20.053	14.299	0.488
624.000	389.628	80.011	19.995	100.341	20.046	14.829	0.503
632.000	393.658	80.012	19.996	100.343	20.042	15.133	0.538
640.000	397.680	80.010	19.996	100.344	20.035	15.602	0.524
648.000	401.769	80.008	19.996	100.348	20.029	16.107	0.513
656.000	405.870	80.009	19.995	100.353	20.018	16.924	0.539
664.000	409.958	80.009	19.997	100.346	20.007	17.739	0.515
672.000	413.980	80.008	19.995	100.338	19.994	18.730	0.485
680.000	418.048	80.009	19.995	100.347	19.985	19.392	0.530
688.000	422.075	80.010	19.995	100.330	19.974	20.255	0.535
696.000	426.148	80.011	19.996	100.329	19.965	20.969	0.531
704.000	430.179	80.011	19.995	100.328	19.949	22.133	0.473
712.000	434.307	80.012	19.995	100.327	19.944	22.554	0.528
720.000	438.373	80.010	19.995	100.326	19.936	23.115	0.530
728.000	442.480	80.007	19.996	100.329	19.931	23.548	0.487
736.000	446.511	80.009	19.995	100.324	19.925	23.954	0.511
744.000	450.609	80.011	19.997	100.323	19.923	24.101	0.501
752.000	454.631	80.009	19.995	100.324	19.930	23.593	0.493
760.000	458.707	80.009	19.995	100.322	19.941	22.723	0.508
768.000	462.779	80.010	19.995	100.324	19.966	20.894	0.490
776.000	466.844	80.011	19.995	100.325	19.990	19.037	0.484
784.000	470.923	80.010	19.996	100.330	20.020	16.749	0.489
792.000	475.070	80.011	19.994	100.328	20.059	13.830	0.525
800.000	479.151	80.012	19.998	100.325	20.095	11.067	0.510
808.000	483.256	80.010	19.992	100.326	20.122	9.013	0.503
816.001	487.348	80.008	19.994	100.324	20.147	7.134	0.508
824.000	491.425	80.009	19.996	100.335	20.164	5.886	0.518
832.000	495.505	80.009	19.997	100.343	20.177	4.876	0.501
840.000	499.539	80.008	19.996	100.351	20.184	4.322	0.506
848.000	503.545	80.009	19.995	100.342	20.190	3.906	0.493
856.000	507.552	80.010	19.995	100.341	20.200	3.099	0.504
864.000	511.524	80.009	19.995	100.332	20.203	2.936	0.507
872.000	515.601	80.012	19.996	100.331	20.206	2.702	0.507
880.000	519.616	80.012	19.994	100.352	20.211	2.278	0.488
888.000	523.673	80.009	19.995	100.333	20.212	2.180	0.513
896.000	527.644	80.008	19.995	100.342	20.215	1.967	0.462
904.000	531.659	80.009	19.996	100.340	20.214	2.085	0.515
912.000	535.709	80.009	19.995	100.352	20.214	2.057	0.530
920.000	539.630	80.006	19.996	100.349	20.216	1.930	0.491
928.000	543.532	80.008	19.996	100.352	20.218	1.775	0.492
936.000	547.415	80.009	19.996	100.353	20.217	1.835	0.503
944.000	551.399	80.009	19.994	100.357	20.215	1.990	0.490
952.000	555.504	80.008	19.995	100.345	20.217	1.837	0.484
960.000	559.613	80.011	19.995	100.340	20.218	1.783	0.500
968.000	563.781	80.009	19.997	100.355	20.215	1.959	0.525
976.000	567.931	80.010	19.997	100.353	20.218	1.750	0.568
984.000	572.136	80.009	19.993	100.354	20.215	2.011	0.490
992.000	576.479	80.009	19.995	100.349	20.216	1.891	0.531
1000.000	580.752	80.008	19.996	100.350	20.219	1.649	0.564
1008.000	585.150	80.008	19.994	100.355	20.217	1.815	0.552
1016.000	589.515	80.010	19.996	100.359	20.216	1.920	0.547
1024.000	593.841	80.009	19.997	100.354	20.218	1.780	0.537
1032.000	598.192	80.010	19.995	100.355	20.220	1.583	0.554
1040.000	602.393	80.012	19.993	100.352	20.223	1.347	0.509
1048.000	606.399	80.012	19.996	100.351	20.223	1.351	0.481
1056.001	610.314	80.009	19.996	100.352	20.224	1.270	0.485
1064.001	614.220	80.008	19.995	100.362	20.223	1.409	0.510
1072.001	618.139	80.009	19.994	100.359	20.223	1.351	0.466
1080.001	622.051	80.008	19.995	100.363	20.220	1.589	0.493
1088.000	625.953	80.008	19.997	100.361	20.223	1.370	0.443
1096.000	629.987	80.009	19.997	100.362	20.221	1.529	0.523
1104.000	634.034	80.010	19.995	100.367	20.218	1.788	0.478
1112.000	638.157	80.009	19.996	100.376	20.216	1.941	0.510
1120.000	642.250	80.009	19.994	100.374	20.217	1.828	0.504
1128.000	646.367	80.011	19.995	100.390	20.219	1.689	0.549
1136.000	650.477	80.010	19.997	100.396	20.216	1.927	0.530
1144.000	654.542	80.008	19.996	100.394	20.215	2.020	0.490
1152.000	658.559	80.009	19.996	100.401	20.216	1.946	0.475
1160.000	662.565	80.009	19.997	100.402	20.212	2.209	0.466
1168.000	666.579	80.009	19.997	100.405	20.210	2.367	0.500
1176.001	670.531	80.010	19.997	100.431	20.210	2.338	0.495
1184.001	674.567	80.011	19.998	100.431	20.211	2.332	0.508
1192.000	678.569	80.010	19.995	100.437	20.209	2.477	0.516
1200.000	682.516	80.010	19.996	100.441	20.204	2.787	0.484
1208.001	686.558	80.012	19.996	100.442	20.201	3.026	0.497
1216.001	690.633	80.010	19.999	100.449	20.203	2.921	0.514
1224.000	694.684	80.008	19.995	100.473	20.202	2.958	0.520
1232.001	698.832	80.009	19.996	100.481	20.206	2.708	0.502
1240.000	702.921	80.007	19.991	100.488	20.195	3.500	0.428
1248.000	706.642	80.008	19.995	100.502	20.195	3.517	0.554
1256.000	710.963	80.009	19.994	100.516	20.190	3.859	0.393
1264.000	714.912	80.012	19.996	100.519	20.191	3.797	0.469
1272.000	718.809	80.009	19.995	100.520	20.188	4.020	0.466
1280.000	722.587	80.011	19.996	100.520	20.188	4.021	0.479
1288.001	726.430	80.011	19.994	100.516	20.188	4.016	0.471
1296.000	730.467	80.010	19.997	100.513	20.193	3.632	0.558
1304.001	734.481	80.010	19.995	100.500	20.194	3.616	0.500
1312.000	738.546	80.009	19.996	100.480	20.193	3.651	0.518
1320.001	742.635	80.009	19.995	100.445	20.197	3.336	0.505
1322.000	743.657	80.010	19.995	100.443	20.197	3.373	0.493