Folder: fsri_materials_database/01_Data/Memory_Foam_Carpet_Pad/Cone

Note: 01_Data/README.md
# Materials and Products Database
## 01_Data

Raw data generated from each apparatus are included here in plain-text format. The data is organized first by material, next by the short name of test apparatus used, and where applicable additional filtering by test settings.

### material.json

Each material directory contains a json file of the same name as the material. This file links the data stored in the repository as well as data and graphs produced by the accompanying scripts (__02_Scripts__) to the respective landing page for the material on the front-end website.

File: Memory_Foam_Carpet_Pad_Cone_HF25Scalar_220921_R1.csv
LABORATORY,FSRI
TEST IDENT,MFCP_HF25_1
OPERATOR,Dow
MATERIAL,Memory foam carpet pad
ORIENTATION,Horizontal
HEAT FLUX,25
SURF AREA,0.01
C FACTOR,0.0390239
SPEC HOLDER DIFF,-566
SPECIMEN MASS,16.74
SCAN TIME,0.25
O2 DELAY TIME,11
CO DELAY TIME,11
CO2 DELAY TIME,8
FLOW FACTOR,1
SCAN COUNT,992
TIME TO IGN,10.75
END OF TEST SCAN,512
END OF TEST TIME,128
TEST STATUS,1
PRE TEST CMT,Dimensions: 100.20 x 101.87 x 12.58 mm
POST TEST CMT,"Corners of foil pan lifted upwards during fire decay stage, beginning less than 10 seconds before flames extinguished. "

File: Memory_Foam_Carpet_Pad_Cone_HF25Scalar_220921_R2.csv
LABORATORY,FSRI
TEST IDENT,MFCP_HF25_2
OPERATOR,Dow
MATERIAL,Memory foam carpet pad
ORIENTATION,Horizontal
HEAT FLUX,25
SURF AREA,0.01
C FACTOR,0.0390239
SPEC HOLDER DIFF,-566
SPECIMEN MASS,16.93
SCAN TIME,0.25
O2 DELAY TIME,11
CO DELAY TIME,11
CO2 DELAY TIME,8
FLOW FACTOR,1
SCAN COUNT,978
TIME TO IGN,8
END OF TEST SCAN,498
END OF TEST TIME,124.5
TEST STATUS,1
PRE TEST CMT,Dimensions: 100.42 x 103.53 x 12.83 mm
POST TEST CMT,"Corners of foil pan lifted upwards during fire decay stage, beginning less than 10 seconds before flames extinguished. "

File: Memory_Foam_Carpet_Pad_Cone_HF25Scalar_220921_R3.csv
LABORATORY,FSRI
TEST IDENT,MFCP_HF25_3
OPERATOR,Dow
MATERIAL,Memory foam carpet pad
ORIENTATION,Horizontal
HEAT FLUX,25
SURF AREA,0.01
C FACTOR,0.0390239
SPEC HOLDER DIFF,-566
SPECIMEN MASS,16.42
SCAN TIME,0.25
O2 DELAY TIME,11
CO DELAY TIME,11
CO2 DELAY TIME,8
FLOW FACTOR,1
SCAN COUNT,979
TIME TO IGN,9.75
END OF TEST SCAN,499
END OF TEST TIME,124.75
TEST STATUS,1
PRE TEST CMT,Dimensions: 102.12 x 103.02 x 12.87 mm
POST TEST CMT,"Corners of foil pan lifted upwards during fire decay stage, beginning less than 10 seconds before flames extinguished. "

File: Memory_Foam_Carpet_Pad_Cone_HF25Scan_220921_R1.csv
Names,Time,Stack TC,Smoke TC,Exh Press,Smoke Comp,Smoke Meas,CO Meter,CO2 Meter,O2 Meter,Sample Mass,Ext Coeff,Start Test,Flame Verif
Chan Gain,,500,500,1,1,1,1,1,1,1,1,1.0,1.0
Offset,,0,0,0.141977,0,0,0,0,0,0,0,0.0,0.0
Gain,,1,1,25.011,13.065,14.7021,1,1,1,1.00081,1.02518,1.0,1.0
Units,sec,C,C,Pa,%,%,%,%,%,g,/m,,
Baseline,,33.8404,34.6329,168.589,97.3868,98.0601,0.000319916,0.0448741,20.9477,-441.824,-0.0619253,,
11,2.5,31.82,32.9499,170.096,97.3238,97.6944,0.000348251,0.0456287,20.9515,69.8366,-0.0341816,0.0,0.0
22,5.25,31.7998,32.8476,166.093,97.3178,95.8522,0.000321324,0.0456295,20.9515,69.8466,0.136465,0.0,0.0
33,8,32.3363,32.6815,172.652,97.3242,94.0225,0.000590334,0.0466515,20.9516,69.7865,0.310374,0.0,0.0
44,10.75,32.1288,33.0291,160.617,97.3294,94.4048,0.00213078,0.0853918,20.8796,69.6064,0.274365,0.0,1.0
55,13.5,33.3998,33.6976,153.839,97.3178,88.4778,0.00418998,0.181688,20.7507,69.4162,0.85639,0.0,1.0
66,16.25,33.6798,33.4506,154.472,97.3094,88.8825,0.00642025,0.258258,20.6377,69.2161,0.814576,0.0,1.0
77,19,35.2053,34.4915,157.009,97.3178,87.4458,0.00798805,0.30765,20.5756,68.9959,0.961894,0.0,0.0
88,21.75,36.8347,35.5948,152.234,97.323,85.0136,0.00912254,0.33383,20.5405,68.7657,1.21605,0.0,0.0
99,24.5,38.4041,36.8136,150.032,97.3166,84.8687,0.0100085,0.349232,20.5169,68.5255,1.2308,0.0,0.0
110,27.25,40.0575,38.7274,148.503,97.3162,86.758,0.0106748,0.36574,20.4922,68.2653,1.03276,0.0,0.0
121,30,41.2258,40.2761,151.292,97.307,84.0947,0.0112343,0.38663,20.4635,67.9651,1.3123,0.0,0.0
132,32.75,43.0911,41.2559,149.812,97.3258,80.8728,0.0119031,0.410571,20.4293,67.6648,1.66535,0.0,0.0
143,35.5,45.0027,43.3874,139.808,97.3318,82.7895,0.0125544,0.4357,20.3886,67.3546,1.45525,0.0,0.0
154,38.25,46.0687,45.5151,143.45,97.3218,83.0865,0.0128163,0.464565,20.3428,67.0243,1.42213,0.0,0.0
165,41,48.5776,47.0546,139.269,97.311,85.6283,0.0132006,0.492543,20.3066,66.664,1.15015,0.0,0.0
176,43.75,50.9201,49.0564,144.884,97.2987,82.2489,0.0136868,0.522979,20.2595,66.3337,1.51112,0.0,0.0
187,46.5,52.4145,51.2522,143.014,97.307,83.843,0.0141114,0.53837,20.2374,65.9534,1.33926,0.0,0.0
198,49.25,54.4693,53.3448,139.381,97.311,85.5677,0.0145299,0.56053,20.2042,65.5931,1.15652,0.0,0.0
209,52,56.7167,55.1988,135.524,97.3055,81.308,0.0147493,0.603642,20.1306,65.1728,1.61521,0.0,0.0
220,54.75,59.1828,57.8013,133.622,97.3074,82.7949,0.0150903,0.651398,20.0645,64.7124,1.45242,0.0,0.0
231,57.5,61.3122,60.1864,130.413,97.3166,85.1706,0.0154861,0.700624,19.9777,64.3221,1.19886,0.0,0.0
242,60.25,64.367,63.0972,130.532,97.3262,82.6769,0.0155133,0.757054,19.8927,63.8617,1.46698,0.0,0.0
253,63,67.094,65.7644,127.184,97.3234,84.1028,0.0152811,0.817959,19.8008,63.3613,1.31295,0.0,0.0
264,65.75,71.078,69.9353,120.245,97.3246,85.3263,0.014844,0.888568,19.684,62.8509,1.18318,0.0,0.0
275,68.5,74.9839,74.0357,119.549,97.3258,84.9391,0.0145065,0.946865,19.6019,62.3705,1.22419,0.0,0.0
286,71.25,78.7413,78.1717,129.18,97.3549,86.1339,0.0144222,0.995485,19.5313,61.8101,1.10126,0.0,0.0
297,74,81.9177,81.8766,114.686,97.3732,86.7473,0.014607,1.04038,19.4584,61.2596,1.03914,0.0,0.0
308,76.75,86.2106,85.6929,117.841,97.4091,85.591,0.0148107,1.07531,19.4143,60.7192,1.16313,0.0,0.0
319,79.5,89.9618,90.2434,117.389,97.4286,86.4951,0.0147495,1.10218,19.3716,60.1087,1.07044,0.0,0.0
330,82.25,93.3627,93.7881,117.19,97.453,85.4255,0.0144648,1.12883,19.3321,59.5983,1.18459,0.0,0.0
341,85,97.0529,97.8602,129.983,97.4897,87.4207,0.0141285,1.15012,19.2967,59.0278,0.980344,0.0,0.0
352,87.75,99.8924,101.464,109.742,97.5566,85.395,0.0139772,1.15769,19.2852,58.4574,1.19736,0.0,0.0
363,90.5,102.625,104.981,116.052,97.5989,85.902,0.0137599,1.14961,19.2951,57.8969,1.14802,0.0,0.0
374,93.25,105.12,108.112,116.277,97.6483,87.9071,0.01315,1.12228,19.3369,57.4165,0.945077,0.0,0.0
385,96,107.205,110.936,118.255,97.7153,87.0111,0.0124885,1.07846,19.396,56.9161,1.04337,0.0,0.0
396,98.75,108.69,113.255,122.992,97.801,87.5831,0.0121537,1.03521,19.4629,56.4657,0.992329,0.0,0.0
407,101.5,109.084,114.115,122.401,97.8636,87.2753,0.0117553,0.967252,19.5534,56.0154,1.02974,0.0,0.0
418,104.25,109.202,115.088,123.918,97.9227,85.1307,0.0111866,0.886367,19.6676,55.6151,1.25891,0.0,0.0
429,107,108.567,116.041,138.909,97.9833,87.2412,0.0110393,0.781333,19.8439,55.3048,1.04424,0.0,0.0
440,109.75,107.394,115.282,140.59,98.053,82.3449,0.0110603,0.672865,19.998,55.0546,1.57008,0.0,0.0
451,112.5,104.867,113.404,146.631,98.1308,80.491,0.0108456,0.563921,20.1596,54.7443,1.78198,0.0,0.0
462,115.25,102.003,111.998,147.753,98.1842,82.9699,0.0102875,0.473831,20.2907,54.5742,1.5141,0.0,0.0
473,118,98.213,108.91,156.803,98.2396,86.8298,0.00880637,0.389158,20.4156,54.4941,1.11025,0.0,0.0
484,120.75,94.7944,106.196,153.342,98.3038,89.1382,0.0070956,0.315738,20.5412,54.3841,0.880169,0.0,0.0
495,123.5,91.702,103.598,161.71,98.3736,95.6027,0.00629479,0.244803,20.6343,54.364,0.256938,0.0,0.0
506,126.25,88.1796,100.531,159.026,98.433,100.39,0.00708049,0.191637,20.7329,54.344,-0.177081,0.0,0.0
517,129,84.4216,97.1675,160.789,98.4737,100.522,0.00854369,0.131836,20.8211,54.334,-0.185174,0.0,0.0
528,131.75,79.2747,92.7254,165.29,98.5199,100.858,0.00987415,0.100569,20.8649,54.334,-0.210965,0.0,0.0
539,134.5,75.7767,89.7141,165.404,98.5586,100.583,0.0103789,0.0875853,20.8848,54.314,-0.182839,0.0,0.0
550,137.25,73.1379,86.2726,162.436,98.6013,99.7713,0.0102717,0.0819207,20.8951,54.274,-0.106086,0.0,0.0
561,140,70.724,83.8319,163.657,98.6272,100.456,0.00975466,0.0790197,20.9016,54.2539,-0.165224,0.0,0.0
572,142.75,68.212,81.064,168.301,98.6507,100.146,0.0089843,0.0767536,20.9056,54.2339,-0.135242,0.0,0.0
583,145.5,65.9491,78.8437,166.54,98.6587,100.532,0.00825518,0.0743088,20.9101,54.2339,-0.169178,0.0,0.0
594,148.25,64.099,76.6247,164.705,98.6838,100.432,0.00750856,0.0722416,20.9157,54.2239,-0.157894,0.0,0.0
605,151,62.1243,74.5117,167.143,98.6874,100.255,0.00681777,0.0698181,20.9215,54.2539,-0.141725,0.0,0.0
616,153.75,60.4914,72.5019,163.079,98.6846,100.124,0.00607427,0.0677267,20.9247,54.264,-0.13022,0.0,0.0
627,156.5,58.5151,70.2522,166.324,98.6814,100.019,0.00517255,0.0650344,20.9285,54.1839,-0.121075,0.0,0.0
638,159.25,56.6737,68.1702,161.323,98.6842,100.159,0.00427321,0.0624149,20.9323,54.2239,-0.133438,0.0,0.0
649,162,55.8134,66.7142,165.377,98.6834,100.419,0.00364894,0.0601072,20.9371,54.2039,-0.156766,0.0,0.0
660,164.75,54.8903,64.7852,163.825,98.6902,100.798,0.00314656,0.0577351,20.9419,54.2339,-0.190036,0.0,0.0
671,167.5,52.9018,63.6186,163.025,98.6834,101.06,0.00250312,0.0559487,20.9444,54.2139,-0.214,0.0,0.0
682,170.25,51.9902,61.8143,164.777,98.6694,100.779,0.00186948,0.0541713,20.9455,54.2039,-0.190204,0.0,0.0
693,173,50.6715,60.6167,161.127,98.6714,100.308,0.00147079,0.0527525,20.9478,54.2139,-0.147966,0.0,0.0
704,175.75,50.3322,59.5267,168.155,98.6846,100.395,0.00121141,0.0514917,20.95,54.2439,-0.154527,0.0,0.0
715,178.5,49.1561,58.2632,166.723,98.6726,100.878,0.00103081,0.0505666,20.9509,54.2239,-0.198796,0.0,0.0
726,181.25,48.5093,56.9449,167.027,98.6643,101.317,0.00103103,0.0497515,20.9511,54.1939,-0.238593,0.0,0.0
737,184,47.425,56.2791,166.47,98.6487,99.9203,0.000932916,0.0490111,20.9518,54.2039,-0.115176,0.0,0.0
748,186.75,47.122,54.6299,170.11,98.6515,100.526,0.000804648,0.0485419,20.953,54.2339,-0.169271,0.0,0.0
759,189.5,45.9606,53.9879,166.328,98.6348,100.089,0.000715251,0.0480316,20.9534,54.2039,-0.131618,0.0,0.0
770,192.25,45.9013,52.6085,166.66,98.6288,100.362,0.000686872,0.0477313,20.9526,54.1739,-0.15668,0.0,0.0
781,195,44.9424,52.2097,164.222,98.6268,99.8588,0.000699574,0.047577,20.9521,54.2039,-0.111641,0.0,0.0
792,197.75,44.0619,51.1351,162.815,98.5957,100.088,0.000480684,0.0476079,20.9515,54.2139,-0.135101,0.0,0.0
803,200.5,43.5977,50.2877,161.919,98.5961,100.642,0.000387355,0.0472674,20.9512,54.1839,-0.184713,0.0,0.0
814,203.25,43.0619,49.6551,171.902,98.5833,100.443,0.000535424,0.0470072,20.9526,54.2339,-0.168059,0.0,0.0
825,206,42.9837,48.5901,165.472,98.5706,99.9921,0.00065749,0.0469758,20.9532,54.2039,-0.128762,0.0,0.0
836,208.75,42.288,48.0654,163.351,98.5522,100.281,0.000493464,0.0468589,20.9538,54.2139,-0.156383,0.0,0.0
847,211.5,41.7046,47.0635,163.112,98.5415,100.955,0.000339939,0.0467812,20.9541,54.2139,-0.217598,0.0,0.0
858,214.25,41.3151,46.9559,164.412,98.5375,100.366,0.000374876,0.0467124,20.9542,54.0838,-0.165371,0.0,0.0
869,217,41.2888,46.2007,163.156,98.5187,100.006,0.00059029,0.0466869,20.9542,54.1839,-0.134783,0.0,0.0
880,219.75,41.2081,45.7069,163.696,98.4996,100.156,0.000681054,0.0468219,20.9543,54.2039,-0.149995,0.0,0.0
891,222.5,40.5424,45.2371,167.381,98.4737,100.33,0.00059602,0.0468346,20.9543,54.1939,-0.167978,0.0,0.0
902,225.25,40.5875,44.6197,160.917,98.4613,100.544,0.000464595,0.046689,20.9543,54.1939,-0.188229,0.0,0.0
913,228,40.2491,44.5041,163.434,98.4549,100.332,0.000376561,0.0464864,20.9543,54.2039,-0.169851,0.0,0.0
924,230.75,39.7579,43.8199,164.5,98.4402,100.301,0.000171445,0.0465608,20.9543,54.2139,-0.168383,0.0,0.0
935,233.5,39.808,43.4931,165.879,98.4171,99.6565,1.60238e-06,0.0465525,20.9543,54.2039,-0.112543,0.0,0.0
946,236.25,38.8449,42.4459,165.867,98.3987,99.8485,0.000145966,0.0465155,20.9547,54.1839,-0.131531,0.0,0.0
957,239,39.0931,42.119,162.114,98.4083,100.062,,0.0463964,,54.2139,-0.149831,0.0,0.0
968,241.75,38.9213,42.0051,167.504,98.3844,99.9625,,,,54.1939,-0.143101,0.0,0.0
979,244.5,39.1354,41.6201,160.503,98.3676,99.5277,,,,54.1839,-0.105434,0.0,0.0
990,247.25,38.7322,41.6496,167.357,98.3493,100.262,,,,54.1539,-0.173191,0.0,0.0
992,247.75,38.776,40.9485,164.776,98.3688,100.057,,,,54.1639,-0.152994,0.0,0.0

File: Memory_Foam_Carpet_Pad_Cone_HF25Scan_220921_R2.csv
Names,Time,Stack TC,Smoke TC,Exh Press,Smoke Comp,Smoke Meas,CO Meter,CO2 Meter,O2 Meter,Sample Mass,Ext Coeff,Start Test,Flame Verif
Chan Gain,,500,500,1,1,1,1,1,1,1,1,1.0,1.0
Offset,,0,0,0.141977,0,0,0,0,0,0,0,0.0,0.0
Gain,,1,1,25.011,13.065,14.7021,1,1,1,1.00081,1.02518,1.0,1.0
Units,sec,C,C,Pa,%,%,%,%,%,g,/m,,
Baseline,,36.46,36.8307,167.375,99.1404,100.33,0.000215561,0.0456815,20.9531,-441.959,-0.107236,,
10,2.25,34.4299,35.0539,166.343,99.3481,100.04,0.000226245,0.0483537,20.9543,67.905,-0.0623839,0.0,0.0
20,4.75,34.0976,34.4986,168.187,99.3572,98.8776,0.00021005,0.0473807,20.9546,67.875,0.0435186,0.0,0.0
30,7.25,34.1405,34.9014,163.295,99.36,99.9508,0.000901081,0.0648881,20.9225,67.8249,-0.053311,0.0,0.0
40,9.75,35.0476,35.8944,158.331,99.3931,94.3262,0.00247558,0.131254,20.8429,67.5847,0.470536,0.0,1.0
50,12.25,36.2879,36.0741,153.192,99.3684,91.9442,0.00449965,0.21298,20.7326,67.4446,0.69831,0.0,1.0
60,14.75,35.9897,35.4943,151.629,99.3788,90.154,0.00631673,0.277174,20.629,67.2545,0.876069,0.0,0.0
70,17.25,37.4714,37.0448,154.874,99.3839,91.4287,0.00770342,0.31687,20.572,67.0343,0.750281,0.0,0.0
80,19.75,39.6284,37.8636,159.291,99.3684,87.8698,0.0088051,0.340034,20.5366,66.8542,1.10592,0.0,0.0
90,22.25,41.2451,38.7957,147.158,99.366,86.8316,0.00962735,0.358094,20.5081,66.5739,1.21259,0.0,0.0
100,24.75,42.631,40.2949,152.276,99.3748,86.4202,0.0104077,0.374798,20.4828,66.3538,1.25609,0.0,0.0
110,27.25,43.8592,42.3469,144.586,99.3748,83.834,0.0111458,0.386195,20.4665,66.1136,1.52931,0.0,0.0
120,29.75,45.8718,43.7624,143.677,99.3871,80.6965,0.011898,0.400048,20.4434,65.8433,1.87346,0.0,0.0
130,32.25,46.5233,45.0283,145.797,99.3803,81.2905,0.0130737,0.423521,20.4062,65.5631,1.80688,0.0,0.0
140,34.75,48.0508,46.5714,145.438,99.3716,82.1416,0.0142392,0.453048,20.3675,65.2228,1.71242,0.0,0.0
150,37.25,49.6692,48.0588,146.559,99.3796,85.2635,0.0148455,0.480752,20.3259,64.8926,1.3777,0.0,0.0
160,39.75,51.307,49.6257,136.176,99.3756,81.6292,0.0148347,0.501841,20.2964,64.5723,1.76906,0.0,0.0
170,42.25,52.8287,51.308,142.973,99.3776,82.8649,0.0147352,0.528324,20.25,64.2621,1.63413,0.0,0.0
180,44.75,54.8871,53.144,138.777,99.3811,86.6714,0.0148533,0.549268,20.2167,63.9118,1.23056,0.0,0.0
190,47.25,56.2217,55.0955,141.041,99.3911,84.2239,0.0154742,0.570606,20.1834,63.6416,1.48906,0.0,0.0
200,49.75,58.0741,56.7994,131.15,99.3855,82.4768,0.0163429,0.604755,20.1238,63.2312,1.67707,0.0,0.0
210,52.25,60.0638,58.9558,134.922,99.378,84.9279,0.0167548,0.652079,20.057,62.8209,1.41302,0.0,0.0
220,54.75,62.8591,61.167,132.015,99.3879,86.7203,0.0164483,0.694383,19.9817,62.4406,1.2261,0.0,0.0
230,57.25,65.2445,63.07,128.893,99.3927,85.8795,0.0159789,0.748429,19.914,62.0403,1.31415,0.0,0.0
240,59.75,68.7078,66.8065,121.52,99.3636,86.6997,0.0153916,0.802316,19.8425,61.5999,1.22604,0.0,0.0
250,62.25,71.3725,69.8908,115.337,99.3632,85.6754,0.015021,0.855949,19.7489,61.1896,1.33288,0.0,0.0
260,64.75,74.7099,73.2481,129.248,99.3485,85.2599,0.0151955,0.906635,19.663,60.6892,1.37526,0.0,0.0
270,67.25,77.8661,76.3266,124.111,99.3309,86.1456,0.0154233,0.960591,19.5814,60.2388,1.28074,0.0,0.0
280,69.75,81.2334,80.1239,116.125,99.3162,85.4066,0.015139,1.00178,19.5253,59.7184,1.35688,0.0,0.0
290,72.25,84.4618,84.1377,115.236,99.2918,86.7217,0.0149794,1.03644,19.4695,59.218,1.21726,0.0,0.0
300,74.75,88.5799,87.659,124.059,99.2635,87.882,0.0151927,1.07351,19.4045,58.7576,1.09518,0.0,0.0
310,77.25,91.7715,91.201,118.709,99.2412,86.4691,0.0151974,1.11222,19.3447,58.2472,1.23891,0.0,0.0
320,79.75,94.9942,94.8798,115.512,99.2225,85.2523,0.0153527,1.14519,19.3066,57.7067,1.36466,0.0,0.0
330,82.25,98.3276,99,118.814,99.181,86.3758,0.0154254,1.1716,19.267,57.1363,1.24316,0.0,0.0
340,84.75,100.946,102.813,115.712,99.1479,87.8532,0.0150309,1.19105,19.2355,56.6259,1.08764,0.0,0.0
350,87.25,104.201,105.961,113.906,99.0933,87.0452,0.0145304,1.19722,19.2232,56.1755,1.16578,0.0,0.0
360,89.75,107.032,109.095,119.656,99.0662,84.7211,0.0142618,1.18938,19.2319,55.6351,1.40669,0.0,0.0
370,92.25,109.241,112.055,117.901,99.0068,85.3968,0.0139355,1.1763,19.249,55.1247,1.32986,0.0,0.0
380,94.75,111.296,114.713,119.104,98.984,88.1835,0.0131399,1.1607,19.271,54.6343,1.03902,0.0,0.0
390,97.25,112.814,117.056,117.615,98.9406,89.3186,0.0123179,1.12309,19.3416,54.1539,0.920053,0.0,0.0
400,99.75,114.11,118.762,126.711,98.9091,88.0224,0.0119921,1.05727,19.4318,53.7836,1.04865,0.0,0.0
410,102.25,114.523,120.058,126.986,98.8664,87.5288,0.0119104,0.964723,19.5421,53.4133,1.09534,0.0,0.0
420,104.75,113.945,120.603,130.466,98.8146,86.6822,0.0117206,0.847048,19.7101,53.123,1.17803,0.0,0.0
430,107.25,112.977,120.462,134.361,98.7412,80.5394,0.0120419,0.743226,19.8708,52.8328,1.83234,0.0,0.0
440,109.75,110.68,119.51,143.068,98.6686,79.1292,0.0125123,0.635505,20.0322,52.5726,1.98458,0.0,0.0
450,112.25,107.822,117.72,154.672,98.5917,82.9699,0.0120103,0.532146,20.193,52.3824,1.55135,0.0,0.0
460,114.75,104.405,115.463,153.503,98.5028,83.5796,0.0100927,0.431506,20.3354,52.2723,1.47739,0.0,0.0
470,117.25,101.322,112.193,161.59,98.4234,94.5658,0.00769685,0.340833,20.492,52.1923,0.359558,0.0,0.0
480,119.75,97.4249,109.269,160.296,98.3214,99.8036,0.00667787,0.248159,20.6393,52.2123,-0.13456,0.0,0.0
490,122.25,93.6611,106.922,162.683,98.252,100.306,0.00761264,0.174296,20.7485,52.2223,-0.186074,0.0,0.0
500,124.75,90.1298,103.379,170.8,98.1368,100.042,0.00886124,0.127049,20.8193,52.2023,-0.172943,0.0,0.0
510,127.25,85.0994,98.2627,162.274,98.0415,100.351,0.00952546,0.103243,20.8606,52.1723,-0.209425,0.0,0.0
520,129.75,81.6223,94.9307,163.593,97.9258,100.292,0.00952174,0.0910402,20.8818,52.2023,-0.214688,0.0,0.0
530,132.25,78.8273,92.1991,163.496,97.831,100.007,0.00924373,0.0852841,20.8939,52.1623,-0.197863,0.0,0.0
540,134.75,76.1565,90.0401,161.422,97.7145,99.9867,0.0087685,0.081251,20.9023,52.1823,-0.206716,0.0,0.0
550,137.25,73.3407,87.4997,165.218,97.6352,99.9472,0.00800819,0.0780182,20.9082,52.1623,-0.210469,0.0,0.0
560,139.75,71.4118,84.4723,163.225,97.5527,100.148,0.00730412,0.0753545,20.9134,52.1923,-0.236102,0.0,0.0
570,142.25,68.6745,82.3407,161.832,97.4785,99.4074,0.00664407,0.07334,20.917,52.1322,-0.176217,0.0,0.0
580,144.75,67.3388,79.6331,170.009,97.4219,99.6542,0.00587678,0.0711588,20.9204,52.1422,-0.203738,0.0,0.0
590,147.25,65.1986,77.7883,164.165,97.3613,100.008,0.00517489,0.0686412,20.9251,52.1122,-0.241183,0.0,0.0
600,149.75,63.8427,76.1447,162.736,97.3409,99.8198,0.00462381,0.066352,20.9272,52.1222,-0.22614,0.0,0.0
610,152.25,62.0393,74.0834,161.419,97.3166,99.1468,0.00418749,0.0643118,20.9308,52.0722,-0.167551,0.0,0.0
620,154.75,60.5606,72.114,166.472,97.323,99.2791,0.00383951,0.0618594,20.935,52.1022,-0.178959,0.0,0.0
630,157.25,59.1214,70.8922,157.628,97.313,99.4371,0.00344801,0.0597752,20.9383,52.1122,-0.194174,0.0,0.0
640,159.75,57.7076,68.9348,165.265,97.3409,99.0777,0.00289091,0.0574506,20.9425,52.0922,-0.159034,0.0,0.0
650,162.25,56.6486,67.2717,162.725,97.3461,99.2441,0.00234559,0.0552263,20.944,52.1122,-0.173651,0.0,0.0
660,164.75,54.9557,65.7389,165.439,97.4043,99.7812,0.00186444,0.0537409,20.9465,52.0822,-0.216809,0.0,0.0
670,167.25,54.3036,64.2588,159.935,97.4255,99.8615,0.00153995,0.0523503,20.9498,52.1022,-0.222093,0.0,0.0
680,169.75,53.2018,63.0826,164.713,97.4669,98.4742,0.00125395,0.0513279,20.9511,52.0822,-0.0924607,0.0,0.0
690,172.25,52.7339,61.8774,161.909,97.5243,99.2047,0.00109948,0.0507118,20.9516,52.1122,-0.153623,0.0,0.0
700,174.75,51.8656,60.5123,160.642,97.5913,99.1338,0.000999137,0.0500143,20.9495,52.0922,-0.141021,0.0,0.0
710,177.25,50.7329,59.4924,162.161,97.6535,99.4887,0.000963134,0.0495373,20.9493,52.0722,-0.167428,0.0,0.0
720,179.75,50.2753,58.4334,162.281,97.7018,99.21,0.000829056,0.0491727,20.9492,52.0922,-0.137766,0.0,0.0
730,182.25,48.8532,57.678,161.74,97.76,100.421,0.000657099,0.048776,20.9492,52.0722,-0.241553,0.0,0.0
740,184.75,48.2398,56.5812,163.913,97.8078,99.4303,0.000547612,0.048584,20.9492,52.0922,-0.147956,0.0,0.0
750,187.25,47.738,55.4766,162.696,97.8628,99.0745,0.000583466,0.0484106,20.9498,52.0922,-0.110661,0.0,0.0
760,189.75,47.4289,54.3354,163.304,97.9071,99.6013,0.000521722,0.0482437,20.951,52.0922,-0.15428,0.0,0.0
770,192.25,46.6248,53.6824,162.582,97.9697,99.5138,0.000446385,0.0481076,20.9513,52.0722,-0.140629,0.0,0.0
780,194.75,45.5907,52.9404,158.984,98.0271,100.076,0.000462434,0.0479305,20.9526,52.0822,-0.18602,0.0,0.0
790,197.25,45.1854,52.1239,163.837,98.0853,100.098,0.000505387,0.047673,20.9543,52.0722,-0.182657,0.0,0.0
800,199.75,44.6955,51.4908,163.903,98.1188,99.9158,0.000459372,0.0475411,20.956,52.0822,-0.163207,0.0,0.0
810,202.25,44.6664,50.6296,166.854,98.1655,99.8875,0.000371672,0.0474995,20.9562,52.0622,-0.156388,0.0,0.0
820,204.75,44.3623,50.1794,164.46,98.2221,100.206,0.000370457,0.0475771,20.9551,52.1022,-0.179797,0.0,0.0
830,207.25,44.123,49.5411,168.103,98.2667,100.134,0.000400363,0.0477456,20.9554,52.0922,-0.169264,0.0,0.0
840,209.75,43.648,48.768,158.671,98.309,100.546,0.000283565,0.047583,20.9564,52.0922,-0.202311,0.0,0.0
850,212.25,42.9691,48.212,165.433,98.327,100.387,0.000201757,0.0473622,20.9572,52.0722,-0.186494,0.0,0.0
860,214.75,42.774,47.7798,167.906,98.3788,100.033,0.000302132,0.0471886,20.958,52.0922,-0.149986,0.0,0.0
870,217.25,42.3583,46.8301,164.183,98.4043,100.543,0.000447878,0.0472421,20.9575,52.0722,-0.193318,0.0,0.0
880,219.75,42.3257,46.5611,162.68,98.4502,100.216,0.000676637,0.0471903,20.9571,52.0622,-0.159866,0.0,0.0
890,222.25,41.6898,46.3219,164.362,98.4876,100.483,0.000662486,0.0469589,20.9554,52.1322,-0.180407,0.0,0.0
900,224.75,41.6565,45.4479,164.205,98.5267,100.376,0.000561809,0.0469203,20.9549,52.0522,-0.167238,0.0,0.0
910,227.25,41.35,45.2744,159.948,98.5267,100.187,0.000486491,0.0469808,20.9544,52.1022,-0.150259,0.0,0.0
920,229.75,41.0067,44.955,167.419,98.5618,100.33,0.000538868,0.0469313,20.9539,52.1222,-0.159935,0.0,0.0
930,232.25,40.9031,44.4872,162.08,98.5773,100.215,0.000580464,0.0468242,20.9538,52.0322,-0.148175,0.0,0.0
940,234.75,40.9952,44.1196,171.092,98.6076,101.45,,0.0467674,,52.0622,-0.255574,0.0,0.0
950,237.25,40.1758,43.9725,163.959,98.6228,100.01,,,,52.0622,-0.125651,0.0,0.0
960,239.75,40.4864,43.5057,165.394,98.6559,100.163,,,,52.0722,-0.136341,0.0,0.0
970,242.25,40.3128,43.0742,163.803,98.6559,100.611,,,,52.0522,-0.176493,0.0,0.0
978,244.25,40.0591,42.6963,163.426,98.6575,100.461,,,,52.0221,-0.162943,0.0,0.0