Folder: fsri_materials_database/01_Data/Memory_Foam_Carpet_Pad/Cone (part 4)

File: Memory_Foam_Carpet_Pad_Cone_HF75Scan_220921_R1.csv
Names,Time,Stack TC,Smoke TC,Exh Press,Smoke Comp,Smoke Meas,CO Meter,CO2 Meter,O2 Meter,Sample Mass,Ext Coeff,Start Test,Flame Verif
Chan Gain,,500,500,1,1,1,1,1,1,1,1,1.0,1.0
Offset,,0,0,0.141977,0,0,0,0,0,0,0,0.0,0.0
Gain,,1,1,25.011,13.065,14.7021,1,1,1,1.00081,1.02518,1.0,1.0
Units,sec,C,C,Pa,%,%,%,%,%,g,/m,,
Baseline,,57.5334,59.5865,154.607,98.5996,102.947,5.00238e-05,0.0456307,20.9463,-446.1,-0.387971,,
7,1.5,55.8232,58.2593,141.7,98.9314,89.0705,0.0034232,0.0888709,20.8904,68.2853,0.944235,0.0,1.0
14,3.25,56.8025,58.3292,130.664,98.9657,78.716,0.00689753,0.175967,20.7361,68.0351,2.0587,0.0,1.0
21,5,58.8613,59.4211,134.07,98.992,72.2888,0.011896,0.273931,20.5822,67.7048,2.82708,0.0,1.0
28,6.75,59.4897,59.9639,125.136,99.0275,67.4301,0.0172691,0.379718,20.4077,67.4146,3.45599,0.0,1.0
35,8.5,61.7137,61.5445,134.009,99.061,67.7222,0.0223863,0.472599,20.2413,67.1044,3.42017,0.0,0.0
42,10.25,64.0038,63.9401,126.166,99.0845,68.9336,0.0266997,0.575203,20.0827,66.7541,3.26286,0.0,0.0
49,12,66.9741,66.3354,121.069,99.1048,64.2418,0.0299862,0.664724,19.9379,66.3938,3.8986,0.0,0.0
56,13.75,70.3067,69.3195,122.306,99.1192,65.0634,0.0323883,0.75465,19.7914,66.0335,3.78563,0.0,0.0
63,15.5,73.2369,72.2645,114.699,99.1431,65.2496,0.0347203,0.857401,19.6143,65.5331,3.7621,0.0,0.0
70,17.25,77.1293,75.526,104.444,99.1571,65.8463,0.0372186,0.989778,19.4231,65.0127,3.6815,0.0,0.0
77,19,81.919,79.9864,94.5673,99.1635,64.1176,0.040211,1.17329,19.1723,64.4322,3.92133,0.0,0.0
84,20.75,87.6254,85.0467,101.505,99.1571,63.0089,0.0429738,1.3653,18.9242,63.8117,4.07761,0.0,0.0
91,22.5,93.3038,90.528,99.2408,99.1714,64.1831,0.0455882,1.55256,18.6494,63.2612,3.91287,0.0,0.0
98,24.25,99.963,96.9185,91.4417,99.1754,65.3931,0.047942,1.7176,18.3994,62.6608,3.74527,0.0,0.0
105,26,106.074,103.75,111.93,99.1834,66.028,0.0496419,1.86704,18.1896,62.0202,3.6591,0.0,0.0
112,27.75,112.111,109.969,83.1594,99.1686,66.8397,0.050996,2.03213,17.9723,61.3897,3.5479,0.0,0.0
119,29.5,118.328,116.518,79.1148,99.1627,66.1083,0.0524823,2.25661,17.6021,60.6091,3.64629,0.0,0.0
126,31.25,126.666,124.72,80.1765,99.1559,68.9551,0.0550523,2.53982,17.1363,59.9085,3.26653,0.0,0.0
133,33,135.951,134.278,71.7476,99.1587,71.2066,0.0587591,2.89247,16.5946,59.0478,2.97785,0.0,0.0
140,34.75,145.332,144.633,66.0124,99.1228,74.647,0.0639393,3.2919,15.9948,58.1371,2.55026,0.0,0.0
147,36.5,156.253,156.523,69.28,99.1028,73.3499,0.0696407,3.74869,15.2773,57.2864,2.70609,0.0,0.0
154,38.25,167.573,169.923,56.3196,99.0654,77.0954,0.0740434,4.2363,14.6627,56.3557,2.25483,0.0,0.0
161,40,178.404,183.467,73.0437,99.0582,77.1268,0.0765063,4.65538,14.1716,55.4149,2.25051,0.0,0.0
168,41.75,190.294,198.228,64.7744,99.0091,77.7608,0.0755799,4.96821,13.8852,54.4541,2.17244,0.0,0.0
175,43.5,200.171,212.336,76.9226,98.9454,72.1174,0.0709148,5.04304,13.8254,53.7035,2.84418,0.0,0.0
182,45.25,208.575,225.48,84.4821,98.9059,64.5384,0.0657221,4.73541,14.0997,53.1631,3.83911,0.0,0.0
189,47,211.554,232.22,105.033,98.8305,62.3296,0.0545256,4.14637,15.0765,52.7928,4.14542,0.0,0.0
196,48.75,209.325,234.056,126.961,98.752,77.9699,0.0419395,3.33094,16.3453,52.7027,2.1249,0.0,0.0
203,50.5,202.86,230.967,139.8,98.7077,101.706,0.0312412,2.3966,17.885,52.7027,-0.269133,0.0,0.0
210,52.25,195.128,225.762,142.52,98.7312,102.379,0.0226816,1.65725,18.921,52.7027,-0.326222,0.0,0.0
217,54,185.883,217.486,144.751,98.7683,104.194,0.0167967,1.14284,19.6525,52.6727,-0.480905,0.0,0.0
224,55.75,178.138,210.974,147.651,98.8273,104.354,0.0133304,0.795199,20.1277,52.6126,-0.489308,0.0,0.0
231,57.5,171.852,204.994,145.533,98.8736,104.391,0.0116023,0.571144,20.4149,52.6126,-0.48831,0.0,0.0
238,59.25,165.131,198.845,147.928,98.9306,104.414,0.0107489,0.429427,20.5781,52.6026,-0.485136,0.0,0.0
245,61,159.446,193.925,147.803,98.9988,104.558,0.0101719,0.340952,20.672,52.5926,-0.491336,0.0,0.0
252,62.75,154.821,187.886,147.789,99.0666,104.599,0.00968801,0.285876,20.7333,52.5626,-0.48873,0.0,0.0
259,64.5,149.693,183.372,146.338,99.1419,104.898,0.00925819,0.241096,20.7728,52.5225,-0.507507,0.0,0.0
266,66.25,145.132,178.744,148.248,99.1977,104.153,0.00892524,0.217698,20.798,52.4625,-0.438328,0.0,0.0
273,68,140.968,174.159,148.507,99.2902,104.084,0.00865069,0.197825,20.8121,52.4525,-0.424017,0.0,0.0
280,69.75,137.125,170.113,149.134,99.352,105.039,0.00833413,0.182683,20.8249,52.4625,-0.500577,0.0,0.0
287,71.5,133.956,166.46,148.176,99.4118,105.754,0.00796849,0.171693,20.8366,52.4125,-0.556149,0.0,0.0
294,73.25,130.558,162.348,148.371,99.4553,104.93,0.00756297,0.16216,20.846,52.4225,-0.481895,0.0,0.0
301,75,127.309,159.071,149.186,99.498,105.15,0.00711275,0.153934,20.8528,52.3824,-0.496823,0.0,0.0
308,76.75,123.982,155.151,147.687,99.5446,104.432,0.00677621,0.146931,20.8583,52.3424,-0.431039,0.0,0.0
315,78.5,120.993,152.097,148.838,99.5554,105.583,0.00642594,0.141012,20.8632,52.3824,-0.528625,0.0,0.0
322,80.25,118.127,148.745,145.62,99.5669,104.464,0.0061851,0.136583,20.8663,52.3224,-0.431727,0.0,0.0
329,82,115.707,145.666,145.111,99.5673,105.761,0.00600082,0.131473,20.8698,52.3324,-0.542666,0.0,0.0
336,83.75,113.282,143.028,148.89,99.5319,104.951,0.00579372,0.12657,20.8746,52.2723,-0.476744,0.0,0.0
343,85.5,110.928,139.808,149.103,99.5231,104.905,0.00555573,0.121553,20.8791,52.2723,-0.473615,0.0,0.0
350,87.25,108.952,137.1,146.824,99.4844,105.285,0.00526745,0.116739,20.8838,52.2824,-0.509629,0.0,0.0
357,89,106.578,134.236,150.848,99.4107,104.808,0.00496974,0.112213,20.8885,52.2924,-0.475469,0.0,0.0
364,90.75,104.613,131.683,148.513,99.3381,105.401,0.00468993,0.107863,20.8919,52.2924,-0.532785,0.0,0.0
371,92.5,102.953,129.858,148.728,99.2436,104.969,0.00419191,0.10367,20.8927,52.2623,-0.504365,0.0,0.0
378,94.25,101.165,126.968,148.766,99.1603,103.86,0.00368132,0.0998558,20.8938,52.2523,-0.416433,0.0,0.0
385,96,99.3942,125.096,148.28,99.063,104.093,0.00325641,0.0954693,20.8979,52.2323,-0.4454,0.0,0.0
392,97.75,97.5262,122.845,148.957,98.9398,104.69,0.00302026,0.0915002,20.902,52.2023,-0.507997,0.0,0.0
399,99.5,96.0521,120.677,149.099,98.8325,104.129,0.00288617,0.0875298,20.9057,52.2123,-0.469484,0.0,0.0
406,101.25,94.9467,118.667,149.636,98.7129,105.04,0.0027742,0.083912,20.9099,52.1923,-0.558691,0.0,0.0
413,103,92.7517,116.385,147.344,98.5949,103.885,0.0026984,0.080856,20.9126,52.2023,-0.470028,0.0,0.0
420,104.75,91.7247,114.665,149.196,98.4669,103.747,0.00255925,0.0782039,20.9159,52.2123,-0.469701,0.0,0.0
427,106.5,90.4641,112.516,151.679,98.3525,103.758,0.00241581,0.0756636,20.9196,52.1923,-0.481129,0.0,0.0
434,108.25,89.4998,110.965,149.108,98.2404,103.54,0.00223784,0.072922,20.9224,52.1823,-0.472499,0.0,0.0
441,110,88.2562,109.276,149.844,98.1431,103.125,0.00198165,0.0706738,20.9245,52.1823,-0.445291,0.0,0.0
448,111.75,87.2698,107.687,148.923,98.0235,103.672,0.0017092,0.0684266,20.9268,52.1823,-0.503826,0.0,0.0
455,113.5,86.0176,106.298,149.231,97.9378,103.31,0.00150823,0.0665184,20.9291,52.1723,-0.480231,0.0,0.0
462,115.25,85.1088,104.846,148.38,97.8736,103.601,0.00135656,0.0646572,20.9306,52.1623,-0.5114,0.0,0.0
469,117,83.8666,103.253,150.405,97.8194,102.99,0.00119858,0.063226,20.9315,52.1422,-0.463182,0.0,0.0
476,118.75,83.2747,101.845,150.105,97.7723,103.602,0.00104749,0.0616254,20.9331,52.1522,-0.520827,0.0,0.0
483,120.5,82.2663,100.24,152.453,97.7512,103.233,0.000972439,0.060374,20.9352,52.1522,-0.4907,0.0,0.0
490,122.25,81.1659,98.8648,148.568,97.7169,104.113,0.000891305,0.0591158,20.9364,52.1422,-0.570175,0.0,0.0
497,124,81.0198,97.2939,152.783,97.7309,103.554,0.000815085,0.0579493,20.9382,52.1422,-0.520434,0.0,0.0
504,125.75,79.6623,96.6136,147.986,97.7452,103.303,0.000799171,0.0568912,20.9393,52.1222,-0.497345,0.0,0.0
511,127.5,78.5803,95.1954,150.948,97.7612,103.013,0.000871676,0.0557659,20.9398,52.1322,-0.470572,0.0,0.0
518,129.25,78.2444,94.4962,147.754,97.7628,103.462,0.000955536,0.0548034,20.9413,52.1422,-0.509547,0.0,0.0
525,131,78.0673,92.8196,149.322,97.7815,103.201,0.000926496,0.0541355,20.9422,52.1723,-0.485099,0.0,0.0
532,132.75,77.2454,92.0488,150.212,97.8397,103.449,0.000771292,0.0535595,20.9437,52.1723,-0.501341,0.0,0.0
539,134.5,76.6592,90.895,147.859,97.884,103.399,0.000567692,0.0531514,20.944,52.1422,-0.492944,0.0,0.0
546,136.25,76.1616,89.9619,153.225,97.9454,102.802,0.000316046,0.0526982,20.9441,52.1723,-0.435216,0.0,0.0
553,138,74.9736,88.8781,147.997,98.0223,103.135,0.00013516,0.0521455,20.9435,52.1522,-0.457189,0.0,0.0
560,139.75,74.9389,88.3494,151.321,98.1164,103.251,8.07135e-05,0.05178,20.9426,52.1322,-0.458726,0.0,0.0
567,141.5,74.5636,87.1791,148.898,98.2201,103.161,8.01394e-05,0.051405,20.9422,52.1422,-0.441411,0.0,0.0
574,143.25,73.8993,86.8161,147.841,98.2807,103.793,0.000130682,0.0509753,20.9431,52.1222,-0.490766,0.0,0.0
581,145,73.5665,85.6101,152.318,98.3656,104.187,0.000167283,0.050714,20.9439,52.1322,-0.517026,0.0,0.0
588,146.75,72.9733,85.0427,154.16,98.4653,103.228,0.000148928,0.0505083,20.9445,52.1222,-0.424776,0.0,0.0
595,148.5,73.1307,83.9554,150.771,98.5458,103.957,0.000149406,0.0503171,20.9448,52.1122,-0.480676,0.0,0.0
602,150.25,72.2251,83.2889,151.234,98.6196,103.378,0.000215212,0.0500144,20.9453,52.0822,-0.423778,0.0,0.0
609,152,71.678,82.1879,151.886,98.6934,103.931,0.000288443,0.0497979,20.9464,52.1122,-0.46505,0.0,0.0
616,153.75,71.7047,81.972,150.815,98.756,104.872,0.000290933,0.0496411,20.9469,52.0822,-0.540392,0.0,0.0
623,155.5,71.152,81.2035,152.481,98.8321,104.486,0.000211024,0.0493815,20.9467,52.1422,-0.500272,0.0,0.0
630,157.25,70.7726,80.7337,151.282,98.8776,103.865,8.06744e-05,0.049158,20.9466,52.1122,-0.442573,0.0,0.0
637,159,70.2405,80.4637,150.639,98.9015,104.427,-5.7662e-05,0.0490339,20.9465,52.1122,-0.488902,0.0,0.0
644,160.75,70.1403,79.4052,149.292,98.9462,104.029,-0.000188179,0.0489491,20.9463,52.1322,-0.450466,0.0,0.0
651,162.5,69.4177,78.9968,150.987,98.9669,104.867,,0.0488568,,52.1122,-0.520782,0.0,0.0
658,164.25,69.691,78.1939,151.968,98.9804,104.728,,0.0487872,,52.0922,-0.507578,0.0,0.0
665,166,69.6779,77.7724,151.063,98.9661,104.499,,,,52.0822,-0.489172,0.0,0.0
672,167.75,68.9617,77.2176,148.987,98.9509,104.361,,,,52.0922,-0.478727,0.0,0.0
679,169.5,68.9362,76.8454,152.767,98.9374,104.307,,,,52.0822,-0.475279,0.0,0.0
686,171.25,68.329,76.0596,146.301,98.9151,104.106,,,,52.1222,-0.460001,0.0,0.0
692,172.75,68.6047,76.4989,149.54,98.8608,104.635,,,,52.0922,-0.510472,0.0,0.0

File: Memory_Foam_Carpet_Pad_Cone_HF75Scan_220922_R2.csv
Names,Time,Stack TC,Smoke TC,Exh Press,Smoke Comp,Smoke Meas,CO Meter,CO2 Meter,O2 Meter,Sample Mass,Ext Coeff,Start Test,Flame Verif
Chan Gain,,500,500,1,1,1,1,1,1,1,1,1.0,1.0
Offset,,0,0,0.141977,0,0,0,0,0,0,0,0.0,0.0
Gain,,1,1,25.011,13.065,14.7021,1,1,1,1.00081,1.02518,1.0,1.0
Units,sec,C,C,Pa,%,%,%,%,%,g,/m,,
Baseline,,63.9308,65.476,152.681,98.4153,103.79,-7.91255e-05,0.0454952,20.9485,-446.179,-0.478077,,
8,1.75,60.7865,62.114,142.58,98.3058,86.3058,0.00367154,0.0923124,20.8519,64.7625,1.17075,0.0,1.0
16,3.75,61.8679,62.7012,131.951,98.3222,74.5501,0.00861697,0.189061,20.6723,64.5023,2.48902,0.0,1.0
24,5.75,63.6339,64.1679,132.726,98.3481,69.7816,0.0142263,0.314282,20.5042,64.192,3.08582,0.0,1.0
32,7.75,65.3086,64.7104,124.917,98.382,67.4431,0.0201296,0.426624,20.3602,63.8517,3.39545,0.0,0.0
40,9.75,67.9594,66.9468,124.898,98.4131,68.9332,0.0251567,0.523343,20.1978,63.5215,3.20177,0.0,0.0
48,11.75,71.2795,69.7788,124.474,98.4482,71.2443,0.0286384,0.630428,20.0157,63.1111,2.90842,0.0,0.0
56,13.75,74.4957,72.8562,122.473,98.4809,68.6267,0.0311469,0.736846,19.8754,62.6808,3.24803,0.0,0.0
64,15.75,78.1011,76.4114,112.897,98.4972,66.7692,0.0335264,0.842541,19.6942,62.1503,3.49628,0.0,0.0
72,17.75,82.5191,79.9108,101.499,98.5195,66.1886,0.0360045,1.02863,19.3858,61.5599,3.57686,0.0,0.0
80,19.75,88.3527,85.6229,102.527,98.559,63.7712,0.0382856,1.26091,19.0476,60.9294,3.91506,0.0,0.0
88,21.75,95.1015,91.629,98.6851,98.6025,67.2924,0.0399521,1.47405,18.7547,60.3089,3.4357,0.0,0.0
96,23.75,102.278,98.7816,94.768,98.616,64.9081,0.0409641,1.6737,18.4558,59.6683,3.76135,0.0,0.0
104,25.75,109.697,105.506,98.3867,98.6451,69.5828,0.0419725,1.86304,18.1751,58.8777,3.13859,0.0,0.0
112,27.75,116.705,113.259,80.5879,98.6758,68.9062,0.0438956,2.07669,17.8624,58.0971,3.22926,0.0,0.0
120,29.75,124.392,121.483,82.6747,98.6834,67.6464,0.0458628,2.32007,17.5414,57.2664,3.3959,0.0,0.0
128,31.75,133.382,131.004,83.1388,98.7033,69.3868,0.0477712,2.63512,17.052,56.3857,3.16927,0.0,0.0
136,33.75,143.62,141.31,74.8244,98.7253,74.0314,0.0491295,3.03918,16.5045,55.4249,2.5886,0.0,0.0
144,35.75,153.99,152.991,78.0966,98.7376,77.0339,0.0502285,3.47594,15.9364,54.4541,2.2322,0.0,0.0
152,37.75,165.651,165.678,81.4115,98.7468,80.4416,0.0516061,3.92645,15.2135,53.4533,1.84377,0.0,0.0
160,39.75,176.964,179.772,67.6206,98.744,83.3477,0.0530962,4.43441,14.4798,52.3524,1.52437,0.0,0.0
168,41.75,189.683,194.397,76.4639,98.7372,80.5744,0.0538969,4.80988,14.1417,51.3816,1.82807,0.0,0.0
176,43.75,201.018,209.024,67.6626,98.7651,73.2229,0.0524653,4.84206,14.0661,50.3908,2.69098,0.0,0.0
184,45.75,208.606,221.541,85.6515,98.7799,61.2577,0.0476187,4.42229,14.7739,49.8904,4.29681,0.0,0.0
192,47.75,209.586,226.967,119.601,98.8102,68.3782,0.0392366,3.56727,16.1878,49.6903,3.31068,0.0,0.0
200,49.75,204.853,226.702,133.623,98.8245,88.0269,0.0293847,2.59581,17.5626,49.6302,1.0405,0.0,0.0
208,51.75,196.717,221.054,142.034,98.8233,102.835,0.0207914,1.75954,18.7526,49.6202,-0.357869,0.0,0.0
216,53.75,188.311,214.872,146.2,98.8301,104.011,0.0154558,1.14215,19.5676,49.5001,-0.459467,0.0,0.0
224,55.75,180.201,207.846,146.191,98.8397,104.897,0.0124505,0.758198,20.0588,49.4701,-0.534848,0.0,0.0
232,57.75,171.046,199.96,146.619,98.8501,103.979,0.0112684,0.525708,20.3962,49.39,-0.454937,0.0,0.0
240,59.75,164.621,193.743,144.67,98.8309,104.579,0.0109369,0.378883,20.6029,49.43,-0.508371,0.0,0.0
248,61.75,158.962,187.892,146.224,98.8365,105.252,0.0107224,0.290824,20.7101,49.4901,-0.565589,0.0,0.0
256,63.75,152.965,182.78,146.245,98.8385,104.713,0.0104529,0.238769,20.7694,49.4,-0.519211,0.0,0.0
264,65.75,148.117,177.308,144.589,98.8421,105.305,0.0101784,0.206242,20.8025,49.37,-0.569603,0.0,0.0
272,67.75,143.502,172.482,148.089,98.8409,105.09,0.00985359,0.184594,20.8226,49.39,-0.551302,0.0,0.0
280,69.75,138.651,167.774,149.027,98.8413,104.288,0.0093316,0.169001,20.8391,49.38,-0.482392,0.0,0.0
288,71.75,134.816,163.32,145.146,98.8289,104.986,0.00888763,0.157238,20.848,49.35,-0.543517,0.0,0.0
296,73.75,130.746,159.283,146.091,98.8214,105.193,0.00845457,0.148357,20.8543,49.33,-0.561906,0.0,0.0
304,75.75,127.368,155.564,145.827,98.8385,103.875,0.0081611,0.140699,20.8587,49.2999,-0.446982,0.0,0.0
312,77.75,124.064,151.72,147.1,98.8381,104.774,0.00786573,0.134412,20.8611,49.2899,-0.524486,0.0,0.0
320,79.75,120.066,148.386,149.66,98.8413,104.473,0.0074611,0.129127,20.8643,49.2699,-0.498357,0.0,0.0
328,81.75,117.768,144.442,147.971,98.8341,104.729,0.00697834,0.123035,20.8704,49.2099,-0.520958,0.0,0.0
336,83.75,115.053,141.525,150.09,98.819,104.717,0.00652628,0.11781,20.874,49.1698,-0.521296,0.0,0.0
344,85.75,112.41,138.174,149.446,98.8158,104.716,0.00607748,0.113098,20.8783,49.1198,-0.52151,0.0,0.0
352,87.75,110.006,135.46,150.844,98.8154,105.064,0.00559632,0.108512,20.8833,49.0898,-0.551397,0.0,0.0
360,89.75,107.621,132.963,147.183,98.7974,104.832,0.00523908,0.104404,20.8864,49.1298,-0.533192,0.0,0.0
368,91.75,105.347,129.989,149.187,98.7974,104.908,0.00494742,0.100424,20.891,49.0798,-0.539694,0.0,0.0
376,93.75,103.629,127.21,143.923,98.7699,105.006,0.0046603,0.0966598,20.8961,49.1198,-0.550579,0.0,0.0
384,95.75,101.367,124.551,151.732,98.7564,104.486,0.00435675,0.0926636,20.8997,49.0998,-0.50713,0.0,0.0
392,97.75,99.227,122.394,147.209,98.7508,104.674,0.00397076,0.0887968,20.9034,49.1298,-0.523842,0.0,0.0
400,99.75,98.065,120.045,148.867,98.7408,105.226,0.00358182,0.0847148,20.9076,49.0898,-0.572038,0.0,0.0
408,101.75,95.7711,117.852,149.041,98.7189,105.316,0.00321505,0.081209,20.9123,49.1098,-0.581701,0.0,0.0
416,103.75,95.007,115.225,148.831,98.7149,104.457,0.00291166,0.0775462,20.917,49.0798,-0.508435,0.0,0.0
424,105.75,92.7142,113.54,147.684,98.6882,103.766,0.00264853,0.0740807,20.9209,49.0998,-0.451224,0.0,0.0
432,107.75,91.4597,111.253,154.616,98.6762,104.097,0.00238447,0.0710851,20.9244,49.1098,-0.480965,0.0,0.0
440,109.75,90.369,109.671,146.556,98.6607,104.927,0.00211144,0.0684772,20.9276,49.0898,-0.553804,0.0,0.0
448,111.75,89.0265,108.379,147.754,98.6356,104.184,0.00190554,0.0661732,20.9292,49.0697,-0.492188,0.0,0.0
456,113.75,88.0276,106.142,150.537,98.6068,104.738,0.00174139,0.0643544,20.9312,49.1098,-0.542431,0.0,0.0
464,115.75,86.9897,104.536,147.213,98.5769,104.7,0.00146452,0.0625706,20.9333,49.0998,-0.541884,0.0,0.0
472,117.75,86.1603,103.425,155.694,98.5574,105.166,0.0012277,0.0607165,20.9353,49.1198,-0.583655,0.0,0.0
480,119.75,84.5081,101.493,150.651,98.5331,104.018,0.00102956,0.059217,20.9377,49.0798,-0.487117,0.0,0.0
488,121.75,83.6542,99.9268,147.94,98.5211,104.308,0.000810443,0.0575272,20.9401,49.0397,-0.513271,0.0,0.0
496,123.75,82.9165,98.5446,149.693,98.5044,104.37,0.00069074,0.0562589,20.9416,49.0497,-0.520175,0.0,0.0
504,125.75,81.7347,97.0976,149.58,98.4836,104.269,0.000658844,0.055297,20.9424,48.9396,-0.513327,0.0,0.0
512,127.75,80.706,95.7528,148.2,98.4697,104.903,0.000595208,0.0542381,20.9427,49.0597,-0.569153,0.0,0.0
520,129.75,80.7084,94.5084,149.968,98.439,104.439,0.000427138,0.0535004,20.9429,49.0297,-0.532099,0.0,0.0
528,131.75,79.3927,93.3207,147.648,98.4135,103.876,0.000294552,0.0528341,20.9429,48.9196,-0.485774,0.0,0.0
536,133.75,79.0056,92.044,150.885,98.3752,103.759,0.000275423,0.0522146,20.9438,49.0097,-0.479168,0.0,0.0
544,135.75,78.5022,91.0533,148.539,98.3429,104.416,0.000344756,0.0516784,20.9446,48.9697,-0.53891,0.0,0.0
552,137.75,78.0939,90.1957,148.335,98.3062,103.941,0.000381798,0.0511458,20.9455,49.0397,-0.501251,0.0,0.0
560,139.75,77.091,88.852,145.975,98.2723,104.302,0.000283423,0.0507526,20.9467,49.0097,-0.535468,0.0,0.0
568,141.75,76.5659,87.9937,148.909,98.2404,103.337,0.000117891,0.0504169,20.9473,48.9597,-0.454868,0.0,0.0
576,143.75,76.1236,87.5131,152.113,98.1978,103.93,1.29704e-05,0.0503264,20.9475,48.9697,-0.510205,0.0,0.0
584,145.75,75.5643,86.6603,146.049,98.1523,104.265,-3.18502e-05,0.0501188,20.9476,49.0197,-0.543284,0.0,0.0
592,147.75,75.1574,85.4672,148.73,98.1519,104.031,-0.000109007,0.050037,20.9473,49.0197,-0.523175,0.0,0.0
600,149.75,74.8378,85.1132,148.547,98.0993,104.518,-0.000243637,0.0496437,20.9471,48.9296,-0.569982,0.0,0.0
608,151.75,74.2379,84.304,145.055,98.0678,103.495,-0.000260995,0.0493998,20.9466,48.9096,-0.484419,0.0,0.0
616,153.75,73.3963,83.1817,145.49,98.0538,103.955,-0.000119931,0.0492389,20.9463,48.9797,-0.525532,0.0,0.0
624,155.75,72.9867,82.2142,147.653,98.0311,104.141,1.37265e-05,0.0490065,20.9472,48.9396,-0.54371,0.0,0.0
632,157.75,73.1831,81.7158,148.455,98.0168,103.083,1.47094e-05,0.0487704,20.9479,48.9296,-0.453162,0.0,0.0
640,159.75,72.8781,81.3442,146.791,98.0219,104.179,-0.000169928,0.0486537,20.9483,48.9096,-0.547844,0.0,0.0
648,161.75,72.1656,80.7044,149.387,98.0207,103.801,-0.000351015,0.048507,20.9484,48.9396,-0.515284,0.0,0.0
656,163.75,71.7199,80.15,152.407,98.0331,103.727,-0.00040568,0.0483978,20.9477,48.9497,-0.507694,0.0,0.0
664,165.75,71.316,79.185,150.874,98.0291,102.557,,0.0482906,,48.9597,-0.406076,0.0,0.0
672,167.75,70.968,79.079,148.89,98.0156,103.4,,,,48.9296,-0.480903,0.0,0.0
680,169.75,70.8804,78.2573,147.697,97.9932,103.656,,,,48.9396,-0.505204,0.0,0.0
688,171.75,70.3909,77.4459,148.342,97.9733,102.997,,,,48.9697,-0.44971,0.0,0.0
696,173.75,69.9865,77.1399,152.524,97.9653,103.721,,,,48.9296,-0.51337,0.0,0.0
701,175,70.3383,76.857,149.282,97.945,103.114,,,,48.9797,-0.462528,0.0,0.0