Folder: fsri_materials_database/01_Data/Memory_Foam_Carpet_Pad/Cone (part 5)

File: Memory_Foam_Carpet_Pad_Cone_HF75Scan_220922_R3.csv
Names,Time,Stack TC,Smoke TC,Exh Press,Smoke Comp,Smoke Meas,CO Meter,CO2 Meter,O2 Meter,Sample Mass,Ext Coeff,Start Test,Flame Verif
Chan Gain,,500,500,1,1,1,1,1,1,1,1,1.0,1.0
Offset,,0,0,0.141977,0,0,0,0,0,0,0,0.0,0.0
Gain,,1,1,25.011,13.065,14.7021,1,1,1,1.00081,1.02518,1.0,1.0
Units,sec,C,C,Pa,%,%,%,%,%,g,/m,,
Baseline,,65.78,67.1178,151.17,98.7583,104.142,-0.000192023,0.0457233,20.9498,-446.339,-0.477244,,
7,1.5,63.1032,64.3423,138.359,99.2081,87.0411,0.0035595,0.0972224,20.8642,61.8901,1.17661,0.0,1.0
14,3.25,63.9913,65.0294,135.937,99.1973,78.3687,0.00760409,0.185185,20.7056,61.4998,2.11948,0.0,1.0
21,5,65.3673,65.8918,130.231,99.1774,73.3463,0.0126564,0.295425,20.5064,61.2396,2.7133,0.0,1.0
28,6.75,66.7731,65.9283,126.665,99.1415,74.9045,0.0173932,0.404834,20.355,60.9794,2.52099,0.0,1.0
35,8.5,68.7932,67.9038,126.312,99.0957,66.5319,0.0218255,0.505241,20.2138,60.6792,3.58278,0.0,0.0
42,10.25,71.3458,70.2924,122.078,99.0391,70.0068,0.0256632,0.58874,20.0644,60.3489,3.1198,0.0,0.0
49,12,74.2634,72.2891,117.56,98.9852,67.3637,0.0285777,0.676987,19.9323,59.9686,3.46102,0.0,0.0
56,13.75,77.1219,75.4299,116.964,98.939,68.9646,0.031509,0.770109,19.8445,59.5482,3.2456,0.0,0.0
63,15.5,80.2001,78.2514,108.358,98.8624,64.7654,0.0358261,0.885663,19.7237,59.1179,3.80358,0.0,0.0
70,17.25,84.3732,81.9526,96.2404,98.7978,60.4003,0.039686,1.0532,19.4574,58.5474,4.4252,0.0,0.0
77,19,89.5891,86.8172,99.5721,98.809,62.6136,0.0425028,1.28,19.0575,57.967,4.10258,0.0,0.0
84,20.75,96.5698,92.1131,104.607,98.8529,65.0961,0.0440557,1.46968,18.7783,57.4666,3.75691,0.0,0.0
91,22.5,101.416,97.9982,92.9812,98.8788,66.6104,0.0453657,1.63151,18.5672,56.836,3.55247,0.0,0.0
98,24.25,107.379,103.799,96.29,98.9099,66.0222,0.0467459,1.79098,18.3189,56.2155,3.63506,0.0,0.0
105,26,113.749,110.468,87.6795,98.9398,67.3157,0.0487674,2.00561,17.9666,55.595,3.4633,0.0,0.0
112,27.75,121.233,117.378,77.1974,98.9904,66.7167,0.0505876,2.28381,17.5555,54.7944,3.54827,0.0,0.0
119,29.5,129.306,126.181,84.4226,99.0395,72.2879,0.0519617,2.697,16.9881,53.9837,2.8315,0.0,0.0
126,31.25,139.829,135.844,65.3957,99.0933,77.5338,0.0524042,3.19016,16.1004,53.073,2.20637,0.0,0.0
133,33,151.793,149.184,61.7823,99.1347,76.6198,0.0526778,3.80411,15.286,52.1723,2.31677,0.0,0.0
140,34.75,164.037,163.577,61.3885,99.2041,83.4253,0.0541007,4.41804,14.6061,51.1514,1.55781,0.0,0.0
147,36.5,177.105,179.185,73.7841,99.2627,82.2058,0.056765,4.97734,13.9472,50.1406,1.69555,0.0,0.0
154,38.25,189.765,195.137,61.419,99.3245,84.9485,0.0589689,5.46356,13.4333,49.0898,1.406,0.0,0.0
161,40,203.032,211.936,63.1822,99.3811,79.3424,0.0589611,5.69068,13.184,48.2891,2.0251,0.0,0.0
168,41.75,212.86,226.644,64.882,99.4441,67.4081,0.0562278,5.41509,13.4903,47.6986,3.49668,0.0,0.0
175,43.5,217.398,238.244,103.544,99.5159,65.6413,0.0490637,4.63986,14.6509,47.2983,3.74203,0.0,0.0
182,45.25,215.981,244.839,119.578,99.5701,75.5089,0.0400797,3.66569,16.0602,47.1782,2.48752,0.0,0.0
189,47,209.433,242.394,141.971,99.5921,103.286,0.0294708,2.63031,17.5099,47.2082,-0.327532,0.0,0.0
196,48.75,201.596,236.329,145.234,99.6323,105.161,0.0218846,1.81169,18.6018,47.1982,-0.485684,0.0,0.0
203,50.5,191.8,228.333,141.961,99.6594,105.47,0.0166437,1.20653,19.4475,47.1482,-0.509634,0.0,0.0
210,52.25,184.528,221.369,144.628,99.683,106.074,0.0138379,0.817332,19.986,47.1582,-0.558818,0.0,0.0
217,54,177.801,215.238,141.097,99.6798,105.946,0.0123646,0.568036,20.3339,47.1182,-0.548296,0.0,0.0
224,55.75,171.568,209.058,148.981,99.6786,106.187,0.0115469,0.415493,20.5305,47.1082,-0.568832,0.0,0.0
231,57.5,166.329,203.275,146.842,99.6403,106.141,0.0110129,0.321902,20.6508,47.0581,-0.568333,0.0,0.0
238,59.25,160.575,197.715,148.433,99.6268,105.797,0.0107272,0.265797,20.7259,47.0481,-0.540353,0.0,0.0
245,61,156.2,192.646,146.607,99.5777,105.048,0.0105458,0.227232,20.7716,47.0181,-0.480903,0.0,0.0
252,62.75,151.492,187.923,145.633,99.5095,105.538,0.0103572,0.202371,20.7987,47.0081,-0.528946,0.0,0.0
259,64.5,147.57,183.262,144.998,99.4533,105.712,0.0101267,0.183758,20.817,46.9981,-0.548812,0.0,0.0
266,66.25,143.336,178.5,151.134,99.3987,105.022,0.00987177,0.17001,20.8299,46.9781,-0.494896,0.0,0.0
273,68,139.742,174.224,146.793,99.3249,105.744,0.00952334,0.159166,20.8407,46.968,-0.563176,0.0,0.0
280,69.75,136.108,170.468,146.671,99.2316,105.851,0.00914312,0.150814,20.8487,46.9881,-0.580704,0.0,0.0
287,71.5,132.761,166.328,147.049,99.1284,105.382,0.00856744,0.142903,20.856,46.958,-0.550183,0.0,0.0
294,73.25,129.634,162.848,146.361,99.0331,104.935,0.00793057,0.136111,20.862,46.958,-0.520578,0.0,0.0
301,75,126.814,158.983,147.919,98.929,105.304,0.00738227,0.129847,20.8675,46.908,-0.561584,0.0,0.0
308,76.75,123.904,155.547,144.266,98.8046,104.525,0.00684359,0.124332,20.8709,46.908,-0.506096,0.0,0.0
315,78.5,120.774,152.484,146.355,98.7017,105.087,0.00637345,0.119163,20.8755,46.878,-0.563702,0.0,0.0
322,80.25,118.944,149.279,149.418,98.5817,104.761,0.00591868,0.114009,20.8818,46.848,-0.546726,0.0,0.0
329,82,116.517,145.708,149.112,98.5004,104.638,0.00550306,0.109139,20.8877,46.858,-0.54355,0.0,0.0
336,83.75,114.074,143.476,146.576,98.3828,104.914,0.00511945,0.103885,20.8921,46.8379,-0.578017,0.0,0.0
343,85.5,112.084,140.352,146.437,98.2731,103.918,0.00468081,0.0989587,20.8948,46.8179,-0.502221,0.0,0.0
350,87.25,109.954,138.006,146.604,98.1842,104.325,0.00423494,0.0941643,20.8997,46.8379,-0.545547,0.0,0.0
357,89,108.315,135.349,145.782,98.114,104.131,0.00381426,0.0889764,20.9054,46.8079,-0.535215,0.0,0.0
364,90.75,106.209,132.89,146.958,98.0395,103.948,0.00337774,0.0842309,20.9103,46.8079,-0.526305,0.0,0.0
371,92.5,104.06,130.504,146.936,97.994,104.194,0.00290839,0.0800953,20.9154,46.7779,-0.551683,0.0,0.0
378,94.25,102.616,128.513,149.252,97.9677,104.198,0.00261052,0.0763599,20.9204,46.7979,-0.554485,0.0,0.0
385,96,100.824,126.001,143.559,97.9402,104.057,0.00245373,0.0729373,20.9242,46.7679,-0.544844,0.0,0.0
392,97.75,99.4212,123.553,146.513,97.9569,104.213,0.00221947,0.0699871,20.9268,46.7779,-0.55675,0.0,0.0
399,99.5,98.2479,121.874,151.838,97.9613,104.071,0.00188102,0.0674586,20.9289,46.7979,-0.544066,0.0,0.0
406,101.25,97.2179,119.66,147.725,98,103.387,0.00151411,0.0653974,20.9317,46.7979,-0.481197,0.0,0.0
413,103,95.393,118.123,149.135,98.0482,104.109,0.00124089,0.0633921,20.9339,46.7879,-0.539347,0.0,0.0
420,104.75,94.1219,116.429,150.862,98.1184,104.733,0.00101921,0.0614641,20.9356,46.7879,-0.5867,0.0,0.0
427,106.5,92.9631,114.387,148.293,98.2133,104.613,0.000936476,0.0601092,20.937,46.7979,-0.567638,0.0,0.0
434,108.25,92.0547,112.993,152.275,98.2747,104.802,0.000883265,0.0590078,20.937,46.7579,-0.578279,0.0,0.0
441,110,90.9714,111.129,147.432,98.3728,103.896,0.000821238,0.0579301,20.9374,46.7679,-0.491201,0.0,0.0
448,111.75,89.7354,109.746,151.218,98.4601,104.636,0.000769049,0.0569401,20.9389,46.7579,-0.547112,0.0,0.0
455,113.5,89.0287,107.558,148.979,98.5554,104.367,0.000739417,0.0559034,20.9401,46.7679,-0.515247,0.0,0.0
462,115.25,87.6521,105.789,147.464,98.6587,104.719,0.000700444,0.0549794,20.9417,46.7579,-0.536125,0.0,0.0
469,117,87.0597,105.216,146.943,98.7352,105.154,0.00063997,0.0542431,20.9426,46.7379,-0.566446,0.0,0.0
476,118.75,86.2113,103.531,151.408,98.8433,104.599,0.000540684,0.0535708,20.9431,46.7679,-0.508983,0.0,0.0
483,120.5,85.5378,102.161,148.476,98.9095,104.792,0.000454203,0.0529137,20.9433,46.7679,-0.519496,0.0,0.0
490,122.25,84.3453,100.93,149.279,98.9717,104.82,0.000348973,0.0524759,20.9434,46.7579,-0.516268,0.0,0.0
497,124,83.9258,99.7626,147.564,99.0307,105.325,0.000249721,0.0521434,20.9434,46.7479,-0.554185,0.0,0.0
504,125.75,83.1333,98.7056,150.769,99.0678,105.14,0.000252755,0.0516791,20.9447,46.7579,-0.534984,0.0,0.0
511,127.5,82.2454,97.7474,148.201,99.106,105.68,0.000241839,0.0513406,20.9453,46.7779,-0.577558,0.0,0.0
518,129.25,81.7788,96.3098,145.103,99.1407,105.216,0.000160039,0.0509288,20.9456,46.7879,-0.534846,0.0,0.0
525,131,81.2669,95.4066,148.002,99.1367,105.162,-2.0991e-05,0.0505626,20.9457,46.7779,-0.530605,0.0,0.0
532,132.75,80.7227,94.1663,149.388,99.1499,104.762,-0.000264689,0.0503037,20.9467,46.7979,-0.495122,0.0,0.0
539,134.5,80.3593,93.3575,149.219,99.1367,105.159,-0.000334714,0.0500237,20.9469,46.8179,-0.530375,0.0,0.0
546,136.25,79.7508,92.0107,152.446,99.1216,105.174,-0.000249007,0.0498045,20.9476,46.8179,-0.533015,0.0,0.0
553,138,79.245,92.0484,151.996,99.0913,105.372,-0.000141874,0.0494984,20.9479,46.8279,-0.552629,0.0,0.0
560,139.75,79.0354,90.9023,148.148,99.0542,105.18,-2.27269e-05,0.0493126,20.9481,46.848,-0.539629,0.0,0.0
567,141.5,78.4566,89.8905,148.459,99.0159,105.461,9.34101e-05,0.049163,20.9481,46.8379,-0.567125,0.0,0.0
574,143.25,77.9082,89.1188,152.994,98.9641,105.397,0.000160992,0.0488433,20.9482,46.868,-0.566323,0.0,0.0
581,145,77.706,88.1252,149.974,98.9182,105.32,0.000128523,0.048751,20.9482,46.8379,-0.563942,0.0,0.0
588,146.75,76.5055,87.2912,146.894,98.8385,105.664,1.20408e-05,0.048566,20.9482,46.8379,-0.600492,0.0,0.0
595,148.5,76.7904,86.9183,147.882,98.7783,105.02,-6.4154e-05,0.048396,20.9482,46.8379,-0.551046,0.0,0.0
602,150.25,76.103,86.0434,151.918,98.7253,104.353,1.76706e-05,0.0482748,20.9482,46.8179,-0.498524,0.0,0.0
609,152,76.1131,85.5108,153.559,98.6774,104.908,7.24053e-05,0.0481468,20.9486,46.8179,-0.550586,0.0,0.0
616,153.75,75.4887,85.0568,150.663,98.608,104.889,1.01888e-06,0.0480095,20.9487,46.7879,-0.555295,0.0,0.0
623,155.5,74.7154,84.29,147.171,98.5538,104.539,-8.39839e-05,0.0478392,20.9484,46.7979,-0.530225,0.0,0.0
630,157.25,74.7041,83.4774,147.613,98.5124,104.543,-0.000141952,0.0477498,20.9483,46.7679,-0.534357,0.0,0.0
637,159,74.142,82.5279,148.367,98.4924,104.775,,0.0477071,,46.7779,-0.556108,0.0,0.0
644,160.75,74.5565,82.0534,145.667,98.4657,104.362,,,,46.7779,-0.523011,0.0,0.0
651,162.5,73.9874,81.8689,150.137,98.4486,104.316,,,,46.7979,-0.520632,0.0,0.0
658,164.25,73.5039,81.011,148.857,98.5602,105.286,,,,46.848,-0.593602,0.0,0.0
665,166,73.206,80.6566,152.385,98.6451,104.563,,,,46.878,-0.523943,0.0,0.0
672,167.75,73.0689,80.1881,147.564,98.7281,104.738,,,,46.848,-0.531422,0.0,0.0
675,168.5,73.2633,79.5654,150.982,98.754,105.075,,,,46.8379,-0.557946,0.0,0.0