Folder: fsri_materials_database/01_Data/Memory_Foam_Carpet_Pad/Cone (part 3)

File: Memory_Foam_Carpet_Pad_Cone_HF50Scan_220922_R2.csv
Names,Time,Stack TC,Smoke TC,Exh Press,Smoke Comp,Smoke Meas,CO Meter,CO2 Meter,O2 Meter,Sample Mass,Ext Coeff,Start Test,Flame Verif
Chan Gain,,500,500,1,1,1,1,1,1,1,1,1.0,1.0
Offset,,0,0,0.141977,0,0,0,0,0,0,0,0.0,0.0
Gain,,1,1,25.011,13.065,14.7021,1,1,1,1.00081,1.02518,1.0,1.0
Units,sec,C,C,Pa,%,%,%,%,%,g,/m,,
Baseline,,50.0726,51.7586,160.77,98.5158,101.321,0.000147521,0.043656,20.9458,-445.565,-0.252419,,
8,1.75,47.8623,49.5396,147.236,98.1065,97.9264,0.00152637,0.0669869,20.9195,66.0835,0.0165219,0.0,0.0
16,3.75,47.8488,49.5106,142.276,98.1029,86.4134,0.00420097,0.148014,20.783,65.9935,1.14095,0.0,1.0
24,5.75,49.5484,50.467,145.062,98.0985,80.3694,0.00767368,0.254165,20.6346,65.6932,1.79262,0.0,1.0
32,7.75,49.9166,50.4457,139.215,98.1077,76.3322,0.0107525,0.339549,20.517,65.5031,2.25693,0.0,1.0
40,9.75,51.9669,52.0043,149.106,98.1085,78.5922,0.0134927,0.40973,20.4174,65.2429,1.99462,0.0,0.0
48,11.75,53.6877,53.631,140.047,98.1089,73.3351,0.0158659,0.465122,20.3397,65.0027,2.61726,0.0,0.0
56,13.75,56.0223,54.8022,139.186,98.116,76.5148,0.0179364,0.511558,20.2775,64.6924,2.23621,0.0,0.0
64,15.75,58.1908,57.4733,137.079,98.1132,76.2609,0.0203039,0.553547,20.2095,64.3421,2.26585,0.0,0.0
72,17.75,60.0423,59.3482,132.047,98.1069,74.743,0.0222124,0.6093,20.1065,64.0519,2.44606,0.0,0.0
80,19.75,62.4442,61.5289,132.167,98.1096,73.9112,0.0235262,0.668425,20.0194,63.6816,2.54696,0.0,0.0
88,21.75,65.3783,64.0488,119.878,98.1144,73.5998,0.0246099,0.734015,19.9363,63.2713,2.58537,0.0,0.0
96,23.75,68.5977,66.5822,131.208,98.1108,74.8529,0.0251727,0.826381,19.7956,62.8209,2.43321,0.0,0.0
104,25.75,72.0348,69.8951,111.704,98.1021,74.3993,0.0255824,0.943964,19.6156,62.3805,2.48707,0.0,0.0
112,27.75,75.9974,73.8899,121.717,98.1085,74.5891,0.0260505,1.0465,19.4695,61.8601,2.46474,0.0,0.0
120,29.75,80.4603,77.967,113.176,98.1077,72.8398,0.0264399,1.13923,19.3341,61.3797,2.67809,0.0,0.0
128,31.75,84.6054,82.6521,104.527,98.1093,72.755,0.0269455,1.23872,19.1773,60.9294,2.68872,0.0,0.0
136,33.75,89.0762,87.0788,105.917,98.0957,71.9245,0.0277446,1.35322,19.0311,60.3289,2.79072,0.0,0.0
144,35.75,93.8889,92.4166,109.333,98.0965,74.8821,0.0289731,1.4393,18.8965,59.7984,2.42839,0.0,0.0
152,37.75,99.0244,97.3473,95.5008,98.1009,74.8538,0.0303087,1.5587,18.7362,59.248,2.43219,0.0,0.0
160,39.75,104.402,103.082,105.297,98.1148,75.8607,0.0312669,1.70684,18.4772,58.5875,2.31332,0.0,0.0
168,41.75,110.98,109.592,90.2227,98.1503,73.7048,0.0316485,1.90782,18.2446,57.8669,2.57583,0.0,0.0
176,43.75,117.433,116.504,89.8884,98.1675,76.6786,0.0317807,2.09433,17.9817,57.1863,2.2217,0.0,0.0
184,45.75,124.227,123.498,85.079,98.1647,76.5965,0.0321171,2.24109,17.7168,56.4257,2.23108,0.0,0.0
192,47.75,131.228,130.67,96.9891,98.1858,79.3536,0.0327547,2.38753,17.5114,55.7151,1.915,0.0,0.0
200,49.75,137.687,139.083,99.1462,98.2101,76.382,0.0339789,2.50946,17.3524,55.1146,2.26045,0.0,0.0
208,51.75,144.319,146.298,73.5909,98.2189,78.6196,0.0356011,2.61879,17.199,54.3741,2.00161,0.0,0.0
216,53.75,150.845,153.823,86.9742,98.2217,76.9285,0.0365259,2.7,17.0964,53.6935,2.1974,0.0,0.0
224,55.75,156.652,161.211,78.6911,98.2488,76.3995,0.0359323,2.70691,17.0736,52.9429,2.26193,0.0,0.0
232,57.75,162.047,168.329,94.046,98.2775,73.4042,0.0342193,2.61558,17.1906,52.3724,2.62423,0.0,0.0
240,59.75,165.478,173.217,90.7715,98.2971,69.8274,0.0326236,2.42606,17.4166,51.7519,3.07526,0.0,0.0
248,61.75,167.164,176.777,99.6316,98.3198,71.7589,0.0304239,2.19823,17.6941,51.3116,2.83196,0.0,0.0
256,63.75,167.602,179.129,109.244,98.3373,73.1332,0.0271289,1.88434,18.1066,50.9513,2.66297,0.0,0.0
264,65.75,166.181,179.586,118.065,98.3549,71.4215,0.0232427,1.52891,18.7277,50.671,2.87755,0.0,0.0
272,67.75,163.069,178.096,135.602,98.3624,73.0466,0.0196207,1.14886,19.3277,50.5209,2.67592,0.0,0.0
280,69.75,157.678,174.892,146.771,98.3844,89.5088,0.0157832,0.81812,19.7712,50.3908,0.850223,0.0,0.0
288,71.75,152.539,171.11,149.187,98.4111,97.9838,0.0132356,0.568227,20.1008,50.3808,0.0391285,0.0,0.0
296,73.75,146.389,166.27,153.307,98.4266,102.604,0.0115716,0.399371,20.4089,50.4309,-0.373774,0.0,0.0
304,75.75,141.3,161.67,152.005,98.4278,102.376,0.0110174,0.270383,20.6071,50.4309,-0.353705,0.0,0.0
312,77.75,134.313,154.648,155.516,98.4876,102.481,0.0109027,0.197416,20.7119,50.3608,-0.35746,0.0,0.0
320,79.75,130.52,151.349,154.129,98.5012,102.576,0.0108037,0.161044,20.785,50.3608,-0.364564,0.0,0.0
328,81.75,125.712,147.55,155.779,98.5068,103.298,0.0107036,0.137872,20.823,50.3007,-0.427124,0.0,0.0
336,83.75,121.856,143.29,153.377,98.5183,102.863,0.0105025,0.125568,20.8414,50.2807,-0.3881,0.0,0.0
344,85.75,118.004,139.563,153.962,98.5291,102.181,0.0101259,0.119017,20.8511,50.2607,-0.327257,0.0,0.0
352,87.75,114.312,136.256,153.174,98.5526,101.569,0.00988682,0.114479,20.8587,50.2007,-0.271088,0.0,0.0
360,89.75,111.284,132.478,154.64,98.5642,101.68,0.00970429,0.111459,20.8635,50.2007,-0.279878,0.0,0.0
368,91.75,107.652,129.664,153.752,98.573,102.944,0.00956389,0.109557,20.8656,50.2307,-0.390211,0.0,0.0
376,93.75,104.746,126.563,154.687,98.5873,102.839,0.00943694,0.108123,20.8676,50.1606,-0.379727,0.0,0.0
384,95.75,101.836,123.191,153.159,98.5781,103.557,0.00926392,0.106494,20.8705,50.1706,-0.443081,0.0,0.0
392,97.75,99.6218,121.035,155.044,98.5881,103.318,0.00897527,0.104996,20.8726,50.1406,-0.421419,0.0,0.0
400,99.75,97.2982,117.97,154.89,98.5949,103.045,0.00857201,0.102926,20.8756,50.1506,-0.396987,0.0,0.0
408,101.75,94.9012,115.837,156.903,98.6029,102.521,0.00818873,0.10034,20.8798,50.0906,-0.350448,0.0,0.0
416,103.75,92.5303,112.792,158.963,98.5861,102.789,0.00789057,0.0980401,20.8819,50.0806,-0.375401,0.0,0.0
424,105.75,90.9062,110.611,155.151,98.6045,103.285,0.00761817,0.0961299,20.8838,50.0806,-0.417038,0.0,0.0
432,107.75,89.1064,108.19,153.254,98.5801,102.486,0.00729122,0.0945562,20.8837,50.0706,-0.349451,0.0,0.0
440,109.75,87.0821,106.297,151.361,98.5841,102.724,0.00706863,0.0921426,20.8872,49.9605,-0.369928,0.0,0.0
448,111.75,85.4296,104.217,156.396,98.5295,103.172,0.00684621,0.0892225,20.8914,49.9905,-0.414028,0.0,0.0
456,113.75,83.2463,102.209,154.256,98.5171,102.758,0.006503,0.0864794,20.8953,49.9905,-0.378986,0.0,0.0
464,115.75,82.0876,99.8001,153.997,98.4924,103.387,0.00607607,0.0841547,20.8986,49.9705,-0.436164,0.0,0.0
472,117.75,80.9535,98.4646,152.312,98.4828,102.51,0.00565404,0.0815938,20.9013,50.0205,-0.360416,0.0,0.0
480,119.75,79.7232,96.9693,154.412,98.4466,101.829,0.00523106,0.0791576,20.9041,49.9905,-0.303821,0.0,0.0
488,121.75,78.5068,94.7889,154.027,98.4155,102.239,0.00486547,0.076591,20.9084,50.0405,-0.342766,0.0,0.0
496,123.75,77.3832,93.5912,158.972,98.4079,101.468,0.00451512,0.0739835,20.9122,50.0005,-0.275401,0.0,0.0
504,125.75,75.6696,91.9091,156.606,98.3995,103.211,0.00408981,0.0715226,20.9152,49.9905,-0.4293,0.0,0.0
512,127.75,75.0672,90.2453,158.263,98.4003,101.657,0.00364598,0.0697745,20.9165,49.9905,-0.292779,0.0,0.0
520,129.75,73.5323,89.142,155.808,98.374,101.966,0.00326845,0.0677304,20.9185,50.0005,-0.32249,0.0,0.0
528,131.75,72.9273,87.2707,153.6,98.3744,103.161,0.00293468,0.0657202,20.9201,49.9905,-0.427217,0.0,0.0
536,133.75,71.7882,86.3332,161.074,98.3716,102.554,0.00259881,0.0637219,20.9237,49.9505,-0.374476,0.0,0.0
544,135.75,70.765,84.7029,157.3,98.3353,101.94,0.00231455,0.0618428,20.926,49.9705,-0.32377,0.0,0.0
552,137.75,70.2508,83.5404,154.728,98.311,101.265,0.00211446,0.0599502,20.9285,49.9605,-0.266267,0.0,0.0
560,139.75,69.1836,82.2381,155.128,98.3066,102.264,0.00190895,0.0580447,20.9306,49.9605,-0.354927,0.0,0.0
568,141.75,68.7994,81.2812,163.186,98.311,102.41,0.00184335,0.0566803,20.9322,49.9905,-0.367301,0.0,0.0
576,143.75,67.895,80.3975,161.597,98.2915,101.905,0.00188884,0.0555823,20.9341,49.9705,-0.324694,0.0,0.0
584,145.75,67.3564,78.6593,158.616,98.2795,102.431,0.00182433,0.0545845,20.9351,49.9505,-0.372034,0.0,0.0
592,147.75,66.4819,77.9719,156.847,98.2899,102.159,0.001722,0.0537585,20.9366,49.9605,-0.347222,0.0,0.0
600,149.75,65.9779,77.1632,157.184,98.3026,102.494,0.00169992,0.0529181,20.938,49.9505,-0.375471,0.0,0.0
608,151.75,65.7746,76.0423,157.805,98.2851,101.572,0.0016194,0.0521411,20.9395,49.9705,-0.295811,0.0,0.0
616,153.75,65.3784,75.1642,161.165,98.25,101.861,0.00137698,0.0514552,20.9408,49.9605,-0.324568,0.0,0.0
624,155.75,64.0705,74.6287,165.285,98.2253,101.373,0.00116607,0.0511275,20.9413,49.9304,-0.28363,0.0,0.0
632,157.75,63.5983,73.9033,162.676,98.2428,101.791,0.00100056,0.0508118,20.9415,49.9705,-0.319043,0.0,0.0
640,159.75,63.0534,72.6074,157.016,98.2109,101.452,0.000872949,0.0502877,20.9416,49.9405,-0.292026,0.0,0.0
648,161.75,62.8644,71.9121,159.541,98.2237,102.544,0.000797376,0.0500388,20.9426,49.9505,-0.387103,0.0,0.0
656,163.75,62.4644,71.3227,156.222,98.2205,102.512,0.000752911,0.0496498,20.9435,49.9705,-0.384601,0.0,0.0
664,165.75,61.8849,70.6152,156.646,98.2293,100.995,0.000764318,0.0492838,20.9438,49.9505,-0.249729,0.0,0.0
672,167.75,61.738,69.9643,154.536,98.2384,101.259,0.000870964,0.0490575,20.944,49.9204,-0.27235,0.0,0.0
680,169.75,61.1586,69.3752,160.271,98.2492,101.658,0.000931102,0.0488369,20.944,49.8904,-0.306719,0.0,0.0
688,171.75,60.4282,68.6542,157.234,98.2305,101.355,0.000804165,0.0484489,20.944,49.9104,-0.281563,0.0,0.0
696,173.75,60.2635,67.9804,158.037,98.2133,101.913,0.000592081,0.0481423,20.9441,49.9204,-0.33252,0.0,0.0
704,175.75,59.667,66.8221,154.141,98.1898,101.248,0.000470142,0.0479954,20.9439,49.9104,-0.275808,0.0,0.0
712,177.75,59.7158,66.547,159.017,98.138,101.609,0.000526575,0.0479255,20.9442,49.9204,-0.31254,0.0,0.0
720,179.75,59.3777,66.4082,158.663,98.1443,101.849,0.000580667,0.0476427,20.9453,49.8904,-0.333214,0.0,0.0
728,181.75,59.1187,66.2925,156.01,98.1268,102.166,0.000501042,0.0472661,20.9457,49.8804,-0.362747,0.0,0.0
736,183.75,58.5823,65.6614,158.472,98.1124,102.592,0.000434462,0.0470847,20.9471,49.8904,-0.401503,0.0,0.0
744,185.75,59.0207,64.505,159.221,98.1132,101.653,,0.0469297,,49.8904,-0.318696,0.0,0.0
752,187.75,58.6179,64.1558,155.717,98.1184,102.302,,,,49.8804,-0.375512,0.0,0.0
760,189.75,58.3481,63.8471,158.164,98.12,102.527,,,,49.8904,-0.395103,0.0,0.0
768,191.75,57.7282,63.6891,156.889,98.132,101.451,,,,49.8604,-0.299099,0.0,0.0
776,193.75,57.5459,63.272,155.309,98.1184,101.109,,,,49.8604,-0.269984,0.0,0.0
783,195.5,57.2953,62.7305,159.636,98.1328,101.206,,,,49.8604,-0.277324,0.0,0.0

File: Memory_Foam_Carpet_Pad_Cone_HF50Scan_220922_R3.csv
Names,Time,Stack TC,Smoke TC,Exh Press,Smoke Comp,Smoke Meas,CO Meter,CO2 Meter,O2 Meter,Sample Mass,Ext Coeff,Start Test,Flame Verif
Chan Gain,,500,500,1,1,1,1,1,1,1,1,1.0,1.0
Offset,,0,0,0.141977,0,0,0,0,0,0,0,0.0,0.0
Gain,,1,1,25.011,13.065,14.7021,1,1,1,1.00081,1.02518,1.0,1.0
Units,sec,C,C,Pa,%,%,%,%,%,g,/m,,
Baseline,,52.7619,53.8031,159.573,98.8844,102.325,-2.68562e-05,0.0440639,20.9501,-445.703,-0.307471,,
8,1.75,50.2367,51.492,150.268,97.4773,97.1802,0.00150577,0.0692508,20.9349,63.4814,0.0274459,0.0,0.0
16,3.75,50.7785,50.996,147.087,97.4877,86.9456,0.00418985,0.140908,20.8147,63.3313,1.02917,0.0,1.0
24,5.75,52.2686,52.1907,137.679,97.4909,83.9063,0.00781825,0.257461,20.6404,63.1311,1.34945,0.0,1.0
32,7.75,52.8197,51.867,138.598,97.508,78.2647,0.0109298,0.354855,20.5124,62.911,1.97697,0.0,1.0
40,9.75,54.6324,53.4723,137.085,97.5275,79.7426,0.0138712,0.421657,20.4223,62.6608,1.81053,0.0,1.0
48,11.75,56.6358,55.2747,136.614,97.5459,77.23,0.0163582,0.472044,20.3349,62.4206,2.10014,0.0,0.0
56,13.75,58.4956,57.6981,137.354,97.5622,77.4342,0.0182039,0.522281,20.2552,62.0503,2.0779,0.0,0.0
64,15.75,60.7814,59.4934,135.544,97.5973,76.465,0.0195526,0.563952,20.1954,61.8101,2.1944,0.0,0.0
72,17.75,62.8855,61.582,128.839,97.622,76.0374,0.0205678,0.597933,20.144,61.4398,2.2471,0.0,0.0
80,19.75,65.3014,63.9097,132.355,97.6515,77.0214,0.0216395,0.638493,20.0908,61.1195,2.1342,0.0,0.0
88,21.75,67.4896,66.1562,123.232,97.6782,72.9263,0.0230678,0.71355,19.9901,60.7492,2.62796,0.0,0.0
96,23.75,70.3935,68.4586,115.727,97.7257,71.3161,0.0244167,0.84056,19.8522,60.2688,2.83312,0.0,0.0
104,25.75,74.0799,71.8733,121.38,97.7432,74.4204,0.0252833,0.96813,19.6496,59.7184,2.45156,0.0,0.0
112,27.75,77.9666,75.3503,120.326,97.7707,75.5269,0.0258157,1.09464,19.4328,59.288,2.32138,0.0,0.0
120,29.75,82.8096,80.2329,111.018,97.807,72.6966,0.0261813,1.19821,19.2791,58.7576,2.66818,0.0,0.0
128,31.75,86.6895,84.4553,101.963,97.8329,74.4137,0.0263916,1.27234,19.1672,58.2672,2.46063,0.0,0.0
136,33.75,91.2345,89.2945,111.659,97.8732,73.2736,0.0268842,1.34635,19.0339,57.7568,2.60317,0.0,0.0
144,35.75,96.003,93.6961,105.658,97.8975,73.9197,0.0281313,1.44978,18.8806,57.1863,2.52646,0.0,0.0
152,37.75,100.994,98.964,101.75,97.9282,72.5284,0.0299445,1.59243,18.6545,56.5658,2.70016,0.0,0.0
160,39.75,106.997,104.773,93.0606,97.953,73.1538,0.0312382,1.77043,18.4023,55.9153,2.62521,0.0,0.0
168,41.75,113.122,111.327,84.044,97.9841,72.5077,0.0317504,1.95126,18.1435,55.2047,2.70784,0.0,0.0
176,43.75,119.966,118.097,86.4559,98.012,75.1217,0.0320688,2.13616,17.8938,54.5542,2.39191,0.0,0.0
184,45.75,126.216,125.09,86.4895,98.049,75.1594,0.0325763,2.33325,17.6115,53.8536,2.3908,0.0,0.0
192,47.75,133.794,133.021,91.3172,98.0714,77.0757,0.0331909,2.54906,17.3648,53.0029,2.16644,0.0,0.0
200,49.75,141.312,141.288,81.6771,98.1105,76.339,0.0338644,2.71986,17.1473,52.2723,2.25639,0.0,0.0
208,51.75,148.257,150.162,74.8755,98.1595,77.9443,0.0345631,2.86633,16.9041,51.5117,2.07374,0.0,0.0
216,53.75,156.048,157.681,78.3698,98.183,77.5647,0.0349275,2.95841,16.7682,50.7511,2.11979,0.0,0.0
224,55.75,162.474,166.136,87.4772,98.2177,78.589,0.0344484,2.9028,16.8367,50.0505,2.00499,0.0,0.0
232,57.75,167.459,173.466,102.913,98.244,75.8382,0.0329059,2.70246,17.0135,49.4701,2.32781,0.0,0.0
240,59.75,170.037,177.498,105.3,98.2879,75.5977,0.0306791,2.41811,17.3776,48.9296,2.36039,0.0,0.0
248,61.75,171.154,180.998,119.676,98.325,74.149,0.0279533,2.03024,17.9367,48.5693,2.53779,0.0,0.0
256,63.75,169.595,181.532,123.773,98.3708,74.7946,0.0246442,1.62291,18.5048,48.3692,2.46402,0.0,0.0
264,65.75,165.634,180.04,135.992,98.3999,79.8099,0.0207617,1.20278,19.0576,48.2091,1.88303,0.0,0.0
272,67.75,161.346,177.722,145.152,98.431,88.9233,0.016407,0.821519,19.6765,48.199,0.913505,0.0,0.0
280,69.75,155.794,173.333,147.2,98.4589,100.786,0.0135592,0.573925,20.1339,48.189,-0.210052,0.0,0.0
288,71.75,149.299,168.4,150.867,98.486,103.679,0.0124269,0.371379,20.4053,48.159,-0.462117,0.0,0.0
296,73.75,142.014,161.819,151.444,98.5088,103.29,0.0122284,0.256746,20.5913,48.109,-0.426238,0.0,0.0
304,75.75,136.855,157.576,153.899,98.5395,104.145,0.0120851,0.19016,20.7216,48.089,-0.497583,0.0,0.0
312,77.75,132.076,152.925,148.755,98.5702,103.317,0.0117392,0.154535,20.7898,48.089,-0.422978,0.0,0.0
320,79.75,127.458,148.533,151.371,98.6192,103.146,0.0112259,0.135293,20.8246,48.0789,-0.403574,0.0,0.0
328,81.75,123.335,144.814,150.981,98.6447,102.518,0.0107352,0.124217,20.8442,48.109,-0.346355,0.0,0.0
336,83.75,120.074,140.414,157.027,98.6635,103.036,0.010302,0.117149,20.8564,48.0089,-0.38999,0.0,0.0
344,85.75,116.263,137.09,155.309,98.6854,102.768,0.00987197,0.11238,20.8648,47.9989,-0.364504,0.0,0.0
352,87.75,113.108,133.685,149.893,98.7025,103.377,0.00955976,0.109385,20.8699,48.0389,-0.416102,0.0,0.0
360,89.75,109.614,130.865,153.275,98.7209,103.162,0.00941261,0.107102,20.8742,47.9789,-0.395716,0.0,0.0
368,91.75,107.133,128.219,151.397,98.7209,103.249,0.00926863,0.105101,20.8771,47.9588,-0.403301,0.0,0.0
376,93.75,103.719,124.703,153.62,98.7312,103.016,0.0090055,0.102667,20.879,47.9188,-0.382013,0.0,0.0
384,95.75,101.43,121.974,148.89,98.736,102.873,0.00867838,0.100048,20.8805,47.8888,-0.369152,0.0,0.0
392,97.75,99.2818,119.551,154.003,98.7368,103.944,0.00838753,0.0980772,20.8838,47.8788,-0.462139,0.0,0.0
400,99.75,96.7267,117.041,154.455,98.7297,103.446,0.00808471,0.0959468,20.8864,47.7987,-0.419641,0.0,0.0
408,101.75,94.733,114.154,151.263,98.7229,104.122,0.00778415,0.0936656,20.8887,47.9088,-0.478846,0.0,0.0
416,103.75,92.8662,112.252,150.496,98.7312,102.925,0.00747404,0.0918631,20.8901,47.8888,-0.374058,0.0,0.0
424,105.75,90.9613,109.714,151.104,98.7189,103.243,0.00713169,0.0900332,20.8931,47.8488,-0.402975,0.0,0.0
432,107.75,89.4702,107.538,155.279,98.7153,103.591,0.00672314,0.088151,20.8968,47.8187,-0.433576,0.0,0.0
440,109.75,86.9779,105.147,155.838,98.7029,102.596,0.00632017,0.0855673,20.9003,47.8187,-0.347896,0.0,0.0
448,111.75,85.6684,103.51,153.678,98.7005,103.435,0.00604728,0.0831911,20.9027,47.8187,-0.421317,0.0,0.0
456,113.75,84.1158,101.546,155.08,98.6874,102.927,0.00576916,0.0810607,20.9061,47.8287,-0.37829,0.0,0.0
464,115.75,83.1218,99.8804,156.237,98.6786,103.027,0.00536631,0.0790734,20.9083,47.7787,-0.387826,0.0,0.0
472,117.75,81.1934,97.9399,154.487,98.6635,102.952,0.00505931,0.0767279,20.9112,47.6886,-0.382624,0.0,0.0
480,119.75,80.0639,96.3633,155.863,98.6543,103.733,0.00475195,0.0743241,20.9139,47.7387,-0.451397,0.0,0.0
488,121.75,78.8539,94.2335,155.761,98.6336,103.32,0.00443288,0.0719392,20.9182,47.7387,-0.417431,0.0,0.0
496,123.75,78.0338,93.1801,157.954,98.6088,103.712,0.00404617,0.0694758,20.9208,47.7387,-0.45379,0.0,0.0
504,125.75,77.0491,92.0037,155.59,98.6041,103.048,0.00381753,0.0671429,20.9245,47.6886,-0.396463,0.0,0.0
512,127.75,75.2199,89.8887,157.771,98.5734,102.48,0.00357545,0.0647803,20.9281,47.6086,-0.349557,0.0,0.0
520,129.75,74.3621,89.063,153.768,98.5901,103.226,0.00327856,0.0628295,20.9304,47.6386,-0.413228,0.0,0.0
528,131.75,73.5878,87.2383,154.481,98.5582,102.824,0.00296076,0.0612496,20.9318,47.6986,-0.381048,0.0,0.0
536,133.75,72.7788,85.79,152.707,98.5502,103.037,0.00270643,0.0596312,20.9347,47.7287,-0.400395,0.0,0.0
544,135.75,71.6657,84.8172,152.878,98.5415,102.943,0.00252007,0.0579083,20.9359,47.6686,-0.392929,0.0,0.0
552,137.75,70.8963,83.0298,154.746,98.5251,103.028,0.00233541,0.0567545,20.9376,47.7086,-0.401904,0.0,0.0
560,139.75,70.5622,82.4969,157.613,98.5151,102.377,0.00207938,0.0555316,20.9398,47.7287,-0.34577,0.0,0.0
568,141.75,70.0496,81.5565,159.194,98.5227,101.897,0.00178035,0.0544307,20.9408,47.7587,-0.302809,0.0,0.0
576,143.75,68.9454,80.5049,156.951,98.5016,102.364,0.00153807,0.0534892,20.9414,47.6986,-0.345904,0.0,0.0
584,145.75,68.4308,79.7021,155.555,98.49,102.659,0.00134778,0.0525816,20.9428,47.6786,-0.372818,0.0,0.0
592,147.75,67.8891,78.4761,150.543,98.4912,102.788,0.00122204,0.0519782,20.9434,47.7287,-0.384022,0.0,0.0
600,149.75,66.5422,77.5574,151.086,98.484,102.582,0.00114063,0.0515159,20.9437,47.7487,-0.366602,0.0,0.0
608,151.75,66.4963,76.4004,157.84,98.4697,103.312,0.00103275,0.0512543,20.9442,47.7086,-0.431681,0.0,0.0
616,153.75,65.8512,75.989,154.155,98.4721,102.745,0.000890368,0.0507903,20.9454,47.7086,-0.382,0.0,0.0
624,155.75,65.4412,74.9954,155.948,98.4737,101.622,0.000791038,0.0503272,20.9459,47.7387,-0.28298,0.0,0.0
632,157.75,65.0214,74.5399,152.445,98.4848,101.951,0.000685346,0.0499674,20.9467,47.7287,-0.311096,0.0,0.0
640,159.75,64.0657,73.5965,159.346,98.4785,102.498,0.000526828,0.0497282,20.9478,47.6886,-0.359793,0.0,0.0
648,161.75,63.8203,72.8447,157.382,98.4876,102.52,0.000430795,0.0493612,20.9482,47.7187,-0.360844,0.0,0.0
656,163.75,63.9656,72.2059,154.775,98.4936,101.78,0.00043053,0.0490337,20.9484,47.7287,-0.295204,0.0,0.0
664,165.75,63.1574,70.7947,153.125,98.4836,102.39,0.000510841,0.0486644,20.9485,47.7387,-0.349828,0.0,0.0
672,167.75,62.4242,70.4732,161.123,98.4944,102.181,0.000592809,0.0484818,20.9486,47.6786,-0.330463,0.0,0.0
680,169.75,62.6667,70.0306,154.539,98.4992,102.335,0.000659897,0.0482846,20.9486,47.7086,-0.343599,0.0,0.0
688,171.75,62.0829,69.0097,157.48,98.5068,103.006,0.000664719,0.0480791,20.9486,47.6886,-0.401659,0.0,0.0
696,173.75,61.6012,68.8842,155.061,98.5112,102.549,0.000642088,0.0479076,20.9486,47.6186,-0.361255,0.0,0.0
704,175.75,61.5125,68.4703,155.611,98.5052,103.086,0.000595231,0.0477953,20.9486,47.6986,-0.408775,0.0,0.0
712,177.75,60.1403,67.5941,155.929,98.5239,103.396,0.000560381,0.0477029,20.9486,47.6786,-0.43403,0.0,0.0
720,179.75,60.7778,66.9962,155.042,98.5151,102.348,0.000656599,0.0476518,20.9486,47.7187,-0.343207,0.0,0.0
728,181.75,60.2506,66.0365,155.208,98.5132,102.171,,0.0475588,,47.6686,-0.327883,0.0,0.0
736,183.75,60.2312,66.2261,158.115,98.5215,102.933,,0.0474263,,47.6986,-0.393926,0.0,0.0
744,185.75,59.7831,65.7428,156.338,98.5311,102.21,,,,47.6986,-0.329641,0.0,0.0
752,187.75,59.4538,64.8836,155.319,98.5299,102.064,,,,47.6886,-0.316911,0.0,0.0
760,189.75,59.201,64.7622,153.181,98.5466,102.079,,,,47.7086,-0.316687,0.0,0.0
768,191.75,59.3397,64.4801,153.749,98.5678,101.793,,,,47.6586,-0.289585,0.0,0.0

File: Memory_Foam_Carpet_Pad_Cone_HF75Scalar_220921_R1.csv
LABORATORY,FSRI
TEST IDENT,MFCP_HF75_1
OPERATOR,Dow
MATERIAL,Memory foam carpet pad
ORIENTATION,Horizontal
HEAT FLUX,75
SURF AREA,0.01
C FACTOR,0.0390239
SPEC HOLDER DIFF,-566
SPECIMEN MASS,16.54
SCAN TIME,0.25
O2 DELAY TIME,11
CO DELAY TIME,11
CO2 DELAY TIME,8
FLOW FACTOR,1
SCAN COUNT,692
TIME TO IGN,1.5
END OF TEST SCAN,212
END OF TEST TIME,53
TEST STATUS,1
PRE TEST CMT,Dimensions: 103.55 x 100.60 x 12.65 mm
POST TEST CMT,"Corners of foil pan lifted upwards during fire decay stage, beginning less than 5 seconds before flames extinguished. "

File: Memory_Foam_Carpet_Pad_Cone_HF75Scalar_220922_R2.csv
LABORATORY,FSRI
TEST IDENT,MFCP_HF75_2
OPERATOR,Dow
MATERIAL,Memory foam carpet pad
ORIENTATION,Horizontal
HEAT FLUX,75
SURF AREA,0.01
C FACTOR,0.0390239
SPEC HOLDER DIFF,-566
SPECIMEN MASS,16.29
SCAN TIME,0.25
O2 DELAY TIME,11
CO DELAY TIME,11
CO2 DELAY TIME,8
FLOW FACTOR,1
SCAN COUNT,701
TIME TO IGN,1.5
END OF TEST SCAN,221
END OF TEST TIME,55.25
TEST STATUS,1
PRE TEST CMT,Dimensions: 102.09 x 99.55 x 12.75 mm
POST TEST CMT,"Corners of foil pan lifted upwards during fire decay stage, beginning less than 5 seconds before flames extinguished. "

File: Memory_Foam_Carpet_Pad_Cone_HF75Scalar_220922_R3.csv
LABORATORY,FSRI
TEST IDENT,MFCP_HF75_3
OPERATOR,Dow
MATERIAL,Memory foam carpet pad
ORIENTATION,Horizontal
HEAT FLUX,75
SURF AREA,0.01
C FACTOR,0.0390239
SPEC HOLDER DIFF,-566
SPECIMEN MASS,15.5
SCAN TIME,0.25
O2 DELAY TIME,11
CO DELAY TIME,11
CO2 DELAY TIME,8
FLOW FACTOR,1
SCAN COUNT,675
TIME TO IGN,1.25
END OF TEST SCAN,195
END OF TEST TIME,48.75
TEST STATUS,1
PRE TEST CMT,Dimensions: 100.51 x 102.80 x 12.52 mm
POST TEST CMT,"Corners of foil pan lifted upwards during fire decay stage, beginning less than 5 seconds before flames extinguished. "