Folder: fsri_materials_database/01_Data/Memory_Foam_Carpet_Pad/HFM

Note: 01_Data/README.md
# Materials and Products Database
## 01_Data

Raw data generated from each apparatus are included here in plain-text format. The data is organized first by material, next by the short name of test apparatus used, and where applicable additional filtering by test settings.

### material.json

Each material directory contains a json file of the same name as the material. This file links the data stored in the repository as well as data and graphs produced by the accompanying scripts (__02_Scripts__) to the respective landing page for the material on the front-end website.

File: Memory_Foam_Carpet_Pad_Density_Dry_R1.csv
,Memory_Foam_Carpet_Pad_DRY_1
Sample Mass [g],72.8
Sample Volume [cm3],535.6
Sample Density [kg/m3],136

File: Memory_Foam_Carpet_Pad_Density_Dry_R2.csv
,Memory_Foam_Carpet_Pad_DRY_2
Sample Mass [g],71.3
Sample Volume [cm3],523.0
Sample Density [kg/m3],136

File: Memory_Foam_Carpet_Pad_Density_Dry_R3.csv
,Memory_Foam_Carpet_Pad_DRY_3
Sample Mass [g],70.9
Sample Volume [cm3],546.7
Sample Density [kg/m3],130

File: Memory_Foam_Carpet_Pad_Density_Wet_R1.csv
,Memory_Foam_Carpet_Pad_WET_1
Sample Mass [g],73.1
Sample Volume [cm3],535.6
Sample Density [kg/m3],136

File: Memory_Foam_Carpet_Pad_Density_Wet_R2.csv
,Memory_Foam_Carpet_Pad_WET_2
Sample Mass [g],71.4
Sample Volume [cm3],523.0
Sample Density [kg/m3],137

File: Memory_Foam_Carpet_Pad_Density_Wet_R3.csv
,Memory_Foam_Carpet_Pad_WET_3
Sample Mass [g],71.1
Sample Volume [cm3],546.7
Sample Density [kg/m3],130