Folder: fsri_materials_database/01_Data/Memory_Foam_Carpet_Pad/MCC (part 2)

File: Memory_Foam_Carpet_Pad_MCC_30K_min_211102_R3.txt
Sample ID:	C:\MCC\MCC Cal\Test\Memory_Foam_Carpet_Pad_MCC_30K_min_211102_R3.txt
Sample Weight (mg):	4.25
Heating Rate (C/s):	0.5
Combustor Temp (C):	900
N2 Flow Rate (cc/min):	80
O2 Flow Rate (cc/min):	20
Calibration File:	C:\MCC\MCC Cal\Coeff1 JN10440_30_210304.txt.txt
T Correction Coefficients:	0	1.024463	0
Time Shift (s):	14
*
Time (s)	Temperature (C)	N2 flow rate (cc/min)	O2 flow rate (cc/min)	Flow Rate (cc/min)	Oxygen (%)	HRR (W/g)	Heating rate (C/s)
-0.001	108.208	80.003	19.994	103.062	20.143	-0.039	-0.000
8.000	108.139	80.003	19.994	103.065	20.138	0.315	-0.040
15.999	108.182	80.003	19.995	103.074	20.138	0.332	-0.008
24.000	108.283	80.004	19.994	103.112	20.129	0.960	0.013
31.999	108.708	80.004	19.996	103.250	20.106	2.745	0.076
39.999	109.711	80.005	19.995	103.236	20.107	2.641	0.148
47.999	111.028	80.007	19.993	103.223	20.105	2.772	0.198
55.999	112.632	80.003	19.993	103.236	20.102	2.995	0.192
63.999	114.497	80.002	19.995	103.259	20.097	3.419	0.268
72.000	116.650	80.003	19.994	103.296	20.094	3.666	0.284
79.999	119.097	80.002	19.994	103.299	20.090	3.965	0.317
87.999	121.841	80.002	19.994	103.308	20.090	3.913	0.390
95.999	124.758	80.003	19.995	103.295	20.086	4.252	0.383
103.999	127.869	80.005	19.994	103.296	20.086	4.265	0.392
112.000	131.156	80.004	19.994	103.310	20.082	4.546	0.394
119.999	134.572	80.003	19.995	103.301	20.084	4.374	0.442
127.999	138.143	80.004	19.994	103.298	20.085	4.293	0.480
136.000	141.789	80.005	19.993	103.302	20.083	4.504	0.420
144.000	145.591	80.003	19.994	103.301	20.081	4.650	0.500
152.000	149.447	80.004	19.994	103.296	20.078	4.846	0.461
160.000	153.267	80.003	19.995	103.295	20.078	4.881	0.465
168.000	157.187	80.003	19.994	103.290	20.076	5.029	0.504
176.000	161.091	80.005	19.995	103.272	20.070	5.432	0.511
184.000	165.051	80.005	19.994	103.285	20.066	5.747	0.490
192.000	169.057	80.005	19.994	103.272	20.067	5.712	0.511
200.000	173.049	80.004	19.994	103.271	20.065	5.859	0.510
208.000	177.074	80.004	19.995	103.265	20.059	6.312	0.504
216.000	181.077	80.005	19.994	103.258	20.054	6.632	0.467
224.000	185.120	80.003	19.994	103.257	20.051	6.897	0.537
232.000	189.152	80.004	19.994	103.258	20.044	7.410	0.492
240.000	193.202	80.005	19.995	103.256	20.038	7.895	0.492
248.000	197.165	80.004	19.994	103.252	20.030	8.521	0.501
256.000	201.171	80.004	19.994	103.245	20.026	8.756	0.481
264.000	205.113	80.002	19.994	103.245	20.021	9.177	0.496
272.000	209.138	80.004	19.993	103.243	20.006	10.336	0.492
280.000	213.096	80.003	19.995	103.242	19.998	10.941	0.495
288.000	217.019	80.003	19.995	103.239	19.984	11.953	0.503
296.000	220.967	80.006	19.994	103.234	19.969	13.072	0.502
304.000	224.968	80.005	19.994	103.219	19.951	14.464	0.494
312.000	228.924	80.003	19.995	103.248	19.926	16.388	0.490
320.000	232.828	80.002	19.996	103.237	19.902	18.184	0.484
328.000	236.810	80.004	19.993	103.244	19.874	20.314	0.478
336.000	240.673	80.003	19.995	103.261	19.838	23.059	0.465
344.000	244.624	80.003	19.995	103.262	19.800	25.922	0.476
352.000	248.607	80.003	19.995	103.262	19.757	29.158	0.493
360.000	252.660	80.006	19.993	103.280	19.709	32.800	0.507
368.000	256.588	80.005	19.994	103.296	19.655	36.914	0.474
376.000	260.608	80.006	19.995	103.304	19.608	40.520	0.502
384.000	264.578	80.006	19.995	103.328	19.557	44.391	0.512
392.000	268.611	80.003	19.995	103.332	19.514	47.660	0.510
400.000	272.708	80.003	19.995	103.337	19.487	49.674	0.486
408.000	276.754	80.003	19.995	103.331	19.503	48.464	0.521
416.000	280.741	80.002	19.995	103.325	19.558	44.285	0.492
424.000	284.710	80.002	19.995	103.302	19.616	39.900	0.485
432.000	288.718	80.002	19.995	103.297	19.622	39.409	0.524
440.000	292.652	80.007	19.993	103.301	19.615	39.938	0.505
448.000	296.653	80.005	19.994	103.298	19.604	40.803	0.506
456.000	300.641	80.003	19.994	103.304	19.601	41.043	0.506
464.000	304.709	80.006	19.994	103.301	19.596	41.378	0.535
472.000	308.740	80.004	19.994	103.301	19.606	40.627	0.509
480.000	312.841	80.003	19.995	103.296	19.613	40.116	0.530
488.000	316.947	80.003	19.994	103.292	19.612	40.178	0.575
496.000	320.936	80.003	19.995	103.293	19.599	41.178	0.539
504.000	325.028	80.003	19.996	103.275	19.576	42.913	0.505
512.000	329.028	80.002	19.996	103.266	19.550	44.884	0.502
520.000	333.029	80.005	19.994	103.285	19.527	46.641	0.504
528.000	337.107	80.004	19.994	103.270	19.506	48.209	0.530
536.000	341.165	80.004	19.993	103.260	19.490	49.382	0.521
544.000	345.161	80.005	19.995	103.251	19.484	49.885	0.503
552.000	349.107	80.007	19.994	103.243	19.475	50.574	0.492
560.000	353.102	80.004	19.994	103.237	19.455	52.033	0.488
568.000	356.982	80.003	19.995	103.234	19.427	54.194	0.490
576.000	360.807	80.003	19.995	103.241	19.371	58.453	0.480
584.000	364.685	80.003	19.995	103.241	19.290	64.574	0.464
592.000	368.498	80.003	19.995	103.238	19.181	72.811	0.488
600.000	372.443	80.002	19.996	103.238	19.052	82.636	0.471
608.000	376.560	80.007	19.995	103.249	18.902	93.952	0.530
616.000	380.786	80.005	19.994	103.242	18.732	106.833	0.508
624.000	385.052	80.007	19.994	103.233	18.549	120.720	0.583
632.000	389.305	80.006	19.995	103.221	18.369	134.324	0.536
640.000	393.591	80.006	19.994	103.214	18.225	145.211	0.547
648.000	397.829	80.002	19.995	103.182	18.159	150.122	0.528
656.000	402.045	80.003	19.994	103.144	18.194	147.461	0.528
664.000	406.198	80.005	19.994	103.111	18.340	136.392	0.515
672.000	410.361	80.005	19.996	103.103	18.572	118.855	0.515
680.000	414.383	80.004	19.995	103.100	18.837	98.788	0.501
688.000	418.454	80.006	19.995	103.104	19.097	79.116	0.497
696.000	422.412	80.005	19.995	103.100	19.332	61.335	0.472
704.000	426.379	80.007	19.996	103.115	19.521	47.006	0.493
712.000	430.321	80.007	19.995	103.130	19.676	35.292	0.473
720.000	434.359	80.006	19.994	103.145	19.787	26.886	0.526
728.000	438.369	80.003	19.994	103.157	19.860	21.373	0.464
736.000	442.346	80.003	19.994	103.158	19.907	17.802	0.504
744.000	446.392	80.005	19.994	103.148	19.939	15.381	0.513
752.000	450.430	80.006	19.994	103.174	19.958	13.919	0.499
760.000	454.491	80.005	19.995	103.169	19.966	13.296	0.515
768.000	458.570	80.006	19.995	103.163	19.967	13.249	0.504
776.000	462.626	80.005	19.993	103.157	19.962	13.609	0.489
784.000	466.708	80.004	19.996	103.156	19.951	14.494	0.505
792.000	470.729	80.005	19.996	103.155	19.943	15.044	0.501
800.000	474.789	80.006	19.994	103.142	19.933	15.828	0.525
808.000	478.852	80.005	19.995	103.149	19.927	16.299	0.532
816.000	482.926	80.005	19.995	103.155	19.931	15.975	0.521
824.000	487.027	80.005	19.996	103.153	19.944	14.959	0.540
832.000	491.219	80.005	19.992	103.139	19.971	12.937	0.519
840.000	495.439	80.004	19.995	103.157	20.001	10.640	0.529
848.000	499.614	80.004	19.994	103.165	20.027	8.731	0.497
856.000	503.781	80.005	19.995	103.145	20.050	6.972	0.483
864.000	507.879	80.004	19.995	103.161	20.060	6.220	0.504
872.000	511.928	80.004	19.995	103.186	20.066	5.783	0.510
880.000	515.954	80.007	19.996	103.171	20.068	5.574	0.490
888.000	519.988	80.005	19.995	103.148	20.069	5.511	0.493
896.000	523.971	80.005	19.995	103.165	20.070	5.416	0.507
904.000	528.019	80.004	19.994	103.165	20.072	5.298	0.517
912.000	532.150	80.005	19.995	103.168	20.068	5.625	0.540
920.000	536.202	80.003	19.994	103.157	20.071	5.406	0.494
928.000	540.299	80.003	19.996	103.177	20.066	5.752	0.515
936.000	544.325	80.006	19.994	103.165	20.067	5.652	0.468
944.000	548.397	80.005	19.993	103.156	20.071	5.411	0.505
952.000	552.444	80.005	19.995	103.146	20.078	4.868	0.494
960.000	556.492	80.008	19.995	103.173	20.075	5.071	0.482
968.000	560.481	80.007	19.995	103.152	20.069	5.517	0.471
976.000	564.521	80.005	19.996	103.164	20.072	5.267	0.493
984.000	568.588	80.004	19.995	103.165	20.071	5.400	0.526
992.000	572.658	80.006	19.996	103.171	20.071	5.373	0.521
1000.000	576.858	80.004	19.995	103.174	20.072	5.278	0.523
1008.000	581.055	80.003	19.994	103.173	20.071	5.372	0.516
1016.000	585.298	80.005	19.995	103.176	20.066	5.725	0.531
1024.000	589.516	80.006	19.995	103.156	20.073	5.234	0.529
1032.000	593.658	80.006	19.995	103.157	20.073	5.191	0.559
1039.999	597.772	80.005	19.995	103.175	20.074	5.148	0.558
1047.999	601.993	80.006	19.995	103.158	20.077	4.918	0.521
1055.999	606.113	80.005	19.994	103.149	20.072	5.335	0.486
1063.999	610.133	80.005	19.996	103.150	20.071	5.397	0.501
1071.999	614.096	80.004	19.995	103.163	20.069	5.493	0.504
1079.999	618.046	80.005	19.995	103.165	20.071	5.409	0.498
1087.999	621.994	80.003	19.994	103.169	20.071	5.402	0.519
1095.999	625.934	80.004	19.995	103.164	20.070	5.449	0.483
1103.999	629.897	80.007	19.994	103.148	20.072	5.284	0.502
1111.999	633.862	80.006	19.995	103.171	20.069	5.560	0.474
1119.999	637.904	80.005	19.994	103.167	20.068	5.605	0.496
1127.999	641.970	80.007	19.994	103.152	20.071	5.380	0.510
1135.999	645.905	80.008	19.994	103.146	20.069	5.509	0.487
1143.999	649.882	80.001	19.994	103.163	20.071	5.373	0.488
1151.999	653.930	80.003	19.994	103.172	20.063	5.977	0.557
1159.999	658.037	80.006	19.996	103.172	20.066	5.768	0.564
1167.999	661.968	80.003	19.996	103.163	20.062	6.077	0.528
1175.999	665.990	80.005	19.996	103.177	20.064	5.899	0.541
1183.999	670.090	80.003	19.994	103.182	20.063	6.019	0.493
1191.999	674.286	80.004	19.992	103.181	20.068	5.612	0.517
1199.999	678.540	80.003	19.992	103.163	20.066	5.742	0.548
1207.999	682.661	80.005	19.993	103.170	20.068	5.616	0.524
1215.999	686.786	80.009	19.994	103.152	20.069	5.512	0.505
1223.999	690.809	80.005	19.994	103.146	20.071	5.370	0.519
1231.999	694.897	80.002	19.995	103.159	20.064	5.944	0.535
1239.999	699.156	80.002	19.996	103.145	20.064	5.880	0.515
1247.999	703.556	80.005	19.994	103.161	20.065	5.813	0.538
1256.001	707.997	80.002	19.994	103.150	20.068	5.617	0.552
1263.999	712.498	80.007	19.996	103.161	20.063	5.967	0.565
1271.999	716.997	80.007	19.995	103.134	20.063	5.945	0.550
1279.999	721.294	80.003	19.994	103.140	20.065	5.812	0.515
1287.999	725.549	80.006	19.994	103.141	20.064	5.913	0.529
1295.999	729.762	80.005	19.994	103.140	20.058	6.340	0.515
1303.999	733.898	80.006	19.995	103.138	20.059	6.286	0.536
1311.999	737.990	80.003	19.994	103.144	20.064	5.891	0.545
1320.000	742.086	80.003	19.994	103.142	20.061	6.163	0.538
1322.999	743.613	80.001	19.994	103.142	20.062	6.050	0.536