Folder: fsri_materials_database/01_Data/Memory_Foam_Carpet_Pad/MCC

Note: 01_Data/README.md
# Materials and Products Database
## 01_Data

Raw data generated from each apparatus are included here in plain-text format. The data is organized first by material, next by the short name of test apparatus used, and where applicable additional filtering by test settings.

### material.json

Each material directory contains a json file of the same name as the material. This file links the data stored in the repository as well as data and graphs produced by the accompanying scripts (__02_Scripts__) to the respective landing page for the material on the front-end website.

File: Memory_Foam_Carpet_Pad_MCC_30K_min_211102_R1.txt
Sample ID:	C:\MCC\MCC Cal\Test\Memory_Foam_Carpet_Pad_MCC_30K_min_211102_R1.txt
Sample Weight (mg):	4.76
Heating Rate (C/s):	0.5
Combustor Temp (C):	900
N2 Flow Rate (cc/min):	80
O2 Flow Rate (cc/min):	20
Calibration File:	C:\MCC\MCC Cal\Coeff1 JN10440_30_210304.txt.txt
T Correction Coefficients:	0	1.024463	0
Time Shift (s):	14
*
Time (s)	Temperature (C)	N2 flow rate (cc/min)	O2 flow rate (cc/min)	Flow Rate (cc/min)	Oxygen (%)	HRR (W/g)	Heating rate (C/s)
0.000	107.195	80.006	19.995	103.056	20.147	-0.506	0.009
8.000	107.172	80.005	19.994	103.061	20.144	-0.272	0.016
16.000	107.146	80.006	19.994	103.056	20.149	-0.596	0.003
24.000	107.100	80.005	19.994	103.065	20.143	-0.245	-0.002
32.001	107.171	80.003	19.996	103.113	20.134	0.422	0.017
40.000	107.402	80.003	19.995	103.185	20.126	0.945	0.051
48.000	108.012	80.003	19.994	103.226	20.110	2.007	0.063
56.000	109.065	80.003	19.996	103.252	20.106	2.275	0.170
64.000	110.532	80.004	19.996	103.269	20.101	2.648	0.212
72.001	112.313	80.005	19.995	103.299	20.098	2.860	0.252
80.000	114.541	80.006	19.994	103.309	20.092	3.262	0.317
88.001	116.984	80.004	19.994	103.312	20.094	3.126	0.284
96.001	119.840	80.004	19.993	103.336	20.086	3.635	0.357
104.001	122.969	80.005	19.994	103.338	20.087	3.582	0.398
112.000	126.283	80.004	19.994	103.334	20.086	3.619	0.433
120.001	129.762	80.003	19.996	103.329	20.088	3.525	0.437
128.000	133.403	80.004	19.996	103.338	20.087	3.583	0.455
136.000	137.250	80.005	19.995	103.319	20.084	3.751	0.514
144.000	141.130	80.003	19.995	103.325	20.084	3.786	0.496
152.000	145.078	80.003	19.996	103.309	20.084	3.771	0.509
160.000	149.037	80.004	19.995	103.299	20.085	3.721	0.511
168.000	153.051	80.003	19.994	103.315	20.084	3.767	0.495
176.000	156.962	80.004	19.995	103.299	20.080	4.042	0.471
184.000	160.950	80.004	19.994	103.279	20.080	4.015	0.480
192.000	164.917	80.006	19.994	103.275	20.078	4.179	0.490
200.000	168.814	80.004	19.994	103.267	20.074	4.477	0.465
208.000	172.781	80.004	19.995	103.265	20.068	4.864	0.467
216.000	176.656	80.004	19.996	103.271	20.068	4.881	0.503
224.000	180.508	80.003	19.995	103.264	20.063	5.222	0.439
232.000	184.446	80.003	19.995	103.262	20.060	5.399	0.497
240.000	188.377	80.004	19.995	103.263	20.056	5.677	0.481
248.000	192.245	80.005	19.996	103.257	20.046	6.318	0.502
256.000	196.136	80.004	19.996	103.249	20.040	6.781	0.462
264.000	200.040	80.005	19.996	103.252	20.032	7.260	0.526
272.000	203.942	80.005	19.996	103.256	20.027	7.627	0.511
280.000	207.919	80.004	19.994	103.260	20.016	8.399	0.478
288.000	211.823	80.003	19.995	103.255	20.004	9.203	0.443
296.000	215.799	80.005	19.995	103.259	19.986	10.373	0.506
304.000	219.810	80.004	19.995	103.261	19.972	11.381	0.511
312.000	223.796	80.002	19.995	103.258	19.949	12.917	0.511
320.000	227.798	80.005	19.995	103.263	19.926	14.454	0.510
328.000	231.910	80.005	19.994	103.261	19.897	16.455	0.511
336.000	236.015	80.005	19.995	103.264	19.861	18.878	0.479
344.000	240.038	80.004	19.996	103.260	19.822	21.487	0.513
352.000	244.085	80.006	19.995	103.279	19.781	24.295	0.502
360.000	248.083	80.003	19.994	103.286	19.732	27.583	0.505
368.000	252.135	80.005	19.995	103.297	19.680	31.145	0.500
376.000	256.161	80.004	19.995	103.324	19.616	35.442	0.531
384.000	260.297	80.004	19.995	103.329	19.557	39.449	0.513
392.000	264.336	80.005	19.996	103.339	19.504	43.055	0.530
400.000	268.470	80.003	19.994	103.341	19.462	45.909	0.520
408.000	272.636	80.005	19.994	103.365	19.450	46.711	0.545
416.000	276.767	80.003	19.996	103.340	19.476	44.990	0.500
424.000	280.799	80.006	19.995	103.334	19.533	41.130	0.509
432.000	284.836	80.005	19.995	103.333	19.594	36.944	0.490
440.000	288.900	80.005	19.996	103.333	19.593	37.051	0.521
448.000	293.080	80.004	19.995	103.334	19.559	39.331	0.521
456.000	297.168	80.004	19.995	103.335	19.536	40.905	0.498
464.000	301.338	80.006	19.994	103.333	19.546	40.218	0.570
472.000	305.439	80.004	19.994	103.336	19.567	38.818	0.494
480.000	309.493	80.004	19.994	103.304	19.577	38.120	0.482
488.000	313.569	80.006	19.995	103.304	19.584	37.660	0.501
496.000	317.585	80.006	19.994	103.304	19.582	37.764	0.501
504.000	321.562	80.002	19.995	103.297	19.568	38.679	0.492
512.000	325.457	80.005	19.995	103.288	19.550	39.939	0.507
520.000	329.439	80.006	19.995	103.282	19.529	41.337	0.534
528.000	333.524	80.002	19.995	103.286	19.496	43.589	0.379
536.000	337.463	80.003	19.995	103.282	19.473	45.147	0.510
544.000	341.400	80.001	19.994	103.267	19.450	46.670	0.487
552.000	345.334	80.002	19.995	103.264	19.433	47.812	0.521
560.000	349.235	80.004	19.995	103.264	19.418	48.835	0.485
568.000	353.232	80.003	19.994	103.262	19.393	50.512	0.496
576.000	357.147	80.006	19.995	103.259	19.354	53.150	0.505
584.000	361.029	80.004	19.994	103.260	19.289	57.573	0.515
592.000	364.904	80.004	19.996	103.245	19.197	63.816	0.493
600.000	368.738	80.006	19.995	103.227	19.082	71.564	0.487
608.000	372.609	80.005	19.995	103.234	18.947	80.697	0.495
616.000	376.528	80.002	19.996	103.253	18.800	90.627	0.489
624.000	380.448	80.003	19.996	103.243	18.633	101.964	0.487
632.000	384.467	80.004	19.996	103.240	18.457	113.874	0.484
640.000	388.589	80.005	19.995	103.228	18.285	125.468	0.508
648.000	392.729	80.005	19.996	103.217	18.141	135.145	0.547
656.000	396.889	80.005	19.995	103.182	18.056	140.866	0.511
664.000	401.139	80.005	19.994	103.155	18.069	139.923	0.521
672.000	405.317	80.005	19.994	103.129	18.188	131.931	0.505
680.000	409.441	80.005	19.994	103.115	18.401	117.528	0.518
688.000	413.548	80.003	19.995	103.110	18.670	99.295	0.536
696.000	417.607	80.004	19.995	103.104	18.952	80.262	0.521
704.000	421.651	80.000	19.995	103.118	19.214	62.582	0.512
712.000	425.659	80.005	19.995	103.108	19.441	47.235	0.507
720.000	429.607	80.001	19.996	103.140	19.619	35.232	0.477
728.000	433.648	80.004	19.997	103.143	19.760	25.684	0.505
736.000	437.624	80.000	19.995	103.147	19.853	19.377	0.504
744.000	441.629	80.004	19.993	103.151	19.913	15.338	0.524
752.001	445.507	80.006	19.995	103.169	19.948	12.934	0.470
760.000	449.390	80.006	19.994	103.157	19.978	10.973	0.474
768.000	453.281	80.008	19.995	103.176	19.990	10.113	0.500
776.000	457.322	80.004	19.994	103.177	19.992	9.999	0.506
784.000	461.542	80.004	19.994	103.176	19.986	10.375	0.516
792.000	465.787	80.004	19.995	103.171	19.974	11.211	0.554
800.000	470.081	80.003	19.996	103.159	19.967	11.673	0.564
808.000	474.404	80.002	19.996	103.159	19.956	12.446	0.556
816.000	478.669	80.004	19.996	103.146	19.950	12.828	0.558
824.000	482.851	80.006	19.996	103.155	19.956	12.447	0.488
832.000	487.104	80.004	19.996	103.143	19.970	11.507	0.564
840.000	491.248	80.008	19.995	103.156	19.997	9.645	0.511
848.000	495.436	80.007	19.993	103.162	20.028	7.541	0.493
856.000	499.596	80.004	19.994	103.164	20.061	5.305	0.512
864.000	503.696	80.003	19.993	103.175	20.081	3.985	0.530
872.000	507.815	80.004	19.998	103.182	20.093	3.178	0.496
880.000	511.893	80.004	19.996	103.168	20.102	2.582	0.536
888.000	516.034	80.005	19.994	103.171	20.102	2.554	0.529
896.000	520.160	80.004	19.995	103.171	20.105	2.330	0.535
904.000	524.194	80.005	19.995	103.174	20.105	2.320	0.510
912.000	528.255	80.004	19.995	103.163	20.107	2.237	0.494
920.000	532.351	80.003	19.995	103.163	20.107	2.193	0.528
928.000	536.425	80.006	19.994	103.168	20.106	2.292	0.518
936.000	540.396	80.004	19.993	103.155	20.112	1.893	0.475
944.000	544.311	80.003	19.994	103.157	20.116	1.637	0.466
952.000	548.323	80.004	19.994	103.173	20.109	2.074	0.497
960.000	552.417	80.005	19.994	103.176	20.113	1.780	0.479
968.000	556.561	80.004	19.997	103.172	20.111	1.948	0.523
976.000	560.575	80.003	19.997	103.161	20.110	2.038	0.480
984.000	564.619	80.007	19.993	103.153	20.113	1.781	0.503
992.000	568.749	80.004	19.996	103.167	20.112	1.889	0.548
1000.000	572.825	80.004	19.995	103.148	20.111	1.963	0.469
1008.000	576.999	80.007	19.997	103.176	20.112	1.873	0.508
1016.000	581.186	80.007	19.996	103.165	20.118	1.479	0.529
1024.000	585.350	80.004	19.996	103.152	20.118	1.462	0.547
1032.000	589.555	80.004	19.993	103.157	20.116	1.600	0.543
1040.000	593.702	80.004	19.995	103.165	20.115	1.652	0.504
1048.000	597.869	80.004	19.996	103.154	20.120	1.341	0.502
1056.000	601.987	80.003	19.995	103.149	20.115	1.686	0.511
1064.001	606.106	80.005	19.994	103.173	20.116	1.604	0.517
1072.000	610.179	80.003	19.995	103.165	20.118	1.486	0.521
1080.000	614.283	80.004	19.996	103.171	20.118	1.493	0.520
1088.000	618.379	80.006	19.997	103.155	20.120	1.313	0.512
1096.000	622.475	80.006	19.994	103.147	20.115	1.650	0.543
1104.000	626.504	80.005	19.996	103.154	20.118	1.449	0.479
1112.000	630.506	80.004	19.994	103.160	20.121	1.237	0.519
1120.001	634.460	80.004	19.995	103.162	20.120	1.335	0.472
1128.000	638.408	80.003	19.995	103.156	20.121	1.261	0.478
1136.001	642.352	80.005	19.995	103.164	20.120	1.339	0.500
1144.001	646.274	80.004	19.993	103.164	20.119	1.401	0.502
1152.000	650.272	80.006	19.994	103.169	20.121	1.269	0.502
1160.001	654.372	80.005	19.996	103.173	20.119	1.411	0.518
1168.000	658.457	80.003	19.995	103.180	20.112	1.865	0.523
1176.000	662.581	80.007	19.995	103.179	20.118	1.505	0.534
1184.000	666.618	80.004	19.995	103.178	20.118	1.481	0.497
1192.001	670.784	80.002	19.996	103.178	20.120	1.350	0.530
1200.000	674.891	80.004	19.994	103.182	20.121	1.258	0.503
1208.000	678.975	80.004	19.995	103.181	20.120	1.315	0.502
1216.000	682.966	80.005	19.995	103.175	20.119	1.412	0.510
1224.000	686.941	80.003	19.995	103.174	20.118	1.481	0.506
1232.000	690.799	80.007	19.995	103.160	20.115	1.672	0.449
1240.000	694.744	80.005	19.995	103.162	20.115	1.692	0.524
1248.000	698.662	80.005	19.993	103.151	20.117	1.517	0.461
1256.000	702.649	80.006	19.994	103.144	20.116	1.583	0.526
1264.000	706.631	80.003	19.994	103.159	20.119	1.416	0.525
1272.001	710.711	80.005	19.995	103.149	20.111	1.913	0.544
1280.000	714.807	80.003	19.994	103.158	20.115	1.670	0.502
1288.001	718.881	80.004	19.995	103.144	20.113	1.793	0.524
1296.000	723.019	80.004	19.994	103.162	20.111	1.966	0.501
1304.000	727.168	80.004	19.995	103.150	20.112	1.904	0.545
1312.000	731.283	80.005	19.995	103.149	20.114	1.753	0.530
1320.001	735.262	80.004	19.993	103.156	20.110	2.011	0.491
1328.000	739.309	80.004	19.995	103.166	20.112	1.858	0.481
1336.001	743.345	80.004	19.993	103.139	20.113	1.806	0.466
1337.000	743.850	80.005	19.992	103.143	20.108	2.134	0.498

File: Memory_Foam_Carpet_Pad_MCC_30K_min_211102_R2.txt
Sample ID:	C:\MCC\MCC Cal\Test\Memory_Foam_Carpet_Pad_MCC_30K_min_211102_R2.txt
Sample Weight (mg):	4.45
Heating Rate (C/s):	0.5
Combustor Temp (C):	900
N2 Flow Rate (cc/min):	80
O2 Flow Rate (cc/min):	20
Calibration File:	C:\MCC\MCC Cal\Coeff1 JN10440_30_210304.txt.txt
T Correction Coefficients:	0	1.024463	0
Time Shift (s):	14
*
Time (s)	Temperature (C)	N2 flow rate (cc/min)	O2 flow rate (cc/min)	Flow Rate (cc/min)	Oxygen (%)	HRR (W/g)	Heating rate (C/s)
-0.001	108.284	80.004	19.995	103.051	20.151	0.087	-0.007
8.000	108.236	80.003	19.995	103.066	20.152	0.024	-0.002
16.000	108.269	80.004	19.995	103.118	20.141	0.861	0.018
24.000	108.470	80.004	19.996	103.181	20.133	1.423	0.064
32.000	109.084	80.005	19.994	103.220	20.119	2.394	0.077
39.999	110.085	80.005	19.993	103.252	20.115	2.683	0.149
47.999	111.520	80.003	19.995	103.299	20.106	3.366	0.208
55.999	113.397	80.006	19.992	103.316	20.102	3.636	0.254
63.999	115.713	80.004	19.995	103.331	20.098	3.934	0.314
71.999	118.348	80.002	19.996	103.345	20.098	3.964	0.328
80.000	121.410	80.005	19.994	103.347	20.095	4.126	0.389
87.999	124.792	80.004	19.994	103.345	20.093	4.303	0.428
95.999	128.386	80.001	19.994	103.349	20.094	4.228	0.455
103.999	132.144	80.003	19.994	103.347	20.095	4.183	0.494
112.000	136.013	80.006	19.994	103.343	20.091	4.465	0.470
119.999	140.074	80.004	19.994	103.339	20.091	4.452	0.511
127.999	144.163	80.003	19.995	103.319	20.092	4.404	0.511
136.000	148.315	80.005	19.996	103.326	20.087	4.741	0.536
144.000	152.462	80.005	19.995	103.295	20.089	4.566	0.505
152.000	156.559	80.003	19.995	103.296	20.090	4.548	0.529
160.000	160.605	80.002	19.996	103.293	20.087	4.735	0.504
168.000	164.671	80.004	19.995	103.294	20.086	4.780	0.463
176.000	168.725	80.001	19.994	103.279	20.083	5.042	0.507
184.000	172.743	80.001	19.994	103.268	20.079	5.292	0.522
192.000	176.667	80.004	19.993	103.265	20.076	5.508	0.463
200.000	180.629	80.004	19.994	103.259	20.073	5.725	0.516
208.000	184.574	80.005	19.994	103.261	20.068	6.120	0.528
216.000	188.527	80.005	19.994	103.261	20.064	6.435	0.507
224.000	192.437	80.007	19.994	103.260	20.059	6.756	0.493
232.000	196.312	80.004	19.996	103.259	20.051	7.362	0.475
240.000	200.239	80.003	19.995	103.264	20.043	7.939	0.482
248.000	204.146	80.003	19.995	103.262	20.038	8.296	0.501
256.000	208.156	80.003	19.995	103.256	20.025	9.207	0.486
264.000	212.097	80.002	19.994	103.252	20.021	9.550	0.469
272.000	216.027	80.004	19.995	103.255	20.001	10.967	0.484
280.000	219.995	80.006	19.995	103.255	19.988	11.914	0.501
288.000	223.979	80.005	19.994	103.255	19.975	12.827	0.480
296.000	227.973	80.005	19.995	103.259	19.951	14.579	0.506
304.000	231.978	80.007	19.994	103.258	19.920	16.807	0.475
312.000	235.932	80.006	19.994	103.261	19.894	18.700	0.489
320.000	239.877	80.002	19.995	103.261	19.857	21.425	0.476
328.000	243.894	80.004	19.996	103.263	19.815	24.446	0.465
336.000	247.883	80.004	19.995	103.289	19.775	27.347	0.491
344.000	251.986	80.003	19.994	103.292	19.723	31.096	0.508
352.000	255.891	80.003	19.996	103.304	19.665	35.296	0.494
360.000	259.886	80.004	19.995	103.316	19.611	39.236	0.477
368.000	263.891	80.005	19.994	103.337	19.556	43.212	0.531
376.000	267.894	80.005	19.995	103.339	19.513	46.323	0.513
384.000	271.988	80.006	19.994	103.338	19.493	47.763	0.535
392.000	275.964	80.006	19.995	103.334	19.514	46.268	0.528
400.000	279.934	80.004	19.994	103.335	19.572	42.030	0.496
408.000	283.883	80.004	19.995	103.321	19.627	38.098	0.498
416.000	287.903	80.003	19.994	103.327	19.626	38.143	0.536
424.000	291.951	80.003	19.995	103.340	19.579	41.559	0.520
432.000	295.995	80.003	19.995	103.324	19.574	41.916	0.527
440.000	300.047	80.003	19.995	103.341	19.582	41.324	0.503
448.000	304.150	80.004	19.995	103.317	19.586	40.996	0.480
456.000	308.169	80.005	19.995	103.304	19.602	39.845	0.514
464.000	312.210	80.005	19.995	103.298	19.621	38.506	0.454
472.000	316.351	80.006	19.995	103.298	19.623	38.362	0.509
480.000	320.388	80.003	19.995	103.292	19.604	39.712	0.523
488.000	324.354	80.002	19.995	103.288	19.582	41.333	0.516
496.000	328.342	80.005	19.993	103.301	19.559	42.940	0.509
504.000	332.366	80.003	19.994	103.281	19.534	44.796	0.523
512.000	336.359	80.002	19.995	103.277	19.511	46.456	0.479
520.000	340.380	80.003	19.996	103.276	19.491	47.919	0.483
528.000	344.398	80.005	19.995	103.265	19.475	49.026	0.481
536.000	348.445	80.003	19.995	103.259	19.464	49.837	0.517
544.000	352.510	80.005	19.998	103.260	19.451	50.759	0.529
552.000	356.579	80.006	19.995	103.263	19.420	53.029	0.537
560.000	360.575	80.005	19.995	103.261	19.372	56.516	0.514
568.000	364.577	80.004	19.994	103.264	19.287	62.662	0.485
576.000	368.659	80.004	19.994	103.261	19.178	70.540	0.499
584.000	372.712	80.005	19.994	103.247	19.038	80.643	0.503
592.000	376.776	80.004	19.994	103.239	18.877	92.332	0.491
600.000	380.696	80.005	19.995	103.233	18.700	105.151	0.503
608.000	384.514	80.004	19.995	103.239	18.512	118.728	0.503
616.000	388.723	80.004	19.994	103.225	18.330	131.826	0.501
624.000	392.727	80.002	19.994	103.207	18.186	142.230	0.420
632.000	396.767	80.004	19.995	103.178	18.104	148.093	0.501
640.000	400.794	80.005	19.994	103.147	18.122	146.785	0.485
648.000	404.825	80.002	19.994	103.138	18.239	138.321	0.506
656.000	408.788	80.004	19.994	103.107	18.453	122.841	0.493
664.000	412.789	80.003	19.995	103.108	18.713	104.063	0.492
672.000	416.802	80.002	19.995	103.109	18.978	84.902	0.533
680.000	420.794	80.003	19.995	103.129	19.229	66.772	0.511
688.000	424.813	80.004	19.995	103.124	19.449	50.864	0.505
696.000	428.890	80.004	19.996	103.144	19.632	37.603	0.514
704.000	432.967	80.004	19.996	103.146	19.771	27.619	0.519
712.000	437.063	80.004	19.996	103.157	19.863	20.946	0.520
720.000	441.108	80.005	19.995	103.167	19.932	15.920	0.502
728.000	445.174	80.002	19.996	103.170	19.970	13.191	0.498
736.000	449.285	80.001	19.996	103.165	20.002	10.894	0.531
744.000	453.360	80.004	19.993	103.167	20.017	9.767	0.509
752.000	457.457	80.003	19.994	103.162	20.026	9.144	0.523
760.000	461.553	80.001	19.996	103.166	20.025	9.218	0.517
768.000	465.539	80.001	19.994	103.162	20.023	9.365	0.493
776.000	469.603	80.004	19.992	103.152	20.018	9.749	0.480
784.000	473.682	80.004	19.995	103.154	20.016	9.874	0.507
792.000	477.738	80.005	19.994	103.151	20.013	10.057	0.477
800.000	481.795	80.005	19.995	103.145	20.017	9.826	0.506
808.000	485.864	80.002	19.994	103.145	20.024	9.252	0.521
816.000	489.891	80.004	19.994	103.159	20.043	7.898	0.488
824.000	493.997	80.003	19.997	103.158	20.058	6.859	0.547
832.000	498.055	80.002	19.995	103.153	20.071	5.874	0.532
840.000	502.158	80.003	19.994	103.176	20.085	4.873	0.510
848.000	506.198	80.001	19.995	103.163	20.097	4.022	0.502
856.000	510.285	80.006	19.996	103.147	20.099	3.880	0.510
864.000	514.398	80.001	19.995	103.153	20.103	3.565	0.531
872.000	518.518	80.004	19.994	103.164	20.102	3.659	0.495
880.000	522.667	80.005	19.995	103.160	20.104	3.532	0.487
888.000	526.757	80.003	19.994	103.166	20.101	3.753	0.533
896.000	530.867	80.001	19.996	103.156	20.103	3.608	0.525
904.000	534.996	80.003	19.995	103.156	20.104	3.498	0.516
912.000	539.092	80.003	19.994	103.147	20.105	3.448	0.513
920.000	543.159	80.003	19.996	103.144	20.108	3.224	0.531
928.000	547.191	80.002	19.995	103.202	20.107	3.289	0.509
936.000	551.310	80.005	19.995	103.159	20.105	3.425	0.507
944.000	555.394	80.006	19.994	103.154	20.108	3.216	0.500
952.000	559.496	80.005	19.993	103.148	20.105	3.437	0.518
960.000	563.534	80.006	19.995	103.151	20.107	3.295	0.486
968.000	567.545	80.008	19.998	103.145	20.112	2.910	0.514
976.000	571.600	80.003	19.996	103.108	20.108	3.224	0.525
984.000	575.731	80.002	19.996	103.161	20.113	2.878	0.491
992.000	579.770	80.006	19.995	103.151	20.112	2.944	0.517
1000.000	583.839	80.002	19.998	103.151	20.112	2.905	0.509
1008.000	587.857	80.001	19.996	103.146	20.114	2.755	0.507
1016.000	591.896	80.002	19.993	103.145	20.111	3.005	0.495
1024.000	595.976	80.004	19.994	103.147	20.114	2.743	0.471
1032.000	599.980	80.004	19.996	103.144	20.113	2.883	0.510
1040.000	604.001	80.005	19.993	103.146	20.113	2.883	0.523
1047.999	608.040	80.007	19.994	103.142	20.114	2.755	0.522
1055.999	611.970	80.004	19.995	103.143	20.114	2.791	0.476
1064.000	615.953	80.003	19.994	103.147	20.118	2.525	0.489
1071.999	619.927	80.003	19.994	103.146	20.120	2.375	0.486
1079.999	623.852	80.004	19.998	103.146	20.113	2.885	0.465
1088.000	627.771	80.003	19.994	103.148	20.116	2.669	0.497
1095.999	631.768	80.002	19.996	103.160	20.118	2.519	0.512
1103.999	636.048	80.004	19.996	103.151	20.116	2.633	0.548
1111.999	640.348	80.003	19.996	103.172	20.112	2.921	0.558
1120.000	644.610	80.005	19.995	103.153	20.113	2.850	0.515
1127.999	648.854	80.006	19.996	103.159	20.113	2.878	0.553
1135.999	653.141	80.003	19.994	103.173	20.115	2.713	0.497
1144.000	657.412	80.004	19.994	103.171	20.111	3.030	0.525
1151.999	661.622	80.003	19.995	103.176	20.111	2.961	0.511
1159.999	665.766	80.004	19.995	103.175	20.108	3.243	0.528
1167.999	669.878	80.003	19.997	103.162	20.109	3.110	0.513
1175.999	673.920	80.003	19.995	103.176	20.109	3.122	0.516
1184.000	678.009	80.006	19.995	103.167	20.109	3.163	0.524
1191.999	682.005	80.006	19.997	103.155	20.111	3.002	0.520
1199.999	685.922	80.005	19.995	103.150	20.111	2.990	0.494
1208.000	689.816	80.004	19.994	103.150	20.115	2.671	0.453
1215.999	693.808	80.007	19.995	103.158	20.117	2.568	0.506
1223.999	697.812	80.003	19.995	103.156	20.116	2.651	0.494
1232.000	701.816	80.003	19.996	103.154	20.111	2.964	0.493
1240.000	705.847	80.005	19.996	103.142	20.113	2.853	0.501
1247.999	709.872	80.004	19.994	103.145	20.113	2.867	0.539
1255.999	713.941	80.003	19.995	103.151	20.116	2.598	0.515
1263.999	718.125	80.006	19.996	103.142	20.118	2.460	0.528
1271.999	722.162	80.007	19.996	103.142	20.119	2.391	0.500
1279.999	726.115	80.004	19.995	103.145	20.113	2.877	0.475
1287.999	730.076	80.005	19.995	103.136	20.112	2.944	0.469
1295.999	733.867	80.006	19.994	103.134	20.115	2.735	0.450
1303.999	737.580	80.004	19.995	103.138	20.114	2.745	0.459
1311.999	741.506	80.003	19.994	103.144	20.112	2.915	0.484
1315.999	743.490	80.003	19.997	103.141	20.114	2.759	0.516