Folder: fsri_materials_database/01_Data/Gypsum_Wallboard_Paper/STA/N2/10K_min (part 2)

File: Gypsum_Wallboard_Paper_STA_N2_10KData_220216_R3.csv
##Temp./Â°C,Time/min,Mass loss(subtr.2)/mg,DSC(subtr.2)/(mW/mg),Sensit./(uV/mW)
49.676,10.01,-0.04245,0.02032456,1.07517
52.576,11.2632,-0.04740557,0.12647,1.07366
55.476,11.6882,-0.04903226,0.18271,1.07215
58.376,12.04758,-0.05037247,0.21842,1.07064
61.276,12.38141,-0.05042688,0.24294,1.06913
64.176,12.70294,-0.05198855,0.25956,1.06763
67.076,13.02007,-0.0533,0.27336,1.06612
69.976,13.3328,-0.05460932,0.29061,1.06462
72.876,13.64073,-0.05726335,0.30902,1.06312
75.776,13.9468,-0.05986347,0.3245,1.06161
78.676,14.24921,-0.06179371,0.34453,1.06012
81.576,14.54844,-0.06416746,0.35762,1.05862
84.476,14.8447,-0.06811779,0.37376,1.05712
87.376,15.1382,-0.07107,0.38533,1.05563
90.276,15.43011,-0.07371028,0.39419,1.05413
93.176,15.72085,-0.08556439,0.39824,1.05264
96.076,16.00962,-0.08150012,0.40118,1.05115
98.976,16.2963,-0.0787652,0.40195,1.04966
101.876,16.58142,-0.0828081,0.39944,1.04817
104.776,16.86685,-0.08687333,0.40045,1.04668
107.676,17.14989,-0.08260834,0.39957,1.0452
110.576,17.4326,-0.08530185,0.39536,1.04371
113.476,17.71499,-0.09406684,0.39636,1.04223
116.376,17.99771,-0.09586994,0.39147,1.04075
119.276,18.28015,-0.09608997,0.38736,1.03927
122.176,18.5625,-0.09838841,0.37975,1.03779
125.076,18.84507,-0.10104,0.36906,1.03631
127.976,19.12716,-0.1044,0.35915,1.03483
130.876,19.40961,-0.10465,0.35152,1.03335
133.776,19.6915,-0.10574,0.34253,1.03188
136.676,19.9724,-0.10595,0.3442,1.0304
139.576,20.25282,-0.1053,0.34398,1.02893
142.476,20.53218,-0.10662,0.3449,1.02746
145.376,20.81171,-0.10925,0.34811,1.02599
148.276,21.09049,-0.10757,0.35048,1.02452
151.176,21.3694,-0.10892,0.34968,1.02305
154.076,21.6477,-0.10761,0.35297,1.02158
156.976,21.92675,-0.10892,0.35662,1.02011
159.876,22.20491,-0.10892,0.36072,1.01865
162.776,22.48195,-0.10892,0.36345,1.01718
165.676,22.76073,-0.10925,0.36608,1.01571
168.576,23.03954,-0.1109,0.37012,1.01425
171.476,23.3166,-0.11072,0.37041,1.01278
174.376,23.59461,-0.11221,0.3755,1.01132
177.276,23.8724,-0.1115,0.37822,1.00986
180.176,24.14996,-0.11353,0.38017,1.0084
183.076,24.42735,-0.11418,0.38317,1.00693
185.976,24.70477,-0.11485,0.388,1.00547
188.876,24.9828,-0.1148,0.38932,1.00401
191.776,25.26013,-0.11748,0.39382,1.00255
194.676,25.53761,-0.11748,0.39801,1.00109
197.576,25.81446,-0.1188,0.40295,0.99963
200.476,26.09124,-0.12142,0.40608,0.99816
203.376,26.3682,-0.12076,0.41108,0.9967
206.276,26.6455,-0.12274,0.41056,0.99524
209.176,26.92302,-0.12504,0.41257,0.99378
212.076,27.19933,-0.12504,0.41716,0.99232
214.976,27.4759,-0.12768,0.42277,0.99086
217.876,27.7538,-0.13065,0.42516,0.9894
220.776,28.0327,-0.13196,0.42542,0.98794
223.676,28.30889,-0.13423,0.4275,0.98647
226.576,28.58646,-0.13722,0.43017,0.98501
229.476,28.86393,-0.13985,0.43646,0.98355
232.376,29.14195,-0.14249,0.43653,0.98208
235.276,29.42039,-0.14774,0.44142,0.98062
238.176,29.6972,-0.15306,0.44811,0.97915
241.076,29.9742,-0.15696,0.45102,0.97769
243.976,30.25075,-0.16223,0.45783,0.97622
246.876,30.52729,-0.16762,0.4589,0.97475
249.776,30.8042,-0.176,0.46021,0.97328
252.676,31.0816,-0.18218,0.45782,0.97181
255.576,31.35875,-0.19336,0.45911,0.97034
258.476,31.63575,-0.20329,0.45768,0.96887
261.376,31.9131,-0.21611,0.46215,0.96739
264.276,32.19055,-0.22804,0.46446,0.96592
267.176,32.46784,-0.24302,0.4717,0.96444
270.076,32.74524,-0.25892,0.47871,0.96296
272.976,33.02346,-0.27912,0.48222,0.96148
275.876,33.3016,-0.29902,0.49125,0.96
278.776,33.5798,-0.32322,0.50116,0.95852
281.676,33.85759,-0.34775,0.51024,0.95703
284.576,34.135,-0.37513,0.52453,0.95554
287.476,34.41301,-0.40547,0.53281,0.95406
290.376,34.69101,-0.43979,0.54422,0.95256
293.276,34.96886,-0.47609,0.55456,0.95107
296.176,35.24774,-0.51766,0.56582,0.94957
299.076,35.52633,-0.56084,0.58161,0.94808
301.976,35.80494,-0.60674,0.59449,0.94658
304.876,36.084,-0.65656,0.60694,0.94507
307.776,36.36271,-0.70941,0.62589,0.94357
310.676,36.64117,-0.76676,0.63904,0.94206
313.576,36.92023,-0.82686,0.65414,0.94055
316.476,37.19939,-0.89072,0.66346,0.93904
319.376,37.47886,-0.95726,0.67562,0.93752
322.276,37.7586,-1.0267,0.69075,0.936
325.176,38.03822,-1.10204,0.70872,0.93448
328.076,38.3183,-1.18137,0.72532,0.93295
330.976,38.59868,-1.26418,0.74552,0.93142
333.876,38.87914,-1.35233,0.76654,0.92989
336.776,39.1604,-1.44547,0.79125,0.92836
339.676,39.4407,-1.54452,0.82018,0.92682
342.576,39.72162,-1.65244,0.84394,0.92527
345.476,40.00269,-1.76505,0.87274,0.92373
348.376,40.2838,-1.88527,0.89467,0.92218
351.276,40.56477,-2.0068,0.90479,0.92063
354.176,40.84594,-2.1338,0.90362,0.91907
357.076,41.12677,-2.25854,0.87311,0.91751
359.976,41.40708,-2.37745,0.81519,0.91594
362.876,41.68765,-2.48428,0.72897,0.91437
365.776,41.96743,-2.57558,0.61068,0.9128
368.676,42.24796,-2.6482,0.48654,0.91122
371.576,42.52941,-2.69932,0.36837,0.90964
374.476,42.81025,-2.73187,0.27894,0.90805
377.376,43.09165,-2.75257,0.22611,0.90646
380.276,43.37341,-2.76761,0.19464,0.90487
383.176,43.655,-2.77882,0.18028,0.90327
386.076,43.93718,-2.78961,0.16795,0.90166
388.976,44.21803,-2.79867,0.16262,0.90005
391.876,44.50145,-2.8081,0.15629,0.89844
394.776,44.78461,-2.81532,0.15185,0.89682
397.676,45.06734,-2.82291,0.14714,0.8952
400.576,45.35068,-2.83219,0.14245,0.89357
403.476,45.63395,-2.83949,0.13984,0.89193
406.376,45.91715,-2.84755,0.1403,0.89029
409.276,46.19928,-2.85491,0.13848,0.88865
412.176,46.4818,-2.86426,0.13866,0.887
415.076,46.76566,-2.87075,0.13954,0.88534
417.976,47.04965,-2.87935,0.13726,0.88368
420.876,47.33226,-2.88597,0.13919,0.88201
423.776,47.61591,-2.89397,0.13939,0.88034
426.676,47.9,-2.90219,0.14214,0.87866
429.576,48.1835,-2.90865,0.14435,0.87698
432.476,48.46678,-2.91547,0.14434,0.87529
435.376,48.75098,-2.9216,0.14589,0.8736
438.276,49.036,-2.92718,0.1479,0.87189
441.176,49.32053,-2.93498,0.15256,0.87019
444.076,49.60544,-2.94065,0.15303,0.86847
446.976,49.89028,-2.94587,0.15798,0.86675
449.876,50.17565,-2.95079,0.16256,0.86503
452.776,50.46083,-2.95616,0.1612,0.8633
455.676,50.7463,-2.96285,0.16202,0.86156
458.576,51.03154,-2.96878,0.16159,0.85981
461.476,51.31787,-2.97259,0.162,0.85806
464.376,51.60478,-2.97785,0.16136,0.8563
467.276,51.8918,-2.98378,0.16246,0.85454
470.176,52.1779,-2.98776,0.16387,0.85277
473.076,52.46345,-2.99169,0.16402,0.85099
475.976,52.74856,-2.99432,0.16596,0.84921
478.876,53.0331,-2.99929,0.16312,0.84741
481.776,53.3191,-3.00355,0.16519,0.84562
484.676,53.6045,-3.0074,0.16442,0.84381
487.576,53.89063,-3.01182,0.16569,0.842
490.476,54.1772,-3.01536,0.16572,0.84018
493.376,54.46419,-3.01791,0.16194,0.83836
496.276,54.7492,-3.02091,0.16321,0.83652
499.176,55.0358,-3.02459,0.17115,0.83468
502.076,55.32255,-3.02952,0.17619,0.83284
504.976,55.61169,-3.03216,0.17949,0.83098
507.876,55.89982,-3.03348,0.18181,0.82912
510.776,56.18968,-3.03775,0.18097,0.82725
513.676,56.4778,-3.03913,0.18165,0.82538
516.576,56.76557,-3.04303,0.18633,0.82349
519.476,57.0528,-3.04566,0.18666,0.8216
522.376,57.3398,-3.04829,0.18156,0.8197
525.276,57.6272,-3.05131,0.17598,0.8178
528.176,57.91385,-3.05275,0.16875,0.81588
531.076,58.20135,-3.05651,0.16105,0.81396
533.976,58.4894,-3.05849,0.15398,0.81204
536.876,58.77913,-3.06211,0.14698,0.8101
539.776,59.0678,-3.06597,0.14225,0.80816
542.676,59.3572,-3.06737,0.13647,0.80621
545.576,59.64646,-3.07135,0.12763,0.80425
548.476,59.93561,-3.07151,0.12251,0.80228
551.376,60.22435,-3.07418,0.11638,0.80031
554.276,60.51355,-3.07688,0.11525,0.79833
557.176,60.8039,-3.08053,0.11075,0.79634
560.076,61.09366,-3.08054,0.10974,0.79434
562.976,61.38361,-3.08602,0.10735,0.79234
565.876,61.67341,-3.08613,0.10639,0.79032
568.776,61.96284,-3.08877,0.10506,0.7883
571.676,62.2523,-3.09009,0.10755,0.78627
574.576,62.5419,-3.0914,0.10519,0.78424
577.476,62.8318,-3.09533,0.10309,0.78219
580.376,63.12132,-3.09624,0.10365,0.78014
583.276,63.41105,-3.09827,0.10297,0.77808
586.176,63.70075,-3.1006,0.103,0.77602
589.076,63.99061,-3.10192,0.10525,0.77394
591.976,64.28151,-3.10324,0.10673,0.77186
594.876,64.5728,-3.10623,0.10729,0.76977
597.776,64.86332,-3.10861,0.11179,0.76767
600.676,65.1546,-3.11009,0.11216,0.76556
603.576,65.44649,-3.11213,0.11768,0.76345
606.476,65.7386,-3.11398,0.12219,0.76133
609.376,66.03056,-3.11739,0.12364,0.7592
612.276,66.32167,-3.1187,0.13482,0.75706
615.176,66.6128,-3.12084,0.13847,0.75491
618.076,66.90409,-3.12265,0.14551,0.75276
620.976,67.19536,-3.12561,0.1516,0.7506
623.876,67.48544,-3.12819,0.158,0.74843
626.776,67.7766,-3.12955,0.16306,0.74625
629.676,68.0677,-3.13219,0.16739,0.74407
632.576,68.3601,-3.13483,0.17519,0.74188
635.476,68.6512,-3.13715,0.1804,0.73968
638.376,68.94337,-3.13845,0.19088,0.73747
641.276,69.2343,-3.14271,0.20019,0.73526
644.176,69.5269,-3.14536,0.20605,0.73303
647.076,69.81961,-3.14832,0.20974,0.7308
649.976,70.1121,-3.15227,0.21878,0.72856
652.876,70.40464,-3.1549,0.22226,0.72632
655.776,70.6974,-3.1572,0.2315,0.72407
658.676,70.98977,-3.15984,0.22991,0.72181
661.576,71.28185,-3.16365,0.23487,0.71954
664.476,71.57409,-3.16586,0.22958,0.71726
667.376,71.8665,-3.16835,0.23301,0.71498
670.276,72.1588,-3.17302,0.22778,0.71269
673.176,72.45034,-3.17497,0.22007,0.71039
676.076,72.74271,-3.17877,0.21321,0.70809
678.976,73.03566,-3.18024,0.19719,0.70577
681.876,73.3286,-3.18221,0.18007,0.70346
684.776,73.6219,-3.18484,0.16863,0.70113
687.676,73.914,-3.18617,0.17464,0.6988
690.576,74.2067,-3.18883,0.16808,0.69645
693.476,74.5007,-3.18945,0.1754,0.69411
696.376,74.79346,-3.19219,0.17655,0.69175
699.276,75.08718,-3.1934,0.17728,0.68939
702.176,75.3802,-3.1967,0.17523,0.68702
705.076,75.67345,-3.19789,0.17682,0.68465
707.976,75.96677,-3.19899,0.17404,0.68226
710.876,76.25959,-3.2013,0.17612,0.67987
713.776,76.5525,-3.2028,0.17429,0.67748
716.676,76.84738,-3.20525,0.17688,0.67508
719.576,77.14175,-3.20706,0.17737,0.67267
722.476,77.43607,-3.20755,0.1704,0.67025
725.376,77.72933,-3.21019,0.17647,0.66783
728.276,78.0218,-3.21018,0.17577,0.6654
731.176,78.315,-3.2115,0.17717,0.66297
734.076,78.60637,-3.21413,0.17694,0.66053
736.976,78.8997,-3.21513,0.17317,0.65808
739.876,79.19391,-3.21783,0.17245,0.65563
742.776,79.48816,-3.21677,0.17048,0.65317
745.676,79.78248,-3.21808,0.17068,0.6507
747.776,79.99637,-3.22072,0.17075,0.64891