Folder: fsri_materials_database/01_Data/Gypsum_Wallboard_Paper/STA/N2/30K_min

Note: 01_Data/README.md
# Materials and Products Database
## 01_Data

Raw data generated from each apparatus are included here in plain-text format. The data is organized first by material, next by the short name of test apparatus used, and where applicable additional filtering by test settings.

### material.json

Each material directory contains a json file of the same name as the material. This file links the data stored in the repository as well as data and graphs produced by the accompanying scripts (__02_Scripts__) to the respective landing page for the material on the front-end website.

File: Gypsum_Wallboard_Paper_STA_N2_30KData_220217_R1.csv
##Temp./Â°C,Time/min,Mass loss(subtr.2)/mg,DSC(subtr.2)/(mW/mg),Sensit./(uV/mW)
48.755,10.01,-0.01052,0.02746905,1.08893
51.755,10.85742,-0.009742783,0.16837,1.0864
54.755,11.08347,-0.007317108,0.27293,1.08389
57.755,11.25715,-0.00908206,0.35794,1.08139
60.755,11.4076,-0.009462847,0.43079,1.07891
63.755,11.54217,-0.00880732,0.49402,1.07645
66.755,11.66883,-0.01015804,0.55409,1.074
69.755,11.789,-0.00896251,0.60451,1.07156
72.755,11.90475,-0.01099654,0.65391,1.06915
75.755,12.01779,-0.01222963,0.69985,1.06674
78.755,12.1279,-0.01228252,0.74776,1.06436
81.755,12.23653,-0.01421847,0.7917,1.06198
84.755,12.34318,-0.01571101,0.83476,1.05963
87.755,12.44838,-0.01581832,0.88149,1.05729
90.755,12.5528,-0.01736217,0.92172,1.05496
93.755,12.656,-0.01875853,0.96376,1.05265
96.755,12.7585,-0.02286212,1.00686,1.05035
99.755,12.86031,-0.02424906,1.03907,1.04807
102.755,12.96181,-0.02423743,1.06463,1.04581
105.755,13.06286,-0.02802149,1.08397,1.04356
108.755,13.1638,-0.02951985,1.09458,1.04132
111.755,13.26438,-0.03213004,1.10516,1.0391
114.755,13.36466,-0.03278059,1.10891,1.0369
117.755,13.46495,-0.03621492,1.11263,1.03471
120.755,13.56476,-0.03888902,1.11079,1.03253
123.755,13.6638,-0.04085894,1.10433,1.03037
126.755,13.7628,-0.04262094,1.09984,1.02823
129.755,13.86104,-0.04343002,1.09124,1.02609
132.755,13.959,-0.04541038,1.08294,1.02398
135.755,14.0564,-0.04802949,1.07127,1.02187
138.755,14.1533,-0.04935713,1.05445,1.01978
141.755,14.25004,-0.0500115,1.03557,1.01771
144.755,14.34596,-0.05167953,1.01831,1.01565
147.755,14.44201,-0.05166,1.005,1.0136
150.755,14.5374,-0.05166,0.99932,1.01157
153.755,14.6325,-0.05223747,0.99524,1.00955
156.755,14.72758,-0.05298,0.99518,1.00754
159.755,14.82226,-0.05295643,0.9951,1.00555
162.755,14.91685,-0.0542881,1.00062,1.00357
165.755,15.01123,-0.05297998,1.00391,1.0016
168.755,15.10544,-0.05297987,1.01108,0.99965
171.755,15.19955,-0.05166001,1.01988,0.99771
174.755,15.29313,-0.05265054,1.02606,0.99578
177.755,15.38664,-0.05255523,1.03295,0.99387
180.755,15.4801,-0.05396,1.04167,0.99197
183.755,15.5729,-0.05395999,1.05098,0.99008
186.755,15.6656,-0.05428181,1.06086,0.9882
189.755,15.75811,-0.05429,1.06928,0.98633
192.755,15.85043,-0.05428271,1.0814,0.98448
195.755,15.94244,-0.05659008,1.08756,0.98264
198.755,16.03438,-0.05659,1.09812,0.98081
201.755,16.1263,-0.05659007,1.10495,0.97899
204.755,16.21823,-0.05791573,1.1149,0.97718
207.755,16.30975,-0.05791793,1.12143,0.97539
210.755,16.40161,-0.05926657,1.13093,0.9736
213.755,16.4931,-0.05956374,1.1402,0.97183
216.755,16.58455,-0.06086119,1.14618,0.97007
219.755,16.67577,-0.06142043,1.15669,0.96831
222.755,16.76696,-0.06218636,1.16323,0.96657
225.755,16.85837,-0.06351359,1.17358,0.96484
228.755,16.94944,-0.06482819,1.17888,0.96312
231.755,17.04042,-0.06715676,1.19008,0.96141
234.755,17.13062,-0.06888118,1.1994,0.9597
237.755,17.22146,-0.07017625,1.20481,0.95801
240.755,17.31222,-0.07291042,1.21387,0.95633
243.755,17.40277,-0.07475286,1.22148,0.95465
246.755,17.49341,-0.07744617,1.22803,0.95299
249.755,17.5839,-0.08008856,1.23908,0.95133
252.755,17.6742,-0.08358888,1.24436,0.94968
255.755,17.76485,-0.0894777,1.25077,0.94804
258.755,17.85528,-0.0942519,1.25435,0.94641
261.755,17.94611,-0.09932819,1.26189,0.94479
264.755,18.03675,-0.10505,1.26639,0.94317
267.755,18.12734,-0.11297,1.26975,0.94157
270.755,18.2178,-0.12291,1.27683,0.93997
273.755,18.30827,-0.13169,1.28296,0.93837
276.755,18.3991,-0.14038,1.29486,0.93679
279.755,18.4898,-0.15298,1.30709,0.93521
282.755,18.58055,-0.16688,1.32241,0.93364
285.755,18.67146,-0.18166,1.33531,0.93207
288.755,18.76185,-0.19683,1.3515,0.93051
291.755,18.85296,-0.21644,1.37211,0.92896
294.755,18.94376,-0.23612,1.39426,0.92741
297.755,19.0349,-0.25876,1.41963,0.92586
300.755,19.1258,-0.28413,1.44414,0.92433
303.755,19.2167,-0.31315,1.47289,0.9228
306.755,19.30784,-0.34392,1.50724,0.92127
309.755,19.39891,-0.37832,1.5402,0.91975
312.755,19.48978,-0.41603,1.57444,0.91823
315.755,19.58107,-0.45667,1.60981,0.91672
318.755,19.6723,-0.50095,1.64666,0.91521
321.755,19.7636,-0.54794,1.6842,0.9137
324.755,19.85481,-0.59846,1.72012,0.9122
327.755,19.94637,-0.65206,1.75764,0.9107
330.755,20.0379,-0.70688,1.79539,0.90921
333.755,20.1293,-0.7678,1.83294,0.90772
336.755,20.22103,-0.8339,1.873,0.90623
339.755,20.31286,-0.89973,1.90877,0.90475
342.755,20.40479,-0.96968,1.94877,0.90326
345.755,20.4967,-1.04591,1.99076,0.90178
348.755,20.58878,-1.12551,2.03969,0.9003
351.755,20.6807,-1.20551,2.09064,0.89883
354.755,20.77282,-1.29365,2.14361,0.89735
357.755,20.86554,-1.38573,2.20551,0.89588
360.755,20.95808,-1.48285,2.26981,0.89441
363.755,21.05046,-1.58613,2.33603,0.89294
366.755,21.14315,-1.69652,2.40024,0.89147
369.755,21.23582,-1.80819,2.45091,0.89
372.755,21.32859,-1.92541,2.47806,0.88853
375.755,21.42116,-2.04951,2.46604,0.88706
378.755,21.51436,-2.16641,2.39736,0.88559
381.755,21.60729,-2.28019,2.26187,0.88412
384.755,21.7001,-2.38733,2.05101,0.88265
387.755,21.79281,-2.47603,1.77465,0.88118
390.755,21.88561,-2.55077,1.45346,0.87971
393.755,21.97843,-2.6085,1.13316,0.87824
396.755,22.0709,-2.64431,0.85498,0.87676
399.755,22.16356,-2.6692,0.6498,0.87529
402.755,22.25623,-2.68538,0.51774,0.87381
405.755,22.34929,-2.69491,0.43501,0.87233
408.755,22.44214,-2.70348,0.38292,0.87085
411.755,22.5355,-2.71153,0.35004,0.86937
414.755,22.62895,-2.71968,0.32258,0.86788
417.755,22.72254,-2.72872,0.30441,0.8664
420.755,22.8161,-2.7361,0.28428,0.86491
423.755,22.90973,-2.74377,0.27274,0.86341
426.755,23.00376,-2.75177,0.2608,0.86192
429.755,23.09757,-2.76027,0.25131,0.86042
432.755,23.1917,-2.76598,0.23836,0.85891
435.755,23.28582,-2.77294,0.23634,0.8574
438.755,23.38022,-2.78074,0.23403,0.85589
441.755,23.4744,-2.78677,0.23183,0.85438
444.755,23.5689,-2.79518,0.23253,0.85286
447.755,23.66355,-2.80371,0.2363,0.85133
450.755,23.7582,-2.80918,0.24078,0.8498
453.755,23.85286,-2.81533,0.24405,0.84827
456.755,23.9478,-2.82077,0.25301,0.84673
459.755,24.04255,-2.83007,0.25814,0.84519
462.755,24.13769,-2.83431,0.26542,0.84364
465.755,24.2328,-2.83982,0.27098,0.84208
468.755,24.328,-2.84613,0.27678,0.84052
471.755,24.42334,-2.85053,0.27811,0.83896
474.755,24.5188,-2.85467,0.28526,0.83738
477.755,24.61435,-2.86082,0.28796,0.8358
480.755,24.71,-2.86719,0.28843,0.83422
483.755,24.80571,-2.8718,0.29208,0.83263
486.755,24.90148,-2.87761,0.29042,0.83103
489.755,24.9972,-2.8822,0.28769,0.82942
492.755,25.09321,-2.88512,0.28839,0.82781
495.755,25.18903,-2.88891,0.28398,0.82619
498.755,25.2851,-2.89289,0.28359,0.82456
501.755,25.3807,-2.89734,0.28276,0.82293
504.755,25.4767,-2.89855,0.27719,0.82129
507.755,25.57295,-2.90297,0.2752,0.81964
510.755,25.66911,-2.9066,0.27229,0.81798
513.755,25.7654,-2.9094,0.27343,0.81631
516.755,25.86206,-2.9121,0.26945,0.81464
519.755,25.95859,-2.91555,0.27016,0.81296
522.755,26.05507,-2.91882,0.26905,0.81127
525.755,26.15161,-2.92144,0.26669,0.80957
528.755,26.2481,-2.92468,0.26819,0.80786
531.755,26.3448,-2.92787,0.26587,0.80614
534.755,26.44156,-2.93074,0.26465,0.80442
537.755,26.5382,-2.93454,0.25879,0.80268
540.755,26.63502,-2.93764,0.26,0.80094
543.755,26.73195,-2.94014,0.2583,0.79918
546.755,26.8289,-2.94144,0.26623,0.79742
549.755,26.9255,-2.9441,0.26985,0.79565
552.755,27.0231,-2.94691,0.2749,0.79387
555.755,27.12043,-2.94759,0.278,0.79208
558.755,27.21772,-2.95015,0.279,0.79028
561.755,27.3152,-2.95297,0.27999,0.78846
564.755,27.41287,-2.95452,0.27938,0.78664
567.755,27.5104,-2.95728,0.27565,0.78481
570.755,27.608,-2.95819,0.27237,0.78297
573.755,27.7058,-2.96143,0.26993,0.78112
576.755,27.8034,-2.96499,0.26643,0.77926
579.755,27.90135,-2.96653,0.26504,0.77738
582.755,27.99925,-2.96778,0.25848,0.7755
585.755,28.0973,-2.97141,0.25852,0.7736
588.755,28.19544,-2.97138,0.25585,0.7717
591.755,28.2936,-2.97407,0.25251,0.76978
594.755,28.39173,-2.97616,0.25184,0.76786
597.755,28.48984,-2.97808,0.2499,0.76592
600.755,28.58822,-2.97933,0.24769,0.76397
603.755,28.68644,-2.98204,0.24882,0.76201
606.755,28.7847,-2.9847,0.24868,0.76004
609.755,28.8831,-2.98607,0.25179,0.75806
612.755,28.98175,-2.9873,0.25274,0.75607
615.755,29.0804,-2.98993,0.25858,0.75406
618.755,29.17902,-2.99124,0.25892,0.75205
621.755,29.27777,-2.99223,0.26462,0.75002
624.755,29.37658,-2.99457,0.26247,0.74798
627.755,29.47547,-2.99687,0.26049,0.74593
630.755,29.5742,-2.99947,0.26202,0.74387
633.755,29.6732,-3.00098,0.26971,0.7418
636.755,29.77228,-3.00243,0.27219,0.73972
639.755,29.87122,-3.00482,0.27521,0.73762
642.755,29.97036,-3.00506,0.28005,0.73551
645.755,30.0694,-3.00769,0.28341,0.7334
648.755,30.16862,-3.00991,0.28824,0.73126
651.755,30.268,-3.01132,0.29608,0.72912
654.755,30.3673,-3.01395,0.30197,0.72697
657.755,30.4665,-3.01629,0.30787,0.7248
660.755,30.56583,-3.01657,0.31712,0.72263
663.755,30.6651,-3.01922,0.33024,0.72044
666.755,30.76434,-3.02184,0.3388,0.71824
669.755,30.86378,-3.02388,0.35443,0.71602
672.755,30.963,-3.02574,0.37035,0.7138
675.755,31.06261,-3.02799,0.38681,0.71156
678.755,31.1619,-3.03163,0.40181,0.70932
681.755,31.2613,-3.03311,0.41243,0.70706
684.755,31.36105,-3.03884,0.42706,0.70479
687.755,31.4607,-3.04018,0.43262,0.7025
690.755,31.56017,-3.0428,0.43394,0.70021
693.755,31.6597,-3.04553,0.43026,0.6979
696.755,31.7597,-3.04858,0.4215,0.69559
699.755,31.8594,-3.05207,0.40322,0.69326
702.755,31.9593,-3.05519,0.37659,0.69092
705.755,32.05911,-3.05752,0.34648,0.68857
708.755,32.15909,-3.0598,0.31053,0.6862
711.755,32.2591,-3.06179,0.2702,0.68383
714.755,32.35907,-3.0634,0.24107,0.68144
717.755,32.45902,-3.06474,0.21513,0.67905
720.755,32.55907,-3.06605,0.19388,0.67664
723.755,32.6591,-3.06737,0.19012,0.67422
726.755,32.7592,-3.07,0.18204,0.67179
729.755,32.85934,-3.07128,0.18338,0.66934
732.755,32.9596,-3.07362,0.18029,0.66689
735.755,33.05972,-3.07425,0.17583,0.66443
738.755,33.16024,-3.07625,0.17562,0.66195
741.755,33.26044,-3.07757,0.17161,0.65946
743.855,33.33202,-3.07893,0.17297,0.65772

File: Gypsum_Wallboard_Paper_STA_N2_30KData_220217_R2.csv
##Temp./Â°C,Time/min,Mass loss(subtr.2)/mg,DSC(subtr.2)/(mW/mg),Sensit./(uV/mW)
48.715,10.00917,-0.06702,0.03215669,1.08896
51.715,10.8588,-0.076336,0.16213,1.08643
54.715,11.08516,-0.07333921,0.26234,1.08392
57.715,11.25877,-0.07230416,0.33724,1.08143
60.715,11.40765,-0.07269613,0.40239,1.07894
63.715,11.54292,-0.07607771,0.46181,1.07648
66.715,11.66927,-0.07600548,0.51477,1.07403
69.715,11.78947,-0.07347121,0.56494,1.0716
72.715,11.90552,-0.0765075,0.61051,1.06918
75.715,12.01895,-0.07943235,0.65475,1.06677
78.715,12.1294,-0.08031047,0.69794,1.06439
81.715,12.23816,-0.08313475,0.74067,1.06202
84.715,12.3454,-0.08540234,0.78194,1.05966
87.715,12.45106,-0.08629524,0.82532,1.05732
90.715,12.5556,-0.08840044,0.86281,1.05499
93.715,12.6591,-0.08841005,0.90129,1.05268
96.715,12.76193,-0.08971313,0.93816,1.05038
99.715,12.86438,-0.09228487,0.97434,1.0481
102.715,12.9663,-0.09642558,1.00038,1.04584
105.715,13.0677,-0.09900523,1.01912,1.04359
108.715,13.16889,-0.10297,1.03287,1.04135
111.715,13.27,-0.10597,1.03938,1.03913
114.715,13.37065,-0.10602,1.04118,1.03693
117.715,13.4707,-0.11003,1.0402,1.03474
120.715,13.57071,-0.11089,1.03834,1.03256
123.715,13.67022,-0.11089,1.02719,1.0304
126.715,13.769,-0.1122,1.01975,1.02825
129.715,13.8674,-0.11627,1.00556,1.02612
132.715,13.96543,-0.119,0.99535,1.024
135.715,14.06298,-0.12427,0.9837,1.0219
138.715,14.1601,-0.1253,0.96532,1.01981
141.715,14.25637,-0.12525,0.94524,1.01774
144.715,14.35244,-0.12662,0.92413,1.01567
147.715,14.4482,-0.12912,0.90834,1.01363
150.715,14.54393,-0.12785,0.89685,1.01159
153.715,14.63916,-0.12767,0.88708,1.00957
156.715,14.73426,-0.12767,0.88333,1.00757
159.715,14.82906,-0.12865,0.8832,1.00557
162.715,14.92336,-0.12767,0.88207,1.00359
165.715,15.0179,-0.12899,0.88705,1.00163
168.715,15.112,-0.1303,0.89296,0.99968
171.715,15.20595,-0.13029,0.89525,0.99774
174.715,15.2996,-0.13294,0.90499,0.99581
177.715,15.3931,-0.13152,0.91114,0.99389
180.715,15.4862,-0.13274,0.9188,0.99199
183.715,15.5792,-0.13294,0.92606,0.9901
186.715,15.67165,-0.13164,0.93398,0.98822
189.715,15.764,-0.1313,0.938,0.98636
192.715,15.8561,-0.13261,0.94709,0.9845
195.715,15.9482,-0.13568,0.95509,0.98266
198.715,16.04015,-0.13569,0.9627,0.98083
201.715,16.13203,-0.13448,0.97145,0.97901
204.715,16.22364,-0.13703,0.97785,0.97721
207.715,16.3154,-0.13931,0.98589,0.97541
210.715,16.40699,-0.14073,0.99359,0.97363
213.715,16.49837,-0.14047,1.00247,0.97185
216.715,16.58967,-0.14105,1.00823,0.97009
219.715,16.68078,-0.14153,1.01707,0.96834
222.715,16.77202,-0.14368,1.02192,0.9666
225.715,16.86315,-0.14632,1.02903,0.96486
228.715,16.9539,-0.14632,1.03529,0.96314
231.715,17.0448,-0.14632,1.04061,0.96143
234.715,17.13554,-0.14919,1.05,0.95973
237.715,17.2263,-0.15064,1.05637,0.95803
240.715,17.317,-0.1545,1.06436,0.95635
243.715,17.40759,-0.15732,1.07039,0.95468
246.715,17.49822,-0.15913,1.07772,0.95301
249.715,17.5886,-0.16406,1.08501,0.95135
252.715,17.67907,-0.1654,1.08719,0.94971
255.715,17.7696,-0.17003,1.09116,0.94807
258.715,17.8601,-0.17903,1.09348,0.94643
261.715,17.95042,-0.18195,1.0967,0.94481
264.715,18.0408,-0.18579,1.09986,0.9432
267.715,18.13114,-0.1933,1.10443,0.94159
270.715,18.2215,-0.20123,1.11059,0.93999
273.715,18.31184,-0.21134,1.11756,0.93839
276.715,18.40241,-0.21975,1.12389,0.93681
279.715,18.49286,-0.23239,1.13193,0.93523
282.715,18.58349,-0.24702,1.14348,0.93366
285.715,18.6739,-0.26205,1.15903,0.93209
288.715,18.7644,-0.27834,1.1744,0.93053
291.715,18.85511,-0.29533,1.18997,0.92898
294.715,18.94581,-0.315,1.21138,0.92743
297.715,19.0364,-0.33744,1.23429,0.92589
300.715,19.12728,-0.3615,1.25986,0.92435
303.715,19.21801,-0.38853,1.28571,0.92282
306.715,19.30878,-0.41775,1.314,0.92129
309.715,19.3996,-0.4523,1.34359,0.91977
312.715,19.49073,-0.48872,1.37665,0.91825
315.715,19.58173,-0.52716,1.41059,0.91674
318.715,19.67267,-0.5687,1.44524,0.91523
321.715,19.764,-0.61379,1.48205,0.91372
324.715,19.85519,-0.66228,1.51774,0.91222
327.715,19.94642,-0.71408,1.55311,0.91072
330.715,20.03792,-0.77228,1.589,0.90923
333.715,20.12923,-0.83144,1.62519,0.90774
336.715,20.22069,-0.89168,1.66159,0.90625
339.715,20.31232,-0.95729,1.69735,0.90477
342.715,20.40397,-1.02388,1.73559,0.90328
345.715,20.49555,-1.09428,1.77612,0.9018
348.715,20.58744,-1.17133,1.82129,0.90032
351.715,20.67936,-1.2541,1.8681,0.89885
354.715,20.77144,-1.33739,1.91992,0.89737
357.715,20.86355,-1.42503,1.97965,0.8959
360.715,20.95588,-1.52534,2.0392,0.89443
363.715,21.04825,-1.62341,2.1007,0.89296
366.715,21.14068,-1.72735,2.16094,0.89149
369.715,21.23315,-1.83735,2.20634,0.89002
372.715,21.3258,-1.95146,2.22746,0.88855
375.715,21.41822,-2.0626,2.20831,0.88708
378.715,21.51137,-2.1786,2.1281,0.88561
381.715,21.604,-2.28945,1.98281,0.88414
384.715,21.69683,-2.39012,1.75753,0.88267
387.715,21.78964,-2.48147,1.46766,0.8812
390.715,21.88196,-2.55183,1.13732,0.87973
393.715,21.97458,-2.60707,0.81326,0.87825
396.715,22.06721,-2.64189,0.53672,0.87678
399.715,22.16007,-2.66777,0.33555,0.87531
402.715,22.25233,-2.68289,0.20799,0.87383
405.715,22.34599,-2.69376,0.12904,0.87235
408.715,22.4392,-2.70014,0.07456529,0.87087
411.715,22.53216,-2.70668,0.04029728,0.86939
414.715,22.62632,-2.71315,0.01396594,0.8679
417.715,22.71999,-2.72073,-0.009743511,0.86642
420.715,22.81373,-2.72939,-0.02464051,0.86493
423.715,22.90757,-2.73843,-0.04227214,0.86343
426.715,23.00131,-2.74527,-0.05566093,0.86194
429.715,23.09573,-2.75311,-0.07005031,0.86044
432.715,23.18995,-2.7578,-0.08047878,0.85893
435.715,23.28435,-2.7683,-0.08314804,0.85742
438.715,23.37904,-2.77647,-0.0891403,0.85591
441.715,23.47374,-2.78446,-0.08785116,0.8544
444.715,23.56867,-2.79082,-0.08899563,0.85288
447.715,23.6635,-2.79769,-0.08852538,0.85135
450.715,23.75826,-2.8046,-0.07767629,0.84982
453.715,23.85393,-2.81134,-0.07446984,0.84829
456.715,23.94904,-2.81694,-0.06652443,0.84675
459.715,24.0444,-2.82215,-0.05941978,0.84521
462.715,24.13991,-2.8281,-0.05438792,0.84366
465.715,24.23537,-2.83381,-0.04620367,0.8421
468.715,24.33084,-2.84073,-0.04074104,0.84054
471.715,24.42632,-2.84562,-0.03544863,0.83898
474.715,24.52196,-2.85003,-0.02840769,0.8374
477.715,24.61763,-2.85469,-0.02648174,0.83582
480.715,24.71341,-2.85761,-0.0242513,0.83424
483.715,24.80894,-2.86259,-0.01984442,0.83265
486.715,24.90455,-2.8655,-0.020956,0.83105
489.715,25.00021,-2.87024,-0.02133631,0.82944
492.715,25.09581,-2.87568,-0.02015671,0.82783
495.715,25.19117,-2.8799,-0.01980101,0.82621
498.715,25.287,-2.88306,-0.02310428,0.82458
501.715,25.383,-2.88776,-0.0244735,0.82295
504.715,25.47885,-2.89253,-0.02471945,0.82131
507.715,25.5749,-2.89637,-0.02120505,0.81966
510.715,25.67083,-2.89931,-0.0234054,0.818
513.715,25.76717,-2.90453,-0.02966157,0.81634
516.715,25.86344,-2.90623,-0.0287675,0.81466
519.715,25.95962,-2.90858,-0.02715931,0.81298
522.715,26.05593,-2.91158,-0.0303823,0.81129
525.715,26.15258,-2.91585,-0.03179182,0.80959
528.715,26.24949,-2.91886,-0.0314195,0.80788
531.715,26.3461,-2.92003,-0.03567228,0.80617
534.715,26.44267,-2.92285,-0.03876474,0.80444
537.715,26.5394,-2.92412,-0.03972261,0.8027
540.715,26.63648,-2.92678,-0.04386918,0.80096
543.715,26.73344,-2.92889,-0.04349271,0.79921
546.715,26.83019,-2.93587,-0.03391717,0.79745
549.715,26.9273,-2.94051,-0.03190022,0.79567
552.715,27.0245,-2.93979,-0.02139274,0.79389
555.715,27.12162,-2.94284,-0.01658859,0.7921
558.715,27.21896,-2.94427,-0.01708284,0.7903
561.715,27.31642,-2.94562,-0.01379089,0.78849
564.715,27.4139,-2.94833,-0.01467738,0.78667
567.715,27.51128,-2.95045,-0.01503745,0.78484
570.715,27.60884,-2.95176,-0.01302584,0.78299
573.715,27.7063,-2.95548,-0.01620922,0.78114
576.715,27.8043,-2.95711,-0.01758822,0.77928
579.715,27.9022,-2.95861,-0.02422505,0.77741
582.715,27.99989,-2.96274,-0.02823692,0.77552
585.715,28.0982,-2.96562,-0.03318309,0.77363
588.715,28.1964,-2.968,-0.03613482,0.77173
591.715,28.29495,-2.96939,-0.03893233,0.76981
594.715,28.3935,-2.97062,-0.04199372,0.76788
597.715,28.49206,-2.97194,-0.04706573,0.76595
600.715,28.59089,-2.97508,-0.04456815,0.764
603.715,28.68947,-2.97533,-0.05014905,0.76204
606.715,28.78805,-2.97727,-0.05017876,0.76007
609.715,28.8867,-2.98062,-0.05145101,0.75809
612.715,28.98535,-2.98324,-0.05310889,0.7561
615.715,29.0841,-2.98303,-0.05342389,0.75409
618.715,29.183,-2.9821,-0.05184551,0.75208
621.715,29.2818,-2.98341,-0.0544689,0.75005
624.715,29.3805,-2.98663,-0.05201911,0.74801
627.715,29.4795,-2.98796,-0.04699477,0.74596
630.715,29.57834,-2.98927,-0.04486844,0.7439
633.715,29.6772,-2.99404,-0.04379422,0.74183
636.715,29.7764,-2.9963,-0.03805547,0.73974
639.715,29.875,-2.99631,-0.03580434,0.73765
642.715,29.97433,-2.99892,-0.03200815,0.73554
645.715,30.0734,-3.00057,-0.02547736,0.73342
648.715,30.1724,-3.00375,-0.02021585,0.73129
651.715,30.27157,-3.00585,-0.01595104,0.72915
654.715,30.3706,-3.00748,-0.00988686,0.727
657.715,30.47,-3.00972,-0.005405361,0.72483
660.715,30.5691,-3.0113,0.004303058,0.72265
663.715,30.6684,-3.01197,0.01482545,0.72047
666.715,30.76748,-3.01595,0.02534813,0.71827
669.715,30.8668,-3.01574,0.03941974,0.71605
672.715,30.9661,-3.01573,0.0546091,0.71383
675.715,31.06542,-3.01712,0.06436461,0.71159
678.715,31.1646,-3.01835,0.08191821,0.70935
681.715,31.2637,-3.02397,0.09910278,0.70709
684.715,31.3629,-3.03023,0.11378,0.70482
687.715,31.4621,-3.03626,0.12253,0.70253
690.715,31.56154,-3.03834,0.12741,0.70024
693.715,31.66098,-3.03708,0.12445,0.69794
696.715,31.76035,-3.03977,0.12325,0.69562
699.715,31.85995,-3.04391,0.11603,0.69329
702.715,31.95931,-3.04521,0.09539379,0.69095
705.715,32.05912,-3.04718,0.07188413,0.6886
708.715,32.15885,-3.04948,0.03920587,0.68623
711.715,32.25863,-3.05212,-0.005421768,0.68386
714.715,32.35853,-3.05436,-0.04449921,0.68147
717.715,32.45852,-3.0542,-0.08127867,0.67908
720.715,32.55847,-3.05625,-0.10196,0.67667
723.715,32.65862,-3.06034,-0.11495,0.67425
726.715,32.75887,-3.06166,-0.12725,0.67182
729.715,32.859,-3.06309,-0.12685,0.66938
732.715,32.9592,-3.06331,-0.1279,0.66692
735.715,33.05948,-3.06596,-0.13041,0.66446
738.715,33.15992,-3.06857,-0.13329,0.66198
741.715,33.26039,-3.07036,-0.13599,0.6595
743.815,33.3316,-3.07153,-0.13627,0.65775