Folder: fsri_materials_database/01_Data/Gypsum_Wallboard_Paper/STA/N2/30K_min (part 2)

File: Gypsum_Wallboard_Paper_STA_N2_30KData_220217_R3.csv
##Temp./Â°C,Time/min,Mass loss(subtr.2)/mg,DSC(subtr.2)/(mW/mg),Sensit./(uV/mW)
48.688,10.01,-0.03751,0.02453931,1.08898
51.688,10.86036,-0.03784369,0.15966,1.08646
54.688,11.0859,-0.03489522,0.25783,1.08394
57.688,11.25935,-0.03727524,0.33805,1.08145
60.688,11.4084,-0.04115572,0.40803,1.07897
63.688,11.54331,-0.04128716,0.47111,1.0765
66.688,11.66972,-0.04046654,0.52658,1.07405
69.688,11.7898,-0.0405612,0.57835,1.07162
72.688,11.90606,-0.04192372,0.62615,1.0692
75.688,12.0191,-0.0441338,0.67194,1.0668
78.688,12.12907,-0.04762228,0.71934,1.06441
81.688,12.23755,-0.05027421,0.76467,1.06204
84.688,12.3447,-0.04839449,0.80996,1.05968
87.688,12.45002,-0.05209879,0.85252,1.05734
90.688,12.55419,-0.05241369,0.89847,1.05501
93.688,12.65755,-0.0521946,0.94138,1.0527
96.688,12.7599,-0.05395697,0.97923,1.05041
99.688,12.86186,-0.05953037,1.00935,1.04812
102.688,12.9634,-0.06083456,1.033,1.04586
105.688,13.06437,-0.06210658,1.04639,1.04361
108.688,13.16528,-0.06350684,1.05937,1.04137
111.688,13.26626,-0.06800412,1.06555,1.03915
114.688,13.36691,-0.07062983,1.07018,1.03695
117.688,13.4669,-0.07195285,1.0714,1.03476
120.688,13.56659,-0.07458022,1.06831,1.03258
123.688,13.66598,-0.07496167,1.06466,1.03042
126.688,13.765,-0.07800697,1.06344,1.02827
129.688,13.8632,-0.08295036,1.05925,1.02614
132.688,13.96125,-0.0849147,1.05104,1.02402
135.688,14.0587,-0.08374236,1.03682,1.02192
138.688,14.156,-0.0810789,1.01748,1.01983
141.688,14.2525,-0.08172,0.9995,1.01775
144.688,14.34864,-0.0830225,0.9886,1.01569
147.688,14.44452,-0.08426699,0.97832,1.01365
150.688,14.54005,-0.08500012,0.9768,1.01161
153.688,14.6354,-0.0863199,0.97613,1.00959
156.688,14.7302,-0.08765128,0.98086,1.00759
159.688,14.8247,-0.09027261,0.98636,1.00559
162.688,14.91942,-0.09301067,0.99169,1.00361
165.688,15.0138,-0.08876007,0.9998,1.00165
168.688,15.10769,-0.08794581,1.00964,0.99969
171.688,15.20188,-0.08761587,1.018,0.99775
174.688,15.2953,-0.08960694,1.02599,0.99582
177.688,15.3887,-0.08961171,1.0388,0.99391
180.688,15.4818,-0.09092479,1.05065,0.99201
183.688,15.5748,-0.09296836,1.0626,0.99012
186.688,15.6673,-0.09289907,1.07167,0.98824
189.688,15.7597,-0.09159023,1.08202,0.98637
192.688,15.85157,-0.09289993,1.09355,0.98452
195.688,15.9438,-0.09289951,1.10415,0.98268
198.688,16.0358,-0.09193872,1.11434,0.98085
201.688,16.1276,-0.09200392,1.12402,0.97903
204.688,16.21929,-0.09191945,1.13782,0.97722
207.688,16.31063,-0.09294913,1.1472,0.97543
210.688,16.40213,-0.0949197,1.15622,0.97364
213.688,16.49355,-0.09630931,1.16907,0.97187
216.688,16.58482,-0.09905043,1.17849,0.97011
219.688,16.67579,-0.10178,1.19018,0.96835
222.688,16.76703,-0.10184,1.20097,0.96661
225.688,16.85793,-0.10047,1.20991,0.96488
228.688,16.94895,-0.10569,1.2218,0.96316
231.688,17.03976,-0.10508,1.22997,0.96144
234.688,17.1306,-0.10574,1.24071,0.95974
237.688,17.2214,-0.10839,1.25126,0.95805
240.688,17.31211,-0.10979,1.26334,0.95637
243.688,17.40289,-0.11333,1.27265,0.95469
246.688,17.4935,-0.11637,1.28514,0.95303
249.688,17.5841,-0.11561,1.29464,0.95137
252.688,17.67461,-0.11821,1.30253,0.94972
255.688,17.76529,-0.12258,1.30993,0.94808
258.688,17.85575,-0.13007,1.3163,0.94645
261.688,17.94629,-0.13909,1.32622,0.94483
264.688,18.03661,-0.14542,1.33157,0.94321
267.688,18.12702,-0.15071,1.33845,0.9416
270.688,18.21671,-0.15898,1.34712,0.94
273.688,18.3078,-0.16833,1.35765,0.93841
276.688,18.39838,-0.1771,1.36996,0.93682
279.688,18.4888,-0.19021,1.38406,0.93524
282.688,18.57934,-0.20323,1.39996,0.93367
285.688,18.6695,-0.21789,1.42123,0.9321
288.688,18.75982,-0.23316,1.44103,0.93054
291.688,18.85096,-0.25044,1.46471,0.92899
294.688,18.94166,-0.27063,1.48763,0.92744
297.688,19.0322,-0.29636,1.5144,0.9259
300.688,19.12292,-0.32366,1.54715,0.92436
303.688,19.2135,-0.34907,1.57802,0.92283
306.688,19.3038,-0.37601,1.61204,0.9213
309.688,19.39475,-0.41131,1.64339,0.91978
312.688,19.48583,-0.45123,1.67831,0.91826
315.688,19.57676,-0.48878,1.71857,0.91675
318.688,19.66788,-0.53755,1.7548,0.91524
321.688,19.75872,-0.57395,1.7897,0.91374
324.688,19.84985,-0.62238,1.82929,0.91224
327.688,19.9411,-0.67558,1.86714,0.91074
330.688,20.032,-0.73462,1.90882,0.90924
333.688,20.12339,-0.7965,1.94687,0.90775
336.688,20.21557,-0.85612,1.98431,0.90626
339.688,20.30709,-0.92296,2.02481,0.90478
342.688,20.39876,-0.99175,2.06557,0.9033
345.688,20.4906,-1.06797,2.11023,0.90182
348.688,20.5826,-1.14647,2.15907,0.90034
351.688,20.67463,-1.22515,2.21031,0.89886
354.688,20.76695,-1.30773,2.26877,0.89739
357.688,20.85898,-1.40066,2.32972,0.89591
360.688,20.95139,-1.49838,2.40038,0.89444
363.688,21.0438,-1.59618,2.46737,0.89297
366.688,21.1361,-1.70211,2.53757,0.8915
369.688,21.2289,-1.81584,2.59294,0.89003
372.688,21.3215,-1.93314,2.62704,0.88856
375.688,21.41424,-2.05044,2.61819,0.88709
378.688,21.507,-2.17294,2.55309,0.88562
381.688,21.59977,-2.28929,2.42049,0.88415
384.688,21.6925,-2.3888,2.20515,0.88268
387.688,21.7851,-2.47521,1.91831,0.88121
390.688,21.87782,-2.5531,1.58542,0.87974
393.688,21.97032,-2.60757,1.25407,0.87827
396.688,22.0628,-2.64231,0.96394,0.87679
399.688,22.15544,-2.66862,0.749,0.87532
402.688,22.24821,-2.68499,0.61227,0.87384
405.688,22.3413,-2.69714,0.52378,0.87236
408.688,22.43444,-2.70639,0.47579,0.87088
411.688,22.5276,-2.7161,0.43773,0.8694
414.688,22.621,-2.72113,0.41086,0.86792
417.688,22.7146,-2.72485,0.38876,0.86643
420.688,22.80829,-2.73163,0.37394,0.86494
423.688,22.90192,-2.73897,0.3589,0.86345
426.688,22.99585,-2.75082,0.34866,0.86195
429.688,23.08981,-2.7597,0.34006,0.86045
432.688,23.18384,-2.76574,0.33221,0.85895
435.688,23.27796,-2.77509,0.32924,0.85744
438.688,23.3724,-2.78344,0.32692,0.85593
441.688,23.467,-2.78249,0.32471,0.85441
444.688,23.56188,-2.79104,0.32738,0.85289
447.688,23.65692,-2.79649,0.3347,0.85137
450.688,23.7519,-2.80897,0.3366,0.84984
453.688,23.8473,-2.81698,0.34332,0.8483
456.688,23.9428,-2.82337,0.34772,0.84677
459.688,24.0383,-2.82763,0.35483,0.84522
462.688,24.1337,-2.83039,0.35927,0.84367
465.688,24.22942,-2.84019,0.3663,0.84212
468.688,24.3252,-2.84489,0.36728,0.84056
471.688,24.42103,-2.84848,0.37239,0.83899
474.688,24.51677,-2.85865,0.3765,0.83742
477.688,24.6125,-2.86217,0.37753,0.83584
480.688,24.7084,-2.86552,0.37954,0.83425
483.688,24.80452,-2.86942,0.37502,0.83266
486.688,24.90041,-2.87483,0.37945,0.83106
489.688,24.99641,-2.88032,0.37389,0.82946
492.688,25.09236,-2.88176,0.37636,0.82785
495.688,25.1886,-2.88713,0.37294,0.82623
498.688,25.28471,-2.89006,0.37436,0.8246
501.688,25.38071,-2.89263,0.37268,0.82297
504.688,25.47689,-2.89808,0.37162,0.82132
507.688,25.57295,-2.90159,0.37005,0.81967
510.688,25.6691,-2.90756,0.36468,0.81802
513.688,25.76541,-2.90886,0.36233,0.81635
516.688,25.8615,-2.91018,0.36142,0.81468
519.688,25.95784,-2.91533,0.3568,0.81299
522.688,26.05432,-2.91577,0.35438,0.8113
525.688,26.15085,-2.91938,0.35276,0.80961
528.688,26.2474,-2.92236,0.35013,0.8079
531.688,26.34398,-2.92504,0.34644,0.80618
534.688,26.44071,-2.92977,0.34152,0.80446
537.688,26.5375,-2.93207,0.34272,0.80272
540.688,26.63441,-2.93609,0.34169,0.80098
543.688,26.73133,-2.93738,0.34823,0.79922
546.688,26.82834,-2.93872,0.35267,0.79746
549.688,26.92555,-2.93994,0.35242,0.79569
552.688,27.0229,-2.94134,0.34719,0.79391
555.688,27.12035,-2.94431,0.34608,0.79212
558.688,27.21787,-2.94847,0.34267,0.79032
561.688,27.3155,-2.9512,0.34042,0.7885
564.688,27.4132,-2.95362,0.33648,0.78668
567.688,27.5109,-2.95281,0.33441,0.78485
570.688,27.60881,-2.95504,0.33017,0.78301
573.688,27.70686,-2.95641,0.32591,0.78116
576.688,27.805,-2.95958,0.31733,0.7793
579.688,27.90345,-2.96043,0.31055,0.77742
582.688,28.0015,-2.96474,0.30632,0.77554
585.688,28.10013,-2.96743,0.29934,0.77365
588.688,28.19857,-2.96725,0.2915,0.77174
591.688,28.2972,-2.97259,0.28566,0.76983
594.688,28.3958,-2.9728,0.28431,0.7679
597.688,28.4945,-2.97151,0.27916,0.76596
600.688,28.59277,-2.97676,0.27311,0.76402
603.688,28.69173,-2.97939,0.26522,0.76206
606.688,28.7905,-2.98007,0.2667,0.76009
609.688,28.88918,-2.98071,0.26289,0.75811
612.688,28.9878,-2.98201,0.25919,0.75611
615.688,29.08659,-2.98316,0.2579,0.75411
618.688,29.1852,-2.98335,0.25691,0.75209
621.688,29.28381,-2.98539,0.25541,0.75007
624.688,29.38239,-2.98663,0.25302,0.74803
627.688,29.48118,-2.98935,0.25828,0.74598
630.688,29.58,-2.9919,0.25848,0.74392
633.688,29.679,-2.99322,0.26024,0.74185
636.688,29.77777,-2.99452,0.26368,0.73976
639.688,29.8765,-2.99651,0.26295,0.73767
642.688,29.97536,-2.99774,0.2635,0.73556
645.688,30.07435,-3.00056,0.26202,0.73344
648.688,30.17339,-3.00055,0.26385,0.73131
651.688,30.2724,-3.0045,0.26695,0.72917
654.688,30.37159,-3.00722,0.2684,0.72702
657.688,30.4706,-3.00849,0.2713,0.72485
660.688,30.5698,-3.0111,0.28077,0.72267
663.688,30.669,-3.01373,0.28788,0.72049
666.688,30.76845,-3.01606,0.30054,0.71829
669.688,30.8677,-3.01981,0.30849,0.71607
672.688,30.9672,-3.02087,0.3209,0.71385
675.688,31.0666,-3.02257,0.33187,0.71161
678.688,31.166,-3.02256,0.34273,0.70937
681.688,31.26533,-3.02477,0.346,0.70711
684.688,31.36494,-3.02755,0.34852,0.70484
687.688,31.4645,-3.03041,0.3461,0.70256
690.688,31.5641,-3.03405,0.3446,0.70026
693.688,31.66371,-3.03708,0.33176,0.69796
696.688,31.76302,-3.04071,0.31132,0.69564
699.688,31.8623,-3.04804,0.28295,0.69331
702.688,31.96221,-3.04982,0.24934,0.69097
705.688,32.06199,-3.05114,0.2094,0.68862
708.688,32.1616,-3.05377,0.16339,0.68626
711.688,32.2613,-3.05378,0.12058,0.68388
714.688,32.36098,-3.05479,0.09088283,0.6815
717.688,32.46045,-3.05728,0.0682661,0.6791
720.688,32.56051,-3.05793,0.05324555,0.67669
723.688,32.66018,-3.0596,0.04104774,0.67427
726.688,32.76013,-3.06364,0.03573258,0.67184
729.688,32.86012,-3.06496,0.02574003,0.6694
732.688,32.96012,-3.06364,0.0171373,0.66694
735.688,33.06013,-3.06232,0.005241198,0.66448
738.688,33.16003,-3.06101,-0.005567891,0.66201
741.688,33.26019,-3.06518,-0.01910057,0.65952
743.788,33.33187,-3.06787,-0.02350387,0.65777