Folder: fsri_materials_database/01_Data/Gypsum_Wallboard_Paper/STA/N2/3K_min

Note: 01_Data/README.md
# Materials and Products Database
## 01_Data

Raw data generated from each apparatus are included here in plain-text format. The data is organized first by material, next by the short name of test apparatus used, and where applicable additional filtering by test settings.

### material.json

Each material directory contains a json file of the same name as the material. This file links the data stored in the repository as well as data and graphs produced by the accompanying scripts (__02_Scripts__) to the respective landing page for the material on the front-end website.

File: Gypsum_Wallboard_Paper_STA_N2_3KData_220217_R1.csv
##Temp./Â°C,Time/min,Mass loss(subtr.)/mg,DSC(subtr.)/(mW/mg),Sensit./(uV/mW)
50.166,10.01667,-0.03115,0.02850336,1.04799
53.266,12.2823,-0.03367808,0.08335827,1.04662
56.366,13.45761,-0.03541548,0.09890635,1.04525
59.466,14.57465,-0.03959043,0.10837,1.04389
62.566,15.6563,-0.04088135,0.11337,1.04254
65.666,16.71791,-0.04289,0.12005,1.04119
68.766,17.7664,-0.04748992,0.12645,1.03984
71.866,18.8098,-0.04979799,0.13017,1.0385
74.966,19.8504,-0.05669683,0.13097,1.03717
78.066,20.8884,-0.05703998,0.13351,1.03584
81.166,21.92835,-0.06032384,0.12916,1.03451
84.266,22.9662,-0.06656438,0.12833,1.03319
87.366,24.00164,-0.06583464,0.12627,1.03187
90.466,25.03612,-0.06999326,0.12371,1.03055
93.566,26.06281,-0.07465432,0.12124,1.02924
96.666,27.0923,-0.07622504,0.11776,1.02794
99.766,28.11962,-0.07902856,0.11594,1.02663
102.866,29.1478,-0.08028774,0.11641,1.02534
105.966,30.175,-0.08163054,0.11316,1.02404
109.066,31.19528,-0.0833673,0.11263,1.02275
112.166,32.2192,-0.08437269,0.11205,1.02146
115.266,33.24518,-0.0869533,0.10916,1.02018
118.366,34.27052,-0.08837185,0.11024,1.01889
121.466,35.29235,-0.08697243,0.10694,1.01761
124.566,36.3167,-0.08664987,0.10876,1.01634
127.666,37.3354,-0.08829229,0.11128,1.01506
130.766,38.35485,-0.08830093,0.10925,1.01379
133.866,39.3755,-0.09104058,0.11048,1.01252
136.966,40.39846,-0.08937663,0.11238,1.01126
140.066,41.4107,-0.09097719,0.10893,1.00999
143.166,42.4265,-0.08840244,0.11343,1.00873
146.266,43.44084,-0.09280015,0.1128,1.00747
149.366,44.45592,-0.09280511,0.11721,1.00621
152.466,45.46285,-0.09279126,0.11767,1.00495
155.566,46.48478,-0.09181889,0.11982,1.0037
158.666,47.5021,-0.09430156,0.11987,1.00244
161.766,48.51485,-0.09302236,0.12118,1.00119
164.866,49.5266,-0.09169529,0.12506,0.99994
167.966,50.53877,-0.09603813,0.12596,0.99869
171.066,51.5505,-0.09247017,0.12662,0.99743
174.166,52.5631,-0.09444,0.12683,0.99618
177.266,53.56925,-0.09609477,0.13164,0.99493
180.366,54.57884,-0.09774514,0.12868,0.99368
183.466,55.5882,-0.09623925,0.12953,0.99243
186.566,56.59855,-0.09619998,0.12962,0.99119
189.666,57.61045,-0.09958654,0.13338,0.98994
192.766,58.6212,-0.10159,0.13285,0.98868
195.866,59.63145,-0.10104,0.1339,0.98743
198.966,60.63918,-0.1063,0.13515,0.98618
202.066,61.64861,-0.1079,0.13413,0.98493
205.166,62.6595,-0.10969,0.13337,0.98368
208.266,63.66763,-0.10963,0.13663,0.98242
211.366,64.67278,-0.11353,0.13672,0.98117
214.466,65.68271,-0.11782,0.1408,0.97991
217.566,66.6914,-0.12283,0.13832,0.97865
220.666,67.6991,-0.12516,0.14399,0.97739
223.766,68.70765,-0.1339,0.14507,0.97613
226.866,69.71472,-0.13872,0.14935,0.97486
229.966,70.72143,-0.14435,0.15327,0.9736
233.066,71.72841,-0.1524,0.15365,0.97233
236.166,72.73297,-0.15927,0.15519,0.97105
239.266,73.7384,-0.17046,0.15766,0.96978
242.366,74.75776,-0.18165,0.15718,0.9685
245.466,75.76682,-0.19624,0.16188,0.96722
248.566,76.77387,-0.21124,0.16201,0.96594
251.666,77.7826,-0.22445,0.16344,0.96465
254.766,78.79016,-0.24093,0.1605,0.96336
257.866,79.79564,-0.26319,0.16215,0.96207
260.966,80.80274,-0.29002,0.17073,0.96077
264.066,81.8157,-0.31804,0.17231,0.95947
267.166,82.82303,-0.34573,0.17721,0.95816
270.266,83.8325,-0.37893,0.18273,0.95685
273.366,84.83685,-0.41583,0.18789,0.95553
276.466,85.84858,-0.45625,0.18993,0.95421
279.566,86.86166,-0.49282,0.19396,0.95289
282.666,87.87451,-0.54623,0.20016,0.95156
285.766,88.8834,-0.59922,0.20545,0.95022
288.866,89.88798,-0.65062,0.21167,0.94889
291.966,90.89471,-0.71228,0.21753,0.94754
295.066,91.9067,-0.77412,0.22193,0.94619
298.166,92.91342,-0.84373,0.23137,0.94483
301.266,93.91674,-0.91457,0.23754,0.94347
304.366,94.9338,-0.99368,0.24036,0.9421
307.466,95.946,-1.07397,0.24969,0.94073
310.566,96.95435,-1.16593,0.25768,0.93935
313.666,97.9653,-1.26136,0.26707,0.93796
316.766,98.97455,-1.35853,0.28147,0.93656
319.866,99.98863,-1.47204,0.28913,0.93516
322.966,101,-1.58949,0.30237,0.93376
326.066,102.015,-1.72006,0.31429,0.93234
329.166,103.032,-1.85348,0.32622,0.93092
332.266,104.045,-1.99355,0.32826,0.92949
335.366,105.057,-2.13813,0.3219,0.92805
338.466,106.071,-2.27652,0.3014,0.92661
341.566,107.086,-2.40299,0.26731,0.92516
344.666,108.105,-2.50762,0.22034,0.9237
347.766,109.12,-2.58613,0.16692,0.92223
350.866,110.133,-2.63455,0.12731,0.92075
353.966,111.144,-2.66513,0.10009,0.91927
357.066,112.162,-2.68591,0.0842535,0.91777
360.166,113.18,-2.69777,0.0791459,0.91627
363.266,114.197,-2.71602,0.07689947,0.91476
366.366,115.21,-2.7213,0.07768853,0.91324
369.466,116.2301,-2.73327,0.07260757,0.91171
372.566,117.253,-2.74117,0.07177113,0.91018
375.666,118.271,-2.74932,0.07435282,0.90863
378.766,119.2913,-2.7582,0.07035227,0.90707
381.866,120.318,-2.7676,0.07031742,0.90551
384.966,121.333,-2.7755,0.06761034,0.90393
388.066,122.346,-2.78603,0.06739467,0.90235
391.166,123.3638,-2.7953,0.07114936,0.90075
394.266,124.3841,-2.79927,0.06709772,0.89915
397.366,125.4079,-2.81049,0.06788148,0.89754
400.466,126.428,-2.81581,0.07267535,0.89591
403.566,127.451,-2.8197,0.07144457,0.89428
406.666,128.475,-2.83242,0.07696159,0.89263
409.766,129.497,-2.84073,0.07297402,0.89098
412.866,130.5197,-2.84372,0.07518666,0.88931
415.966,131.545,-2.8536,0.0741902,0.88763
419.066,132.574,-2.86218,0.07580526,0.88594
422.166,133.594,-2.86544,0.07762681,0.88425
425.266,134.618,-2.87117,0.07829927,0.88254
428.366,135.6439,-2.88059,0.07705919,0.88082
431.466,136.675,-2.8865,0.07830406,0.87908
434.566,137.694,-2.89011,0.07819791,0.87734
437.666,138.716,-2.89672,0.07846222,0.87559
440.766,139.742,-2.90058,0.07724841,0.87382
443.866,140.781,-2.90575,0.07447216,0.87204
446.966,141.81,-2.91185,0.07848308,0.87026
450.066,142.837,-2.91436,0.07692874,0.86845
453.166,143.865,-2.92057,0.0730014,0.86664
456.266,144.894,-2.92369,0.07995012,0.86482
459.366,145.917,-2.9272,0.08213743,0.86298
462.466,146.94,-2.93065,0.07987784,0.86113
465.566,147.9743,-2.9336,0.0825761,0.85927
468.666,149,-2.9397,0.079883,0.8574
471.766,150.03,-2.94366,0.08039016,0.85552
474.866,151.061,-2.94563,0.08022678,0.85362
477.966,152.082,-2.94966,0.08469107,0.85171
481.066,153.1169,-2.95133,0.07590284,0.84979
484.166,154.146,-2.95297,0.07189119,0.84786
487.266,155.18,-2.95584,0.05836725,0.84591
490.366,156.215,-2.9585,0.04807104,0.84396
493.466,157.247,-2.96273,0.04446243,0.84198
496.566,158.275,-2.96701,0.04023927,0.84
499.666,159.312,-2.96828,0.04217021,0.838
502.766,160.341,-2.97208,0.04191058,0.836
505.866,161.381,-2.97502,0.0445248,0.83397
508.966,162.416,-2.977,0.04093678,0.83194
512.066,163.444,-2.98264,0.04257297,0.82989
515.166,164.474,-2.98127,0.04251027,0.82783
518.266,165.506,-2.98402,0.04395575,0.82576
521.366,166.54,-2.98379,0.04292218,0.82367
524.466,167.575,-2.98841,0.04453015,0.82158
527.566,168.616,-2.99027,0.04590052,0.81946
530.666,169.646,-2.99334,0.04577654,0.81734
533.766,170.682,-2.99534,0.05208229,0.8152
536.866,171.718,-2.99562,0.05190534,0.81305
539.966,172.7585,-2.99987,0.05178067,0.81089
543.066,173.793,-3.00386,0.05363906,0.80871
546.166,174.83,-3.00445,0.05523052,0.80652
549.266,175.864,-3.00649,0.05545362,0.80432
552.366,176.907,-3.00884,0.05278343,0.80211
555.466,177.946,-3.01147,0.05423058,0.79988
558.566,178.9798,-3.01363,0.05287263,0.79764
561.666,180.017,-3.01426,0.05612176,0.79538
564.766,181.058,-3.01889,0.05837707,0.79312
567.866,182.09,-3.01802,0.0608303,0.79084
570.966,183.134,-3.02037,0.06187333,0.78854
574.066,184.177,-3.02515,0.0603988,0.78624
577.166,185.218,-3.02526,0.06197431,0.78392
580.266,186.26,-3.0261,0.06404363,0.78158
583.366,187.297,-3.03217,0.06887044,0.77924
586.466,188.337,-3.03394,0.06633042,0.77688
589.566,189.38,-3.03514,0.06763309,0.77451
592.666,190.414,-3.03612,0.07399343,0.77213
595.766,191.455,-3.04195,0.07745758,0.76973
598.866,192.498,-3.04409,0.07527299,0.76732
601.966,193.54,-3.04558,0.08151054,0.7649
605.066,194.584,-3.04906,0.08409751,0.76247
608.166,195.621,-3.05037,0.08883892,0.76002
611.266,196.6579,-3.05597,0.08783841,0.75756
614.366,197.696,-3.05855,0.09148583,0.75509
617.466,198.742,-3.06157,0.08819486,0.7526
620.566,199.78,-3.0649,0.09180578,0.75011
623.666,200.818,-3.06773,0.0911277,0.7476
626.766,201.861,-3.07052,0.09468211,0.74507
629.866,202.907,-3.0731,0.0907241,0.74254
632.966,203.95,-3.07879,0.08125241,0.73999
636.066,204.991,-3.07838,0.08017673,0.73743
639.166,206.034,-3.07955,0.07991397,0.73486
642.266,207.0848,-3.08092,0.08028231,0.73228
645.366,208.133,-3.0823,0.08343226,0.72969
648.466,209.1778,-3.08578,0.08754146,0.72708
651.566,210.218,-3.08893,0.08599781,0.72446
654.666,211.257,-3.08851,0.08855654,0.72183
657.766,212.294,-3.08925,0.09186847,0.71919
660.866,213.346,-3.09349,0.08972716,0.71654
663.966,214.399,-3.09416,0.08850886,0.71387
667.066,215.442,-3.09345,0.08810795,0.71119
670.166,216.481,-3.09876,0.09272963,0.70851
673.266,217.5299,-3.0994,0.09111481,0.70581
676.366,218.577,-3.09962,0.08916091,0.7031
679.466,219.623,-3.10434,0.09008486,0.70038
682.566,220.682,-3.10434,0.09458418,0.69764
685.666,221.734,-3.10675,0.10223,0.6949
688.766,222.779,-3.10839,0.10374,0.69215
691.866,223.825,-3.11103,0.10211,0.68938
694.966,224.866,-3.10971,0.10088,0.68661
698.066,225.9149,-3.11265,0.09959817,0.68382
701.166,226.968,-3.11828,0.10081,0.68103
704.266,228.014,-3.11873,0.10439,0.67822
707.366,229.056,-3.11696,0.09974293,0.6754
710.466,230.108,-3.11893,0.0957604,0.67258
713.566,231.154,-3.12185,0.09790627,0.66974
716.666,232.205,-3.12229,0.09409426,0.66689
719.766,233.249,-3.12408,0.09255598,0.66404
722.866,234.291,-3.12409,0.09013098,0.66117
725.966,235.342,-3.12627,0.08740279,0.6583
729.066,236.4,-3.12935,0.08706597,0.65541
732.166,237.447,-3.1267,0.08172694,0.65252
735.266,238.494,-3.13103,0.081339,0.64962
738.366,239.544,-3.13231,0.08416098,0.6467
741.466,240.597,-3.13445,0.08442287,0.64378
744.566,241.647,-3.13395,0.08359958,0.64086
747.666,242.701,-3.13164,0.08340315,0.63792
749.466,243.3083,-3.13827,0.08320856,0.63621