Folder: fsri_materials_database/01_Data/PMMA/Cone (part 6)

File: PMMA_Cone_HF75Scan_220225_R2.csv
Names,Time,Stack TC,Smoke TC,Exh Press,Smoke Comp,Smoke Meas,CO Meter,CO2 Meter,O2 Meter,Sample Mass,Ext Coeff,Start Test,Flame Verif
Chan Gain,,500,500,1,1,1,1,1,1,1,1,1.0,1.0
Offset,,0,0,0.136092,0,0,0,0,0,0,0,0.0,0.0
Gain,,1,1,25.011,15.4219,15.1528,1,1,1,1.00089,1.02113,1.0,1.0
Units,sec,C,C,Pa,%,%,%,%,%,g,/m,,
Baseline,,45.4028,46.3004,151.007,115.635,111.536,-0.00917167,0.102459,20.7975,-0.120398,0.323424,,
10,2.25,41.1814,42.0885,152.244,115.311,110.01,-0.00905849,0.103899,20.8016,900.107,0.421558,0.0,0.0
20,4.75,41.2253,41.8484,152.093,115.58,111.361,-0.00900335,0.104447,20.7998,900.127,0.333023,0.0,0.0
30,7.25,40.7348,41.1498,148.856,115.97,112.051,-0.00891824,0.105108,20.7979,900.127,0.307885,0.0,0.0
40,9.75,41.1904,41.9904,152.044,116.195,111.584,-0.00899208,0.105211,20.798,900.157,0.362658,0.0,0.0
50,12.25,41.6054,42.3695,153.605,116.252,111.311,-0.00900688,0.104348,20.7983,900.127,0.389085,0.0,0.0
60,14.75,41.698,42.3388,152.275,116.178,111.994,-0.00884804,0.108389,20.7935,900.127,0.328487,0.0,0.0
70,17.25,41.5012,42.6102,138.797,115.993,108.129,-0.00811352,0.169128,20.679,899.887,0.628829,0.0,1.0
80,19.75,43.4592,44.3752,129.955,115.665,101.239,-0.00663838,0.353167,20.3932,899.557,1.19327,0.0,1.0
90,22.25,46.0589,46.9534,121.922,115.611,97.3503,-0.00449684,0.600503,20.0727,899.226,1.5399,0.0,0.0
100,24.75,50.0234,52.7355,118.907,115.765,93.6347,-0.00236198,0.835842,19.7223,898.726,1.90039,0.0,0.0
110,27.25,54.5634,58.4281,105.078,115.924,96.0042,-0.00084181,1.05568,19.4277,898.236,1.68884,0.0,0.0
120,29.75,59.7383,64.8239,106.572,116.094,94.6557,0.000455531,1.2381,19.2251,897.655,1.82866,0.0,0.0
130,32.25,64.8991,71.9758,96.8936,116.22,93.6365,0.00206044,1.43038,18.9876,897.055,1.93535,0.0,0.0
140,34.75,71.0796,79.116,91.5507,116.347,93.6125,0.00363998,1.61546,18.7594,896.374,1.94741,0.0,0.0
150,37.25,77.432,86.79,86.6886,116.422,94.2072,0.00519681,1.79661,18.5194,895.703,1.89644,0.0,0.0
160,39.75,84.0617,95.1331,101.985,116.464,91.7475,0.00667681,1.99228,18.2373,894.943,2.13668,0.0,0.0
170,42.25,89.6725,103.364,97.144,116.474,91.9103,0.00841101,2.21123,17.9664,894.082,2.12156,0.0,0.0
180,44.75,97.3135,113.346,90.9645,116.402,90.9364,0.0103908,2.43105,17.673,893.251,2.21147,0.0,0.0
190,47.25,104.651,123.111,84.1156,116.311,90.8069,0.0121967,2.6686,17.3628,892.35,2.21724,0.0,0.0
200,49.75,112.132,132.417,87.2618,116.181,91.4363,0.0140751,2.89175,17.094,891.369,2.14533,0.0,0.0
210,52.25,119.39,142.38,74.6098,116.004,90.099,0.0162456,3.16838,16.7317,890.439,2.26365,0.0,0.0
220,54.75,127.414,152.908,81.6571,115.793,90.049,0.0181592,3.42466,16.4618,889.338,2.25229,0.0,0.0
230,57.25,134.958,163.217,75.986,115.598,88.6229,0.0199021,3.66601,16.2141,888.147,2.38019,0.0,0.0
240,59.75,142.74,174.371,81.6151,115.353,89.8872,0.0208224,3.94247,15.8535,887.156,2.23433,0.0,0.0
250,62.25,150.634,185.367,63.8209,115.155,89.348,0.0215542,4.18034,15.5025,885.815,2.27279,0.0,0.0
260,64.75,158.332,196.141,73.9015,114.933,88.6076,0.0228933,4.46557,15.1741,884.613,2.3301,0.0,0.0
270,67.25,166.08,207.64,60.4114,114.732,87.3887,0.024757,4.69801,14.8655,883.492,2.43843,0.0,0.0
280,69.75,173.218,217.966,75.3799,114.547,85.7757,0.0267163,4.9428,14.5807,882.101,2.59088,0.0,0.0
290,72.25,180.531,228.735,72.7489,114.38,85.1422,0.0284204,5.15106,14.3439,880.81,2.64425,0.0,0.0
300,74.75,186.838,237.58,71.3552,114.266,84.1295,0.0299596,5.27689,14.1723,879.439,2.74246,0.0,0.0
310,77.25,194.156,247.146,81.4892,114.157,85.76,0.0309521,5.36957,14.0812,878.148,2.562,0.0,0.0
320,79.75,200.575,255.884,60.9655,114.125,87.7064,0.0310016,5.4416,14.005,876.756,2.35843,0.0,0.0
330,82.25,205.706,263.965,70.2584,114.083,85.5741,0.0309187,5.55435,13.8853,875.505,2.57556,0.0,0.0
340,84.75,212.16,272.057,75.9906,114.097,87.6425,0.0310052,5.56055,13.8596,874.174,2.36277,0.0,0.0
350,87.25,216.467,279.105,77.4606,114.145,87.5519,0.0311819,5.47674,13.989,872.883,2.37581,0.0,0.0
360,89.75,220.696,285.051,65.2253,114.221,86.6391,0.0308282,5.33495,14.1533,871.622,2.47563,0.0,0.0
370,92.25,224.062,289.443,68.2296,114.311,87.6943,0.0292077,5.06666,14.4968,870.461,2.37428,0.0,0.0
380,94.75,226.894,291.636,75.4502,114.455,87.4987,0.0266656,4.63786,15.1204,869.64,2.40556,0.0,0.0
390,97.25,227.264,292.245,80.3916,114.586,86.259,0.0238478,4.14267,15.709,868.689,2.54358,0.0,0.0
400,99.75,227.18,290.923,86.3299,114.763,86.5586,0.0204509,3.61981,16.2174,867.809,2.52634,0.0,0.0
410,102.25,225.768,287.353,96.0349,114.885,89.3679,0.0154421,3.09614,16.9357,867.138,2.24976,0.0,0.0
420,104.75,221.654,281.532,99.8734,115.034,93.1491,0.0100148,2.43955,17.792,866.698,1.89022,0.0,0.0
430,107.25,216.578,273.912,123.128,115.166,97.391,0.00457364,1.7631,18.6964,866.497,1.50163,0.0,0.0
440,109.75,209.055,263.064,136.737,115.299,104.289,-0.000121729,1.12815,19.5855,866.407,0.899024,0.0,0.0
450,112.25,200.576,251.136,142.691,115.423,106.886,-0.00379985,0.67227,20.1184,866.407,0.68835,0.0,0.0
460,114.75,191.542,238.992,142.676,115.527,106.403,-0.00597082,0.417922,20.4456,866.377,0.736928,0.0,0.0
470,117.25,183.002,227.628,141.334,115.599,106.428,-0.00713243,0.284912,20.6044,866.387,0.740447,0.0,0.0
480,119.75,175.72,217.428,139.027,115.657,106.892,-0.00782442,0.220201,20.6799,866.377,0.705942,0.0,0.0
490,122.25,169.266,208.349,142.147,115.709,106.915,-0.00817257,0.185592,20.7136,866.367,0.708012,0.0,0.0
500,124.75,162.387,198.983,141.335,115.735,107.224,-0.00844146,0.167138,20.7268,866.377,0.68421,0.0,0.0
510,127.25,156.464,190.77,144.133,115.74,107.028,-0.00875067,0.155811,20.7389,866.387,0.70093,0.0,0.0
520,129.75,150.849,183.234,138.36,115.723,106.964,-0.00891966,0.146629,20.7504,866.387,0.705001,0.0,0.0
530,132.25,145.741,176.091,145.993,115.718,106.466,-0.00902579,0.139497,20.7592,866.407,0.746477,0.0,0.0
540,134.75,140.842,169.108,144.084,115.698,106.798,-0.00911845,0.133986,20.767,866.387,0.716982,0.0,0.0
550,137.25,136.298,163.202,142.157,115.701,107.192,-0.00916471,0.128947,20.7719,866.357,0.684256,0.0,0.0
560,139.75,132.558,157.769,141.447,115.675,107.089,-0.00899869,0.124735,20.7774,866.347,0.690759,0.0,0.0
570,142.25,128.029,151.933,141.122,115.661,106.497,-0.00887536,0.121152,20.7799,866.357,0.739426,0.0,0.0
580,144.75,123.685,146.346,141.002,115.621,106.504,-0.00893636,0.117989,20.7809,866.367,0.735668,0.0,0.0
590,147.25,121.029,141.929,141.156,115.579,106.957,-0.00904838,0.115916,20.777,866.377,0.694427,0.0,0.0
600,149.75,117.474,137.609,140.672,115.542,106.046,-0.00917529,0.113967,20.7781,866.387,0.768201,0.0,0.0
610,152.25,114.849,133.55,140.749,115.51,106.793,-0.00902084,0.112316,20.7792,866.347,0.702897,0.0,0.0
620,154.75,111.894,129.403,140.187,115.469,106.867,-0.00872768,0.111031,20.7816,866.377,0.693444,0.0,0.0
630,157.25,108.915,125.923,148.159,115.432,106.752,-0.00875006,0.109889,20.783,866.367,0.700176,0.0,0.0
640,159.75,106.29,122.105,141.333,115.44,106.843,-0.00898764,0.109015,20.7845,866.377,0.693194,0.0,0.0
650,162.25,103.88,118.821,140.412,115.39,107.773,-0.00909675,0.108463,20.7851,866.367,0.611659,0.0,0.0
660,164.75,101.803,115.141,144.235,115.453,106.414,-0.00912485,0.107906,20.7864,866.377,0.730266,0.0,0.0
670,167.25,99.362,112.871,143.895,115.628,106.455,-0.00924676,0.107669,20.7872,866.357,0.7403,0.0,0.0
680,169.75,97.3392,109.558,145,115.79,107.175,-0.00938446,0.107452,20.7872,866.357,0.692533,0.0,0.0
690,172.25,95.4435,107.142,140.95,115.909,107.905,-0.00943931,0.107164,20.786,866.377,0.640921,0.0,0.0
700,174.75,94.1548,104.712,145.082,116.037,107.892,-0.00932272,0.106994,20.7853,866.377,0.651845,0.0,0.0
710,177.25,92.0241,102.305,144.317,116.116,107.077,-0.00926451,0.106688,20.7859,866.347,0.725922,0.0,0.0
720,179.75,89.7329,99.2578,143.364,116.191,107.154,-0.00931846,0.106596,20.7868,866.347,0.725273,0.0,0.0
730,182.25,88.8894,97.976,141.94,116.255,107.813,-0.00924685,0.106582,20.7873,866.327,0.67529,0.0,0.0
740,184.75,87.0683,95.4617,144.575,116.303,108.046,-0.00920445,0.106309,20.7888,866.357,0.65961,0.0,0.0
750,187.25,85.4405,93.3073,144.894,116.327,107.781,-0.00913841,0.106126,20.7893,866.347,0.683487,0.0,0.0
760,189.75,84.7353,92.1348,143.47,116.346,107.501,-0.00909971,0.105945,20.7882,866.337,0.708294,0.0,0.0
770,192.25,83.9505,90.4447,146.411,116.363,107.371,-0.0091004,0.105978,20.7881,866.347,0.720394,0.0,0.0
780,194.75,82.4382,88.7767,145.846,116.343,107.461,-0.00917332,0.10616,20.7882,866.307,0.71128,0.0,0.0
790,197.25,81.7053,87.0065,140.934,116.319,107.919,-0.0093183,0.106214,20.7883,866.357,0.671465,0.0,0.0
800,199.75,79.8454,85.8406,144.669,116.293,107.601,-0.00939015,0.106418,20.7883,866.347,0.695803,0.0,0.0
810,202.25,79.0838,84.1983,144.436,116.254,108.179,-0.00930424,0.106322,20.7885,866.337,0.644807,0.0,0.0
820,204.75,78.2435,83.3426,143.289,116.192,107.745,-0.00921373,0.106243,20.7889,866.327,0.676042,0.0,0.0
830,207.25,77.5291,81.4271,146.943,116.156,108.032,-0.00911973,0.105994,20.789,866.357,0.649445,0.0,0.0
840,209.75,76.4971,80.4561,142.879,116.084,107.384,-0.00902805,0.105921,20.7891,866.327,0.697804,0.0,0.0
850,212.25,75.4817,79.496,143.228,116.037,107.497,-0.00901891,0.10606,20.789,866.317,0.684727,0.0,0.0
860,214.75,74.7016,78.9048,144.798,115.953,107.707,-0.00912334,0.106005,20.7854,866.337,0.660781,0.0,0.0
870,217.25,73.9846,77.4279,145.991,115.887,108.137,-0.00924276,0.106037,20.7839,866.337,0.61996,0.0,0.0
880,219.75,73.6724,76.8971,146.899,115.794,107.35,-0.00919878,0.106073,20.7844,866.327,0.678224,0.0,0.0
890,222.25,72.365,75.808,143.005,115.733,107.573,,0.105818,,866.317,0.654873,0.0,0.0
900,224.75,72.4505,74.7248,144.049,115.673,107.286,,,,866.317,0.674226,0.0,0.0
910,227.25,71.3266,74.5292,146.526,115.688,107.743,,,,866.327,0.637329,0.0,0.0
920,229.75,71.1884,73.1666,145.899,115.716,107.463,,,,866.297,0.662769,0.0,0.0
930,232.25,70.5783,72.2384,148.675,115.729,107.637,,,,866.297,0.649307,0.0,0.0
931,232.5,70.622,72.4609,144.844,115.73,107.13,,,,866.317,0.691654,0.0,0.0

File: PMMA_Cone_HF75Scan_220225_R3.csv
Names,Time,Stack TC,Smoke TC,Exh Press,Smoke Comp,Smoke Meas,CO Meter,CO2 Meter,O2 Meter,Sample Mass,Ext Coeff,Start Test,Flame Verif
Chan Gain,,500,500,1,1,1,1,1,1,1,1,1.0,1.0
Offset,,0,0,0.136092,0,0,0,0,0,0,0,0.0,0.0
Gain,,1,1,25.011,15.4219,15.1528,1,1,1,1.00089,1.02113,1.0,1.0
Units,sec,C,C,Pa,%,%,%,%,%,g,/m,,
Baseline,,46.1187,47.0268,150.616,115.968,111.438,-0.00907406,0.114241,20.7598,-0.218485,0.357036,,
10,2.25,41.7912,42.5035,150.37,115.51,110.689,-0.00919006,0.11268,20.7651,510.452,0.381869,0.0,0.0
20,4.75,41.3425,41.9286,149.54,115.512,110.852,-0.00914581,0.112975,20.7649,510.482,0.368815,0.0,0.0
30,7.25,41.8816,41.8146,149.099,115.534,110.896,-0.00916354,0.113376,20.7638,510.462,0.366945,0.0,0.0
40,9.75,41.8667,42.2755,150.366,115.54,111.573,-0.0091784,0.113384,20.7642,510.472,0.312941,0.0,0.0
50,12.25,42.1811,42.9005,150.792,115.546,110.949,-0.00906563,0.11321,20.7646,510.442,0.363599,0.0,0.0
60,14.75,42.2673,43.168,152.309,115.56,110.814,-0.00862325,0.122066,20.7548,510.402,0.375602,0.0,0.0
70,17.25,42.7968,43.3199,140.229,115.559,105.949,-0.0077445,0.194335,20.6501,510.362,0.777757,0.0,1.0
80,19.75,44.5058,45.2565,127.752,115.561,100.9,-0.00630353,0.377756,20.3873,509.952,1.21521,0.0,1.0
90,22.25,47.0114,48.2931,127.9,115.582,100.664,-0.00490596,0.559814,20.1456,509.601,1.23778,0.0,0.0
100,24.75,50.209,52.5358,121.518,115.592,98.5091,-0.00337853,0.767778,19.8378,509.171,1.43241,0.0,0.0
110,27.25,54.2174,57.8813,114.426,115.616,96.5961,-0.00188773,0.960027,19.5577,508.681,1.60997,0.0,0.0
120,29.75,59.1514,63.8754,111.147,115.607,95.4312,-0.000249505,1.14584,19.3491,508.15,1.71791,0.0,0.0
130,32.25,64.4753,69.7707,105.3,115.622,93.4927,0.00118237,1.3074,19.1104,507.62,1.90286,0.0,0.0
140,34.75,69.7129,76.5993,98.8835,115.643,94.9845,0.00248644,1.44973,18.9226,506.959,1.76275,0.0,0.0
150,37.25,74.7492,83.3426,101.943,115.636,94.0962,0.00410958,1.60113,18.7302,506.338,1.84636,0.0,0.0
160,39.75,80.6568,90.326,101.921,115.665,93.4247,0.00594881,1.75583,18.5179,505.638,1.91277,0.0,0.0
170,42.25,86.917,98.1769,88.4777,115.647,91.403,0.00723678,1.93313,18.3315,504.927,2.10731,0.0,0.0
180,44.75,91.9821,105.688,84.092,115.668,91.5861,0.0088132,2.124,18.108,504.177,2.09103,0.0,0.0
190,47.25,99.1856,114.542,100.578,115.655,91.1783,0.0105352,2.34083,17.7854,503.326,2.13002,0.0,0.0
200,49.75,105.598,123.384,83.6859,115.676,90.2368,0.0119012,2.54269,17.5366,502.465,2.22456,0.0,0.0
210,52.25,112.237,132.313,80.2733,115.678,91.1736,0.0130422,2.74536,17.2793,501.544,2.13226,0.0,0.0
220,54.75,119.185,141.625,83.073,115.696,89.329,0.0142804,2.93509,17.0235,500.613,2.31669,0.0,0.0
230,57.25,126.787,150.008,85.3834,115.692,90.6798,0.0164937,3.1692,16.7505,499.492,2.18197,0.0,0.0
240,59.75,133.536,159.989,76.5088,115.692,88.2053,0.0190062,3.39119,16.4506,498.552,2.42979,0.0,0.0
250,62.25,140.397,169.594,76.5134,115.716,88.3149,0.0207809,3.63348,16.1631,497.471,2.42049,0.0,0.0
260,64.75,147.679,179.543,73.2214,115.721,89.661,0.0220475,3.8624,15.9345,496.37,2.28543,0.0,0.0
270,67.25,155.064,189.555,77.8232,115.734,86.2044,0.0235781,4.11994,15.6042,495.199,2.63857,0.0,0.0
280,69.75,162.117,200.358,68.5975,115.739,88.0208,0.0246981,4.37391,15.2722,493.917,2.45219,0.0,0.0
290,72.25,169.161,210.151,70.2591,115.747,85.9635,0.025573,4.56182,15.0576,492.786,2.66462,0.0,0.0
300,74.75,175.577,219.011,82.0548,115.758,87.114,0.0265631,4.64776,14.9682,491.655,2.54641,0.0,0.0
310,77.25,181.691,227.929,79.739,115.777,86.0749,0.0276174,4.66567,14.9159,490.504,2.65534,0.0,0.0
320,79.75,187.97,235.819,77.6515,115.768,86.2409,0.0283157,4.72607,14.8308,489.153,2.63743,0.0,0.0
330,82.25,193.331,242.879,83.0478,115.785,85.7433,0.0283711,4.78451,14.7712,487.982,2.69053,0.0,0.0
340,84.75,197.606,250.577,66.1428,115.782,86.3926,0.0287398,4.84114,14.7017,486.751,2.62275,0.0,0.0
350,87.25,203.339,257.186,77.8011,115.781,87.0691,0.0295653,4.94743,14.5876,485.53,2.55277,0.0,0.0
360,89.75,208.221,263.902,68.1471,115.771,88.1433,0.0300643,5.05844,14.4519,484.279,2.4422,0.0,0.0
370,92.25,213.007,271.405,75.5463,115.784,88.4083,0.0296049,5.11604,14.3985,483.068,2.41634,0.0,0.0
380,94.75,217.38,276.965,82.2861,115.788,85.4765,0.0293643,5.04453,14.4783,481.867,2.7187,0.0,0.0
390,97.25,221.108,281.362,70.8324,115.78,85.9108,0.0288205,4.96713,14.5785,480.716,2.67266,0.0,0.0
400,99.75,223.416,285.071,77.1027,115.8,89.6282,0.0273361,4.72453,14.8829,479.625,2.29479,0.0,0.0
410,102.25,226.314,286.924,79.3162,115.783,85.5898,0.0240517,4.26014,15.5661,478.704,2.70648,0.0,0.0
420,104.75,225.886,286.716,92.0087,115.804,89.9232,0.0188171,3.64599,16.3108,477.943,2.26564,0.0,0.0
430,107.25,223.688,282.644,104.652,115.783,92.234,0.0125656,2.84025,17.32,477.453,2.03681,0.0,0.0
440,109.75,218.499,275.388,130.007,115.813,99.2846,0.00601919,1.9565,18.4212,477.273,1.37926,0.0,0.0
450,112.25,210.619,264.231,133.168,115.798,103.487,0.000639052,1.20971,19.282,477.213,1.00676,0.0,0.0
460,114.75,201.507,251.534,135.036,115.813,105.017,-0.00327566,0.741091,19.9412,477.173,0.876523,0.0,0.0
470,117.25,192.791,240.222,141.814,115.798,106.517,-0.00531204,0.478658,20.3139,477.143,0.748351,0.0,0.0
480,119.75,185.143,229.458,139.674,115.836,107.251,-0.00653095,0.336845,20.5002,477.133,0.689723,0.0,0.0
490,122.25,176.899,218.118,140.919,115.806,107.362,-0.00741086,0.25461,20.6171,477.163,0.678168,0.0,0.0
500,124.75,169.566,208.894,143.601,115.807,106.513,-0.00804481,0.205088,20.6802,477.133,0.749354,0.0,0.0
510,127.25,162.96,199.813,146.509,115.821,107.137,-0.00857779,0.178157,20.7152,477.173,0.698105,0.0,0.0
520,129.75,157.133,191.309,143.369,115.814,107.128,-0.00880368,0.160417,20.7355,477.173,0.69833,0.0,0.0
530,132.25,151.077,183.936,141.459,115.8,107.093,-0.00884719,0.149096,20.7492,477.153,0.700175,0.0,0.0
540,134.75,145.489,175.683,140.863,115.797,107.457,-0.00884251,0.141617,20.7541,477.153,0.669496,0.0,0.0
550,137.25,140.821,169.081,142.367,115.811,107.184,-0.00875611,0.13609,20.7564,477.133,0.693396,0.0,0.0
560,139.75,135.96,163.112,141.312,115.806,107.353,-0.00864333,0.131594,20.7593,477.173,0.678938,0.0,0.0
570,142.25,131.97,156.676,143.477,115.807,106.726,-0.0086783,0.127455,20.7644,477.103,0.731484,0.0,0.0
580,144.75,127.87,151.824,142.532,115.798,106.628,-0.00880154,0.124094,20.7666,477.103,0.738989,0.0,0.0
590,147.25,124.602,146.756,147.51,115.815,106.452,-0.00891774,0.121727,20.7695,477.113,0.755107,0.0,0.0
600,149.75,120.73,141.869,141.98,115.798,107.072,-0.00893532,0.119649,20.7713,477.113,0.701769,0.0,0.0
610,152.25,117.486,136.974,141.893,115.801,107.549,-0.00904146,0.118018,20.7714,477.143,0.662231,0.0,0.0
620,154.75,113.991,132.948,140.771,115.796,107.189,-0.00939912,0.116974,20.7715,477.133,0.691769,0.0,0.0
630,157.25,111.154,128.908,141.92,115.811,107.635,-0.0096478,0.116243,20.7701,477.113,0.65576,0.0,0.0
640,159.75,108.266,125.007,141.08,115.786,107.607,-0.00966252,0.115677,20.7661,477.123,0.65614,0.0,0.0
650,162.25,105.477,121.051,144.066,115.798,107.213,-0.00947438,0.115343,20.7644,477.113,0.689978,0.0,0.0
660,164.75,103.362,118.138,144.618,115.773,107.206,-0.00930074,0.115089,20.7633,477.093,0.688555,0.0,0.0
670,167.25,100.632,114.542,143.91,115.782,107.573,-0.00924641,0.114989,20.763,477.103,0.658735,0.0,0.0
680,169.75,98.9232,111.047,146.288,115.76,106.874,-0.00921909,0.114618,20.7616,477.113,0.715431,0.0,0.0
690,172.25,96.5658,108.682,141.609,115.76,108.836,-0.00915496,0.114287,20.7621,477.113,0.552516,0.0,0.0
700,174.75,94.552,105.541,145.423,115.758,107.793,-0.00917474,0.113487,20.7634,477.143,0.638494,0.0,0.0
710,177.25,92.4786,102.788,143.757,115.742,107.799,-0.00922228,0.112742,20.7654,477.113,0.636794,0.0,0.0
720,179.75,90.9774,101.666,142.772,115.744,108.151,-0.00928564,0.112,20.7668,477.123,0.607781,0.0,0.0
730,182.25,89.5809,98.9205,146.877,115.724,107.58,-0.00925886,0.111401,20.7669,477.123,0.653604,0.0,0.0
740,184.75,87.7279,96.7449,144.902,115.721,107.963,-0.00931243,0.110875,20.7687,477.093,0.62156,0.0,0.0
750,187.25,86.0818,94.5201,146.576,115.688,107.326,-0.00954263,0.110552,20.7705,477.133,0.672073,0.0,0.0
760,189.75,84.7439,92.6835,150.3,115.678,107.877,-0.0097476,0.110436,20.7712,477.083,0.625387,0.0,0.0
770,192.25,83.4622,90.6188,146.91,115.651,107.769,-0.00974054,0.110602,20.7714,477.103,0.632258,0.0,0.0
780,194.75,82.0919,88.7692,146.551,115.644,107.901,-0.00963503,0.11065,20.7715,477.073,0.620803,0.0,0.0
790,197.25,80.6559,87.1706,147.171,115.606,107.81,-0.00944694,0.110352,20.7731,477.103,0.625338,0.0,0.0
800,199.75,79.8064,85.797,149.501,115.61,107.155,-0.00935196,0.109889,20.7751,477.103,0.680237,0.0,0.0
810,202.25,78.914,84.3689,148.59,115.576,108.049,-0.00939232,0.109363,20.7771,477.103,0.603163,0.0,0.0
820,204.75,77.1555,82.6865,142.579,115.568,107.71,-0.00935444,0.108791,20.778,477.093,0.6308,0.0,0.0
830,207.25,76.4381,81.3698,141.608,115.531,107.426,-0.00929185,0.108338,20.779,477.083,0.651486,0.0,0.0
840,209.75,75.2663,80.1138,141.904,115.512,107.811,-0.0092541,0.108507,20.7794,477.133,0.61804,0.0,0.0
850,212.25,75.287,78.82,145.214,115.479,107.698,-0.00920704,0.108844,20.7795,477.113,0.624829,0.0,0.0
860,214.75,74.3323,77.9457,144.585,115.448,107.625,-0.00913388,0.109031,20.7795,477.093,0.628497,0.0,0.0
870,217.25,73.2039,76.7174,145.442,115.43,108.08,-0.00912207,0.109062,20.7795,477.083,0.589244,0.0,0.0
880,219.75,72.8167,75.5823,145.186,115.387,107.12,-0.00915527,0.109428,20.7795,477.083,0.665875,0.0,0.0
890,222.25,72.5088,74.7523,148.116,115.362,106.939,-0.00899679,0.109785,20.7795,477.083,0.679145,0.0,0.0
900,224.75,71.2009,73.7906,144.811,115.308,107.411,-0.0088879,0.109697,20.7791,477.103,0.635446,0.0,0.0
910,227.25,70.6271,72.6464,146.667,115.277,108.425,-0.00895297,0.109323,20.7795,477.093,0.548935,0.0,0.0
920,229.75,70.1399,71.7824,144.185,115.213,107.938,-0.00911241,0.109036,20.7799,477.103,0.584279,0.0,0.0
930,232.25,69.0398,71.0916,143.564,115.177,107.47,,0.108458,,477.113,0.620381,0.0,0.0
940,234.75,68.7418,69.9665,145.736,115.099,108.462,,,,477.103,0.532008,0.0,0.0
950,237.25,68.0633,69.9188,141.246,115.068,107.458,,,,477.093,0.612887,0.0,0.0
960,239.75,67.7188,68.841,145.085,115.006,108.334,,,,477.073,0.5353,0.0,0.0
968,241.75,67.8109,68.4974,147.433,114.978,107.636,,,,477.073,0.591096,0.0,0.0