Folder: fsri_materials_database/01_Data/PMMA/Cone (part 5)

File: PMMA_Cone_HF50Scan_210826_R3.csv
Names,Time,Stack TC,Smoke TC,Exh Press,Smoke Comp,Smoke Meas,CO Meter,CO2 Meter,O2 Meter,Sample Mass,Ext Coeff,Start Test,Flame Verif
Chan Gain,,500,500,1,1,1,1,1,1,1,1,1.0,1.0
Offset,,0,0,0.141443,0,0,0,0,0,0,0,0.0,0.0
Gain,,1,1,25.011,13.1742,16.6938,1,1,1,1.00099,1.02845,1.0,1.0
Units,sec,C,C,Pa,%,%,%,%,%,g,/m,,
Baseline,,45.8888,47.5495,164.507,101.322,111.955,0.00151943,0.0474149,20.9874,-507.06,-0.900313,,
12,2.75,42.5444,44.1758,162.585,100.934,111.563,0.00113572,0.0489872,20.9881,32.2118,-0.903249,0.0,0.0
24,5.75,43.1064,44.8224,165.381,100.968,111.695,0.00107085,0.0488711,20.9881,32.0416,-0.910936,0.0,0.0
36,8.75,43.2685,44.4362,167.548,100.991,111.721,0.00113147,0.0485549,20.9881,32.2018,-0.910911,0.0,0.0
48,11.75,43.4553,44.5237,163.113,101.007,111.772,0.00148668,0.0481408,20.9881,32.2118,-0.913592,0.0,0.0
60,14.75,42.8792,45.1495,165.345,101.03,111.613,0.00170321,0.0479729,20.9893,32.1517,-0.898742,0.0,0.0
72,17.75,43.4522,45.5248,164.146,101.055,111.936,0.001725,0.0476494,20.9897,32.0617,-0.922509,0.0,0.0
84,20.75,43.6084,45.0821,164.919,101.07,111.893,0.00159115,0.0474272,20.9895,31.9415,-0.917732,0.0,0.0
96,23.75,43.4037,45.427,166.909,101.099,111.858,0.00163598,0.0472956,20.9894,32.0717,-0.91235,0.0,0.0
108,26.75,43.1647,45.0233,164.685,101.134,111.791,0.00181545,0.0472864,20.9885,32.1417,-0.903845,0.0,0.0
120,29.75,43.6347,45.67,165.772,101.165,111.24,0.00206045,0.0597047,20.9758,32.0617,-0.856418,0.0,1.0
132,32.75,44.6781,47.4966,152.541,101.218,108.408,0.00272769,0.160157,20.8235,31.8515,-0.619069,0.0,1.0
144,35.75,46.2281,50.9748,142.926,101.294,106.107,0.00390538,0.359466,20.5681,31.4911,-0.41882,0.0,0.0
156,38.75,51.1941,58.3977,139.056,101.348,103.183,0.00541127,0.549393,20.3591,31.0707,-0.16186,0.0,0.0
168,41.75,56.4754,67.2205,136.46,101.427,101.318,0.00651306,0.708054,20.153,30.5702,0.00975122,0.0,0.0
180,44.75,61.6138,75.4328,134.205,101.508,100.844,0.00751282,0.849458,19.9583,30.1197,0.0591864,0.0,0.0
192,47.75,67.5364,84.1724,124.066,101.578,98.7479,0.00855626,0.96663,19.786,29.359,0.254948,0.0,0.0
204,50.75,72.8422,93.1728,133.076,101.656,99.4393,0.0093618,1.06008,19.6654,28.8084,0.198862,0.0,0.0
216,53.75,78.6612,101.209,126.157,101.721,96.6673,0.0106898,1.19544,19.4816,28.1578,0.459693,0.0,0.0
228,56.75,84.2056,110.41,113.827,101.785,96.3408,0.0122349,1.3477,19.2881,27.4071,0.49596,0.0,0.0
240,59.75,89.6116,119.348,113.752,101.833,96.2103,0.0136145,1.49002,19.1263,26.4962,0.51242,0.0,0.0
252,62.75,95.9754,128.865,110.685,101.888,93.848,0.0147251,1.5991,18.9726,25.6854,0.741578,0.0,0.0
264,65.75,101.268,137.277,116.113,101.934,94.5587,0.0155934,1.70985,18.842,24.8145,0.677574,0.0,0.0
276,68.75,106.734,145.318,105.171,101.971,93.6193,0.0169449,1.81155,18.6974,23.8235,0.770923,0.0,0.0
288,71.75,112.32,153.512,106.389,101.99,92.5193,0.0183387,1.92176,18.5672,22.9126,0.879216,0.0,0.0
300,74.75,117.023,160.661,99.4847,102.023,93.3956,0.0200417,2.01504,18.4419,21.9116,0.797124,0.0,0.0
312,77.75,121.654,168.195,106.031,102.044,92.2835,0.0220162,2.12475,18.2938,20.9407,0.906974,0.0,0.0
324,80.75,126.947,175.939,96.7819,102.075,90.8759,0.0237301,2.2463,18.1622,19.7895,1.04841,0.0,0.0
336,83.75,131.375,183.407,108.562,102.085,91.0939,0.0257448,2.36198,18.0066,18.7485,1.02772,0.0,0.0
348,86.75,136.846,191.639,126.456,102.102,91.2697,0.0278499,2.54238,17.8225,17.5974,1.01182,0.0,0.0
360,89.75,142.602,200.703,117.211,102.11,90.7006,0.0300183,2.70078,17.6193,16.3161,1.06895,0.0,0.0
372,92.75,147.534,208.842,96.3896,102.121,89.1391,0.0318479,2.81809,17.4654,15.145,1.22658,0.0,0.0
384,95.75,153.109,215.392,93.4174,102.117,90.4128,0.0319824,2.91335,17.3447,13.8537,1.09823,0.0,0.0
396,98.75,157.604,223.229,95.5439,102.126,91.5412,0.0307858,3.00192,17.2396,12.5924,0.987114,0.0,0.0
408,101.75,161.58,229.489,106.795,102.124,91.0852,0.0296782,3.02547,17.2122,11.3812,1.03199,0.0,0.0
420,104.75,165.685,234.387,88.1111,102.128,91.5809,0.0291513,2.9792,17.2601,10.0599,0.983342,0.0,0.0
432,107.75,167.699,236.587,96.1118,102.126,89.97,0.0293634,2.93381,17.3104,8.98888,1.1433,0.0,0.0
444,110.75,169.504,238.118,103.461,102.136,90.7301,0.0295829,2.89734,17.3559,7.81772,1.06825,0.0,0.0
456,113.75,171.439,239.723,100.879,102.134,91.4286,0.0289688,2.82797,17.4273,6.5865,0.998963,0.0,0.0
468,116.75,171.849,238.033,95.6385,102.141,90.9115,0.0266332,2.68386,17.616,5.50544,1.0507,0.0,0.0
480,119.75,171.921,236.424,108.202,102.141,93.1052,0.0241506,2.53292,17.8099,4.49444,0.835629,0.0,0.0
492,122.75,170.775,233.017,103.541,102.133,91.4979,0.0228344,2.39003,17.9703,3.51347,0.992023,0.0,0.0
504,125.75,170.316,229.793,106.8,102.13,91.5886,0.0211396,2.24838,18.1724,2.69266,0.982837,0.0,0.0
516,128.75,167.735,224.321,99.7091,102.135,92.6442,0.0190682,2.03108,18.4229,1.84182,0.879882,0.0,0.0
528,131.75,165.075,218.251,121.251,102.144,95.1298,0.0169263,1.81815,18.6776,1.15114,0.641807,0.0,0.0
540,134.75,162.471,211.209,110.498,102.153,96.4661,0.0148483,1.6251,18.8959,0.400395,0.516744,0.0,0.0
552,137.75,158.287,203.521,118.754,102.143,95.2577,0.0129204,1.43184,19.156,-0.200198,0.629617,0.0,0.0
564,140.75,153.248,194.474,123.373,102.143,98.1432,0.0112655,1.19902,19.4899,-0.570563,0.360359,0.0,0.0
576,143.75,148.329,185.047,129.513,102.124,99.2258,0.00971192,0.968033,19.7346,-0.950939,0.259756,0.0,0.0
588,146.75,142.668,174.479,136.003,102.119,102.945,0.00778646,0.752138,20.0717,-1.24123,-0.0726882,0.0,0.0
600,149.75,135.71,161.955,148.82,102.11,107.398,0.00594532,0.487177,20.4108,-1.34132,-0.455557,0.0,0.0
612,152.75,127.98,149.724,150.484,102.068,110.757,0.00423788,0.288124,20.6738,-1.50148,-0.737073,0.0,0.0
624,155.75,120.459,137.827,151.465,102.037,111.581,0.00316476,0.170131,20.826,-1.40138,-0.806585,0.0,0.0
636,158.75,112.789,126.836,155.553,101.993,111.812,0.00228165,0.108419,20.9049,-1.47145,-0.829176,0.0,0.0
648,161.75,107.1,118.18,153.73,101.943,111.576,0.00175132,0.0798506,20.95,-1.61159,-0.814648,0.0,0.0
660,164.75,102.216,110.853,157.022,101.885,111.819,0.00167964,0.067083,20.9678,-1.65163,-0.839359,0.0,0.0
672,167.75,98.1431,104.211,153.493,101.827,111.394,0.00141899,0.0605598,20.9774,-1.49147,-0.810101,0.0,0.0
684,170.75,94.8201,99.128,157.691,101.775,111.404,0.00128331,0.0565432,20.9817,-1.50148,-0.815558,0.0,0.0
696,173.75,91.4864,94.2687,154.734,101.753,111.414,0.00127015,0.054392,20.9841,-1.40138,-0.818313,0.0,0.0
708,176.75,88.981,90.4492,153.728,101.69,111.642,0.00136422,0.0527011,20.9862,-1.41139,-0.842332,0.0,0.0
720,179.75,86.3738,87.1055,156.601,101.651,111.169,0.00144528,0.051413,20.9867,-1.43141,-0.807508,0.0,0.0
732,182.75,84.041,83.7316,155.707,101.604,111.572,0.00147356,0.0507034,20.9869,-1.50148,-0.844249,0.0,0.0
744,185.75,82.7736,81.4977,152.399,101.54,111.513,0.00136606,0.0499063,20.9866,-1.48146,-0.845218,0.0,0.0
756,188.75,80.9796,79.3969,154.231,101.474,111.299,0.00118264,0.0493701,20.9863,-1.4214,-0.833757,0.0,0.0
768,191.75,79.335,77.6271,156.437,101.433,111.318,0.000992171,0.0488862,20.9864,-1.37135,-0.838931,0.0,0.0
780,194.75,78.2097,75.427,155.488,101.401,111.118,0.00100887,0.0484116,20.9879,-1.37135,-0.825594,0.0,0.0
792,197.75,76.9397,74.3865,157.595,101.341,111.459,0.00112554,0.0482646,20.9887,-1.57155,-0.858512,0.0,0.0
804,200.75,75.5094,72.6923,156.354,101.311,111.318,0.00130952,0.0481033,20.9889,-1.43141,-0.849732,0.0,0.0
816,203.75,74.3973,71.4645,154.839,101.284,110.606,0.00139907,0.0480025,20.9874,-1.53151,-0.794345,0.0,0.0
828,206.75,73.7738,70.5639,154.562,101.234,110.605,0.00127173,0.0477914,20.9879,-1.67165,-0.798661,0.0,0.0
840,209.75,72.6763,69.1104,157.603,101.196,111.32,0.00109266,0.0478104,20.9885,-1.48146,-0.860219,0.0,0.0
852,212.75,71.8807,68.0796,159.09,101.182,110.595,0.00112841,0.0476544,20.9886,-1.35133,-0.80253,0.0,0.0
864,215.75,70.6851,67.6936,154.217,101.169,111.241,0.00142751,0.0476632,20.9886,-1.39137,-0.856142,0.0,0.0
876,218.75,70.1935,66.6578,157.715,101.158,110.822,0.00171565,0.0475076,20.9886,-1.34132,-0.823155,0.0,0.0
888,221.75,69.2661,66.2668,153.794,101.157,110.951,0.00144014,0.0474839,20.9886,-1.48146,-0.833714,0.0,0.0
900,224.75,68.8599,65.7804,158.276,101.122,111.037,0.00118231,0.0473318,20.9886,-1.4214,-0.843868,0.0,0.0
912,227.75,68.3746,64.4126,156.547,101.099,110.895,0.0013765,0.0471084,20.9896,-1.4214,-0.83432,0.0,0.0
924,230.75,67.3828,64.0753,158.568,101.074,110.952,0.00160341,0.0469868,20.9898,-1.51149,-0.841221,0.0,0.0
936,233.75,67.1086,64.1677,155.215,101.046,111.144,0.00161166,0.0470262,20.9895,-1.4214,-0.859379,0.0,0.0
948,236.75,66.1664,63.6299,153.919,101.005,110.756,0.00149103,0.0472103,20.9903,-1.49147,-0.831403,0.0,0.0
960,239.75,65.9415,63.148,153.908,101.007,110.564,0.00132443,0.0473447,20.9908,-1.40138,-0.815602,0.0,0.0
972,242.75,65.4816,62.634,162.479,100.967,111.127,0.00122073,0.0472331,20.9909,-1.61159,-0.864934,0.0,0.0
984,245.75,64.492,61.6489,157.871,100.954,110.911,0.00106656,0.0472833,20.9909,-1.47145,-0.848572,0.0,0.0
996,248.75,63.7194,61.4972,157.383,100.939,111.075,0.00115544,0.0470191,20.9909,-1.44142,-0.863228,0.0,0.0
1008,251.75,63.689,60.9715,157.394,100.904,111.06,0.0012188,0.046901,20.9909,-1.41139,-0.865155,0.0,0.0
1020,254.75,63.3852,60.6717,160.966,100.897,110.655,0.00120146,0.0468343,20.9909,-1.6216,-0.832848,0.0,0.0
1032,257.75,63.2607,60.306,163.614,100.882,111.113,0.00120996,0.0468208,20.9909,-1.54152,-0.8714,0.0,0.0
1044,260.75,62.5047,59.2822,159.804,100.89,111.019,0.00127615,0.0466737,20.9909,-1.56154,-0.863102,0.0,0.0
1056,263.75,61.8297,59.4313,157.164,100.879,110.729,0.00152639,0.0466876,20.9909,-1.56154,-0.840522,0.0,0.0
1068,266.75,61.7857,59.3325,157.071,100.888,110.609,,0.0466764,,-1.53151,-0.829931,0.0,0.0
1080,269.75,61.5866,59.086,159.197,100.873,110.746,,,,-1.47145,-0.842354,0.0,0.0
1092,272.75,60.7515,58.2864,161.492,100.892,110.899,,,,-1.46144,-0.853183,0.0,0.0
1104,275.75,60.0768,58.0607,157.791,100.899,111.21,,,,-1.49147,-0.877823,0.0,0.0

File: PMMA_Cone_HF75Scalar_220225_R1.csv
LABORATORY,FSRI
TEST IDENT,PMMA_HF75_1
OPERATOR,Dow
MATERIAL,PMMA
ORIENTATION,Horizontal
HEAT FLUX,75
SURF AREA,0.01
C FACTOR,0.0385692
SPEC HOLDER DIFF,298.97
SPECIMEN MASS,33.1
SCAN TIME,0.25
O2 DELAY TIME,11
CO DELAY TIME,11
CO2 DELAY TIME,8
FLOW FACTOR,1
SCAN COUNT,923
TIME TO IGN,20.75
END OF TEST SCAN,443
END OF TEST TIME,110.75
TEST STATUS,1
PRE TEST CMT,Dimensions: 99.00 x 99.26 x 2.74 mm

File: PMMA_Cone_HF75Scalar_220225_R2.csv
LABORATORY,FSRI
TEST IDENT,PMMA_HF75_2
OPERATOR,Dow
MATERIAL,PMMA
ORIENTATION,Horizontal
HEAT FLUX,75
SURF AREA,0.01
C FACTOR,0.0385692
SPEC HOLDER DIFF,299.83
SPECIMEN MASS,33.5
SCAN TIME,0.25
O2 DELAY TIME,11
CO DELAY TIME,11
CO2 DELAY TIME,8
FLOW FACTOR,1
SCAN COUNT,931
TIME TO IGN,16.25
END OF TEST SCAN,451
END OF TEST TIME,112.75
TEST STATUS,1
PRE TEST CMT,Dimensions: 99.09 x 97.67 x 2.85 mm

File: PMMA_Cone_HF75Scalar_220225_R3.csv
LABORATORY,FSRI
TEST IDENT,PMMA_HF75_3
OPERATOR,Dow
MATERIAL,PMMA
ORIENTATION,Horizontal
HEAT FLUX,75
SURF AREA,0.01
C FACTOR,0.0385692
SPEC HOLDER DIFF,-89.33
SPECIMEN MASS,33
SCAN TIME,0.25
O2 DELAY TIME,11
CO DELAY TIME,11
CO2 DELAY TIME,8
FLOW FACTOR,1
SCAN COUNT,968
TIME TO IGN,16
END OF TEST SCAN,488
END OF TEST TIME,122
TEST STATUS,1
PRE TEST CMT,Dimensions: 98.75 x 99.22 x 2.80 mm

File: PMMA_Cone_HF75Scan_220225_R1.csv
Names,Time,Stack TC,Smoke TC,Exh Press,Smoke Comp,Smoke Meas,CO Meter,CO2 Meter,O2 Meter,Sample Mass,Ext Coeff,Start Test,Flame Verif
Chan Gain,,500,500,1,1,1,1,1,1,1,1,1.0,1.0
Offset,,0,0,0.136092,0,0,0,0,0,0,0,0.0,0.0
Gain,,1,1,25.011,15.4219,15.1528,1,1,1,1.00089,1.02113,1.0,1.0
Units,sec,C,C,Pa,%,%,%,%,%,g,/m,,
Baseline,,37.3956,39.4709,152.748,115.897,113.631,-0.00931337,0.108344,20.7756,-0.161059,0.176951,,
10,2.25,34.8067,36.5897,154.077,115.586,113.721,-0.00945603,0.110065,20.7707,898.956,0.145748,0.0,0.0
20,4.75,34.9114,36.451,151.201,115.514,112.973,-0.00953075,0.110625,20.7689,898.926,0.19922,0.0,0.0
30,7.25,34.9039,36.3144,154.242,115.427,112.736,-0.00940177,0.111153,20.7681,898.896,0.211332,0.0,0.0
40,9.75,34.9113,37.1915,152.02,115.385,113.35,-0.00920019,0.111636,20.7679,898.906,0.159347,0.0,0.0
50,12.25,35.5923,37.5876,155.823,115.399,112.923,-0.00914578,0.111713,20.7669,898.886,0.194272,0.0,0.0
60,14.75,35.3214,37.5262,157.758,115.396,113.225,-0.00890889,0.119923,20.7526,898.846,0.170169,0.0,0.0
70,17.25,35.3611,37.1211,139.039,115.419,107.078,-0.00801279,0.193197,20.61,898.696,0.671877,0.0,1.0
80,19.75,37.9413,39.3917,130.338,115.43,102.401,-0.00662292,0.377102,20.3705,898.326,1.07275,0.0,1.0
90,22.25,40.5603,43.1679,122.201,115.454,100.521,-0.00494704,0.59575,20.0629,897.985,1.24061,0.0,1.0
100,24.75,44.4936,47.9459,114.45,115.468,99.2837,-0.00338699,0.840516,19.6949,897.545,1.35262,0.0,1.0
110,27.25,49.435,53.7817,121.788,115.491,97.4525,-0.00194577,1.0533,19.4519,897.055,1.52116,0.0,0.0
120,29.75,54.8329,60.2434,104.123,115.507,95.7138,-0.000204865,1.24841,19.2238,896.484,1.6837,0.0,0.0
130,32.25,59.2371,66.6234,112.395,115.512,91.7323,0.00142035,1.41262,18.96,895.853,2.06464,0.0,0.0
140,34.75,65.9501,74.8045,97.2959,115.551,94.6534,0.00286283,1.57557,18.7653,895.243,1.78691,0.0,0.0
150,37.25,71.7847,82.0121,104.993,115.553,94.3283,0.00472826,1.75044,18.5172,894.442,1.81784,0.0,0.0
160,39.75,77.4917,89.4067,99.7483,115.587,93.9607,0.00631675,1.93997,18.2885,893.802,1.85548,0.0,0.0
170,42.25,84.8008,98.6701,88.0633,115.596,94.4134,0.0080782,2.12841,18.0435,893.001,1.81308,0.0,0.0
180,44.75,91.9796,107.978,91.7354,115.632,91.4372,0.0100615,2.34804,17.7458,892.15,2.10283,0.0,0.0
190,47.25,98.844,117.674,100.075,115.621,89.9542,0.0121513,2.57605,17.454,891.199,2.24839,0.0,0.0
200,49.75,105.946,127.144,80.4061,115.658,90.511,0.0141319,2.81869,17.1945,890.248,2.196,0.0,0.0
210,52.25,113.615,136.651,78.933,115.679,90.4079,0.0161987,3.08798,16.872,889.278,2.20788,0.0,0.0
220,54.75,121.7,147.003,78.4781,115.688,89.4127,0.0185186,3.35559,16.5355,888.267,2.30768,0.0,0.0
230,57.25,129.359,158.102,76.4501,115.691,87.7614,0.0207427,3.60784,16.1639,887.156,2.47488,0.0,0.0
240,59.75,137.444,168.304,74.6312,115.706,88.1022,0.0227211,3.89227,15.8014,886.025,2.44132,0.0,0.0
250,62.25,144.508,179.107,80.8625,115.712,87.6139,0.0247906,4.1735,15.4947,884.934,2.49158,0.0,0.0
260,64.75,152.649,190.944,77.05,115.717,88.1669,0.0297543,4.43698,15.166,883.603,2.43558,0.0,0.0
270,67.25,160.83,202.076,67.6663,115.734,87.403,0.0560662,4.8283,14.6307,882.261,2.51484,0.0,0.0
280,69.75,169.559,214.849,83.2203,115.724,87.0594,0.0866293,5.1746,14.2142,880.96,2.54936,0.0,0.0
290,72.25,176.889,225.728,72.9741,115.74,85.2518,0.0785654,5.35536,14.0205,879.599,2.73854,0.0,0.0
300,74.75,184.391,235.755,72.9001,115.727,88.5045,0.0603706,5.47055,13.9218,878.228,2.40219,0.0,0.0
310,77.25,191.432,246.475,80.1451,115.753,86.3884,0.0452316,5.52454,13.8794,877.027,2.62096,0.0,0.0
320,79.75,197.788,255.204,71.3842,115.752,87.7101,0.0384339,5.51812,13.8621,875.676,2.48485,0.0,0.0
330,82.25,203.905,264.033,67.8823,115.752,87.9977,0.0355254,5.5529,13.8362,874.294,2.45556,0.0,0.0
340,84.75,209.879,272.106,66.4969,115.742,89.9135,0.0337239,5.59103,13.8057,872.973,2.26184,0.0,0.0
350,87.25,215.258,279.53,78.8994,115.753,87.1833,0.0321329,5.57161,13.8552,871.832,2.53887,0.0,0.0
360,89.75,219.679,286.511,64.3926,115.743,88.4504,0.0307861,5.42638,14.0441,870.611,2.40891,0.0,0.0
370,92.25,224.043,291.081,72.8352,115.731,89.0252,0.0290627,5.21655,14.3498,869.41,2.3499,0.0,0.0
380,94.75,226.215,293.923,79.6123,115.753,85.5117,0.0261441,4.81282,14.8808,868.379,2.71233,0.0,0.0
390,97.25,227.221,294.734,78.7513,115.721,88.2909,0.0225553,4.29578,15.3834,867.438,2.42336,0.0,0.0
400,99.75,226.856,293.387,88.6724,115.728,90.6775,0.0180221,3.6761,16.2031,866.567,2.18497,0.0,0.0
410,102.25,224.628,289.465,96.1578,115.715,92.9249,0.0129104,2.95917,17.2227,866.077,1.96469,0.0,0.0
420,104.75,220.187,282.486,114.754,115.718,93.6948,0.00739064,2.23383,18.1229,865.767,1.89103,0.0,0.0
430,107.25,213.947,272.646,132.015,115.701,103.281,0.0017945,1.49248,19.1426,865.607,1.01716,0.0,0.0
440,109.75,204.201,260.171,137.471,115.703,107.668,-0.00249609,0.881104,19.9145,865.617,0.644651,0.0,0.0
450,112.25,195.017,247.249,140.261,115.689,107.377,-0.00518083,0.529245,20.3177,865.597,0.667902,0.0,0.0
460,114.75,186.513,235.051,139.523,115.71,107.757,-0.00662812,0.34678,20.5163,865.627,0.637852,0.0,0.0
470,117.25,178.419,223.795,138.614,115.676,108.681,-0.00761961,0.260945,20.6255,865.617,0.558679,0.0,0.0
480,119.75,170.741,213.483,146.474,115.675,107.476,-0.00816667,0.209983,20.6748,865.607,0.658481,0.0,0.0
490,122.25,164.187,204.005,143.034,115.653,108.512,-0.00831606,0.185235,20.7026,865.627,0.57089,0.0,0.0
500,124.75,157.691,195.002,143.02,115.636,108.134,-0.00831909,0.166977,20.7214,865.607,0.600821,0.0,0.0
510,127.25,151.88,186.683,145.148,115.625,108.396,-0.0084291,0.155946,20.7343,865.597,0.57825,0.0,0.0
520,129.75,146.151,178.952,142.292,115.604,108.221,-0.00861924,0.14802,20.7434,865.617,0.59114,0.0,0.0
530,132.25,140.706,172.063,146.464,115.6,108.796,-0.00883278,0.141566,20.7514,865.607,0.543363,0.0,0.0
540,134.75,135.682,165.419,142.501,115.573,107.705,-0.0090163,0.136437,20.7578,865.627,0.631588,0.0,0.0
550,137.25,131.964,159.329,145.76,115.556,107.645,-0.00895972,0.131709,20.7643,865.597,0.635198,0.0,0.0
560,139.75,127.566,153.263,146.132,115.545,108.224,-0.0088348,0.127779,20.7699,865.617,0.586351,0.0,0.0
570,142.25,123.545,148.06,142.94,115.542,107.212,-0.00885484,0.124444,20.7718,865.617,0.670231,0.0,0.0
580,144.75,119.947,143.202,144.908,115.516,107.759,-0.00888044,0.12138,20.7704,865.717,0.622675,0.0,0.0
590,147.25,116.022,138.436,144.731,115.506,107.64,-0.00880308,0.118606,20.7736,865.647,0.631757,0.0,0.0
600,149.75,112.866,133.097,144.585,115.473,107.028,-0.00875419,0.116348,20.7765,865.607,0.680293,0.0,0.0
610,152.25,110.176,129.826,142.896,115.466,108.857,-0.00881401,0.114595,20.7778,865.587,0.527977,0.0,0.0
620,154.75,106.793,125.416,143.988,115.438,108.554,-0.00884848,0.113458,20.7794,865.647,0.550782,0.0,0.0
630,157.25,104.529,122.102,142.546,115.43,107.842,-0.00897091,0.112403,20.7814,865.637,0.609077,0.0,0.0
640,159.75,101.923,118.567,144.635,115.413,108.307,-0.0091076,0.111744,20.7822,865.607,0.569208,0.0,0.0
650,162.25,99.1154,114.835,142.318,115.407,107.798,-0.00924013,0.111384,20.7822,865.597,0.610936,0.0,0.0
660,164.75,97.1927,111.702,143.569,115.393,108.918,-0.00943119,0.111748,20.781,865.587,0.517294,0.0,0.0
670,167.25,94.768,108.376,141.066,115.436,108.637,-0.00953584,0.112117,20.7772,865.587,0.543734,0.0,0.0
680,169.75,92.6209,105.627,143.985,115.509,108.775,-0.00933705,0.112212,20.7752,865.617,0.537961,0.0,0.0
690,172.25,90.5182,102.909,145.951,115.594,108.655,-0.00920192,0.112104,20.7745,865.597,0.554471,0.0,0.0
700,174.75,89.0709,100.434,142.547,115.665,108.988,-0.00914061,0.111424,20.7762,865.567,0.532645,0.0,0.0
710,177.25,87.5211,98.1207,146.354,115.738,109.483,-0.00921776,0.11071,20.7781,865.577,0.497682,0.0,0.0
720,179.75,86.1347,96.4557,147.681,115.818,108.351,-0.00926448,0.110058,20.78,865.597,0.59697,0.0,0.0
730,182.25,84.3327,94.0826,141.007,115.873,109.583,-0.00931736,0.109392,20.7807,865.567,0.499924,0.0,0.0
740,184.75,83.1354,91.9125,140.075,115.938,108.783,-0.0093971,0.109204,20.7817,865.607,0.570573,0.0,0.0
750,187.25,82.2124,90.0497,146.015,115.991,109.106,-0.0093324,0.10894,20.7828,865.597,0.54807,0.0,0.0
760,189.75,80.3388,88.5338,143.055,116.042,109.766,-0.00938532,0.108558,20.7794,865.577,0.498057,0.0,0.0
770,192.25,79.1242,86.9715,146.287,116.052,108.648,-0.00941638,0.108104,20.7786,865.597,0.590495,0.0,0.0
780,194.75,78.0172,84.7272,148.728,116.11,108.753,-0.00934351,0.107761,20.7789,865.597,0.586311,0.0,0.0
790,197.25,76.8933,83.6548,145.1,116.121,109.067,-0.0092388,0.107529,20.7801,865.567,0.561359,0.0,0.0
800,199.75,75.75,81.9437,142.533,116.159,110.005,-0.00909041,0.107533,20.781,865.577,0.487646,0.0,0.0
810,202.25,74.9427,80.9875,143.587,116.183,108.75,-0.00898694,0.107686,20.78,865.557,0.59224,0.0,0.0
820,204.75,74.4455,79.4117,145.403,116.213,108.732,-0.00898301,0.10795,20.778,865.597,0.595936,0.0,0.0
830,207.25,73.1787,78.291,144.861,116.232,109.406,-0.00910575,0.108459,20.7772,865.567,0.542165,0.0,0.0
840,209.75,72.3473,77.3082,144.637,116.247,108.451,-0.0093474,0.108683,20.7769,865.567,0.621849,0.0,0.0
850,212.25,71.6577,76.1918,144.585,116.26,110.223,-0.009488,0.108684,20.777,865.567,0.477619,0.0,0.0
860,214.75,70.9224,74.7394,144.634,116.257,109.258,-0.009372,0.108665,20.7771,865.577,0.556137,0.0,0.0
870,217.25,70.3598,74.1504,149.359,116.266,110.491,-0.00928118,0.108658,20.7767,865.567,0.456394,0.0,0.0
880,219.75,69.2881,73.1904,144.807,116.237,110.371,,0.108718,,865.547,0.463861,0.0,0.0
890,222.25,69.0119,72.401,146.76,116.236,109.941,,0.108842,,865.557,0.498759,0.0,0.0
900,224.75,68.0857,71.2726,145.884,116.21,110.308,,,,865.557,0.466862,0.0,0.0
910,227.25,67.8089,70.7159,146.232,116.183,110.019,,,,865.567,0.488294,0.0,0.0
920,229.75,66.7542,69.619,143.906,116.145,110.039,,,,865.597,0.483772,0.0,0.0
923,230.5,67.0565,69.6953,142.424,116.142,110.067,,,,865.587,0.481186,0.0,0.0