Folder: fsri_materials_database/01_Data/PMMA/Cone (part 2)

File: PMMA_Cone_HF15-noSparkScan_210827_R3.csv
Names,Time,Stack TC,Smoke TC,Exh Press,Smoke Comp,Smoke Meas,CO Meter,CO2 Meter,O2 Meter,Sample Mass,Ext Coeff,Start Test,Flame Verif
Chan Gain,,500,500,1,1,1,1,1,1,1,1,1.0,1.0
Offset,,0,0,0.145697,0,0,0,0,0,0,0,0.0,0.0
Gain,,1,1,25.011,13.1742,16.6938,1,1,1,1.00099,1.02845,1.0,1.0
Units,sec,C,C,Pa,%,%,%,%,%,g,/m,,
Baseline,,27.4558,28.1946,194.217,101.23,108.703,0.000865632,0.0672597,20.9432,-507.626,-0.642499,,
56,13.75,25.8417,26.0905,189.149,101.755,109.254,0.000874891,0.0659501,20.9485,34.8945,-0.641544,0.0,0.0
112,27.75,26.1835,26.8259,198.118,101.833,109.466,0.00140761,0.0647872,20.9487,34.9845,-0.652073,0.0,0.0
168,41.75,25.5574,26.667,194.157,101.807,109.308,0.000871168,0.0642857,20.9504,34.9045,-0.641407,0.0,0.0
224,55.75,25.7267,26.676,187.998,101.718,109.259,0.000817053,0.0645802,20.9508,34.8644,-0.64521,0.0,0.0
280,69.75,25.9054,26.9584,193.659,101.491,108.949,0.00045619,0.0636791,20.9502,34.8144,-0.63976,0.0,0.0
336,83.75,26.4703,27.0455,189.779,101.207,108.174,0.00117638,0.0631721,20.9519,34.8644,-0.600634,0.0,0.0
392,97.75,25.8585,26.7773,196.595,100.967,107.97,0.00124308,0.0625823,20.953,34.8844,-0.605,0.0,0.0
448,111.75,25.8404,26.4265,193.788,101.179,108.253,0.000892829,0.0624747,20.9526,34.8544,-0.609683,0.0,0.0
504,125.75,26.3809,26.6403,197.958,101.327,108.269,0.000903248,0.0619829,20.9532,34.7844,-0.597781,0.0,0.0
560,139.75,25.7937,27.3045,193.24,101.444,108.317,0.000654445,0.0614698,20.9551,34.8945,-0.591367,0.0,0.0
616,153.75,26.134,26.6377,193.35,101.353,108.743,0.000782933,0.060984,20.9551,34.8144,-0.63489,0.0,0.0
672,167.75,26.0884,26.9445,193.402,101.325,108.541,0.00081472,0.0603127,20.9571,34.8144,-0.620636,0.0,0.0
728,181.75,26.2846,26.6997,191.89,101.603,108.58,0.00110085,0.0604365,20.9572,34.8144,-0.599123,0.0,0.0
784,195.75,26.4407,27.4797,189.516,101.841,109.113,0.000753896,0.0601231,20.9587,34.7443,-0.622224,0.0,0.0
840,209.75,26.3104,27.1542,197.065,101.955,109.261,0.000814181,0.059645,20.9564,34.7343,-0.624322,0.0,0.0
896,223.75,26.4116,27.3164,194.276,101.99,109.083,0.00078447,0.0592216,20.9574,34.7443,-0.606564,0.0,0.0
952,237.75,26.5018,26.9687,195.38,101.985,108.865,0.000693049,0.059472,20.9587,34.6843,-0.588982,0.0,0.0
1008,251.75,26.7646,27.4695,191.235,101.967,108.72,0.00095191,0.0593706,20.9599,34.6342,-0.578542,0.0,0.0
1064,265.75,26.3152,27.4367,196.849,101.92,109.122,0.000946112,0.0588282,20.9601,34.4941,-0.616041,0.0,0.0
1120,279.75,25.9374,27.4907,194.873,101.832,108.791,0.000850233,0.0588253,20.9572,34.384,-0.596305,0.0,0.0
1176,293.75,25.9873,27.0114,194.808,101.574,108.664,0.000932687,0.0582775,20.957,34.3539,-0.608718,0.0,0.0
1232,307.75,26.5432,27.7057,193.102,101.172,108.114,0.000955002,0.058263,20.9609,34.2238,-0.598659,0.0,0.0
1288,321.75,26.7817,27.035,195.502,100.806,107.03,0.000857388,0.0577044,20.9622,34.2238,-0.540457,0.0,0.0
1344,335.75,26.227,27.835,193.656,100.589,107.49,0.000405961,0.057451,20.9632,33.9836,-0.598644,0.0,0.0
1400,349.75,26.6969,27.4429,194.657,100.809,107.624,0.00084897,0.0570449,20.9621,33.8735,-0.59018,0.0,0.0
1456,363.75,26.7455,27.9094,189.838,101.308,107.757,0.000753983,0.0568279,20.962,33.7934,-0.556778,0.0,0.0
1512,377.75,26.7513,27.6483,200.646,101.744,108.201,0.000618134,0.0569409,20.9616,33.5832,-0.555168,0.0,0.0
1568,391.75,26.749,27.6948,196.437,101.896,108.429,0.00095894,0.0563521,20.9626,33.443,-0.560556,0.0,0.0
1624,405.75,26.5979,27.858,190.964,101.684,108.162,0.00125307,0.0561154,20.9631,33.393,-0.557209,0.0,0.0
1680,419.75,26.9794,27.9921,191.789,101.254,107.465,0.000619787,0.0559819,20.9602,33.1427,-0.537097,0.0,0.0
1736,433.75,26.1128,27.7165,194.157,101.228,107.521,0.000699668,0.0555655,20.9622,32.9425,-0.544094,0.0,0.0
1792,447.75,26.488,27.8228,189.762,101.418,107.442,0.000837452,0.0553119,20.9611,32.8424,-0.520612,0.0,0.0
1848,461.75,27.2603,27.4373,191.962,101.461,107.537,0.000724832,0.0553437,20.9618,32.5321,-0.524703,0.0,0.0
1904,475.75,26.7404,28.3891,189.856,101.438,107.48,0.00101114,0.0548349,20.9616,32.392,-0.522031,0.0,0.0
1960,489.75,26.5004,27.0604,194.401,101.301,107.141,0.000656402,0.054859,20.9672,32.0717,-0.505637,0.0,0.0
2016,503.75,27.2137,27.9122,197.042,101.248,107.25,0.000890925,0.0546302,20.9667,32.0416,-0.519532,0.0,0.0
2072,517.75,26.5905,27.9757,193.118,101.305,106.97,0.000840435,0.0544331,20.9659,31.6813,-0.49089,0.0,0.0
2128,531.75,26.2072,28.4908,193.885,101.36,107.088,0.000666132,0.0543307,20.9676,31.5011,-0.49587,0.0,0.0
2184,545.75,26.7861,27.5856,197.887,101.439,107.162,0.000738473,0.0539235,20.9691,31.2809,-0.495116,0.0,0.0
2240,559.75,27.1374,28.3499,194.865,101.461,107.142,0.000727423,0.0538283,20.9663,31.0807,-0.49152,0.0,0.0
2296,573.75,26.8271,28.5444,191.537,101.483,107.285,0.000784633,0.0535746,20.9658,30.9005,-0.501564,0.0,0.0
2352,587.75,26.683,27.6655,199.695,101.408,107.02,0.00088262,0.0536243,20.9641,30.5602,-0.485981,0.0,0.0
2408,601.75,26.9374,28.0616,194.806,101.283,106.715,0.000822778,0.0531402,20.9642,30.37,-0.471272,0.0,0.0
2464,615.75,26.6595,27.6877,195.961,101.303,106.914,0.000562633,0.0528998,20.9643,30.1398,-0.486419,0.0,0.0
2520,629.75,26.7255,27.3496,188.655,101.49,107.497,0.000599251,0.052773,20.966,29.8595,-0.51876,0.0,0.0
2576,643.75,27.091,27.4175,192.545,101.774,107.44,0.000657988,0.0527846,20.9669,29.5892,-0.488767,0.0,0.0
2632,657.75,27.3246,28.2838,192.186,101.963,107.132,0.000716176,0.0527489,20.9655,29.4291,-0.446114,0.0,0.0
2688,671.75,27.3286,28.2345,202.96,101.956,107.361,0.000620672,0.0525103,20.9669,29.1588,-0.466004,0.0,0.0
2744,685.75,26.7292,27.6857,192.826,101.701,106.959,0.000855699,0.0519834,20.9692,28.8485,-0.454747,0.0,0.0
2800,699.75,26.9281,27.2989,192.645,101.179,106.4,0.00101553,0.0520396,20.9696,28.6083,-0.453975,0.0,0.0
2856,713.75,26.6321,27.7992,192.459,100.675,106.12,0.000955611,0.0518747,20.9696,28.5582,-0.475172,0.0,0.0
2912,727.75,27.0968,27.986,196.01,100.722,105.491,0.000599476,0.0517356,20.969,27.9976,-0.417275,0.0,0.0
2968,741.75,27.1658,27.7714,196.565,101.183,106.383,0.000878423,0.0513579,20.969,27.9076,-0.452104,0.0,0.0
3024,755.75,26.6653,27.8477,193.076,101.619,106.736,0.000655856,0.0513138,20.969,27.6673,-0.443192,0.0,0.0
3080,769.75,27.1382,28.3019,193.8,101.873,106.833,0.000585337,0.0512053,20.9703,27.5172,-0.428919,0.0,0.0
3136,783.75,27.275,27.8363,196.206,101.94,107.116,0.000666878,0.0511668,20.97,27.327,-0.446776,0.0,0.0
3192,797.75,26.7861,27.6359,198.277,101.849,106.984,0.000546879,0.0512171,20.9681,26.9066,-0.443745,0.0,0.0
3248,811.75,26.7556,28.2611,192.728,101.557,106.622,0.000517642,0.0507823,20.9699,26.8165,-0.439032,0.0,0.0
3304,825.75,27.2387,27.6475,190.126,101.202,106.058,0.000644071,0.0506817,20.9696,26.4261,-0.422857,0.0,0.0
3360,839.75,25.9079,27.7664,195.646,101.323,106.312,0.000618773,0.0504257,20.9708,26.366,-0.433603,0.0,0.0
3416,853.75,26.8124,27.7857,196.608,101.461,105.973,0.00102008,0.0504639,20.9696,26.0357,-0.392566,0.0,0.0
3472,867.75,25.857,26.7622,191.033,101.445,106.519,0.00077945,0.0503518,20.9699,25.8555,-0.440334,0.0,0.0
3528,881.75,26.7692,27.3993,194.959,101.319,106.829,0.000710921,0.0503732,20.9691,25.6954,-0.477728,0.0,0.0
3584,895.75,27.199,27.5163,193.66,101.329,105.992,0.000893088,0.0502415,20.9691,25.3851,-0.405911,0.0,0.0
3640,909.75,26.9543,28.0007,192.008,101.463,106.28,0.0012779,0.049991,20.9697,25.2449,-0.418501,0.0,0.0
3696,923.75,26.871,27.5682,191.619,101.611,106.195,0.00068129,0.0498891,20.9692,24.9146,-0.398096,0.0,0.0
3752,937.75,27.0681,28.0916,192.757,101.799,107.091,0.000914601,0.0498434,20.971,24.7344,-0.457207,0.0,0.0
3808,951.75,26.9182,27.8441,192.26,101.952,106.599,0.000954289,0.0495602,20.969,24.4241,-0.402132,0.0,0.0
3864,965.75,26.4518,27.6099,193.041,101.988,106.836,0.0012286,0.0494462,20.9701,24.314,-0.418878,0.0,0.0
3920,979.75,27.4317,27.4073,192.609,101.837,106.528,0.000939967,0.0495844,20.971,23.9537,-0.406274,0.0,0.0
3976,993.75,26.8321,27.7947,199.804,101.598,106.28,0.000692758,0.0493796,20.9725,23.8235,-0.406462,0.0,0.0
4032,1007.75,26.7818,27.3632,189.32,101.319,106.093,0.000968394,0.0492526,20.9726,23.6534,-0.415388,0.0,0.0
4088,1021.75,26.7555,27.9774,198.633,101.171,105.744,0.000440663,0.0494999,20.9734,23.323,-0.39884,0.0,0.0
4144,1035.75,26.9098,28.0523,195.808,101.161,105.531,0.000566754,0.0492136,20.9722,23.1629,-0.381522,0.0,0.0
4200,1049.75,26.7468,28.2798,195.143,101.149,106.138,0.000847604,0.0498665,20.9728,22.9527,-0.434276,0.0,0.0
4256,1063.75,26.7438,28.0817,197.036,101.167,106.463,0.000668342,0.0505984,20.9719,22.6023,-0.460247,0.0,0.0
4312,1077.75,26.7702,27.5025,192.864,101.136,105.994,0.000613066,0.0516298,20.9685,22.4922,-0.423319,0.0,0.0
4368,1091.75,26.9677,27.3675,201.616,101.119,105.722,0.000817214,0.052871,20.9674,22.3521,-0.40164,0.0,0.0
4424,1105.75,27.2251,27.6355,195.146,101.155,106.064,0.000702309,0.0535356,20.9649,22.0818,-0.427572,0.0,0.0
4480,1119.75,26.7412,28.2179,194.973,101.196,105.751,0.000740099,0.0544207,20.9644,21.8115,-0.397226,0.0,0.0
4536,1133.75,26.7084,27.9365,196.795,101.211,105.993,0.000831163,0.0550166,20.9615,21.5313,-0.416484,0.0,0.0
4592,1147.75,27.1309,28.0537,196.149,101.297,106.001,0.000771789,0.0559532,20.959,21.3211,-0.409505,0.0,0.0
4648,1161.75,27.1079,27.7014,197.79,101.48,106.576,0.000882612,0.0564363,20.9597,21.1809,-0.442012,0.0,0.0
4704,1175.75,26.9443,28.1402,193.174,101.652,106.661,0.000689472,0.0569979,20.9578,21.0208,-0.433926,0.0,0.0
4760,1189.75,26.7429,28.2196,194.99,101.846,106.96,0.00102908,0.0576178,20.9558,20.7004,-0.442046,0.0,0.0
4816,1203.75,25.6102,26.9386,203.73,101.975,107.192,0.000786356,0.0579553,20.9566,20.4202,-0.450108,0.0,0.0
4872,1217.75,25.2971,26.2872,190.26,101.968,107.1,0.00089229,0.0586186,20.9569,20.3401,-0.442999,0.0,0.0
4928,1231.75,25.4804,26.6961,194.131,101.817,107.168,0.000693838,0.0591216,20.9548,20.0698,-0.462046,0.0,0.0
4984,1245.75,25.4482,26.4183,190.793,101.629,106.478,0.00112724,0.0593772,20.9543,19.7295,-0.420513,0.0,0.0
5040,1259.75,25.667,26.9099,195.494,101.384,106.718,0.000998236,0.0598605,20.9535,19.6494,-0.462582,0.0,0.0
5096,1273.75,25.924,26.7293,195.743,101.31,106.379,0.000917083,0.0603279,20.9547,19.4592,-0.440403,0.0,0.0
5152,1287.75,25.5967,26.6751,192.441,101.433,106.451,0.000907467,0.060732,20.9537,19.0288,-0.435623,0.0,0.0
5208,1301.75,25.8317,26.9435,197.516,101.377,106.826,0.00107097,0.061029,20.9516,18.8786,-0.472316,0.0,0.0
5264,1315.75,25.7544,26.7869,191.377,101.028,106.214,,,,18.6784,-0.451568,0.0,0.0
5284,1320.75,25.6238,26.6747,189.999,101.095,106.489,,,,18.6584,-0.468984,0.0,0.0

File: PMMA_Cone_HF25Scalar_220225_R1.csv
LABORATORY,FSRI
TEST IDENT,PMMA_HF25_1
OPERATOR,Dow
MATERIAL,PMMA
ORIENTATION,Horizontal
HEAT FLUX,25
SURF AREA,0.01
C FACTOR,0.0385692
SPEC HOLDER DIFF,305.8
SPECIMEN MASS,33.3
SCAN TIME,0.25
O2 DELAY TIME,11
CO DELAY TIME,11
CO2 DELAY TIME,8
FLOW FACTOR,1
SCAN COUNT,1637
TIME TO IGN,100.5
END OF TEST SCAN,1157
END OF TEST TIME,289.25
TEST STATUS,1
PRE TEST CMT,Dimensions: 98.88 x 99.47 x 2.72 mm

File: PMMA_Cone_HF25Scalar_220225_R2.csv
LABORATORY,FSRI
TEST IDENT,PMMA_HF25_2
OPERATOR,Dow
MATERIAL,PMMA
ORIENTATION,Horizontal
HEAT FLUX,25
SURF AREA,0.01
C FACTOR,0.0385692
SPEC HOLDER DIFF,-534
SPECIMEN MASS,866.19
SCAN TIME,0.25
O2 DELAY TIME,11
CO DELAY TIME,11
CO2 DELAY TIME,8
FLOW FACTOR,1
SCAN COUNT,1624
TIME TO IGN,94
END OF TEST SCAN,1144
END OF TEST TIME,286
TEST STATUS,1
PRE TEST CMT,Dimensions: 98.89 x 99.63 x 2.77 mm

File: PMMA_Cone_HF25Scalar_220225_R3.csv
LABORATORY,FSRI
TEST IDENT,PMMA_HF25_3
OPERATOR,Dow
MATERIAL,PMMA
ORIENTATION,Horizontal
HEAT FLUX,25
SURF AREA,0.01
C FACTOR,0.0385692
SPEC HOLDER DIFF,299.79
SPECIMEN MASS,33.5
SCAN TIME,0.25
O2 DELAY TIME,11
CO DELAY TIME,11
CO2 DELAY TIME,8
FLOW FACTOR,1
SCAN COUNT,1619
TIME TO IGN,96.5
END OF TEST SCAN,1139
END OF TEST TIME,284.75
TEST STATUS,1
PRE TEST CMT,Dimensions: 99.06 x 99.42 x 2.82 mm

File: PMMA_Cone_HF25Scan_220225_R1.csv
Names,Time,Stack TC,Smoke TC,Exh Press,Smoke Comp,Smoke Meas,CO Meter,CO2 Meter,O2 Meter,Sample Mass,Ext Coeff,Start Test,Flame Verif
Chan Gain,,500,500,1,1,1,1,1,1,1,1,1.0,1.0
Offset,,0,0,0.136092,0,0,0,0,0,0,0,0.0,0.0
Gain,,1,1,25.011,15.4219,15.1528,1,1,1,1.00089,1.02113,1.0,1.0
Units,sec,C,C,Pa,%,%,%,%,%,g,/m,,
Baseline,,16.1345,16.9627,166.808,116.121,116.43,-0.00877716,0.108452,20.7776,-0.0990877,-0.0238113,,
17,4,15.011,14.9501,169.165,116.296,116.404,-0.00913783,0.1213,20.7528,906.052,-0.00825833,0.0,0.0
34,8.25,14.7982,15.5792,167.105,116.288,116.695,-0.00913687,0.120765,20.7507,905.992,-0.0312284,0.0,0.0
51,12.5,14.691,15.4978,168.395,116.278,116.705,-0.00923482,0.118291,20.7575,906.012,-0.0328433,0.0,0.0
68,16.75,14.6767,15.6312,164.544,116.256,116.592,-0.00917937,0.118773,20.7617,905.982,-0.0258108,0.0,0.0
85,21,14.9277,15.3433,164.907,116.219,116.766,-0.00927253,0.115248,20.7694,905.992,-0.0420599,0.0,0.0
102,25.25,14.9893,15.8493,170.624,116.172,116.503,-0.00921526,0.112558,20.775,906.002,-0.025481,0.0,0.0
119,29.5,15.3898,15.9681,171.808,116.095,116.52,-0.0089456,0.113214,20.775,905.972,-0.0327485,0.0,0.0
136,33.75,15.5233,15.8946,165.002,115.997,116.115,-0.0091395,0.114131,20.7741,905.962,-0.00911125,0.0,0.0
153,38,15.8604,16.6666,165.207,115.892,116.336,-0.00934779,0.113606,20.7736,905.962,-0.0342538,0.0,0.0
170,42.25,15.5384,16.6976,164.529,115.718,115.723,-0.00937291,0.112105,20.7709,905.952,-0.000385479,0.0,0.0
187,46.5,15.6214,16.5478,169.247,115.552,115.721,-0.00895699,0.111964,20.7704,905.962,-0.0130755,0.0,0.0
204,50.75,15.6656,16.405,165.888,115.512,115.809,-0.00900661,0.112214,20.7684,905.952,-0.0230115,0.0,0.0
221,55,15.5407,16.5675,164.002,115.542,115.701,-0.00935334,0.111819,20.7665,905.932,-0.0123035,0.0,0.0
238,59.25,15.1102,16.6256,169.477,115.578,115.885,-0.0092626,0.111795,20.7658,905.932,-0.0237673,0.0,0.0
255,63.5,15.9123,16.5679,166.807,115.638,115.822,-0.00937953,0.112588,20.7648,905.912,-0.0142385,0.0,0.0
272,67.75,16.1074,16.8982,169.177,115.671,115.997,-0.00920316,0.113251,20.7656,905.912,-0.025194,0.0,0.0
289,72,16.2691,16.5977,167.329,115.703,115.987,-0.00910864,0.112951,20.7665,905.942,-0.0219303,0.0,0.0
306,76.25,16.0242,16.5551,162.641,115.76,115.881,-0.00906299,0.113208,20.7667,905.912,-0.00934159,0.0,0.0
323,80.5,15.7778,16.8075,164.316,115.807,115.991,-0.00911892,0.112679,20.7667,905.912,-0.0142037,0.0,0.0
340,84.75,15.8901,16.9182,165.545,115.822,116.085,-0.00915934,0.111743,20.7685,905.912,-0.020357,0.0,0.0
357,89,15.9845,17.2801,167.754,115.859,116.221,-0.00925643,0.111161,20.769,905.882,-0.0279668,0.0,0.0
374,93.25,16.4925,17.5627,168.781,115.895,116.142,-0.00917507,0.11229,20.7673,905.852,-0.0190321,0.0,0.0
391,97.5,16.4949,17.0925,164.188,115.919,116.148,-0.00900796,0.114601,20.7641,905.822,-0.0176406,0.0,0.0
408,101.75,16.4811,17.527,162.329,115.94,114.323,-0.00854058,0.149825,20.7018,905.502,0.125835,0.0,1.0
425,106,17.712,18.4287,151.347,115.949,109.023,-0.00811283,0.254697,20.5447,905.402,0.551669,0.0,0.0
442,110.25,20.0867,21.3683,144.216,115.942,107.793,-0.00714745,0.401308,20.3317,905.032,0.65276,0.0,0.0
459,114.5,24.0404,26.1587,140.012,115.952,104.763,-0.00590922,0.540133,20.1482,904.611,0.908974,0.0,0.0
476,118.75,28.3451,30.839,142.996,115.947,105.102,-0.00486948,0.648794,20.0043,904.121,0.879677,0.0,0.0
493,123,32.7245,36.2929,130.208,115.929,103.354,-0.00431721,0.737702,19.8815,903.54,1.02848,0.0,0.0
510,127.25,36.5076,41.3327,130.017,115.908,102.478,-0.00369739,0.822836,19.7746,902.87,1.10311,0.0,0.0
527,131.5,42.0462,47.4092,130.308,115.884,100.584,-0.00327653,0.888276,19.6999,902.249,1.26829,0.0,0.0
544,135.75,46.728,53.3492,119.479,115.846,102.185,-0.00294195,0.952287,19.6121,901.548,1.12401,0.0,0.0
561,140,51.2917,58.6047,127.41,115.789,101.633,-0.00301573,1.0119,19.5296,900.878,1.16802,0.0,0.0
578,144.25,55.9133,64.3244,126.652,115.729,101.801,-0.00273391,1.08432,19.4278,900.097,1.14857,0.0,0.0
595,148.5,61.0261,70.4249,115.24,115.666,100.006,-0.00189898,1.15052,19.3431,899.276,1.30309,0.0,0.0
612,152.75,65.8869,76.1577,120.99,115.602,98.1618,-0.00108635,1.19073,19.2964,898.426,1.46485,0.0,0.0
629,157,69.4036,81.2115,120.106,115.575,99.3091,-0.000779661,1.24302,19.2206,897.605,1.35869,0.0,0.0
646,161.25,73.8347,87.0128,112.47,115.544,98.2691,-0.000347305,1.32201,19.1201,896.774,1.45054,0.0,0.0
663,165.5,78.263,92.141,108.35,115.496,97.4395,-0.000101959,1.38362,19.0345,895.823,1.52279,0.0,0.0
680,169.75,82.7377,97.7085,114.326,115.472,99.8062,-7.15905e-05,1.43969,18.9698,894.993,1.30593,0.0,0.0
697,174,87.0063,102.972,117.138,115.447,99.2943,9.04105e-05,1.46758,18.945,894.042,1.35009,0.0,0.0
714,178.25,91.4443,107.925,104.748,115.414,98.7635,0.000498282,1.48888,18.9324,893.061,1.39548,0.0,0.0
731,182.5,94.9298,111.755,123.675,115.376,96.7191,0.000583698,1.49255,18.9272,892.15,1.57995,0.0,0.0
748,186.75,97.8339,115.714,105.632,115.345,97.4959,0.000361449,1.50325,18.921,891.239,1.50585,0.0,0.0
765,191,100.515,118.81,109.966,115.307,98.6599,0.00067809,1.49687,18.9269,890.268,1.39659,0.0,0.0
782,195.25,103.803,122.145,110.621,115.28,99.1727,0.000904271,1.50062,18.9275,889.388,1.3481,0.0,0.0
799,199.5,105.827,125.004,115.792,115.27,98.2363,0.000933228,1.50513,18.9164,888.437,1.43227,0.0,0.0
816,203.75,108.592,128.479,115.265,115.301,100.73,0.000829347,1.52937,18.8922,887.536,1.21014,0.0,0.0
833,208,110.626,131.169,106.925,115.325,99.2786,0.000636134,1.51806,18.8995,886.615,1.34198,0.0,0.0
850,212.25,113.183,133.742,104.162,115.359,98.8148,0.000523029,1.51839,18.8995,885.684,1.38659,0.0,0.0
867,216.5,114.798,136.007,112.5,115.403,98.824,0.00089496,1.53064,18.8734,884.714,1.38915,0.0,0.0
884,220.75,116.954,137.963,101.44,115.428,99.2296,0.00119313,1.55319,18.8482,883.843,1.3544,0.0,0.0
901,225,118.195,139.69,113.158,115.472,98.2886,0.00167206,1.56071,18.8422,882.892,1.44318,0.0,0.0
918,229.25,119.98,141.785,104.787,115.519,98.4638,0.00185276,1.56355,18.8404,881.861,1.43091,0.0,0.0
935,233.5,121.419,143.09,108.908,115.573,99.114,0.00179473,1.56009,18.8439,880.98,1.37612,0.0,0.0
952,237.75,122.639,144.375,109.01,115.621,99.4862,0.00149371,1.54582,18.8679,880.059,1.34626,0.0,0.0
969,242,123.95,146.265,110.336,115.707,99.6818,0.00126782,1.52058,18.8958,879.119,1.33534,0.0,0.0
986,246.25,124.753,146.879,117.638,115.784,99.3683,0.00106903,1.49482,18.9277,878.178,1.36953,0.0,0.0
1003,250.5,125.691,146.931,108.321,115.852,100.426,0.000590857,1.44838,18.9902,877.357,1.27991,0.0,0.0
1020,254.75,125.638,147.203,120.516,115.921,99.1598,0.000179451,1.40137,19.0617,876.506,1.3989,0.0,0.0
1037,259,124.353,145.059,111.916,115.94,99.4109,-0.000312577,1.34796,19.1274,875.676,1.3777,0.0,0.0
1054,263.25,124.837,145.762,113.62,115.922,95.5672,-0.000655179,1.28059,19.2116,874.965,1.72952,0.0,0.0
1071,267.5,123.6,143.921,121.931,115.873,98.326,-0.0004815,1.24192,19.2585,874.164,1.47086,0.0,0.0
1088,271.75,121.625,141.382,121.641,115.756,98.0703,-0.000796566,1.14881,19.382,873.504,1.48509,0.0,0.0
1105,276,119.816,138.992,129.221,115.631,94.7316,-0.00159889,0.984654,19.6543,872.913,1.78572,0.0,0.0
1122,280.25,114.872,133.131,141.828,115.478,101.831,-0.00335894,0.741565,20.0106,872.573,1.12646,0.0,0.0
1139,284.5,108.777,125.725,153.878,115.876,109.585,-0.00536669,0.467708,20.3889,872.483,0.499991,0.0,0.0
1156,288.75,102.118,116.922,155.325,116.176,112.792,-0.00760232,0.272077,20.6347,872.463,0.264806,0.0,0.0
1173,293,94.8875,107.887,158.001,116.228,112.864,-0.00891058,0.174972,20.731,872.473,0.263033,0.0,0.0
1190,297.25,88.6225,100.774,161.261,115.93,113.126,-0.00917825,0.139438,20.7649,872.473,0.219332,0.0,0.0
1207,301.5,83.3411,93.4719,160.946,115.436,111.904,-0.00944894,0.124222,20.7767,872.493,0.278331,0.0,0.0
1224,305.75,77.8769,87.9785,160.326,115.702,112.951,-0.00943969,0.118966,20.7822,872.493,0.215493,0.0,0.0
1241,310,73.7173,82.315,161.499,116.065,113.12,-0.00936751,0.114936,20.7867,872.493,0.230238,0.0,0.0
1258,314.25,69.5848,77.1649,164.129,116.233,113.051,-0.00942776,0.110996,20.7913,872.483,0.248618,0.0,0.0
1275,318.5,65.9159,72.89,161.042,116.12,112.965,-0.00946609,0.10828,20.792,872.473,0.246762,0.0,0.0
1292,322.75,62.5161,68.455,161.871,115.622,113.353,-0.00960167,0.106439,20.7932,872.483,0.177522,0.0,0.0
1309,327,58.9759,64.1761,160.955,114.921,113.089,-0.00929824,0.105217,20.7952,872.473,0.143958,0.0,0.0
1326,331.25,56.0851,60.5674,160.566,114.183,111.386,-0.00943025,0.10426,20.7957,872.493,0.222101,0.0,0.0
1343,335.5,53.9133,57.5704,161.369,113.697,111.289,-0.00953824,0.1041,20.7957,872.483,0.191732,0.0,0.0
1360,339.75,52.096,55.7534,164.426,113.719,110.747,-0.00969697,0.103893,20.7958,872.503,0.237202,0.0,0.0
1377,344,50.3908,52.6866,158.482,114.171,111.848,-0.00947782,0.103419,20.7958,872.493,0.184069,0.0,0.0
1394,348.25,48.26,50.9544,162.132,114.924,112.486,-0.00945401,0.103127,20.7958,872.473,0.191992,0.0,0.0
1411,352.5,46.4265,48.9985,162.941,115.518,112.931,-0.00900768,0.102808,20.7976,872.483,0.202922,0.0,0.0
1428,356.75,45.4425,46.5738,161.68,115.866,113.744,-0.00898126,0.102149,20.798,872.503,0.165601,0.0,0.0
1445,361,42.9482,44.8969,162.395,115.842,113.936,-0.00921608,0.101688,20.7981,872.473,0.148646,0.0,0.0
1462,365.25,41.8313,43.3662,156.141,115.584,113.341,-0.00950546,0.101498,20.7986,872.483,0.175483,0.0,0.0
1479,369.5,41.0732,41.8577,160.54,115.731,113.884,-0.00940782,0.101419,20.7987,872.503,0.14409,0.0,0.0
1496,373.75,39.8083,40.2412,160.225,116.24,113.784,-0.00940126,0.101563,20.7973,872.513,0.191312,0.0,0.0
1513,378,38.7124,39.2142,162.452,115.975,114.622,-0.00948508,0.101566,20.7969,872.493,0.10515,0.0,0.0
1530,382.25,38.0513,37.9053,163.178,115.547,113.648,-0.0095992,0.101851,20.7965,872.443,0.148477,0.0,0.0
1547,386.5,36.8805,36.7835,160.652,116.015,113.822,-0.00932739,0.101733,20.7978,872.483,0.170938,0.0,0.0
1564,390.75,35.9134,35.4116,161.944,116.258,113.928,-0.00935851,0.101687,20.7988,872.503,0.181339,0.0,0.0
1581,395,35.6187,35.0481,157.021,115.942,113.407,-0.00954851,0.101756,20.799,872.503,0.197971,0.0,0.0
1598,399.25,34.5146,33.7241,159.826,115.088,113.12,,0.101776,,872.513,0.15448,0.0,0.0
1615,403.5,34.7096,33.3172,163.755,114.095,112.116,,,,872.443,0.156706,0.0,0.0
1632,407.75,33.3557,32.9561,159.402,113.71,111.984,,,,872.483,0.137003,0.0,0.0
1637,409,33.7114,32.4345,157.967,113.756,111.149,,,,872.503,0.207686,0.0,0.0