Folder: fsri_materials_database/01_Data/PMMA/Cone (part 4)

File: PMMA_Cone_HF50Scan_210826_R1.csv
Names,Time,Stack TC,Smoke TC,Exh Press,Smoke Comp,Smoke Meas,CO Meter,CO2 Meter,O2 Meter,Sample Mass,Ext Coeff,Start Test,Flame Verif
Chan Gain,,500,500,1,1,1,1,1,1,1,1,1.0,1.0
Offset,,0,0,0.141443,0,0,0,0,0,0,0,0.0,0.0
Gain,,1,1,25.011,13.1742,16.6938,1,1,1,1.00099,1.02845,1.0,1.0
Units,sec,C,C,Pa,%,%,%,%,%,g,/m,,
Baseline,,36.9075,39.4061,168.196,101.448,111.068,0.00156766,0.0629051,20.9665,-506.026,-0.817357,,
12,2.75,34.3082,36.2973,170.799,101.428,110.928,0.0016078,0.0638707,20.9663,33.2628,-0.807715,0.0,0.0
24,5.75,34.4777,36.2972,168.112,101.571,110.988,0.00168459,0.0636443,20.9657,33.2328,-0.799839,0.0,0.0
36,8.75,34.7091,36.767,171.89,101.714,111.108,0.00165284,0.0636106,20.9654,33.1327,-0.796981,0.0,0.0
48,11.75,35.1601,37.4513,164.387,101.812,111.234,0.00167283,0.0634178,20.9654,33.1527,-0.798419,0.0,0.0
60,14.75,35.6696,37.7937,166.387,101.879,111.196,0.00163543,0.0635312,20.967,32.9726,-0.78949,0.0,0.0
72,17.75,35.8547,38.0448,162.169,101.891,111.565,0.00150945,0.0649764,20.9663,33.2428,-0.818256,0.0,0.0
84,20.75,35.6798,38.0649,167.661,101.836,111.196,0.00156271,0.065042,20.9661,33.1227,-0.793294,0.0,0.0
96,23.75,35.9525,38.147,165.766,101.727,111.78,0.00174661,0.0642281,20.966,32.9525,-0.85016,0.0,0.0
108,26.75,36.3683,39.4912,169.475,101.584,111.135,0.00196274,0.0638129,20.966,33.0927,-0.810663,0.0,0.0
120,29.75,36.3921,38.9359,165.087,101.42,111.437,0.00222494,0.0783118,20.922,32.9726,-0.849763,0.0,1.0
132,32.75,37.6896,41.0913,159.751,101.222,108.823,0.00291813,0.176863,20.7999,32.6723,-0.653275,0.0,1.0
144,35.75,39.1697,44.2396,142.341,101.03,104.656,0.0040588,0.361377,20.5782,32.5321,-0.31812,0.0,0.0
156,38.75,43.9833,52.3722,146.148,100.857,103.042,0.00535307,0.544119,20.3503,32.0917,-0.193326,0.0,0.0
168,41.75,49.2424,60.8078,134.631,100.724,100.804,0.00656147,0.701304,20.1248,31.5912,-0.00716965,0.0,0.0
180,44.75,55.3552,69.5403,124.397,100.619,98.9899,0.00758652,0.840504,19.9395,30.9806,0.147302,0.0,0.0
192,47.75,60.2278,78.0608,140.576,100.588,99.641,0.00849913,0.945053,19.8078,30.36,0.0853461,0.0,0.0
204,50.75,65.2654,85.2393,132.782,100.625,97.3688,0.00948821,1.0335,19.6704,29.7794,0.296732,0.0,0.0
216,53.75,70.383,93.4889,124.228,100.719,96.6189,0.0106792,1.18215,19.4984,29.0587,0.374949,0.0,0.0
228,56.75,76.7383,103.193,123.881,100.859,95.1344,0.0115548,1.33151,19.3025,28.2979,0.527201,0.0,0.0
240,59.75,82.0098,111.415,120.695,101.048,94.4125,0.0123045,1.46594,19.1457,27.307,0.612804,0.0,0.0
252,62.75,86.8447,119.075,128.427,101.258,92.2478,0.013246,1.58175,19.0098,26.5662,0.840738,0.0,0.0
264,65.75,92.335,127.2,120.078,101.47,91.7353,0.0142164,1.66043,18.8987,25.5853,0.909858,0.0,0.0
276,68.75,96.3328,133.597,100.739,101.69,89.9537,0.0162455,1.81128,18.7015,24.5643,1.10632,0.0,0.0
288,71.75,102.515,142.896,119.642,101.829,92.4597,0.0182802,1.96998,18.5085,23.6934,0.870757,0.0,0.0
300,74.75,107.938,151.084,110.193,101.926,91.9126,0.0198811,2.08771,18.3513,22.6324,0.932884,0.0,0.0
312,77.75,113.988,160.092,109.652,101.956,91.1229,0.0212522,2.1795,18.2482,21.5313,1.01343,0.0,0.0
324,80.75,118.17,166.489,117.4,101.939,89.2293,0.0227578,2.22768,18.1797,20.3801,1.20139,0.0,0.0
336,83.75,122.835,173.547,101.171,101.855,90.4362,0.024781,2.36802,18.0336,19.5493,1.07274,0.0,0.0
348,86.75,128.895,182.805,108.897,101.717,88.6709,0.0267727,2.50148,17.8503,17.9878,1.23832,0.0,0.0
360,89.75,132.716,187.806,105.096,101.555,87.4696,0.0290696,2.66245,17.6454,17.0669,1.347,0.0,0.0
372,92.75,139.214,198.711,97.0254,101.375,91.3955,0.0311243,2.92943,17.3078,15.8356,0.934861,0.0,0.0
384,95.75,146.268,210.818,83.2658,101.223,91.7587,0.0326807,3.0978,17.1377,14.5644,0.885543,0.0,0.0
396,98.75,152.006,219.803,97.2841,101.375,90.319,0.0323198,3.07624,17.142,13.2431,1.04175,0.0,0.0
408,101.75,155.509,224.73,87.4463,101.452,92.9616,0.031257,3.05314,17.19,12.0719,0.788489,0.0,0.0
420,104.75,158.918,229.43,98.4703,101.409,88.2124,0.0305944,2.98392,17.2576,10.5404,1.25777,0.0,0.0
432,107.75,160.819,229.876,92.5511,101.36,90.0531,0.0310742,2.94745,17.2806,9.64953,1.0671,0.0,0.0
444,110.75,164.21,234.154,100.201,101.303,89.133,0.0312059,2.97656,17.2781,8.28818,1.15463,0.0,0.0
456,113.75,166.651,235.654,101.046,101.128,86.3147,0.0308192,2.94412,17.3298,6.90682,1.42886,0.0,0.0
468,116.75,167.336,236.16,88.8164,101.015,89.9385,0.0292967,2.89082,17.3858,5.92585,1.0478,0.0,0.0
480,119.75,168.571,235.889,108.111,101.221,88.9822,0.0269969,2.77537,17.5421,4.79473,1.16263,0.0,0.0
492,122.75,167.727,232.018,97.1048,101.432,89.4188,0.0237444,2.52323,17.8468,3.65361,1.13727,0.0,0.0
504,125.75,163.991,223.532,115.905,101.633,91.879,0.0207617,2.25111,18.1698,2.78275,0.910241,0.0,0.0
516,128.75,162.082,218.805,112.599,101.777,91.8779,0.0189217,2.07796,18.3448,2.07205,0.923073,0.0,0.0
528,131.75,158.971,212.076,106.856,101.855,94.9301,0.016496,1.86915,18.609,1.37135,0.635234,0.0,0.0
540,134.75,154.719,203.549,119.708,101.842,98.1386,0.0143617,1.59444,18.9788,0.670662,0.334215,0.0,0.0
552,137.75,150.948,195.265,120.278,101.751,97.702,0.0119925,1.36349,19.297,0.130129,0.366317,0.0,0.0
564,140.75,145.104,183.954,135.361,101.571,100.689,0.00961598,1.04651,19.7175,-0.280277,0.078696,0.0,0.0
576,143.75,137.383,170.134,138.885,101.34,104.055,0.00760704,0.736605,20.1201,-0.300297,-0.238521,0.0,0.0
588,146.75,129.457,156.349,151.593,101.06,106.623,0.00560172,0.463335,20.4857,-0.510504,-0.483449,0.0,0.0
600,149.75,120.95,142.798,157.836,100.816,108.521,0.00382355,0.278162,20.7126,-0.410405,-0.664417,0.0,0.0
612,152.75,113.799,131.382,153.712,100.648,109.253,0.00274483,0.177536,20.8195,-0.320316,-0.740123,0.0,0.0
624,155.75,106.323,119.211,154.774,100.595,109.804,0.00215414,0.123188,20.8914,-0.440435,-0.790285,0.0,0.0
636,158.75,100.506,111.465,157.165,100.665,109.893,0.00198801,0.0973056,20.9247,-0.430425,-0.791258,0.0,0.0
648,161.75,95.7047,104.015,157.841,100.84,109.779,0.00188638,0.0853776,20.9412,-0.600593,-0.76623,0.0,0.0
660,164.75,91.7369,97.528,156.234,101.116,110.157,0.00171107,0.0794045,20.9499,-0.490484,-0.772637,0.0,0.0
672,167.75,88.1472,92.1718,153.123,101.368,110.912,0.0016359,0.075583,20.955,-0.450445,-0.811719,0.0,0.0
684,170.75,85.276,87.91,155.499,101.598,111.413,0.00166265,0.0728116,20.9572,-0.350346,-0.832036,0.0,0.0
696,173.75,82.8981,84.4847,151.478,101.796,111.655,0.00162982,0.0710021,20.9589,-0.490484,-0.83395,0.0,0.0
708,176.75,80.5045,80.6307,155.511,101.945,111.481,0.00158715,0.0695605,20.96,-0.530524,-0.806652,0.0,0.0
720,179.75,78.9952,78.234,157.558,101.991,112.076,0.00166849,0.0684645,20.9611,-0.620613,-0.850657,0.0,0.0
732,182.75,76.4497,75.3389,159.408,101.931,111.464,0.00193986,0.0676179,20.9622,-0.500494,-0.806578,0.0,0.0
744,185.75,74.9129,73.2306,158.007,101.829,111.064,0.00201642,0.0672354,20.9628,-0.450445,-0.783188,0.0,0.0
756,188.75,74.1873,71.4529,157.453,101.65,111.34,0.00173538,0.0670756,20.9625,-0.510504,-0.821412,0.0,0.0
768,191.75,71.7773,69.8582,157.704,101.432,111.036,0.00153069,0.0668202,20.9625,-0.480474,-0.816214,0.0,0.0
780,194.75,70.6725,68.4541,160.583,101.253,110.275,0.00150217,0.0663028,20.9624,-0.460455,-0.77001,0.0,0.0
792,197.75,70.1521,66.5456,159.72,101.425,111.476,0.00150846,0.0658258,20.964,-0.310306,-0.852396,0.0,0.0
804,200.75,69.1674,65.9539,159,101.5,111.475,0.00147755,0.0655927,20.9655,-0.430425,-0.845705,0.0,0.0
816,203.75,68.0485,64.7775,155.379,101.414,111.019,0.00148475,0.065319,20.9653,-0.530524,-0.816303,0.0,0.0
828,206.75,66.7118,63.4163,160.876,101.323,111.028,0.00155207,0.0649508,20.9641,-0.530524,-0.825211,0.0,0.0
840,209.75,65.8559,62.5401,153.995,101.217,110.651,0.00154337,0.0648577,20.9638,-0.610603,-0.804019,0.0,0.0
852,212.75,65.378,61.3259,156.779,100.982,110.594,0.00142093,0.0647433,20.9637,-0.600593,-0.820317,0.0,0.0
864,215.75,64.6384,61.3098,159.662,101.106,110.385,0.00142679,0.0649209,20.9643,-0.420415,-0.792206,0.0,0.0
876,218.75,63.6876,60.7413,156.836,101.316,111.002,0.00144527,0.0650494,20.9645,-0.660652,-0.823709,0.0,0.0
888,221.75,63.3174,59.7617,160.572,101.516,111.504,0.0014134,0.0650999,20.9649,-0.540534,-0.84655,0.0,0.0
900,224.75,62.3506,59.0926,161.321,101.707,111.151,0.00135185,0.0652114,20.9651,-0.580573,-0.801096,0.0,0.0
912,227.75,61.4915,58.0768,158.958,101.818,111.812,0.00141107,0.0652888,20.9642,-0.440435,-0.844772,0.0,0.0
924,230.75,61.432,58.1473,155.715,101.866,111.546,0.00140066,0.0651119,20.9639,-0.600593,-0.81898,0.0,0.0
936,233.75,60.7005,57.4632,159.35,101.83,111.696,0.00142623,0.0652798,20.9647,-0.740731,-0.834255,0.0,0.0
948,236.75,60.7487,57.1574,161.133,101.725,111.415,0.00145436,0.0652946,20.9645,-0.630623,-0.820886,0.0,0.0
960,239.75,60.3083,57.1718,159.367,101.545,111.27,0.00142368,0.065364,20.9638,-0.480474,-0.825073,0.0,0.0
972,242.75,59.5071,56.3838,160.802,101.325,111.053,0.00135368,0.065369,20.9651,-0.500494,-0.827025,0.0,0.0
984,245.75,58.273,55.4777,159.064,101.11,111.234,0.00133009,0.065492,20.9663,-0.530524,-0.860948,0.0,0.0
996,248.75,58.6554,56.0682,166.163,100.917,110.561,0.00148312,0.0654083,20.9656,-0.430425,-0.823394,0.0,0.0
1008,251.75,57.8231,54.9809,156.836,100.761,110.518,0.00162193,0.0653098,20.965,-0.620613,-0.833899,0.0,0.0
1020,254.75,57.7239,54.8742,162.74,100.636,110.461,0.00170474,0.0650525,20.9661,-0.500494,-0.84037,0.0,0.0
1032,257.75,57.4552,54.4388,161.609,100.604,110.598,0.00165804,0.0649894,20.9668,-0.700692,-0.854439,0.0,0.0
1044,260.75,56.3254,54.0798,161.488,100.669,109.93,0.00138479,0.0649213,20.967,-0.490484,-0.793991,0.0,0.0
1056,263.75,56.4045,53.8428,160.867,100.788,110.704,,0.0649148,,-0.670662,-0.846576,0.0,0.0
1068,266.75,55.9992,53.5017,161.509,100.96,110.777,,,,-0.590583,-0.837085,0.0,0.0
1080,269.75,55.7974,53.5518,158.246,101.179,111.048,,,,-0.800791,-0.839609,0.0,0.0
1090,272.25,55.522,53.2861,161.782,101.372,111.075,,,,-0.700692,-0.824648,0.0,0.0

File: PMMA_Cone_HF50Scan_210826_R2.csv
Names,Time,Stack TC,Smoke TC,Exh Press,Smoke Comp,Smoke Meas,CO Meter,CO2 Meter,O2 Meter,Sample Mass,Ext Coeff,Start Test,Flame Verif
Chan Gain,,500,500,1,1,1,1,1,1,1,1,1.0,1.0
Offset,,0,0,0.141443,0,0,0,0,0,0,0,0.0,0.0
Gain,,1,1,25.011,13.1742,16.6938,1,1,1,1.00099,1.02845,1.0,1.0
Units,sec,C,C,Pa,%,%,%,%,%,g,/m,,
Baseline,,43.2534,45.7153,165.3,101.502,112.167,0.00154087,0.0539933,20.9778,-506.551,-0.901359,,
12,2.75,41.1466,43.0045,164.492,101.862,112.636,0.00167467,0.0538335,20.9796,36.426,-0.907037,0.0,0.0
24,5.75,40.7855,43.3233,164.162,101.816,112.631,0.0017221,0.0541632,20.9796,36.3559,-0.910765,0.0,0.0
36,8.75,41.0269,42.9014,162.704,101.773,112.409,0.00176515,0.0540217,20.9796,36.1957,-0.896774,0.0,0.0
48,11.75,41.1364,43.4184,166.922,101.713,112.474,0.00172322,0.0536662,20.979,36.3559,-0.907277,0.0,0.0
60,14.75,41.1726,43.0107,162.831,101.657,112.567,0.00159571,0.0535176,20.9795,36.4059,-0.91971,0.0,0.0
72,17.75,41.102,43.4426,165.742,101.673,112.323,0.00157976,0.0532487,20.9796,36.3359,-0.898663,0.0,0.0
84,20.75,41.5387,43.4293,166.872,101.692,112.454,0.00155109,0.0529532,20.98,36.3159,-0.907532,0.0,0.0
96,23.75,41.109,44.0157,164.865,101.737,112.591,0.00162194,0.052945,20.9807,36.3559,-0.914526,0.0,0.0
108,26.75,41.3092,43.9616,162.862,101.781,112.557,0.00190049,0.0531,20.9809,36.3259,-0.907874,0.0,0.0
120,29.75,41.1949,44.3478,163.937,101.832,112.191,0.00189639,0.0567611,20.9711,36.2058,-0.87402,0.0,0.0
132,32.75,42.2743,44.9351,151.648,101.862,111.321,0.00216567,0.124896,20.8671,36.1057,-0.801064,0.0,1.0
144,35.75,43.089,48.2027,148.983,101.906,108.134,0.00313615,0.292351,20.6321,35.8054,-0.535161,0.0,1.0
156,38.75,47.3714,54.5223,146.476,101.955,106.002,0.00460711,0.483776,20.4116,35.435,-0.351095,0.0,0.0
168,41.75,52.5029,62.5275,134.099,102.014,103.174,0.00575226,0.64663,20.1874,34.9345,-0.101951,0.0,0.0
180,44.75,58.3312,70.6067,130.41,102.05,102.649,0.00661502,0.790651,20.0259,34.2438,-0.0528321,0.0,0.0
192,47.75,63.1821,78.9295,140.061,102.099,100.493,0.00778864,0.88693,19.8951,33.7333,0.143016,0.0,0.0
204,50.75,67.6617,85.8377,123.897,102.146,101.249,0.00866967,0.982118,19.7588,33.3129,0.0796256,0.0,0.0
216,53.75,72.6047,94.3122,127.126,102.175,99.7516,0.00953841,1.09612,19.6018,32.4821,0.216555,0.0,0.0
228,56.75,78.433,102.875,120.637,102.212,97.6608,0.0104613,1.22812,19.4254,31.9115,0.410957,0.0,0.0
240,59.75,83.5076,111.711,126.317,102.236,98.3592,0.0116945,1.35406,19.276,31.1708,0.348724,0.0,0.0
252,62.75,89.2986,120.701,111.154,102.26,96.0738,0.0127834,1.47046,19.1178,30.2299,0.56298,0.0,0.0
264,65.75,95.0379,128.815,123.391,102.268,96.5104,0.0140371,1.56301,19.0098,29.5091,0.522749,0.0,0.0
276,68.75,100.162,136.538,123.52,102.302,94.2989,0.0157115,1.66261,18.8969,28.6983,0.734932,0.0,0.0
288,71.75,105.128,144.285,115.008,102.305,93.9616,0.0173173,1.75102,18.7855,27.7074,0.767503,0.0,0.0
300,74.75,109.125,150.432,112.919,102.324,93.9489,0.0185567,1.83704,18.6634,26.7664,0.770393,0.0,0.0
312,77.75,113.834,158.03,114.662,102.329,92.6768,0.019546,1.94746,18.5278,25.8255,0.893808,0.0,0.0
324,80.75,118.603,165.04,101.226,102.327,89.7979,0.0211696,2.07075,18.379,24.7845,1.17832,0.0,0.0
336,83.75,123.582,172.583,101.251,102.35,90.9029,0.0230479,2.2159,18.1819,23.6634,1.07001,0.0,0.0
348,86.75,128.81,179.949,100.04,102.357,91.0491,0.0254595,2.33348,18.0425,22.6424,1.05614,0.0,0.0
360,89.75,133.196,187.773,101.221,102.366,90.3644,0.0275835,2.46872,17.8909,21.5513,1.12506,0.0,0.0
372,92.75,138.992,197.118,105.647,102.371,89.7607,0.0289086,2.62882,17.7049,20.24,1.18596,0.0,0.0
384,95.75,144.099,204.141,103.461,102.378,89.8732,0.0296437,2.7371,17.5602,19.1589,1.17522,0.0,0.0
396,98.75,149.052,211.27,97.4437,102.382,89.8559,0.0291279,2.80842,17.4681,17.9377,1.17738,0.0,0.0
408,101.75,152.887,217.208,95.7301,102.387,90.6206,0.0276241,2.85627,17.4143,16.2961,1.10136,0.0,0.0
420,104.75,156.498,221.623,92.132,102.401,89.1442,0.02757,2.88698,17.3914,15.3351,1.25075,0.0,0.0
432,107.75,159.009,225.15,93.1327,102.411,90.9299,0.0287602,2.83512,17.4355,14.2841,1.07275,0.0,0.0
444,110.75,161.297,226.928,112.678,102.398,91.0119,0.0295929,2.77115,17.5145,13.143,1.06344,0.0,0.0
456,113.75,163.403,229.136,95.2195,102.396,91.3481,0.0291569,2.71994,17.5658,11.9818,1.02996,0.0,0.0
468,116.75,164.721,229.881,100.069,102.393,91.019,0.0279909,2.66428,17.6494,11.0709,1.06231,0.0,0.0
480,119.75,166.544,230.643,97.23,102.402,90.8641,0.0266942,2.60023,17.7312,9.96985,1.07845,0.0,0.0
492,122.75,167.486,230.793,104.251,102.397,92.0934,0.0254976,2.52656,17.8172,8.88878,0.956759,0.0,0.0
504,125.75,166.962,229.09,105.812,102.402,92.8811,0.0239503,2.41128,17.9856,7.8978,0.880392,0.0,0.0
516,128.75,166.773,225.858,104.236,102.414,93.2066,0.0213497,2.26377,18.1593,6.93685,0.84989,0.0,0.0
528,131.75,165.515,221.625,114.157,102.397,91.7918,0.0187082,2.06948,18.4106,6.06599,0.986352,0.0,0.0
540,134.75,163.244,216.01,108.325,102.394,95.1288,0.0164713,1.8716,18.6178,5.2652,0.663963,0.0,0.0
552,137.75,159.805,209.421,110.132,102.39,95.5878,0.0144947,1.69295,18.8355,4.61456,0.620148,0.0,0.0
564,140.75,156.696,202.643,120.021,102.384,97.5125,0.0128201,1.47888,19.1522,4.12407,0.439802,0.0,0.0
576,143.75,152.491,194.364,121.117,102.376,97.1314,0.0114098,1.27518,19.3959,3.52348,0.474454,0.0,0.0
588,146.75,147.337,185.397,130.854,102.36,98.4738,0.0100873,1.05932,19.6798,3.01298,0.349172,0.0,0.0
600,149.75,141.707,175.262,135.717,102.358,102.606,0.00846487,0.829508,20.0071,2.79276,-0.0217605,0.0,0.0
612,152.75,135.826,163.623,142.043,102.351,105.419,0.00677224,0.586043,20.3212,2.6326,-0.266382,0.0,0.0
624,155.75,127.864,151.088,145.728,102.339,108.361,0.00492736,0.358447,20.5919,2.6326,-0.515854,0.0,0.0
636,158.75,120.598,139.304,149.491,102.331,111.061,0.00357211,0.219013,20.762,2.58255,-0.738561,0.0,0.0
648,161.75,112.762,128.039,154.437,102.317,111.809,0.00269754,0.136817,20.87,2.52249,-0.800425,0.0,0.0
660,164.75,106.802,118.947,154.593,102.306,112.171,0.00216575,0.0947837,20.9287,2.61258,-0.830444,0.0,0.0
672,167.75,101.812,110.922,153.773,102.304,111.832,0.00171171,0.0759,20.9556,2.51248,-0.803408,0.0,0.0
684,170.75,97.5668,103.821,152.505,102.265,112.014,0.00158131,0.0672967,20.9665,2.52249,-0.821437,0.0,0.0
696,173.75,94.2341,98.8405,151.6,102.252,111.717,0.00147102,0.0625998,20.9724,2.58255,-0.798655,0.0,0.0
708,176.75,90.7102,93.8755,153.477,102.229,111.805,0.00145978,0.0598606,20.9751,2.51248,-0.807792,0.0,0.0
720,179.75,88.344,90.3652,155.034,102.21,111.862,0.00152378,0.057849,20.977,2.54251,-0.814092,0.0,0.0
732,182.75,85.5617,86.358,159.357,102.199,112.19,0.00159717,0.0562945,20.9796,2.5325,-0.841436,0.0,0.0
744,185.75,83.9453,83.344,156.375,102.183,111.996,0.00154126,0.0550536,20.9815,2.56253,-0.82724,0.0,0.0
756,188.75,81.3558,80.8322,156.114,102.172,112.111,0.00138537,0.0542727,20.9821,2.52249,-0.837497,0.0,0.0
768,191.75,79.59,78.616,151.95,102.153,111.621,0.00141686,0.0535228,20.9839,2.49246,-0.799648,0.0,0.0
780,194.75,78.3844,76.3506,151.28,102.135,112.054,0.00146043,0.0531178,20.9839,2.49246,-0.836136,0.0,0.0
792,197.75,77.1113,74.2298,155.128,102.121,111.839,0.00132129,0.0528401,20.9822,2.5325,-0.82013,0.0,0.0
804,200.75,75.8938,72.9422,163.975,102.125,111.965,0.00113223,0.0526052,20.9833,2.57254,-0.829879,0.0,0.0
816,203.75,74.3452,71.0764,153.1,102.117,111.994,0.00112588,0.0523367,20.9837,2.49246,-0.832899,0.0,0.0
828,206.75,73.0661,70.4501,159.051,102.129,111.83,0.00138349,0.0522887,20.983,2.5325,-0.818639,0.0,0.0
840,209.75,72.2742,69.0248,153.547,102.105,111.987,0.00148015,0.0519173,20.9819,2.54251,-0.833384,0.0,0.0
852,212.75,71.2888,68.4901,156.527,102.107,112.362,0.00160691,0.0517667,20.9821,2.48245,-0.863327,0.0,0.0
864,215.75,70.9805,66.8946,158.939,102.104,111.849,0.00163256,0.0517033,20.9837,2.45242,-0.822367,0.0,0.0
876,218.75,69.9885,66.7376,157.324,102.105,112.186,0.00154868,0.0516048,20.9844,2.55252,-0.849416,0.0,0.0
888,221.75,68.5921,65.2876,157.126,102.096,112.223,0.0015194,0.0516321,20.9846,2.50247,-0.853266,0.0,0.0
900,224.75,68.1668,64.6567,154.82,102.093,111.977,0.00146725,0.0514197,20.9846,2.60257,-0.833705,0.0,0.0
912,227.75,67.2376,64.4854,160.918,102.075,112.121,0.00143119,0.0511511,20.9843,2.50247,-0.846877,0.0,0.0
924,230.75,66.9324,63.5012,154.761,102.081,112.492,0.00122857,0.0509659,20.985,2.3323,-0.876177,0.0,0.0
936,233.75,66.5034,62.9164,158.193,102.054,112.145,0.00112038,0.051152,20.9853,2.54251,-0.850575,0.0,0.0
948,236.75,65.9148,62.4964,159.095,102.054,111.905,0.00125644,0.0511892,20.9843,2.52249,-0.831292,0.0,0.0
960,239.75,65.6597,62.2275,160.467,102.039,112.272,0.00130755,0.0511106,20.9846,2.5325,-0.862201,0.0,0.0
972,242.75,64.5742,61.404,160.553,102.029,112.224,0.00126067,0.0511254,20.9857,2.44241,-0.859206,0.0,0.0
984,245.75,64.4198,61.1237,157.901,102.015,112.229,0.00129711,0.0508556,20.9854,2.51248,-0.860819,0.0,0.0
996,248.75,63.5429,60.5541,161.691,102.001,112.203,0.00133362,0.0509194,20.9849,2.37234,-0.859938,0.0,0.0
1008,251.75,63.5515,60.2418,153.238,102.015,112.119,0.00150448,0.0507116,20.9844,2.54251,-0.852045,0.0,0.0
1020,254.75,62.5829,59.616,161.137,102.018,112.355,0.00159611,0.0505543,20.984,2.56253,-0.87072,0.0,0.0
1032,257.75,62.1729,59.226,154.554,102.022,112.059,0.0015906,0.0504912,20.9835,2.54251,-0.846531,0.0,0.0
1044,260.75,61.9724,58.9805,160.641,102.031,112.2,0.00147814,0.0505405,20.9831,2.49246,-0.857103,0.0,0.0
1056,263.75,61.1937,58.5158,159.982,102.042,112.137,0.00141292,0.050619,20.983,2.46243,-0.851098,0.0,0.0
1068,266.75,61.2769,58.4907,160.213,102.053,112.29,0.00133464,0.050581,20.983,2.49246,-0.862431,0.0,0.0
1080,269.75,60.1999,57.9052,161.477,102.071,112.409,0.00137036,0.0504584,20.983,2.49246,-0.870368,0.0,0.0
1092,272.75,60.0792,57.4758,157.582,102.068,112.29,,0.0502458,,2.5325,-0.86104,0.0,0.0
1104,275.75,59.4544,57.8442,161.185,102.085,111.952,,,,2.54251,-0.832405,0.0,0.0
1116,278.75,58.9591,57.6474,161.127,102.092,112.407,,,,2.50247,-0.868352,0.0,0.0
1124,280.75,59.0832,56.7819,156.859,102.094,112.129,,,,2.51248,-0.845787,0.0,0.0