Folder: fsri_materials_database/01_Data/PMMA/Cone (part 3)

File: PMMA_Cone_HF25Scan_220225_R2.csv
Names,Time,Stack TC,Smoke TC,Exh Press,Smoke Comp,Smoke Meas,CO Meter,CO2 Meter,O2 Meter,Sample Mass,Ext Coeff,Start Test,Flame Verif
Chan Gain,,500,500,1,1,1,1,1,1,1,1,1.0,1.0
Offset,,0,0,0.136092,0,0,0,0,0,0,0,0.0,0.0
Gain,,1,1,25.011,15.4219,15.1528,1,1,1,1.00089,1.02113,1.0,1.0
Units,sec,C,C,Pa,%,%,%,%,%,g,/m,,
Baseline,,20.6247,20.6987,165.244,115.557,114.833,-0.00913272,0.109598,20.7725,0.00246051,0.0563425,,
17,4,18.0916,18.0536,166.597,114.189,113.805,-0.00933004,0.114258,20.7688,899.206,0.0301409,0.0,0.0
34,8.25,18.247,18.5371,164.988,114.097,113.665,-0.0092259,0.114323,20.7648,899.176,0.0339733,0.0,0.0
51,12.5,17.631,18.3235,165.886,114.024,113.787,-0.00910617,0.113206,20.7642,899.146,0.0186306,0.0,0.0
68,16.75,18.4798,18.3264,165.496,113.953,113.608,-0.00911322,0.111999,20.7691,899.146,0.0271447,0.0,0.0
85,21,18.2303,18.5371,164.061,113.87,113.318,-0.00913968,0.110374,20.7738,899.146,0.0434824,0.0,0.0
102,25.25,18.4403,18.2626,166.6875,113.817,113.226,-0.00931941,0.109047,20.7764,899.136,0.0465751,0.0,0.0
119,29.5,18.0797,18.9908,167.2,113.797,113.146,-0.00919288,0.108553,20.7777,899.136,0.0513508,0.0,0.0
136,33.75,19.0627,18.6148,168.665,113.746,113.338,-0.00926491,0.108215,20.7798,899.126,0.032169,0.0,0.0
153,38,19.2523,19.1855,160.76,113.731,113.341,-0.00896852,0.107896,20.7807,899.096,0.0307645,0.0,0.0
170,42.25,18.8402,18.8159,166.384,113.765,113.18,-0.00917352,0.108885,20.7814,899.096,0.0461587,0.0,0.0
187,46.5,18.3828,18.9946,159.604,113.835,113.415,-0.00913882,0.108877,20.7831,899.116,0.0331063,0.0,0.0
204,50.75,18.8771,18.9469,162.013,113.925,113.535,-0.00899606,0.107488,20.7856,899.086,0.0306868,0.0,0.0
221,55,19.1322,19.4554,163.312,114.053,113.556,-0.00909325,0.106623,20.7843,899.106,0.0391044,0.0,0.0
238,59.25,19.1182,19.5371,163.386,114.209,114.012,-0.00924277,0.106862,20.784,899.066,0.0154376,0.0,0.0
255,63.5,18.8349,19.5786,167.149,114.395,113.834,-0.00936566,0.106723,20.7865,899.096,0.0440764,0.0,0.0
272,67.75,19.336,19.6243,162.628,114.618,114.027,-0.00919035,0.106651,20.7874,899.076,0.0462936,0.0,0.0
289,72,19.1157,19.7075,164.637,114.825,114.425,-0.00924277,0.106374,20.7878,899.066,0.031204,0.0,0.0
306,76.25,19.0797,19.7944,166.68,115.06,114.24,-0.0095138,0.106521,20.787,899.056,0.0640692,0.0,0.0
323,80.5,19.4621,19.5137,167.35,115.26,114.68,-0.00921741,0.106987,20.7844,899.046,0.045176,0.0,0.0
340,84.75,18.9271,19.5402,163.373,115.469,114.95,-0.00900535,0.107551,20.7824,899.026,0.0403322,0.0,0.0
357,89,19.517,19.5109,165.24,115.649,115.403,-0.00906849,0.108894,20.7767,899.006,0.0191324,0.0,0.0
374,93.25,19.4308,19.9436,164.188,115.806,114.988,-0.00892817,0.116129,20.7609,898.936,0.0634797,0.0,0.0
391,97.5,20.1261,20.5871,149.303,115.967,112.762,-0.00841438,0.18614,20.6474,898.776,0.251031,0.0,1.0
408,101.75,21.9389,22.3747,145.02,116.093,106.582,-0.00729941,0.317386,20.4485,898.476,0.765668,0.0,0.0
425,106,24.864,25.9065,142.347,116.173,106.514,-0.00630348,0.449742,20.2854,898.095,0.777518,0.0,0.0
442,110.25,28.4399,30.296,134.979,116.239,105.502,-0.00567503,0.572613,20.1191,897.605,0.868127,0.0,0.0
459,114.5,33.1507,35.4455,138.016,116.268,105.41,-0.00500386,0.66976,19.9903,897.145,0.878154,0.0,0.0
476,118.75,37.6071,41.0874,136.086,116.272,104.695,-0.00434638,0.754034,19.883,896.584,0.939399,0.0,0.0
493,123,40.8014,45.9349,132.162,116.259,101.775,-0.00379214,0.823215,19.7801,895.913,1.19185,0.0,0.0
510,127.25,46.3601,52.0497,129.495,116.229,103.11,-0.00322717,0.894596,19.6949,895.273,1.0728,0.0,0.0
527,131.5,51.3083,57.6612,127.123,116.162,102.052,-0.00294433,0.960132,19.6146,894.552,1.15999,0.0,0.0
544,135.75,55.5908,63.4938,131.258,116.08,100.807,-0.00248467,1.02785,19.5151,893.862,1.26365,0.0,0.0
561,140,60.3552,68.7422,119.046,116.005,100.493,-0.00209968,1.09594,19.4311,893.071,1.28578,0.0,0.0
578,144.25,65.0345,73.872,117.849,115.928,102.283,-0.00173392,1.15556,19.3469,892.34,1.12167,0.0,0.0
595,148.5,69.6849,79.8569,115.54,115.845,100.562,-0.00136243,1.21668,19.2653,891.47,1.26728,0.0,0.0
612,152.75,74.3415,86.2346,115.697,115.773,101.157,-0.00092975,1.297,19.1662,890.729,1.20886,0.0,0.0
629,157,78.9827,92.2237,115.228,115.681,100.966,-0.000348111,1.35908,19.0931,889.738,1.2186,0.0,0.0
646,161.25,84.0082,97.7795,108.44,115.591,99.0252,-5.9309e-05,1.41047,19.0217,888.837,1.38554,0.0,0.0
663,165.5,88.25,103.302,112.206,115.535,100.015,0.000159336,1.47374,18.9456,887.926,1.29208,0.0,0.0
680,169.75,92.1915,108.14,116.308,115.464,97.6763,0.000151686,1.49069,18.9261,886.945,1.49857,0.0,0.0
697,174,95.9711,112.86,111.22,115.419,99.7734,0.000211099,1.50346,18.9127,886.035,1.30475,0.0,0.0
714,178.25,99.6478,117.493,106.546,115.567,99.0992,0.000538909,1.52149,18.8937,885.114,1.37702,0.0,0.0
731,182.5,102.442,120.713,107.088,115.758,99.409,0.000951639,1.51961,18.8957,884.113,1.36382,0.0,0.0
748,186.75,105.255,124.506,114.25,115.906,99.951,0.000724661,1.52488,18.8885,883.272,1.32655,0.0,0.0
765,191,107.995,127.494,107.428,116.02,98.9716,0.000869003,1.53196,18.8828,882.281,1.42355,0.0,0.0
782,195.25,110.81,130.702,119.513,116.122,100.691,0.00073324,1.53466,18.8723,881.381,1.27716,0.0,0.0
799,199.5,113.34,133.28,109.44,116.184,99.7244,0.000753688,1.54823,18.8562,880.35,1.36835,0.0,0.0
816,203.75,115.362,136.085,108.356,116.192,99.9149,0.000873092,1.55813,18.8455,879.439,1.3519,0.0,0.0
833,208,117.35,138.393,108.792,116.199,99.8788,0.000947371,1.58029,18.8186,878.458,1.35568,0.0,0.0
850,212.25,119.546,141.03,110.608,116.193,97.9232,0.00119034,1.58668,18.809,877.537,1.5323,0.0,0.0
867,216.5,121.04,142.792,102.048,116.154,99.2666,0.00134358,1.60272,18.7842,876.556,1.40724,0.0,0.0
884,220.75,123.022,145.044,117.326,116.125,98.8869,0.0011038,1.6217,18.7594,875.565,1.43931,0.0,0.0
901,225,124.053,146.314,105.104,116.091,100.19,0.000992426,1.62788,18.7549,874.655,1.31947,0.0,0.0
918,229.25,126.28,148.76,111.576,116.016,98.455,0.00143029,1.61404,18.7746,873.634,1.47013,0.0,0.0
935,233.5,127.789,150.445,108.768,115.983,99.4733,0.00146592,1.61098,18.7833,872.673,1.37546,0.0,0.0
952,237.75,128.918,151.363,111.291,115.927,98.6344,0.00118613,1.58872,18.8101,871.732,1.44692,0.0,0.0
969,242,130.115,152.662,113.151,115.837,100.554,0.000794921,1.56373,18.8465,870.801,1.2674,0.0,0.0
986,246.25,130.022,152.52,107.981,115.742,99.4886,0.000512235,1.49851,18.9283,869.95,1.35542,0.0,0.0
1003,250.5,129.983,152.244,111.315,115.683,98.2164,-0.00011345,1.43478,19.0226,869.13,1.46614,0.0,0.0
1020,254.75,129.489,151.812,124.623,115.562,96.0939,-0.000197977,1.35519,19.1227,868.359,1.65246,0.0,0.0
1037,259,127.661,148.712,120.958,115.452,98.4985,-0.000770458,1.21539,19.3303,867.658,1.4225,0.0,0.0
1054,263.25,124.059,144.676,125.179,115.347,97.7956,-0.00188636,1.00712,19.621,867.088,1.4785,0.0,0.0
1071,267.5,120.598,140.045,135.289,115.376,99.6934,-0.00286295,0.824551,19.8508,866.608,1.30861,0.0,0.0
1088,271.75,115.994,133.403,142.005,115.363,102.031,-0.00389731,0.642921,20.0888,866.277,1.10002,0.0,0.0
1105,276,110.637,127.106,144.186,115.399,104.61,-0.00586365,0.475768,20.3426,866.047,0.879171,0.0,0.0
1122,280.25,104.215,119.747,151.64,115.392,108.83,-0.00723135,0.334763,20.5233,865.947,0.52445,0.0,0.0
1139,284.5,97.6941,111.376,154.084,115.401,110.768,-0.0081978,0.22661,20.6657,865.937,0.367076,0.0,0.0
1156,288.75,91.6468,103.425,162.481,115.424,112.332,-0.00897953,0.161452,20.7417,865.927,0.243246,0.0,0.0
1173,293,86.761,97.0615,157.881,115.428,111.421,-0.00905671,0.131927,20.7672,865.927,0.316511,0.0,0.0
1190,297.25,80.5688,90.9727,160.925,115.439,112.16,-0.00900053,0.120444,20.7772,865.937,0.258179,0.0,0.0
1207,301.5,76.3569,85.3501,157.861,115.45,111.041,-0.00921145,0.115325,20.7805,865.957,0.348763,0.0,0.0
1224,305.75,72.2898,80.0042,156.323,115.478,112.228,-0.00950379,0.112855,20.7807,865.957,0.255634,0.0,0.0
1241,310,69.0393,75.8334,155.146,115.47,112.084,-0.00961234,0.111427,20.7814,865.937,0.26661,0.0,0.0
1258,314.25,65.1847,71.3793,157.013,115.465,112.497,-0.00951648,0.110202,20.7839,865.957,0.233268,0.0,0.0
1275,318.5,62.3314,67.5197,160.713,115.482,112.52,-0.00947478,0.10898,20.7834,865.957,0.232742,0.0,0.0
1292,322.75,59.813,64.1166,159.136,115.501,112.472,-0.00928024,0.108273,20.784,865.947,0.238068,0.0,0.0
1309,327,56.7822,61.0447,162.723,115.49,113.188,-0.00928013,0.108076,20.7829,865.947,0.180326,0.0,0.0
1326,331.25,54.4652,58.7642,160.939,115.503,112.123,-0.00925796,0.10735,20.785,865.947,0.266061,0.0,0.0
1343,335.5,53.1853,55.8975,157.329,115.512,112.441,-0.00925212,0.106888,20.7862,865.957,0.241338,0.0,0.0
1360,339.75,50.9011,53.1774,160.116,115.509,112.157,-0.00933754,0.10645,20.7891,865.947,0.263803,0.0,0.0
1377,344,48.7787,51.1804,156.12,115.525,113.056,-0.00934769,0.106289,20.7888,865.967,0.193499,0.0,0.0
1394,348.25,47.7196,49.1567,161.592,115.537,113.209,-0.00966253,0.106129,20.7879,865.957,0.182366,0.0,0.0
1411,352.5,46.2149,47.6002,157.965,115.534,113.419,-0.00969092,0.106048,20.7897,865.957,0.165515,0.0,0.0
1428,356.75,45.0821,45.6436,160.449,115.55,113.515,-0.00967519,0.105769,20.7895,865.967,0.159125,0.0,0.0
1445,361,43.4743,44.1581,158.671,115.561,113.86,-0.00969179,0.106051,20.7874,865.947,0.132822,0.0,0.0
1462,365.25,41.6608,42.078,160.316,115.582,113.587,-0.00950598,0.10674,20.7839,865.947,0.155989,0.0,0.0
1479,369.5,41.0531,40.631,162.398,115.565,113.066,-0.00952975,0.107413,20.7816,865.957,0.19583,0.0,0.0
1496,373.75,39.4319,39.7933,160.757,115.587,113.413,-0.00951696,0.107641,20.7804,865.947,0.170075,0.0,0.0
1513,378,39.7915,39.5117,155.594,115.585,113.522,-0.00945282,0.107227,20.7821,865.957,0.161314,0.0,0.0
1530,382.25,38.7032,38.3174,154.347,115.57,113.43,-0.0095058,0.106909,20.7843,865.957,0.16741,0.0,0.0
1547,386.5,38.3588,37.6777,161.784,115.583,112.821,-0.00942405,0.106848,20.7833,865.947,0.216691,0.0,0.0
1564,390.75,37.5817,36.8032,160.412,115.59,113.706,-0.0094407,0.10716,20.7821,865.927,0.147169,0.0,0.0
1581,395,36.9598,35.4013,164.218,115.58,113.721,,0.10703,,865.947,0.145274,0.0,0.0
1598,399.25,36.2503,35.0614,159.299,115.589,113.409,,,,865.967,0.170514,0.0,0.0
1615,403.5,35.4536,34.1591,159.729,115.594,114.108,,,,865.957,0.115897,0.0,0.0
1624,405.75,35.6002,34.3746,157.655,115.597,113.394,,,,865.967,0.172339,0.0,0.0

File: PMMA_Cone_HF25Scan_220225_R3.csv
Names,Time,Stack TC,Smoke TC,Exh Press,Smoke Comp,Smoke Meas,CO Meter,CO2 Meter,O2 Meter,Sample Mass,Ext Coeff,Start Test,Flame Verif
Chan Gain,,500,500,1,1,1,1,1,1,1,1,1.0,1.0
Offset,,0,0,0.136092,0,0,0,0,0,0,0,0.0,0.0
Gain,,1,1,25.011,15.4219,15.1528,1,1,1,1.00089,1.02113,1.0,1.0
Units,sec,C,C,Pa,%,%,%,%,%,g,/m,,
Baseline,,21.6997,21.4434,163.198,115.453,115.433,-0.00916287,0.107833,20.7783,-0.00162644,0.00158484,,
17,4,19.9891,19.672,158.069,115.729,115.868,-0.0091684,0.115951,20.7666,900.367,-0.0107083,0.0,0.0
34,8.25,19.3615,19.4404,164.942,115.729,115.983,-0.00915692,0.114929,20.7661,900.357,-0.0196416,0.0,0.0
51,12.5,19.7872,19.4201,161.98,115.725,115.936,-0.00893113,0.111831,20.7714,900.337,-0.0162895,0.0,0.0
68,16.75,20.0097,19.6077,167.907,115.732,116.039,-0.00921709,0.109084,20.7761,900.307,-0.0237427,0.0,0.0
85,21,19.9355,19.5107,162.123,115.729,116.116,-0.00918607,0.106807,20.7817,900.307,-0.0298484,0.0,0.0
102,25.25,19.6431,19.942,161.332,115.741,115.851,-0.00905496,0.10493,20.788,900.337,-0.00851056,0.0,0.0
119,29.5,20.045,20.0875,165.311,115.71,115.646,-0.00915393,0.104007,20.7911,900.327,0.0049745,0.0,0.0
136,33.75,19.998,20.1937,162.424,115.711,116.046,-0.00941068,0.104035,20.7893,900.347,-0.0258815,0.0,0.0
153,38,19.9479,20.5499,157.31,115.692,115.823,-0.00939321,0.104592,20.7879,900.327,-0.0101903,0.0,0.0
170,42.25,19.7131,20.1241,162.211,115.648,115.577,-0.00927112,0.104991,20.7868,900.317,0.0054654,0.0,0.0
187,46.5,20.4109,19.7619,165.489,115.613,115.922,-0.00929109,0.105609,20.7853,900.287,-0.0239274,0.0,0.0
204,50.75,19.6241,19.3556,160.4,115.581,115.792,-0.00934144,0.106605,20.7818,900.307,-0.0163617,0.0,0.0
221,55,20.2555,20.0993,161.448,115.537,115.446,-0.00913151,0.10715,20.7778,900.287,0.00707983,0.0,0.0
238,59.25,20.1694,20.2498,166.165,115.493,115.669,-0.00921422,0.107893,20.7754,900.217,-0.0136647,0.0,0.0
255,63.5,20.315,19.8722,163.404,115.423,115.564,-0.00951822,0.108816,20.7729,900.257,-0.0109355,0.0,0.0
272,67.75,20.4397,20.1289,162.363,115.357,115.691,-0.00945074,0.108782,20.7735,900.287,-0.025866,0.0,0.0
289,72,20.5262,20.7672,165.202,115.289,114.931,-0.00912893,0.109046,20.7724,900.267,0.0278888,0.0,0.0
306,76.25,20.5256,20.5559,161.149,115.215,115.347,-0.00917399,0.109806,20.7704,900.247,-0.0102673,0.0,0.0
323,80.5,20.6989,20.4685,160.342,115.138,115.283,-0.00919243,0.110896,20.765,900.237,-0.0112765,0.0,0.0
340,84.75,20.6727,20.6166,161.531,115.021,115.017,-0.00890908,0.111912,20.7622,900.237,0.000321398,0.0,0.0
357,89,20.4018,19.7849,160.464,114.939,114.961,-0.00904681,0.111258,20.7666,900.207,-0.00173639,0.0,0.0
374,93.25,20.2444,20.0595,163.463,114.829,114.891,-0.00934658,0.110146,20.7709,900.177,-0.0048074,0.0,0.0
391,97.5,20.5492,20.4083,158.296,114.693,113.829,-0.00897641,0.132792,20.7284,900.107,0.0677367,0.0,1.0
408,101.75,21.1442,21.444,144.553,114.598,110.389,-0.00832577,0.228448,20.5863,899.877,0.335215,0.0,0.0
425,106,23.2997,24.3935,140.526,114.472,106.993,-0.00730075,0.386242,20.347,899.487,0.605208,0.0,0.0
442,110.25,27.8068,29.0298,136.369,114.352,104.297,-0.00629213,0.547139,20.1453,899.046,0.824365,0.0,0.0
459,114.5,31.9993,34.1858,139.716,114.252,103.755,-0.00518746,0.673888,19.974,898.476,0.86325,0.0,0.0
476,118.75,36.7066,39.9932,134.048,114.152,102.645,-0.00437184,0.77601,19.8454,897.885,0.951719,0.0,0.0
493,123,41.7906,46.2888,119.534,114.035,100.539,-0.00384448,0.869561,19.7189,897.275,1.12824,0.0,0.0
510,127.25,47.2355,52.1413,122.327,113.962,101.275,-0.00297124,0.952045,19.5993,896.604,1.05716,0.0,0.0
527,131.5,51.9155,58.5974,113.927,113.882,98.9373,-0.00252562,1.04731,19.4746,895.893,1.26007,0.0,0.0
544,135.75,57.6951,65.582,121.091,113.81,99.0821,-0.0020413,1.13859,19.3739,895.093,1.24132,0.0,0.0
561,140,62.7557,72.2911,116.121,113.753,97.625,-0.00126135,1.22084,19.2587,894.202,1.3695,0.0,0.0
578,144.25,68.508,79.0964,108.334,113.74,98.1799,-0.000810549,1.32038,19.1296,893.351,1.31777,0.0,0.0
595,148.5,74.1758,85.6867,103.139,113.716,97.9098,-0.000218423,1.41283,19.0041,892.34,1.34051,0.0,0.0
612,152.75,79.6105,93.0424,109.309,113.693,96.5956,0.000669279,1.5018,18.8924,891.43,1.45978,0.0,0.0
629,157,85.4022,99.95,102.612,113.696,96.295,0.00146211,1.58013,18.7947,890.439,1.48791,0.0,0.0
646,161.25,89.7445,105.578,111.919,113.679,94.6076,0.00172271,1.63712,18.7248,889.408,1.64489,0.0,0.0
663,165.5,95.5664,111.666,114.332,113.675,96.584,0.00185851,1.68782,18.6598,888.357,1.4594,0.0,0.0
680,169.75,100.305,118.123,101.037,113.715,96.2234,0.00188958,1.72182,18.621,887.306,1.49607,0.0,0.0
697,174,104.43,123.6,106.352,113.68,95.9158,0.00179821,1.70979,18.6395,886.315,1.52196,0.0,0.0
714,178.25,108.064,127.762,95.1343,113.7,97.5612,0.00173317,1.70425,18.6482,885.284,1.3712,0.0,0.0
731,182.5,111.753,132.408,111.823,113.725,97.5145,0.00183149,1.70755,18.6469,884.283,1.37746,0.0,0.0
748,186.75,114.285,135.749,105.042,113.742,97.4053,0.00177639,1.68924,18.6652,883.212,1.38886,0.0,0.0
765,191,116.773,138.504,110.877,113.771,97.1246,0.00164442,1.71155,18.6296,882.301,1.41693,0.0,0.0
782,195.25,119.513,141.9,98.7904,113.787,96.6113,0.00207793,1.73345,18.6013,881.2,1.46569,0.0,0.0
799,199.5,122.864,145.604,100.403,113.796,97.5625,0.00234389,1.76358,18.5602,880.16,1.37867,0.0,0.0
816,203.75,125.091,148.387,110.91,113.839,96.5059,0.00277739,1.77482,18.5457,879.169,1.47955,0.0,0.0
833,208,127.238,150.901,98.6285,113.839,96.5138,0.00307185,1.79289,18.526,878.068,1.47886,0.0,0.0
850,212.25,129.708,153.378,100.223,113.872,96.4934,0.00296562,1.82788,18.4879,877.037,1.4833,0.0,0.0
867,216.5,131.419,155.952,107.597,113.903,96.1581,0.00262394,1.82,18.4998,875.956,1.51692,0.0,0.0
884,220.75,132.963,157.942,104.833,113.912,96.1188,0.00216312,1.80867,18.5117,874.945,1.52132,0.0,0.0
901,225,135.174,159.884,110.759,113.965,96.745,0.00237994,1.80229,18.5295,873.954,1.4673,0.0,0.0
918,229.25,136.483,161.419,106.769,113.996,96.492,0.00255983,1.76886,18.5654,872.883,1.49323,0.0,0.0
935,233.5,137.33,162.095,107.436,114.033,97.4751,0.00214407,1.6955,18.676,871.942,1.40532,0.0,0.0
952,237.75,137.038,161.835,109.819,114.074,96.0985,0.00104503,1.57192,18.8433,871.001,1.5359,0.0,0.0
969,242,136.488,160.848,109.091,114.08,96.7547,0.000828843,1.47313,18.9713,870.221,1.47546,0.0,0.0
986,246.25,135.068,158.408,110.289,114.109,97.1575,0.000191844,1.36688,19.1145,869.42,1.44051,0.0,0.0
1003,250.5,133.205,156.054,115.646,114.127,96.6677,-0.000798684,1.24029,19.2813,868.689,1.48721,0.0,0.0
1020,254.75,130.405,152.43,121.183,114.143,97.9209,-0.00214756,1.09268,19.4598,868.059,1.37309,0.0,0.0
1037,259,127.097,147.837,128.377,114.114,98.4606,-0.00333577,0.911788,19.725,867.588,1.32157,0.0,0.0
1054,263.25,122.677,141.924,130.893,114.04,101.276,-0.00421922,0.734492,19.9534,867.158,1.06325,0.0,0.0
1071,267.5,117.559,135.847,146.627,113.965,100.957,-0.00541605,0.564637,20.2101,866.918,1.08556,0.0,0.0
1088,271.75,111.188,127.892,148.448,113.915,105.013,-0.00683675,0.401643,20.4329,866.768,0.728822,0.0,0.0
1105,276,104.856,120.387,149.701,113.852,108.529,-0.00796566,0.271186,20.5863,866.718,0.428883,0.0,0.0
1122,280.25,98.4147,111.497,153.559,113.797,110.871,-0.00872011,0.193224,20.6861,866.678,0.233372,0.0,0.0
1139,284.5,92.7697,104.988,155.595,113.725,111.083,-0.00901045,0.150651,20.7298,866.678,0.210534,0.0,0.0
1156,288.75,86.8402,97.4319,153.25,113.687,110.188,-0.00914595,0.129932,20.756,866.698,0.279976,0.0,0.0
1173,293,81.4756,91.2169,154.577,113.67,110.17,-0.00922548,0.12082,20.7632,866.688,0.280107,0.0,0.0
1190,297.25,77.415,86.0118,153.661,113.727,110.533,-0.009078,0.118062,20.7628,866.708,0.255128,0.0,0.0
1207,301.5,73.3922,81.3246,157.594,113.852,111.042,-0.00930643,0.116818,20.7617,866.718,0.223819,0.0,0.0
1224,305.75,69.3753,76.3365,157.395,113.969,110.087,-0.00942252,0.114252,20.7665,866.718,0.310396,0.0,0.0
1241,310,66.5563,72.4523,158.197,114.168,110.593,-0.00940458,0.112222,20.7715,866.738,0.284961,0.0,0.0
1258,314.25,63.435,68.5371,154.919,114.417,112.269,-0.00936722,0.111141,20.7734,866.708,0.169796,0.0,0.0
1275,318.5,60.6742,65.2408,153.465,114.704,112.317,-0.00951165,0.110913,20.7725,866.708,0.18837,0.0,0.0
1292,322.75,58.3313,62.2256,153.319,115.045,112.388,-0.00944673,0.111083,20.7728,866.728,0.209262,0.0,0.0
1309,327,56.5174,59.5429,157.937,115.332,111.678,-0.00931966,0.111068,20.7724,866.698,0.288413,0.0,0.0
1326,331.25,54.1265,56.5857,155.923,115.514,113.439,-0.00925084,0.111655,20.768,866.708,0.162375,0.0,0.0
1343,335.5,52.1837,54.4612,157.033,115.676,113.251,-0.00932466,0.111878,20.7662,866.698,0.189721,0.0,0.0
1360,339.75,50.6251,52.148,157.456,115.737,112.939,-0.00931034,0.111165,20.7681,866.708,0.219216,0.0,0.0
1377,344,48.9989,50.1483,159.277,115.67,113.171,-0.00927946,0.110317,20.7704,866.708,0.195613,0.0,0.0
1394,348.25,47.6441,48.3614,161.004,115.505,112.974,-0.00917826,0.110401,20.7723,866.708,0.198417,0.0,0.0
1411,352.5,46.5576,46.3415,157.465,115.367,112.325,-0.00934374,0.109456,20.7744,866.708,0.239414,0.0,0.0
1428,356.75,44.7277,45.7486,156.557,115.666,113.274,-0.00955858,0.108945,20.7762,866.718,0.1872,0.0,0.0
1445,361,43.4195,43.9313,157.888,116.06,113.592,-0.0095961,0.108423,20.7782,866.718,0.192532,0.0,0.0
1462,365.25,42.6588,42.7241,157.672,116.162,113.395,-0.00935595,0.108092,20.7799,866.708,0.215958,0.0,0.0
1479,369.5,42.2678,41.7538,155.414,115.886,113.437,-0.00902943,0.108768,20.7775,866.688,0.191342,0.0,0.0
1496,373.75,40.8206,40.8519,157.985,115.412,113.204,-0.00913865,0.109562,20.7734,866.698,0.173021,0.0,0.0
1513,378,40.2539,39.9667,160.048,115.681,113.963,-0.00928323,0.110024,20.7718,866.678,0.134083,0.0,0.0
1530,382.25,39.3811,38.2328,154.968,116.02,113.832,-0.00944972,0.109479,20.7732,866.718,0.170575,0.0,0.0
1547,386.5,38.74,38.0979,155.367,116.228,113.963,-0.00965085,0.10837,20.7767,866.708,0.176292,0.0,0.0
1564,390.75,37.6767,37.0578,158.937,116.213,114.744,-0.00986133,0.107116,20.7811,866.728,0.113952,0.0,0.0
1581,395,37.1955,35.9151,161.527,115.931,113.292,,0.106283,,866.708,0.206197,0.0,0.0
1598,399.25,36.3009,35.2518,154.609,115.341,113.803,,,,866.678,0.120244,0.0,0.0
1615,403.5,35.7756,34.8957,158.809,114.669,112.381,,,,866.698,0.180563,0.0,0.0
1619,404.5,35.9461,34.7823,157.163,114.514,112.86,,,,866.708,0.130356,0.0,0.0

File: PMMA_Cone_HF50Scalar_210826_R1.csv
LABORATORY,FSRI
TEST IDENT,PMMA_HF50_1
OPERATOR,Dow
MATERIAL,"PMMA, clear, 0.12 in. thick"
ORIENTATION,Horizontal
HEAT FLUX,50
SURF AREA,0.01
C FACTOR,0.0366558
SPEC HOLDER DIFF,-61.3
SPECIMEN MASS,33.3
SCAN TIME,0.25
O2 DELAY TIME,11
CO DELAY TIME,11
CO2 DELAY TIME,8
FLOW FACTOR,1
SCAN COUNT,1090
TIME TO IGN,30
END OF TEST SCAN,610
END OF TEST TIME,152.5
TEST STATUS,1
PRE TEST CMT,no retainer frame or grid

File: PMMA_Cone_HF50Scalar_210826_R2.csv
LABORATORY,FSRI
TEST IDENT,PMMA_HF50_2
OPERATOR,Dow
MATERIAL,"PMMA, clear, 0.12 in. thick"
ORIENTATION,Horizontal
HEAT FLUX,50
SURF AREA,0.01
C FACTOR,0.0366558
SPEC HOLDER DIFF,-58.4
SPECIMEN MASS,33.5
SCAN TIME,0.25
O2 DELAY TIME,11
CO DELAY TIME,11
CO2 DELAY TIME,8
FLOW FACTOR,1
SCAN COUNT,1124
TIME TO IGN,30.75
END OF TEST SCAN,644
END OF TEST TIME,161
TEST STATUS,1
PRE TEST CMT,no retainer frame or grid

File: PMMA_Cone_HF50Scalar_210826_R3.csv
LABORATORY,FSRI
TEST IDENT,PMMA_HF50_3
OPERATOR,Dow
MATERIAL,"PMMA, clear, 0.12 in. thick"
ORIENTATION,Horizontal
HEAT FLUX,50
SURF AREA,0.01
C FACTOR,0.0366558
SPEC HOLDER DIFF,-61.2
SPECIMEN MASS,33.3
SCAN TIME,0.25
O2 DELAY TIME,11
CO DELAY TIME,11
CO2 DELAY TIME,8
FLOW FACTOR,1
SCAN COUNT,1104
TIME TO IGN,30
END OF TEST SCAN,624
END OF TEST TIME,156
TEST STATUS,1
PRE TEST CMT,no retainer frame or grid