Folder: fsri_materials_database/01_Data/PMMA/Cone

Note: 01_Data/README.md
# Materials and Products Database
## 01_Data

Raw data generated from each apparatus are included here in plain-text format. The data is organized first by material, next by the short name of test apparatus used, and where applicable additional filtering by test settings.

### material.json

Each material directory contains a json file of the same name as the material. This file links the data stored in the repository as well as data and graphs produced by the accompanying scripts (__02_Scripts__) to the respective landing page for the material on the front-end website.

File: PMMA_Cone_HF15-noSparkScalar_210827_R1.csv
LABORATORY,FSRI
TEST IDENT,PMMA_NoSpark_HF15_1
OPERATOR,Dow
MATERIAL,"PMMA, clear, 0.12 in."
ORIENTATION,Horizontal
HEAT FLUX,15
SURF AREA,0.01
C FACTOR,0.0367036
SPEC HOLDER DIFF,-57.6
SPECIMEN MASS,32.6
SCAN TIME,0.25
O2 DELAY TIME,11
CO DELAY TIME,11
CO2 DELAY TIME,8
FLOW FACTOR,1
SCAN COUNT,5290
TIME TO IGN,0
END OF TEST SCAN,4810
END OF TEST TIME,1202.5
TEST STATUS,1
PRE TEST CMT,no spark ignitor. end test at MLR less than 2.5 g/m^2/s or 20 min
POST TEST CMT,MLR did not exceed 1.0 g/min

File: PMMA_Cone_HF15-noSparkScalar_210827_R3.csv
LABORATORY,FSRI
TEST IDENT,PMMA_NoSpark_HF15_3
OPERATOR,Dow
MATERIAL,"PMMA, clear, 0.12 in."
ORIENTATION,Horizontal
HEAT FLUX,15
SURF AREA,0.01
C FACTOR,0.0367036
SPEC HOLDER DIFF,-57.7
SPECIMEN MASS,33.3
SCAN TIME,0.25
O2 DELAY TIME,11
CO DELAY TIME,11
CO2 DELAY TIME,8
FLOW FACTOR,1
SCAN COUNT,5284
TIME TO IGN,0
END OF TEST SCAN,4804
END OF TEST TIME,1201
TEST STATUS,1
PRE TEST CMT,no spark ignitor. end test at 20 min

File: PMMA_Cone_HF15-noSparkScan_210827_R1.csv
Names,Time,Stack TC,Smoke TC,Exh Press,Smoke Comp,Smoke Meas,CO Meter,CO2 Meter,O2 Meter,Sample Mass,Ext Coeff,Start Test,Flame Verif
Chan Gain,,500,500,1,1,1,1,1,1,1,1,1.0,1.0
Offset,,0,0,0.145697,0,0,0,0,0,0,0,0.0,0.0
Gain,,1,1,25.011,13.1742,16.6938,1,1,1,1.00099,1.02845,1.0,1.0
Units,sec,C,C,Pa,%,%,%,%,%,g,/m,,
Baseline,,25.7251,26.6322,194.842,100.731,104.219,0.000786293,0.0465156,20.9829,-507.829,-0.30712,,
56,13.75,24.0875,24.9976,194.52,100.217,103.613,0.000414726,0.0476532,20.981,33.9936,-0.300695,0.0,0.0
112,27.75,23.9318,25.2892,197.084,100.198,103.517,0.000929781,0.0463797,20.9823,34.0436,-0.293973,0.0,0.0
168,41.75,24.1047,24.885,194.187,100.209,103.673,0.000771405,0.0466327,20.9842,34.0336,-0.306535,0.0,0.0
224,55.75,24.1459,24.9322,195.231,100.202,103.477,0.000995361,0.0466148,20.9852,33.9936,-0.290147,0.0,0.0
280,69.75,24.4617,25.0586,197.861,100.197,103.326,0.000387963,0.0463809,20.984,33.9535,-0.277424,0.0,0.0
336,83.75,24.2106,25.2121,193.661,100.206,103.909,0.000787394,0.0489763,20.981,34.0036,-0.327371,0.0,0.0
392,97.75,24.3148,25.5132,199.034,100.223,103.658,0.00106759,0.0470062,20.9839,33.8134,-0.304055,0.0,0.0
448,111.75,24.4742,25.1139,198.624,100.262,103.348,0.000428368,0.0463434,20.9833,33.7233,-0.273466,0.0,0.0
504,125.75,24.5163,25.3728,195.472,100.342,103.747,0.000714979,0.0462127,20.9827,33.8935,-0.301024,0.0,0.0
560,139.75,24.6212,25.563,191.101,100.488,104.078,0.000791361,0.0461837,20.9864,33.8634,-0.316743,0.0,0.0
616,153.75,24.5284,25.6642,193.914,100.535,103.613,0.000678196,0.0463436,20.9867,33.9735,-0.272112,0.0,0.0
672,167.75,24.8917,25.9585,194.692,100.577,103.807,0.000868377,0.0464759,20.9855,33.7433,-0.285165,0.0,0.0
728,181.75,24.7339,25.4774,194.155,100.722,104.098,0.000696367,0.0462082,20.9847,33.8534,-0.297437,0.0,0.0
784,195.75,24.8959,25.9018,196.021,100.851,104.135,0.000628513,0.0466403,20.9831,33.8634,-0.289072,0.0,0.0
840,209.75,24.7177,25.5955,188.993,101.055,104.341,0.000996906,0.0465265,20.9829,33.8234,-0.288678,0.0,0.0
896,223.75,25.0008,25.8278,197.603,101.16,104.865,0.000468833,0.0464236,20.9837,33.6833,-0.324528,0.0,0.0
952,237.75,25.0016,26.146,194.562,101.241,104.456,0.000529108,0.0465051,20.9859,33.7633,-0.282052,0.0,0.0
1008,251.75,24.8234,26.1708,190.155,101.245,104.375,0.000589434,0.0465437,20.9836,33.6933,-0.274659,0.0,0.0
1064,265.75,24.5509,25.9139,198.161,101.297,104.542,0.000746407,0.0466457,20.9828,33.6132,-0.28455,0.0,0.0
1120,279.75,24.7458,25.9987,193.266,101.317,104.273,0.000357651,0.046533,20.9823,33.5531,-0.259446,0.0,0.0
1176,293.75,24.9603,26.2192,192.396,101.324,104.32,0.000529697,0.0464237,20.9828,33.413,-0.262892,0.0,0.0
1232,307.75,24.3701,25.4005,196.506,101.362,104.449,0.000509103,0.0465471,20.9829,33.3329,-0.270667,0.0,0.0
1288,321.75,25.0213,26.1185,193.012,101.32,104.026,0.000450455,0.0469286,20.9827,33.2228,-0.237784,0.0,0.0
1344,335.75,25.0098,26.1436,191.794,101.224,103.984,0.000767088,0.047469,20.9849,33.0727,-0.242641,0.0,0.0
1400,349.75,24.636,25.9013,192.704,100.983,104.252,0.000899035,0.0491108,20.9787,32.9525,-0.287428,0.0,0.0
1456,363.75,24.9423,25.9861,192.856,100.696,103.484,0.000569156,0.0501462,20.9758,32.8024,-0.246391,0.0,0.0
1512,377.75,25.0092,25.7524,191.422,100.402,103.338,0.000775739,0.0511555,20.977,32.7323,-0.260005,0.0,0.0
1568,391.75,25.0924,26.0125,190.416,100.211,103.12,0.00103831,0.0521038,20.9748,32.5021,-0.25808,0.0,0.0
1624,405.75,24.9492,26.3302,195.078,100.201,103.285,0.000662972,0.0525614,20.9733,32.3319,-0.273458,0.0,0.0
1680,419.75,24.977,26.2984,189.645,100.346,103.221,0.000425569,0.0536325,20.972,32.1517,-0.254865,0.0,0.0
1736,433.75,25.2857,26.1188,187.749,100.645,103.573,0.000857935,0.0542484,20.9724,31.9415,-0.258692,0.0,0.0
1792,447.75,25.4629,26.5872,188.13,101.019,103.78,0.000832999,0.054732,20.971,31.8314,-0.243237,0.0,0.0
1848,461.75,25.1686,26.2534,193.434,101.294,104.187,0.000505887,0.0549375,20.9712,31.5912,-0.254026,0.0,0.0
1904,475.75,25.0813,26.3157,193.199,101.433,104.443,0.000811652,0.055918,20.9687,31.391,-0.263844,0.0,0.0
1960,489.75,25.1775,26.2776,196.227,101.274,103.874,0.000276835,0.0566896,20.9676,31.1207,-0.228683,0.0,0.0
2016,503.75,25.6615,26.6836,197.347,100.832,103.65,0.00112246,0.0568804,20.9669,30.9105,-0.248648,0.0,0.0
2072,517.75,25.6309,26.7872,196.837,100.942,103.407,0.000782952,0.0577517,20.968,30.7604,-0.217665,0.0,0.0
2128,531.75,25.6227,26.5426,193.139,101.11,104.041,0.000683308,0.0579291,20.9659,30.4801,-0.257781,0.0,0.0
2184,545.75,25.3131,26.3963,189.661,100.798,103.787,0.000636923,0.0582771,20.9647,30.2699,-0.26359,0.0,0.0
2240,559.75,25.5393,26.7718,191.631,101.243,103.831,0.000873337,0.0590143,20.9643,30.0597,-0.227651,0.0,0.0
2296,573.75,25.8112,26.9506,192.407,101.572,104.969,0.000710557,0.0596255,20.9663,29.7794,-0.296814,0.0,0.0
2352,587.75,26.0584,26.9567,195.133,101.456,104.129,0.000723289,0.059928,20.962,29.5292,-0.234614,0.0,0.0
2408,601.75,25.8264,26.9887,195.316,100.786,104.007,0.000908977,0.060252,20.9608,29.2189,-0.283807,0.0,0.0
2464,615.75,25.8617,27.0469,197.858,100.193,103.085,0.000765187,0.060804,20.9601,28.9986,-0.256678,0.0,0.0
2520,629.75,26.4034,27.2848,195.494,100.52,103.883,0.000622615,0.0612063,20.9614,28.8185,-0.296882,0.0,0.0
2576,643.75,26.0759,27.1557,192.818,101.182,104.176,0.00118192,0.0617043,20.9593,28.6083,-0.263096,0.0,0.0
2632,657.75,25.6579,26.7182,191.464,101.427,104.496,0.000713076,0.0622322,20.9595,28.2879,-0.268911,0.0,0.0
2688,671.75,25.8253,27.1249,195.914,101.268,105.042,0.000652399,0.0625652,20.9585,28.1278,-0.330039,0.0,0.0
2744,685.75,26.0559,27.154,193.52,100.833,103.597,0.000575034,0.0627804,20.9593,27.9076,-0.243927,0.0,0.0
2800,699.75,25.7317,27.2021,192.795,100.913,103.868,0.000751482,0.0632178,20.9561,27.5772,-0.260387,0.0,0.0
2856,713.75,26.1058,26.8914,189.271,101.02,104.325,0.000886547,0.0629598,20.9567,27.337,-0.290435,0.0,0.0
2912,727.75,26.1576,26.9614,191.158,100.826,104.035,0.0005042,0.0633576,20.9574,27.1268,-0.282683,0.0,0.0
2968,741.75,25.7405,26.9608,194.194,101.285,104.583,0.000907228,0.0634181,20.9578,26.9266,-0.289025,0.0,0.0
3024,755.75,25.6386,26.9292,193.434,101.549,104.746,0.000763068,0.0636261,20.957,26.6463,-0.279696,0.0,0.0
3080,769.75,26.4686,27.3302,192.47,101.405,104.923,0.00087004,0.0641316,20.9567,26.346,-0.307705,0.0,0.0
3136,783.75,25.9208,27.3087,196.832,100.913,104.49,0.00109542,0.064207,20.956,26.1658,-0.314325,0.0,0.0
3192,797.75,26.4649,27.517,192.122,100.364,103.955,0.000582825,0.0647526,20.9548,25.8355,-0.317174,0.0,0.0
3248,811.75,25.9187,26.8552,191.81,100.177,103.418,0.000957607,0.0655437,20.9533,25.7654,-0.287274,0.0,0.0
3304,825.75,26.1635,26.8026,193.635,100.687,104.001,0.000800545,0.0662501,20.9534,25.4451,-0.292223,0.0,0.0
3360,839.75,26.5928,27.4833,193.645,101.287,104.648,0.00056824,0.0661689,20.953,25.2049,-0.29455,0.0,0.0
3416,853.75,26.0172,27.2466,190.775,101.418,104.747,0.000494639,0.0663878,20.9518,25.0347,-0.291391,0.0,0.0
3472,867.75,26.7208,27.4314,193.879,101.106,104.658,0.000900406,0.0668233,20.9524,24.7344,-0.311433,0.0,0.0
3528,881.75,26.3193,27.4981,194.913,100.714,104.345,0.00100189,0.0668107,20.9513,24.5142,-0.319518,0.0,0.0
3584,895.75,26.1323,27.4256,187.388,100.978,105.048,0.000530593,0.0675379,20.9493,24.2139,-0.356461,0.0,0.0
3640,909.75,26.1586,27.4641,190.551,100.979,104.782,0.00109488,0.0681577,20.9483,24.0337,-0.333564,0.0,0.0
3696,923.75,26.6021,27.4423,193.205,100.739,105.207,0.00083478,0.068402,20.9481,23.8836,-0.391507,0.0,0.0
3752,937.75,26.3927,27.3686,193.754,101.233,105.521,0.00113065,0.0690317,20.9463,23.6033,-0.374263,0.0,0.0
3808,951.75,26.1401,27.0323,196.012,101.54,105.564,0.00111831,0.0695202,20.9454,23.323,-0.350632,0.0,0.0
3864,965.75,26.5328,27.4828,188.824,101.198,105.507,0.00081266,0.07018,20.9453,23.0828,-0.376176,0.0,0.0
3920,979.75,26.5268,27.5225,194.311,100.504,105.145,0.000805014,0.0703028,20.9458,22.8426,-0.407254,0.0,0.0
3976,993.75,26.5952,27.3484,196.505,100.161,104.224,0.000833075,0.0705799,20.9437,22.7024,-0.358676,0.0,0.0
4032,1007.75,26.0945,27.2018,195.796,100.552,104.433,0.000785688,0.0706692,20.9442,22.272,-0.34166,0.0,0.0
4088,1021.75,26.6022,27.671,192.234,101.142,105.643,0.000637352,0.0712326,20.9461,22.232,-0.392812,0.0,0.0
4144,1035.75,25.9902,27.3232,197.067,101.457,106.132,0.00111297,0.07177,20.9444,21.7815,-0.406488,0.0,0.0
4200,1049.75,26.3484,27.3351,193.279,101.269,105.404,0.00111032,0.0722157,20.9428,21.6714,-0.361067,0.0,0.0
4256,1063.75,26.5414,27.6193,194.756,100.798,105.04,0.000790974,0.0721726,20.9426,21.4812,-0.371867,0.0,0.0
4312,1077.75,26.5804,27.445,195.952,100.926,105.588,0.000995661,0.0723254,20.945,21.281,-0.40739,0.0,0.0
4368,1091.75,26.1749,27.1159,196.316,100.945,105.327,0.000394666,0.0723178,20.9425,21.0107,-0.383307,0.0,0.0
4424,1105.75,26.4873,27.3854,192.664,100.859,105.805,0.000678326,0.0722771,20.9444,20.6404,-0.431925,0.0,0.0
4480,1119.75,26.7842,27.327,197.325,101.404,106.039,0.00101459,0.0722942,20.9434,20.4802,-0.403165,0.0,0.0
4536,1133.75,26.4449,27.4986,196.049,101.367,105.534,0.00111248,0.0724623,20.9432,20.29,-0.363444,0.0,0.0
4592,1147.75,26.3528,27.347,193.009,100.679,105.226,0.000869717,0.072426,20.9422,20.1599,-0.398489,0.0,0.0
4648,1161.75,26.5038,27.2434,196.936,100.152,105.179,0.00102949,0.0720953,20.9412,19.8396,-0.441779,0.0,0.0
4704,1175.75,26.396,27.4848,191.847,100.433,104.892,0.000620574,0.0727438,20.9413,19.6294,-0.391945,0.0,0.0
4760,1189.75,26.5906,27.7539,195.806,101.1,105.394,0.000706725,0.0727029,20.9422,19.3391,-0.37525,0.0,0.0
4816,1203.75,25.3907,25.5462,191.661,101.471,106.049,0.000754906,0.0734615,20.9394,19.1389,-0.39814,0.0,0.0
4872,1217.75,24.7293,26.2007,193.272,101.164,106.132,0.000884775,0.0738228,20.9391,18.8987,-0.432509,0.0,0.0
4928,1231.75,25.001,25.9707,194.548,100.813,105.824,0.00154055,0.0736023,20.9402,18.6384,-0.437632,0.0,0.0
4984,1245.75,25.0044,26.2668,189.942,100.958,105.515,0.000722758,0.0736715,20.9412,18.4983,-0.398324,0.0,0.0
5040,1259.75,25.1283,26.0659,192.215,100.847,105.835,0.00148385,0.0733541,20.9422,18.2881,-0.435603,0.0,0.0
5096,1273.75,24.9291,25.844,193.471,100.772,105.442,0.000940431,0.073562,20.9419,17.9778,-0.408663,0.0,0.0
5152,1287.75,25.4587,25.7057,195.764,101.196,106.365,0.000799559,0.0738062,20.9415,17.8276,-0.449452,0.0,0.0
5208,1301.75,25.1042,26.0175,196.593,101.481,106.301,0.00102846,0.0735941,20.9377,17.5673,-0.418666,0.0,0.0
5264,1315.75,24.6434,26.0859,193.118,101.375,106.94,,,,17.3672,-0.482091,0.0,0.0
5290,1322.25,25.6273,25.6242,195.745,101.306,106.554,,,,17.0869,-0.45561,0.0,0.0

File: PMMA_Cone_HF15-noSparkScan_210827_R2.csv
Names,Time,Stack TC,Smoke TC,Exh Press,Smoke Comp,Smoke Meas,CO Meter,CO2 Meter,O2 Meter,Sample Mass,Ext Coeff,Start Test,Flame Verif
Chan Gain,,500,500,1,1,1,1,1,1,1,1,1.0,1.0
Offset,,0,0,0.145697,0,0,0,0,0,0,0,0.0,0.0
Gain,,1,1,25.011,13.1742,16.6938,1,1,1,1.00099,1.02845,1.0,1.0
Units,sec,C,C,Pa,%,%,%,%,%,g,/m,,
Baseline,,26.6048,27.5075,194.533,101.376,106.568,0.000864231,0.0567876,20.9646,-507.743,-0.450517,,
56,13.75,24.782,25.6462,196.523,100.612,105.995,0.00072107,0.0564256,20.964,30.9606,-0.470257,0.0,0.0
112,27.75,24.802,25.747,194.485,100.861,106.246,0.00110178,0.0556241,20.9703,30.8705,-0.469242,0.0,0.0
168,41.75,24.8476,25.6155,194.005,101.124,106.036,0.000808351,0.055024,20.9675,30.9305,-0.427906,0.0,0.0
224,55.75,25.0407,26.1107,196.788,101.453,106.621,0.00091248,0.0549049,20.9684,30.9305,-0.44828,0.0,0.0
280,69.75,25.271,26.2783,190.658,101.672,106.456,0.000850974,0.0549979,20.9677,30.9606,-0.414882,0.0,0.0
336,83.75,25.1637,26.0124,194.587,101.756,106.294,0.000800633,0.0546591,20.9686,30.9406,-0.39369,0.0,0.0
392,97.75,24.9818,26.0625,198.194,101.721,106.825,0.000903157,0.0544689,20.9705,30.9305,-0.441691,0.0,0.0
448,111.75,24.7117,25.7987,191.51,101.541,106.332,0.000489372,0.054139,20.97,30.8905,-0.4159,0.0,0.0
504,125.75,25.1934,26.2327,192.445,101.32,106.155,0.000740482,0.0540174,20.97,30.8405,-0.420521,0.0,0.0
560,139.75,25.0901,26.1174,193.542,101.139,106.087,0.000721153,0.0538911,20.9731,30.8204,-0.430884,0.0,0.0
616,153.75,25.2558,26.4675,191.452,101.043,106.242,0.000718591,0.0534057,20.9717,30.8905,-0.45262,0.0,0.0
672,167.75,25.0073,25.8073,190.801,100.968,106.094,0.00118551,0.0532363,20.9677,30.8104,-0.446781,0.0,0.0
728,181.75,25.4745,26.3871,192.872,100.974,105.406,0.000525781,0.05302,20.9704,30.8905,-0.387525,0.0,0.0
784,195.75,25.3053,26.3171,191.218,100.9,105.384,0.000956867,0.0528005,20.9685,30.8405,-0.392255,0.0,0.0
840,209.75,25.0445,26.2625,196.267,100.957,105.485,0.000712704,0.0526531,20.97,30.6603,-0.39587,0.0,0.0
896,223.75,25.3708,26.5337,196.721,101.019,105.423,0.000570979,0.0523446,20.9723,30.8104,-0.384985,0.0,0.0
952,237.75,25.4942,26.6235,193.712,101.005,105.284,0.000562069,0.0525351,20.973,30.6202,-0.374368,0.0,0.0
1008,251.75,25.2677,26.4216,194.416,100.969,105.272,0.000725513,0.0519711,20.9714,30.5702,-0.376481,0.0,0.0
1064,265.75,25.5375,26.5494,192.057,100.945,105.521,0.000549446,0.0519607,20.9719,30.5101,-0.399953,0.0,0.0
1120,279.75,25.5983,26.7062,195.845,101.028,105.611,0.000808346,0.0516511,20.9736,30.5001,-0.400189,0.0,0.0
1176,293.75,25.8326,27.0137,191.815,101.12,105.324,0.000789787,0.0516661,20.9732,30.2799,-0.36748,0.0,0.0
1232,307.75,25.6263,26.6138,195.103,101.129,105.313,0.000900114,0.0514765,20.9748,30.1898,-0.365723,0.0,0.0
1288,321.75,25.6451,26.6585,198.58,101.136,105.332,0.00050217,0.0512639,20.9727,29.9996,-0.366693,0.0,0.0
1344,335.75,25.8519,26.8942,194.635,101.176,105.649,0.000977332,0.0510721,20.9731,30.0196,-0.39025,0.0,0.0
1400,349.75,25.8974,26.9671,194.253,101.213,105.537,0.000735069,0.0511516,20.9759,29.8795,-0.377377,0.0,0.0
1456,363.75,25.8878,26.9788,192.565,101.23,105.426,0.00109692,0.0510291,20.9754,29.7494,-0.366373,0.0,0.0
1512,377.75,25.7111,26.8541,196.318,101.224,105.516,0.000823811,0.0523702,20.9713,29.5592,-0.374659,0.0,0.0
1568,391.75,26.1278,27.269,193.224,101.168,105.108,0.00088924,0.0539023,20.9688,29.329,-0.344684,0.0,0.0
1624,405.75,26.0804,27.118,196.789,101.169,105.007,0.000784759,0.0549738,20.9652,29.1288,-0.335914,0.0,0.0
1680,419.75,26.7594,28.0008,199.254,101.145,105.436,0.000670197,0.0556817,20.9665,28.9186,-0.37488,0.0,0.0
1736,433.75,26.185,27.0821,192.356,101.003,105.252,0.000913935,0.0565271,20.9647,28.8385,-0.371762,0.0,0.0
1792,447.75,26.3573,27.2909,189.265,100.894,105.234,0.00106286,0.0573291,20.9641,28.6983,-0.379926,0.0,0.0
1848,461.75,26.1198,27.0841,195.538,101.063,104.984,0.00080715,0.0580085,20.9639,28.4381,-0.343378,0.0,0.0
1904,475.75,26.0881,27.0021,191.262,101.239,105.63,0.000642059,0.0587158,20.9615,28.2079,-0.383006,0.0,0.0
1960,489.75,25.9605,26.896,199.656,101.449,105.731,0.000954486,0.0594186,20.9592,28.1078,-0.372979,0.0,0.0
2016,503.75,26.5037,27.5745,194.14,101.649,105.87,0.000748417,0.0602368,20.9589,27.8475,-0.367086,0.0,0.0
2072,517.75,26.4884,27.329,192.051,101.738,106.158,0.000917536,0.0607856,20.9588,27.5272,-0.38367,0.0,0.0
2128,531.75,26.432,27.3732,192.718,101.704,106.397,0.000727663,0.0608837,20.9547,27.357,-0.406976,0.0,0.0
2184,545.75,26.5167,27.586,195.758,101.567,105.643,0.000421768,0.0612282,20.9545,27.0667,-0.354993,0.0,0.0
2240,559.75,26.2572,27.3923,194.78,101.327,106.131,0.000936665,0.0618467,20.9542,26.8966,-0.417921,0.0,0.0
2296,573.75,26.4047,27.5869,192.142,100.978,105.422,0.000519446,0.0620408,20.9567,26.5963,-0.388554,0.0,0.0
2352,587.75,26.5279,27.4844,192.627,100.611,105.062,0.000850851,0.0627139,20.9558,26.2159,-0.390504,0.0,0.0
2408,601.75,26.6285,27.6032,190.253,100.381,105.228,0.00096894,0.0632767,20.9526,26.0757,-0.425435,0.0,0.0
2464,615.75,26.823,27.9088,192.18,100.578,104.775,0.000592034,0.0639404,20.9533,25.8055,-0.368754,0.0,0.0
2520,629.75,26.4396,27.5562,193.845,101.154,105.677,0.000598041,0.0638315,20.9524,25.5953,-0.394571,0.0,0.0
2576,643.75,26.7469,27.7582,190.162,101.631,105.753,0.00105704,0.0642571,20.9501,25.335,-0.35863,0.0,0.0
2632,657.75,26.7424,27.4257,192.184,101.653,106.17,0.00114745,0.0648062,20.9516,25.1248,-0.392184,0.0,0.0
2688,671.75,26.3203,27.5069,197.52,101.264,105.776,0.00106854,0.0652774,20.9485,24.9546,-0.393308,0.0,0.0
2744,685.75,26.453,27.5283,194.981,101.045,105.415,0.000767822,0.0655686,20.9499,24.7144,-0.381954,0.0,0.0
2800,699.75,26.4424,27.3942,193.773,101.195,105.588,0.000784348,0.06553,20.9497,24.4041,-0.383388,0.0,0.0
2856,713.75,26.7606,27.726,191.241,101.06,105.142,0.000953152,0.0657757,20.9487,24.274,-0.357183,0.0,0.0
2912,727.75,26.5992,27.3786,192.634,100.901,105.328,0.000854859,0.0658893,20.9508,23.9036,-0.387427,0.0,0.0
2968,741.75,25.7449,27.0571,189.049,101.245,105.749,0.000857884,0.066571,20.9478,23.7034,-0.392724,0.0,0.0
3024,755.75,26.824,27.4965,195.726,101.587,106.629,0.00100355,0.0671142,20.9456,23.3431,-0.437036,0.0,0.0
3080,769.75,27.0553,27.9793,192.891,101.669,106.342,0.000857718,0.0677003,20.9489,23.2229,-0.40542,0.0,0.0
3136,783.75,26.5763,27.7034,194.846,101.303,106.397,0.000999285,0.0678169,20.9467,22.9126,-0.442638,0.0,0.0
3192,797.75,26.595,27.9354,185.539,100.685,105.222,0.000781035,0.0681459,20.9464,22.7725,-0.397671,0.0,0.0
3248,811.75,26.8182,27.7835,194.506,100.383,105.193,0.00103744,0.0681436,20.9459,22.4922,-0.422275,0.0,0.0
3304,825.75,26.6734,27.9879,192.668,100.651,105.358,0.000725165,0.0678153,20.9468,22.2119,-0.412316,0.0,0.0
3360,839.75,27.263,28.0482,194.633,101.192,105.837,0.000854162,0.0681012,20.9459,22.0217,-0.40489,0.0,0.0
3416,853.75,26.7635,27.3568,191.371,101.656,106.276,0.0011797,0.0686161,20.9434,21.7415,-0.400977,0.0,0.0
3472,867.75,26.304,27.3596,192.886,101.668,106.432,0.000877249,0.0689348,20.9427,21.5413,-0.413123,0.0,0.0
3528,881.75,26.5127,27.6291,194.635,101.328,106.574,0.000813303,0.0696384,20.9417,21.221,-0.455367,0.0,0.0
3584,895.75,27.0735,28.0752,193.927,100.97,105.652,0.000886183,0.0696666,20.9392,21.0908,-0.408956,0.0,0.0
3640,909.75,26.4652,27.0495,193.505,101.157,106.092,0.00111795,0.0697886,20.9423,20.8106,-0.42974,0.0,0.0
3696,923.75,26.586,27.495,197.645,101.174,106.409,0.000898795,0.0699992,20.9404,20.4802,-0.455139,0.0,0.0
3752,937.75,26.7012,27.3082,191.963,101.098,105.789,0.00127207,0.0702812,20.9374,20.4001,-0.409119,0.0,0.0
3808,951.75,26.7348,27.7352,194.97,100.787,105.725,0.000940943,0.0700348,20.9412,20.0198,-0.431498,0.0,0.0
3864,965.75,26.4732,27.2496,194.714,101.094,106.293,0.00115574,0.0703635,20.9413,19.8997,-0.452466,0.0,0.0
3920,979.75,27.3725,28.0189,193.96,101.526,106.898,0.00104479,0.0705961,20.9379,19.7295,-0.465159,0.0,0.0
3976,993.75,26.807,28.1199,195.389,101.662,106.971,0.000950189,0.0706349,20.9374,19.3591,-0.459231,0.0,0.0
4032,1007.75,26.8403,27.7339,188.688,101.346,106.399,0.00079579,0.0712479,20.9391,19.1389,-0.438909,0.0,0.0
4088,1021.75,27.0565,27.5582,191.951,100.798,105.791,0.00100614,0.0714061,20.9382,18.7785,-0.43614,0.0,0.0
4144,1035.75,27.0342,27.7524,188.989,100.394,105.619,0.000808344,0.0713835,20.9363,18.7785,-0.45768,0.0,0.0
4200,1049.75,26.3976,27.3859,197.076,100.467,105.57,0.000924361,0.071499,20.9372,18.4782,-0.446958,0.0,0.0
4256,1063.75,26.5875,27.6566,192.82,101.081,106.063,0.000941784,0.0714323,20.9386,18.1279,-0.43397,0.0,0.0
4312,1077.75,26.9071,27.8768,198.38,101.613,106.806,0.000909492,0.0712506,20.9389,17.9177,-0.449739,0.0,0.0
4368,1091.75,26.6984,27.6607,192.958,101.705,107.018,0.000965751,0.0716747,20.9374,17.8476,-0.459416,0.0,0.0
4424,1105.75,26.2114,28.008,193.498,101.522,107.195,0.0010057,0.0719795,20.936,17.4873,-0.490583,0.0,0.0
4480,1119.75,26.7783,27.9098,194.482,101.166,106.709,0.000952763,0.0718426,20.9366,17.3071,-0.481225,0.0,0.0
4536,1133.75,26.525,27.5758,193.666,101.143,106.464,0.00118143,0.0719862,20.9385,17.0368,-0.462556,0.0,0.0
4592,1147.75,27.0593,27.6738,189.605,101.194,107.039,0.000903822,0.0721543,20.9373,16.8767,-0.506611,0.0,0.0
4648,1161.75,26.8496,27.9078,195.199,101.05,106.68,0.00122295,0.0723932,20.936,16.6264,-0.489137,0.0,0.0
4704,1175.75,26.7734,27.9719,195.849,100.883,106.13,0.001011,0.0727671,20.9367,16.4262,-0.457474,0.0,0.0
4760,1189.75,27.0034,27.6012,197.016,101.289,107.04,0.000909082,0.0726217,20.9381,16.156,-0.49825,0.0,0.0
4816,1203.75,25.0301,25.9605,191.144,101.598,107.285,0.00105499,0.0720036,20.939,15.8657,-0.491384,0.0,0.0
4872,1217.75,25.6247,26.2605,190.403,101.695,107.43,0.000907847,0.0725141,20.9383,15.6555,-0.494978,0.0,0.0
4928,1231.75,25.865,26.6944,193.168,101.579,107.149,0.00104118,0.0725915,20.9389,15.3652,-0.481652,0.0,0.0
4984,1245.75,25.5546,26.2089,197.025,101.256,106.803,0.00111712,0.0727286,20.9387,15.215,-0.481234,0.0,0.0
5040,1259.75,24.8868,25.7443,189.961,100.901,106.577,0.000984029,0.0726171,20.9411,14.9548,-0.493713,0.0,0.0
5096,1273.75,25.4206,25.9957,196.012,100.599,106.226,0.000988566,0.073384,20.9375,14.6445,-0.491032,0.0,0.0
5152,1287.75,25.4065,26.4634,194.662,100.448,106.503,0.00112543,0.0728678,20.9373,14.4543,-0.528068,0.0,0.0
5208,1301.75,25.9672,26.9444,193.992,100.537,105.846,0.00100261,0.0736547,20.9363,14.184,-0.464171,0.0,0.0
5264,1315.75,25.429,26.6169,190.253,100.888,106.519,,,,13.9738,-0.489953,0.0,0.0
5285,1321,25.4007,26.6709,192.363,101.037,107.023,,,,13.8337,-0.519312,0.0,0.0