Folder: fsri_materials_database/01_Data/PMMA/MCC

Note: 01_Data/README.md
# Materials and Products Database
## 01_Data

Raw data generated from each apparatus are included here in plain-text format. The data is organized first by material, next by the short name of test apparatus used, and where applicable additional filtering by test settings.

### material.json

Each material directory contains a json file of the same name as the material. This file links the data stored in the repository as well as data and graphs produced by the accompanying scripts (__02_Scripts__) to the respective landing page for the material on the front-end website.

File: PMMA_MCC_30K_min_210920_R2.txt
Sample ID:	C:\MCC\PMMA_MCC_30K_min_210920_R2.txt
Sample Weight (mg):	4.76
Heating Rate (C/s):	0.5
Combustor Temp (C):	900
N2 Flow Rate (cc/min):	80
O2 Flow Rate (cc/min):	20
Calibration File:	C:\MCC\MCC Cal\Coeff1 JN10440_30_210304.txt.txt
T Correction Coefficients:	0	1.024463	0
Time Shift (s):	14
*
Time (s)	Temperature (C)	N2 flow rate (cc/min)	O2 flow rate (cc/min)	Flow Rate (cc/min)	Oxygen (%)	HRR (W/g)	Heating rate (C/s)
0.000	108.968	79.994	19.994	99.959	20.325	-0.211	-0.019
8.000	108.966	79.995	19.994	99.959	20.327	-0.284	0.005
15.999	108.988	79.996	19.993	100.006	20.315	0.451	-0.006
23.999	109.245	79.995	19.994	100.150	20.293	1.907	0.083
32.000	110.061	79.997	19.993	100.174	20.283	2.560	0.123
39.999	111.333	79.998	19.993	100.184	20.285	2.464	0.171
47.999	112.930	79.996	19.994	100.154	20.280	2.785	0.220
55.999	114.777	79.996	19.994	100.203	20.277	2.998	0.268
63.999	116.953	79.996	19.994	100.220	20.270	3.420	0.282
71.999	119.447	79.997	19.995	100.213	20.268	3.577	0.303
79.999	122.196	79.996	19.996	100.217	20.261	3.993	0.372
87.999	125.200	79.995	19.996	100.226	20.260	4.104	0.387
95.999	128.387	79.999	19.994	100.233	20.251	4.703	0.448
103.999	131.720	79.998	19.994	100.234	20.241	5.363	0.442
112.000	135.197	79.996	19.994	100.235	20.234	5.809	0.444
120.000	138.797	79.998	19.994	100.254	20.223	6.529	0.440
128.000	142.604	79.996	19.993	100.243	20.210	7.382	0.490
135.999	146.466	79.995	19.994	100.239	20.196	8.268	0.467
143.999	150.451	79.997	19.994	100.242	20.180	9.334	0.531
151.999	154.417	79.995	19.995	100.239	20.165	10.358	0.516
159.999	158.443	79.995	19.994	100.236	20.151	11.219	0.519
167.999	162.460	79.994	19.994	100.237	20.139	12.005	0.479
175.999	166.578	79.996	19.995	100.237	20.129	12.714	0.508
183.999	170.609	79.997	19.993	100.233	20.125	12.952	0.516
191.999	174.620	79.997	19.994	100.228	20.123	13.067	0.488
199.999	178.647	79.998	19.995	100.199	20.133	12.427	0.525
207.999	182.669	79.997	19.995	100.209	20.133	12.430	0.500
215.999	186.693	79.997	19.994	100.194	20.140	11.994	0.498
223.999	190.683	79.995	19.993	100.207	20.147	11.525	0.499
231.999	194.597	79.996	19.994	100.201	20.152	11.195	0.479
239.999	198.597	79.997	19.995	100.200	20.146	11.585	0.454
247.999	202.529	79.996	19.994	100.196	20.145	11.636	0.496
255.999	206.482	79.998	19.994	100.197	20.140	11.934	0.521
263.999	210.520	79.997	19.996	100.198	20.134	12.346	0.516
271.999	214.449	79.994	19.996	100.197	20.128	12.731	0.495
279.999	218.385	79.998	19.994	100.193	20.126	12.880	0.515
287.999	222.376	79.997	19.993	100.196	20.124	13.022	0.500
295.999	226.353	79.996	19.994	100.194	20.118	13.434	0.520
304.000	230.279	79.995	19.994	100.195	20.121	13.200	0.467
311.999	234.259	79.997	19.993	100.194	20.129	12.710	0.526
319.999	238.258	79.996	19.993	100.192	20.150	11.303	0.503
327.999	242.217	79.994	19.995	100.183	20.172	9.851	0.503
335.999	246.228	79.996	19.995	100.176	20.184	9.094	0.489
344.000	250.318	79.997	19.994	100.177	20.183	9.129	0.535
351.999	254.312	79.996	19.995	100.188	20.170	9.966	0.490
359.999	258.316	79.996	19.994	100.191	20.144	11.714	0.533
367.999	262.286	79.998	19.994	100.198	20.105	14.248	0.475
376.000	266.287	79.996	19.993	100.195	20.054	17.600	0.508
383.999	270.268	79.995	19.994	100.217	20.000	21.187	0.509
391.999	274.083	79.996	19.993	100.221	19.936	25.353	0.327
400.000	278.363	79.996	19.995	100.228	19.879	29.087	0.528
408.000	282.329	79.996	19.994	100.229	19.814	33.406	0.507
415.999	286.285	79.995	19.994	100.235	19.762	36.819	0.463
423.999	290.354	79.996	19.994	100.234	19.705	40.581	0.541
432.000	294.273	79.994	19.995	100.228	19.678	42.350	0.509
439.999	298.260	79.996	19.995	100.224	19.669	42.875	0.470
447.999	302.212	79.998	19.995	100.200	19.705	40.525	0.478
456.000	306.242	79.996	19.995	100.186	19.780	35.597	0.522
463.999	310.264	79.995	19.994	100.214	19.818	33.089	0.501
471.999	314.351	79.995	19.994	100.189	19.851	30.980	0.526
479.999	318.353	79.995	19.994	100.215	19.872	29.573	0.472
488.000	322.441	79.996	19.995	100.207	19.830	32.334	0.489
495.999	326.503	79.996	19.995	100.235	19.761	36.878	0.499
503.999	330.502	79.997	19.993	100.234	19.682	42.069	0.500
511.999	334.492	79.996	19.996	100.252	19.572	49.292	0.519
520.000	338.484	79.997	19.995	100.305	19.420	59.320	0.469
527.999	342.509	79.999	19.994	100.334	19.236	71.520	0.497
535.999	346.446	79.997	19.996	100.268	19.124	78.673	0.516
544.000	350.381	79.996	19.996	100.227	18.862	95.990	0.482
551.999	354.507	79.997	19.995	100.370	18.742	103.927	0.525
560.000	358.543	79.997	19.993	100.320	18.554	116.417	0.503
567.999	362.564	79.994	19.994	100.528	18.329	131.099	0.481
576.000	366.655	79.998	19.995	100.387	18.142	143.465	0.509
583.999	370.694	79.998	19.994	100.435	17.983	153.942	0.503
591.999	374.754	79.998	19.994	100.415	17.851	162.577	0.486
600.000	378.726	79.997	19.995	100.388	17.776	167.459	0.501
608.000	382.744	79.998	19.993	100.371	17.786	166.750	0.499
615.999	386.764	79.997	19.995	100.339	17.886	160.197	0.499
624.000	390.788	79.994	19.995	100.307	18.070	147.996	0.508
631.999	394.835	79.994	19.995	100.269	18.316	131.769	0.461
639.999	398.905	79.996	19.996	100.230	18.623	111.562	0.512
647.999	402.971	79.996	19.995	100.182	18.947	90.309	0.498
656.000	407.001	79.996	19.995	100.165	19.258	69.854	0.484
663.999	411.037	79.997	19.995	100.151	19.539	51.405	0.482
671.999	415.045	79.998	19.994	100.141	19.771	36.196	0.502
680.000	419.118	79.998	19.994	100.147	19.934	25.459	0.503
688.000	423.105	80.000	19.996	100.150	20.053	17.675	0.521
696.000	427.082	79.997	19.993	100.134	20.132	12.455	0.487
703.999	431.036	79.996	19.995	100.132	20.183	9.146	0.495
711.999	435.085	79.998	19.996	100.146	20.222	6.580	0.520
719.999	439.027	79.995	19.995	100.143	20.240	5.421	0.493
727.999	442.988	79.996	19.996	100.140	20.263	3.886	0.452
736.000	447.088	79.996	19.994	100.153	20.274	3.194	0.520
743.999	451.225	79.997	19.994	100.153	20.277	2.936	0.530
751.999	455.353	79.997	19.994	100.143	20.281	2.689	0.529
759.999	459.468	79.997	19.994	100.143	20.281	2.703	0.530
768.000	463.607	80.000	19.994	100.147	20.285	2.465	0.519
775.999	467.691	79.999	19.994	100.133	20.286	2.374	0.522
784.000	471.788	79.997	19.996	100.150	20.285	2.463	0.511
792.000	475.865	79.997	19.996	100.147	20.279	2.825	0.481
799.999	480.000	79.999	19.996	100.151	20.288	2.248	0.520
807.999	484.036	79.994	19.994	100.146	20.284	2.485	0.524
815.999	488.167	79.994	19.995	100.151	20.282	2.651	0.514
823.999	492.298	79.996	19.996	100.148	20.285	2.470	0.523
831.999	496.504	80.000	19.995	100.140	20.285	2.465	0.540
839.999	500.648	79.998	19.995	100.145	20.285	2.436	0.498
848.000	504.742	79.998	19.995	100.151	20.287	2.281	0.522
855.999	508.853	80.000	19.995	100.150	20.292	1.983	0.539
864.000	512.944	79.996	19.994	100.151	20.290	2.121	0.505
871.999	517.079	79.995	19.994	100.145	20.287	2.322	0.529
880.000	521.170	79.995	19.996	100.155	20.283	2.560	0.493
887.999	525.288	79.992	19.994	100.155	20.284	2.492	0.503
895.999	529.410	79.996	19.995	100.153	20.283	2.554	0.505
903.999	533.539	79.996	19.995	100.148	20.282	2.615	0.530
911.999	537.672	79.998	19.995	100.150	20.283	2.551	0.534
920.000	541.767	79.997	19.994	100.154	20.280	2.775	0.492
928.000	545.883	79.996	19.993	100.158	20.278	2.905	0.538
936.000	549.966	79.999	19.994	100.156	20.279	2.809	0.513
944.000	554.028	79.998	19.995	100.157	20.277	2.938	0.520
951.999	558.164	79.995	19.993	100.165	20.274	3.142	0.514
959.999	562.245	79.996	19.994	100.162	20.278	2.877	0.500
967.999	566.229	79.996	19.993	100.156	20.281	2.734	0.514
975.999	570.334	79.995	19.995	100.163	20.277	2.985	0.537
983.999	574.413	79.996	19.994	100.166	20.279	2.864	0.519
992.000	578.479	79.999	19.995	100.179	20.274	3.167	0.504
999.999	582.493	79.997	19.995	100.181	20.275	3.111	0.481
1008.000	586.573	79.996	19.994	100.177	20.277	2.956	0.514
1015.999	590.640	80.000	19.993	100.187	20.275	3.098	0.522
1024.000	594.703	79.999	19.994	100.185	20.275	3.123	0.512
1031.999	598.817	79.996	19.994	100.177	20.274	3.179	0.531
1039.999	602.883	79.998	19.996	100.191	20.273	3.225	0.508
1047.999	606.974	79.999	19.995	100.188	20.275	3.111	0.499
1055.999	611.056	79.996	19.994	100.196	20.274	3.168	0.499
1063.999	615.158	79.996	19.994	100.195	20.273	3.231	0.535
1071.999	619.183	79.999	19.995	100.193	20.269	3.510	0.530
1079.999	623.179	79.997	19.994	100.196	20.267	3.605	0.470
1087.999	627.279	79.998	19.996	100.197	20.272	3.324	0.511
1095.999	631.314	79.998	19.994	100.192	20.273	3.200	0.479
1103.999	635.361	79.998	19.993	100.189	20.269	3.463	0.483
1112.001	639.417	79.997	19.994	100.192	20.269	3.492	0.494
1119.999	643.515	79.997	19.994	100.209	20.269	3.474	0.494
1128.000	647.565	79.997	19.993	100.197	20.268	3.541	0.517
1135.999	651.627	79.997	19.994	100.209	20.267	3.602	0.509
1143.999	655.699	79.996	19.994	100.200	20.272	3.310	0.551
1151.999	659.784	79.997	19.995	100.203	20.267	3.645	0.522
1159.999	663.846	79.998	19.994	100.196	20.267	3.645	0.524
1167.999	667.889	79.997	19.994	100.199	20.263	3.856	0.499
1176.000	672.033	79.998	19.996	100.201	20.268	3.587	0.536
1183.999	676.148	79.998	19.996	100.221	20.268	3.566	0.535
1192.000	680.226	79.996	19.995	100.218	20.269	3.461	0.484
1200.000	684.264	79.998	19.995	100.229	20.269	3.511	0.491
1207.999	688.276	79.996	19.994	100.211	20.265	3.749	0.541
1215.999	692.331	79.995	19.994	100.212	20.265	3.762	0.515
1223.999	696.356	79.997	19.995	100.204	20.269	3.515	0.517
1231.999	700.438	79.998	19.994	100.207	20.262	3.957	0.489
1240.000	704.465	79.999	19.995	100.216	20.259	4.176	0.504
1247.999	708.472	79.996	19.995	100.224	20.263	3.876	0.482
1255.999	712.558	79.997	19.995	100.208	20.258	4.188	0.525
1263.999	716.648	79.997	19.995	100.216	20.258	4.190	0.496
1271.999	720.731	79.997	19.995	100.220	20.261	4.000	0.501
1280.001	724.856	79.995	19.995	100.228	20.262	3.922	0.524
1287.999	728.942	79.997	19.995	100.225	20.263	3.916	0.486
1295.999	733.031	79.997	19.994	100.231	20.265	3.728	0.492
1303.999	737.121	79.997	19.995	100.231	20.263	3.889	0.496
1311.999	741.161	79.998	19.995	100.228	20.257	4.259	0.509
1316.999	743.671	79.999	19.994	100.226	20.262	3.968	0.494