Folder: fsri_materials_database/01_Data/Basswood_Panel/STA/N2/10K_min (part 2)

File: Basswood_STA_N2_10KData_220315_R3.csv
##Temp./Â°C,Time/min,Mass loss(subtr.)/mg,DSC(subtr.)/(mW/mg),Sensit./(uV/mW)
49.591,10.01,-0.03487,0.01447754,1.07521
52.591,11.27684,-0.03796176,0.13037,1.07365
55.591,11.70905,-0.03694561,0.18501,1.07209
58.591,12.0762,-0.03864124,0.21899,1.07053
61.591,12.41906,-0.03907305,0.24035,1.06897
64.591,12.75079,-0.04037344,0.25617,1.06741
67.591,13.07512,-0.04166965,0.27064,1.06585
70.591,13.3955,-0.04167324,0.28142,1.0643
73.591,13.7129,-0.0433152,0.29317,1.06275
76.591,14.0268,-0.04561982,0.3028,1.06119
79.591,14.33814,-0.04694504,0.31231,1.05964
82.591,14.6474,-0.04912475,0.31804,1.05809
85.591,14.9525,-0.04956994,0.32295,1.05655
88.591,15.25544,-0.0512133,0.32697,1.055
91.591,15.5567,-0.05240538,0.32725,1.05346
94.591,15.8561,-0.05355259,0.32491,1.05191
97.591,16.15403,-0.05549188,0.3232,1.05037
100.591,16.45064,-0.05483428,0.32123,1.04883
103.591,16.74599,-0.05685642,0.32168,1.04729
106.591,17.04117,-0.05704088,0.32164,1.04575
109.591,17.3357,-0.06071859,0.32324,1.04422
112.591,17.62872,-0.0594391,0.32458,1.04268
115.591,17.92296,-0.06138429,0.32388,1.04115
118.591,18.21544,-0.06202493,0.32844,1.03962
121.591,18.50747,-0.06207027,0.33074,1.03808
124.591,18.79864,-0.06043292,0.33538,1.03655
127.591,19.09064,-0.06338555,0.33561,1.03503
130.591,19.38195,-0.06189289,0.34023,1.0335
133.591,19.67315,-0.06306,0.34349,1.03197
136.591,19.96419,-0.06438346,0.3465,1.03045
139.591,20.25521,-0.06709611,0.35047,1.02892
142.591,20.54521,-0.06733988,0.35639,1.0274
145.591,20.834,-0.06798073,0.35908,1.02588
148.591,21.12319,-0.06833,0.36218,1.02436
151.591,21.4117,-0.06963829,0.36815,1.02284
154.591,21.6999,-0.06964,0.37162,1.02132
157.591,21.98819,-0.07162313,0.37631,1.0198
160.591,22.27604,-0.07293009,0.37726,1.01828
163.591,22.56515,-0.07326,0.37931,1.01677
166.591,22.85363,-0.07458,0.38288,1.01525
169.591,23.1413,-0.07687999,0.38479,1.01374
172.591,23.43,-0.07721,0.39072,1.01222
175.591,23.7178,-0.07884623,0.39387,1.01071
178.591,24.00475,-0.07984,0.39583,1.00919
181.591,24.29187,-0.0837967,0.39934,1.00768
184.591,24.5788,-0.08379,0.40327,1.00617
187.591,24.86509,-0.08642938,0.40794,1.00466
190.591,25.1521,-0.08775,0.41319,1.00315
193.591,25.4388,-0.09037,0.41856,1.00163
196.591,25.72557,-0.0928677,0.42711,1.00012
199.591,26.01274,-0.09666953,0.43096,0.99861
202.591,26.2998,-0.09826597,0.43636,0.9971
205.591,26.586,-0.10189,0.44162,0.99559
208.591,26.87337,-0.10616,0.44782,0.99408
211.591,27.15962,-0.10881,0.45384,0.99256
214.591,27.44517,-0.11429,0.46189,0.99105
217.591,27.73105,-0.11933,0.46571,0.98954
220.591,28.0162,-0.12533,0.46855,0.98803
223.591,28.30312,-0.13052,0.46667,0.98652
226.591,28.5897,-0.13644,0.46519,0.985
229.591,28.8767,-0.14458,0.46332,0.98349
232.591,29.1635,-0.15099,0.45994,0.98197
235.591,29.44994,-0.15946,0.45904,0.98046
238.591,29.73651,-0.1678,0.46038,0.97894
241.591,30.02327,-0.17552,0.46439,0.97743
244.591,30.3086,-0.18537,0.46007,0.97591
247.591,30.59597,-0.19611,0.46294,0.97439
250.591,30.88175,-0.20607,0.46338,0.97287
253.591,31.1681,-0.21881,0.46717,0.97135
256.591,31.45433,-0.23033,0.47145,0.96982
259.591,31.74057,-0.24546,0.47535,0.9683
262.591,32.0265,-0.26121,0.47818,0.96677
265.591,32.31165,-0.27807,0.48111,0.96525
268.591,32.5972,-0.29971,0.48432,0.96372
271.591,32.88329,-0.32198,0.48323,0.96219
274.591,33.16946,-0.35004,0.48157,0.96066
277.591,33.4564,-0.3792,0.48082,0.95912
280.591,33.7442,-0.41237,0.47855,0.95759
283.591,34.03079,-0.45034,0.47533,0.95605
286.591,34.31766,-0.49189,0.47187,0.95451
289.591,34.60484,-0.53763,0.46465,0.95297
292.591,34.89165,-0.58747,0.45915,0.95142
295.591,35.17876,-0.63832,0.45362,0.94988
298.591,35.46658,-0.69207,0.4475,0.94833
301.591,35.75548,-0.74832,0.44413,0.94678
304.591,36.04359,-0.8038,0.4461,0.94522
307.591,36.33129,-0.86194,0.45189,0.94366
310.591,36.62017,-0.91953,0.45673,0.9421
313.591,36.908,-0.97553,0.46653,0.94054
316.591,37.1963,-1.03306,0.48066,0.93898
319.591,37.48519,-1.09238,0.48949,0.93741
322.591,37.77476,-1.15319,0.50697,0.93583
325.591,38.06397,-1.21593,0.52563,0.93426
328.591,38.35337,-1.2812,0.54636,0.93268
331.591,38.6428,-1.34887,0.56899,0.9311
334.591,38.93359,-1.4214,0.5927,0.92951
337.591,39.22429,-1.49892,0.61733,0.92792
340.591,39.51455,-1.58397,0.64833,0.92633
343.591,39.80538,-1.67261,0.67782,0.92473
346.591,40.09629,-1.77279,0.70718,0.92313
349.591,40.3872,-1.87826,0.73799,0.92153
352.591,40.6779,-1.99248,0.76267,0.91992
355.591,40.96824,-2.11323,0.78231,0.91831
358.591,41.25893,-2.24104,0.7818,0.91669
361.591,41.55022,-2.36899,0.76229,0.91507
364.591,41.8412,-2.49524,0.71948,0.91344
367.591,42.1317,-2.6144,0.64354,0.91181
370.591,42.4217,-2.7159,0.54039,0.91018
373.591,42.7108,-2.79532,0.42016,0.90854
376.591,43.0005,-2.85408,0.30354,0.90689
379.591,43.29036,-2.8899,0.21785,0.90524
382.591,43.5815,-2.91232,0.17012,0.90359
385.591,43.8731,-2.9289,0.14529,0.90193
388.591,44.16487,-2.94311,0.13103,0.90027
391.591,44.45643,-2.95458,0.12169,0.8986
394.591,44.74814,-2.96393,0.11316,0.89692
397.591,45.03976,-2.97567,0.10305,0.89524
400.591,45.33187,-2.98536,0.10177,0.89356
403.591,45.62505,-2.99506,0.09288606,0.89187
406.591,45.9185,-3.00437,0.08846749,0.89017
409.591,46.21196,-3.01598,0.08803466,0.88847
412.591,46.5051,-3.02463,0.08386926,0.88676
415.591,46.79787,-3.03422,0.08631215,0.88505
418.591,47.09016,-3.04127,0.08530025,0.88333
421.591,47.38328,-3.04952,0.08346052,0.8816
424.591,47.67627,-3.05735,0.08259572,0.87987
427.591,47.97047,-3.06726,0.091062,0.87813
430.591,48.26597,-3.07395,0.09125278,0.87639
433.591,48.56126,-3.08211,0.09406632,0.87464
436.591,48.85633,-3.08867,0.09860218,0.87288
439.591,49.15185,-3.09666,0.10383,0.87112
442.591,49.44618,-3.10198,0.10866,0.86935
445.591,49.7412,-3.10957,0.11514,0.86758
448.591,50.0353,-3.11655,0.11768,0.86579
451.591,50.329,-3.12115,0.12592,0.864
454.591,50.62338,-3.12633,0.12963,0.86221
457.591,50.91933,-3.1323,0.12984,0.86041
460.591,51.2153,-3.13888,0.1315,0.8586
463.591,51.51192,-3.14221,0.13695,0.85678
466.591,51.80915,-3.14678,0.13568,0.85496
469.591,52.10603,-3.15227,0.14107,0.85313
472.591,52.4026,-3.15632,0.14266,0.85129
475.591,52.6987,-3.16093,0.14961,0.84944
478.591,52.99584,-3.16389,0.14624,0.84759
481.591,53.2926,-3.16789,0.14917,0.84573
484.591,53.58875,-3.17284,0.14904,0.84386
487.591,53.8861,-3.17536,0.1523,0.84199
490.591,54.1829,-3.17804,0.15826,0.84011
493.591,54.47903,-3.18265,0.17968,0.83822
496.591,54.77476,-3.18528,0.18905,0.83632
499.591,55.0712,-3.18799,0.19687,0.83442
502.591,55.3675,-3.19185,0.1995,0.83251
505.591,55.66405,-3.19449,0.20374,0.83059
508.591,55.96139,-3.19713,0.2075,0.82866
511.591,56.25792,-3.19987,0.21506,0.82672
514.591,56.5545,-3.2037,0.21604,0.82478
517.591,56.8516,-3.20503,0.21335,0.82283
520.591,57.14937,-3.20864,0.21066,0.82087
523.591,57.4477,-3.20996,0.18609,0.81891
526.591,57.74652,-3.21391,0.16808,0.81693
529.591,58.04543,-3.21523,0.15784,0.81495
532.591,58.34421,-3.21851,0.15474,0.81296
535.591,58.6428,-3.21985,0.1526,0.81096
538.591,58.94248,-3.2234,0.14989,0.80895
541.591,59.2415,-3.22575,0.14114,0.80694
544.591,59.53995,-3.22707,0.12416,0.80491
547.591,59.83877,-3.2307,0.12009,0.80288
550.591,60.138,-3.23069,0.11543,0.80084
553.591,60.43694,-3.23332,0.10716,0.79879
556.591,60.7368,-3.23595,0.10271,0.79674
559.591,61.03651,-3.23727,0.09749929,0.79467
562.591,61.33549,-3.23958,0.09403544,0.7926
565.591,61.6355,-3.24089,0.09157764,0.79052
568.591,61.9356,-3.24286,0.09177515,0.78843
571.591,62.23645,-3.24418,0.09036258,0.78633
574.591,62.5367,-3.24648,0.0915404,0.78423
577.591,62.8373,-3.24881,0.08702612,0.78211
580.591,63.13711,-3.25011,0.09111922,0.77999
583.591,63.43809,-3.25405,0.09057908,0.77786
586.591,63.73871,-3.25405,0.09478453,0.77572
589.591,64.03886,-3.25668,0.09512808,0.77357
592.591,64.34071,-3.258,0.09690967,0.77142
595.591,64.64202,-3.25966,0.10061,0.76925
598.591,64.94315,-3.26094,0.10381,0.76708
601.591,65.24383,-3.26227,0.10364,0.7649
604.591,65.54516,-3.26359,0.10984,0.76271
607.591,65.84558,-3.26492,0.1122,0.76051
610.591,66.14601,-3.26589,0.11564,0.7583
613.591,66.4465,-3.26747,0.11958,0.75609
616.591,66.74805,-3.26918,0.1277,0.75386
619.591,67.0504,-3.26952,0.13245,0.75163
622.591,67.3528,-3.2725,0.13483,0.74939
625.591,67.65527,-3.27214,0.13896,0.74714
628.591,67.95711,-3.27375,0.14288,0.74489
631.591,68.25904,-3.27471,0.14749,0.74262
634.591,68.56002,-3.27741,0.15212,0.74035
637.591,68.86116,-3.27798,0.16159,0.73807
640.591,69.16211,-3.27873,0.16761,0.73578
643.591,69.46319,-3.28272,0.1765,0.73348
646.591,69.765,-3.28136,0.18284,0.73118
649.591,70.06658,-3.28203,0.18839,0.72886
652.591,70.36975,-3.28498,0.19623,0.72654
655.591,70.67198,-3.28532,0.1982,0.72421
658.591,70.97471,-3.28696,0.19801,0.72187
661.591,71.27724,-3.28827,0.19614,0.71953
664.591,71.57943,-3.28762,0.19937,0.71717
667.591,71.88195,-3.28728,0.20072,0.71481
670.591,72.18467,-3.28855,0.20224,0.71244
673.591,72.4876,-3.29106,0.20037,0.71006
676.591,72.7904,-3.29288,0.20374,0.70768
679.591,73.09308,-3.29091,0.20005,0.70528
682.591,73.3962,-3.29287,0.20679,0.70288
685.591,73.69922,-3.29352,0.20598,0.70047
688.591,74.00227,-3.29354,0.20926,0.69806
691.591,74.30504,-3.29558,0.20925,0.69563
694.591,74.60701,-3.29617,0.211,0.6932
697.591,74.9085,-3.29751,0.2144,0.69076
700.591,75.21085,-3.2988,0.21901,0.68832
703.591,75.51493,-3.29847,0.21917,0.68586
706.591,75.8189,-3.30109,0.21658,0.6834
709.591,76.12266,-3.3012,0.21758,0.68093
712.591,76.4269,-3.29979,0.21541,0.67846
715.591,76.7303,-3.30243,0.21463,0.67598
718.591,77.03361,-3.30242,0.21203,0.67349
721.591,77.337,-3.30373,0.21448,0.67099
724.591,77.64064,-3.30538,0.2096,0.66849
727.591,77.94474,-3.30435,0.21183,0.66598
730.591,78.25024,-3.30539,0.20937,0.66346
733.591,78.55594,-3.30604,0.20599,0.66094
736.591,78.8623,-3.30736,0.20496,0.6584
739.591,79.1678,-3.30901,0.19914,0.65587
742.591,79.47363,-3.30801,0.19687,0.65332
745.591,79.77917,-3.31065,0.19623,0.65077
747.691,79.9926,-3.31065,0.19431,0.64899