Folder: fsri_materials_database/01_Data/Basswood_Panel/STA/N2/10K_min

Note: 01_Data/README.md
# Materials and Products Database
## 01_Data

Raw data generated from each apparatus are included here in plain-text format. The data is organized first by material, next by the short name of test apparatus used, and where applicable additional filtering by test settings.

### material.json

Each material directory contains a json file of the same name as the material. This file links the data stored in the repository as well as data and graphs produced by the accompanying scripts (__02_Scripts__) to the respective landing page for the material on the front-end website.

File: Basswood_STA_N2_10KData_220314_R1.csv
##Temp./Â°C,Time/min,Mass loss(subtr.)/mg,DSC(subtr.)/(mW/mg),Sensit./(uV/mW)
49.758,10.01,0.00943,0.01574995,1.07513
52.758,11.28072,0.00971934,0.13233,1.07356
55.758,11.71393,0.01053216,0.18704,1.072
58.758,12.0824,0.0119634,0.22096,1.07044
61.758,12.42489,0.0109716,0.24359,1.06888
64.758,12.75715,0.01046314,0.25926,1.06732
67.758,13.08169,0.01051938,0.27152,1.06577
70.758,13.4042,0.010508,0.28556,1.06421
73.758,13.72124,0.009230383,0.29408,1.06266
76.758,14.035,0.01006111,0.30632,1.06111
79.758,14.3462,0.009210611,0.3123,1.05956
82.758,14.655,0.009257638,0.32108,1.05801
85.758,14.96055,0.007888695,0.32231,1.05646
88.758,15.26418,0.00657083,0.32462,1.05491
91.758,15.56424,0.00525625,0.32596,1.05337
94.758,15.8631,0.00539944,0.32655,1.05183
97.758,16.1605,0.00527629,0.3227,1.05028
100.758,16.45606,0.006620781,0.32211,1.04874
103.758,16.7506,0.00525159,0.32298,1.0472
106.758,17.04464,0.005975355,0.32225,1.04567
109.758,17.3379,0.00525429,0.32273,1.04413
112.758,17.6313,0.004530488,0.32501,1.0426
115.758,17.92442,0.005203773,0.32714,1.04106
118.758,18.21671,0.005277049,0.3318,1.03953
121.758,18.50972,0.005250325,0.3336,1.038
124.758,18.80152,0.004914936,0.33918,1.03647
127.758,19.093,0.00622034,0.34247,1.03494
130.758,19.38334,0.004926376,0.34878,1.03341
133.758,19.67374,0.004271179,0.34913,1.03189
136.758,19.96487,0.00360315,0.35456,1.03036
139.758,20.25562,0.003603549,0.35652,1.02884
142.758,20.54573,0.004583983,0.36079,1.02732
145.758,20.83496,0.00492999,0.36474,1.02579
148.758,21.12472,0.00362167,0.36828,1.02427
151.758,21.4137,0.00295964,0.37173,1.02275
154.758,21.70228,0.00222629,0.37686,1.02123
157.758,21.99061,0.00196999,0.383,1.01972
160.758,22.27838,0.002587175,0.38806,1.0182
163.758,22.56588,0.000333436,0.39083,1.01668
166.758,22.8533,0.0006500004,0.39511,1.01517
169.758,23.1414,0.0003113482,0.39573,1.01365
172.758,23.42945,0.0003200066,0.39939,1.01214
175.758,23.7175,-0.000839515,0.40553,1.01062
178.758,24.00584,-0.00231,0.40582,1.00911
181.758,24.29395,-0.004943766,0.41408,1.0076
184.758,24.5811,-0.005929961,0.41518,1.00608
187.758,24.86769,-0.005883895,0.4227,1.00457
190.758,25.155,-0.00859416,0.42667,1.00306
193.758,25.44153,-0.01125663,0.4298,1.00155
196.758,25.72835,-0.0128306,0.43567,1.00004
199.758,26.01549,-0.01413468,0.44241,0.99853
202.758,26.3024,-0.01743814,0.45075,0.99701
205.758,26.5886,-0.02073092,0.45861,0.9955
208.758,26.8746,-0.02468823,0.46611,0.99399
211.758,27.16033,-0.02698844,0.47121,0.99248
214.758,27.44642,-0.03357519,0.47574,0.99097
217.758,27.7324,-0.03752616,0.47472,0.98946
220.758,28.01817,-0.04146206,0.47468,0.98794
223.758,28.305,-0.0480583,0.47696,0.98643
226.758,28.5914,-0.05469067,0.4726,0.98492
229.758,28.8781,-0.06118098,0.47542,0.9834
232.758,29.16443,-0.0689191,0.47617,0.98189
235.758,29.45086,-0.07592162,0.47375,0.98037
238.758,29.737,-0.08403343,0.47443,0.97886
241.758,30.0234,-0.09337235,0.47574,0.97734
244.758,30.3093,-0.10203,0.47546,0.97582
247.758,30.59553,-0.11288,0.47733,0.9743
250.758,30.8821,-0.12369,0.47855,0.97278
253.758,31.16808,-0.1353,0.4833,0.97126
256.758,31.45332,-0.14762,0.48792,0.96974
259.758,31.73818,-0.16228,0.49373,0.96822
262.758,32.02375,-0.17726,0.49454,0.96669
265.758,32.3099,-0.1969,0.49398,0.96516
268.758,32.59629,-0.21671,0.49313,0.96363
271.758,32.8832,-0.23953,0.49298,0.9621
274.758,33.16968,-0.26783,0.49142,0.96057
277.758,33.45657,-0.29729,0.49245,0.95904
280.758,33.74326,-0.33177,0.48962,0.9575
283.758,34.0299,-0.36832,0.48679,0.95596
286.758,34.31695,-0.41061,0.48191,0.95442
289.758,34.60338,-0.45557,0.48066,0.95288
292.758,34.89036,-0.50661,0.47296,0.95134
295.758,35.17755,-0.55793,0.46662,0.94979
298.758,35.46522,-0.61291,0.46812,0.94824
301.758,35.75277,-0.66935,0.46522,0.94669
304.758,36.04045,-0.72698,0.46361,0.94513
307.758,36.3279,-0.78319,0.46527,0.94358
310.758,36.61572,-0.84128,0.47108,0.94202
313.758,36.90466,-0.89913,0.4776,0.94045
316.758,37.19314,-0.95849,0.49409,0.93889
319.758,37.48175,-1.01763,0.50619,0.93732
322.758,37.7706,-1.07854,0.52164,0.93575
325.758,38.0596,-1.14266,0.5427,0.93417
328.758,38.34901,-1.20827,0.56362,0.93259
331.758,38.63892,-1.27881,0.58702,0.93101
334.758,38.92904,-1.35183,0.60935,0.92942
337.758,39.21934,-1.43207,0.63867,0.92783
340.758,39.50985,-1.51672,0.66879,0.92624
343.758,39.80085,-1.61057,0.69627,0.92464
346.758,40.09135,-1.71113,0.72553,0.92304
349.758,40.38207,-1.81952,0.75619,0.92144
352.758,40.67268,-1.93577,0.78081,0.91983
355.758,40.9642,-2.06104,0.7933,0.91822
358.758,41.2546,-2.19032,0.79434,0.9166
361.758,41.546,-2.32016,0.77174,0.91498
364.758,41.83747,-2.44704,0.72304,0.91335
367.758,42.1286,-2.56534,0.64185,0.91172
370.758,42.42029,-2.66821,0.53276,0.91009
373.758,42.71203,-2.74638,0.41072,0.90845
376.758,43.0028,-2.80168,0.29862,0.9068
379.758,43.2939,-2.83602,0.21961,0.90515
382.758,43.5839,-2.85491,0.18171,0.9035
385.758,43.87526,-2.87181,0.16185,0.90184
388.758,44.1662,-2.88515,0.15223,0.90017
391.758,44.45782,-2.89728,0.14321,0.89851
394.758,44.74948,-2.90656,0.13503,0.89683
397.758,45.0413,-2.9165,0.1221,0.89515
400.758,45.33354,-2.92776,0.1195,0.89346
403.758,45.62587,-2.93642,0.11387,0.89177
406.758,45.9185,-2.94618,0.10765,0.89008
409.758,46.2119,-2.95488,0.10562,0.88837
412.758,46.50528,-2.96429,0.09983008,0.88667
415.758,46.7984,-2.97257,0.10204,0.88495
418.758,47.09193,-2.98173,0.10041,0.88323
421.758,47.3857,-2.99013,0.10134,0.88151
424.758,47.6798,-2.99882,0.10185,0.87977
427.758,47.97422,-3.00705,0.1055,0.87804
430.758,48.26882,-3.01556,0.10921,0.87629
433.758,48.56216,-3.0213,0.11672,0.87454
436.758,48.85609,-3.03019,0.11946,0.87279
439.758,49.1507,-3.03636,0.1219,0.87102
442.758,49.44493,-3.0431,0.1255,0.86925
445.758,49.73987,-3.04928,0.12964,0.86748
448.758,50.0342,-3.05598,0.13417,0.86569
451.758,50.32835,-3.06272,0.13965,0.8639
454.758,50.623,-3.06727,0.1477,0.86211
457.758,50.91836,-3.07242,0.14997,0.86031
460.758,51.2141,-3.07645,0.1558,0.8585
463.758,51.51032,-3.08175,0.15884,0.85668
466.758,51.80601,-3.08608,0.16402,0.85485
469.758,52.103,-3.09129,0.16725,0.85302
472.758,52.39968,-3.09425,0.1683,0.85119
475.758,52.697,-3.10016,0.16588,0.84934
478.758,52.9944,-3.10413,0.16795,0.84749
481.758,53.29176,-3.10812,0.17189,0.84563
484.758,53.5884,-3.10974,0.17304,0.84376
487.758,53.88417,-3.11367,0.17346,0.84189
490.758,54.1808,-3.11761,0.17663,0.84
493.758,54.47761,-3.12071,0.18033,0.83811
496.758,54.7743,-3.12387,0.18005,0.83622
499.758,55.07099,-3.12584,0.19928,0.83431
502.758,55.3677,-3.13045,0.20624,0.8324
505.758,55.66401,-3.13245,0.21062,0.83048
508.758,55.96068,-3.13738,0.21801,0.82855
511.758,56.2573,-3.13736,0.22213,0.82662
514.758,56.5542,-3.14064,0.22691,0.82467
517.758,56.85165,-3.14194,0.22437,0.82272
520.758,57.1496,-3.14591,0.2285,0.82076
523.758,57.44798,-3.14854,0.23068,0.8188
526.758,57.74631,-3.15217,0.23295,0.81682
529.758,58.0444,-3.15282,0.22873,0.81484
532.758,58.34339,-3.15596,0.21027,0.81285
535.758,58.6421,-3.15776,0.19619,0.81085
538.758,58.9408,-3.16039,0.18772,0.80884
541.758,59.2399,-3.16171,0.18365,0.80682
544.758,59.53859,-3.16246,0.1796,0.8048
547.758,59.837,-3.1633,0.17083,0.80277
550.758,60.13576,-3.16595,0.17086,0.80073
553.758,60.43414,-3.16862,0.16368,0.79868
556.758,60.7325,-3.17134,0.1531,0.79662
559.758,61.0323,-3.17388,0.14995,0.79456
562.758,61.33175,-3.17388,0.14058,0.79249
565.758,61.6324,-3.17653,0.13712,0.7904
568.758,61.9333,-3.1775,0.13545,0.78831
571.758,62.23336,-3.17886,0.13459,0.78622
574.758,62.53355,-3.18274,0.12948,0.78411
577.758,62.833,-3.1827,0.12849,0.782
580.758,63.1324,-3.18408,0.13268,0.77987
583.758,63.43251,-3.1854,0.13183,0.77774
586.758,63.7328,-3.18903,0.13351,0.7756
589.758,64.03279,-3.18929,0.12891,0.77345
592.758,64.3331,-3.19198,0.12989,0.7713
595.758,64.63356,-3.19198,0.13039,0.76913
598.758,64.9341,-3.19395,0.13485,0.76696
601.758,65.2351,-3.1966,0.13618,0.76478
604.758,65.53679,-3.19757,0.13753,0.76259
607.758,65.83762,-3.19794,0.14204,0.76039
610.758,66.1393,-3.19857,0.14685,0.75818
613.758,66.44117,-3.20087,0.15136,0.75596
616.758,66.74294,-3.20252,0.15726,0.75374
619.758,67.04429,-3.2035,0.16271,0.75151
622.758,67.34591,-3.2035,0.16504,0.74927
625.758,67.6472,-3.2058,0.16791,0.74702
628.758,67.94821,-3.20613,0.17263,0.74476
631.758,68.24893,-3.20614,0.17878,0.7425
634.758,68.551,-3.20942,0.17439,0.74022
637.758,68.85327,-3.2089,0.17685,0.73794
640.758,69.15608,-3.21151,0.17134,0.73565
643.758,69.45886,-3.2125,0.17154,0.73335
646.758,69.76,-3.21162,0.17099,0.73105
649.758,70.0611,-3.21392,0.16924,0.72873
652.758,70.36239,-3.21359,0.17084,0.72641
655.758,70.6652,-3.21394,0.16892,0.72408
658.758,70.9678,-3.21524,0.16772,0.72174
661.758,71.27016,-3.21557,0.16591,0.7194
664.758,71.57324,-3.2159,0.17305,0.71704
667.758,71.8763,-3.21721,0.17402,0.71468
670.758,72.17987,-3.21754,0.17125,0.71231
673.758,72.4833,-3.21886,0.17701,0.70993
676.758,72.78614,-3.21885,0.18071,0.70754
679.758,73.08841,-3.22127,0.17791,0.70515
682.758,73.39007,-3.21996,0.18139,0.70275
685.758,73.69291,-3.22225,0.17915,0.70034
688.758,73.9953,-3.22226,0.17953,0.69792
691.758,74.29823,-3.22101,0.17713,0.6955
694.758,74.60157,-3.22423,0.17889,0.69307
697.758,74.90513,-3.22357,0.18189,0.69063
700.758,75.2089,-3.22621,0.17787,0.68818
703.758,75.51258,-3.2239,0.179,0.68573
706.758,75.81588,-3.22514,0.18122,0.68326
709.758,76.11928,-3.2272,0.18443,0.6808
712.758,76.42348,-3.22752,0.17601,0.67832
715.758,76.7276,-3.22885,0.1783,0.67584
718.758,77.0321,-3.23048,0.17206,0.67335
721.758,77.33578,-3.22917,0.17277,0.67085
724.758,77.64094,-3.2295,0.17419,0.66835
727.758,77.94385,-3.23213,0.17072,0.66584
730.758,78.24729,-3.23311,0.17212,0.66332
733.758,78.5508,-3.2331,0.16666,0.66079
736.758,78.85348,-3.23476,0.16252,0.65826
739.758,79.15698,-3.23608,0.16515,0.65573
742.758,79.46079,-3.2374,0.16138,0.65318
745.758,79.76522,-3.23771,0.15994,0.65063
748.058,79.99874,-3.23805,0.16332,0.64867

File: Basswood_STA_N2_10KData_220314_R2.csv
##Temp./Â°C,Time/min,Mass loss(subtr.)/mg,DSC(subtr.)/(mW/mg),Sensit./(uV/mW)
49.737,10.01,-0.05759,0.02914516,1.07514
52.837,11.29353,-0.0628661,0.13924,1.07352
55.937,11.73692,-0.0653468,0.18853,1.07191
59.037,12.115,-0.06723232,0.22154,1.07029
62.137,12.4681,-0.06894946,0.24336,1.06868
65.237,12.81168,-0.07027212,0.25814,1.06707
68.337,13.148,-0.07152226,0.27238,1.06547
71.437,13.4805,-0.07284004,0.28192,1.06386
74.537,13.8095,-0.07477073,0.29448,1.06226
77.637,14.13393,-0.07677763,0.30255,1.06065
80.737,14.45475,-0.07829414,0.31009,1.05905
83.837,14.77278,-0.08335646,0.31476,1.05745
86.937,15.08707,-0.08335999,0.31686,1.05585
90.037,15.3987,-0.08600383,0.31757,1.05426
93.137,15.7087,-0.08787343,0.31676,1.05266
96.237,16.0163,-0.08797067,0.3133,1.05107
99.337,16.32337,-0.08919314,0.30892,1.04947
102.437,16.62821,-0.09192241,0.30793,1.04788
105.537,16.93305,-0.09289589,0.30649,1.04629
108.637,17.23685,-0.09390187,0.3048,1.04471
111.737,17.54095,-0.0939,0.30495,1.04312
114.837,17.84447,-0.0961559,0.30584,1.04153
117.937,18.1475,-0.09753748,0.30833,1.03995
121.037,18.44974,-0.09751293,0.30945,1.03837
124.137,18.7512,-0.09839154,0.31335,1.03679
127.237,19.05136,-0.10036,0.3176,1.03521
130.337,19.35213,-0.10366,0.32149,1.03363
133.437,19.65287,-0.10275,0.32158,1.03205
136.537,19.95373,-0.1037,0.32572,1.03048
139.637,20.25404,-0.10529,0.32842,1.0289
142.737,20.55268,-0.10638,0.33442,1.02733
145.837,20.85205,-0.10715,0.33633,1.02575
148.937,21.1504,-0.10885,0.34083,1.02418
152.037,21.44806,-0.10915,0.34449,1.02261
155.137,21.74589,-0.11045,0.34837,1.02104
158.237,22.04443,-0.11046,0.35256,1.01947
161.337,22.34204,-0.11243,0.35323,1.01791
164.437,22.64034,-0.11506,0.35659,1.01634
167.537,22.938,-0.11638,0.36159,1.01477
170.637,23.23573,-0.11773,0.36564,1.01321
173.737,23.53284,-0.11769,0.3707,1.01164
176.837,23.83071,-0.11967,0.37092,1.01008
179.937,24.12785,-0.12099,0.37387,1.00852
183.037,24.4247,-0.12553,0.38194,1.00695
186.137,24.72107,-0.1256,0.38553,1.00539
189.237,25.0172,-0.12942,0.3909,1.00383
192.337,25.3136,-0.12987,0.39681,1.00227
195.437,25.6095,-0.13119,0.4018,1.0007
198.537,25.90534,-0.13382,0.4105,0.99914
201.637,26.20139,-0.14062,0.41257,0.99758
204.737,26.49747,-0.13932,0.42,0.99602
207.837,26.79435,-0.14436,0.42294,0.99446
210.937,27.0908,-0.1513,0.42968,0.99289
214.037,27.38702,-0.15521,0.4347,0.99133
217.137,27.6842,-0.15919,0.43369,0.98977
220.237,27.98009,-0.16575,0.43331,0.98821
223.337,28.2756,-0.17072,0.43739,0.98664
226.437,28.57113,-0.17858,0.44125,0.98508
229.537,28.8663,-0.18658,0.44073,0.98352
232.637,29.1623,-0.19174,0.44004,0.98195
235.737,29.4576,-0.20077,0.43863,0.98038
238.837,29.7532,-0.21017,0.43763,0.97882
241.937,30.04877,-0.21741,0.43502,0.97725
245.037,30.34385,-0.22694,0.43648,0.97568
248.137,30.6391,-0.23902,0.43675,0.97411
251.237,30.9337,-0.25042,0.44126,0.97254
254.337,31.2293,-0.26129,0.44363,0.97097
257.437,31.5242,-0.2762,0.44251,0.96939
260.537,31.81962,-0.29019,0.43982,0.96782
263.637,32.11508,-0.30835,0.43983,0.96624
266.737,32.4109,-0.32685,0.44063,0.96466
269.837,32.7061,-0.34912,0.43997,0.96308
272.937,33.00184,-0.37377,0.44166,0.9615
276.037,33.29712,-0.40161,0.44319,0.95992
279.137,33.59332,-0.43461,0.44165,0.95833
282.237,33.88937,-0.4706,0.43698,0.95674
285.337,34.18627,-0.51263,0.42989,0.95515
288.437,34.4827,-0.55623,0.42604,0.95356
291.537,34.77944,-0.60614,0.41868,0.95197
294.637,35.07617,-0.65693,0.41232,0.95037
297.737,35.37276,-0.71155,0.40988,0.94877
300.837,35.66973,-0.76767,0.40628,0.94717
303.937,35.96781,-0.82452,0.41005,0.94556
307.037,36.2654,-0.88382,0.41211,0.94395
310.137,36.56328,-0.94252,0.41877,0.94234
313.237,36.86092,-1.00164,0.42349,0.94073
316.337,37.15972,-1.05995,0.42958,0.93911
319.437,37.45837,-1.11982,0.43991,0.93749
322.537,37.75655,-1.18086,0.46063,0.93586
325.637,38.05555,-1.24565,0.47483,0.93423
328.737,38.35544,-1.31224,0.49404,0.9326
331.837,38.6555,-1.38218,0.51298,0.93097
334.937,38.95625,-1.45496,0.53659,0.92933
338.037,39.25696,-1.53465,0.56438,0.92769
341.137,39.55681,-1.62114,0.59442,0.92604
344.237,39.85702,-1.71283,0.62505,0.92439
347.337,40.15674,-1.81604,0.65705,0.92273
350.437,40.4563,-1.92553,0.68704,0.92108
353.537,40.75609,-2.04354,0.70972,0.91941
356.637,41.05617,-2.16924,0.72018,0.91774
359.737,41.35593,-2.29999,0.71821,0.91607
362.837,41.6562,-2.42888,0.68587,0.91439
365.937,41.9565,-2.55753,0.63175,0.91271
369.037,42.25627,-2.66944,0.54153,0.91102
372.137,42.55574,-2.76682,0.42556,0.90933
375.237,42.8551,-2.83796,0.30224,0.90764
378.337,43.15406,-2.8846,0.19757,0.90593
381.437,43.45366,-2.91102,0.13223,0.90423
384.537,43.75423,-2.93066,0.09922262,0.90252
387.637,44.05575,-2.94549,0.07986836,0.9008
390.737,44.35853,-2.95833,0.07182413,0.89907
393.837,44.6601,-2.96965,0.06073693,0.89734
396.937,44.96243,-2.9821,0.05296838,0.89561
400.037,45.26558,-2.9907,0.04178006,0.89387
403.137,45.5693,-3.00223,0.03658121,0.89212
406.237,45.87369,-3.01116,0.02753228,0.89037
409.337,46.1766,-3.02116,0.02552733,0.88861
412.437,46.48162,-3.03018,0.01910141,0.88685
415.537,46.7856,-3.03907,0.02084955,0.88508
418.637,47.08995,-3.04665,0.01807427,0.8833
421.737,47.39436,-3.05796,0.02389671,0.88152
424.837,47.69768,-3.0651,0.02488016,0.87973
427.937,48.00178,-3.07402,0.02487818,0.87793
431.037,48.30603,-3.08043,0.03278792,0.87613
434.137,48.60887,-3.08832,0.0354979,0.87432
437.237,48.91353,-3.09644,0.03666502,0.8725
440.337,49.21828,-3.10303,0.04206606,0.87068
443.437,49.52241,-3.11092,0.04398126,0.86885
446.537,49.82662,-3.11566,0.04882323,0.86701
449.637,50.13145,-3.12486,0.05160581,0.86517
452.737,50.43598,-3.12739,0.0523208,0.86332
455.837,50.7423,-3.13408,0.0545038,0.86146
458.937,51.04742,-3.14081,0.05748324,0.85959
462.037,51.35243,-3.14526,0.06107442,0.85772
465.137,51.6588,-3.14987,0.06434456,0.85584
468.237,51.96454,-3.15275,0.06428208,0.85395
471.337,52.27088,-3.15677,0.07227858,0.85206
474.437,52.57689,-3.16199,0.071647,0.85015
477.537,52.88349,-3.16466,0.07205667,0.84824
480.637,53.1898,-3.16993,0.07405983,0.84632
483.737,53.49618,-3.17407,0.07388838,0.8444
486.837,53.8026,-3.17805,0.07226104,0.84246
489.937,54.10885,-3.18068,0.07687433,0.84052
493.037,54.415,-3.18449,0.07703572,0.83857
496.137,54.7208,-3.19001,0.0829315,0.83661
499.237,55.02669,-3.19395,0.10121,0.83464
502.337,55.33324,-3.19428,0.10697,0.83267
505.437,55.64051,-3.19592,0.10775,0.83069
508.537,55.9484,-3.20054,0.1141,0.82869
511.637,56.255,-3.20316,0.1177,0.82669
514.737,56.5616,-3.20448,0.12386,0.82469
517.837,56.86792,-3.21009,0.12922,0.82267
520.937,57.1742,-3.21271,0.12868,0.82065
524.037,57.4813,-3.21403,0.12672,0.81861
527.137,57.78924,-3.21669,0.10733,0.81657
530.237,58.0976,-3.21864,0.09017216,0.81452
533.337,58.40596,-3.222,0.08324613,0.81246
536.437,58.71405,-3.22253,0.075405,0.81039
539.537,59.02293,-3.22783,0.07376432,0.80832
542.637,59.3313,-3.22816,0.07041378,0.80623
545.737,59.6399,-3.23081,0.06534982,0.80414
548.837,59.94866,-3.23244,0.05935888,0.80204
551.937,60.25765,-3.23311,0.04958947,0.79992
555.037,60.5668,-3.23476,0.04412664,0.7978
558.137,60.87602,-3.23805,0.03417829,0.79568
561.237,61.1857,-3.24066,0.02808032,0.79354
564.337,61.4955,-3.24115,0.02357378,0.79139
567.437,61.8057,-3.24463,0.01961887,0.78924
570.537,62.116,-3.24727,0.0126013,0.78707
573.637,62.4259,-3.24594,0.01440634,0.7849
576.737,62.73591,-3.24726,0.01201193,0.78272
579.837,63.04628,-3.25088,0.009882821,0.78053
582.937,63.35725,-3.2535,0.00768647,0.77833
586.037,63.6678,-3.25384,0.00669844,0.77612
589.137,63.9788,-3.25648,0.005407745,0.7739
592.237,64.28915,-3.25647,0.003479475,0.77167
595.337,64.60029,-3.25878,0.00125939,0.76944
598.437,64.91157,-3.26009,0.001612585,0.76719
601.537,65.22284,-3.26141,0.003285536,0.76494
604.637,65.53526,-3.26403,0.006645061,0.76267
607.737,65.84692,-3.26542,0.00631425,0.7604
610.837,66.15771,-3.26568,0.00668543,0.75812
613.937,66.46843,-3.26799,0.0106058,0.75583
617.037,66.77898,-3.26898,0.009584976,0.75353
620.137,67.08906,-3.26965,0.01426421,0.75123
623.237,67.39962,-3.26963,0.0197119,0.74891
626.337,67.71114,-3.2726,0.02411893,0.74658
629.437,68.02266,-3.27567,0.03088952,0.74425
632.537,68.33451,-3.27602,0.03410991,0.74191
635.637,68.64654,-3.27577,0.03661357,0.73956
638.737,68.9592,-3.27567,0.04261814,0.7372
641.837,69.27118,-3.27829,0.04161394,0.73483
644.937,69.5836,-3.28029,0.03965326,0.73245
648.037,69.89764,-3.28002,0.03638509,0.73006
651.137,70.2115,-3.27961,0.03391857,0.72767
654.237,70.52476,-3.28069,0.03619914,0.72526
657.337,70.83663,-3.28127,0.03806909,0.72285
660.437,71.14871,-3.28456,0.04034931,0.72043
663.537,71.45997,-3.28445,0.03577125,0.718
666.637,71.77118,-3.28445,0.03833139,0.71556
669.737,72.08383,-3.28477,0.04068758,0.71312
672.837,72.3976,-3.28708,0.04255282,0.71066
675.937,72.71055,-3.2874,0.04621655,0.7082
679.037,73.02379,-3.28618,0.04233071,0.70573
682.137,73.33675,-3.28873,0.04329984,0.70325
685.237,73.65034,-3.28938,0.04696238,0.70076
688.337,73.964,-3.2907,0.04449932,0.69826
691.437,74.27679,-3.29069,0.05009023,0.69576
694.537,74.58867,-3.28971,0.05161797,0.69325
697.637,74.90151,-3.29005,0.05008613,0.69073
700.737,75.21508,-3.29201,0.05364552,0.6882
703.837,75.52931,-3.29202,0.05474459,0.68566
706.937,75.8429,-3.29464,0.05814015,0.68312
710.037,76.15601,-3.29465,0.05635305,0.68057
713.137,76.4698,-3.29333,0.05249766,0.67801
716.237,76.7839,-3.29597,0.05357429,0.67544
719.337,77.09809,-3.2957,0.0476583,0.67287
722.437,77.4119,-3.29718,0.0438532,0.67028
725.537,77.727,-3.29979,0.05027959,0.6677
728.637,78.0416,-3.29914,0.04789476,0.6651
731.737,78.35526,-3.29849,0.04622575,0.6625
734.837,78.66957,-3.2998,0.03987529,0.65989
737.937,78.98363,-3.29911,0.03852429,0.65727
741.037,79.2988,-3.30211,0.0374486,0.65464
744.137,79.6136,-3.30209,0.03687681,0.65201
747.237,79.9277,-3.30169,0.02991728,0.64937
747.937,79.99956,-3.30276,0.03594044,0.64878