Folder: fsri_materials_database/01_Data/Bean_Bag_Chair_Inner_Lining/STA/N2/10K_min (part 2)

File: Bean_Bag_Liner_STA_N2_10KData_220516_R3.csv
##Temp./Â°C,Time/min,Mass loss(subtr.2)/mg,DSC(subtr.2)/(mW/mg),Sensit./(uV/mW)
49.797,10.00833,-0.00593,0.00163682,1.07015
52.997,11.3223,-0.00552592,0.10945,1.06927
56.197,11.77294,-0.00655299,0.15549,1.06837
59.397,12.16057,-0.0079376,0.18031,1.06747
62.597,12.5227,-0.0075462,0.19035,1.06655
65.797,12.87311,-0.00801904,0.20241,1.06563
68.997,13.2173,-0.006746158,0.21213,1.06469
72.197,13.55574,-0.007986551,0.21672,1.06374
75.397,13.89119,-0.008007455,0.22036,1.06279
78.597,14.22546,-0.00684557,0.21322,1.06182
81.797,14.5551,-0.006689484,0.20686,1.06084
84.997,14.8804,-0.00768969,0.20186,1.05985
88.197,15.2042,-0.005374265,0.20129,1.05885
91.397,15.52385,-0.006697815,0.20136,1.05783
94.597,15.8415,-0.00670447,0.20175,1.05681
97.797,16.1576,-0.005375455,0.20355,1.05578
100.997,16.4727,-0.008064484,0.20895,1.05473
104.197,16.7868,-0.006709879,0.21648,1.05368
107.397,17.09986,-0.00538078,0.2238,1.05261
110.597,17.41274,-0.006369938,0.23235,1.05153
113.797,17.725,-0.00636749,0.23706,1.05045
116.997,18.03725,-0.006726791,0.2442,1.04935
120.197,18.3491,-0.006359726,0.24956,1.04824
123.397,18.65921,-0.00633931,0.25434,1.04711
126.597,18.96955,-0.00604,0.26321,1.04598
129.797,19.27948,-0.00636944,0.26857,1.04484
132.997,19.58669,-0.0083421,0.27295,1.04368
136.197,19.8972,-0.008175694,0.27793,1.04252
139.397,20.2065,-0.007349896,0.28272,1.04134
142.597,20.51499,-0.0066971,0.28368,1.04015
145.797,20.8227,-0.007029682,0.28786,1.03895
148.997,21.1299,-0.00637,0.29198,1.03774
152.197,21.43779,-0.007690005,0.29612,1.03651
155.397,21.74439,-0.008020884,0.29924,1.03528
158.597,22.0512,-0.006927303,0.30468,1.03403
161.797,22.35745,-0.0070303,0.30444,1.03277
164.997,22.66451,-0.006034655,0.30646,1.03151
168.197,22.97042,-0.00769,0.30951,1.03022
171.397,23.27717,-0.0063699,0.31311,1.02893
174.597,23.58324,-0.00794629,0.3165,1.02763
177.797,23.88887,-0.00640157,0.31932,1.02631
180.997,24.1947,-0.00637,0.32298,1.02499
184.197,24.50038,-0.005379801,0.32476,1.02365
187.397,24.80564,-0.005288637,0.32992,1.0223
190.597,25.11091,-0.007019995,0.33197,1.02093
193.797,25.41527,-0.0067,0.33413,1.01956
196.997,25.72005,-0.005741104,0.33705,1.01817
200.197,26.0246,-0.007029999,0.33773,1.01678
203.397,26.3295,-0.007690102,0.34079,1.01537
206.597,26.63428,-0.00637337,0.34404,1.01395
209.797,26.93903,-0.006369999,0.3493,1.01251
212.997,27.24312,-0.005675105,0.35083,1.01107
216.197,27.54833,-0.007360135,0.3549,1.00961
219.397,27.85278,-0.006704965,0.36017,1.00814
222.597,28.1566,-0.008019999,0.36509,1.00666
225.797,28.4606,-0.008019771,0.3705,1.00517
228.997,28.7654,-0.008019965,0.37769,1.00366
232.197,29.0698,-0.00867,0.38577,1.00214
235.397,29.3741,-0.00867086,0.39699,1.00061
238.597,29.6785,-0.008670028,0.41299,0.99907
241.797,29.9832,-0.00702003,0.43882,0.99752
244.997,30.28815,-0.00834,0.47951,0.99595
248.197,30.593,-0.00737836,0.56663,0.99437
251.397,30.89909,-0.006370386,0.9523,0.99278
254.597,31.20755,-0.00702995,1.30562,0.99118
257.797,31.51505,-0.00768999,1.26741,0.98956
260.997,31.81965,-0.00702362,0.66271,0.98794
264.197,32.12147,-0.007029866,0.47203,0.9863
267.397,32.42454,-0.007029946,0.43139,0.98465
270.597,32.72781,-0.00704466,0.42071,0.98298
273.797,33.03184,-0.00703003,0.41745,0.9813
276.997,33.33597,-0.00735999,0.4176,0.97961
280.197,33.64015,-0.00736,0.41797,0.97791
283.397,33.94642,-0.006040003,0.41734,0.9762
286.597,34.25169,-0.00768,0.41831,0.97447
289.797,34.5578,-0.007359989,0.42041,0.97273
292.997,34.86387,-0.00768,0.41965,0.97098
296.197,35.1699,-0.00768,0.41726,0.96922
299.397,35.47631,-0.00766966,0.42069,0.96744
302.597,35.7819,-0.008672499,0.42101,0.96565
305.797,36.08788,-0.00867001,0.41919,0.96385
308.997,36.3943,-0.008020095,0.42272,0.96204
312.197,36.69924,-0.00966,0.42385,0.96021
315.397,37.00636,-0.00958085,0.42278,0.95837
318.597,37.3142,-0.00965989,0.42095,0.95652
321.797,37.62202,-0.01032509,0.42214,0.95466
324.997,37.92988,-0.01032055,0.42491,0.95278
328.197,38.2378,-0.01032034,0.42577,0.95089
331.397,38.5446,-0.01263088,0.42703,0.94899
334.597,38.85238,-0.01262973,0.42953,0.94708
337.797,39.1601,-0.01395,0.43005,0.94515
340.997,39.46862,-0.01494223,0.43314,0.94321
344.197,39.77705,-0.01626675,0.43318,0.94126
347.397,40.0856,-0.01723206,0.43549,0.9393
350.597,40.394,-0.01723,0.44101,0.93732
353.797,40.70329,-0.01855,0.44488,0.93533
356.997,41.0106,-0.01986999,0.44338,0.93333
360.197,41.32009,-0.02087035,0.4484,0.93132
363.397,41.631,-0.02350223,0.45324,0.92929
366.597,41.9403,-0.02489707,0.46078,0.92725
369.797,42.24927,-0.02811175,0.47079,0.9252
372.997,42.55875,-0.03140009,0.48472,0.92314
376.197,42.86835,-0.03645113,0.50207,0.92106
379.397,43.17768,-0.04365332,0.51794,0.91897
382.597,43.48892,-0.05033858,0.53414,0.91687
385.797,43.80053,-0.06291009,0.537,0.91476
388.997,44.11108,-0.07674744,0.53362,0.91264
392.197,44.42222,-0.0935026,0.54689,0.9105
395.397,44.733,-0.11237,0.5602,0.90835
398.597,45.04412,-0.13497,0.57486,0.90619
401.797,45.3548,-0.1486,0.58235,0.90401
404.997,45.6642,-0.16367,0.5918,0.90182
408.197,45.97292,-0.18477,0.60488,0.89962
411.397,46.28111,-0.21356,0.65829,0.89741
414.597,46.5897,-0.26516,0.71978,0.89519
417.797,46.89784,-0.38138,0.78376,0.89295
420.997,47.20644,-0.52946,0.82095,0.89071
424.197,47.51657,-0.70209,0.90042,0.88845
427.397,47.82745,-0.89676,0.97097,0.88618
430.597,48.13865,-1.11322,0.99974,0.88389
433.797,48.45028,-1.34703,0.99544,0.8816
436.997,48.76186,-1.59859,1.00506,0.87929
440.197,49.07396,-1.85215,1.00195,0.87697
443.397,49.38582,-2.10345,0.96703,0.87464
446.597,49.69717,-2.33758,0.90007,0.8723
449.797,50.0092,-2.53573,0.79854,0.86994
452.997,50.32076,-2.68919,0.68595,0.86757
456.197,50.6327,-2.79865,0.57723,0.8652
459.397,50.94428,-2.88392,0.49718,0.86281
462.597,51.25625,-2.9319,0.43618,0.86041
465.797,51.56926,-2.96731,0.38412,0.85799
468.997,51.88136,-2.99296,0.33945,0.85557
472.197,52.19325,-3.01516,0.29652,0.85313
475.397,52.50725,-3.03188,0.26249,0.85069
478.597,52.81985,-3.04388,0.23236,0.84823
481.797,53.13443,-3.05543,0.2099,0.84576
484.997,53.4504,-3.06352,0.19383,0.84328
488.197,53.7643,-3.0713,0.17898,0.84079
491.397,54.07901,-3.08871,0.17183,0.83828
494.597,54.39447,-3.0926,0.16808,0.83577
497.797,54.71011,-3.09721,0.16462,0.83325
500.997,55.02606,-3.1038,0.16095,0.83071
504.197,55.34242,-3.10643,0.15941,0.82816
507.397,55.6586,-3.10709,0.15488,0.82561
510.597,55.97529,-3.10709,0.14943,0.82304
513.797,56.29155,-3.12453,0.15053,0.82046
516.997,56.6084,-3.11972,0.14777,0.81787
520.197,56.9246,-3.1076,0.14992,0.81527
523.397,57.2416,-3.11225,0.15132,0.81267
526.597,57.5573,-3.11226,0.15424,0.81005
529.797,57.8738,-3.11482,0.15841,0.80742
532.997,58.1903,-3.11761,0.15903,0.80478
536.197,58.5065,-3.11982,0.16317,0.80213
539.397,58.82436,-3.1231,0.16403,0.79947
542.597,59.14355,-3.12411,0.16677,0.7968
545.797,59.4621,-3.12569,0.17111,0.79412
548.997,59.78063,-3.12707,0.17066,0.79143
552.197,60.0973,-3.12745,0.17265,0.78873
555.397,60.4162,-3.12937,0.17658,0.78602
558.597,60.7357,-3.12937,0.18022,0.7833
561.797,61.0527,-3.13103,0.17907,0.78057
564.997,61.3723,-3.13268,0.18078,0.77784
568.197,61.69072,-3.13399,0.18162,0.77509
571.397,62.0092,-3.13531,0.18113,0.77234
574.597,62.3275,-3.13948,0.18073,0.76957
577.797,62.6461,-3.15622,0.18021,0.7668
580.997,62.9657,-3.15292,0.18222,0.76402
584.197,63.28538,-3.15021,0.18303,0.76123
587.397,63.6051,-3.15154,0.18041,0.75843
590.597,63.92415,-3.16229,0.18627,0.75562
593.797,64.24341,-3.15869,0.19125,0.7528
596.997,64.56353,-3.16134,0.18864,0.74998
600.197,64.88332,-3.16133,0.18641,0.74715
603.397,65.20403,-3.16396,0.1878,0.74431
606.597,65.52342,-3.17229,0.1908,0.74146
609.797,65.8439,-3.20787,0.20744,0.7386
612.997,66.16454,-3.2026,0.23608,0.73574
616.197,66.48419,-3.21897,0.27568,0.73287
619.397,66.80506,-3.22769,0.31512,0.72999
622.597,67.1273,-3.21773,0.34176,0.7271
625.797,67.4506,-3.20041,0.32479,0.7242
628.997,67.773,-3.19306,0.31486,0.7213
632.197,68.0954,-3.19237,0.30472,0.7184
635.397,68.41768,-3.20271,0.40418,0.71548
638.597,68.74008,-3.19689,0.40169,0.71256
641.797,69.06172,-3.19215,0.39559,0.70963
644.997,69.38379,-3.22638,0.4114,0.70669
648.197,69.70636,-3.22431,0.41848,0.70375
651.397,70.02915,-3.23672,0.43005,0.7008
654.597,70.35101,-3.22382,0.42601,0.69785
657.797,70.67116,-3.24167,0.43845,0.69489
660.997,70.9957,-3.23809,0.44137,0.69192
664.197,71.31817,-3.2228,0.43393,0.68895
667.397,71.6405,-3.25604,0.45191,0.68597
670.597,71.96276,-3.24102,0.44677,0.68298
673.797,72.28398,-3.23378,0.45109,0.67999
676.997,72.60503,-3.21684,0.44094,0.677
680.197,72.92634,-3.22697,0.4438,0.674
683.397,73.24789,-3.22577,0.436,0.67099
686.597,73.57,-3.23343,0.4393,0.66798
689.797,73.89184,-3.22459,0.43273,0.66497
692.997,74.2132,-3.22901,0.43583,0.66194
696.197,74.53506,-3.22558,0.42964,0.65892
699.397,74.8566,-3.21907,0.42435,0.65589
702.597,75.17784,-3.21909,0.4222,0.65286
705.797,75.50202,-3.23224,0.42777,0.64982
708.997,75.82372,-3.22818,0.4274,0.64678
712.197,76.1462,-3.22357,0.42515,0.64373
715.397,76.46736,-3.22621,0.42143,0.64068
718.597,76.79089,-3.22621,0.42068,0.63763
721.797,77.11406,-3.25984,0.43668,0.63457
724.997,77.43738,-3.24418,0.42778,0.63151
728.197,77.76096,-3.23227,0.42268,0.62844
731.397,78.08475,-3.23026,0.41986,0.62538
734.597,78.40808,-3.22764,0.41629,0.62231
737.797,78.7316,-3.24459,0.41747,0.61923
740.997,79.0544,-3.24192,0.4177,0.61616
744.197,79.37671,-3.24897,0.42326,0.61308
747.397,79.69972,-3.2396,0.41702,0.61
750.597,80.0221,-3.234,0.41243,0.60692
753.797,80.34576,-3.22247,0.40497,0.60383
756.997,80.6691,-3.22082,0.40202,0.60074
760.197,80.9935,-3.21984,0.39788,0.59766
763.397,81.31806,-3.21887,0.39898,0.59456
766.597,81.6426,-3.21774,0.39808,0.59147
769.797,81.9675,-3.21849,0.39966,0.58838
772.997,82.29088,-3.23068,0.40141,0.58528
776.197,82.61717,-3.22543,0.39452,0.58219
779.397,82.94096,-3.22341,0.40153,0.57909
782.597,83.26572,-3.23492,0.39936,0.57599
785.797,83.59035,-3.22851,0.39344,0.57289
788.997,83.91503,-3.22647,0.39396,0.56979
792.197,84.2394,-3.22226,0.39005,0.56669
795.397,84.5641,-3.21704,0.38776,0.56359
798.597,84.88895,-3.1981,0.37879,0.56049
799.597,84.99051,-3.19941,0.38142,0.55952