Folder: fsri_materials_database/01_Data/Bean_Bag_Chair_Inner_Lining/STA/N2/10K_min

Note: 01_Data/README.md
# Materials and Products Database
## 01_Data

Raw data generated from each apparatus are included here in plain-text format. The data is organized first by material, next by the short name of test apparatus used, and where applicable additional filtering by test settings.

### material.json

Each material directory contains a json file of the same name as the material. This file links the data stored in the repository as well as data and graphs produced by the accompanying scripts (__02_Scripts__) to the respective landing page for the material on the front-end website.

File: Bean_Bag_Inner_Liner_STA_N2_10KData_220516_R2.csv
##Temp./Â°C,Time/min,Mass loss(subtr.2)/mg,DSC(subtr.2)/(mW/mg),Sensit./(uV/mW)
49.767,10.01,-0.0201,-0.01926336,1.07016
53.067,11.34025,-0.02206155,0.07786619,1.06925
56.367,11.80205,-0.02318989,0.12228,1.06833
59.667,12.19845,-0.02336258,0.14611,1.06739
62.967,12.57123,-0.02334038,0.16086,1.06645
66.267,12.93171,-0.02470958,0.17154,1.06549
69.567,13.28605,-0.02602753,0.1825,1.06452
72.867,13.63587,-0.0270011,0.1903,1.06354
76.167,13.98065,-0.02734229,0.19016,1.06255
79.467,14.32444,-0.02734721,0.18148,1.06155
82.767,14.66196,-0.02733999,0.17281,1.06054
86.067,14.997,-0.02777398,0.16921,1.05951
89.367,15.3284,-0.0283142,0.16801,1.05848
92.667,15.6581,-0.02866012,0.16711,1.05743
95.967,15.98495,-0.02965549,0.16954,1.05637
99.267,16.31079,-0.03096099,0.17362,1.0553
102.567,16.6347,-0.03096997,0.17964,1.05422
105.867,16.9583,-0.02997759,0.18497,1.05312
109.167,17.28035,-0.03158871,0.19213,1.05202
112.467,17.60284,-0.03247439,0.1994,1.0509
115.767,17.92535,-0.03265655,0.20646,1.04977
119.067,18.24682,-0.03261679,0.21246,1.04863
122.367,18.56793,-0.03375761,0.2197,1.04748
125.667,18.8876,-0.03393,0.22437,1.04631
128.967,19.20665,-0.03393,0.23099,1.04513
132.267,19.52597,-0.0352449,0.23557,1.04395
135.567,19.84394,-0.03458976,0.24317,1.04275
138.867,20.1618,-0.03544152,0.24514,1.04153
142.167,20.47918,-0.03525056,0.24688,1.04031
145.467,20.79674,-0.0368901,0.2495,1.03907
148.767,21.11345,-0.03670398,0.2541,1.03782
152.067,21.43065,-0.03722936,0.25849,1.03656
155.367,21.74731,-0.03674262,0.25947,1.03529
158.667,22.06321,-0.03557969,0.26415,1.034
161.967,22.37884,-0.03656,0.268,1.03271
165.267,22.69439,-0.03586146,0.27147,1.0314
168.567,23.00991,-0.03657,0.27568,1.03008
171.867,23.32536,-0.03685102,0.27663,1.02874
175.167,23.64109,-0.03689,0.27812,1.0274
178.467,23.9571,-0.0367969,0.28015,1.02604
181.767,24.27262,-0.03820981,0.2828,1.02467
185.067,24.5886,-0.03888,0.28399,1.02328
188.367,24.9039,-0.04115738,0.28585,1.02189
191.667,25.2169,-0.04115214,0.28667,1.02048
194.967,25.53258,-0.04084999,0.29093,1.01906
198.267,25.84695,-0.04121203,0.29008,1.01762
201.567,26.1616,-0.04118,0.29526,1.01618
204.867,26.4752,-0.04249,0.29994,1.01472
208.167,26.78983,-0.04281637,0.30175,1.01324
211.467,27.10325,-0.04230357,0.30181,1.01176
214.767,27.4176,-0.04447954,0.307,1.01026
218.067,27.73065,-0.04348705,0.31234,1.00875
221.367,28.0447,-0.04453806,0.31654,1.00723
224.667,28.35796,-0.04512953,0.32367,1.00569
227.967,28.6719,-0.04381069,0.32732,1.00415
231.267,28.98596,-0.04546,0.33505,1.00259
234.567,29.2999,-0.04677452,0.34509,1.00101
237.867,29.61453,-0.04512386,0.36056,0.99942
241.167,29.92835,-0.04645,0.38313,0.99782
244.467,30.2428,-0.04515013,0.42056,0.99621
247.767,30.5574,-0.04611051,0.4977,0.99459
251.067,30.8736,-0.04607227,0.8652,0.99295
254.367,31.1923,-0.04751379,1.24533,0.9913
257.667,31.5102,-0.04611998,1.21082,0.98963
260.967,31.82341,-0.04731917,0.59426,0.98795
264.267,32.13495,-0.04744,0.40315,0.98626
267.567,32.44704,-0.04678,0.36566,0.98456
270.867,32.76025,-0.04710995,0.35479,0.98284
274.167,33.07411,-0.04810033,0.34975,0.98111
277.467,33.38819,-0.04941244,0.34791,0.97937
280.767,33.70214,-0.04842559,0.34944,0.97761
284.067,34.01679,-0.04842443,0.3508,0.97584
287.367,34.33155,-0.05010186,0.34895,0.97406
290.667,34.6472,-0.0504,0.34986,0.97226
293.967,34.9625,-0.0504,0.34972,0.97045
297.267,35.2775,-0.05069813,0.34885,0.96863
300.567,35.59283,-0.04974,0.34821,0.96679
303.867,35.90886,-0.05106,0.3514,0.96494
307.167,36.22397,-0.05105985,0.35047,0.96308
310.467,36.54023,-0.05204999,0.34917,0.9612
313.767,36.8559,-0.05271023,0.34923,0.95931
317.067,37.1728,-0.05271,0.34545,0.95741
320.367,37.48957,-0.05271,0.34622,0.95549
323.667,37.80585,-0.05392283,0.34727,0.95356
326.967,38.12342,-0.0550087,0.34561,0.95162
330.267,38.44088,-0.05434881,0.34744,0.94967
333.567,38.75826,-0.05435138,0.34761,0.9477
336.867,39.0762,-0.05598999,0.3506,0.94571
340.167,39.3942,-0.05566,0.35054,0.94372
343.467,39.71202,-0.05797,0.35008,0.94171
346.767,40.0302,-0.05797085,0.35019,0.93969
350.067,40.34899,-0.05961999,0.35238,0.93765
353.367,40.66724,-0.05961343,0.35521,0.9356
356.667,40.98532,-0.06159122,0.35763,0.93354
359.967,41.30438,-0.06159,0.3607,0.93146
363.267,41.62184,-0.06422461,0.36663,0.92938
366.567,41.9403,-0.06686116,0.3713,0.92727
369.867,42.2592,-0.06983106,0.38114,0.92516
373.167,42.57913,-0.07372317,0.3872,0.92303
376.467,42.899,-0.07640658,0.39717,0.92089
379.767,43.21945,-0.08394133,0.4077,0.91873
383.067,43.53982,-0.09198417,0.41869,0.91656
386.367,43.8605,-0.10363,0.42893,0.91438
389.667,44.18125,-0.11915,0.44051,0.91219
392.967,44.50178,-0.13959,0.45614,0.90998
396.267,44.82201,-0.16564,0.42544,0.90776
399.567,45.1422,-0.19546,0.39954,0.90553
402.867,45.46228,-0.2286,0.35458,0.90328
406.167,45.7823,-0.26783,0.30194,0.90102
409.467,46.10304,-0.30928,0.27809,0.89875
412.767,46.42425,-0.36365,0.31192,0.89646
416.067,46.74672,-0.43204,0.35283,0.89416
419.367,47.0687,-0.52191,0.41559,0.89185
422.667,47.3913,-0.63084,0.46388,0.88953
425.967,47.71335,-0.76565,0.51653,0.88719
429.267,48.0362,-0.92778,0.5734,0.88484
432.567,48.35845,-1.11684,0.62854,0.88248
435.867,48.68166,-1.31019,0.66027,0.88011
439.167,49.00156,-1.42435,0.66552,0.87772
442.467,49.32101,-1.66565,0.67341,0.87532
445.767,49.64111,-1.94341,0.64976,0.8729
449.067,49.96058,-2.20328,0.5917,0.87048
452.367,50.2797,-2.43492,0.50061,0.86804
455.667,50.5991,-2.63252,0.3818,0.86559
458.967,50.91796,-2.79775,0.26761,0.86313
462.267,51.23787,-2.86154,0.18316,0.86065
465.567,51.55842,-2.92637,0.12186,0.85817
468.867,51.87996,-2.97514,0.07565395,0.85567
472.167,52.2013,-3.00889,0.03384484,0.85316
475.467,52.52451,-3.04297,0.002349967,0.85063
478.767,52.84806,-3.10493,-0.01640454,0.8481
482.067,53.17239,-3.12234,-0.03677517,0.84555
485.367,53.4968,-3.08654,-0.05853223,0.84299
488.667,53.8213,-3.10443,-0.07191862,0.84042
491.967,54.14598,-3.12037,-0.0829522,0.83784
495.267,54.4712,-3.13845,-0.0858073,0.83524
498.567,54.79765,-3.17986,-0.09072438,0.83264
501.867,55.125,-3.15155,-0.09780651,0.83002
505.167,55.45146,-3.16454,-0.10049,0.82739
508.467,55.77819,-3.20367,-0.09358139,0.82475
511.767,56.1051,-3.19458,-0.08554463,0.8221
515.067,56.4317,-3.20579,-0.0741401,0.81944
518.367,56.75948,-3.21236,-0.06826643,0.81676
521.667,57.08781,-3.20128,-0.07318643,0.81408
524.967,57.41616,-3.19764,-0.0796914,0.81138
528.267,57.74423,-3.19712,-0.08500149,0.80867
531.567,58.0721,-3.19681,-0.09028649,0.80596
534.867,58.39985,-3.19908,-0.09282794,0.80323
538.167,58.72705,-3.18562,-0.09631269,0.80049
541.467,59.0544,-3.21909,-0.08722963,0.79774
544.767,59.3831,-3.20766,-0.0911799,0.79498
548.067,59.71298,-3.2571,-0.07364473,0.79221
551.367,60.04368,-3.26874,-0.0621796,0.78943
554.667,60.37478,-3.27045,-0.06104084,0.78664
557.967,60.706,-3.2694,-0.05577747,0.78384
561.267,61.03696,-3.25096,-0.06382509,0.78103
564.567,61.3688,-3.28881,-0.05066817,0.7782
567.867,61.69993,-3.26178,-0.05962165,0.77537
571.167,62.0296,-3.24585,-0.06826672,0.77253
574.467,62.3595,-3.23269,-0.07582747,0.76968
577.767,62.689,-3.22874,-0.07755689,0.76682
581.067,63.0191,-3.25959,-0.06626102,0.76396
584.367,63.34905,-3.25498,-0.05580057,0.76108
587.667,63.6784,-3.25102,-0.07700736,0.75819
590.967,64.0081,-3.25069,-0.08355232,0.75529
594.267,64.33838,-3.25379,-0.08338115,0.75239
597.567,64.66872,-3.2485,-0.08894048,0.74948
600.867,64.99903,-3.24324,-0.09362323,0.74655
604.167,65.32925,-3.23993,-0.08909553,0.74362
607.467,65.65941,-3.23729,-0.092564,0.74068
610.767,65.98905,-3.23761,-0.09873195,0.73773
614.067,66.31846,-3.23673,-0.09546116,0.73478
617.367,66.64785,-3.2393,-0.09756594,0.73181
620.667,66.97775,-3.23994,-0.09825221,0.72884
623.967,67.30756,-3.24126,-0.09985881,0.72586
627.267,67.63847,-3.24318,-0.09778256,0.72287
630.567,67.9694,-3.24388,-0.10379,0.71988
633.867,68.30022,-3.24685,-0.09837508,0.71687
637.167,68.631,-3.24882,-0.09916255,0.71386
640.467,68.96149,-3.25015,-0.10812,0.71085
643.767,69.29207,-3.25015,-0.10865,0.70782
647.067,69.62193,-3.25147,-0.11022,0.70479
650.367,69.95224,-3.25245,-0.11494,0.70175
653.667,70.28249,-3.25468,-0.11512,0.69871
656.967,70.6144,-3.25665,-0.12284,0.69565
660.267,70.94582,-3.25772,-0.13126,0.6926
663.567,71.27769,-3.25805,-0.12033,0.68953
666.867,71.60858,-3.26068,-0.12629,0.68646
670.167,71.93946,-3.26168,-0.13231,0.68338
673.467,72.27065,-3.26265,-0.13255,0.6803
676.767,72.60171,-3.28534,-0.13359,0.67721
680.067,72.93347,-3.2798,-0.1395,0.67412
683.367,73.26522,-3.27708,-0.1521,0.67102
686.667,73.5972,-3.27353,-0.15929,0.66791
689.967,73.92922,-3.27128,-0.17008,0.6648
693.267,74.26002,-3.27023,-0.17907,0.66169
696.567,74.59143,-3.26937,-0.18787,0.65857
699.867,74.92224,-3.26892,-0.19965,0.65544
703.167,75.25421,-3.26729,-0.20354,0.65232
706.467,75.58619,-3.27254,-0.21764,0.64918
709.767,75.91786,-3.27249,-0.22734,0.64604
713.067,76.2501,-3.27254,-0.23943,0.6429
716.367,76.58363,-3.27386,-0.25165,0.63975
719.667,76.9167,-3.27418,-0.26216,0.6366
722.967,77.25017,-3.27484,-0.27524,0.63345
726.267,77.58205,-3.27551,-0.28718,0.63029
729.567,77.91453,-3.27485,-0.29867,0.62713
732.867,78.24753,-3.27682,-0.30279,0.62397
736.167,78.5793,-3.27747,-0.3191,0.6208
739.467,78.9119,-3.28014,-0.33041,0.61763
742.767,79.24653,-3.28069,-0.33895,0.61446
746.067,79.57905,-3.27979,-0.34852,0.61128
749.367,79.91168,-3.28046,-0.35142,0.6081
752.667,80.24459,-3.28176,-0.36584,0.60492
755.967,80.57842,-3.28328,-0.36818,0.60174
759.267,80.9115,-3.2844,-0.38406,0.59855
762.567,81.24491,-3.28566,-0.38829,0.59537
765.867,81.57961,-3.28702,-0.3982,0.59218
769.167,81.913,-3.28688,-0.40805,0.58899
772.467,82.24716,-3.28703,-0.40912,0.5858
775.767,82.58144,-3.28572,-0.41446,0.5826
779.067,82.91619,-3.2867,-0.42696,0.57941
782.367,83.25073,-3.2867,-0.43457,0.57621
785.667,83.58565,-3.28871,-0.43207,0.57302
788.967,83.9204,-3.28736,-0.44706,0.56982
792.267,84.25483,-3.28867,-0.45956,0.56662
795.567,84.58976,-3.28868,-0.46167,0.56343
798.867,84.92429,-3.28932,-0.4711,0.56023
799.567,84.995,-3.28835,-0.46963,0.55955

File: Bean_Bag_Liner_STA_N2_10KData_220513_R1.csv
##Temp./Â°C,Time/min,Mass loss(subtr.2)/mg,DSC(subtr.2)/(mW/mg),Sensit./(uV/mW)
49.746,10.01,-0.00867,0.00285168,1.07017
52.946,11.32355,-0.00793274,0.10392,1.06928
56.146,11.7738,-0.008213785,0.14684,1.06839
59.346,12.15888,-0.009772069,0.17065,1.06748
62.546,12.5207,-0.01054191,0.18182,1.06657
65.746,12.87165,-0.009721852,0.19081,1.06564
68.946,13.21602,-0.01189169,0.20126,1.06471
72.146,13.5558,-0.01130254,0.2086,1.06376
75.346,13.89179,-0.01165834,0.20999,1.0628
78.546,14.22362,-0.01071112,0.20264,1.06183
81.746,14.55277,-0.01184883,0.19358,1.06085
84.946,14.8779,-0.01188254,0.189,1.05986
88.146,15.2009,-0.01317879,0.1863,1.05886
91.346,15.5212,-0.01098155,0.18614,1.05785
94.546,15.8393,-0.01186297,0.18753,1.05683
97.746,16.15621,-0.010859,0.1904,1.0558
100.946,16.4712,-0.01130257,0.19557,1.05475
104.146,16.78494,-0.01320849,0.19955,1.0537
107.346,17.09822,-0.01119781,0.20826,1.05263
110.546,17.4111,-0.01186,0.21301,1.05155
113.746,17.72271,-0.01316993,0.22123,1.05046
116.946,18.0343,-0.01185998,0.22857,1.04936
120.146,18.3466,-0.01186,0.23357,1.04825
123.346,18.65703,-0.01187485,0.24086,1.04713
126.546,18.96786,-0.01251974,0.2447,1.046
129.746,19.27746,-0.01251971,0.24969,1.04486
132.946,19.58697,-0.0138651,0.25472,1.0437
136.146,19.89576,-0.01318,0.2579,1.04253
139.346,20.2041,-0.01251973,0.2648,1.04136
142.546,20.512,-0.01283629,0.26741,1.04017
145.746,20.82033,-0.01252,0.27079,1.03897
148.946,21.12739,-0.01251903,0.27307,1.03776
152.146,21.43475,-0.01379384,0.27545,1.03653
155.346,21.7418,-0.01384026,0.27832,1.0353
158.546,22.04799,-0.0138368,0.28127,1.03405
161.746,22.35537,-0.01395905,0.28426,1.03279
164.946,22.66139,-0.01504401,0.28843,1.03153
168.146,22.9678,-0.01431766,0.29351,1.03025
171.346,23.27451,-0.01419777,0.29579,1.02895
174.546,23.5803,-0.01383966,0.29827,1.02765
177.746,23.88684,-0.01513395,0.30219,1.02633
180.946,24.193,-0.01415819,0.30294,1.02501
184.146,24.49871,-0.01316307,0.30269,1.02367
187.346,24.8035,-0.01346661,0.30528,1.02232
190.546,25.1097,-0.01251898,0.3077,1.02096
193.746,25.41456,-0.01252005,0.31057,1.01958
196.946,25.7194,-0.01377881,0.31263,1.0182
200.146,26.02454,-0.01218846,0.3161,1.0168
203.346,26.3292,-0.01383,0.31833,1.01539
206.546,26.63413,-0.0125197,0.32221,1.01397
209.746,26.93832,-0.01384001,0.32582,1.01254
212.946,27.2433,-0.01383,0.33058,1.01109
216.146,27.5482,-0.01283476,0.33256,1.00963
219.346,27.8522,-0.01411339,0.3378,1.00816
222.546,28.15713,-0.012753,0.34406,1.00668
225.746,28.4619,-0.01391806,0.34858,1.00519
228.946,28.7665,-0.01417,0.35559,1.00368
232.146,29.0715,-0.01515,0.3639,1.00217
235.346,29.3764,-0.01382498,0.37449,1.00064
238.546,29.681,-0.01514573,0.3902,0.9991
241.746,29.98675,-0.01449,0.41405,0.99754
244.946,30.292,-0.01581,0.45179,0.99598
248.146,30.59635,-0.01620176,0.53363,0.9944
251.346,30.90297,-0.01643542,0.86625,0.99281
254.546,31.2108,-0.01738648,1.20004,0.99121
257.746,31.51898,-0.01537095,1.32104,0.98959
260.946,31.8242,-0.01669,0.72941,0.98796
264.146,32.12579,-0.01920196,0.45867,0.98632
267.346,32.4284,-0.01725989,0.40859,0.98467
270.546,32.73234,-0.01767913,0.39577,0.98301
273.746,33.0362,-0.01667776,0.39415,0.98133
276.946,33.34064,-0.01745988,0.39211,0.97964
280.146,33.6453,-0.01778,0.39044,0.97794
283.346,33.9501,-0.01777999,0.39369,0.97623
286.546,34.2553,-0.0187683,0.39205,0.9745
289.746,34.56089,-0.01803628,0.39213,0.97276
292.946,34.86649,-0.01844,0.393,0.97101
296.146,35.17212,-0.01764194,0.39444,0.96925
299.346,35.47762,-0.01737438,0.39655,0.96747
302.546,35.78332,-0.0191,0.39824,0.96568
305.746,36.08919,-0.0191,0.39793,0.96388
308.946,36.3952,-0.0191,0.39752,0.96207
312.146,36.70152,-0.01908975,0.39525,0.96024
315.346,37.00862,-0.02141114,0.39596,0.9584
318.546,37.31469,-0.0200543,0.39666,0.95655
321.746,37.6222,-0.02042,0.3982,0.95469
324.946,37.92908,-0.02141032,0.39804,0.95281
328.146,38.23662,-0.02162403,0.39995,0.95092
331.346,38.54354,-0.02306,0.40208,0.94902
334.546,38.85148,-0.02272995,0.40448,0.94711
337.746,39.15968,-0.02307019,0.40582,0.94518
340.946,39.4675,-0.02436932,0.40613,0.94325
344.146,39.77517,-0.02437,0.41085,0.94129
347.346,40.08399,-0.02552135,0.41247,0.93933
350.546,40.39322,-0.02634952,0.41302,0.93735
353.746,40.70166,-0.0273391,0.41598,0.93537
356.946,41.01105,-0.02699832,0.41937,0.93336
360.146,41.31969,-0.02930923,0.42395,0.93135
363.346,41.6282,-0.03114108,0.43306,0.92933
366.546,41.93731,-0.03491028,0.43859,0.92729
369.746,42.2467,-0.03754066,0.44882,0.92524
372.946,42.55592,-0.03985004,0.45502,0.92317
376.146,42.86561,-0.04410947,0.46977,0.9211
379.346,43.176,-0.0482243,0.48309,0.91901
382.546,43.48652,-0.05790687,0.49958,0.91691
385.746,43.79841,-0.07025786,0.51004,0.91479
388.946,44.1098,-0.08748395,0.51492,0.91267
392.146,44.4213,-0.10408,0.52711,0.91053
395.346,44.73209,-0.12702,0.54589,0.90838
398.546,45.04323,-0.15801,0.55814,0.90622
401.746,45.3539,-0.19726,0.57585,0.90405
404.946,45.6657,-0.24286,0.59711,0.90186
408.146,45.9775,-0.29919,0.62053,0.89966
411.346,46.28934,-0.36968,0.64821,0.89745
414.546,46.60159,-0.45312,0.68964,0.89523
417.746,46.91407,-0.55646,0.7475,0.89299
420.946,47.2265,-0.68141,0.8049,0.89074
424.146,47.53862,-0.82952,0.84606,0.88848
427.346,47.8512,-1.00598,0.96169,0.88621
430.546,48.16385,-1.2111,0.98028,0.88393
433.746,48.4764,-1.43672,0.96488,0.88163
436.946,48.78921,-1.68027,0.97708,0.87933
440.146,49.10187,-1.93694,0.95591,0.87701
443.346,49.41514,-2.18904,0.90708,0.87468
446.546,49.72858,-2.42206,0.82507,0.87233
449.746,50.04123,-2.61924,0.72047,0.86998
452.946,50.3538,-2.76861,0.60753,0.86761
456.146,50.66686,-2.87328,0.50111,0.86523
459.346,50.9799,-2.94514,0.42289,0.86285
462.546,51.2935,-2.99713,0.36273,0.86044
465.746,51.60709,-3.03775,0.30866,0.85803
468.946,51.92049,-3.06737,0.26391,0.85561
472.146,52.23433,-3.08933,0.22589,0.85317
475.346,52.548,-3.10832,0.19496,0.85073
478.546,52.8627,-3.1242,0.1668,0.84827
481.746,53.17664,-3.13821,0.14562,0.8458
484.946,53.49085,-3.14881,0.13209,0.84332
488.146,53.80568,-3.15946,0.12352,0.84083
491.346,54.1219,-3.16528,0.11569,0.83832
494.546,54.43812,-3.17286,0.11137,0.83581
497.746,54.75379,-3.17921,0.1159,0.83329
500.946,55.06867,-3.18344,0.12696,0.83075
504.146,55.38466,-3.18739,0.124,0.82821
507.346,55.7006,-3.19299,0.12217,0.82565
510.546,56.0173,-3.19657,0.11438,0.82308
513.746,56.33376,-3.19959,0.11231,0.8205
516.946,56.6501,-3.20227,0.11403,0.81792
520.146,56.9661,-3.20623,0.11435,0.81532
523.346,57.28253,-3.20886,0.11416,0.81271
526.546,57.60011,-3.21248,0.11584,0.81009
529.746,57.9173,-3.21413,0.11953,0.80746
532.946,58.23497,-3.21544,0.11642,0.80482
536.146,58.553,-3.21705,0.1155,0.80217
539.346,58.86995,-3.21884,0.11475,0.79951
542.546,59.18719,-3.2205,0.11416,0.79684
545.746,59.50455,-3.22313,0.11547,0.79416
548.946,59.82264,-3.22544,0.11398,0.79147
552.146,60.13992,-3.2261,0.11315,0.78877
555.346,60.45776,-3.22873,0.11225,0.78606
558.546,60.77606,-3.23071,0.10904,0.78334
561.746,61.0942,-3.23371,0.1098,0.78062
564.946,61.4128,-3.23466,0.10954,0.77788
568.146,61.7318,-3.23637,0.10858,0.77513
571.346,62.05055,-3.23927,0.10366,0.77238
574.546,62.36923,-3.24091,0.10119,0.76962
577.746,62.68903,-3.24355,0.10861,0.76684
580.946,63.0074,-3.24454,0.10889,0.76406
584.146,63.32676,-3.24584,0.1046,0.76127
587.346,63.6461,-3.24773,0.10493,0.75847
590.546,63.9652,-3.24951,0.10573,0.75566
593.746,64.28517,-3.25442,0.10877,0.75285
596.946,64.60504,-3.25443,0.10705,0.75002
600.146,64.92475,-3.25694,0.10629,0.74719
603.346,65.24426,-3.25943,0.1065,0.74435
606.546,65.56413,-3.26176,0.11017,0.7415
609.746,65.88385,-3.26346,0.11299,0.73865
612.946,66.20263,-3.26629,0.12228,0.73578
616.146,66.5214,-3.26868,0.12766,0.73291
619.346,66.8416,-3.26983,0.12846,0.73003
622.546,67.16213,-3.27284,0.12751,0.72715
625.746,67.48173,-3.27293,0.13074,0.72425
628.946,67.8017,-3.27451,0.13025,0.72135
632.146,68.12213,-3.27714,0.13359,0.71844
635.346,68.44216,-3.27978,0.12991,0.71553
638.546,68.76253,-3.28075,0.12702,0.7126
641.746,69.08312,-3.28139,0.13049,0.70967
644.946,69.40435,-3.2834,0.13148,0.70674
648.146,69.7251,-3.28516,0.12965,0.7038
651.346,70.04619,-3.28735,0.13134,0.70085
654.546,70.36766,-3.28769,0.13106,0.69789
657.746,70.6885,-3.28911,0.13337,0.69493
660.946,71.00978,-3.28944,0.13178,0.69197
664.146,71.331,-3.29076,0.13181,0.68899
667.346,71.65224,-3.28939,0.13183,0.68601
670.546,71.97414,-3.29077,0.13057,0.68303
673.746,72.29525,-3.29232,0.13067,0.68004
676.946,72.6173,-3.29241,0.13717,0.67705
680.146,72.93845,-3.29366,0.12702,0.67404
683.346,73.25962,-3.29537,0.13021,0.67104
686.546,73.58105,-3.29636,0.12887,0.66803
689.746,73.90262,-3.29768,0.13178,0.66501
692.946,74.22377,-3.29845,0.12613,0.66199
696.146,74.5455,-3.29866,0.12565,0.65897
699.346,74.86779,-3.29965,0.11879,0.65594
702.546,75.19027,-3.29998,0.12444,0.6529
705.746,75.51176,-3.30272,0.11673,0.64987
708.946,75.83417,-3.30106,0.11734,0.64682
712.146,76.15665,-3.30283,0.11397,0.64378
715.346,76.47957,-3.3014,0.11423,0.64073
718.546,76.80165,-3.30371,0.11184,0.63767
721.746,77.1242,-3.30401,0.11231,0.63462
724.946,77.44663,-3.3037,0.11258,0.63156
728.146,77.76956,-3.30569,0.11294,0.62849
731.346,78.09221,-3.30452,0.11726,0.62543
734.546,78.41558,-3.307,0.11739,0.62236
737.746,78.7388,-3.30634,0.11185,0.61928
740.946,79.0617,-3.30765,0.10811,0.61621
744.146,79.38444,-3.308,0.10372,0.61313
747.346,79.70769,-3.30821,0.10136,0.61005
750.546,80.03099,-3.30832,0.09946324,0.60697
753.746,80.35592,-3.31095,0.09927651,0.60388
756.946,80.67968,-3.31063,0.0955605,0.60079
760.146,81.00391,-3.31062,0.08804523,0.5977
763.346,81.3272,-3.31194,0.09131858,0.59461
766.546,81.6511,-3.31164,0.08989266,0.59152
769.746,81.97508,-3.31195,0.08574889,0.58843
772.946,82.2987,-3.31195,0.08630092,0.58533
776.146,82.6232,-3.31285,0.08223418,0.58224
779.346,82.9477,-3.31315,0.09007324,0.57914
782.546,83.27206,-3.31315,0.08768082,0.57604
785.746,83.59562,-3.31315,0.09428963,0.57294
788.946,83.91935,-3.31316,0.10112,0.56984
792.146,84.2423,-3.31315,0.10771,0.56674
795.346,84.56582,-3.31381,0.11126,0.56364
798.546,84.8901,-3.31547,0.10513,0.56054
799.546,84.99161,-3.31448,0.10072,0.55957