Folder: fsri_materials_database/01_Data/Bean_Bag_Chair_Inner_Lining/STA/N2/30K_min

Note: 01_Data/README.md
# Materials and Products Database
## 01_Data

Raw data generated from each apparatus are included here in plain-text format. The data is organized first by material, next by the short name of test apparatus used, and where applicable additional filtering by test settings.

### material.json

Each material directory contains a json file of the same name as the material. This file links the data stored in the repository as well as data and graphs produced by the accompanying scripts (__02_Scripts__) to the respective landing page for the material on the front-end website.

File: Bean_Bag_Inner_Liner_STA_N2_30KData_220517_R3.csv
##Temp./Â°C,Time/min,Mass loss(subtr.2)/mg,DSC(subtr.2)/(mW/mg),Sensit./(uV/mW)
48.532,10.01,0.02043,-0.003517415,1.05401
51.832,10.89279,0.01847742,0.10459,1.05333
55.132,11.13225,0.01899362,0.18597,1.05264
58.432,11.31506,0.01976037,0.25142,1.05192
61.732,11.4733,0.01669508,0.30725,1.05118
65.032,11.61793,0.02694233,0.34811,1.05043
68.332,11.75278,0.02175245,0.38629,1.04965
71.632,11.88233,0.01756487,0.42747,1.04886
74.932,12.00711,0.01752886,0.46117,1.04805
78.232,12.1289,0.01761,0.48503,1.04721
81.532,12.24774,0.0208092,0.47883,1.04636
84.832,12.36525,0.01933751,0.4644,1.04549
88.132,12.48065,0.02191141,0.44971,1.0446
91.432,12.59384,0.01753565,0.44133,1.04369
94.732,12.70711,0.02077494,0.43443,1.04276
98.032,12.819,0.0196586,0.4345,1.04181
101.332,12.93015,0.01964948,0.43794,1.04084
104.632,13.0409,0.0214058,0.44641,1.03986
107.932,13.151,0.02041183,0.45954,1.03885
111.232,13.2613,0.02141015,0.47447,1.03783
114.532,13.37095,0.02138854,0.48954,1.03679
117.832,13.4803,0.02270181,0.50322,1.03573
121.132,13.5893,0.01854853,0.5236,1.03465
124.432,13.6979,0.01590369,0.53994,1.03356
127.732,13.80592,0.01714381,0.55575,1.03244
131.032,13.9135,0.02060276,0.56746,1.03131
134.332,14.02021,0.02160331,0.57695,1.03016
137.632,14.1265,0.02392317,0.58845,1.02899
140.932,14.2326,0.0253407,0.59964,1.02781
144.232,14.3378,0.02536056,0.61269,1.02661
147.532,14.44256,0.02734015,0.61905,1.02539
150.832,14.5473,0.02454193,0.63099,1.02415
154.132,14.65156,0.02210229,0.64185,1.02289
157.432,14.75531,0.01893328,0.65325,1.02162
160.732,14.859,0.01812425,0.66052,1.02033
164.032,14.9626,0.02074985,0.67146,1.01903
167.332,15.06543,0.02272633,0.6805,1.0177
170.632,15.16845,0.02270252,0.68401,1.01636
173.932,15.2712,0.01965656,0.68999,1.01501
177.232,15.37354,0.02009022,0.69518,1.01363
180.532,15.47535,0.02125886,0.70396,1.01225
183.832,15.57725,0.02068962,0.70962,1.01084
187.132,15.67855,0.01944004,0.71822,1.00942
190.432,15.7798,0.01941936,0.72283,1.00798
193.732,15.8807,0.02073973,0.72938,1.00652
197.032,15.98155,0.0220601,0.73709,1.00505
200.332,16.0821,0.01969793,0.74252,1.00357
203.632,16.18269,0.01976993,0.74796,1.00206
206.932,16.283,0.0197665,0.75632,1.00055
210.232,16.38324,0.0197085,0.76545,0.99901
213.532,16.48349,0.01876741,0.77559,0.99746
216.832,16.58352,0.02141328,0.7846,0.9959
220.132,16.68349,0.02206993,0.79679,0.99432
223.432,16.78332,0.0207496,0.8133,0.99273
226.732,16.88317,0.02209177,0.8342,0.99112
230.032,16.98285,0.02239345,0.85779,0.98949
233.332,17.0827,0.02238987,0.8858,0.98785
236.632,17.18243,0.02293547,0.92313,0.9862
239.932,17.28217,0.02157119,0.98218,0.98453
243.232,17.3818,0.02162244,1.08011,0.98284
246.532,17.48143,0.02031,1.33459,0.98115
249.832,17.58148,0.02063375,1.8087,0.97943
253.132,17.68146,0.02074288,2.33904,0.97771
256.432,17.78208,0.02284927,2.73061,0.97597
259.732,17.88239,0.02359335,2.49904,0.97421
263.032,17.98209,0.0220253,1.86678,0.97244
266.332,18.08132,0.02097061,1.45353,0.97066
269.632,18.1801,0.01964951,1.22995,0.96886
272.932,18.2789,0.0193129,1.11155,0.96705
276.232,18.37787,0.01963922,1.05096,0.96523
279.532,18.47702,0.01960018,1.01716,0.96339
282.832,18.57597,0.02096898,1.00445,0.96154
286.132,18.6751,0.02096148,0.99773,0.95968
289.432,18.7743,0.02227988,0.99595,0.95781
292.732,18.87349,0.02191347,0.99605,0.95592
296.032,18.973,0.01966323,0.99537,0.95401
299.332,19.07241,0.02096834,0.99487,0.9521
302.632,19.17192,0.02360234,0.99476,0.95017
305.932,19.27143,0.02491995,0.99664,0.94823
309.232,19.37108,0.0249199,0.99849,0.94628
312.532,19.47061,0.02623851,1.00042,0.94432
315.832,19.57035,0.02492,1.00402,0.94234
319.132,19.67011,0.02492,1.00658,0.94035
322.432,19.77005,0.02492072,1.0104,0.93835
325.732,19.86976,0.02229751,1.01527,0.93634
329.032,19.9699,0.02097,1.0179,0.93432
332.332,20.07003,0.02097022,1.02012,0.93228
335.632,20.1703,0.01965002,1.02156,0.93023
338.932,20.27052,0.02382238,1.02428,0.92818
342.232,20.371,0.02250892,1.02717,0.92611
345.532,20.4714,0.02086086,1.03486,0.92402
348.832,20.57187,0.0182194,1.03947,0.92193
352.132,20.6728,0.01688781,1.04512,0.91983
355.432,20.77364,0.0155049,1.04652,0.91771
358.732,20.8745,0.01755817,1.04819,0.91559
362.032,20.97534,0.02015314,1.04889,0.91345
365.332,21.07657,0.02159084,1.05214,0.91131
368.632,21.17781,0.02083786,1.05961,0.90915
371.932,21.27896,0.01955,1.0647,0.90699
375.232,21.38034,0.01690904,1.0731,0.90481
378.532,21.48163,0.01691008,1.0842,0.90262
381.832,21.58325,0.01558642,1.10215,0.90042
385.132,21.68457,0.01083263,1.11638,0.89822
388.432,21.7862,0.01163909,1.13882,0.896
391.732,21.88782,0.01032,1.16642,0.89377
395.032,21.98953,0.008999698,1.19423,0.89154
398.332,22.09121,0.007696315,1.22355,0.88929
401.632,22.19313,0.004848076,1.25428,0.88704
404.932,22.2954,-0.00680002,1.29976,0.88477
408.232,22.3976,-0.02152079,1.33509,0.8825
411.532,22.49992,-0.0387464,1.37482,0.88021
414.832,22.6025,-0.05019355,1.4106,0.87792
418.132,22.7053,-0.07787646,1.45201,0.87562
421.432,22.80769,-0.10571,1.39099,0.87331
424.732,22.9104,-0.1389,1.33139,0.871
428.032,23.0132,-0.18048,1.29779,0.86867
431.332,23.1161,-0.23182,1.32876,0.86633
434.632,23.2192,-0.28677,1.34348,0.86399
437.932,23.32244,-0.3625,1.29819,0.86164
441.232,23.42556,-0.4386,1.34444,0.85928
444.532,23.52903,-0.53607,1.47786,0.85691
447.832,23.63268,-0.66625,1.6647,0.85454
451.132,23.7364,-0.82182,1.87396,0.85215
454.432,23.84046,-1.00491,2.07579,0.84976
457.732,23.94462,-1.21788,2.20736,0.84736
461.032,24.0488,-1.45124,2.29013,0.84496
464.332,24.1536,-1.7117,2.30591,0.84254
467.632,24.25843,-1.98428,2.22016,0.84012
470.932,24.3628,-2.23134,2.03303,0.8377
474.232,24.46707,-2.43775,1.75776,0.83526
477.532,24.57111,-2.61222,1.43907,0.83282
480.832,24.67531,-2.73821,1.11016,0.83037
484.132,24.7793,-2.82346,0.83864,0.82791
487.432,24.88331,-2.88458,0.6266,0.82545
490.732,24.98757,-2.92709,0.45999,0.82298
494.032,25.09198,-2.95908,0.32553,0.82051
497.332,25.19633,-2.98462,0.22287,0.81802
500.632,25.301,-3.00264,0.1408,0.81553
503.932,25.40573,-3.01727,0.07910711,0.81304
507.232,25.51061,-3.02788,0.02994901,0.81054
510.532,25.6156,-3.03829,-0.002221577,0.80803
513.832,25.7206,-3.0469,-0.02454045,0.80552
517.132,25.8259,-3.05576,-0.03429237,0.803
520.432,25.9311,-3.06184,-0.03132058,0.80048
523.732,26.03624,-3.06795,-0.002802984,0.79795
527.032,26.14175,-3.07348,0.0128049,0.79541
530.332,26.24738,-3.08027,0.01201241,0.79287
533.632,26.35333,-3.0811,0.01277651,0.79033
536.932,26.4588,-3.0825,0.01065623,0.78777
540.232,26.56483,-3.08381,0.009019582,0.78522
543.532,26.6714,-3.08824,0.008498771,0.78266
546.832,26.7779,-3.09688,-0.0473355,0.78009
550.132,26.8841,-3.09596,0.02501127,0.77752
553.432,26.9907,-3.09746,0.02178973,0.77494
556.732,27.09726,-3.09908,0.004639882,0.77236
560.032,27.2039,-3.09938,-0.01148888,0.76978
563.332,27.31033,-3.10006,-0.02087579,0.76719
566.632,27.4174,-3.1014,-0.03011458,0.76459
569.932,27.52422,-3.10369,-0.03745476,0.762
573.232,27.63125,-3.10784,-0.04256293,0.75939
576.532,27.73828,-3.10994,-0.04688317,0.75679
579.832,27.8455,-3.10803,-0.05652306,0.75418
583.132,27.9528,-3.10851,-0.0618262,0.75156
586.432,28.0602,-3.10983,-0.06697065,0.74895
589.732,28.1677,-3.11247,-0.07763922,0.74632
593.032,28.27523,-3.11379,-0.08377869,0.7437
596.332,28.38265,-3.11389,-0.09222665,0.74107
599.632,28.4902,-3.11775,-0.09699362,0.73844
602.932,28.5984,-3.12532,-0.10235,0.7358
606.232,28.7063,-3.13172,-0.10407,0.73316
609.532,28.814,-3.13167,-0.10998,0.73052
612.832,28.922,-3.12896,-0.11707,0.72788
616.132,29.02989,-3.12904,-0.12214,0.72523
619.432,29.1379,-3.12772,-0.12288,0.72258
622.732,29.2461,-3.13388,-0.12063,0.71992
626.032,29.35422,-3.1368,-0.12329,0.71727
629.332,29.46234,-3.13936,-0.12219,0.71461
632.632,29.5706,-3.14464,-0.11927,0.71194
635.932,29.679,-3.14463,-0.11995,0.70928
639.232,29.7873,-3.14463,-0.11916,0.70661
642.532,29.89568,-3.14397,-0.12064,0.70395
645.832,30.00408,-3.14785,-0.11646,0.70127
649.132,30.1123,-3.15034,-0.11337,0.6986
652.432,30.22072,-3.15348,-0.1164,0.69593
655.732,30.3292,-3.15217,-0.11738,0.69325
659.032,30.43757,-3.15255,-0.11781,0.69057
662.332,30.54595,-3.15939,-0.12023,0.68789
665.632,30.6544,-3.16069,-0.12689,0.68521
668.932,30.763,-3.16263,-0.1314,0.68252
672.232,30.87163,-3.16044,-0.13218,0.67984
675.532,30.98025,-3.16307,-0.14005,0.67715
678.832,31.08904,-3.16439,-0.1496,0.67446
682.132,31.19752,-3.1665,-0.15785,0.67178
685.432,31.3063,-3.16923,-0.16224,0.66909
688.732,31.4148,-3.1676,-0.17003,0.66639
692.032,31.5241,-3.17194,-0.18696,0.6637
695.332,31.63288,-3.17323,-0.19213,0.66101
698.632,31.74193,-3.1746,-0.19911,0.65831
701.932,31.85091,-3.17761,-0.20893,0.65562
705.232,31.96005,-3.17756,-0.21786,0.65292
708.532,32.06909,-3.17797,-0.23275,0.65023
711.832,32.17832,-3.17119,-0.24761,0.64753
715.132,32.28781,-3.17181,-0.25997,0.64483
718.432,32.39713,-3.17813,-0.27278,0.64214
721.732,32.50663,-3.1802,-0.28863,0.63944
725.032,32.6158,-3.17747,-0.28996,0.63674
728.332,32.72569,-3.17484,-0.31148,0.63404
731.632,32.83567,-3.176,-0.3321,0.63135
734.932,32.94559,-3.17855,-0.35614,0.62865
738.232,33.05539,-3.17856,-0.37849,0.62595
741.532,33.1653,-3.17887,-0.40205,0.62326
744.832,33.27538,-3.18305,-0.42845,0.62056
748.132,33.38542,-3.18339,-0.4528,0.61786
751.432,33.49563,-3.18608,-0.47484,0.61517
754.732,33.6056,-3.18318,-0.50422,0.61247
758.032,33.7158,-3.18185,-0.53157,0.60978
761.332,33.82622,-3.18316,-0.55331,0.60708
764.632,33.93635,-3.18217,-0.58231,0.60439
767.932,34.0467,-3.1821,-0.60437,0.6017
771.232,34.15675,-3.18613,-0.62742,0.59901
774.532,34.26703,-3.18563,-0.64685,0.59632
777.832,34.3774,-3.18645,-0.66497,0.59363
781.132,34.48751,-3.18721,-0.67934,0.59094
784.432,34.59817,-3.18992,-0.69423,0.58825
787.732,34.70863,-3.19042,-0.70766,0.58557
791.032,34.8192,-3.1891,-0.7177,0.58288
794.332,34.92953,-3.18716,-0.72207,0.5802
796.432,34.99984,-3.18756,-0.7262,0.57849

File: Bean_Bag_Liner_STA_N2_30KData_220516_R1.csv
##Temp./Â°C,Time/min,Mass loss(subtr.2)/mg,DSC(subtr.2)/(mW/mg),Sensit./(uV/mW)
48.581,10.01,-0.00758,-0.00333232,1.054
51.881,10.8946,-0.006289316,0.13871,1.05332
55.181,11.1325,-0.00644614,0.23673,1.05263
58.481,11.31507,-0.007011567,0.30841,1.05191
61.781,11.473,-0.00797794,0.36718,1.05117
65.081,11.61698,-0.00674217,0.41954,1.05042
68.381,11.75184,-0.007103701,0.46107,1.04964
71.681,11.88033,-0.007156079,0.50466,1.04885
74.981,12.00495,-0.00669202,0.53878,1.04803
78.281,12.1267,-0.008017888,0.56098,1.0472
81.581,12.24531,-0.007818488,0.55844,1.04635
84.881,12.3626,-0.007992824,0.54357,1.04547
88.181,12.47728,-0.007902511,0.53266,1.04458
91.481,12.5908,-0.007899706,0.52216,1.04367
94.781,12.70393,-0.006933388,0.52061,1.04274
98.081,12.8156,-0.007856718,0.51862,1.04179
101.381,12.9267,-0.006538807,0.52529,1.04083
104.681,13.03777,-0.007954081,0.5376,1.03984
107.981,13.1482,-0.00790457,0.55001,1.03884
111.281,13.2585,-0.007904111,0.56907,1.03781
114.581,13.36864,-0.0078956,0.5844,1.03677
117.881,13.47802,-0.007988233,0.60156,1.03571
121.181,13.5872,-0.007820715,0.62367,1.03464
124.481,13.69607,-0.007899972,0.6385,1.03354
127.781,13.80419,-0.007923964,0.65572,1.03243
131.081,13.912,-0.007928477,0.66975,1.03129
134.381,14.01924,-0.009258286,0.68303,1.03014
137.681,14.1258,-0.0079,0.7007,1.02898
140.981,14.2319,-0.009220313,0.71554,1.02779
144.281,14.3374,-0.00790954,0.72737,1.02659
147.581,14.44251,-0.007853232,0.74225,1.02537
150.881,14.5471,-0.008873458,0.75487,1.02413
154.181,14.6516,-0.008881955,0.76629,1.02288
157.481,14.75542,-0.00888835,0.77788,1.0216
160.781,14.8592,-0.008219661,0.79214,1.02031
164.081,14.96285,-0.008225981,0.80203,1.01901
167.381,15.06599,-0.009551863,0.81058,1.01768
170.681,15.16894,-0.008891903,0.82042,1.01634
173.981,15.27169,-0.00889034,0.83205,1.01499
177.281,15.37389,-0.00889,0.84052,1.01361
180.581,15.47594,-0.00928452,0.85063,1.01222
183.881,15.57743,-0.007853271,0.86154,1.01082
187.181,15.67881,-0.009209999,0.87206,1.0094
190.481,15.77992,-0.009208825,0.87829,1.00796
193.781,15.8806,-0.009869999,0.88899,1.0065
197.081,15.98129,-0.008556511,0.89799,1.00503
200.381,16.08173,-0.008557716,0.90566,1.00354
203.681,16.18202,-0.00986987,0.91439,1.00204
206.981,16.28248,-0.01052743,0.92488,1.00052
210.281,16.38266,-0.0105112,0.93481,0.99899
213.581,16.48271,-0.01049728,0.94736,0.99744
216.881,16.58288,-0.009544174,0.95909,0.99588
220.181,16.68282,-0.008824373,0.97384,0.9943
223.481,16.7828,-0.008889983,0.99058,0.9927
226.781,16.8826,-0.01019827,1.01437,0.99109
230.081,16.98229,-0.01150787,1.0401,0.98947
233.381,17.08201,-0.01152019,1.06892,0.98783
236.681,17.18145,-0.01022677,1.10842,0.98617
239.981,17.28136,-0.009908804,1.17012,0.9845
243.281,17.38095,-0.01117795,1.27083,0.98282
246.581,17.48056,-0.009867954,1.51861,0.98112
249.881,17.5804,-0.00987,1.99238,0.97941
253.181,17.68072,-0.00987328,2.51419,0.97768
256.481,17.78131,-0.01118997,2.97385,0.97594
259.781,17.88168,-0.00986968,2.77785,0.97418
263.081,17.98118,-0.01119028,2.08665,0.97242
266.381,18.08054,-0.01119,1.63939,0.97063
269.681,18.1794,-0.01087464,1.40799,0.96884
272.981,18.2778,-0.00987188,1.28483,0.96703
276.281,18.37705,-0.009878664,1.22208,0.9652
279.581,18.47604,-0.01152691,1.18661,0.96337
282.881,18.57516,-0.01016627,1.17158,0.96152
286.181,18.67425,-0.01053,1.16255,0.95965
289.481,18.77349,-0.01053,1.1589,0.95778
292.781,18.87259,-0.01053231,1.15691,0.95589
296.081,18.97223,-0.01152004,1.15987,0.95399
299.381,19.0715,-0.01020127,1.15984,0.95207
302.681,19.17108,-0.01152098,1.16213,0.95014
305.981,19.27024,-0.01020526,1.16372,0.94821
309.281,19.37032,-0.0105301,1.16612,0.94625
312.581,19.4699,-0.01185,1.16296,0.94429
315.881,19.56964,-0.01185,1.1656,0.94231
319.181,19.6694,-0.01316748,1.16616,0.94032
322.481,19.7694,-0.01185147,1.1663,0.93832
325.781,19.86947,-0.01053933,1.16845,0.93631
329.081,19.96947,-0.01184752,1.16603,0.93429
332.381,20.0695,-0.01185,1.16894,0.93225
335.681,20.16964,-0.01317042,1.17151,0.9302
338.981,20.27028,-0.01317,1.17583,0.92814
342.281,20.37077,-0.01317,1.18262,0.92607
345.581,20.47108,-0.01318957,1.1866,0.92399
348.881,20.57175,-0.01383,1.19085,0.9219
352.181,20.67257,-0.01383026,1.19351,0.9198
355.481,20.77336,-0.0141251,1.20103,0.91768
358.781,20.87439,-0.01480867,1.2057,0.91556
362.081,20.97523,-0.01481002,1.21136,0.91342
365.381,21.0763,-0.0161596,1.21879,0.91128
368.681,21.17698,-0.01609536,1.2264,0.90912
371.981,21.27811,-0.01542356,1.23366,0.90695
375.281,21.37987,-0.01645948,1.24327,0.90478
378.581,21.48155,-0.01777999,1.25292,0.90259
381.881,21.5832,-0.01780433,1.26378,0.90039
385.181,21.68421,-0.01876003,1.27757,0.89818
388.481,21.78605,-0.02173523,1.29389,0.89597
391.781,21.88766,-0.02240886,1.31449,0.89374
395.081,21.98992,-0.02667721,1.34692,0.8915
398.381,22.09215,-0.03103835,1.3769,0.88926
401.681,22.1943,-0.03560972,1.41094,0.887
404.981,22.29674,-0.04369977,1.45648,0.88474
408.281,22.3991,-0.05501156,1.50605,0.88246
411.581,22.50132,-0.06129581,1.51114,0.88018
414.881,22.6039,-0.06279957,1.51828,0.87789
418.181,22.70616,-0.05531755,1.51806,0.87559
421.481,22.80919,-0.03532975,1.48885,0.87328
424.781,22.91179,-0.03263563,1.48208,0.87096
428.081,23.01416,-0.06588406,1.50614,0.86863
431.381,23.11678,-0.11109,1.55827,0.8663
434.681,23.21922,-0.17418,1.66938,0.86396
437.981,23.32229,-0.27034,1.8054,0.8616
441.281,23.42511,-0.38775,1.97521,0.85925
444.581,23.52805,-0.52288,2.11387,0.85688
447.881,23.63121,-0.68471,2.26245,0.8545
451.181,23.73433,-0.86589,2.37441,0.85212
454.481,23.83754,-1.07378,2.43407,0.84973
457.781,23.9409,-1.29972,2.49983,0.84733
461.081,24.0442,-1.54437,2.51952,0.84492
464.381,24.1477,-1.82015,2.48735,0.84251
467.681,24.25124,-2.07597,2.36435,0.84009
470.981,24.35473,-2.30648,2.1514,0.83766
474.281,24.45826,-2.51499,1.85659,0.83522
477.581,24.5617,-2.67089,1.52712,0.83278
480.881,24.66542,-2.78271,1.21715,0.83033
484.181,24.7692,-2.8582,0.97534,0.82788
487.481,24.8728,-2.91292,0.7859,0.82541
490.781,24.97679,-2.95445,0.62622,0.82294
494.081,25.08084,-2.98632,0.4901,0.82047
497.381,25.18497,-3.01016,0.3767,0.81799
500.681,25.28904,-3.02853,0.28239,0.8155
503.981,25.39398,-3.04609,0.21028,0.813
507.281,25.49861,-3.0604,0.15254,0.8105
510.581,25.60299,-3.0697,0.1003,0.808
513.881,25.70788,-3.08101,0.06516209,0.80548
517.181,25.81295,-3.09092,0.03627225,0.80296
520.481,25.9183,-3.09954,0.01702852,0.80044
523.781,26.024,-3.10449,-0.001037892,0.79791
527.081,26.1288,-3.10974,-0.01615965,0.79538
530.381,26.2347,-3.11461,-0.03018912,0.79283
533.681,26.34038,-3.11783,-0.04477277,0.79029
536.981,26.4461,-3.12161,-0.05658221,0.78774
540.281,26.552,-3.12312,-0.06760131,0.78518
543.581,26.65813,-3.1264,-0.07710729,0.78262
546.881,26.7642,-3.12895,-0.08712348,0.78005
550.181,26.87064,-3.13036,-0.08887781,0.77748
553.481,26.9768,-3.13069,-0.09400058,0.77491
556.781,27.08362,-3.132,-0.09871931,0.77233
560.081,27.19022,-3.13487,-0.1034,0.76974
563.381,27.29689,-3.14198,-0.10544,0.76715
566.681,27.4039,-3.14627,-0.11029,0.76456
569.981,27.5108,-3.14496,-0.11548,0.76196
573.281,27.6178,-3.14496,-0.12444,0.75936
576.581,27.72478,-3.14397,-0.1249,0.75675
579.881,27.83206,-3.14398,-0.13206,0.75414
583.181,27.93925,-3.14661,-0.13736,0.75152
586.481,28.04672,-3.14617,-0.13653,0.74891
589.781,28.154,-3.14838,-0.1409,0.74628
593.081,28.2616,-3.15074,-0.14349,0.74366
596.381,28.3691,-3.152,-0.14649,0.74103
599.681,28.47682,-3.15333,-0.14576,0.7384
602.981,28.58455,-3.15365,-0.14629,0.73576
606.281,28.69238,-3.15497,-0.14543,0.73312
609.581,28.80023,-3.15759,-0.14851,0.73048
612.881,28.9084,-3.1589,-0.14853,0.72784
616.181,29.0165,-3.16017,-0.15079,0.72519
619.481,29.12446,-3.16918,-0.15085,0.72254
622.781,29.2324,-3.17366,-0.15258,0.71988
626.081,29.3405,-3.17472,-0.15012,0.71723
629.381,29.4485,-3.17602,-0.14634,0.71457
632.681,29.55692,-3.17865,-0.14744,0.71191
635.981,29.665,-3.17998,-0.14591,0.70924
639.281,29.7732,-3.18198,-0.14596,0.70657
642.581,29.8815,-3.18338,-0.14574,0.70391
645.881,29.9897,-3.18457,-0.16172,0.70123
649.181,30.09798,-3.20558,-0.14958,0.69856
652.481,30.2064,-3.19889,-0.14332,0.69589
655.781,30.3148,-3.19511,-0.13988,0.69321
659.081,30.42313,-3.19149,-0.13944,0.69053
662.381,30.53149,-3.19008,-0.14308,0.68785
665.681,30.64003,-3.19008,-0.13983,0.68517
668.981,30.74837,-3.19008,-0.13888,0.68248
672.281,30.8566,-3.1914,-0.13566,0.6798
675.581,30.96528,-3.19271,-0.13493,0.67711
678.881,31.0737,-3.19403,-0.13593,0.67442
682.181,31.1823,-3.19305,-0.14279,0.67174
685.481,31.2909,-3.19535,-0.14794,0.66905
688.781,31.3994,-3.19666,-0.12614,0.66635
692.081,31.5081,-3.19666,-0.13405,0.66366
695.381,31.61658,-3.19798,-0.13507,0.66097
698.681,31.72523,-3.19905,-0.13863,0.65827
701.981,31.83404,-3.19798,-0.14725,0.65558
705.281,31.9427,-3.19931,-0.15102,0.65288
708.581,32.0516,-3.20009,-0.16131,0.65019
711.881,32.16033,-3.20062,-0.17391,0.64749
715.181,32.2691,-3.20194,-0.1833,0.64479
718.481,32.37784,-3.20326,-0.19102,0.6421
721.781,32.4867,-3.20357,-0.20246,0.6394
725.081,32.5955,-3.20466,-0.21412,0.6367
728.381,32.7044,-3.20594,-0.23249,0.634
731.681,32.8131,-3.2084,-0.25109,0.63131
734.981,32.92181,-3.20853,-0.27207,0.62861
738.281,33.0306,-3.20984,-0.29045,0.62591
741.581,33.1389,-3.21017,-0.31083,0.62322
744.881,33.24783,-3.20984,-0.32842,0.62052
748.181,33.35657,-3.20984,-0.34869,0.61782
751.481,33.46524,-3.21117,-0.37254,0.61513
754.781,33.5741,-3.21368,-0.39549,0.61243
758.081,33.68278,-3.21313,-0.41992,0.60974
761.381,33.79166,-3.21423,-0.44916,0.60704
764.681,33.90047,-3.2146,-0.47283,0.60435
767.981,34.00935,-3.21424,-0.50033,0.60166
771.281,34.11822,-3.21424,-0.52161,0.59897
774.581,34.22737,-3.21424,-0.5396,0.59628
777.881,34.33647,-3.21555,-0.55984,0.59359
781.181,34.44513,-3.21522,-0.57343,0.5909
784.481,34.55464,-3.21654,-0.59348,0.58821
787.781,34.66386,-3.21523,-0.60922,0.58553
791.081,34.77329,-3.21396,-0.62876,0.58284
794.381,34.88265,-3.21555,-0.63854,0.58016
797.681,34.9922,-3.21555,-0.6528,0.57748
797.881,34.999,-3.21555,-0.65388,0.57732