Folder: fsri_materials_database/01_Data/Bean_Bag_Chair_Inner_Lining/STA/N2/30K_min (part 2)

File: Bean_Bag_Liner_STA_N2_30KData_220517_R2.csv
##Temp./Â°C,Time/min,Mass loss(subtr.2)/mg,DSC(subtr.2)/(mW/mg),Sensit./(uV/mW)
48.675,10.01,0.01548,0.01598611,1.05398
51.875,10.8858,0.01815345,0.18784,1.05332
55.075,11.1206,0.017103,0.30405,1.05265
58.275,11.30048,0.01844536,0.39211,1.05196
61.475,11.45538,0.01890393,0.46873,1.05124
64.675,11.59609,0.0187205,0.5272,1.05051
67.875,11.72797,0.01888133,0.57801,1.04976
71.075,11.8535,0.01869726,0.62911,1.04899
74.275,11.975,0.01944509,0.67365,1.04821
77.475,12.09338,0.02033088,0.70882,1.0474
80.675,12.20885,0.01931968,0.7226,1.04658
83.875,12.32293,0.02017997,0.71873,1.04574
87.075,12.43481,0.02009032,0.71434,1.04488
90.275,12.54521,0.02161658,0.71362,1.04401
93.475,12.65461,0.02172395,0.71488,1.04311
96.675,12.76334,0.0213666,0.71753,1.0422
99.875,12.8713,0.0216227,0.72892,1.04127
103.075,12.9787,0.02162942,0.7412,1.04032
106.275,13.08606,0.02156363,0.75834,1.03936
109.475,13.19304,0.02027448,0.77928,1.03838
112.675,13.29981,0.02161999,0.80166,1.03738
115.875,13.4065,0.02047444,0.82228,1.03636
119.075,13.513,0.02030998,0.84422,1.03533
122.275,13.61844,0.02041588,0.8658,1.03427
125.475,13.7239,0.02163009,0.8861,1.03321
128.675,13.8288,0.02097276,0.90625,1.03212
131.875,13.93324,0.02080278,0.92552,1.03102
135.075,14.03706,0.02161557,0.94105,1.0299
138.275,14.1402,0.02031016,0.96288,1.02876
141.475,14.2433,0.02172567,0.98204,1.02761
144.675,14.34575,0.02163366,0.99706,1.02644
147.875,14.44766,0.02030391,1.01265,1.02526
151.075,14.54943,0.02163,1.0298,1.02406
154.275,14.6506,0.02163202,1.0469,1.02284
157.475,14.7516,0.022207,1.06219,1.02161
160.675,14.8525,0.02092415,1.07467,1.02036
163.875,14.9527,0.02162007,1.08902,1.01909
167.075,15.0525,0.02162419,1.10485,1.01781
170.275,15.1529,0.02096512,1.11408,1.01651
173.475,15.25278,0.02097006,1.12873,1.0152
176.675,15.35261,0.02162873,1.1432,1.01387
179.875,15.45169,0.02082936,1.15852,1.01252
183.075,15.55045,0.02031053,1.17152,1.01116
186.275,15.64884,0.02185154,1.18458,1.00979
189.475,15.7469,0.02159781,1.19545,1.0084
192.675,15.84506,0.02231411,1.2117,1.00699
195.875,15.9427,0.02097171,1.22128,1.00557
199.075,16.04041,0.02196173,1.23568,1.00413
202.275,16.13781,0.02195916,1.24434,1.00268
205.475,16.2349,0.02066405,1.25473,1.00122
208.675,16.3323,0.02195166,1.26624,0.99974
211.875,16.42931,0.02063997,1.27872,0.99824
215.075,16.52637,0.02064,1.29616,0.99673
218.275,16.62337,0.02064131,1.31054,0.99521
221.475,16.72029,0.02162156,1.32704,0.99367
224.675,16.817,0.02068704,1.34962,0.99212
227.875,16.9136,0.0212862,1.37223,0.99055
231.075,17.0102,0.02063792,1.39997,0.98897
234.275,17.10683,0.01966,1.43383,0.98738
237.475,17.20335,0.01981695,1.47741,0.98577
240.675,17.29983,0.02097,1.54285,0.98415
243.875,17.39631,0.02128951,1.6461,0.98251
247.075,17.4928,0.02129,1.87952,0.98086
250.275,17.5893,0.02129,2.27624,0.9792
253.475,17.68631,0.02129,2.72443,0.97753
256.675,17.78345,0.02129,3.20949,0.97584
259.875,17.88066,0.0212791,3.28572,0.97413
263.075,17.97758,0.02064,2.65075,0.97242
266.275,18.07368,0.02064,2.14577,0.97069
269.475,18.16941,0.02064,1.85501,0.96895
272.675,18.265,0.0209319,1.69759,0.9672
275.875,18.3607,0.02162,1.62006,0.96543
279.075,18.45636,0.0216205,1.57498,0.96365
282.275,18.55179,0.02031011,1.5533,0.96186
285.475,18.64817,0.02031,1.54134,0.96005
288.675,18.74427,0.02058306,1.53541,0.95824
291.875,18.8404,0.02096999,1.53526,0.95641
295.075,18.93666,0.01966914,1.53353,0.95457
298.275,19.03291,0.01957463,1.53405,0.95272
301.475,19.1294,0.02064071,1.53589,0.95085
304.675,19.22577,0.02063767,1.53851,0.94897
307.875,19.32222,0.02063986,1.54239,0.94709
311.075,19.41874,0.02201308,1.54175,0.94519
314.275,19.51547,0.01932961,1.5467,0.94328
317.475,19.61199,0.01932857,1.54609,0.94135
320.675,19.709,0.02063323,1.55049,0.93942
323.875,19.8056,0.01932998,1.55255,0.93747
327.075,19.9027,0.01932108,1.55546,0.93552
330.275,19.99994,0.01833987,1.55663,0.93355
333.475,20.0969,0.01965996,1.55893,0.93157
336.675,20.19416,0.01965999,1.5599,0.92958
339.875,20.29169,0.01865809,1.56311,0.92758
343.075,20.38899,0.01866898,1.56429,0.92557
346.275,20.48658,0.01765423,1.56391,0.92355
349.475,20.5841,0.01834,1.56816,0.92152
352.675,20.68186,0.01834,1.57268,0.91948
355.875,20.77975,0.01834,1.57328,0.91743
359.075,20.87714,0.01834,1.57878,0.91537
362.275,20.9752,0.01697247,1.58243,0.9133
365.475,21.07331,0.01665501,1.58656,0.91122
368.675,21.172,0.0167422,1.59157,0.90912
371.875,21.27001,0.01669,1.59609,0.90702
375.075,21.36831,0.01485132,1.60236,0.90491
378.275,21.46689,0.01404316,1.60988,0.90279
381.475,21.56504,0.01405705,1.61736,0.90066
384.675,21.6635,0.01274504,1.63629,0.89852
387.875,21.76221,0.01009436,1.66109,0.89637
391.075,21.86068,0.01009963,1.69114,0.89422
394.275,21.9595,0.007463395,1.72303,0.89205
397.475,22.0585,0.004833441,1.75897,0.88987
400.675,22.15758,-0.0005901742,1.79745,0.88769
403.875,22.2568,-0.009384313,1.84479,0.8855
407.075,22.35594,-0.01943913,1.87675,0.8833
410.275,22.45549,-0.030911,1.89853,0.88109
413.475,22.55519,-0.04581872,1.91476,0.87887
416.675,22.6546,-0.06252596,1.93835,0.87664
419.875,22.75413,-0.07836463,1.90168,0.8744
423.075,22.8537,-0.08285681,1.82356,0.87216
426.275,22.95325,-0.09027435,1.77217,0.86991
429.475,23.05255,-0.10503,1.7559,0.86765
432.675,23.15211,-0.1356,1.77233,0.86538
435.875,23.25177,-0.17775,1.83902,0.86311
439.075,23.35145,-0.23898,1.92475,0.86082
442.275,23.45137,-0.33368,2.00288,0.85853
445.475,23.5514,-0.4467,2.04884,0.85623
448.675,23.65118,-0.58015,2.13074,0.85393
451.875,23.7511,-0.74113,2.30228,0.85162
455.075,23.85127,-0.94878,2.49894,0.8493
458.275,23.95174,-1.16928,2.63259,0.84697
461.475,24.052,-1.43164,2.72552,0.84463
464.675,24.15263,-1.70011,2.75117,0.84229
467.875,24.25326,-1.9666,2.67635,0.83994
471.075,24.354,-2.22471,2.49859,0.83759
474.275,24.45451,-2.43563,2.24646,0.83523
477.475,24.55486,-2.61919,1.9494,0.83286
480.675,24.65555,-2.75184,1.65104,0.83049
483.875,24.75613,-2.84941,1.38451,0.8281
487.075,24.8565,-2.91907,1.17418,0.82572
490.275,24.95665,-2.97158,1.0056,0.82332
493.475,25.05741,-3.01287,0.85975,0.82092
496.675,25.1584,-3.04236,0.73994,0.81852
499.875,25.25928,-3.06933,0.64134,0.81611
503.075,25.36056,-3.09473,0.56795,0.81369
506.275,25.46194,-3.11258,0.50912,0.81127
509.475,25.56326,-3.12516,0.46345,0.80884
512.675,25.6649,-3.13775,0.43232,0.8064
515.875,25.76684,-3.14399,0.41953,0.80396
519.075,25.86882,-3.15044,0.40321,0.80152
522.275,25.97109,-3.15525,0.38702,0.79907
525.475,26.07376,-3.15959,0.37916,0.79661
528.675,26.17604,-3.16386,0.36816,0.79415
531.875,26.2784,-3.16699,0.36145,0.79168
535.075,26.3812,-3.17066,0.35589,0.78921
538.275,26.48378,-3.17292,0.3481,0.78674
541.475,26.5867,-3.17461,0.34348,0.78425
544.675,26.68957,-3.17866,0.34169,0.78177
547.875,26.79247,-3.18008,0.33762,0.77928
551.075,26.8956,-3.18372,0.33448,0.77678
554.275,26.99857,-3.18591,0.33334,0.77429
557.475,27.10182,-3.18659,0.33153,0.77178
560.675,27.205,-3.18788,0.33,0.76927
563.875,27.3084,-3.18973,0.32874,0.76676
567.075,27.4118,-3.19183,0.32342,0.76425
570.275,27.51544,-3.19315,0.32326,0.76173
573.475,27.6192,-3.19381,0.32116,0.7592
576.675,27.7229,-3.19513,0.31706,0.75668
579.875,27.82674,-3.19514,0.31798,0.75414
583.075,27.93078,-3.19661,0.31358,0.75161
586.275,28.0346,-3.1992,0.31276,0.74907
589.475,28.1386,-3.20217,0.3143,0.74653
592.675,28.24258,-3.20387,0.31174,0.74398
595.875,28.34705,-3.20642,0.31231,0.74143
599.075,28.45138,-3.20973,0.30894,0.73888
602.275,28.55573,-3.21137,0.30947,0.73633
605.475,28.6603,-3.21546,0.30807,0.73377
608.675,28.76453,-3.21736,0.30908,0.73121
611.875,28.86968,-3.21972,0.30837,0.72864
615.075,28.97418,-3.22104,0.3111,0.72608
618.275,29.07879,-3.22494,0.31676,0.72351
621.475,29.18396,-3.22727,0.31808,0.72093
624.675,29.28898,-3.22917,0.32023,0.71836
627.875,29.3942,-3.23185,0.3222,0.71578
631.075,29.4996,-3.23311,0.32339,0.7132
634.275,29.6048,-3.23477,0.32265,0.71062
637.475,29.71015,-3.23608,0.32383,0.70803
640.675,29.81539,-3.23847,0.3264,0.70545
643.875,29.9207,-3.24102,0.32755,0.70286
647.075,30.026,-3.2423,0.32613,0.70027
650.275,30.1314,-3.24235,0.32697,0.69768
653.475,30.23695,-3.24363,0.32479,0.69508
656.675,30.34236,-3.24497,0.32162,0.69248
659.875,30.44797,-3.24709,0.31812,0.68989
663.075,30.5533,-3.25256,0.31241,0.68729
666.275,30.6586,-3.25386,0.34166,0.68469
669.475,30.76415,-3.25486,0.31628,0.68208
672.675,30.8696,-3.25354,0.30786,0.67948
675.875,30.975,-3.25387,0.30166,0.67687
679.075,31.08059,-3.25491,0.29843,0.67427
682.275,31.186,-3.25649,0.29542,0.67166
685.475,31.29138,-3.25651,0.2915,0.66905
688.675,31.397,-3.25782,0.28276,0.66644
691.875,31.50243,-3.25783,0.27514,0.66383
695.075,31.60812,-3.25783,0.28056,0.66122
698.275,31.7134,-3.25919,0.27069,0.65861
701.475,31.819,-3.26113,0.26232,0.65599
704.675,31.92466,-3.2598,0.25449,0.65338
707.875,32.03015,-3.26111,0.2461,0.65076
711.075,32.1358,-3.26243,0.23485,0.64815
714.275,32.2412,-3.26375,0.22674,0.64554
717.475,32.34691,-3.26243,0.21324,0.64292
720.675,32.45254,-3.26375,0.20015,0.6403
723.875,32.55806,-3.26309,0.18763,0.63769
727.075,32.66383,-3.26437,0.17677,0.63507
730.275,32.7697,-3.26472,0.1746,0.63246
733.475,32.87534,-3.2656,0.15695,0.62984
736.675,32.98111,-3.26638,0.1391,0.62723
739.875,33.0869,-3.2677,0.12464,0.62461
743.075,33.19299,-3.26764,0.10189,0.62199
746.275,33.29894,-3.26913,0.08124133,0.61938
749.475,33.4049,-3.26913,0.06640643,0.61676
752.675,33.51099,-3.26974,0.04580158,0.61415
755.875,33.61722,-3.27032,0.02169543,0.61154
759.075,33.72341,-3.27051,0.0002350489,0.60892
762.275,33.82967,-3.27077,-0.01645818,0.60631
765.475,33.93594,-3.2721,-0.03718239,0.6037
768.675,34.0424,-3.27209,-0.06296904,0.60109
771.875,34.149,-3.27176,-0.07397738,0.59848
775.075,34.25529,-3.27353,-0.09454548,0.59587
778.275,34.36188,-3.2758,-0.11785,0.59327
781.475,34.46869,-3.27978,-0.14251,0.59066
784.675,34.57542,-3.28111,-0.16071,0.58805
787.875,34.68226,-3.2811,-0.18477,0.58545
791.075,34.78915,-3.28109,-0.20233,0.58285
794.275,34.89594,-3.28109,-0.22108,0.58025
797.375,34.9997,-3.28109,-0.23494,0.57773