Folder: fsri_materials_database/01_Data/Bean_Bag_Chair_Inner_Lining/STA/N2/3K_min

Note: 01_Data/README.md
# Materials and Products Database
## 01_Data

Raw data generated from each apparatus are included here in plain-text format. The data is organized first by material, next by the short name of test apparatus used, and where applicable additional filtering by test settings.

### material.json

Each material directory contains a json file of the same name as the material. This file links the data stored in the repository as well as data and graphs produced by the accompanying scripts (__02_Scripts__) to the respective landing page for the material on the front-end website.

File: Bean_Bag_Inner_Liner_STA_N2_3KData_220513_R1.csv
##Temp./Â°C,Time/min,Mass loss(subtr.)/mg,DSC(subtr.)/(mW/mg),Sensit./(uV/mW)
50.313,10.01667,-0.01448,0.009662831,1.05674
53.413,12.2753,-0.01699212,0.06115078,1.05639
56.513,13.4489,-0.01844212,0.06852704,1.05602
59.613,14.565,-0.0174194,0.07037905,1.05564
62.713,15.64445,-0.02057145,0.07666003,1.05525
65.813,16.698,-0.02001359,0.07898323,1.05484
68.913,17.74895,-0.02270752,0.07964282,1.05441
72.013,18.7926,-0.02304999,0.08072271,1.05397
75.113,19.82283,-0.02272072,0.07804165,1.05352
78.213,20.86506,-0.02345074,0.0749424,1.05305
81.313,21.9015,-0.02436937,0.07331137,1.05256
84.413,22.934,-0.02434914,0.07309539,1.05205
87.513,23.96384,-0.02701016,0.07310763,1.05154
90.613,24.9983,-0.02690688,0.07055658,1.051
93.713,26.02724,-0.02661269,0.07199693,1.05045
96.813,27.0558,-0.02734076,0.07475884,1.04988
99.913,28.08867,-0.02798353,0.07686476,1.0493
103.013,29.11569,-0.02830589,0.07996843,1.0487
106.113,30.13826,-0.02831544,0.08289245,1.04809
109.213,31.1592,-0.02807433,0.08611852,1.04746
112.313,32.18442,-0.02925573,0.08905528,1.04681
115.413,33.2036,-0.02963003,0.08970728,1.04614
118.513,34.23053,-0.0302742,0.09025575,1.04546
121.613,35.25445,-0.0306313,0.0910343,1.04477
124.713,36.27408,-0.03161736,0.09314213,1.04405
127.813,37.29323,-0.03095,0.09135243,1.04332
130.913,38.312,-0.03229805,0.09244639,1.04258
134.013,39.33251,-0.03193887,0.09517084,1.04182
137.113,40.34738,-0.03292018,0.09532059,1.04104
140.213,41.3628,-0.03293004,0.09817616,1.04024
143.313,42.37843,-0.03094984,0.10045,1.03943
146.413,43.3926,-0.03430095,0.10114,1.0386
149.513,44.40863,-0.03311027,0.10387,1.03775
152.613,45.4204,-0.03162002,0.10523,1.03688
155.713,46.42913,-0.03259745,0.10859,1.036
158.813,47.43967,-0.03168208,0.10727,1.03511
161.913,48.45545,-0.03228001,0.10759,1.03419
165.013,49.46633,-0.03327004,0.1087,1.03326
168.113,50.47354,-0.03293,0.11272,1.03231
171.213,51.48187,-0.03294169,0.11294,1.03134
174.313,52.4865,-0.03161985,0.10994,1.03036
177.413,53.49802,-0.03259519,0.11288,1.02936
180.513,54.51305,-0.03131042,0.11357,1.02834
183.613,55.5209,-0.03155545,0.1137,1.0273
186.713,56.52547,-0.03124485,0.11714,1.02625
189.813,57.5356,-0.03162,0.11748,1.02518
192.913,58.5424,-0.03240478,0.1193,1.02409
196.013,59.54851,-0.03095994,0.11888,1.02298
199.113,60.55425,-0.03058766,0.12026,1.02186
202.213,61.5604,-0.03194119,0.12147,1.02072
205.313,62.5668,-0.02996998,0.12264,1.01956
208.413,63.5724,-0.03191227,0.124,1.01838
211.513,64.57516,-0.03260041,0.12745,1.01719
214.613,65.57785,-0.03161987,0.12677,1.01597
217.713,66.58435,-0.03226999,0.12837,1.01474
220.813,67.58504,-0.03458998,0.12916,1.0135
223.913,68.59391,-0.03328879,0.13265,1.01223
227.013,69.5952,-0.03259811,0.13372,1.01095
230.113,70.60226,-0.03359999,0.13388,1.00965
233.213,71.61041,-0.03250295,0.13595,1.00833
236.313,72.6162,-0.03359,0.1408,1.00699
239.413,73.61999,-0.0332604,0.14611,1.00563
242.513,74.62016,-0.0335897,0.15317,1.00426
245.613,75.62531,-0.03359174,0.1622,1.00287
248.713,76.63479,-0.03293,0.18611,1.00146
251.813,77.6435,-0.03460217,0.2591,1.00003
254.913,78.66055,-0.03546598,0.52489,0.99859
258.013,79.66852,-0.0356206,0.38009,0.99712
261.113,80.66062,-0.03580355,0.21156,0.99564
264.213,81.66294,-0.03585865,0.15954,0.99414
267.313,82.66556,-0.03655257,0.15098,0.99263
270.413,83.66904,-0.03657701,0.14755,0.99109
273.513,84.67449,-0.03688,0.1471,0.98954
276.613,85.67917,-0.03656026,0.14677,0.98797
279.713,86.6883,-0.03786664,0.14628,0.98638
282.813,87.6957,-0.03689172,0.1463,0.98477
285.913,88.70082,-0.03852962,0.14626,0.98314
289.013,89.70902,-0.03820008,0.14852,0.9815
292.113,90.71681,-0.03590006,0.1459,0.97984
295.213,91.7235,-0.03852987,0.1474,0.97816
298.313,92.73089,-0.0368898,0.14874,0.97646
301.413,93.73729,-0.03626441,0.14946,0.97475
304.513,94.74485,-0.03753899,0.14903,0.97301
307.613,95.75409,-0.03819087,0.15,0.97126
310.713,96.76369,-0.03976532,0.1482,0.96949
313.813,97.7719,-0.03807098,0.14906,0.9677
316.913,98.78231,-0.04017999,0.15186,0.9659
320.013,99.79302,-0.03906828,0.15422,0.96407
323.113,100.804,-0.03985,0.15571,0.96223
326.213,101.8137,-0.04113184,0.15694,0.96037
329.313,102.822,-0.04084076,0.15451,0.9585
332.413,103.83,-0.04095542,0.15695,0.9566
335.513,104.843,-0.04116,0.15495,0.95469
338.613,105.859,-0.04277674,0.15867,0.95276
341.713,106.866,-0.04578451,0.16272,0.95081
344.813,107.882,-0.0467659,0.16197,0.94884
347.913,108.893,-0.04972982,0.16622,0.94686
351.013,109.907,-0.05408681,0.17227,0.94486
354.113,110.918,-0.05669402,0.179,0.94284
357.213,111.936,-0.06289054,0.18452,0.94081
360.313,112.9508,-0.06915916,0.19212,0.93875
363.413,113.963,-0.08199691,0.19151,0.93668
366.513,114.974,-0.09655256,0.18565,0.93459
369.613,115.993,-0.11219,0.1889,0.93249
372.713,117.01,-0.13617,0.19323,0.93036
375.813,118.027,-0.16548,0.19683,0.92822
378.913,119.045,-0.20052,0.20591,0.92607
382.013,120.059,-0.24168,0.21549,0.92389
385.113,121.076,-0.29634,0.22745,0.9217
388.213,122.0944,-0.36299,0.23756,0.91949
391.313,123.111,-0.44459,0.26496,0.91727
394.413,124.13,-0.54979,0.26504,0.91502
397.513,125.148,-0.67019,0.27481,0.91277
400.613,126.17,-0.81397,0.29745,0.91049
403.713,127.191,-0.98103,0.29952,0.9082
406.813,128.204,-1.17293,0.3199,0.90589
409.913,129.226,-1.38807,0.32621,0.90356
413.013,130.246,-1.62656,0.32763,0.90122
416.113,131.266,-1.87506,0.32429,0.89886
419.213,132.291,-2.12564,0.31246,0.89649
422.313,133.314,-2.36175,0.29001,0.89409
425.413,134.333,-2.56077,0.25604,0.89169
428.513,135.354,-2.71605,0.22024,0.88926
431.613,136.375,-2.82955,0.18415,0.88682
434.713,137.3921,-2.90605,0.16007,0.88437
437.813,138.418,-2.96191,0.13973,0.8819
440.913,139.445,-3.00311,0.12933,0.87941
444.013,140.469,-3.03452,0.11989,0.87691
447.113,141.489,-3.05952,0.10937,0.87439
450.213,142.51,-3.08065,0.10027,0.87186
453.313,143.532,-3.09502,0.09712431,0.86931
456.413,144.557,-3.10892,0.11813,0.86675
459.513,145.582,-3.12004,0.11637,0.86417
462.613,146.6044,-3.12928,0.10495,0.86157
465.713,147.628,-3.13744,0.09716642,0.85896
468.813,148.6551,-3.14309,0.09026457,0.85634
471.913,149.686,-3.14972,0.08046346,0.8537
475.013,150.715,-3.15393,0.07339538,0.85105
478.113,151.738,-3.16055,0.07216049,0.84838
481.213,152.764,-3.16488,0.06714353,0.8457
484.313,153.7963,-3.1691,0.06478604,0.843
487.413,154.825,-3.17288,0.06256196,0.84029
490.513,155.853,-3.1747,0.06311348,0.83757
493.613,156.884,-3.17867,0.06092168,0.83483
496.713,157.9129,-3.18075,0.05979143,0.83207
499.813,158.942,-3.18392,0.06019149,0.82931
502.913,159.971,-3.18521,0.05863597,0.82653
506.013,161.005,-3.18854,0.05523179,0.82374
509.113,162.0332,-3.19118,0.05421318,0.82093
512.213,163.0634,-3.19418,0.05994252,0.81811
515.313,164.097,-3.19716,0.05873328,0.81528
518.413,165.134,-3.19909,0.0587932,0.81243
521.513,166.162,-3.19974,0.06098927,0.80957
524.613,167.191,-3.20139,0.06065855,0.8067
527.713,168.226,-3.20337,0.06273833,0.80382
530.813,169.258,-3.20435,0.06456262,0.80092
533.913,170.289,-3.20454,0.06377333,0.79801
537.013,171.325,-3.20765,0.06083514,0.79509
540.113,172.3598,-3.2106,0.06320277,0.79216
543.213,173.395,-3.21127,0.06332104,0.78922
546.313,174.428,-3.21259,0.0668552,0.78626
549.413,175.464,-3.21423,0.06546037,0.78329
552.513,176.501,-3.21489,0.07088311,0.78031
555.613,177.534,-3.21819,0.07436638,0.77732
558.713,178.567,-3.22015,0.0751755,0.77432
561.813,179.605,-3.22115,0.06785676,0.77131
564.913,180.6441,-3.22167,0.07042371,0.76829
568.013,181.681,-3.22543,0.07008914,0.76525
571.113,182.7157,-3.2267,0.0662075,0.76221
574.213,183.7548,-3.22841,0.06879197,0.75915
577.313,184.795,-3.23038,0.07095196,0.75609
580.413,185.828,-3.23432,0.08521991,0.75301
583.513,186.863,-3.23432,0.08431958,0.74993
586.613,187.906,-3.23566,0.08062439,0.74684
589.713,188.937,-3.23957,0.07994361,0.74373
592.813,189.978,-3.24188,0.07928014,0.74062
595.913,191.021,-3.24357,0.07787538,0.73749
599.013,192.06,-3.24354,0.08169927,0.73436
602.113,193.097,-3.24589,0.08487784,0.73122
605.213,194.136,-3.24727,0.08599884,0.72807
608.313,195.175,-3.24764,0.09313126,0.72491
611.413,196.211,-3.2475,0.09685558,0.72175
614.513,197.249,-3.24849,0.0965291,0.71857
617.613,198.288,-3.24981,0.09283627,0.71539
620.713,199.324,-3.24946,0.09769527,0.7122
623.813,200.364,-3.25178,0.10144,0.709
626.913,201.4012,-3.25011,0.10459,0.70579
630.013,202.443,-3.25277,0.1037,0.70258
633.113,203.489,-3.25369,0.10438,0.69936
636.213,204.531,-3.25309,0.10623,0.69613
639.313,205.567,-3.25606,0.10899,0.6929
642.413,206.61,-3.2554,0.11433,0.68965
645.513,207.647,-3.25573,0.11749,0.68641
648.613,208.691,-3.25541,0.11926,0.68315
651.713,209.729,-3.2564,0.11697,0.67989
654.813,210.77,-3.25691,0.12367,0.67662
657.913,211.809,-3.25837,0.12552,0.67335
661.013,212.852,-3.25837,0.12625,0.67007
664.113,213.899,-3.25738,0.12273,0.66679
667.213,214.942,-3.25837,0.12308,0.6635
670.313,215.982,-3.25902,0.12688,0.6602
673.413,217.027,-3.25902,0.12815,0.65691
676.513,218.073,-3.25817,0.1234,0.6536
679.613,219.112,-3.259,0.11787,0.65029
682.713,220.155,-3.25902,0.11324,0.64698
685.813,221.2,-3.2587,0.11674,0.64366
688.913,222.241,-3.261,0.11503,0.64034
692.013,223.285,-3.26298,0.11498,0.63701
695.113,224.332,-3.26463,0.11804,0.63369
698.213,225.378,-3.26364,0.11477,0.63035
701.313,226.424,-3.26298,0.10986,0.62702
704.413,227.471,-3.26505,0.11423,0.62368
707.513,228.51,-3.26297,0.11508,0.62034
710.613,229.557,-3.26419,0.10886,0.61699
713.713,230.603,-3.26733,0.10676,0.61364
716.813,231.652,-3.26594,0.09853247,0.61029
719.913,232.693,-3.26836,0.10093,0.60694
723.013,233.736,-3.26735,0.09443617,0.60359
726.113,234.786,-3.26759,0.08448713,0.60023
729.213,235.83,-3.26891,0.07965172,0.59687
732.313,236.879,-3.26924,0.07869885,0.59351
735.413,237.925,-3.26963,0.07611985,0.59015
738.513,238.972,-3.26195,0.06847236,0.58679
741.613,240.017,-3.27329,0.07097912,0.58343
744.713,241.067,-3.26967,0.0621208,0.58006
747.813,242.118,-3.26868,0.05463168,0.5767
750.913,243.164,-3.27,0.04142164,0.57334
751.413,243.333,-3.27,0.04174076,0.57279