Folder: fsri_materials_database/01_Data/LW_Gypsum/Cone (part 2)

File: LW_Gypsum_Cone_HF50Scan_220506_R3.csv
Names,Time,Stack TC,Smoke TC,Exh Press,Smoke Comp,Smoke Meas,CO Meter,CO2 Meter,O2 Meter,Sample Mass,Ext Coeff,Start Test,Flame Verif
Chan Gain,,500,500,1,1,1,1,1,1,1,1,1.0,1.0
Offset,,0,0,0.135316,0,0,0,0,0,0,0,0.0,0.0
Gain,,1,1,25.011,13.8443,15.4071,1,1,1,1.00079,1.02936,1.0,1.0
Units,sec,C,C,Pa,%,%,%,%,%,g,/m,,
Baseline,,31.0786,32.1165,136.308,104.387,104.47,0.000196138,0.0418081,21.0043,-447.133,-0.00722223,,
7,1.5,28.8388,29.7843,136.531,104.609,104.5,0.000130917,0.0436021,21.0027,114.831,0.0093587,0.0,0.0
14,3.25,28.3568,29.1024,134.965,104.604,104.609,0.000155988,0.0430613,21.0031,114.841,-0.000462323,0.0,0.0
21,5,28.7712,29.9636,135.301,104.581,104.656,0.000156441,0.0425924,21.0034,114.761,-0.00644937,0.0,0.0
28,6.75,28.9589,30.1194,138.084,104.545,104.414,0.000172378,0.0422289,21.0035,114.72,0.011366,0.0,0.0
35,8.5,28.9591,29.3626,133.201,104.51,104.266,0.000195678,0.0419002,21.0035,114.71,0.0211125,0.0,0.0
42,10.25,28.8766,29.798,137.67,104.49,104.461,0.000213564,0.0418539,21.0041,114.68,0.00251841,0.0,0.0
49,12,28.7595,30.2107,136.118,104.468,104.048,0.000201762,0.0417846,21.0055,114.62,0.0363798,0.0,0.0
56,13.75,29.2964,30.2295,136.242,104.432,104.423,0.000138976,0.0416311,21.0056,114.54,0.000730842,0.0,0.0
63,15.5,28.885,29.8771,132.483,104.396,103.923,7.73517e-05,0.0416388,21.005,114.53,0.0409478,0.0,0.0
70,17.25,29.2382,29.8463,135.913,104.382,104.339,9.62966e-05,0.0416857,21.0047,114.43,0.00374185,0.0,0.0
77,19,29.2332,30.7619,135.602,104.355,104.007,0.000205612,0.0417431,21.0046,114.37,0.0301704,0.0,0.0
84,20.75,29.5474,30.4246,131.951,104.321,103.407,0.00034802,0.0418836,21.0046,114.26,0.0794821,0.0,0.0
91,22.5,29.9317,30.5815,135.669,104.295,102.839,0.000567957,0.0422796,21.0045,114.24,0.126948,0.0,0.0
98,24.25,29.7208,30.7302,137.83,104.237,101.614,0.000889893,0.0427254,21.0029,114.09,0.230129,0.0,0.0
105,26,29.8585,30.6693,133.133,104.199,100.324,0.00127509,0.0439297,20.9989,114.09,0.342253,0.0,0.0
112,27.75,29.3031,30.8964,139.708,104.169,99.1467,0.00165632,0.060496,20.97,113.98,0.446202,0.0,0.0
119,29.5,30.2062,31.0287,123.182,104.115,108.279,0.0019312,0.125932,20.8902,113.73,-0.354052,0.0,1.0
126,31.25,31.0925,31.3149,118.865,104.075,108.836,0.00218562,0.241285,20.7676,113.45,-0.403915,0.0,1.0
133,33,33.2225,32.8744,117.846,104.039,108.472,0.0023738,0.342983,20.66,113.069,-0.376787,0.0,1.0
140,34.75,34.8481,34.9035,116.027,103.992,108.63,0.00248728,0.404939,20.5911,112.749,-0.394002,0.0,0.0
147,36.5,36.9504,36.0938,115.114,103.941,107.537,0.00254247,0.421628,20.5668,112.519,-0.307076,0.0,0.0
154,38.25,38.3261,37.5841,124.886,103.892,106.889,0.00281118,0.39849,20.5962,112.319,-0.256842,0.0,0.0
161,40,39.2358,39.0016,128.368,103.847,106.301,0.00336597,0.350275,20.6517,112.088,-0.210873,0.0,0.0
168,41.75,40.1223,39.8481,135.491,103.815,104.811,0.00473799,0.290353,20.7296,112.028,-0.0861998,0.0,0.0
175,43.5,40.008,39.868,130.525,103.768,104.514,0.00644485,0.237371,20.7978,111.888,-0.0646873,0.0,0.0
182,45.25,39.8366,39.844,132.51,103.72,104.177,0.00822622,0.18353,20.8538,111.808,-0.0397439,0.0,0.0
189,47,38.9205,39.5198,136.334,103.686,103.983,0.0095249,0.145865,20.8942,111.648,-0.0257998,0.0,0.0
196,48.75,38.185,39.575,132.859,103.657,104.634,0.0102649,0.122373,20.9187,111.588,-0.0847144,0.0,0.0
203,50.5,38.0494,39.3888,133.369,103.626,104.096,0.0105539,0.109403,20.9316,111.488,-0.0408964,0.0,0.0
210,52.25,38.1797,39.2911,134.862,103.596,104.149,0.010607,0.102096,20.9382,111.308,-0.0481179,0.0,0.0
217,54,37.6436,39.1343,136.95,103.572,103.643,0.0105376,0.0978922,20.944,111.238,-0.00617523,0.0,0.0
224,55.75,37.2504,38.0777,134.158,103.556,103.708,0.010384,0.095324,20.9463,111.168,-0.0132219,0.0,0.0
231,57.5,37.0857,37.5979,134.713,103.522,103.966,0.0101365,0.0938084,20.9429,111.068,-0.0386163,0.0,0.0
238,59.25,37.2563,38.3671,136.163,103.48,103.966,0.00989202,0.0929665,20.9411,110.998,-0.0423433,0.0,0.0
245,61,36.6323,37.7658,134.305,103.454,103.922,0.0096918,0.0920359,20.9402,110.907,-0.0408299,0.0,0.0
252,62.75,36.61,38.1258,136.941,103.436,103.704,0.00944256,0.0907819,20.9398,110.817,-0.0233627,0.0,0.0
259,64.5,36.609,37.9697,135.389,103.424,103.882,0.00909181,0.0891405,20.9412,110.757,-0.0399022,0.0,0.0
266,66.25,36.1789,37.6178,136.367,103.396,104.078,0.00867858,0.0869177,20.9442,110.527,-0.0593181,0.0,0.0
273,68,35.8488,37.8631,134.721,103.372,103.728,0.00839901,0.0853938,20.9465,110.447,-0.0310211,0.0,0.0
280,69.75,35.5589,37.5019,130.802,103.366,103.826,0.00824558,0.0843011,20.9476,110.487,-0.0400471,0.0,0.0
287,71.5,35.7133,37.0183,135.745,103.351,103.756,0.00811465,0.0839003,20.9481,110.347,-0.0353225,0.0,0.0
294,73.25,34.9607,37.3126,135.772,103.347,103.442,0.00796633,0.0834345,20.9484,110.277,-0.00831952,0.0,0.0
301,75,35.466,36.822,135.389,103.331,103.535,0.00778713,0.082491,20.9493,110.157,-0.0177677,0.0,0.0
308,76.75,35.0577,36.8611,134.479,103.329,103.701,0.00762559,0.0814369,20.9503,110.057,-0.0324523,0.0,0.0
315,78.5,34.6648,36.6735,132.875,103.327,103.195,0.00748654,0.0802698,20.9513,109.957,0.0116004,0.0,0.0
322,80.25,35.062,36.4992,130.986,103.35,103.76,0.0073805,0.0794817,20.9527,109.927,-0.0357229,0.0,0.0
329,82,34.9466,36.5169,133.898,103.345,103.48,0.00732084,0.0789948,20.954,109.887,-0.0118282,0.0,0.0
336,83.75,33.9895,36.3836,135.741,103.334,104.111,0.00730737,0.0785107,20.9552,109.737,-0.0677168,0.0,0.0
343,85.5,34.017,36.0806,132.523,103.35,103.673,0.00733727,0.0784122,20.9558,109.697,-0.0281544,0.0,0.0
350,87.25,33.9907,36.2024,134.371,103.364,103.76,0.00732247,0.078491,20.9561,109.576,-0.0345051,0.0,0.0
357,89,33.3562,35.6569,135.749,103.375,103.834,0.00713403,0.0779582,20.9569,109.506,-0.0400455,0.0,0.0
364,90.75,33.4072,36.0208,132.131,103.369,103.977,0.00686017,0.0770322,20.9578,109.416,-0.0529418,0.0,0.0
371,92.5,33.9662,35.3626,134.382,103.38,103.775,0.00664378,0.0762862,20.9582,109.426,-0.0344154,0.0,0.0
378,94.25,33.418,36.0077,135.259,103.402,103.679,0.00650766,0.0756971,20.9584,109.206,-0.0241435,0.0,0.0
385,96,33.5139,34.9976,131.782,103.415,104.066,0.0064319,0.075221,20.9588,109.216,-0.0567159,0.0,0.0
392,97.75,33.2174,35.5862,133.822,103.439,103.756,0.0064007,0.0748236,20.9599,109.056,-0.0275698,0.0,0.0
399,99.5,33.4548,35.7348,135.668,103.458,103.931,0.00633925,0.0744229,20.9617,109.026,-0.0412376,0.0,0.0
406,101.25,33.7096,35.4492,137.15,103.478,103.993,0.00622436,0.0735985,20.9634,108.916,-0.0448537,0.0,0.0
413,103,33.4087,35.0306,140.32,103.51,103.711,0.00605477,0.0727355,20.9646,108.876,-0.0175655,0.0,0.0
420,104.75,33.8315,35.2239,131.682,103.546,103.969,0.00581817,0.0716662,20.9655,108.786,-0.0368009,0.0,0.0
427,106.5,32.4613,35.2328,135.456,103.585,103.699,0.00554511,0.0703752,20.9666,108.756,-0.00986516,0.0,0.0
434,108.25,32.9643,35.5162,132.856,103.612,103.919,0.00511766,0.0688178,20.9681,108.706,-0.0266488,0.0,0.0
441,110,33.185,35.2323,135.417,103.664,103.89,0.00470156,0.0667364,20.9686,108.516,-0.0196694,0.0,0.0
448,111.75,32.9873,35.2519,136.061,103.706,103.982,0.00432749,0.0645861,20.9722,108.546,-0.0239514,0.0,0.0
455,113.5,33.2891,34.6956,135.282,103.731,103.96,0.00405825,0.062765,20.9752,108.446,-0.0198625,0.0,0.0
462,115.25,32.8549,34.5315,134.505,103.762,104.06,0.00377813,0.0605114,20.9773,108.386,-0.0259498,0.0,0.0
469,117,32.5209,34.5483,138.607,103.797,104.294,0.00343847,0.0583443,20.9803,108.305,-0.0431166,0.0,0.0
476,118.75,33.0477,34.6537,136.032,103.862,103.975,0.00304224,0.0561945,20.9829,108.255,-0.00977518,0.0,0.0
483,120.5,32.6869,34.7395,131.753,103.872,104.417,0.00252363,0.0541761,20.9851,108.185,-0.0472728,0.0,0.0
490,122.25,32.4737,34.5028,138.421,103.913,103.966,0.00210725,0.0523335,20.9872,108.175,-0.00459307,0.0,0.0
497,124,32.736,34.3873,138.238,103.958,104.128,0.00185421,0.050603,20.9901,108.015,-0.0148201,0.0,0.0
504,125.75,33.0058,34.3497,134.764,104.012,104.459,0.00160995,0.0490919,20.9933,107.935,-0.0387422,0.0,0.0
511,127.5,32.3966,34.4648,136.275,104.065,104.066,0.00138735,0.0480985,20.9955,107.885,-0.000157693,0.0,0.0
518,129.25,32.318,34.4657,135.913,104.093,104.198,0.00116071,0.0468968,20.9972,107.855,-0.00911682,0.0,0.0
525,131,31.9893,34.3877,135.863,104.151,104.066,0.00102283,0.0461376,20.9979,107.825,0.00735846,0.0,0.0
532,132.75,32.2455,33.6143,133.729,104.212,104.596,0.00094852,0.0454417,20.9979,107.825,-0.0331567,0.0,0.0
539,134.5,31.7171,33.6183,133.866,104.261,104.583,0.00092071,0.0450416,20.9989,107.815,-0.0278111,0.0,0.0
546,136.25,32.0913,34.0313,131.907,104.322,105.118,0.000888816,0.0446548,21.0002,107.585,-0.0686268,0.0,0.0
553,138,32.1078,33.9324,137.636,104.376,104.333,0.000749992,0.0441731,21.0014,107.605,0.00367729,0.0,0.0
560,139.75,31.8161,34.0576,133.011,104.451,104.866,0.000537922,0.0438163,21.002,107.605,-0.0358023,0.0,0.0
567,141.5,31.7709,33.581,131.685,104.505,104.852,0.000352526,0.0436212,21.0023,107.525,-0.0299583,0.0,0.0
574,143.25,31.749,33.6222,133.342,104.561,104.925,0.000326327,0.0435515,21.0024,107.515,-0.0314521,0.0,0.0
581,145,31.9574,33.6833,137.725,104.62,105.264,0.000434725,0.0433422,21.0025,107.385,-0.0554351,0.0,0.0
588,146.75,31.5906,33.5406,135.436,104.678,104.789,0.000576499,0.0431512,21.0036,107.435,-0.00960924,0.0,0.0
595,148.5,31.8888,34.0508,135.472,104.75,104.709,0.000707952,0.0429427,21.0041,107.335,0.00358799,0.0,0.0
602,150.25,31.7118,33.1489,133.984,104.802,104.634,0.00081916,0.0429052,21.0039,107.295,0.0144745,0.0,0.0
609,152,31.4399,33.2087,135.499,104.849,105.57,0.000838528,0.0429691,21.0037,107.255,-0.0618305,0.0,0.0
616,153.75,31.966,33.6051,134.007,104.895,105.494,0.000764017,0.0430907,21.0027,107.195,-0.0514288,0.0,0.0
623,155.5,31.8821,33.6428,134.021,104.932,105.468,,0.0430684,,107.175,-0.0460113,0.0,0.0
630,157.25,32.1727,34.2025,135.669,104.985,105.103,,,,107.145,-0.0101362,0.0,0.0
637,159,31.0715,33.6474,135.479,105.003,105.478,,,,107.064,-0.0407148,0.0,0.0
644,160.75,31.8534,33.626,138.499,105.038,105.477,,,,107.004,-0.0377321,0.0,0.0
651,162.5,31.9213,33.6308,131.927,105.065,105.614,,,,106.984,-0.0470732,0.0,0.0
658,164.25,31.7134,32.6195,133.766,105.108,105.295,,,,106.894,-0.0160741,0.0,0.0
660,164.75,31.2214,33.1548,134.699,105.108,105.579,,,,106.884,-0.0403628,0.0,0.0

File: LW_Gypsum_Cone_HF75Scalar_220506_R1.csv
LABORATORY,FSRI
TEST IDENT,LW_Gypsum_HF75_1
OPERATOR,Dow
MATERIAL,lightweight gypsum
ORIENTATION,Horizontal
HEAT FLUX,75
SURF AREA,0.01
C FACTOR,0.0414606
SPEC HOLDER DIFF,-566
SPECIMEN MASS,64.68
SCAN TIME,0.25
O2 DELAY TIME,11
CO DELAY TIME,11
CO2 DELAY TIME,8
FLOW FACTOR,1
SCAN COUNT,599
TIME TO IGN,17.5
END OF TEST SCAN,119
END OF TEST TIME,29.75
TEST STATUS,1
PRE TEST CMT,Dimensions: 102.05 x 99.11 x 12.57 mm

File: LW_Gypsum_Cone_HF75Scalar_220506_R2.csv
LABORATORY,FSRI
TEST IDENT,LW_Gypsum_HF75_2
OPERATOR,Dow
MATERIAL,lightweight gypsum
ORIENTATION,Horizontal
HEAT FLUX,75
SURF AREA,0.01
C FACTOR,0.0414606
SPEC HOLDER DIFF,-566
SPECIMEN MASS,64.64
SCAN TIME,0.25
O2 DELAY TIME,11
CO DELAY TIME,11
CO2 DELAY TIME,8
FLOW FACTOR,1
SCAN COUNT,596
TIME TO IGN,15.75
END OF TEST SCAN,116
END OF TEST TIME,29
TEST STATUS,1
PRE TEST CMT,Dimensions: 99.12 x 101.54 x 12.68 mm

File: LW_Gypsum_Cone_HF75Scan_220506_R1.csv
Names,Time,Stack TC,Smoke TC,Exh Press,Smoke Comp,Smoke Meas,CO Meter,CO2 Meter,O2 Meter,Sample Mass,Ext Coeff,Start Test,Flame Verif
Chan Gain,,500,500,1,1,1,1,1,1,1,1,1.0,1.0
Offset,,0,0,0.135316,0,0,0,0,0,0,0,0.0,0.0
Gain,,1,1,25.011,13.8443,15.4071,1,1,1,1.00079,1.02936,1.0,1.0
Units,sec,C,C,Pa,%,%,%,%,%,g,/m,,
Baseline,,39.189,40.713,132.491,104.624,106.098,0.000486203,0.0416808,20.9986,-447.495,-0.126163,,
7,1.5,36.7773,38.7323,134.412,104.209,105.543,0.000576485,0.0459818,20.9952,109.767,-0.114907,0.0,0.0
14,3.25,37.446,38.6242,133.628,104.184,106.299,0.000477862,0.045742,20.9965,109.687,-0.181446,0.0,0.0
21,5,37.1258,39.273,130.971,104.147,105.396,0.000475435,0.0454595,20.997,109.677,-0.107617,0.0,0.0
28,6.75,37.4066,39.049,128.925,104.115,105.273,0.000568571,0.0452952,20.9978,109.526,-0.0999187,0.0,0.0
35,8.5,37.4319,39.3652,131.002,104.086,104.124,0.000737042,0.0450403,20.9982,109.566,-0.00326852,0.0,0.0
42,10.25,37.6975,38.8068,130.255,104.054,104.159,0.000917707,0.0447543,20.9983,109.386,-0.00911197,0.0,0.0
49,12,37.5637,39.2819,131.336,104.048,103.061,0.00111477,0.0446026,20.9966,109.246,0.0860223,0.0,0.0
56,13.75,37.324,39.4228,135.004,104.006,102.069,0.00146033,0.0445921,20.9933,109.176,0.169734,0.0,0.0
63,15.5,37.4953,39.2301,131.114,104.005,99.5901,0.00186987,0.0453397,20.9869,109.046,0.391618,0.0,0.0
70,17.25,38.1577,39.4277,123.503,103.966,107.977,0.00218461,0.0552594,20.9597,108.676,-0.341864,0.0,1.0
77,19,39.0785,40.1105,108.508,103.96,109.977,0.00233165,0.0946566,20.8218,108.436,-0.507996,0.0,1.0
84,20.75,41.3478,41.2703,108.725,103.944,108.788,0.00250056,0.156043,20.6594,107.975,-0.411305,0.0,1.0
91,22.5,43.7241,43.1803,110.299,103.932,107.749,0.00274303,0.22994,20.5488,107.705,-0.325634,0.0,1.0
98,24.25,46.4305,45.3656,108.664,103.912,108.659,0.00307728,0.291685,20.498,107.345,-0.403358,0.0,0.0
105,26,48.7212,48.0817,117.031,103.917,108.113,0.00384057,0.327962,20.5088,107.044,-0.357402,0.0,0.0
112,27.75,49.767,49.517,123.509,103.898,107.479,0.00558441,0.335645,20.5949,106.874,-0.306002,0.0,0.0
119,29.5,49.9412,50.6922,133.517,103.89,106.375,0.00808666,0.315941,20.7018,106.784,-0.213508,0.0,0.0
126,31.25,49.0441,50.1413,130.399,103.871,105.669,0.0109999,0.285946,20.7866,106.634,-0.154978,0.0,0.0
133,33,48.9201,50.1504,134.817,103.866,106.148,0.0128005,0.254447,20.84,106.544,-0.196304,0.0,0.0
140,34.75,48.4217,49.9912,128.759,103.842,106.126,0.0141518,0.227054,20.8693,106.344,-0.196404,0.0,0.0
147,36.5,48.38,49.3876,129.162,103.84,105.383,0.0148437,0.204631,20.8855,106.164,-0.133158,0.0,0.0
154,38.25,47.8009,49.2113,129.761,103.816,105.822,0.0150155,0.187609,20.8938,106.194,-0.172842,0.0,0.0
161,40,46.8247,48.6102,128.09,103.805,106.774,0.0146669,0.174846,20.899,106.124,-0.254597,0.0,0.0
168,41.75,47.5244,49.3403,131.436,103.808,105.674,0.0139592,0.164393,20.9056,105.874,-0.160857,0.0,0.0
175,43.5,47.3952,49.121,131.405,103.788,106.153,0.013288,0.154699,20.9112,105.894,-0.203505,0.0,0.0
182,45.25,47.0119,48.5902,128.573,103.768,105.425,0.0125698,0.146675,20.9155,105.723,-0.142991,0.0,0.0
189,47,46.3243,48.1462,131.303,103.747,106.047,0.0119958,0.139798,20.9178,105.743,-0.197951,0.0,0.0
196,48.75,46.2177,48.34,130.885,103.746,105.816,0.0113473,0.133665,20.9204,105.823,-0.178382,0.0,0.0
203,50.5,46.5236,48.0123,128.482,103.733,105.805,0.0107104,0.128086,20.9243,105.453,-0.178522,0.0,0.0
210,52.25,46.022,48.2263,132.582,103.732,106.521,0.0100491,0.123342,20.9271,105.413,-0.239539,0.0,0.0
217,54,45.6076,47.8881,132.472,103.693,105.475,0.00942905,0.118281,20.931,105.293,-0.153922,0.0,0.0
224,55.75,45.8069,47.6132,128.356,103.674,105.896,0.00888136,0.113673,20.9337,105.273,-0.191454,0.0,0.0
231,57.5,45.5333,47.9323,128.93,103.669,105.52,0.00845971,0.110205,20.9358,105.043,-0.159843,0.0,0.0
238,59.25,45.0796,47.3536,129.882,103.66,105.289,0.00806784,0.106781,20.9383,104.963,-0.140762,0.0,0.0
245,61,45.0903,47.028,129.191,103.656,105.351,0.00770005,0.103623,20.9412,104.863,-0.14649,0.0,0.0
252,62.75,44.6186,47.7467,128.831,103.626,105.379,0.00744071,0.100588,20.9436,104.763,-0.151481,0.0,0.0
259,64.5,44.5589,47.0546,128.48,103.616,105.218,0.00721687,0.0981375,20.9459,104.773,-0.138535,0.0,0.0
266,66.25,44.5349,47.2129,134.558,103.61,106.478,0.00702364,0.095552,20.9473,104.633,-0.246586,0.0,0.0
273,68,44.3499,46.4473,133.156,103.587,104.782,0.00679279,0.0931193,20.949,104.452,-0.103594,0.0,0.0
280,69.75,43.547,46.3376,130.536,103.561,105.491,0.00654631,0.0907296,20.9512,104.392,-0.166777,0.0,0.0
287,71.5,43.9246,46.0612,130.617,103.558,104.899,0.00624807,0.0886848,20.9536,104.312,-0.116142,0.0,0.0
294,73.25,43.4342,45.6587,130.514,103.554,105.631,0.00600082,0.0864617,20.9556,104.252,-0.179348,0.0,0.0
301,75,43.8371,46.3784,128.839,103.531,104.856,0.00575625,0.0842495,20.9593,104.182,-0.114819,0.0,0.0
308,76.75,43.8631,45.9479,132.116,103.501,105.616,0.00543345,0.0822221,20.9633,104.072,-0.182667,0.0,0.0
315,78.5,43.6374,45.9451,130.007,103.484,104.954,0.00504479,0.080219,20.9666,104.002,-0.127365,0.0,0.0
322,80.25,43.9708,45.9844,125.588,103.483,105.136,0.0045901,0.0780953,20.9697,103.912,-0.143077,0.0,0.0
329,82,42.9428,45.9294,131.83,103.466,105.363,0.00405304,0.0759339,20.9719,103.802,-0.163998,0.0,0.0
336,83.75,43.6152,45.7879,131.798,103.446,104.587,0.00344323,0.0738696,20.9739,103.742,-0.0990393,0.0,0.0
343,85.5,42.7592,45.973,128.34,103.435,105.16,0.00294058,0.0714922,20.9763,103.652,-0.149379,0.0,0.0
350,87.25,42.8818,45.5985,132.82,103.423,104.955,0.00250729,0.0690634,20.9785,103.562,-0.132793,0.0,0.0
357,89,43.2539,45.7371,132.124,103.421,104.856,0.00215541,0.0669762,20.981,103.522,-0.124405,0.0,0.0
364,90.75,42.3695,45.5664,128.903,103.406,104.558,0.00185423,0.0649179,20.9831,103.432,-0.100023,0.0,0.0
371,92.5,42.903,45.5056,128.947,103.394,106.089,0.00164132,0.0629968,20.9849,103.362,-0.232269,0.0,0.0
378,94.25,42.7758,45.0197,133.609,103.386,104.837,0.00149795,0.061328,20.9856,103.261,-0.125881,0.0,0.0
385,96,42.4857,45.0936,131.679,103.39,105.642,0.00139629,0.0599101,20.987,103.191,-0.19458,0.0,0.0
392,97.75,42.8562,45.0228,130.329,103.383,105.638,0.00132071,0.0584855,20.989,103.081,-0.194809,0.0,0.0
399,99.5,42.1466,44.2458,129.39,103.373,104.89,0.0012663,0.0571471,20.9898,103.081,-0.131526,0.0,0.0
406,101.25,42.4745,44.5111,126.176,103.38,105.891,0.00115187,0.0561165,20.9902,103.021,-0.216663,0.0,0.0
413,103,42.3443,44.8219,129.176,103.386,106.072,0.00100998,0.0550779,20.9911,103.021,-0.231644,0.0,0.0
420,104.75,42.1729,44.512,132.136,103.402,105.11,0.00085473,0.0541909,20.992,102.931,-0.147899,0.0,0.0
427,106.5,42.319,45.0103,132.305,103.408,105.184,0.000723581,0.0534433,20.9925,102.831,-0.153762,0.0,0.0
434,108.25,42.0138,44.6191,127.595,103.407,105.164,0.000671262,0.0526732,20.9927,102.721,-0.152137,0.0,0.0
441,110,42.5465,44.3291,129.507,103.433,105.055,0.000718516,0.0520444,20.9928,102.641,-0.140482,0.0,0.0
448,111.75,42.1123,44.4063,128.485,103.447,105.097,0.000838527,0.0515161,20.9929,102.521,-0.142858,0.0,0.0
455,113.5,42.3198,44.9755,129.863,103.461,104.537,0.000913474,0.0509245,20.9929,102.471,-0.0934044,0.0,0.0
462,115.25,41.2474,44.0904,131.347,103.477,106.196,0.000922863,0.0504519,20.9929,102.491,-0.23416,0.0,0.0
469,117,42.243,44.2725,125.566,103.489,105.469,0.000900319,0.0500124,20.9931,102.411,-0.171108,0.0,0.0
476,118.75,41.9753,44.3231,132.532,103.522,104.955,0.000883513,0.0496494,20.9936,102.381,-0.124206,0.0,0.0
483,120.5,41.4548,44.1362,129.308,103.552,105.177,0.00088055,0.0492996,20.9948,102.301,-0.14059,0.0,0.0
490,122.25,41.8593,44.0719,132.733,103.564,104.662,0.000918822,0.0488907,20.9954,102.231,-0.0952453,0.0,0.0
497,124,41.745,43.9491,125.801,103.59,105.709,0.000938631,0.0486494,20.9952,102.151,-0.182846,0.0,0.0
504,125.75,42.1207,44.0718,127.778,103.599,105.063,0.000875247,0.0484154,20.9943,102.111,-0.126683,0.0,0.0
511,127.5,42.4141,44.298,132.262,103.636,105.367,0.00076243,0.0482426,20.9939,102.111,-0.149587,0.0,0.0
518,129.25,41.4616,44.2884,127.993,103.651,104.814,0.000670055,0.0479272,20.9947,102.01,-0.100756,0.0,0.0
525,131,41.6892,43.7434,130.665,103.662,105.482,0.000618047,0.0476778,20.9953,101.88,-0.157171,0.0,0.0
532,132.75,41.7307,44.2229,130.918,103.679,106.084,0.000649737,0.047413,20.9956,101.9,-0.207075,0.0,0.0
539,134.5,41.0695,43.8092,131.768,103.707,105.576,0.000736338,0.0471784,20.9958,101.69,-0.161318,0.0,0.0
546,136.25,41.4884,43.8786,131.803,103.74,105.82,0.000790821,0.0471198,20.9958,101.74,-0.179255,0.0,0.0
553,138,41.7751,44.5018,131.765,103.76,106.11,0.000799087,0.0469934,20.9952,101.57,-0.202214,0.0,0.0
560,139.75,41.1918,43.5451,134.261,103.775,105.341,,0.0467988,,101.66,-0.135272,0.0,0.0
567,141.5,41.5093,43.9871,128.714,103.797,105.726,,0.0466848,,101.58,-0.166265,0.0,0.0
574,143.25,41.479,43.4353,127.084,103.812,105.184,,,,101.65,-0.118526,0.0,0.0
581,145,41.8633,44.0287,128.69,103.82,105.659,,,,101.49,-0.158539,0.0,0.0
588,146.75,41.3641,43.5984,133.551,103.834,106.503,,,,101.43,-0.229206,0.0,0.0
595,148.5,40.9928,43.4716,129.677,103.85,105.462,,,,101.41,-0.139083,0.0,0.0
599,149.5,41.4113,44.0111,132.592,103.851,105.828,,,,101.37,-0.170234,0.0,0.0