Folder: fsri_materials_database/01_Data/LW_Gypsum/Cone (part 3)

File: LW_Gypsum_Cone_HF75Scan_220506_R2.csv
Names,Time,Stack TC,Smoke TC,Exh Press,Smoke Comp,Smoke Meas,CO Meter,CO2 Meter,O2 Meter,Sample Mass,Ext Coeff,Start Test,Flame Verif
Chan Gain,,500,500,1,1,1,1,1,1,1,1,1.0,1.0
Offset,,0,0,0.135316,0,0,0,0,0,0,0,0.0,0.0
Gain,,1,1,25.011,13.8443,15.4071,1,1,1,1.00079,1.02936,1.0,1.0
Units,sec,C,C,Pa,%,%,%,%,%,g,/m,,
Baseline,,40.7725,42.2975,132.232,105.169,106.32,5.55934e-05,0.0418662,21.0007,-447.632,-0.0982467,,
7,1.5,38.1154,39.7542,129.968,104.819,105.684,0.000555412,0.0436432,20.9985,112.969,-0.074218,0.0,0.0
14,3.25,38.0697,39.3252,127.455,104.831,105.5,0.00052764,0.0434579,20.9988,112.979,-0.0574054,0.0,0.0
21,5,37.6119,39.7109,133.169,104.84,105.394,0.000404105,0.0434734,20.999,112.929,-0.0475785,0.0,0.0
28,6.75,38.3631,39.848,130.396,104.827,105.244,0.000269841,0.0435899,20.9979,112.799,-0.0358466,0.0,0.0
35,8.5,37.9424,39.6726,129.513,104.831,104.765,0.000273469,0.043809,20.9963,112.699,0.00567727,0.0,0.0
42,10.25,38.2065,39.5305,130.567,104.833,103.702,0.000418108,0.044142,20.9942,112.629,0.0979525,0.0,0.0
49,12,39.0796,40.3162,131.701,104.825,102.251,0.000683848,0.0444864,20.9918,112.489,0.22453,0.0,0.0
56,13.75,38.5187,40.1705,131.027,104.821,99.7989,0.0011847,0.0462713,20.9822,112.409,0.443336,0.0,0.0
63,15.5,39.0686,40.4394,116.999,104.812,108.972,0.00164815,0.059613,20.9128,112.038,-0.351406,0.0,1.0
70,17.25,40.3177,40.6516,109.991,104.813,110.122,0.00185358,0.112277,20.7728,111.668,-0.446167,0.0,1.0
77,19,41.6875,42.53,111.059,104.808,109.011,0.00193825,0.18473,20.6526,111.308,-0.355003,0.0,1.0
84,20.75,44.1392,43.7545,109.632,104.791,109.347,0.00211119,0.255618,20.5773,111.048,-0.384224,0.0,1.0
91,22.5,46.6103,46.0009,110.715,104.786,108.355,0.00248863,0.307787,20.5441,110.707,-0.302478,0.0,0.0
98,24.25,48.388,47.655,120.775,104.777,108.432,0.00348717,0.336456,20.5625,110.447,-0.309629,0.0,0.0
105,26,50.101,49.6869,125.004,104.763,107.211,0.00515286,0.336223,20.6419,110.287,-0.208568,0.0,0.0
112,27.75,50.6547,50.6562,130.915,104.757,106.586,0.00776727,0.309249,20.7232,110.107,-0.156333,0.0,0.0
119,29.5,50.6362,50.7915,128.927,104.727,107.307,0.0101755,0.276246,20.7979,110.027,-0.219776,0.0,0.0
126,31.25,48.7325,49.4676,130.575,104.721,106.815,0.011712,0.239662,20.8472,109.887,-0.178733,0.0,0.0
133,33,48.4014,49.2774,129.84,104.717,106.24,0.0124679,0.210232,20.8756,109.777,-0.130392,0.0,0.0
140,34.75,48.3751,49.4892,132.264,104.697,105.82,0.012511,0.188778,20.8906,109.646,-0.0963843,0.0,0.0
147,36.5,48.5637,49.0357,129.796,104.687,106.641,0.0122432,0.172741,20.9003,109.536,-0.166927,0.0,0.0
154,38.25,48.2127,48.7898,134.052,104.671,106.856,0.011817,0.159388,20.9073,109.446,-0.186527,0.0,0.0
161,40,47.3398,48.9666,126.997,104.675,107.037,0.011376,0.149464,20.9115,109.296,-0.201519,0.0,0.0
168,41.75,47.5296,48.8708,128.716,104.657,105.867,0.0110149,0.141636,20.9146,109.206,-0.103782,0.0,0.0
175,43.5,46.9204,48.5001,125.804,104.656,106.515,0.0107209,0.13489,20.9157,109.066,-0.158951,0.0,0.0
182,45.25,46.8918,48.5029,137.47,104.643,106.42,0.0102493,0.129591,20.9152,108.906,-0.151986,0.0,0.0
189,47,46.4081,48.486,129.486,104.64,106.469,0.00974242,0.1253,20.9174,108.856,-0.156506,0.0,0.0
196,48.75,46.5607,48.0597,129.222,104.625,106.183,0.00925525,0.120879,20.92,108.756,-0.133424,0.0,0.0
203,50.5,45.7882,47.4154,126.768,104.644,106.366,0.00889469,0.11744,20.9224,108.676,-0.147404,0.0,0.0
210,52.25,46.0697,47.9394,127.925,104.614,106.225,0.0086483,0.114172,20.9251,108.596,-0.138047,0.0,0.0
217,54,45.8633,48.0531,127.744,104.614,106.405,0.00846466,0.111513,20.9272,108.456,-0.153225,0.0,0.0
224,55.75,45.7307,47.6689,130.5,104.606,106.061,0.00826549,0.109019,20.9287,108.315,-0.124741,0.0,0.0
231,57.5,46.1304,47.9853,129.059,104.61,106.441,0.00813153,0.106703,20.9311,108.245,-0.156698,0.0,0.0
238,59.25,45.4738,47.7635,130.648,104.595,107.208,0.0079964,0.104506,20.9325,108.165,-0.22276,0.0,0.0
245,61,45.7201,47.6021,128.703,104.576,105.781,0.00784611,0.102567,20.9344,108.015,-0.103405,0.0,0.0
252,62.75,45.6054,47.4299,125.437,104.573,106.673,0.00775174,0.100744,20.9359,107.965,-0.179514,0.0,0.0
259,64.5,45.3562,47.7556,134.653,104.575,107.341,0.0076657,0.0990606,20.9372,107.835,-0.235714,0.0,0.0
266,66.25,45.505,47.2452,131.381,104.586,105.94,0.00754653,0.0976571,20.9387,107.715,-0.116085,0.0,0.0
273,68,45.0086,47.3524,128.628,104.579,105.992,0.00737348,0.0963049,20.941,107.605,-0.121152,0.0,0.0
280,69.75,44.6615,46.884,131.884,104.575,106.526,0.00710756,0.0947926,20.9431,107.545,-0.166909,0.0,0.0
287,71.5,44.8161,46.4311,132.544,104.583,105.906,0.00681885,0.0932338,20.9443,107.415,-0.113531,0.0,0.0
294,73.25,44.939,46.8681,125.915,104.607,106.686,0.00659176,0.0920183,20.946,107.315,-0.177674,0.0,0.0
301,75,44.2559,46.9491,132.143,104.608,106.306,0.00646961,0.0907997,20.9468,107.205,-0.145393,0.0,0.0
308,76.75,44.2383,46.6203,131.873,104.63,106.477,0.00624794,0.089653,20.9487,107.094,-0.157979,0.0,0.0
315,78.5,44.6816,46.8289,132.164,104.63,106.659,0.00596317,0.0883438,20.9515,107.014,-0.17344,0.0,0.0
322,80.25,43.733,46.3548,131.015,104.659,106.689,0.0057409,0.0865827,20.9543,106.924,-0.173504,0.0,0.0
329,82,44.1532,46.2909,132.16,104.665,106.247,0.00546613,0.0846576,20.9569,106.824,-0.135397,0.0,0.0
336,83.75,43.986,46.1745,132.414,104.686,106.655,0.00509682,0.0827675,20.9599,106.744,-0.168193,0.0,0.0
343,85.5,43.5304,46.5453,128.182,104.697,105.784,0.00472757,0.0809552,20.9632,106.694,-0.0932946,0.0,0.0
350,87.25,43.6332,46.0965,126.82,104.723,106.287,0.00436788,0.0788746,20.9671,106.564,-0.133842,0.0,0.0
357,89,43.1047,46.1295,128.818,104.761,106.387,0.00404929,0.0765021,20.9703,106.484,-0.139064,0.0,0.0
364,90.75,43.9969,45.8161,127.824,104.783,106.341,0.00359887,0.0743201,20.9713,106.394,-0.133223,0.0,0.0
371,92.5,43.6515,45.8746,134.714,104.815,106.067,0.00315741,0.0719272,20.9734,106.344,-0.107267,0.0,0.0
378,94.25,43.4617,46.3598,130.166,104.863,106.564,0.00284488,0.0697237,20.9748,106.274,-0.145324,0.0,0.0
385,96,43.512,45.728,131.854,104.905,106.577,0.00264902,0.0673799,20.9761,106.194,-0.142726,0.0,0.0
392,97.75,43.526,46.0371,127.656,104.947,106.698,0.00240153,0.0651804,20.9771,106.134,-0.149475,0.0,0.0
399,99.5,43.4338,46.1848,127.257,104.985,106.713,0.00211647,0.0631205,20.9784,106.034,-0.147441,0.0,0.0
406,101.25,43.3127,45.8198,129.425,105.055,107.965,0.00182887,0.0613952,20.9804,106.024,-0.246698,0.0,0.0
413,103,43.1754,45.5518,127.197,105.115,106.764,0.00161549,0.0595133,20.9824,105.934,-0.140512,0.0,0.0
420,104.75,43.3785,45.7964,130.277,105.179,106.843,0.00147594,0.0578102,20.9841,105.844,-0.141715,0.0,0.0
427,106.5,43.3465,45.4361,129.435,105.239,106.828,0.00144812,0.0563146,20.9867,105.783,-0.13533,0.0,0.0
434,108.25,43.1895,45.2856,128.717,105.29,106.835,0.00147948,0.0550217,20.9884,105.673,-0.131542,0.0,0.0
441,110,43.2679,45.7957,131.073,105.327,107.224,0.00149543,0.0540135,20.9904,105.593,-0.161195,0.0,0.0
448,111.75,42.9569,45.8264,125.576,105.392,107.04,0.00141076,0.0530544,20.9914,105.523,-0.14012,0.0,0.0
455,113.5,42.7503,45.9629,130.683,105.398,107.488,0.00126272,0.0522303,20.9938,105.473,-0.177297,0.0,0.0
462,115.25,43.5692,44.938,128.413,105.426,107.341,0.00112328,0.051473,20.9956,105.413,-0.162537,0.0,0.0
469,117,43.0745,45.6368,128.19,105.452,107.945,0.00102489,0.0506754,20.9975,105.353,-0.211015,0.0,0.0
476,118.75,42.8459,45.333,128.609,105.447,107.447,0.00101826,0.0499946,20.998,105.273,-0.169702,0.0,0.0
483,120.5,42.8515,45.0255,127.046,105.43,107.921,0.00104317,0.049555,20.9983,105.193,-0.210891,0.0,0.0
490,122.25,43.3903,45.1748,131.523,105.39,107.357,0.00096746,0.0490529,20.9994,105.153,-0.166999,0.0,0.0
497,124,42.9669,44.9579,131.558,105.325,107.048,0.00081463,0.048707,21.0002,105.073,-0.146515,0.0,0.0
504,125.75,43.1294,45.6204,130.428,105.269,107.014,0.000749567,0.0482966,21.0005,105.103,-0.148481,0.0,0.0
511,127.5,42.9782,44.9651,127.033,105.185,106.548,0.000782677,0.0479856,21.0009,105.053,-0.116258,0.0,0.0
518,129.25,43.3632,45.2694,127.454,105.062,106.031,0.000794509,0.0477538,21.0023,105.053,-0.0829539,0.0,0.0
525,131,42.8178,45.3748,134.648,104.915,106.668,0.000715946,0.0473562,21.0032,104.963,-0.149655,0.0,0.0
532,132.75,42.6911,44.6915,129.408,104.779,107.084,0.000590717,0.047202,21.0036,104.903,-0.196411,0.0,0.0
539,134.5,42.9842,45.3435,134.023,104.613,106.824,0.000549629,0.0470304,21.0038,104.823,-0.188859,0.0,0.0
546,136.25,43.0771,45.0311,131.735,104.451,106.222,0.000608217,0.0467696,21.001,104.763,-0.151854,0.0,0.0
553,138,42.972,45.1518,128.676,104.274,105.528,,0.0466416,,104.723,-0.107947,0.0,0.0
560,139.75,42.2696,45.1259,126.933,104.108,105.42,,0.046596,,104.663,-0.113155,0.0,0.0
567,141.5,42.2069,44.72,129.562,103.946,105.584,,,,104.613,-0.141128,0.0,0.0
574,143.25,42.8284,44.8345,133.451,103.803,105.401,,,,104.552,-0.137999,0.0,0.0
581,145,42.2149,44.9904,129.094,103.691,104.925,,,,104.472,-0.106888,0.0,0.0
588,146.75,42.9759,44.9895,128.26,103.573,106,,,,104.452,-0.209149,0.0,0.0
595,148.5,43.1026,45.3546,128.839,103.485,105.568,,,,104.392,-0.17989,0.0,0.0
596,148.75,42.8011,44.7185,130.865,103.476,105.386,,,,104.392,-0.16516,0.0,0.0

File: LW_Gypsum_Cone_HF75Scan_220506_R3.csv
Names,Time,Stack TC,Smoke TC,Exh Press,Smoke Comp,Smoke Meas,CO Meter,CO2 Meter,O2 Meter,Sample Mass,Ext Coeff,Start Test,Flame Verif
Chan Gain,,500,500,1,1,1,1,1,1,1,1,1.0,1.0
Offset,,0,0,0.135316,0,0,0,0,0,0,0,0.0,0.0
Gain,,1,1,25.011,13.8443,15.4071,1,1,1,1.00079,1.02936,1.0,1.0
Units,sec,C,C,Pa,%,%,%,%,%,g,/m,,
Baseline,,41.7806,43.3714,131.571,104.846,106.689,8.58321e-05,0.0419702,21.0042,-447.74,-0.157288,,
7,1.5,39.4062,40.6289,131.395,104.516,107.052,0.000263483,0.0445775,20.996,113.439,-0.216505,0.0,0.0
14,3.25,39.6054,41.4536,129.883,104.591,106.885,0.000318466,0.0448625,20.9957,113.439,-0.195954,0.0,0.0
21,5,39.5699,41.2081,130.884,104.656,107.192,0.000372271,0.0450389,20.9946,113.389,-0.216126,0.0,0.0
28,6.75,39.7646,41.6646,131.176,104.694,105.591,0.000474954,0.0450563,20.9951,113.219,-0.0770804,0.0,0.0
35,8.5,39.9448,41.578,130.222,104.727,105.644,0.000717797,0.0450279,20.9943,113.129,-0.0786677,0.0,0.0
42,10.25,39.9689,41.9029,131.353,104.76,104.133,0.0010261,0.0450062,20.9934,113.059,0.054227,0.0,0.0
49,12,40.0286,41.343,131.214,104.79,102.358,0.00143143,0.0454352,20.9895,112.829,0.212089,0.0,0.0
56,13.75,40.4761,41.8496,125.597,104.799,105.084,0.00180095,0.0530566,20.9664,112.589,-0.0245234,0.0,0.0
63,15.5,40.2384,42.1986,122.687,104.799,110.205,0.00200485,0.0912946,20.889,112.148,-0.454114,0.0,1.0
70,17.25,42.365,42.9051,105.711,104.8,110.658,0.00209354,0.15496,20.7744,111.928,-0.491141,0.0,1.0
77,19,45.099,45.3083,116.397,104.792,110.535,0.00217175,0.249499,20.6374,111.638,-0.481739,0.0,1.0
84,20.75,46.9223,46.7385,113.638,104.779,110.118,0.00234453,0.321478,20.565,111.308,-0.448732,0.0,0.0
91,22.5,49.1537,49.0442,114.665,104.776,109.164,0.00304615,0.364434,20.5404,110.988,-0.370419,0.0,0.0
98,24.25,51.3226,50.529,123.435,104.745,108.79,0.00447793,0.372105,20.5911,110.737,-0.34218,0.0,0.0
105,26,52.114,52.4182,123.297,104.733,107.933,0.00676703,0.343306,20.6881,110.597,-0.271777,0.0,0.0
112,27.75,51.5651,52.0216,130.114,104.698,107.636,0.00912115,0.299809,20.7709,110.507,-0.249945,0.0,0.0
119,29.5,51.5344,51.3055,126.817,104.665,109.058,0.0112858,0.25889,20.8334,110.337,-0.371247,0.0,0.0
126,31.25,50.8557,51.4791,128.059,104.634,108.582,0.0122937,0.224831,20.8641,110.237,-0.334426,0.0,0.0
133,33,49.8875,51.4259,128.434,104.597,108.296,0.0127538,0.197897,20.8875,110.107,-0.313789,0.0,0.0
140,34.75,49.4808,51.1039,128.641,104.555,108.032,0.0126981,0.177888,20.9017,110.027,-0.295383,0.0,0.0
147,36.5,49.9044,50.8326,128.308,104.517,107.786,0.0123153,0.162791,20.9109,109.887,-0.278125,0.0,0.0
154,38.25,49.7371,50.7704,130.03,104.464,107.67,0.0118905,0.150762,20.9153,109.767,-0.272957,0.0,0.0
161,40,48.9711,50.4469,130.174,104.444,107.424,0.011293,0.142041,20.915,109.677,-0.254028,0.0,0.0
168,41.75,48.2826,50.315,130.856,104.433,106.984,0.0107886,0.13462,20.9163,109.576,-0.217869,0.0,0.0
175,43.5,48.145,50.1536,129.727,104.405,107.392,0.0104459,0.128842,20.9178,109.456,-0.254661,0.0,0.0
182,45.25,48.2183,50.1591,133.699,104.366,108.003,0.0101962,0.124242,20.9202,109.336,-0.309268,0.0,0.0
189,47,48.2429,49.7459,131.24,104.351,107.826,0.00981058,0.120106,20.9225,109.166,-0.295831,0.0,0.0
196,48.75,47.7541,49.7872,134.991,104.318,106.564,0.00929534,0.116206,20.9241,108.966,-0.19238,0.0,0.0
203,50.5,47.794,49.5077,130.209,104.301,106.743,0.00864535,0.112639,20.9263,108.986,-0.208967,0.0,0.0
210,52.25,47.5013,49.6058,132.672,104.283,106.914,0.00826092,0.109719,20.9287,108.846,-0.225008,0.0,0.0
217,54,47.0243,49.5063,129.605,104.255,106.563,0.00780742,0.107158,20.9306,108.836,-0.197788,0.0,0.0
224,55.75,47.1568,49.2381,131.257,104.225,107.091,0.00743572,0.104583,20.9315,108.746,-0.244977,0.0,0.0
231,57.5,46.9327,49.433,127.469,104.215,107.628,0.00718074,0.102189,20.9335,108.636,-0.290943,0.0,0.0
238,59.25,46.3713,48.9806,130.286,104.2,106.327,0.00712116,0.100033,20.9353,108.506,-0.182487,0.0,0.0
245,61,46.3582,48.7885,129.012,104.178,107.297,0.00712975,0.0979687,20.9376,108.365,-0.266312,0.0,0.0
252,62.75,46.454,48.7362,128.963,104.183,107.153,0.00713128,0.096546,20.941,108.325,-0.253796,0.0,0.0
259,64.5,46.5045,48.2405,130.26,104.255,107.068,0.00708092,0.0952745,20.9431,108.245,-0.240402,0.0,0.0
266,66.25,46.4303,48.3928,129.129,104.358,107.386,0.0069979,0.0940128,20.9449,108.135,-0.258317,0.0,0.0
273,68,46.2618,48.2661,129.96,104.445,108.147,0.00687803,0.0927253,20.947,108.055,-0.314495,0.0,0.0
280,69.75,46.0504,48.5065,128.036,104.54,107.164,0.0067186,0.091682,20.9487,107.935,-0.223819,0.0,0.0
287,71.5,46.6004,48.6589,129.818,104.594,107.305,0.00655846,0.0904375,20.9502,107.805,-0.231063,0.0,0.0
294,73.25,45.7369,48.568,133.894,104.667,107.428,0.00644446,0.0893104,20.9523,107.795,-0.235039,0.0,0.0
301,75,46.2601,48.4035,126.154,104.753,107.707,0.00635065,0.0881101,20.9545,107.665,-0.251164,0.0,0.0
308,76.75,45.8137,48.2066,127.15,104.803,107.542,0.00616086,0.0868948,20.9556,107.555,-0.232945,0.0,0.0
315,78.5,45.8984,48.109,128.747,104.862,107.477,0.0058559,0.0854927,20.9577,107.425,-0.222362,0.0,0.0
322,80.25,45.8409,48.3638,129.774,104.925,106.987,0.00554003,0.0837242,20.9607,107.385,-0.175724,0.0,0.0
329,82,45.9073,47.881,130.728,104.975,107.377,0.00521553,0.0817789,20.9639,107.295,-0.204275,0.0,0.0
336,83.75,44.7601,47.7719,127.249,105.01,107.849,0.00489707,0.0796392,20.9664,107.235,-0.240872,0.0,0.0
343,85.5,45.4988,47.9869,130.077,105.037,106.447,0.00444031,0.0773147,20.9668,107.145,-0.120423,0.0,0.0
350,87.25,44.7925,47.4193,132.636,105.047,107.391,0.00402807,0.0750642,20.9689,107.054,-0.199325,0.0,0.0
357,89,45.06,47.6274,131.772,105.082,107.21,0.00366188,0.072173,20.9729,106.964,-0.181002,0.0,0.0
364,90.75,44.7744,47.2654,132.092,105.083,107.707,0.00330016,0.0694549,20.9753,106.794,-0.222727,0.0,0.0
371,92.5,45.0601,47.4009,129.614,105.081,107.543,0.0029973,0.0669886,20.9788,106.724,-0.209143,0.0,0.0
378,94.25,44.185,47.3408,131.471,105.089,107.89,0.00273452,0.0647204,20.9815,106.674,-0.237466,0.0,0.0
385,96,44.3823,47.3466,130.638,105.106,107.979,0.0025194,0.0626719,20.983,106.674,-0.243448,0.0,0.0
392,97.75,44.4376,47.5973,131.599,105.111,107.508,0.0022198,0.0606312,20.9847,106.534,-0.203605,0.0,0.0
399,99.5,44.5912,46.8276,127.873,105.111,109.253,0.00195854,0.0589036,20.9867,106.484,-0.348975,0.0,0.0
406,101.25,45.0256,47.4361,128.772,105.098,107.313,0.00177097,0.0573527,20.9884,106.414,-0.188252,0.0,0.0
413,103,44.7594,46.8667,132.458,105.103,107.611,0.001621,0.0559477,20.9903,106.354,-0.212976,0.0,0.0
420,104.75,44.012,46.9342,130.483,105.103,107.172,0.0014759,0.0546426,20.9912,106.204,-0.176092,0.0,0.0
427,106.5,44.3314,47.0085,129.429,105.105,107.017,0.00133314,0.0534858,20.9916,106.184,-0.162828,0.0,0.0
434,108.25,44.5499,47.0472,131.276,105.08,106.879,0.00115052,0.0525159,20.9927,106.084,-0.153338,0.0,0.0
441,110,43.8377,47.1705,132.667,105.062,107.588,0.00100646,0.0516758,20.9935,106.104,-0.214452,0.0,0.0
448,111.75,44.2226,46.0283,132.695,105.046,107.857,0.000948336,0.0508096,20.994,106.054,-0.238454,0.0,0.0
455,113.5,44.1926,46.3259,127.066,105.028,107.886,0.000956978,0.0500583,20.9953,105.954,-0.242413,0.0,0.0
462,115.25,43.7939,45.7768,134.049,104.997,107.431,0.000937667,0.0493278,20.9959,105.884,-0.207008,0.0,0.0
469,117,44.1269,46.5509,127.872,104.952,107.701,0.000866194,0.0487555,20.9962,105.854,-0.233439,0.0,0.0
476,118.75,44.1919,46.0451,129.613,104.911,107.654,0.000767128,0.0483563,20.9963,105.743,-0.233062,0.0,0.0
483,120.5,43.9841,46.7137,129.461,104.844,108.217,0.000752455,0.0481069,20.9966,105.673,-0.285892,0.0,0.0
490,122.25,43.1802,46.2095,128.756,104.777,107.196,0.000780153,0.0475958,20.9977,105.633,-0.206103,0.0,0.0
497,124,43.8247,46.4302,129.436,104.691,107.234,0.000765393,0.0472933,20.9978,105.613,-0.216625,0.0,0.0
504,125.75,44.2315,45.6368,127.907,104.644,107.368,0.000675287,0.0470727,20.9979,105.533,-0.231984,0.0,0.0
511,127.5,43.9947,45.7385,129.702,104.599,107.258,0.000622609,0.0466957,20.9979,105.483,-0.226744,0.0,0.0
518,129.25,43.6923,46.4329,133.527,104.634,106.9,0.000679102,0.0465684,20.9979,105.463,-0.193433,0.0,0.0
525,131,43.528,46.3846,130.403,104.644,106.566,0.000789618,0.0463309,20.9982,105.343,-0.164388,0.0,0.0
532,132.75,43.4175,45.7361,127.491,104.673,107.254,0.000877316,0.046151,20.9985,105.343,-0.219971,0.0,0.0
539,134.5,43.2598,45.9405,133.325,104.703,107.879,0.000867078,0.0460649,20.9989,105.273,-0.269801,0.0,0.0
546,136.25,42.8868,45.8635,126.051,104.744,107.168,0.000798338,0.0459451,20.9993,105.183,-0.206603,0.0,0.0
553,138,43.6271,45.7317,132.365,104.751,107.518,,0.0457617,,105.063,-0.235486,0.0,0.0
560,139.75,43.732,45.8098,129.456,104.776,107.026,,0.0455261,,105.023,-0.191788,0.0,0.0
567,141.5,43.6268,45.7863,127.438,104.774,107.968,,,,104.993,-0.271117,0.0,0.0
574,143.25,43.5045,45.7354,131.775,104.804,107.839,,,,104.903,-0.257712,0.0,0.0
581,145,43.391,45.2822,128.723,104.817,107.144,,,,104.893,-0.198208,0.0,0.0
588,146.75,43.0918,45.9227,129.29,104.798,106.818,,,,104.853,-0.172384,0.0,0.0
592,147.75,43.2719,45.4899,130.543,104.813,107.096,,,,104.853,-0.194529,0.0,0.0