Folder: fsri_materials_database/01_Data/LW_Gypsum/Cone

Note: 01_Data/README.md
# Materials and Products Database
## 01_Data

Raw data generated from each apparatus are included here in plain-text format. The data is organized first by material, next by the short name of test apparatus used, and where applicable additional filtering by test settings.

### material.json

Each material directory contains a json file of the same name as the material. This file links the data stored in the repository as well as data and graphs produced by the accompanying scripts (__02_Scripts__) to the respective landing page for the material on the front-end website.

File: LW_Gypsum_Cone_HF25Scan_220506_R1.csv
Names,Time,Stack TC,Smoke TC,Exh Press,Smoke Comp,Smoke Meas,CO Meter,CO2 Meter,O2 Meter,Sample Mass,Ext Coeff,Start Test,Flame Verif
Chan Gain,,500,500,1,1,1,1,1,1,1,1,1.0,1.0
Offset,,0,0,0.135316,0,0,0,0,0,0,0,0.0,0.0
Gain,,1,1,25.011,13.8443,15.4071,1,1,1,1.00079,1.02936,1.0,1.0
Units,sec,C,C,Pa,%,%,%,%,%,g,/m,,
Baseline,,17.538,18.1008,142.469,105.45,104.459,0.000475671,0.0463184,20.9937,-446.339,0.0852805,,
12,2.75,16.7173,17.3503,140.193,105.114,104.189,0.000458483,0.050807,20.9918,117.273,0.0798096,0.0,0.0
24,5.75,16.7295,17.2378,143.169,105.051,104.088,0.00033579,0.0491281,20.9939,117.232,0.0830845,0.0,0.0
36,8.75,16.6587,16.884,143.474,105.01,103.998,0.000458324,0.0481413,20.9949,117.182,0.0873955,0.0,0.0
48,11.75,16.8791,17.0617,143.332,104.955,104.043,0.000580397,0.0475801,20.9951,117.122,0.0787939,0.0,0.0
60,14.75,16.7278,16.8723,142.07,104.91,103.928,0.000571039,0.0469513,20.9952,117.152,0.084939,0.0,0.0
72,17.75,17.1339,17.1415,146.627,104.869,103.832,0.000635216,0.0470282,20.9926,117.072,0.0897117,0.0,0.0
84,20.75,17.0186,17.618,141.414,104.827,103.866,0.000628757,0.0473613,20.9936,117.042,0.0831709,0.0,0.0
96,23.75,16.7066,17.2468,143.171,104.814,103.752,0.000481109,0.0472379,20.9961,116.982,0.0919399,0.0,0.0
108,26.75,16.6406,17.0986,142.691,104.79,103.807,0.000283478,0.0469217,20.9971,117.062,0.0851107,0.0,0.0
120,29.75,16.8314,17.3427,143.106,104.774,103.8,0.000198041,0.046475,20.9971,116.972,0.0843408,0.0,0.0
132,32.75,16.8393,17.7597,142.572,104.757,103.702,0.000291391,0.0461791,20.9974,116.882,0.0913592,0.0,0.0
144,35.75,17.2184,17.4709,137.906,104.765,103.873,0.000317857,0.0462385,20.9981,116.852,0.0772796,0.0,0.0
156,38.75,16.6983,18.0522,141.786,104.761,103.856,0.000228971,0.0459806,20.9982,116.802,0.0783094,0.0,0.0
168,41.75,17.2064,16.9234,141.596,104.754,103.683,0.000324445,0.0457746,20.998,116.772,0.0928593,0.0,0.0
180,44.75,17.2964,17.7954,141.559,104.756,103.692,0.000335966,0.0454638,20.9998,116.712,0.0921913,0.0,0.0
192,47.75,17.265,17.3623,139.44,104.744,103.772,0.000309954,0.0451703,21.0005,116.652,0.0841734,0.0,0.0
204,50.75,17.1074,17.2793,139.847,104.747,103.716,0.000368412,0.0450004,21.0006,116.602,0.0892981,0.0,0.0
216,53.75,16.7319,17.7315,141.962,104.739,103.82,0.000295283,0.0449363,21.0007,116.622,0.0795226,0.0,0.0
228,56.75,17.0826,17.4462,141.722,104.725,103.836,0.000242863,0.0448892,21.0007,116.532,0.0770085,0.0,0.0
240,59.75,17.6192,17.864,141.001,104.713,103.679,0.000251254,0.0450269,21.0007,116.462,0.0896179,0.0,0.0
252,62.75,17.2091,17.5909,138.935,104.683,103.535,0.000350162,0.0452078,21.0007,116.462,0.0996103,0.0,0.0
264,65.75,17.4836,17.6859,143.469,104.657,103.68,0.000302417,0.0452803,20.9996,116.362,0.084649,0.0,0.0
276,68.75,18.0267,17.6115,141.48,104.63,103.556,0.00036206,0.0452559,20.9992,116.342,0.0931736,0.0,0.0
288,71.75,17.7012,17.5369,144.585,104.63,103.535,0.000405228,0.0453757,20.9991,116.272,0.0949771,0.0,0.0
300,74.75,17.1534,18.2409,142.716,104.654,103.385,0.000281279,0.0452922,20.9991,116.222,0.110223,0.0,0.0
312,77.75,17.603,17.8935,141.117,104.726,103.424,0.000103878,0.0452859,20.9991,116.172,0.112969,0.0,0.0
324,80.75,17.4298,17.8253,143.222,104.78,103.341,0.000104482,0.0455112,20.9991,116.122,0.124859,0.0,0.0
336,83.75,17.4952,18.1354,140.168,104.841,103.152,0.000315875,0.0463141,20.9991,116.072,0.146672,0.0,0.0
348,86.75,17.6726,17.9905,144.277,104.866,103.067,0.000493419,0.0466365,20.9991,116.002,0.156192,0.0,0.0
360,89.75,17.5819,18.3391,142.015,104.867,103.025,0.000551834,0.0467742,20.9988,115.911,0.160005,0.0,0.0
372,92.75,17.7384,17.8235,140.723,104.901,103.021,0.000643806,0.0472548,20.9978,115.861,0.163327,0.0,0.0
384,95.75,17.8781,17.8492,142.671,104.873,102.766,0.000850041,0.0474015,20.9975,115.821,0.183248,0.0,0.0
396,98.75,18.0009,18.3445,142.703,104.88,102.72,0.000811859,0.0476253,20.9975,115.751,0.187881,0.0,0.0
408,101.75,17.8636,18.3836,139.605,104.894,102.713,0.000671495,0.0479319,20.9974,115.681,0.189778,0.0,0.0
420,104.75,17.7137,18.1729,142.064,104.908,102.256,0.000677265,0.0486402,20.9958,115.601,0.231245,0.0,0.0
432,107.75,18.0692,18.3368,143.617,104.925,102.079,0.000698427,0.0488657,20.9953,115.501,0.248283,0.0,0.0
444,110.75,17.927,18.4743,142.502,104.93,102.177,0.000878356,0.0490111,20.9952,115.421,0.240072,0.0,0.0
456,113.75,17.5109,18.7622,142.761,104.954,102.28,0.000991735,0.0490722,20.9948,115.341,0.233054,0.0,0.0
468,116.75,18.2665,18.5006,142.444,104.98,101.869,0.00108856,0.0492088,20.9952,115.201,0.271623,0.0,0.0
480,119.75,17.4794,19.1698,141.364,104.986,101.93,0.00148524,0.0498676,20.9953,115.121,0.266789,0.0,0.0
492,122.75,17.996,18.6543,141.464,105.009,102.039,0.00180518,0.0500709,20.9953,115.031,0.259051,0.0,0.0
504,125.75,17.9158,18.5696,139.669,105.04,101.877,0.00181605,0.0503283,20.9948,114.951,0.276074,0.0,0.0
516,128.75,18.1593,18.7688,140.208,105.035,101.339,0.00197426,0.0510102,20.9931,114.821,0.323396,0.0,0.0
528,131.75,17.9366,18.9156,138.11,105.05,101.172,0.00233703,0.0516453,20.9924,114.731,0.339625,0.0,0.0
540,134.75,18.345,18.6338,143.023,105.071,101.003,0.00278187,0.0520802,20.9924,114.63,0.356566,0.0,0.0
552,137.75,18.1233,19.0976,144.083,105.099,100.949,0.00318765,0.0525636,20.9918,114.49,0.363713,0.0,0.0
564,140.75,18.5063,18.5413,139.116,105.108,100.333,0.00355213,0.0532692,20.9914,114.38,0.419852,0.0,0.0
576,143.75,18.3879,18.853,142.906,105.131,99.97,0.00401131,0.0540868,20.9897,114.25,0.454538,0.0,0.0
588,146.75,18.0694,18.8431,141.807,105.163,101.353,0.00447912,0.0553352,20.9885,114.09,0.333253,0.0,0.0
600,149.75,18.3589,19.2281,137.449,105.173,102.929,0.00460914,0.0612867,20.9772,113.95,0.194715,0.0,0.0
612,152.75,18.4013,19.1065,135.04,105.192,105.162,0.00424776,0.102815,20.9191,113.71,0.00256361,0.0,1.0
624,155.75,19.3816,20.2395,132.733,105.219,106.346,0.00423338,0.162989,20.8531,113.429,-0.0961673,0.0,1.0
636,158.75,20.8059,20.5708,134.462,105.226,105.471,0.00511137,0.198191,20.8224,113.189,-0.0209893,0.0,1.0
648,161.75,21.7875,21.689,143.14,105.233,104.8,0.00637568,0.185711,20.8408,113.019,0.0372567,0.0,0.0
660,164.75,21.8918,22.3099,140.645,105.244,104.434,0.0077046,0.148219,20.8876,112.829,0.0698124,0.0,0.0
672,167.75,21.825,21.9341,142.821,105.253,104.383,0.00894064,0.116475,20.9212,112.709,0.0750019,0.0,0.0
684,170.75,21.1018,21.3382,141.146,105.24,104.509,0.00959707,0.099362,20.9344,112.599,0.0629429,0.0,0.0
696,173.75,20.6796,21.5405,141.755,105.231,104.35,0.00979604,0.0928539,20.9396,112.459,0.0758505,0.0,0.0
708,176.75,20.8026,21.0027,142.614,105.239,104.415,0.00967795,0.0904858,20.9413,112.349,0.0709669,0.0,0.0
720,179.75,20.111,21.3482,143.553,105.217,104.453,0.00938944,0.0897449,20.9418,112.199,0.0658211,0.0,0.0
732,182.75,20.334,21.1709,148.4,105.201,104.294,0.00896466,0.0888556,20.9429,112.118,0.078192,0.0,0.0
744,185.75,20.1451,20.5151,143.428,105.171,104.329,0.00834764,0.0873305,20.9451,111.968,0.0725324,0.0,0.0
756,188.75,19.8901,20.7652,141.139,105.131,104.229,0.00798155,0.0846756,20.9493,111.888,0.0777524,0.0,0.0
768,191.75,19.5737,21.2828,137.009,105.098,104.167,0.00768234,0.0832304,20.9504,111.788,0.0803047,0.0,0.0
780,194.75,19.6917,20.6959,140.478,105.041,104.316,0.00749156,0.0820824,20.9522,111.688,0.0625699,0.0,0.0
792,197.75,19.8961,20.653,140.652,104.985,104.142,0.00736461,0.0810308,20.954,111.588,0.0728047,0.0,0.0
804,200.75,19.9113,20.1267,138.369,104.921,104.221,0.00697852,0.0793836,20.956,111.488,0.0603932,0.0,0.0
816,203.75,19.3683,20.7518,143.595,104.857,104.07,0.0068167,0.0776309,20.9579,111.388,0.068068,0.0,0.0
828,206.75,19.7161,20.0651,143.009,104.79,103.938,0.00675548,0.0760034,20.9603,111.278,0.073676,0.0,0.0
840,209.75,19.6924,20.416,139.821,104.73,104.016,0.00663371,0.0745286,20.9625,111.218,0.0617264,0.0,0.0
852,212.75,19.8664,20.2593,144.919,104.666,103.901,0.00635008,0.0735826,20.9633,111.118,0.066225,0.0,0.0
864,215.75,19.3327,20.6708,138.81,104.628,103.841,0.00589398,0.07247,20.9646,111.088,0.0682165,0.0,0.0
876,218.75,19.0146,21.0308,137.464,104.705,103.951,0.00554318,0.0712814,20.9662,111.028,0.0653242,0.0,0.0
888,221.75,19.4792,20.0224,143.818,104.803,103.996,0.00522209,0.0698749,20.9687,110.938,0.0697771,0.0,0.0
900,224.75,18.8283,20.0787,140.432,104.814,103.958,0.00516668,0.0686133,20.97,110.817,0.0740304,0.0,0.0
912,227.75,18.8795,20.6306,141.397,104.784,103.99,0.00494211,0.0675814,20.972,110.767,0.0686737,0.0,0.0
924,230.75,19.1866,20.5006,141.604,104.736,103.945,0.00447659,0.066246,20.9721,110.667,0.068475,0.0,0.0
936,233.75,19.4052,20.082,140.681,104.689,103.741,0.00412147,0.0645705,20.9741,110.607,0.0820968,0.0,0.0
948,236.75,19.1746,20.1943,140.901,104.634,103.79,0.00388262,0.0626768,20.9768,110.537,0.0731026,0.0,0.0
960,239.75,19.4428,20.0649,136.776,104.609,103.931,0.00350554,0.060734,20.978,110.477,0.0586887,0.0,0.0
972,242.75,19.101,19.5973,144.46,104.559,103.815,0.00290391,0.0587139,20.9812,110.397,0.0644842,0.0,0.0
984,245.75,19.151,20.0525,138.984,104.496,103.552,0.00249517,0.0567808,20.9836,110.337,0.0819358,0.0,0.0
996,248.75,19.1502,20.3672,141.655,104.423,103.643,0.00244515,0.0548366,20.9866,110.267,0.0676674,0.0,0.0
1008,251.75,18.2569,19.605,150.295,104.386,103.516,0.00223861,0.052929,20.9885,110.197,0.0755922,0.0,0.0
1020,254.75,18.9007,19.8099,139.256,104.383,103.433,0.00168024,0.0514719,20.9894,110.147,0.0825661,0.0,0.0
1032,257.75,18.4022,19.7702,142.164,104.385,103.593,0.00127387,0.0497591,20.9925,110.087,0.0687624,0.0,0.0
1044,260.75,18.7709,19.6469,143.609,104.399,103.574,0.000895743,0.0488035,20.9936,110.037,0.0716493,0.0,0.0
1056,263.75,18.7756,19.5438,140.868,104.411,103.322,0.000566268,0.0480176,20.9944,109.977,0.0945883,0.0,0.0
1068,266.75,18.0211,19.4031,142.483,104.418,103.458,0.0006416,0.0471881,20.9964,109.927,0.0833415,0.0,0.0
1080,269.75,18.2352,19.3878,140.925,104.4,103.607,0.00079012,0.0467944,20.997,109.867,0.0688863,0.0,0.0
1092,272.75,18.0312,19.4133,140.298,104.404,103.508,0.00081715,0.0464545,20.9983,109.827,0.0778655,0.0,0.0
1104,275.75,18.2713,18.6981,140.879,104.418,103.468,0.000767484,0.0463356,20.998,109.787,0.0825213,0.0,0.0
1116,278.75,17.5981,19.0136,141.322,104.403,103.561,,0.0461705,,109.737,0.0731581,0.0,0.0
1128,281.75,18.4658,18.7209,144.283,104.411,103.525,,,,109.687,0.076969,0.0,0.0
1140,284.75,18.3993,19.4835,144.11,104.425,103.429,,,,109.616,0.086549,0.0,0.0
1152,287.75,18.2647,18.6915,138.847,104.422,103.556,,,,109.606,0.0751801,0.0,0.0
1153,288,18.1852,18.7488,142.184,104.412,103.544,,,,109.616,0.0753648,0.0,0.0

File: LW_Gypsum_Cone_HF25Scan_220506_R3.csv
Names,Time,Stack TC,Smoke TC,Exh Press,Smoke Comp,Smoke Meas,CO Meter,CO2 Meter,O2 Meter,Sample Mass,Ext Coeff,Start Test,Flame Verif
Chan Gain,,500,500,1,1,1,1,1,1,1,1,1.0,1.0
Offset,,0,0,0.135316,0,0,0,0,0,0,0,0.0,0.0
Gain,,1,1,25.011,13.8443,15.4071,1,1,1,1.00079,1.02936,1.0,1.0
Units,sec,C,C,Pa,%,%,%,%,%,g,/m,,
Baseline,,19.1003,19.689,141.985,104.422,103.488,0.000310451,0.0461938,21.0015,-446.465,0.0811218,,
12,2.75,17.3386,18.1995,142.534,103.724,102.813,-0.000143072,0.0543681,20.9921,115.211,0.0795931,0.0,0.0
24,5.75,18.033,18.6335,137.659,103.686,102.718,7.90218e-05,0.050889,20.9964,115.181,0.0847417,0.0,0.0
36,8.75,17.8612,17.8901,140.585,103.669,102.617,0.000253349,0.048376,20.9998,115.171,0.0920869,0.0,0.0
48,11.75,17.5857,18.3004,143.103,103.643,102.747,0.000369662,0.046596,21.0017,115.141,0.0784311,0.0,0.0
60,14.75,17.6673,18.3516,142.749,103.636,102.735,0.000274866,0.0458364,21.0043,115.091,0.0788387,0.0,0.0
72,17.75,17.8521,18.2201,139.964,103.63,102.739,0.000112548,0.0453442,21.005,115.091,0.0779882,0.0,0.0
84,20.75,17.6415,18.195,143.441,103.609,102.758,0.000274954,0.0449903,21.0052,115.061,0.0744895,0.0,0.0
96,23.75,17.5036,18.8688,137.739,103.599,102.807,0.000460796,0.0448506,21.0053,115.031,0.0693509,0.0,0.0
108,26.75,18.4156,18.376,141.292,103.583,102.695,0.000512018,0.0447061,21.0053,115.001,0.0777438,0.0,0.0
120,29.75,18.467,18.5962,146.785,103.602,102.822,0.000330752,0.0445154,21.0051,114.981,0.0682464,0.0,0.0
132,32.75,18.044,18.9212,142.308,103.596,102.644,8.50645e-05,0.0444899,21.0047,114.881,0.0833565,0.0,0.0
144,35.75,17.5453,18.7709,141.2,103.6,102.716,2.56644e-05,0.0445945,21.0046,114.841,0.0773618,0.0,0.0
156,38.75,18.1176,18.4749,140.504,103.622,102.688,0.000147356,0.044558,21.0033,114.761,0.0817566,0.0,0.0
168,41.75,18.2976,18.3767,141.164,103.635,102.758,0.000242277,0.044577,21.0047,114.72,0.0767769,0.0,0.0
180,44.75,18.6521,18.8922,145.008,103.642,102.611,0.000274966,0.0445265,21.0047,114.65,0.0903436,0.0,0.0
192,47.75,18.02,18.6798,142.116,103.661,102.733,0.000447933,0.044583,21.0037,114.62,0.0811699,0.0,0.0
204,50.75,18.4214,19.3924,138.196,103.687,102.791,0.000541201,0.0445741,21.0031,114.58,0.0784119,0.0,0.0
216,53.75,18.4391,18.4421,141.349,103.685,102.71,0.000322024,0.0446555,21.0026,114.55,0.085293,0.0,0.0
228,56.75,18.4121,18.7982,144.367,103.722,102.761,0.000100518,0.0446736,21.0024,114.47,0.0841083,0.0,0.0
240,59.75,18.3827,19.3127,143.11,103.719,102.786,0.000159029,0.0447152,21.0041,114.41,0.08162,0.0,0.0
252,62.75,18.5207,18.8733,143.661,103.749,102.904,0.000155936,0.0447171,21.0047,114.35,0.0737923,0.0,0.0
264,65.75,18.3511,18.722,142.46,103.774,102.735,8.98504e-05,0.0447915,21.0049,114.31,0.0908264,0.0,0.0
276,68.75,18.6883,19.3432,142.43,103.789,102.924,0.000107111,0.0447046,21.005,114.29,0.0755879,0.0,0.0
288,71.75,18.8439,18.8835,142.037,103.815,102.722,6.33109e-05,0.044556,21.005,114.24,0.0955895,0.0,0.0
300,74.75,18.0665,18.6898,140.852,103.833,102.679,7.50155e-05,0.0447779,21.005,114.19,0.100968,0.0,0.0
312,77.75,18.5523,18.9368,142.965,103.876,102.691,0.000216382,0.0449765,21.005,114.12,0.103525,0.0,0.0
324,80.75,18.5437,19.0224,142.084,103.899,102.586,0.000265802,0.0450446,21.0048,114.06,0.11481,0.0,0.0
336,83.75,18.3001,19.4626,139.372,103.939,102.497,0.000251098,0.0452373,21.0045,114.01,0.126202,0.0,0.0
348,86.75,18.2026,19.1054,144.154,103.984,102.232,0.0003382,0.0454652,21.0045,113.94,0.153404,0.0,0.0
360,89.75,19.1614,19.3786,141.13,103.998,102.228,0.000403749,0.0458169,21.0045,113.89,0.154989,0.0,0.0
372,92.75,18.4929,19.0796,142.382,104.017,102.008,0.000434736,0.0457783,21.0043,113.79,0.176096,0.0,0.0
384,95.75,18.8357,19.0804,141.533,104.051,101.947,0.000391074,0.0460356,21.0026,113.72,0.184478,0.0,0.0
396,98.75,18.7498,19.3484,141.74,104.082,102.031,0.000457012,0.0461546,21.0017,113.65,0.179739,0.0,0.0
408,101.75,18.8967,19.1687,144.547,104.116,101.84,0.000621088,0.0462391,21.0015,113.56,0.199659,0.0,0.0
420,104.75,19.2008,19.4043,142.807,104.141,101.621,0.000783382,0.0464962,21.0022,113.52,0.221228,0.0,0.0
432,107.75,18.6294,19.6231,138.8,104.168,101.544,0.000679255,0.0468335,21.0025,113.45,0.230311,0.0,0.0
444,110.75,18.8973,19.2164,141.621,104.189,101.548,0.000640007,0.046968,21.0026,113.319,0.231765,0.0,0.0
456,113.75,18.9889,19.6513,143.746,104.212,101.119,0.000790237,0.0474847,21.0023,113.279,0.272067,0.0,0.0
468,116.75,19.1054,19.5232,142.75,104.237,101.48,0.000913087,0.0477214,21.0003,113.189,0.242003,0.0,0.0
480,119.75,18.6442,19.489,139.987,104.242,101.291,0.00109021,0.0479347,20.9998,113.089,0.259276,0.0,0.0
492,122.75,18.855,19.8303,137.895,104.247,101.445,0.00139478,0.0483174,20.9983,113.009,0.246098,0.0,0.0
504,125.75,19.1878,19.2456,140.075,104.261,100.879,0.00173679,0.0485553,20.9982,112.889,0.297678,0.0,0.0
516,128.75,19.4509,19.6377,139.295,104.28,101.08,0.00178527,0.0489479,20.9962,112.819,0.28145,0.0,0.0
528,131.75,19.2546,19.2303,140.307,104.324,101.199,0.00198879,0.0495235,20.9943,112.739,0.274627,0.0,0.0
540,134.75,19.417,19.8544,140.884,104.324,100.583,0.00235439,0.0500966,20.9934,112.599,0.329681,0.0,0.0
552,137.75,19.1081,19.8145,141.98,104.359,100.665,0.00264839,0.0510168,20.9921,112.489,0.325452,0.0,0.0
564,140.75,18.8191,20.0055,139.485,104.384,100.168,0.00310887,0.0519418,20.9898,112.369,0.37225,0.0,0.0
576,143.75,19.5561,20.0177,138.55,104.4,99.908,0.00361881,0.0529635,20.9886,112.279,0.397113,0.0,0.0
588,146.75,19.1041,20.1809,139.767,104.421,99.8078,0.00391141,0.0539105,20.9863,112.098,0.40796,0.0,0.0
600,149.75,19.589,20.5242,139.4,104.438,101.199,0.00406541,0.061607,20.981,111.938,0.284464,0.0,0.0
612,152.75,19.5922,20.409,134.678,104.477,104.994,0.00336892,0.112015,20.9146,111.618,-0.0445876,0.0,1.0
624,155.75,21.1295,20.8793,127.92,104.502,106.009,0.00320472,0.202039,20.8236,111.318,-0.129272,0.0,1.0
636,158.75,22.2223,22.0935,133.198,104.528,104.532,0.00422442,0.219124,20.8144,111.088,-0.000334765,0.0,0.0
648,161.75,22.3536,22.7428,135.606,104.553,104.01,0.00587741,0.185135,20.8475,110.928,0.0469763,0.0,0.0
660,164.75,22.3825,23.0517,137.021,104.562,103.875,0.00757488,0.141512,20.8913,110.777,0.0595431,0.0,0.0
672,167.75,22.7883,22.702,141.198,104.586,103.674,0.00893955,0.110307,20.9272,110.637,0.0790916,0.0,0.0
684,170.75,22.825,22.5359,141.745,104.615,103.831,0.00948445,0.0947051,20.9413,110.497,0.0679815,0.0,0.0
696,173.75,21.848,21.9388,136.468,104.632,103.863,0.00966869,0.0900898,20.9461,110.397,0.0666599,0.0,0.0
708,176.75,21.7705,22.667,143.415,104.64,103.926,0.00969611,0.0890512,20.945,110.247,0.0617638,0.0,0.0
720,179.75,21.4933,21.922,140.752,104.656,103.954,0.00971936,0.0891343,20.9438,110.167,0.0606979,0.0,0.0
732,182.75,21.0883,22.3775,141.934,104.678,103.994,0.00963581,0.088717,20.9448,110.037,0.0592352,0.0,0.0
744,185.75,21.3571,21.954,142.827,104.691,103.955,0.00925924,0.0872483,20.9468,109.937,0.0637136,0.0,0.0
756,188.75,21.1852,22.1654,140.689,104.713,103.861,0.00870576,0.0851499,20.9508,109.837,0.0737849,0.0,0.0
768,191.75,21.1126,22.0914,140.9,104.732,103.974,0.00806877,0.0838138,20.9523,109.747,0.0656554,0.0,0.0
780,194.75,21.3065,22.2122,140.216,104.73,103.905,0.00771733,0.0820214,20.9541,109.646,0.0714368,0.0,0.0
792,197.75,21.1165,21.7105,142.859,104.74,103.966,0.00761773,0.080125,20.9557,109.526,0.067005,0.0,0.0
804,200.75,20.8412,21.696,141.7,104.738,103.904,0.00726336,0.0791071,20.956,109.436,0.0722516,0.0,0.0
816,203.75,21.0027,21.6696,140.574,104.737,103.827,0.0069797,0.0779758,20.9585,109.336,0.0788462,0.0,0.0
828,206.75,20.4877,21.9397,143.015,104.728,103.868,0.00673675,0.0767152,20.9601,109.246,0.0744468,0.0,0.0
840,209.75,20.4206,21.3061,138.805,104.746,103.935,0.00629752,0.0752725,20.962,109.166,0.0701745,0.0,0.0
852,212.75,20.5324,21.5162,141.923,104.719,103.968,0.00595192,0.0742445,20.964,109.066,0.065057,0.0,0.0
864,215.75,20.4844,21.3289,139.514,104.716,103.848,0.00570657,0.0726249,20.9674,108.966,0.0751481,0.0,0.0
876,218.75,20.8803,21.9411,136.905,104.692,103.916,0.00537046,0.0711228,20.97,108.886,0.0671813,0.0,0.0
888,221.75,20.4989,20.9963,139.626,104.672,103.803,0.00496935,0.0693876,20.972,108.806,0.0752026,0.0,0.0
900,224.75,20.3494,20.9363,141.402,104.666,103.981,0.00468139,0.0677878,20.9742,108.706,0.0592854,0.0,0.0
912,227.75,20.1673,20.8467,140.788,104.631,103.796,0.00467528,0.0663352,20.9762,108.576,0.0723157,0.0,0.0
924,230.75,20.4536,21.3435,138.432,104.598,103.862,0.00457515,0.0648401,20.9787,108.526,0.0637884,0.0,0.0
936,233.75,20.2291,20.3975,140.864,104.576,103.759,0.00418834,0.0630839,20.9807,108.446,0.0708067,0.0,0.0
948,236.75,20.2348,20.8414,139.75,104.537,103.626,0.00364429,0.0613418,20.9831,108.355,0.0790009,0.0,0.0
960,239.75,20.0086,21.4627,141.596,104.505,103.877,0.00316402,0.0594688,20.9848,108.275,0.0543747,0.0,0.0
972,242.75,19.6538,20.8689,140.707,104.513,103.666,0.00293394,0.0579,20.986,108.205,0.0734795,0.0,0.0
984,245.75,19.8554,20.5805,140.288,104.497,103.744,0.002527,0.056175,20.9871,108.195,0.0652921,0.0,0.0
996,248.75,19.3447,20.8209,139.712,104.476,103.527,0.0020586,0.0543378,20.9909,108.135,0.0824339,0.0,0.0
1008,251.75,19.7573,20.5386,145.323,104.46,103.65,0.00180439,0.052449,20.9929,107.955,0.070308,0.0,0.0
1020,254.75,19.16,19.9128,141.564,104.484,103.698,0.00160621,0.0507833,20.9942,107.975,0.0682485,0.0,0.0
1032,257.75,19.9543,20.6733,141.481,104.476,103.687,0.00153755,0.0495031,20.9963,107.945,0.0684974,0.0,0.0
1044,260.75,19.1843,20.1462,141.41,104.471,103.79,0.00135999,0.0486008,20.9966,107.865,0.0590598,0.0,0.0
1056,263.75,19.0961,20.1446,140.237,104.476,103.772,0.0011337,0.047815,20.9964,107.845,0.0610155,0.0,0.0
1068,266.75,19.3503,20.3352,139.282,104.459,103.631,0.000892841,0.0472102,20.9982,107.785,0.0718747,0.0,0.0
1080,269.75,19.0261,20.3889,140.926,104.472,103.596,0.000485964,0.0468093,21.0016,107.695,0.0760426,0.0,0.0
1092,272.75,19.4207,20.2584,141.134,104.49,103.849,0.000281588,0.0465305,21.0033,107.645,0.0556286,0.0,0.0
1104,275.75,19.3603,19.8202,140.118,104.478,103.646,,0.0464005,,107.565,0.0722473,0.0,0.0
1116,278.75,18.8237,20.1777,142.739,104.468,103.567,,,,107.485,0.0782187,0.0,0.0
1128,281.75,19.0183,20.0762,141.039,104.452,103.669,,,,107.525,0.0680124,0.0,0.0
1140,284.75,19.3107,20.3274,143.557,104.447,103.603,,,,107.495,0.0732734,0.0,0.0
1145,286,19.3523,20.4008,141.76,104.452,103.638,,,,107.445,0.0705974,0.0,0.0

File: LW_Gypsum_Cone_HF50Scalar_220506_R2.csv
LABORATORY,FSRI
TEST IDENT,LW_Gypsum_HF50_2
OPERATOR,Dow
MATERIAL,lightweight gypsum
ORIENTATION,Horizontal
HEAT FLUX,50
SURF AREA,0.01
C FACTOR,0.0414606
SPEC HOLDER DIFF,-566
SPECIMEN MASS,63.75
SCAN TIME,0.25
O2 DELAY TIME,11
CO DELAY TIME,11
CO2 DELAY TIME,8
FLOW FACTOR,1
SCAN COUNT,661
TIME TO IGN,29.25
END OF TEST SCAN,181
END OF TEST TIME,45.25
TEST STATUS,1
PRE TEST CMT,Dimensions: 99.19 x 101.82 x 12.57 mm