Folder: fsri_materials_database/01_Data/FDNY_LDF/STA/N2/10K_min

Note: 01_Data/README.md
# Materials and Products Database
## 01_Data

Raw data generated from each apparatus are included here in plain-text format. The data is organized first by material, next by the short name of test apparatus used, and where applicable additional filtering by test settings.

### material.json

Each material directory contains a json file of the same name as the material. This file links the data stored in the repository as well as data and graphs produced by the accompanying scripts (__02_Scripts__) to the respective landing page for the material on the front-end website.

File: FDNY_LDF_STA_N2_10KData_22254_R2.csv
##Temp./Â°C,Time/min,DSC(subtr.)/(mW/mg),Mass loss(subtr.)/mg,Sensit./(uV/mW)
49.843,10.00917,0.008134211,0.01481,1.06049
53.043,11.32,0.12279,0.01666402,1.05982
56.243,11.77102,0.1784,0.02128286,1.05914
59.443,12.15599,0.20679,0.01676735,1.05843
62.643,12.51713,0.23294,0.0167371,1.05771
65.843,12.86806,0.24861,0.01677079,1.05697
69.043,13.21186,0.26554,0.01682795,1.05621
72.243,13.5527,0.2787,0.01550392,1.05543
75.443,13.8888,0.29493,0.01415997,1.05463
78.643,14.2219,0.30388,0.01283,1.05381
81.843,14.5515,0.31094,0.01119425,1.05298
85.043,14.87708,0.31806,0.01020897,1.05212
88.243,15.20026,0.31851,0.009589924,1.05125
91.443,15.5212,0.31998,0.008876387,1.05036
94.643,15.8391,0.31547,0.007570006,1.04945
97.843,16.15624,0.31352,0.006855005,1.04853
101.043,16.47099,0.30569,0.00626,1.04758
104.243,16.78568,0.30047,0.006254703,1.04662
107.443,17.0984,0.29268,0.00599022,1.04564
110.643,17.412,0.29026,0.005168575,1.04464
113.843,17.7255,0.28566,0.005269141,1.04362
117.043,18.03706,0.28633,0.006240079,1.04259
120.243,18.34846,0.28523,0.00533169,1.04153
123.443,18.6605,0.28611,0.004961898,1.04047
126.643,18.9699,0.28812,0.00560004,1.03938
129.843,19.28039,0.28988,0.006250164,1.03827
133.043,19.59,0.29322,0.00657999,1.03715
136.243,19.899,0.29901,0.006579988,1.03601
139.443,20.20649,0.30076,0.00518099,1.03486
142.643,20.5144,0.30069,0.007899067,1.03369
145.843,20.8231,0.30585,0.006372905,1.0325
149.043,21.1305,0.30927,0.00768,1.03129
152.243,21.43809,0.31418,0.007571139,1.03007
155.443,21.74522,0.31639,0.00746049,1.02883
158.643,22.05211,0.3208,0.007500951,1.02757
161.843,22.3584,0.32553,0.007460191,1.0263
165.043,22.66556,0.32844,0.00679993,1.02501
168.243,22.97233,0.32958,0.00681036,1.02371
171.443,23.27822,0.33552,0.005800109,1.02239
174.643,23.5851,0.33679,0.00458083,1.02105
177.843,23.89007,0.34274,0.004466241,1.01969
181.043,24.19567,0.34635,0.00451,1.01833
184.243,24.501,0.35055,0.003140374,1.01694
187.443,24.80595,0.35313,0.00157202,1.01554
190.643,25.11076,0.3603,0.004165886,1.01412
193.843,25.41583,0.36732,0.0005517819,1.01269
197.043,25.72061,0.37108,0.0005502773,1.01124
200.243,26.02465,0.37632,-0.0006654438,1.00978
203.443,26.32978,0.3816,-0.00471,1.0083
206.643,26.63492,0.38628,-0.005698204,1.00681
209.843,26.93905,0.39016,-0.008339995,1.0053
213.043,27.24425,0.39698,-0.008782996,1.00378
216.243,27.54897,0.40354,-0.01228382,1.00224
219.443,27.85435,0.40562,-0.01621723,1.00069
222.643,28.15902,0.41076,-0.01984678,0.99912
225.843,28.4634,0.4164,-0.02481679,0.99754
229.043,28.7684,0.4214,-0.02873957,0.99595
232.243,29.07413,0.41765,-0.03466283,0.99433
235.443,29.3793,0.42037,-0.03958995,0.99271
238.643,29.68425,0.42634,-0.04420469,0.99107
241.843,29.9885,0.42946,-0.05221819,0.98942
245.043,30.29389,0.43217,-0.06134654,0.98775
248.243,30.59876,0.43879,-0.06863871,0.98607
251.443,30.9039,0.43985,-0.07918985,0.98438
254.643,31.20915,0.44692,-0.09026062,0.98267
257.843,31.51496,0.44848,-0.10316,0.98095
261.043,31.8198,0.45205,-0.11637,0.97921
264.243,32.1248,0.45759,-0.13173,0.97746
267.443,32.43117,0.45967,-0.14939,0.9757
270.643,32.737,0.46166,-0.16767,0.97392
273.843,33.04316,0.4658,-0.18864,0.97214
277.043,33.34973,0.4678,-0.21274,0.97033
280.243,33.65555,0.47238,-0.23945,0.96852
283.443,33.96133,0.47686,-0.26723,0.96669
286.643,34.26719,0.4828,-0.2974,0.96485
289.843,34.5723,0.49063,-0.33011,0.963
293.043,34.87751,0.49844,-0.36664,0.96114
296.243,35.18388,0.5031,-0.40604,0.95926
299.443,35.48965,0.51523,-0.44946,0.95737
302.643,35.79594,0.52818,-0.49647,0.95547
305.843,36.10223,0.53983,-0.54722,0.95355
309.043,36.40808,0.55027,-0.60226,0.95163
312.243,36.71569,0.56647,-0.661,0.94969
315.443,37.0227,0.57843,-0.72524,0.94774
318.643,37.3298,0.59394,-0.79326,0.94578
321.843,37.63734,0.60164,-0.86484,0.94381
325.043,37.94534,0.61298,-0.93868,0.94182
328.243,38.25353,0.62073,-1.0176,0.93982
331.443,38.5618,0.62646,-1.09584,0.93782
334.643,38.86978,0.63684,-1.17502,0.9358
337.843,39.17773,0.64281,-1.25763,0.93377
341.043,39.48563,0.6587,-1.33958,0.93173
344.243,39.79437,0.67367,-1.4272,0.92968
347.443,40.1034,0.70044,-1.51506,0.92762
350.643,40.41173,0.73833,-1.60681,0.92554
353.843,40.72193,0.77714,-1.70704,0.92346
357.043,41.03204,0.81609,-1.81077,0.92136
360.243,41.34196,0.84919,-1.92014,0.91926
363.443,41.6535,0.87233,-2.03506,0.91715
366.643,41.96457,0.8768,-2.15189,0.91502
369.843,42.2757,0.85121,-2.26811,0.91288
373.043,42.58663,0.78348,-2.37431,0.91074
376.243,42.89755,0.6796,-2.47318,0.90858
379.443,43.20789,0.54817,-2.55479,0.90642
382.643,43.5177,0.40298,-2.61628,0.90424
385.843,43.8274,0.26909,-2.65901,0.90206
389.043,44.13778,0.17063,-2.68477,0.89987
392.243,44.44801,0.11454,-2.70399,0.89766
395.443,44.7584,0.09105132,-2.7169,0.89545
398.643,45.0704,0.07906759,-2.72683,0.89323
401.843,45.3834,0.06817269,-2.7372,0.891
405.043,45.69607,0.06246124,-2.74803,0.88876
408.243,46.00908,0.0527486,-2.75772,0.88651
411.443,46.32162,0.04653213,-2.76726,0.88425
414.643,46.63414,0.04286751,-2.77818,0.88198
417.843,46.9467,0.03756455,-2.78724,0.87971
421.043,47.25884,0.028764,-2.79709,0.87742
424.243,47.5718,0.02128789,-2.80794,0.87513
427.443,47.88487,0.0146965,-2.81638,0.87283
430.643,48.19815,0.01504398,-2.82732,0.87052
433.843,48.51174,0.01252636,-2.83748,0.8682
437.043,48.82509,0.01511546,-2.84552,0.86588
440.243,49.1386,0.01916322,-2.85454,0.86354
443.443,49.45169,0.02763972,-2.8643,0.8612
446.643,49.766,0.03375156,-2.87228,0.85885
449.843,50.0799,0.04076545,-2.88144,0.85649
453.043,50.39459,0.04812236,-2.88987,0.85413
456.243,50.70913,0.05806579,-2.8967,0.85176
459.443,51.02393,0.06699223,-2.90295,0.84938
462.643,51.33862,0.075253,-2.90832,0.84699
465.843,51.65339,0.08577321,-2.9167,0.8446
469.043,51.96873,0.09375094,-2.92193,0.8422
472.243,52.2836,0.09920481,-2.92632,0.83979
475.443,52.59964,0.10576,-2.93146,0.83737
478.643,52.9149,0.10837,-2.93783,0.83495
481.843,53.2307,0.11573,-2.94331,0.83252
485.043,53.5464,0.12158,-2.94463,0.83008
488.243,53.86215,0.12148,-2.95041,0.82764
491.443,54.1785,0.12515,-2.95593,0.82519
494.643,54.4947,0.12569,-2.95727,0.82274
497.843,54.8109,0.13135,-2.96295,0.82028
501.043,55.12778,0.13331,-2.96678,0.81781
504.243,55.445,0.1327,-2.9704,0.81534
507.443,55.762,0.13689,-2.97337,0.81286
510.643,56.0786,0.13634,-2.97699,0.81037
513.843,56.39516,0.14194,-2.98258,0.80788
517.043,56.7123,0.15333,-2.98548,0.80538
520.243,57.0295,0.15789,-2.98685,0.80288
523.443,57.3461,0.1736,-2.99264,0.80037
526.643,57.6633,0.18048,-2.99518,0.79785
529.843,57.98085,0.18704,-2.99765,0.79533
533.043,58.29863,0.18961,-3.00106,0.79281
536.243,58.61505,0.19154,-3.00375,0.79028
539.443,58.9337,0.19393,-3.00575,0.78774
542.643,59.252,0.19773,-3.00935,0.7852
545.843,59.57054,0.19793,-3.01178,0.78266
549.043,59.88836,0.1955,-3.01527,0.78011
552.243,60.2075,0.1969,-3.01724,0.77755
555.443,60.52604,0.19883,-3.02119,0.77499
558.643,60.84474,0.19066,-3.02382,0.77243
561.843,61.1623,0.1868,-3.0271,0.76986
565.043,61.4814,0.18582,-3.02876,0.76729
568.243,61.80019,0.18435,-3.03073,0.76471
571.443,62.11999,0.18309,-3.03369,0.76213
574.643,62.43948,0.18079,-3.03501,0.75954
577.843,62.76011,0.17979,-3.03896,0.75695
581.043,63.0809,0.17863,-3.04258,0.75436
584.243,63.40155,0.1799,-3.04389,0.75176
587.443,63.72186,0.17958,-3.04653,0.74916
590.643,64.04223,0.17708,-3.04786,0.74656
593.843,64.36282,0.17481,-3.04937,0.74395
597.043,64.6832,0.17131,-3.05048,0.74134
600.243,65.00386,0.17415,-3.05343,0.73872
603.443,65.32509,0.16903,-3.05575,0.7361
606.643,65.64602,0.16725,-3.05804,0.73348
609.843,65.96595,0.16935,-3.06067,0.73085
613.043,66.28744,0.16552,-3.06265,0.72822
616.243,66.60837,0.1643,-3.06264,0.72559
619.443,66.9297,0.15924,-3.06695,0.72296
622.643,67.25089,0.15784,-3.06824,0.72032
625.843,67.57202,0.15178,-3.07087,0.71768
629.043,67.89304,0.15529,-3.07088,0.71504
632.243,68.2136,0.14993,-3.0722,0.71239
635.443,68.53413,0.14693,-3.07351,0.70974
638.643,68.85639,0.14718,-3.07483,0.70709
641.843,69.1788,0.14255,-3.07615,0.70444
645.043,69.50053,0.13659,-3.07746,0.70179
648.243,69.82264,0.13618,-3.07874,0.69913
651.443,70.14523,0.13599,-3.08211,0.69647
654.643,70.46771,0.13375,-3.08206,0.69381
657.843,70.7902,0.13091,-3.08207,0.69114
661.043,71.11191,0.13226,-3.0847,0.68848
664.243,71.4345,0.12957,-3.08602,0.68581
667.443,71.75699,0.13178,-3.08733,0.68314
670.643,72.0799,0.12891,-3.08739,0.68047
673.843,72.40207,0.13289,-3.08733,0.6778
677.043,72.72453,0.13373,-3.08928,0.67513
680.243,73.04711,0.13435,-3.09194,0.67245
683.443,73.3699,0.13277,-3.09194,0.66978
686.643,73.69311,0.13496,-3.09291,0.6671
689.843,74.01684,0.13708,-3.09391,0.66442
693.043,74.34009,0.13456,-3.09454,0.66174
696.243,74.66476,0.13828,-3.09721,0.65906
699.443,74.98829,0.13798,-3.09786,0.65638
702.643,75.31143,0.14088,-3.09852,0.6537
705.843,75.636,0.15076,-3.09983,0.65102
709.043,75.9593,0.14843,-3.10072,0.64834
712.243,76.28353,0.15149,-3.10105,0.64565
715.443,76.60823,0.15404,-3.10203,0.64297
718.643,76.93247,0.1577,-3.10367,0.64028
721.843,77.25633,0.15764,-3.10631,0.6376
725.043,77.5804,0.16295,-3.10499,0.63491
728.243,77.90436,0.16352,-3.10499,0.63223
731.443,78.22886,0.16509,-3.10597,0.62954
734.643,78.55322,0.16723,-3.1063,0.62686
737.843,78.87776,0.16686,-3.10899,0.62417
741.043,79.2028,0.16067,-3.10894,0.62149
744.243,79.52717,0.1578,-3.10927,0.61881
747.443,79.85123,0.16072,-3.11058,0.61612
750.643,80.17545,0.16525,-3.11157,0.61344
753.843,80.4999,0.17241,-3.11453,0.61075
757.043,80.82497,0.16492,-3.11322,0.60807
760.243,81.1493,0.16308,-3.11354,0.60539
763.443,81.4738,0.16695,-3.11486,0.60271
766.643,81.7976,0.16785,-3.11553,0.60003
769.843,82.12144,0.16595,-3.11849,0.59735
773.043,82.4458,0.15803,-3.11841,0.59467
776.243,82.77068,0.16425,-3.1198,0.59199
779.443,83.0954,0.16411,-3.12039,0.58931
782.643,83.4196,0.17038,-3.12243,0.58664
785.843,83.7445,0.17785,-3.12178,0.58396
789.043,84.06907,0.18138,-3.12309,0.58129
792.243,84.39404,0.18139,-3.12309,0.57862
795.443,84.71925,0.1877,-3.1244,0.57595
798.143,84.9932,0.1935,-3.12441,0.57369

File: LDF_STA_N2_10KData_22224_R1.csv
##Temp./Â°C,Time/min,DSC(subtr.)/(mW/mg),Mass loss(subtr.)/mg,Sensit./(uV/mW)
49.718,10.01,0.007835105,0.00592,1.06051
53.018,11.3415,0.11085,0.005112338,1.05983
56.318,11.80206,0.1533,0.00780823,1.05912
59.618,12.19903,0.18116,0.006552513,1.0584
62.918,12.57126,0.20029,0.006138719,1.05765
66.218,12.9316,0.2129,0.00614944,1.05688
69.518,13.28614,0.22505,0.006160704,1.05609
72.818,13.63618,0.23629,0.00483194,1.05529
76.118,13.98345,0.24989,0.00352128,1.05446
79.418,14.32605,0.26027,0.003402843,1.05361
82.718,14.665,0.26791,0.0020493,1.05275
86.018,15.00048,0.2721,0.000769227,1.05186
89.318,15.33301,0.27273,-0.000787112,1.05095
92.618,15.66305,0.27111,-0.004699328,1.05003
95.918,15.9902,0.26608,-0.003505357,1.04909
99.218,16.31656,0.25936,-0.005171567,1.04812
102.518,16.64105,0.25393,-0.007463211,1.04714
105.818,16.9646,0.24658,-0.00701995,1.04614
109.118,17.28719,0.24244,-0.006909317,1.04512
112.418,17.61025,0.24128,-0.008221445,1.04408
115.718,17.9313,0.23601,-0.00625,1.04302
119.018,18.25333,0.23428,-0.007138555,1.04194
122.318,18.57471,0.2361,-0.006894955,1.04084
125.618,18.89554,0.2371,-0.006602588,1.03973
128.918,19.21554,0.23822,-0.00657817,1.0386
132.218,19.53556,0.23922,-0.006916511,1.03744
135.518,19.8554,0.2431,-0.008880261,1.03627
138.818,20.17399,0.24532,-0.00822999,1.03509
142.118,20.49311,0.24819,-0.00821999,1.03388
145.418,20.81136,0.24931,-0.00822,1.03266
148.718,21.12881,0.25272,-0.00959341,1.03141
152.018,21.44629,0.25571,-0.007598843,1.03015
155.318,21.7634,0.25753,-0.00773942,1.02888
158.618,22.0806,0.2593,-0.00757008,1.02758
161.918,22.39734,0.26,-0.006569357,1.02627
165.218,22.71335,0.26177,-0.009208735,1.02494
168.518,23.03076,0.26341,-0.007899999,1.02359
171.818,23.34625,0.26861,-0.009204771,1.02223
175.118,23.66207,0.27134,-0.0111804,1.02085
178.418,23.9773,0.27383,-0.01053007,1.01945
181.718,24.29211,0.27991,-0.01120052,1.01803
185.018,24.60745,0.28188,-0.01514008,1.0166
188.318,24.92211,0.28511,-0.01461482,1.01515
191.618,25.2372,0.28884,-0.01727368,1.01369
194.918,25.552,0.29235,-0.01777005,1.01221
198.218,25.867,0.29962,-0.02083355,1.01071
201.518,26.18154,0.30321,-0.0233638,1.00919
204.818,26.49573,0.30943,-0.02456818,1.00766
208.118,26.8095,0.3115,-0.02313492,1.00612
211.418,27.1231,0.31696,-0.02986561,1.00456
214.718,27.43733,0.32331,-0.033656,1.00298
218.018,27.75098,0.32537,-0.03700348,1.00138
221.318,28.0649,0.32732,-0.03894,0.99977
224.618,28.37935,0.32984,-0.0415693,0.99815
227.918,28.6943,0.33397,-0.04744545,0.99651
231.218,29.0086,0.33148,-0.05340948,0.99485
234.518,29.3231,0.33184,-0.05751287,0.99318
237.818,29.63873,0.33371,-0.06393572,0.9915
241.118,29.95369,0.33528,-0.07021866,0.98979
244.418,30.26783,0.3408,-0.08107933,0.98808
247.718,30.58292,0.3466,-0.09105777,0.98635
251.018,30.8972,0.34894,-0.10179,0.9846
254.318,31.21095,0.35254,-0.11335,0.98284
257.618,31.52627,0.35512,-0.12635,0.98107
260.918,31.84102,0.35768,-0.14014,0.97928
264.218,32.1556,0.36317,-0.1552,0.97747
267.518,32.47033,0.36293,-0.17747,0.97566
270.818,32.78563,0.3688,-0.19698,0.97383
274.118,33.10131,0.37075,-0.22106,0.97198
277.418,33.4168,0.37464,-0.24551,0.97012
280.718,33.73258,0.37874,-0.27349,0.96825
284.018,34.0488,0.3833,-0.30455,0.96636
287.318,34.36448,0.38681,-0.34006,0.96446
290.618,34.68025,0.39774,-0.37615,0.96255
293.918,34.99664,0.40011,-0.4146,0.96062
297.218,35.31281,0.4105,-0.46189,0.95868
300.518,35.63004,0.4226,-0.50818,0.95673
303.818,35.94642,0.43345,-0.56068,0.95477
307.118,36.26335,0.44592,-0.6179,0.95279
310.418,36.58032,0.45885,-0.68142,0.9508
313.718,36.89712,0.47424,-0.74994,0.94879
317.018,37.21416,0.49168,-0.82028,0.94678
320.318,37.5311,0.49978,-0.89161,0.94475
323.618,37.84856,0.51041,-0.97346,0.94271
326.918,38.16594,0.51743,-1.05165,0.94065
330.218,38.48395,0.52076,-1.13817,0.93859
333.518,38.80188,0.5275,-1.22248,0.93651
336.818,39.11945,0.53126,-1.30919,0.93442
340.118,39.43761,0.54217,-1.39522,0.93232
343.418,39.75594,0.56177,-1.48749,0.93021
346.718,40.07447,0.59125,-1.58518,0.92808
350.018,40.3936,0.62438,-1.68139,0.92595
353.318,40.7125,0.66473,-1.78749,0.9238
356.618,41.03164,0.70994,-1.89587,0.92164
359.918,41.35163,0.75176,-2.01496,0.91947
363.218,41.6723,0.77811,-2.13631,0.91729
366.518,41.9923,0.78008,-2.26207,0.9151
369.818,42.3116,0.74814,-2.38517,0.9129
373.118,42.63159,0.67124,-2.50081,0.91069
376.418,42.951,0.55115,-2.60201,0.90847
379.718,43.2699,0.39973,-2.68662,0.90623
383.018,43.5889,0.23831,-2.74962,0.90399
386.318,43.90784,0.09436493,-2.79111,0.90173
389.618,44.22664,0.001179264,-2.81509,0.89947
392.918,44.54615,-0.04442253,-2.83357,0.8972
396.218,44.8665,-0.06374292,-2.84293,0.89491
399.518,45.18698,-0.07616344,-2.85505,0.89262
402.818,45.50824,-0.08605784,-2.86625,0.89031
406.118,45.82926,-0.0925085,-2.87999,0.888
409.418,46.1498,-0.10018,-2.88674,0.88568
412.718,46.47166,-0.10715,-2.89696,0.88335
416.018,46.7928,-0.11861,-2.90388,0.881
419.318,47.11497,-0.12721,-2.91611,0.87865
422.618,47.43765,-0.13413,-2.9268,0.87629
425.918,47.7607,-0.13697,-2.93798,0.87393
429.218,48.0843,-0.14614,-2.94849,0.87155
432.518,48.408,-0.1485,-2.95479,0.86916
435.818,48.7316,-0.15388,-2.9616,0.86677
439.118,49.05592,-0.14781,-2.97578,0.86436
442.418,49.37965,-0.14614,-2.98202,0.86195
445.718,49.70303,-0.14318,-2.99227,0.85953
449.018,50.02684,-0.13588,-3.00053,0.8571
452.318,50.35203,-0.12897,-3.00812,0.85467
455.618,50.67647,-0.12165,-3.0129,0.85222
458.918,51.0013,-0.11131,-3.01988,0.84977
462.218,51.32581,-0.10233,-3.02647,0.84731
465.518,51.64974,-0.09722181,-3.03312,0.84484
468.818,51.97452,-0.08905505,-3.0384,0.84236
472.118,52.29916,-0.08406788,-3.04598,0.83988
475.418,52.62461,-0.08473606,-3.0477,0.83739
478.718,52.95006,-0.07781257,-3.05389,0.83489
482.018,53.27548,-0.07716838,-3.05958,0.83239
485.318,53.60122,-0.07531531,-3.06254,0.82987
488.618,53.92675,-0.07909977,-3.06622,0.82736
491.918,54.2524,-0.07910951,-3.07143,0.82483
495.218,54.5785,-0.07892141,-3.07538,0.8223
498.518,54.90404,-0.07388365,-3.07698,0.81976
501.818,55.23039,-0.06842629,-3.08174,0.81721
505.118,55.5566,-0.06317322,-3.08606,0.81466
508.418,55.88341,-0.05441454,-3.0876,0.8121
511.718,56.2092,-0.04681786,-3.09321,0.80953
515.018,56.5357,-0.03877662,-3.09688,0.80696
518.318,56.86232,-0.03904504,-3.09743,0.80438
521.618,57.1889,-0.03821869,-3.1041,0.8018
524.918,57.51675,-0.03771866,-3.10582,0.79921
528.218,57.84389,-0.04168873,-3.1083,0.79662
531.518,58.17255,-0.04553212,-3.11236,0.79401
534.818,58.50169,-0.04399933,-3.11497,0.79141
538.118,58.8297,-0.04889837,-3.11694,0.7888
541.418,59.1579,-0.05504267,-3.12023,0.78618
544.718,59.48497,-0.06183347,-3.12425,0.78355
548.018,59.81366,-0.07027936,-3.12679,0.78093
551.318,60.14155,-0.07895622,-3.13142,0.77829
554.618,60.47099,-0.08141589,-3.13186,0.77566
557.918,60.80013,-0.08647987,-3.13604,0.77301
561.218,61.1304,-0.08988714,-3.13997,0.77036
564.518,61.46011,-0.09125373,-3.14129,0.76771
567.818,61.7898,-0.1005,-3.14338,0.76505
571.118,62.11914,-0.10109,-3.1447,0.76239
574.418,62.4481,-0.10223,-3.14855,0.75973
577.718,62.77763,-0.10313,-3.14963,0.75706
581.018,63.10702,-0.10693,-3.15086,0.75438
584.318,63.43626,-0.10918,-3.15151,0.7517
587.618,63.76595,-0.11282,-3.15657,0.74902
590.918,64.0959,-0.11327,-3.15868,0.74633
594.218,64.4264,-0.11759,-3.16137,0.74364
597.518,64.75667,-0.11988,-3.164,0.74095
600.818,65.08699,-0.12553,-3.16729,0.73825
604.118,65.4181,-0.12318,-3.16779,0.73555
607.418,65.75009,-0.12601,-3.17124,0.73284
610.718,66.0814,-0.12762,-3.1719,0.73013
614.018,66.41238,-0.12653,-3.17585,0.72742
617.318,66.74305,-0.12845,-3.17654,0.72471
620.618,67.07446,-0.12873,-3.17914,0.72199
623.918,67.4049,-0.12823,-3.18078,0.71927
627.218,67.73732,-0.13446,-3.18209,0.71654
630.518,68.0683,-0.12906,-3.18474,0.71382
633.818,68.40005,-0.13092,-3.18781,0.71109
637.118,68.73187,-0.13304,-3.1888,0.70836
640.418,69.06359,-0.13874,-3.18449,0.70562
643.718,69.39564,-0.14501,-3.1909,0.70288
647.018,69.72775,-0.14497,-3.19,0.70015
650.318,70.06023,-0.14871,-3.19395,0.6974
653.618,70.39288,-0.15171,-3.19394,0.69466
656.918,70.72454,-0.15839,-3.19461,0.69191
660.218,71.05586,-0.15355,-3.19658,0.68917
663.518,71.3879,-0.15391,-3.19824,0.68642
666.818,71.72113,-0.1581,-3.19692,0.68366
670.118,72.05414,-0.15842,-3.20098,0.68091
673.418,72.38675,-0.15836,-3.2013,0.67816
676.718,72.71948,-0.15942,-3.20129,0.6754
680.018,73.05201,-0.16316,-3.20261,0.67264
683.318,73.38511,-0.1596,-3.20491,0.66988
686.618,73.71794,-0.16316,-3.20385,0.66712
689.918,74.0506,-0.16175,-3.2081,0.66436
693.218,74.3838,-0.16803,-3.2037,0.6616
696.518,74.717,-0.16194,-3.20603,0.65883
699.818,75.04995,-0.16061,-3.21007,0.65607
703.118,75.3836,-0.16101,-3.21385,0.6533
706.418,75.718,-0.1594,-3.2127,0.65054
709.718,76.0517,-0.15876,-3.21138,0.64777
713.018,76.38584,-0.16099,-3.21277,0.645
716.318,76.7202,-0.1594,-3.21138,0.64223
719.618,77.05448,-0.16146,-3.21362,0.63947
722.918,77.38835,-0.15816,-3.21369,0.6367
726.218,77.72171,-0.15981,-3.215,0.63393
729.518,78.05535,-0.16213,-3.21238,0.63116
732.818,78.38923,-0.16435,-3.21313,0.62839
736.118,78.7233,-0.16577,-3.21841,0.62562
739.418,79.05912,-0.16064,-3.22269,0.62285
742.718,79.39514,-0.16105,-3.21808,0.62008
746.018,79.73014,-0.16336,-3.22071,0.61732
749.318,80.06446,-0.1619,-3.22071,0.61455
752.618,80.39774,-0.16256,-3.22202,0.61178
755.918,80.73091,-0.16338,-3.22203,0.60901
759.218,81.0641,-0.16461,-3.22334,0.60625
762.518,81.3977,-0.16475,-3.22586,0.60348
765.818,81.73219,-0.16369,-3.22712,0.60072
769.118,82.06746,-0.16087,-3.22445,0.59795
772.418,82.40313,-0.1615,-3.22597,0.59519
775.718,82.7385,-0.1606,-3.22729,0.59243
779.018,83.07313,-0.15664,-3.22722,0.58967
782.318,83.4081,-0.15194,-3.22993,0.58691
785.618,83.74206,-0.16074,-3.22861,0.58415
788.918,84.07558,-0.15476,-3.2286,0.58139
792.218,84.40985,-0.15502,-3.22861,0.57864
795.518,84.75645,-0.15208,-3.23519,0.57588
797.818,84.99146,-0.16452,-3.23332,0.57397