Folder: fsri_materials_database/01_Data/FDNY_LDF/STA/N2/10K_min (part 2)

File: LDF_STA_N2_10KData_22254_R3.csv
##Temp./Â°C,Time/min,DSC(subtr.)/(mW/mg),Mass loss(subtr.)/mg,Sensit./(uV/mW)
49.746,10.01,0.01937577,-0.05035,1.06051
53.046,11.34275,0.12612,-0.05438437,1.05982
56.346,11.80211,0.17467,-0.05521442,1.05912
59.646,12.19872,0.20613,-0.0604738,1.05839
62.946,12.56966,0.22537,-0.06001249,1.05764
66.246,12.93079,0.2379,-0.06130816,1.05687
69.546,13.2851,0.25102,-0.06264974,1.05609
72.846,13.63541,0.2663,-0.06526988,1.05528
76.146,13.98158,0.27405,-0.06789128,1.05445
79.446,14.32505,0.28461,-0.06973577,1.05361
82.746,14.6635,0.29012,-0.07345573,1.05274
86.046,15.0001,0.29105,-0.07645,1.05185
89.346,15.33226,0.29191,-0.07876596,1.05095
92.646,15.66,0.28901,-0.08006999,1.05002
95.946,15.989,0.28262,-0.08138003,1.04908
99.246,16.31394,0.27465,-0.08522893,1.04811
102.546,16.6389,0.26901,-0.08534001,1.04713
105.846,16.96187,0.26263,-0.08630714,1.04613
109.146,17.28548,0.25793,-0.08670355,1.04511
112.446,17.60793,0.2539,-0.08851933,1.04407
115.746,17.93047,0.25169,-0.08960948,1.04301
119.046,18.25238,0.25263,-0.09059993,1.04193
122.346,18.57348,0.25134,-0.08929133,1.04083
125.646,18.89457,0.25154,-0.09191328,1.03972
128.946,19.2149,0.25312,-0.09323051,1.03859
132.246,19.53472,0.25379,-0.09324463,1.03743
135.546,19.8546,0.25392,-0.09191,1.03626
138.846,20.17288,0.25633,-0.09454916,1.03508
142.146,20.49127,0.26147,-0.09455,1.03387
145.446,20.80922,0.26304,-0.09455,1.03265
148.746,21.12613,0.26685,-0.09718563,1.0314
152.046,21.44349,0.26969,-0.09684987,1.03014
155.346,21.75988,0.27367,-0.09717953,1.02887
158.646,22.07626,0.27477,-0.09883331,1.02757
161.946,22.3925,0.27973,-0.09784106,1.02626
165.246,22.70835,0.27732,-0.10014,1.02493
168.546,23.0245,0.2805,-0.10043,1.02358
171.846,23.34044,0.28549,-0.10179,1.02222
175.146,23.65604,0.28752,-0.10179,1.02084
178.446,23.97133,0.28937,-0.10311,1.01944
181.746,24.28755,0.29133,-0.10573,1.01802
185.046,24.60325,0.2943,-0.10737,1.01659
188.346,24.91732,0.29895,-0.1087,1.01514
191.646,25.23303,0.30168,-0.10987,1.01368
194.946,25.54769,0.30425,-0.11125,1.01219
198.246,25.86308,0.30578,-0.11331,1.0107
201.546,26.17839,0.31147,-0.11627,1.00918
204.846,26.4928,0.32099,-0.11791,1.00765
208.146,26.80681,0.32351,-0.1205,1.0061
211.446,27.12085,0.32577,-0.12318,1.00454
214.746,27.4352,0.332,-0.12842,1.00296
218.046,27.7493,0.33549,-0.13167,1.00137
221.346,28.06301,0.34334,-0.13371,0.99976
224.646,28.3771,0.35261,-0.13846,0.99813
227.946,28.6918,0.35734,-0.14361,0.99649
231.246,29.0061,0.35296,-0.14811,0.99484
234.546,29.3206,0.3496,-0.15345,0.99317
237.846,29.63523,0.35579,-0.16004,0.99148
241.146,29.94957,0.35604,-0.16853,0.98978
244.446,30.2637,0.35848,-0.17597,0.98806
247.746,30.5774,0.3642,-0.18512,0.98633
251.046,30.89296,0.36371,-0.1961,0.98459
254.346,31.2074,0.37224,-0.20899,0.98283
257.646,31.52253,0.37522,-0.21935,0.98105
260.946,31.83721,0.37789,-0.236,0.97926
264.246,32.15253,0.37902,-0.25222,0.97746
267.546,32.46771,0.38195,-0.27077,0.97564
270.846,32.78345,0.38648,-0.29309,0.97381
274.146,33.0987,0.38935,-0.31183,0.97197
277.446,33.41409,0.39503,-0.34029,0.97011
280.746,33.7297,0.39865,-0.36851,0.96823
284.046,34.04522,0.40466,-0.39653,0.96635
287.346,34.36164,0.40806,-0.43063,0.96445
290.646,34.6779,0.41407,-0.46853,0.96253
293.946,34.99407,0.4235,-0.50652,0.96061
297.246,35.30963,0.43676,-0.55134,0.95867
300.546,35.62576,0.44736,-0.59668,0.95671
303.846,35.94194,0.45799,-0.64772,0.95475
307.146,36.25849,0.47124,-0.70456,0.95277
310.446,36.5751,0.48492,-0.76374,0.95078
313.746,36.89205,0.49931,-0.82846,0.94877
317.046,37.20963,0.51397,-0.89915,0.94676
320.346,37.52747,0.52498,-0.97113,0.94473
323.646,37.84476,0.53381,-1.04889,0.94269
326.946,38.16263,0.54163,-1.12992,0.94064
330.246,38.48015,0.54692,-1.20976,0.93857
333.546,38.79765,0.55165,-1.29362,0.93649
336.846,39.11502,0.55249,-1.37661,0.9344
340.146,39.43396,0.56692,-1.46517,0.9323
343.446,39.7521,0.58273,-1.55389,0.93019
346.746,40.07154,0.61072,-1.64626,0.92807
350.046,40.3915,0.64003,-1.7404,0.92593
353.346,40.7111,0.68095,-1.84,0.92378
356.646,41.02975,0.72063,-1.94849,0.92162
359.946,41.351,0.76014,-2.06003,0.91946
363.246,41.6708,0.79008,-2.1792,0.91728
366.546,41.9907,0.79903,-2.29918,0.91508
369.846,42.3104,0.77,-2.41903,0.91288
373.146,42.62988,0.70472,-2.53283,0.91067
376.446,42.94863,0.59949,-2.63663,0.90845
379.746,43.26654,0.45896,-2.71964,0.90621
383.046,43.58502,0.29651,-2.78442,0.90397
386.346,43.9035,0.14927,-2.82625,0.90172
389.646,44.22273,0.04307918,-2.85418,0.89945
392.946,44.54189,-0.01242598,-2.87222,0.89718
396.246,44.8626,-0.03597004,-2.88344,0.89489
399.546,45.1834,-0.04766229,-2.89434,0.8926
402.846,45.50517,-0.05473884,-2.90239,0.89029
406.146,45.8267,-0.06574168,-2.91377,0.88798
409.446,46.1477,-0.07404225,-2.92337,0.88566
412.746,46.46996,-0.08120284,-2.93289,0.88333
416.046,46.79221,-0.09449553,-2.94321,0.88098
419.346,47.11572,-0.10152,-2.95204,0.87863
422.646,47.43843,-0.10804,-2.96185,0.87627
425.946,47.76,-0.11756,-2.97117,0.87391
429.246,48.08417,-0.12282,-2.98216,0.87153
432.546,48.40721,-0.1258,-2.99084,0.86914
435.846,48.73005,-0.12556,-3.00046,0.86675
439.146,49.05393,-0.12146,-3.00829,0.86434
442.446,49.37802,-0.11854,-3.01768,0.86193
445.746,49.70183,-0.11243,-3.0243,0.85951
449.046,50.02617,-0.10555,-3.0325,0.85708
452.346,50.3498,-0.09755814,-3.04172,0.85465
455.646,50.67411,-0.09186484,-3.04928,0.8522
458.946,50.99811,-0.08519682,-3.0561,0.84975
462.246,51.32244,-0.07681084,-3.06166,0.84729
465.546,51.64819,-0.06739552,-3.06696,0.84482
468.846,51.97339,-0.06612784,-3.07446,0.84234
472.146,52.29906,-0.06318237,-3.07863,0.83986
475.446,52.6244,-0.05705439,-3.08275,0.83737
478.746,52.95094,-0.05477379,-3.08841,0.83487
482.046,53.27705,-0.05351158,-3.09464,0.83237
485.346,53.60289,-0.05459014,-3.09721,0.82985
488.646,53.9286,-0.04841967,-3.10335,0.82733
491.946,54.25362,-0.04981056,-3.1061,0.82481
495.246,54.5783,-0.04611984,-3.11053,0.82227
498.546,54.90355,-0.04724425,-3.11369,0.81974
501.846,55.22973,-0.04045622,-3.11859,0.81719
505.146,55.55639,-0.03512717,-3.11992,0.81464
508.446,55.8834,-0.02674628,-3.12517,0.81208
511.746,56.2102,-0.01269581,-3.12781,0.80951
515.046,56.5367,-0.01024507,-3.1314,0.80694
518.346,56.8627,-0.0123679,-3.13403,0.80436
521.646,57.19008,-0.00830511,-3.13768,0.80178
524.946,57.518,-0.01568172,-3.14163,0.79919
528.246,57.8452,-0.01554911,-3.14459,0.79659
531.546,58.17235,-0.01802951,-3.14854,0.79399
534.846,58.49952,-0.02188898,-3.15116,0.79139
538.146,58.8273,-0.02215634,-3.15479,0.78877
541.446,59.15501,-0.02553543,-3.15558,0.78616
544.746,59.485,-0.03644732,-3.15766,0.78353
548.046,59.81394,-0.04586991,-3.16214,0.7809
551.346,60.1428,-0.05560889,-3.1651,0.77827
554.646,60.4723,-0.06176115,-3.16709,0.77563
557.946,60.80152,-0.06418583,-3.16968,0.77299
561.246,61.13146,-0.06698346,-3.17299,0.77034
564.546,61.46122,-0.07265126,-3.17497,0.76769
567.846,61.79145,-0.07234555,-3.17824,0.76503
571.146,62.1216,-0.07661142,-3.17887,0.76237
574.446,62.4511,-0.08155925,-3.18056,0.7597
577.746,62.7811,-0.08457072,-3.18452,0.75703
581.046,63.1108,-0.08713045,-3.18419,0.75436
584.346,63.44019,-0.08985318,-3.18912,0.75168
587.646,63.7701,-0.09117844,-3.19209,0.749
590.946,64.10028,-0.09715979,-3.19339,0.74631
594.246,64.43052,-0.10006,-3.19834,0.74362
597.546,64.76128,-0.10424,-3.19833,0.74092
600.846,65.09204,-0.10864,-3.19968,0.73823
604.146,65.42309,-0.11048,-3.20263,0.73552
607.446,65.7542,-0.11534,-3.20428,0.73282
610.746,66.08456,-0.11781,-3.2069,0.73011
614.046,66.41579,-0.11684,-3.20925,0.7274
617.346,66.7478,-0.1228,-3.21183,0.72468
620.646,67.07921,-0.12305,-3.21446,0.72197
623.946,67.41048,-0.12266,-3.21347,0.71925
627.246,67.74159,-0.12788,-3.21612,0.71652
630.546,68.07234,-0.12431,-3.22013,0.71379
633.846,68.4035,-0.12713,-3.21972,0.71107
637.146,68.73465,-0.12902,-3.2204,0.70833
640.446,69.06526,-0.12886,-3.22504,0.7056
643.746,69.3973,-0.14009,-3.22499,0.70286
647.046,69.72856,-0.14233,-3.22499,0.70012
650.346,70.0605,-0.14868,-3.22763,0.69738
653.646,70.39195,-0.15393,-3.2271,0.69464
656.946,70.7227,-0.15891,-3.22937,0.69189
660.246,71.05536,-0.15659,-3.23136,0.68914
663.546,71.38818,-0.16271,-3.23126,0.68639
666.846,71.72052,-0.16057,-3.23431,0.68364
670.146,72.05237,-0.16117,-3.23367,0.68089
673.446,72.38485,-0.16489,-3.23563,0.67813
676.746,72.71837,-0.16614,-3.2382,0.67538
680.046,73.05153,-0.16542,-3.23881,0.67262
683.346,73.3841,-0.16594,-3.23856,0.66986
686.646,73.71603,-0.17004,-3.24155,0.6671
689.946,74.04892,-0.16991,-3.23982,0.66434
693.246,74.38139,-0.1656,-3.24254,0.66157
696.546,74.71395,-0.16944,-3.2432,0.65881
699.846,75.04808,-0.17192,-3.24452,0.65605
703.146,75.38252,-0.17054,-3.24451,0.65328
706.446,75.71673,-0.16793,-3.2455,0.65051
709.746,76.05076,-0.16857,-3.24682,0.64775
713.046,76.3865,-0.17304,-3.24682,0.64498
716.346,76.72104,-0.17494,-3.24813,0.64221
719.646,77.05587,-0.17304,-3.24912,0.63944
722.946,77.39024,-0.18286,-3.24848,0.63667
726.246,77.72423,-0.17948,-3.25052,0.63391
729.546,78.05829,-0.18766,-3.25306,0.63114
732.846,78.39243,-0.18845,-3.25307,0.62837
736.146,78.7264,-0.18882,-3.256,0.6256
739.446,79.06127,-0.19751,-3.25669,0.62283
742.746,79.39646,-0.20031,-3.25871,0.62006
746.046,79.73154,-0.20254,-3.25822,0.61729
749.346,80.06568,-0.20491,-3.25692,0.61452
752.646,80.40043,-0.20197,-3.25955,0.61176
755.946,80.7337,-0.19873,-3.26096,0.60899
759.246,81.0679,-0.19988,-3.26267,0.60622
762.546,81.4021,-0.20603,-3.26308,0.60346
765.846,81.7362,-0.21112,-3.26218,0.60069
769.146,82.07122,-0.21459,-3.26,0.59793
772.446,82.40568,-0.21538,-3.26371,0.59517
775.746,82.73974,-0.2127,-3.26601,0.59241
779.046,83.07535,-0.21842,-3.26754,0.58964
782.346,83.41082,-0.22,-3.26623,0.58688
785.646,83.74638,-0.22167,-3.26887,0.58413
788.946,84.08073,-0.21734,-3.26919,0.58137
792.246,84.41673,-0.22118,-3.2682,0.57861
795.546,84.75139,-0.22212,-3.26986,0.57586
797.946,84.99586,-0.22381,-3.27248,0.57386