Folder: fsri_materials_database/01_Data/FDNY_LDF/STA/N2/30K_min

Note: 01_Data/README.md
# Materials and Products Database
## 01_Data

Raw data generated from each apparatus are included here in plain-text format. The data is organized first by material, next by the short name of test apparatus used, and where applicable additional filtering by test settings.

### material.json

Each material directory contains a json file of the same name as the material. This file links the data stored in the repository as well as data and graphs produced by the accompanying scripts (__02_Scripts__) to the respective landing page for the material on the front-end website.

File: LDF_STA_N2_30KData_22254_R1.csv
##Temp./Â°C,Time/min,DSC(subtr.)/(mW/mg),Mass loss(subtr.2)/mg,Sensit./(uV/mW)
48.509,10.00667,0.03053888,-0.04902,1.07505
51.709,10.88299,0.20794,-0.04838414,1.07364
54.909,11.1176,0.33215,-0.05136949,1.07222
58.109,11.29675,0.43019,-0.05225936,1.07078
61.309,11.45181,0.51458,-0.05328482,1.06933
64.509,11.593,0.59006,-0.0523724,1.06787
67.709,11.72492,0.65316,-0.05230837,1.0664
70.909,11.85087,0.7153,-0.05359874,1.06492
74.109,11.9731,0.77101,-0.05552812,1.06343
77.309,12.0916,0.82377,-0.05681312,1.06193
80.509,12.20785,0.87604,-0.05936698,1.06041
83.709,12.32198,0.92026,-0.0585846,1.05889
86.909,12.43449,0.96558,-0.06016714,1.05735
90.109,12.54529,1.00934,-0.0626983,1.05581
93.309,12.65545,1.0461,-0.06397642,1.05425
96.509,12.7643,1.07805,-0.06469862,1.05269
99.709,12.8729,1.10678,-0.06991756,1.05111
102.909,12.98075,1.12203,-0.07298947,1.04952
106.109,13.08787,1.13601,-0.07195,1.04793
109.309,13.19529,1.13933,-0.07324867,1.04632
112.509,13.3024,1.13891,-0.07582505,1.04471
115.709,13.40915,1.13508,-0.07589567,1.04308
118.909,13.5152,1.12455,-0.07853,1.04145
122.109,13.6208,1.11599,-0.07983941,1.0398
125.309,13.72608,1.10428,-0.08116045,1.03815
128.509,13.8308,1.09479,-0.08379,1.03649
131.709,13.9349,1.08747,-0.08247,1.03481
134.909,14.0386,1.08112,-0.08317056,1.03313
138.109,14.14184,1.08116,-0.08530467,1.03144
141.309,14.2447,1.08361,-0.08577,1.02975
144.509,14.34695,1.08822,-0.08477982,1.02804
147.709,14.4488,1.09802,-0.08557509,1.02632
150.909,14.5505,1.10969,-0.08543959,1.0246
154.109,14.6517,1.12045,-0.08609974,1.02286
157.309,14.75259,1.13364,-0.08743396,1.02112
160.509,14.8534,1.14699,-0.08544,1.01937
163.709,14.9539,1.16168,-0.08676011,1.01762
166.909,15.0541,1.17512,-0.08676,1.01585
170.109,15.15422,1.1897,-0.08682756,1.01408
173.309,15.25375,1.2036,-0.08872942,1.01229
176.509,15.35356,1.21727,-0.09070355,1.0105
179.709,15.4527,1.23288,-0.0907,1.00871
182.909,15.55136,1.24865,-0.0907,1.0069
186.109,15.64989,1.26166,-0.08938879,1.00509
189.309,15.7483,1.27459,-0.08938987,1.00327
192.509,15.8464,1.29068,-0.0920213,1.00144
195.709,15.94435,1.30666,-0.09458958,0.99961
198.909,16.0421,1.32421,-0.09465005,0.99776
202.109,16.13966,1.33973,-0.09596,0.99592
205.309,16.23719,1.35872,-0.09464842,0.99406
208.509,16.33473,1.37576,-0.09596856,0.9922
211.709,16.43208,1.39385,-0.09969808,0.99033
214.909,16.52935,1.41216,-0.10239,0.98845
218.109,16.62647,1.42615,-0.10365,0.98656
221.309,16.7235,1.44515,-0.10365,0.98467
224.509,16.82026,1.46248,-0.10497,0.98278
227.709,16.9174,1.47583,-0.10774,0.98087
230.909,17.0142,1.49295,-0.11151,0.97896
234.109,17.11071,1.50914,-0.11473,0.97704
237.309,17.2074,1.52135,-0.1174,0.97512
240.509,17.30428,1.53187,-0.12184,0.97319
243.709,17.40081,1.54618,-0.12379,0.97126
246.909,17.49794,1.55775,-0.12962,0.96931
250.109,17.59444,1.5781,-0.13513,0.96737
253.309,17.6913,1.59098,-0.14192,0.96541
256.509,17.78797,1.60344,-0.1498,0.96345
259.709,17.8843,1.61881,-0.15538,0.96149
262.909,17.9809,1.63228,-0.16578,0.95951
266.109,18.07731,1.64393,-0.17402,0.95754
269.309,18.17345,1.65308,-0.1833,0.95555
272.509,18.27034,1.66482,-0.19378,0.95357
275.709,18.3668,1.67255,-0.20591,0.95157
278.909,18.46339,1.68158,-0.21992,0.94957
282.109,18.5599,1.68532,-0.2357,0.94757
285.309,18.65568,1.6926,-0.25289,0.94556
288.509,18.75232,1.69553,-0.27053,0.94354
291.709,18.84884,1.70212,-0.28951,0.94152
294.909,18.9455,1.70689,-0.31306,0.93949
298.109,19.04285,1.70717,-0.33758,0.93746
301.309,19.13951,1.7091,-0.36499,0.93542
304.509,19.23626,1.71413,-0.39346,0.93338
307.709,19.33301,1.72213,-0.42536,0.93134
310.909,19.42987,1.73325,-0.46027,0.92928
314.109,19.52665,1.74078,-0.49774,0.92723
317.309,19.62342,1.75429,-0.53938,0.92517
320.509,19.72054,1.77339,-0.58106,0.9231
323.709,19.8176,1.79356,-0.62865,0.92103
326.909,19.91469,1.81783,-0.68186,0.91895
330.109,20.01193,1.84123,-0.73544,0.91687
333.309,20.10904,1.86703,-0.79466,0.91479
336.509,20.20639,1.8867,-0.86095,0.9127
339.709,20.3039,1.91002,-0.92823,0.91061
342.909,20.4016,1.92538,-0.99816,0.90851
346.109,20.49876,1.94,-1.07337,0.90641
349.309,20.59654,1.94819,-1.14802,0.9043
352.509,20.69483,1.95652,-1.22552,0.90219
355.709,20.79265,1.96861,-1.30739,0.90007
358.909,20.89069,1.98599,-1.38662,0.89795
362.109,20.9889,2.01736,-1.47232,0.89583
365.309,21.0872,2.06195,-1.55862,0.8937
368.509,21.18565,2.13022,-1.64249,0.89157
371.709,21.2844,2.21184,-1.73746,0.88943
374.909,21.3831,2.30697,-1.83454,0.88729
378.109,21.48183,2.40827,-1.93724,0.88515
381.309,21.58086,2.50062,-2.04798,0.883
384.509,21.67987,2.55963,-2.15846,0.88085
387.709,21.77901,2.56533,-2.27617,0.87869
390.909,21.87782,2.4916,-2.38637,0.87653
394.109,21.97711,2.33642,-2.49492,0.87437
397.309,22.07607,2.09325,-2.59307,0.8722
400.509,22.17523,1.77395,-2.67365,0.87003
403.709,22.27412,1.41666,-2.74081,0.86785
406.909,22.37281,1.0749,-2.78747,0.86567
410.109,22.47176,0.79712,-2.82105,0.86349
413.309,22.57074,0.60411,-2.84258,0.8613
416.509,22.6698,0.49456,-2.85764,0.85911
419.709,22.7691,0.44977,-2.86998,0.85692
422.909,22.86835,0.42219,-2.88265,0.85472
426.109,22.968,0.40038,-2.89337,0.85252
429.309,23.06781,0.37984,-2.90254,0.85032
432.509,23.16789,0.36453,-2.91313,0.84811
435.709,23.26848,0.34589,-2.92452,0.8459
438.909,23.3688,0.3354,-2.93574,0.84369
442.109,23.46879,0.32532,-2.94655,0.84147
445.309,23.5698,0.3086,-2.95689,0.83925
448.509,23.67045,0.29611,-2.9643,0.83703
451.709,23.77123,0.28329,-2.97392,0.8348
454.909,23.8721,0.27764,-2.98361,0.83257
458.109,23.97327,0.27698,-2.99222,0.83034
461.309,24.07439,0.28394,-3.00082,0.8281
464.509,24.17576,0.29362,-3.00838,0.82586
467.709,24.27723,0.30723,-3.01813,0.82362
470.909,24.37859,0.32725,-3.02689,0.82137
474.109,24.4803,0.35174,-3.03435,0.81912
477.309,24.58205,0.37694,-3.04317,0.81687
480.509,24.68391,0.4004,-3.04862,0.81462
483.709,24.786,0.424,-3.05521,0.81236
486.909,24.88789,0.44776,-3.06189,0.8101
490.109,24.9903,0.46758,-3.06767,0.80783
493.309,25.0924,0.48822,-3.07392,0.80557
496.509,25.1948,0.50415,-3.07904,0.8033
499.709,25.29736,0.51786,-3.08325,0.80103
502.909,25.39988,0.5301,-3.08799,0.79875
506.109,25.50251,0.53562,-3.09247,0.79647
509.309,25.60495,0.54485,-3.09635,0.79419
512.509,25.70792,0.54947,-3.10063,0.79191
515.709,25.8108,0.55387,-3.10658,0.78962
518.909,25.9138,0.55802,-3.11017,0.78733
522.109,26.01683,0.55701,-3.11287,0.78504
525.309,26.11983,0.55806,-3.11486,0.78275
528.509,26.22298,0.55748,-3.12051,0.78045
531.709,26.3262,0.55387,-3.12614,0.77815
534.909,26.4293,0.55497,-3.12741,0.77585
538.109,26.53267,0.55338,-3.13176,0.77354
541.309,26.6363,0.55041,-3.13594,0.77123
544.509,26.73974,0.54703,-3.13954,0.76892
547.709,26.84328,0.54395,-3.14222,0.76661
550.909,26.94688,0.53917,-3.14349,0.7643
554.109,27.0503,0.53413,-3.14742,0.76198
557.309,27.1545,0.53695,-3.15205,0.75966
560.509,27.25832,0.53918,-3.15578,0.75734
563.709,27.3621,0.54062,-3.15966,0.75501
566.909,27.4656,0.54384,-3.15979,0.75269
570.109,27.56982,0.54847,-3.16179,0.75036
573.309,27.67408,0.55152,-3.16647,0.74802
576.509,27.7783,0.54842,-3.16964,0.74569
579.709,27.88268,0.5474,-3.17147,0.74335
582.909,27.9871,0.54055,-3.17375,0.74101
586.109,28.09143,0.53806,-3.17772,0.73867
589.309,28.19598,0.53079,-3.18035,0.73633
592.509,28.3005,0.52409,-3.18035,0.73399
595.709,28.4052,0.51744,-3.18431,0.73164
598.909,28.5097,0.50766,-3.18778,0.72929
602.109,28.61463,0.49608,-3.19021,0.72694
605.309,28.71927,0.48474,-3.19284,0.72458
608.509,28.82408,0.47619,-3.19416,0.72223
611.709,28.92897,0.46803,-3.19678,0.71987
614.909,29.034,0.45778,-3.19811,0.71751
618.109,29.139,0.45043,-3.20074,0.71515
621.309,29.244,0.44234,-3.20337,0.71278
624.509,29.34915,0.4339,-3.20699,0.71042
627.709,29.4543,0.42609,-3.20736,0.70805
630.909,29.5595,0.41507,-3.20763,0.70568
634.109,29.66473,0.41081,-3.2107,0.70331
637.309,29.76985,0.3962,-3.21291,0.70094
640.509,29.87507,0.38948,-3.21555,0.69856
643.709,29.9805,0.38237,-3.2183,0.69619
646.909,30.08581,0.37451,-3.22093,0.69381
650.109,30.1913,0.36284,-3.2238,0.69143
653.309,30.29663,0.35862,-3.22441,0.68904
656.509,30.4022,0.34879,-3.22783,0.68666
659.709,30.5075,0.34569,-3.22783,0.68428
662.909,30.61335,0.33429,-3.22784,0.68189
666.109,30.71893,0.32858,-3.23046,0.6795
669.309,30.8246,0.32337,-3.23151,0.67711
672.509,30.93025,0.3103,-3.23304,0.67472
675.709,31.03578,0.30417,-3.23332,0.67233
678.909,31.14123,0.29222,-3.23599,0.66993
682.109,31.24695,0.28357,-3.23691,0.66754
685.309,31.3528,0.27834,-3.23633,0.66514
688.509,31.45846,0.27135,-3.23859,0.66274
691.709,31.564,0.2649,-3.24137,0.66034
694.909,31.6699,0.25924,-3.2435,0.65794
698.109,31.7756,0.25464,-3.24515,0.65554
701.309,31.88161,0.24661,-3.24648,0.65313
704.509,31.98757,0.23266,-3.2478,0.65073
707.709,32.09325,0.23218,-3.2478,0.64832
710.909,32.1997,0.22273,-3.24912,0.64591
714.109,32.30581,0.21396,-3.25044,0.64351
717.309,32.412,0.20791,-3.25077,0.6411
720.509,32.5184,0.19751,-3.25043,0.63869
723.709,32.62495,0.20008,-3.25175,0.63627
726.909,32.73135,0.18969,-3.25457,0.63386
730.109,32.83778,0.17793,-3.25794,0.63145
733.309,32.94444,0.17388,-3.25701,0.62903
736.509,33.05129,0.16158,-3.25833,0.62662
739.709,33.1582,0.15296,-3.25883,0.6242
742.909,33.2652,0.14205,-3.25964,0.62179
746.109,33.37222,0.13439,-3.26096,0.61937
749.309,33.47932,0.12746,-3.26227,0.61695
752.509,33.58647,0.11623,-3.26359,0.61453
755.709,33.69357,0.11023,-3.2636,0.61211
758.909,33.80057,0.1031,-3.26359,0.60969
762.109,33.9083,0.09535114,-3.26539,0.60727
765.309,34.0156,0.08929943,-3.26755,0.60485
768.509,34.12308,0.08274593,-3.26656,0.60243
771.709,34.23049,0.07723909,-3.26622,0.60001
774.909,34.33802,0.06777963,-3.26875,0.59758
778.109,34.445,0.0706693,-3.27149,0.59516
781.309,34.55301,0.06371173,-3.27281,0.59274
784.509,34.66057,0.05783419,-3.2728,0.59032
787.709,34.76866,0.05638827,-3.27281,0.58789
790.909,34.87642,0.04578374,-3.27281,0.58547
794.109,34.9842,0.03877551,-3.27274,0.58304
794.509,34.9977,0.03766871,-3.27281,0.58274

File: LDF_STA_N2_30KData_22254_R2.csv
##Temp./Â°C,Time/min,DSC(subtr.)/(mW/mg),Mass loss(subtr.2)/mg,Sensit./(uV/mW)
48.537,10.00667,0.01778663,-0.03664,1.07504
51.837,10.8934,0.1767,-0.0369564,1.07358
55.137,11.13044,0.28203,-0.0370841,1.07211
58.437,11.31235,0.3625,-0.0362655,1.07063
61.737,11.47103,0.43345,-0.03575119,1.06914
65.037,11.61477,0.49209,-0.03820292,1.06763
68.337,11.7497,0.5462,-0.03726033,1.06611
71.637,11.8787,0.59511,-0.03978124,1.06458
74.937,12.00328,0.64216,-0.03924402,1.06304
78.237,12.12487,0.68528,-0.04124021,1.06149
81.537,12.2438,0.72845,-0.04325955,1.05992
84.837,12.36079,0.76372,-0.04353019,1.05835
88.137,12.47608,0.8007,-0.04636456,1.05676
91.437,12.5899,0.83146,-0.04794911,1.05516
94.737,12.7029,0.85529,-0.04915193,1.05355
98.037,12.8149,0.87539,-0.05155707,1.05193
101.337,12.92578,0.88323,-0.0517577,1.0503
104.637,13.03702,0.88833,-0.05440311,1.04866
107.937,13.1468,0.88774,-0.05571,1.04701
111.237,13.25811,0.88058,-0.0557097,1.04535
114.537,13.3685,0.86987,-0.0566999,1.04368
117.837,13.47822,0.85771,-0.05834224,1.042
121.137,13.5874,0.84453,-0.05966,1.0403
124.437,13.6963,0.83297,-0.06097997,1.0386
127.737,13.80424,0.82281,-0.06163653,1.03689
131.037,13.9119,0.81662,-0.06295887,1.03517
134.337,14.01875,0.81753,-0.0623,1.03344
137.637,14.1253,0.81596,-0.06131171,1.03169
140.937,14.2317,0.82144,-0.06263001,1.02994
144.237,14.33681,0.82485,-0.06360517,1.02818
147.537,14.44241,0.83022,-0.06230002,1.02641
150.837,14.54674,0.84127,-0.06362,1.02464
154.137,14.6516,0.84976,-0.06362,1.02285
157.437,14.7553,0.85903,-0.06361928,1.02105
160.737,14.85979,0.87063,-0.06460996,1.01925
164.037,14.96354,0.87873,-0.06625128,1.01744
167.337,15.06683,0.88792,-0.0669022,1.01561
170.637,15.1699,0.90048,-0.06559,1.01378
173.937,15.2729,0.91062,-0.06690201,1.01194
177.237,15.37548,0.92158,-0.06691,1.0101
180.537,15.4777,0.93352,-0.06691,1.00824
183.837,15.57973,0.9464,-0.06691,1.00638
187.137,15.6813,0.95364,-0.06562055,1.00451
190.437,15.78265,0.9692,-0.0669,1.00263
193.737,15.88374,0.98273,-0.06953922,1.00074
197.037,15.9847,0.99562,-0.06954003,0.99884
200.337,16.08557,1.01154,-0.07086,0.99694
203.637,16.1861,1.02505,-0.07083944,0.99503
206.937,16.28676,1.03991,-0.07347997,0.99311
210.237,16.38731,1.05528,-0.07611645,0.99119
213.537,16.48734,1.07138,-0.0761232,0.98925
216.837,16.58775,1.08691,-0.07876373,0.98731
220.137,16.68802,1.10174,-0.08241238,0.98537
223.437,16.78803,1.11472,-0.08371968,0.98341
226.737,16.88805,1.12929,-0.08632571,0.98145
230.037,16.98791,1.14385,-0.08891832,0.97948
233.337,17.0877,1.15737,-0.09233056,0.97751
236.637,17.18761,1.1682,-0.09478321,0.97553
239.937,17.2875,1.17943,-0.09912003,0.97354
243.237,17.38721,1.18643,-0.10498,0.97154
246.537,17.48689,1.19759,-0.10946,0.96954
249.837,17.58664,1.21147,-0.11396,0.96753
253.137,17.68644,1.2233,-0.12162,0.96552
256.437,17.78586,1.23769,-0.1265,0.9635
259.737,17.88549,1.25035,-0.1348,0.96147
263.037,17.98515,1.26124,-0.14288,0.95944
266.337,18.08458,1.27426,-0.15079,0.9574
269.637,18.18402,1.286,-0.16134,0.95535
272.937,18.28343,1.29738,-0.17298,0.9533
276.237,18.383,1.30764,-0.18807,0.95124
279.537,18.4828,1.31934,-0.20156,0.94918
282.837,18.58244,1.33017,-0.21697,0.94711
286.137,18.6821,1.34108,-0.23609,0.94504
289.437,18.78185,1.34967,-0.2555,0.94295
292.737,18.88128,1.35766,-0.27662,0.94087
296.037,18.98133,1.36491,-0.30135,0.93878
299.337,19.08103,1.37123,-0.3276,0.93668
302.637,19.18093,1.38144,-0.35608,0.93458
305.937,19.28079,1.39156,-0.38744,0.93247
309.237,19.38055,1.4038,-0.42072,0.93036
312.537,19.48047,1.42063,-0.45492,0.92824
315.837,19.58045,1.43673,-0.49222,0.92612
319.137,19.68052,1.46227,-0.53582,0.92399
322.437,19.78066,1.49361,-0.58308,0.92185
325.737,19.88096,1.51888,-0.63296,0.91972
329.037,19.98125,1.55088,-0.68887,0.91757
332.337,20.08165,1.58577,-0.74731,0.91542
335.637,20.18216,1.61723,-0.809,0.91327
338.937,20.2831,1.6496,-0.87619,0.91111
342.237,20.38364,1.67727,-0.94707,0.90895
345.537,20.48462,1.70176,-1.0209,0.90678
348.837,20.58559,1.72473,-1.09726,0.90461
352.137,20.68661,1.74912,-1.17633,0.90243
355.437,20.78758,1.77465,-1.25456,0.90025
358.737,20.88898,1.81155,-1.33623,0.89807
362.037,20.99045,1.85884,-1.41723,0.89588
365.337,21.09195,1.9172,-1.50023,0.89368
368.637,21.1936,1.9986,-1.58847,0.89148
371.937,21.29541,2.09121,-1.68154,0.88928
375.237,21.3973,2.19248,-1.77909,0.88707
378.537,21.49942,2.2988,-1.88129,0.88486
381.837,21.60155,2.39347,-1.99019,0.88264
385.137,21.70351,2.45714,-2.10303,0.88042
388.437,21.80624,2.47207,-2.21989,0.8782
391.737,21.9084,2.40548,-2.33444,0.87597
395.037,22.01116,2.23251,-2.4426,0.87374
398.337,22.11334,1.95838,-2.54143,0.8715
401.637,22.21528,1.59312,-2.62027,0.86926
404.937,22.31747,1.18489,-2.68496,0.86702
408.237,22.41969,0.79491,-2.7305,0.86477
411.537,22.5215,0.47586,-2.76227,0.86251
414.837,22.62365,0.26104,-2.78027,0.86026
418.137,22.72575,0.14118,-2.79439,0.858
421.437,22.82858,0.07147713,-2.80836,0.85574
424.737,22.9313,0.02581595,-2.81715,0.85347
428.037,23.03419,-0.009717886,-2.82838,0.8512
431.337,23.1373,-0.03829135,-2.83942,0.84892
434.637,23.2404,-0.0667058,-2.85014,0.84664
437.937,23.3439,-0.091423,-2.86008,0.84436
441.237,23.4475,-0.11573,-2.86718,0.84208
444.537,23.5512,-0.13354,-2.87544,0.83979
447.837,23.65469,-0.14909,-2.88599,0.8375
451.137,23.75881,-0.16542,-2.89494,0.8352
454.437,23.86294,-0.17392,-2.90554,0.8329
457.737,23.9674,-0.17764,-2.91263,0.8306
461.037,24.07154,-0.17071,-2.92187,0.82829
464.337,24.17602,-0.15964,-2.93023,0.82598
467.637,24.28059,-0.14579,-2.93845,0.82367
470.937,24.38508,-0.12387,-2.94573,0.82135
474.237,24.48998,-0.10112,-2.95474,0.81903
477.537,24.59498,-0.07826557,-2.95997,0.81671
480.837,24.69986,-0.06018144,-2.96503,0.81439
484.137,24.8051,-0.03708367,-2.97212,0.81206
487.437,24.91029,-0.01772939,-2.97828,0.80973
490.737,25.01568,-0.00144918,-2.98252,0.80739
494.037,25.12112,0.01396833,-2.98835,0.80505
497.337,25.22661,0.02858808,-2.99454,0.80271
500.637,25.3322,0.04065588,-2.99905,0.80037
503.937,25.43786,0.05178344,-3.00337,0.79802
507.237,25.54359,0.05934503,-3.00826,0.79567
510.537,25.64944,0.06718961,-3.01289,0.79332
513.837,25.75546,0.07189744,-3.01667,0.79096
517.137,25.86139,0.07556194,-3.02086,0.7886
520.437,25.9675,0.080259,-3.0235,0.78624
523.737,26.07348,0.08008249,-3.02515,0.78387
527.037,26.1798,0.08295394,-3.03104,0.78151
530.337,26.2861,0.08093519,-3.03343,0.77914
533.637,26.3925,0.08348524,-3.03786,0.77676
536.937,26.49904,0.08310414,-3.04049,0.77439
540.237,26.60555,0.07943096,-3.04195,0.77201
543.537,26.7121,0.08070029,-3.04619,0.76963
546.837,26.81883,0.08436198,-3.05101,0.76724
550.137,26.9256,0.08505538,-3.05431,0.76486
553.437,27.0324,0.09167365,-3.05695,0.76247
556.737,27.13934,0.10083,-3.05957,0.76007
560.037,27.2462,0.111,-3.06222,0.75768
563.337,27.35347,0.11365,-3.06495,0.75528
566.637,27.46067,0.11755,-3.06809,0.75288
569.937,27.56795,0.12404,-3.07089,0.75048
573.237,27.6752,0.12088,-3.07319,0.74808
576.537,27.78245,0.12249,-3.07569,0.74567
579.837,27.89035,0.11956,-3.07839,0.74326
583.137,27.99803,0.11641,-3.08097,0.74085
586.437,28.10587,0.1147,-3.08361,0.73843
589.737,28.21381,0.11169,-3.08503,0.73602
593.037,28.3219,0.10314,-3.08766,0.7336
596.337,28.43,0.0944136,-3.09029,0.73118
599.637,28.5381,0.08752363,-3.09156,0.72875
602.937,28.64603,0.07958967,-3.09522,0.72633
606.237,28.75433,0.07651125,-3.09696,0.7239
609.537,28.8624,0.07195282,-3.10082,0.72147
612.837,28.9708,0.06944177,-3.10214,0.71904
616.137,29.0793,0.0600155,-3.10543,0.7166
619.437,29.1877,0.06072544,-3.10807,0.71417
622.737,29.2962,0.05441903,-3.10999,0.71173
626.037,29.4047,0.04837245,-3.11267,0.70929
629.337,29.513,0.04192664,-3.11267,0.70685
632.637,29.6218,0.03512901,-3.1153,0.7044
635.937,29.7306,0.02858063,-3.11785,0.70195
639.237,29.83939,0.02642391,-3.11927,0.69951
642.537,29.9481,0.01876633,-3.12057,0.69706
645.837,30.057,0.0156299,-3.12189,0.6946
649.137,30.1659,0.01170305,-3.12377,0.69215
652.437,30.27481,0.00773782,-3.1245,0.68969
655.737,30.38379,0.007710695,-3.12846,0.68724
659.037,30.4928,0.0050022,-3.12848,0.68478
662.337,30.6017,-0.000398647,-3.12933,0.68232
665.637,30.7109,-0.002539046,-3.12846,0.67985
668.937,30.81973,-0.00469228,-3.13241,0.67739
672.237,30.9292,-0.004566458,-3.13374,0.67492
675.537,31.03841,-0.01377455,-3.13735,0.67246
678.837,31.14755,-0.01173377,-3.13868,0.66999
682.137,31.2566,-0.0175344,-3.13997,0.66752
685.437,31.36587,-0.01899733,-3.13892,0.66504
688.737,31.4751,-0.02088878,-3.14264,0.66257
692.037,31.58442,-0.02577913,-3.14393,0.66009
695.337,31.6936,-0.02615726,-3.14525,0.65762
698.637,31.8029,-0.02795271,-3.14525,0.65514
701.937,31.91248,-0.02971124,-3.14656,0.65266
705.237,32.02194,-0.03027591,-3.14661,0.65018
708.537,32.13133,-0.03443541,-3.14787,0.6477
711.837,32.241,-0.03408111,-3.14829,0.64522
715.137,32.35054,-0.03709067,-3.14919,0.64273
718.437,32.46047,-0.03789365,-3.15051,0.64025
721.737,32.57033,-0.03648236,-3.15182,0.63776
725.037,32.6803,-0.04105438,-3.15315,0.63527
728.337,32.7902,-0.04225529,-3.15315,0.63279
731.637,32.90017,-0.04581522,-3.15446,0.6303
734.937,33.01032,-0.04386496,-3.15578,0.62781
738.237,33.1205,-0.04524581,-3.1565,0.62532
741.537,33.23076,-0.04902184,-3.15919,0.62282
744.837,33.34105,-0.05210097,-3.15816,0.62033
748.137,33.45133,-0.05135626,-3.15972,0.61784
751.437,33.56191,-0.0530159,-3.15972,0.61534
754.737,33.6725,-0.05358517,-3.16195,0.61285
758.037,33.78297,-0.05255557,-3.16236,0.61035
761.337,33.89353,-0.0535346,-3.16268,0.60786
764.637,34.0042,-0.05715577,-3.16271,0.60536
767.937,34.1149,-0.0588902,-3.16367,0.60286
771.237,34.22534,-0.05844619,-3.16369,0.60036
774.537,34.33628,-0.06018942,-3.1655,0.59787
777.837,34.44708,-0.05750481,-3.16598,0.59537
781.137,34.55773,-0.05696425,-3.16762,0.59287
784.437,34.66873,-0.05780549,-3.16762,0.59037
787.737,34.77984,-0.05624709,-3.16894,0.58787
791.037,34.8908,-0.05942058,-3.17025,0.58537
794.237,34.9987,-0.05272182,-3.17157,0.58295