Folder: fsri_materials_database/01_Data/FDNY_LDF/STA/N2/30K_min (part 2)

File: LDF_STA_N2_30KData_22264_R3.csv
##Temp./Â°C,Time/min,DSC(subtr.)/(mW/mg),Mass loss(subtr.2)/mg,Sensit./(uV/mW)
48.632,10.00583,0.01090548,0.0023,1.075
51.832,10.88214,0.17207,0.00379707,1.07359
55.032,11.116,0.28094,0.00290094,1.07216
58.232,11.29543,0.36985,0.003415449,1.07072
61.432,11.45085,0.44261,0.00112157,1.06928
64.632,11.59171,0.50759,0.001827157,1.06782
67.832,11.72332,0.56253,0.001627844,1.06635
71.032,11.8492,0.61925,-4.775954e-06,1.06486
74.232,11.97101,0.66638,-0.0007463755,1.06337
77.432,12.08912,0.7116,-0.0005727506,1.06187
80.632,12.20555,0.75269,-0.001997217,1.06035
83.832,12.3193,0.79267,-0.003635233,1.05883
87.032,12.4318,0.82936,-0.00294657,1.05729
90.232,12.5426,0.8591,-0.004398556,1.05575
93.432,12.65273,0.88685,-0.007139965,1.05419
96.632,12.7615,0.90853,-0.00850195,1.05263
99.832,12.86987,0.92549,-0.008449999,1.05105
103.032,12.978,0.93605,-0.01027874,1.04946
106.232,13.0854,0.93811,-0.01108878,1.04787
109.432,13.1929,0.93362,-0.01371548,1.04626
112.632,13.2997,0.92844,-0.01504015,1.04464
115.832,13.40649,0.92207,-0.01635,1.04302
119.032,13.51268,0.91097,-0.01634113,1.04138
122.232,13.6185,0.90102,-0.0173283,1.03974
125.432,13.72384,0.89127,-0.01864998,1.03809
128.632,13.82886,0.88528,-0.01776412,1.03642
131.832,13.93312,0.88322,-0.02026764,1.03475
135.032,14.03705,0.88286,-0.01899841,1.03307
138.232,14.14025,0.88706,-0.01766,1.03138
141.432,14.24288,0.89479,-0.01832002,1.02968
144.632,14.3449,0.90346,-0.01897493,1.02797
147.832,14.44705,0.9105,-0.01764887,1.02626
151.032,14.54827,0.91877,-0.01865,1.02453
154.232,14.64971,0.93056,-0.01865,1.0228
157.432,14.75056,0.94044,-0.01865,1.02106
160.632,14.8514,0.9528,-0.01865,1.01931
163.832,14.9518,0.96412,-0.01864872,1.01755
167.032,15.05202,0.97791,-0.01898,1.01578
170.232,15.1521,0.99247,-0.0203,1.01401
173.432,15.25159,1.00497,-0.0203,1.01223
176.632,15.3511,1.01679,-0.0203,1.01044
179.832,15.4502,1.02985,-0.0203,1.00864
183.032,15.549,1.04085,-0.02030089,1.00683
186.232,15.64739,1.05673,-0.02161,1.00502
189.432,15.74581,1.07083,-0.02128066,1.0032
192.632,15.8439,1.08503,-0.02095991,1.00137
195.832,15.94176,1.09898,-0.02194005,0.99954
199.032,16.03956,1.11397,-0.02194052,0.99769
202.232,16.13724,1.12572,-0.02452315,0.99584
205.432,16.23467,1.14292,-0.02457911,0.99399
208.632,16.33217,1.1576,-0.02720401,0.99212
211.832,16.42904,1.17164,-0.0278904,0.99025
215.032,16.52678,1.18627,-0.02926642,0.98838
218.232,16.6239,1.20433,-0.03151007,0.98649
221.432,16.7209,1.21892,-0.03345979,0.9846
224.632,16.81831,1.2291,-0.03477315,0.9827
227.832,16.91542,1.24119,-0.03604507,0.9808
231.032,17.01245,1.25083,-0.04036089,0.97889
234.232,17.1095,1.2619,-0.04431299,0.97697
237.432,17.20628,1.27419,-0.04829276,0.97505
240.632,17.30309,1.28434,-0.05019374,0.97312
243.832,17.3997,1.30012,-0.05474401,0.97118
247.032,17.49633,1.31306,-0.05992487,0.96924
250.232,17.59314,1.32779,-0.06492443,0.96729
253.432,17.68955,1.34285,-0.07061749,0.96534
256.632,17.78624,1.35494,-0.07813299,0.96338
259.832,17.88296,1.36894,-0.08717397,0.96141
263.032,17.97948,1.38302,-0.09456278,0.95944
266.232,18.07605,1.3963,-0.10356,0.95746
269.432,18.17251,1.4071,-0.11342,0.95548
272.632,18.2689,1.41791,-0.12544,0.95349
275.832,18.36565,1.42983,-0.13852,0.95149
279.032,18.46215,1.44202,-0.152,0.94949
282.232,18.55881,1.45235,-0.16675,0.94749
285.432,18.65541,1.46367,-0.18323,0.94548
288.632,18.75186,1.47406,-0.20349,0.94346
291.832,18.84843,1.4832,-0.22319,0.94144
295.032,18.94533,1.4933,-0.24754,0.93941
298.232,19.04211,1.50123,-0.27299,0.93738
301.432,19.1386,1.51161,-0.29886,0.93535
304.632,19.23535,1.52196,-0.32779,0.9333
307.832,19.3322,1.53743,-0.36283,0.93126
311.032,19.429,1.55127,-0.39585,0.92921
314.232,19.52584,1.56951,-0.43217,0.92715
317.432,19.6227,1.59095,-0.47369,0.92509
320.632,19.71966,1.61441,-0.51926,0.92302
323.832,19.8168,1.64237,-0.56496,0.92095
327.032,19.91395,1.67479,-0.61596,0.91887
330.232,20.0111,1.70885,-0.67511,0.91679
333.432,20.1086,1.74274,-0.7334,0.91471
336.632,20.2061,1.7738,-0.79728,0.91262
339.832,20.3037,1.80223,-0.86737,0.91053
343.032,20.40142,1.82789,-0.93852,0.90843
346.232,20.4994,1.84617,-1.01271,0.90632
349.432,20.59715,1.86277,-1.08865,0.90422
352.632,20.69541,1.87932,-1.16806,0.90211
355.832,20.79348,1.89461,-1.24907,0.89999
359.032,20.8919,1.91608,-1.33151,0.89787
362.232,20.9901,1.95091,-1.41372,0.89575
365.432,21.08843,2.00439,-1.49917,0.89362
368.632,21.1874,2.0729,-1.58775,0.89149
371.832,21.28613,2.16212,-1.67751,0.88935
375.032,21.385,2.2635,-1.77522,0.88721
378.232,21.4839,2.37732,-1.8763,0.88506
381.432,21.5832,2.47652,-1.98505,0.88291
384.632,21.6826,2.55071,-2.09805,0.88076
387.832,21.7819,2.58038,-2.21336,0.87861
391.032,21.8813,2.5413,-2.3289,0.87645
394.232,21.98067,2.4129,-2.44028,0.87428
397.432,22.08015,2.18746,-2.54512,0.87211
400.632,22.17952,1.86925,-2.63311,0.86994
403.832,22.27846,1.49378,-2.70697,0.86777
407.032,22.37755,1.10085,-2.76082,0.86559
410.232,22.47652,0.74883,-2.79992,0.86341
413.432,22.57531,0.4897,-2.82372,0.86122
416.632,22.67439,0.32495,-2.84151,0.85903
419.832,22.77368,0.23732,-2.85344,0.85684
423.032,22.87303,0.18754,-2.8661,0.85464
426.232,22.97271,0.15232,-2.87788,0.85244
429.432,23.07241,0.12303,-2.88693,0.85024
432.632,23.17243,0.1038,-2.89724,0.84803
435.832,23.27274,0.0790893,-2.9079,0.84582
439.032,23.37286,0.05636996,-2.918,0.8436
442.232,23.47324,0.03822972,-2.92686,0.84139
445.432,23.57356,0.02059845,-2.93445,0.83917
448.632,23.67455,0.00263236,-2.94552,0.83694
451.832,23.7754,-0.00304328,-2.95422,0.83472
455.032,23.8762,-0.01172962,-2.96087,0.83249
458.232,23.97723,-0.01015407,-2.97243,0.83025
461.432,24.0785,-0.00567937,-2.98086,0.82802
464.632,24.1798,0.00825789,-2.98628,0.82578
467.832,24.28117,0.02517378,-2.99454,0.82353
471.032,24.38267,0.04515365,-3.00176,0.82129
474.232,24.4843,0.07057833,-3.00987,0.81904
477.432,24.58596,0.09844027,-3.01672,0.81679
480.632,24.68769,0.12331,-3.02363,0.81453
483.832,24.7895,0.15007,-3.02906,0.81227
487.032,24.8915,0.17334,-3.0346,0.81001
490.232,24.99338,0.19612,-3.04109,0.80775
493.432,25.09539,0.21469,-3.04598,0.80548
496.632,25.19765,0.23226,-3.051,0.80321
499.832,25.29994,0.24073,-3.05539,0.80094
503.032,25.40243,0.25522,-3.0604,0.79866
506.232,25.50504,0.26161,-3.06444,0.79638
509.432,25.60754,0.2706,-3.06858,0.7941
512.632,25.71019,0.27733,-3.0717,0.79182
515.832,25.81257,0.28307,-3.07538,0.78953
519.032,25.91546,0.28737,-3.081,0.78724
522.232,26.01866,0.29209,-3.08229,0.78495
525.432,26.12173,0.29468,-3.08667,0.78266
528.632,26.22492,0.29615,-3.09081,0.78036
531.832,26.32807,0.29929,-3.09381,0.77806
535.032,26.43135,0.3003,-3.09645,0.77576
538.232,26.5347,0.30236,-3.10097,0.77345
541.432,26.6383,0.30195,-3.10368,0.77115
544.632,26.74188,0.30131,-3.10892,0.76884
547.832,26.84565,0.30057,-3.11002,0.76652
551.032,26.9496,0.3007,-3.1141,0.76421
554.232,27.05343,0.29808,-3.11674,0.76189
557.432,27.15725,0.29865,-3.11885,0.75957
560.632,27.2613,0.29776,-3.12223,0.75725
563.832,27.3652,0.29856,-3.1264,0.75492
567.032,27.46929,0.30014,-3.12902,0.7526
570.232,27.57345,0.3058,-3.13192,0.75027
573.432,27.6775,0.31216,-3.13395,0.74793
576.632,27.78166,0.31925,-3.13527,0.7456
579.832,27.88581,0.32447,-3.13659,0.74326
583.032,27.99018,0.32549,-3.14047,0.74092
586.232,28.09447,0.3249,-3.1431,0.73858
589.432,28.1989,0.32536,-3.14459,0.73624
592.632,28.30357,0.32531,-3.14689,0.7339
595.832,28.4082,0.32859,-3.14971,0.73155
599.032,28.5128,0.32117,-3.15141,0.7292
602.232,28.6178,0.31985,-3.15527,0.72685
605.432,28.7226,0.30979,-3.156,0.72449
608.632,28.8273,0.3077,-3.15822,0.72214
611.832,28.93245,0.29911,-3.16061,0.71978
615.032,29.03732,0.29475,-3.16226,0.71742
618.232,29.14238,0.29216,-3.16422,0.71506
621.432,29.2475,0.28656,-3.1662,0.71269
624.632,29.35271,0.28035,-3.16818,0.71033
627.832,29.45788,0.27798,-3.17083,0.70796
631.032,29.56301,0.2754,-3.17244,0.70559
634.232,29.6683,0.26963,-3.1741,0.70322
637.432,29.7736,0.26339,-3.17541,0.70085
640.632,29.8788,0.25751,-3.17805,0.69847
643.832,29.98408,0.25414,-3.18022,0.69609
647.032,30.08943,0.25183,-3.18101,0.69372
650.232,30.19495,0.24464,-3.18232,0.69134
653.432,30.3004,0.24152,-3.18497,0.68895
656.632,30.40605,0.23929,-3.18727,0.68657
659.832,30.5117,0.23179,-3.18759,0.68418
663.032,30.61733,0.23024,-3.18891,0.6818
666.232,30.7231,0.22529,-3.19023,0.67941
669.432,30.8287,0.22208,-3.19176,0.67702
672.632,30.9346,0.21616,-3.19417,0.67463
675.832,31.0405,0.20965,-3.19516,0.67223
679.032,31.1464,0.20977,-3.19517,0.66984
682.232,31.2524,0.20687,-3.19779,0.66744
685.432,31.3584,0.20212,-3.20038,0.66505
688.632,31.46448,0.20065,-3.19909,0.66265
691.832,31.57072,0.20191,-3.19942,0.66025
695.032,31.67667,0.19658,-3.20222,0.65785
698.232,31.7829,0.19785,-3.20339,0.65544
701.432,31.8893,0.19542,-3.20349,0.65304
704.632,31.99537,0.19863,-3.20471,0.65064
707.832,32.10202,0.19266,-3.20503,0.64823
711.032,32.20857,0.19044,-3.20635,0.64582
714.232,32.31507,0.19248,-3.20767,0.64341
717.432,32.42158,0.1897,-3.20898,0.641
720.632,32.52831,0.18889,-3.2103,0.63859
723.832,32.63505,0.1885,-3.20997,0.63618
727.032,32.74175,0.188,-3.21129,0.63377
730.232,32.84858,0.18393,-3.21128,0.63136
733.432,32.95563,0.17933,-3.21374,0.62894
736.632,33.0628,0.17634,-3.21524,0.62653
739.832,33.16986,0.17489,-3.21523,0.62411
743.032,33.2768,0.17201,-3.21524,0.62169
746.232,33.38363,0.16754,-3.21522,0.61928
749.432,33.49095,0.16067,-3.21655,0.61686
752.632,33.59803,0.16316,-3.21786,0.61444
755.832,33.70532,0.16274,-3.21787,0.61202
759.032,33.81239,0.16542,-3.21918,0.6096
762.232,33.9197,0.15853,-3.22148,0.60718
765.432,34.02693,0.15506,-3.22028,0.60476
768.632,34.1342,0.15042,-3.22159,0.60234
771.832,34.2415,0.15159,-3.22258,0.59991
775.032,34.3488,0.14442,-3.2241,0.59749
778.232,34.4561,0.14748,-3.22402,0.59507
781.432,34.56358,0.14428,-3.22659,0.59265
784.632,34.67091,0.14351,-3.22522,0.59022
787.832,34.7787,0.14463,-3.22749,0.5878
791.032,34.88625,0.14313,-3.22752,0.58537
794.232,34.99367,0.14166,-3.2262,0.58295
794.332,34.99694,0.14118,-3.2262,0.58287