Folder: fsri_materials_database/01_Data/FDNY_LDF/STA/N2/3K_min

Note: 01_Data/README.md
# Materials and Products Database
## 01_Data

Raw data generated from each apparatus are included here in plain-text format. The data is organized first by material, next by the short name of test apparatus used, and where applicable additional filtering by test settings.

### material.json

Each material directory contains a json file of the same name as the material. This file links the data stored in the repository as well as data and graphs produced by the accompanying scripts (__02_Scripts__) to the respective landing page for the material on the front-end website.

File: FDNY_LDF_STA_N2_3KData_22264_R1.csv
##Temp./Â°C,Time/min,Mass loss(subtr.2)/mg,DSC(subtr.2)/(mW/mg),Sensit./(uV/mW)
50.446,10.01667,-0.05923,0.01019863,1.05027
53.846,12.39397,-0.06899885,0.05560549,1.04967
57.246,13.66306,-0.07257714,0.06182068,1.04904
60.646,14.86916,-0.07830746,0.06646496,1.04839
64.046,16.04427,-0.08358872,0.07116811,1.04773
67.446,17.20365,-0.08687941,0.07484164,1.04704
70.846,18.3441,-0.08951319,0.07138411,1.04634
74.246,19.4857,-0.09531758,0.07165922,1.04562
77.646,20.6255,-0.09952424,0.06625429,1.04489
81.046,21.76817,-0.1054,0.064473,1.04413
84.446,22.9007,-0.10933,0.06008006,1.04336
87.846,24.03005,-0.11265,0.05515952,1.04256
91.246,25.1621,-0.11463,0.04994507,1.04175
94.646,26.29148,-0.11764,0.04601327,1.04092
98.046,27.4212,-0.11661,0.04442875,1.04007
101.446,28.5438,-0.11693,0.0451821,1.03921
104.846,29.667,-0.1176,0.04252766,1.03832
108.246,30.79075,-0.11791,0.04296366,1.03742
111.646,31.91403,-0.1222,0.04399074,1.0365
115.046,33.0316,-0.12252,0.04506866,1.03556
118.446,34.14972,-0.12186,0.04503097,1.0346
121.846,35.2669,-0.12187,0.04438878,1.03363
125.246,36.38794,-0.12225,0.03971171,1.03263
128.646,37.50926,-0.12299,0.0393841,1.03162
132.046,38.62422,-0.12214,0.03859083,1.03059
135.446,39.7399,-0.12317,0.04138915,1.02954
138.846,40.8541,-0.1245,0.04472813,1.02847
142.246,41.9658,-0.12582,0.04274703,1.02739
145.646,43.07477,-0.12765,0.04291246,1.02628
149.046,44.18678,-0.12878,0.04572815,1.02516
152.446,45.2983,-0.12971,0.04492545,1.02402
155.846,46.40747,-0.13148,0.04566422,1.02286
159.246,47.5199,-0.13174,0.05016753,1.02169
162.646,48.631,-0.13221,0.04709929,1.02049
166.046,49.7425,-0.13373,0.04860617,1.01928
169.446,50.85315,-0.13339,0.05062808,1.01805
172.846,51.96463,-0.13568,0.05211177,1.0168
176.246,53.0693,-0.13769,0.05283944,1.01553
179.646,54.17631,-0.13865,0.05670466,1.01425
183.046,55.28405,-0.14293,0.05238711,1.01295
186.446,56.38865,-0.14395,0.05117821,1.01163
189.846,57.4932,-0.14827,0.05263739,1.01029
193.246,58.59947,-0.14818,0.06113816,1.00893
196.646,59.7039,-0.15344,0.05760102,1.00756
200.046,60.81123,-0.15508,0.06067163,1.00617
203.446,61.91177,-0.15938,0.0645483,1.00476
206.846,63.01569,-0.16168,0.06538264,1.00333
210.246,64.11731,-0.16467,0.07080377,1.00189
213.646,65.2231,-0.17161,0.0724376,1.00042
217.046,66.32764,-0.17647,0.07201481,0.99894
220.446,67.4314,-0.18067,0.07480189,0.99744
223.846,68.53634,-0.18562,0.07544807,0.99593
227.246,69.6362,-0.19368,0.07513445,0.99439
230.646,70.74,-0.20237,0.07685412,0.99284
234.046,71.844,-0.2129,0.07372368,0.99128
237.446,72.94842,-0.22606,0.07104697,0.98969
240.846,74.05264,-0.24328,0.07401282,0.98809
244.246,75.15514,-0.26063,0.07394106,0.98647
247.646,76.25947,-0.27679,0.07504397,0.98483
251.046,77.3597,-0.29159,0.0769471,0.98317
254.446,78.4559,-0.31088,0.07706956,0.9815
257.846,79.5574,-0.33512,0.07883545,0.97981
261.246,80.66187,-0.36253,0.07954632,0.97811
264.646,81.76518,-0.3939,0.07718663,0.97638
268.046,82.87102,-0.42702,0.08261097,0.97464
271.446,83.97459,-0.46517,0.08391619,0.97288
274.846,85.0784,-0.50452,0.08683402,0.97111
278.246,86.18195,-0.55003,0.08836429,0.96932
281.646,87.2873,-0.59885,0.09341228,0.96751
285.046,88.39475,-0.6536,0.10147,0.96568
288.446,89.49821,-0.71131,0.10572,0.96384
291.846,90.60441,-0.77517,0.11162,0.96198
295.246,91.70851,-0.84595,0.11771,0.96011
298.646,92.812,-0.92004,0.12154,0.95822
302.046,93.91485,-0.99971,0.12378,0.95631
305.446,95.02379,-1.08036,0.12672,0.95438
308.846,96.13087,-1.16463,0.13205,0.95244
312.246,97.24059,-1.25361,0.13421,0.95048
315.646,98.34936,-1.34204,0.13535,0.94851
319.046,99.45599,-1.43113,0.13853,0.94652
322.446,100.5654,-1.52555,0.1428,0.94452
325.846,101.677,-1.62472,0.15176,0.94249
329.246,102.786,-1.72358,0.16116,0.94046
332.646,103.901,-1.83306,0.17526,0.9384
336.046,105.013,-1.94934,0.1909,0.93633
339.446,106.124,-2.07117,0.20445,0.93425
342.846,107.238,-2.19882,0.21132,0.93215
346.246,108.348,-2.32641,0.20941,0.93003
349.646,109.462,-2.45099,0.19249,0.9279
353.046,110.575,-2.5637,0.16175,0.92575
356.446,111.682,-2.65832,0.11914,0.92359
359.846,112.792,-2.72966,0.06779768,0.92141
363.246,113.903,-2.77688,0.01624115,0.91921
366.646,115.0223,-2.80387,-0.01345108,0.91701
370.046,116.135,-2.8201,-0.02388519,0.91478
373.446,117.244,-2.83195,-0.03062461,0.91254
376.846,118.359,-2.8426,-0.03567703,0.91029
380.246,119.478,-2.85463,-0.03183296,0.90802
383.646,120.5966,-2.86382,-0.03987033,0.90574
387.046,121.7104,-2.87302,-0.0443895,0.90344
390.446,122.828,-2.88274,-0.04964902,0.90113
393.846,123.946,-2.89472,-0.05296751,0.8988
397.246,125.067,-2.90331,-0.05786147,0.89646
400.646,126.186,-2.91449,-0.06155393,0.8941
404.046,127.304,-2.92474,-0.06331466,0.89173
407.446,128.424,-2.93389,-0.062949,0.88935
410.846,129.542,-2.94405,-0.06543065,0.88695
414.246,130.665,-2.95528,-0.06526324,0.88454
417.646,131.788,-2.96366,-0.06354847,0.88211
421.046,132.906,-2.97475,-0.06159018,0.87967
424.446,134.027,-2.98295,-0.06341988,0.87722
427.846,135.149,-2.99142,-0.05787249,0.87475
431.246,136.2734,-2.99839,-0.05496109,0.87227
434.646,137.403,-3.00431,-0.05337124,0.86978
438.046,138.528,-3.01193,-0.04943498,0.86727
441.446,139.646,-3.01853,-0.04969099,0.86475
444.846,140.7713,-3.02349,-0.04972433,0.86222
448.246,141.896,-3.0306,-0.04703761,0.85968
451.646,143.027,-3.03689,-0.04527233,0.85712
455.046,144.1535,-3.04182,-0.04512974,0.85455
458.446,145.28,-3.04708,-0.04708444,0.85196
461.846,146.405,-3.05213,-0.03974122,0.84937
465.246,147.531,-3.05729,-0.03077475,0.84676
468.646,148.662,-3.06255,-0.02969517,0.84414
472.046,149.785,-3.06617,-0.03382841,0.84151
475.446,150.91,-3.06946,-0.03234179,0.83886
478.846,152.041,-3.07341,-0.03895209,0.8362
482.246,153.172,-3.07587,-0.03892948,0.83354
485.646,154.298,-3.07964,-0.03720307,0.83086
489.046,155.421,-3.0823,-0.04103511,0.82816
492.446,156.561,-3.08659,-0.04635938,0.82546
495.846,157.695,-3.09018,-0.04884742,0.82275
499.246,158.833,-3.09381,-0.04971961,0.82002
502.646,159.9601,-3.0964,-0.05364725,0.81729
506.046,161.088,-3.1004,-0.05572321,0.81454
509.446,162.218,-3.10368,-0.05909265,0.81178
512.846,163.3523,-3.10763,-0.06083948,0.80901
516.246,164.482,-3.1106,-0.06100328,0.80623
519.646,165.617,-3.1126,-0.06940056,0.80344
523.046,166.757,-3.11451,-0.06860503,0.80064
526.446,167.8972,-3.11981,-0.0648078,0.79783
529.846,169.0275,-3.12209,-0.06577792,0.79501
533.246,170.161,-3.12606,-0.06672775,0.79218
536.646,171.293,-3.12805,-0.06612691,0.78934
540.046,172.429,-3.13001,-0.06668398,0.78649
543.446,173.567,-3.13396,-0.06379343,0.78363
546.846,174.7033,-3.13561,-0.06531093,0.78076
550.246,175.837,-3.13758,-0.06815784,0.77788
553.646,176.975,-3.13954,-0.06816888,0.775
557.046,178.116,-3.14251,-0.06866214,0.7721
560.446,179.249,-3.14481,-0.06159214,0.7692
563.846,180.385,-3.14748,-0.06287192,0.76628
567.246,181.528,-3.14877,-0.06180479,0.76336
570.646,182.668,-3.15074,-0.06012188,0.76043
574.046,183.809,-3.15337,-0.0636582,0.75749
577.446,184.948,-3.15534,-0.06466069,0.75454
580.846,186.085,-3.15535,-0.06892688,0.75159
584.246,187.23,-3.15667,-0.0689494,0.74863
587.646,188.376,-3.15831,-0.06669524,0.74565
591.046,189.517,-3.15962,-0.060217,0.74268
594.446,190.649,-3.16291,-0.06047125,0.73969
597.846,191.798,-3.16292,-0.06351495,0.7367
601.246,192.934,-3.16522,-0.06274665,0.7337
604.646,194.075,-3.16652,-0.06132691,0.73069
608.046,195.214,-3.17049,-0.06739386,0.72768
611.446,196.357,-3.17082,-0.06322581,0.72465
614.846,197.499,-3.17148,-0.06156006,0.72163
618.246,198.646,-3.17331,-0.06035952,0.71859
621.646,199.783,-3.1741,-0.0622434,0.71555
625.046,200.9327,-3.17805,-0.05885521,0.71251
628.446,202.078,-3.17904,-0.06203363,0.70945
631.846,203.219,-3.18036,-0.06115169,0.7064
635.246,204.358,-3.18169,-0.06178952,0.70333
638.646,205.51,-3.18101,-0.06208885,0.70026
642.046,206.652,-3.18101,-0.05284423,0.69719
645.446,207.791,-3.18331,-0.05323389,0.69411
648.846,208.929,-3.18398,-0.05375738,0.69102
652.246,210.0771,-3.18509,-0.05043709,0.68793
655.646,211.228,-3.18462,-0.04924983,0.68484
659.046,212.371,-3.18398,-0.04831101,0.68174
662.446,213.517,-3.18595,-0.04566516,0.67863
665.846,214.667,-3.18726,-0.04395105,0.67552
669.246,215.807,-3.19022,-0.04062431,0.67241
672.646,216.956,-3.19152,-0.04231391,0.66929
676.046,218.105,-3.18991,-0.0428923,0.66617
679.446,219.252,-3.19293,-0.04071657,0.66305
682.846,220.394,-3.19385,-0.03975,0.65992
686.246,221.547,-3.1945,-0.03816488,0.65679
689.646,222.698,-3.19516,-0.03676491,0.65366
693.046,223.85,-3.19681,-0.03183232,0.65052
696.446,224.992,-3.1975,-0.03139152,0.64738
699.846,226.138,-3.19935,-0.02748518,0.64423
703.246,227.288,-3.20043,-0.02298572,0.64109
706.646,228.436,-3.1994,-0.0186472,0.63794
710.046,229.584,-3.2001,-0.0121333,0.63479
713.446,230.732,-3.20043,-0.0050764,0.63163
716.846,231.8914,-3.20207,-0.00657707,0.62848
720.246,233.035,-3.20342,-0.01322927,0.62532
723.646,234.18,-3.20306,-0.01565263,0.62216
727.046,235.333,-3.20503,-0.008501583,0.619
730.446,236.486,-3.20569,-0.00743718,0.61584
733.846,237.636,-3.20832,-0.006939369,0.61267
737.246,238.787,-3.20898,-0.01204045,0.60951
740.646,239.932,-3.20997,-0.02013773,0.60634
744.046,241.082,-3.21188,-0.02088338,0.60318
747.446,242.238,-3.21558,-0.02668155,0.60001
750.846,243.3815,-3.21557,-0.02990583,0.59684
754.246,244.537,-3.2159,-0.03454207,0.59367
757.646,245.684,-3.21755,-0.03407389,0.5905
761.046,246.8361,-3.2205,-0.03547066,0.58734
764.446,247.991,-3.22116,-0.03939821,0.58417
767.846,249.138,-3.22173,-0.03741317,0.581
771.246,250.295,-3.22113,-0.03625994,0.57783
774.646,251.446,-3.22211,-0.03070344,0.57466
778.046,252.599,-3.22214,-0.02441589,0.5715
781.446,253.754,-3.22533,-0.01880404,0.56833
784.846,254.907,-3.22532,-0.01131453,0.56517
788.246,256.051,-3.22774,-0.009357579,0.562
791.646,257.206,-3.22841,-0.005843037,0.55884
795.046,258.363,-3.22905,-0.004367529,0.55568
798.446,259.512,-3.23102,-0.00825803,0.55252
799.846,259.983,-3.233,0.0002935226,0.55122