Folder: fsri_materials_database/01_Data/Overstuffed_Chair_Polyester_Fabric/STA/N2/10K_min

Note: 01_Data/README.md
# Materials and Products Database
## 01_Data

Raw data generated from each apparatus are included here in plain-text format. The data is organized first by material, next by the short name of test apparatus used, and where applicable additional filtering by test settings.

### material.json

Each material directory contains a json file of the same name as the material. This file links the data stored in the repository as well as data and graphs produced by the accompanying scripts (__02_Scripts__) to the respective landing page for the material on the front-end website.

File: Overstuffed_Chair_Polyester_Fabric_STA_N2_10KData_220131_R1.csv
##Temp./Â°C,Time/min,Mass(subtr.2)/%,DSC(subtr.2)/(mW/mg),Sensit./(uV/mW)
49.246,10.00917,99.10875,0.01455622,1.07447
52.046,11.24882,99.0496,0.10779,1.07427
54.846,11.6637,99.0536,0.15019,1.07406
57.646,12.0117,98.9924,0.17627,1.07382
60.446,12.3363,98.96075,0.18762,1.07356
63.246,12.64847,98.96087,0.19542,1.07329
66.046,12.9529,98.9603,0.20133,1.073
68.846,13.2565,98.929,0.20496,1.07269
71.646,13.55524,98.905,0.2078,1.07236
74.446,13.8506,98.9195,0.2107,1.07202
77.246,14.1429,98.90475,0.21704,1.07165
80.046,14.43302,98.9054,0.21994,1.07127
82.846,14.71976,98.88971,0.22433,1.07087
85.646,15.0037,98.93828,0.23158,1.07045
88.446,15.28605,98.87299,0.23514,1.07001
91.246,15.56679,98.84031,0.23649,1.06956
94.046,15.84551,98.87305,0.24001,1.06908
96.846,16.1228,98.84,0.24182,1.06859
99.646,16.3989,98.80725,0.24806,1.06809
102.446,16.6742,98.8317,0.25064,1.06756
105.246,16.94902,98.80725,0.25476,1.06701
108.046,17.22423,98.84,0.25925,1.06645
110.846,17.49728,98.77724,0.26448,1.06587
113.646,17.77038,98.809,0.26844,1.06527
116.446,18.0434,98.80082,0.27036,1.06466
119.246,18.31655,98.7935,0.27657,1.06403
122.046,18.58983,98.79344,0.28204,1.06337
124.846,18.86196,98.79332,0.2916,1.06271
127.646,19.13414,98.777,0.30204,1.06202
130.446,19.40559,98.7275,0.31663,1.06132
133.246,19.67684,98.76902,0.31689,1.0606
136.046,19.94758,98.76875,0.2964,1.05986
138.846,20.2175,98.74383,0.28189,1.0591
141.646,20.48849,98.736,0.27361,1.05833
144.446,20.75904,98.73575,0.27305,1.05754
147.246,21.029,98.73575,0.27475,1.05673
150.046,21.2992,98.7443,0.27873,1.05591
152.846,21.5689,98.703,0.28311,1.05507
155.646,21.838,98.67851,0.28432,1.05421
158.446,22.10746,98.71126,0.28773,1.05334
161.246,22.3765,98.69464,0.29034,1.05244
164.046,22.64469,98.70318,0.29245,1.05153
166.846,22.91339,98.67008,0.29372,1.05061
169.646,23.18151,98.67795,0.29602,1.04967
172.446,23.44983,98.64525,0.29682,1.04871
175.246,23.7183,98.63728,0.29944,1.04773
178.046,23.98614,98.66999,0.30013,1.04674
180.846,24.2547,98.63681,0.30313,1.04573
183.646,24.52251,98.63725,0.30394,1.04471
186.446,24.79027,98.63723,0.30814,1.04367
189.246,25.05741,98.67,0.31006,1.04261
192.046,25.32483,98.637,0.31088,1.04153
194.846,25.59204,98.62023,0.31553,1.04044
197.646,25.85867,98.63725,0.31653,1.03934
200.446,26.1257,98.63726,0.3218,1.03822
203.246,26.3931,98.62906,0.32436,1.03708
206.046,26.66103,98.6205,0.32899,1.03592
208.846,26.92847,98.58775,0.33325,1.03475
211.646,27.1957,98.62075,0.3426,1.03357
214.446,27.46245,98.62075,0.34615,1.03237
217.246,27.7292,98.64525,0.35811,1.03115
220.046,27.99652,98.6125,0.36733,1.02992
222.846,28.26397,98.5954,0.38115,1.02867
225.646,28.5318,98.56441,0.4024,1.02741
228.446,28.79947,98.54665,0.3981,1.02613
231.246,29.0663,98.56249,0.38032,1.02483
234.046,29.3327,98.53025,0.37847,1.02353
236.846,29.5994,98.49722,0.39009,1.0222
239.646,29.8665,98.51382,0.40273,1.02086
242.446,30.1336,98.448,0.42554,1.01951
245.246,30.40083,98.41525,0.45648,1.01814
248.046,30.6683,98.3575,0.51951,1.01676
250.846,30.93675,98.3492,0.72913,1.01536
253.646,31.2058,98.34036,1.00468,1.01394
256.446,31.47573,98.2585,1.02114,1.01252
259.246,31.7432,98.2505,0.72628,1.01107
262.046,32.00947,98.212,0.54903,1.00962
264.846,32.2755,98.14655,0.46167,1.00815
267.646,32.5426,98.09701,0.42052,1.00666
270.446,32.8091,98.097,0.40095,1.00516
273.246,33.07602,98.04302,0.39425,1.00365
276.046,33.34384,98.00661,0.39472,1.00212
278.846,33.61152,97.93228,0.39589,1.00058
281.646,33.87938,97.91598,0.39655,0.99902
284.446,34.1474,97.82848,0.39794,0.99745
287.246,34.4163,97.77855,0.3962,0.99587
290.046,34.6848,97.6533,0.3974,0.99427
292.846,34.95381,97.59532,0.39694,0.99266
295.646,35.22279,97.53401,0.39601,0.99104
298.446,35.49115,97.4661,0.3891,0.9894
301.246,35.75894,97.3597,0.38946,0.98775
304.046,36.02644,97.28525,0.38933,0.98609
306.846,36.29403,97.19676,0.38702,0.98441
309.646,36.56162,97.13725,0.38536,0.98272
312.446,36.8298,97.0711,0.38616,0.98102
315.246,37.09874,96.98916,0.3846,0.97931
318.046,37.36779,96.90654,0.38228,0.97758
320.846,37.6372,96.84101,0.37915,0.97584
323.646,37.90645,96.73398,0.38466,0.97409
326.446,38.17711,96.66728,0.38386,0.97232
329.246,38.447,96.63761,0.38443,0.97054
332.046,38.71656,96.49775,0.387,0.96875
334.846,38.9865,96.3719,0.3876,0.96695
337.646,39.256,96.29632,0.39285,0.96514
340.446,39.52597,96.17321,0.39818,0.96331
343.246,39.79606,96.04649,0.39819,0.96147
346.046,40.0666,95.92066,0.40129,0.95962
348.846,40.33761,95.75574,0.40287,0.95776
351.646,40.60857,95.54942,0.40436,0.95589
354.446,40.88033,95.36287,0.4067,0.954
357.246,41.15194,95.12621,0.41234,0.95211
360.046,41.42341,94.89141,0.41695,0.9502
362.846,41.69529,94.6272,0.41918,0.94828
365.646,41.96642,94.34184,0.4203,0.94635
368.446,42.23806,94.06582,0.42332,0.94441
371.246,42.5096,93.76046,0.42304,0.94246
374.046,42.78174,93.4165,0.42052,0.94049
376.846,43.05341,93.1025,0.4165,0.93852
379.646,43.32574,92.75032,0.41086,0.93653
382.446,43.59819,92.35095,0.40809,0.93454
385.246,43.87044,91.9988,0.40676,0.93253
388.046,44.143,91.58938,0.41792,0.93052
390.846,44.41557,91.09931,0.43663,0.92849
393.646,44.6886,90.50554,0.45585,0.92645
396.446,44.96116,89.7572,0.46613,0.92441
399.246,45.2339,88.93186,0.4539,0.92235
402.046,45.50683,87.96899,0.43922,0.92028
404.846,45.77924,86.75527,0.43333,0.91821
407.646,46.05212,85.40693,0.43993,0.91612
410.446,46.3255,83.7248,0.46719,0.91403
413.246,46.59926,81.71729,0.50053,0.91192
416.046,46.8728,79.32259,0.54978,0.90981
418.846,47.14719,76.54839,0.59656,0.90768
421.646,47.421,73.3081,0.62943,0.90555
424.446,47.69531,69.63909,0.65555,0.90341
427.246,47.96958,65.6776,0.66524,0.90125
430.046,48.24408,61.30868,0.69188,0.89909
432.846,48.51856,56.56671,0.71008,0.89692
435.646,48.79343,51.4844,0.70139,0.89475
438.446,49.06787,46.39712,0.67797,0.89256
441.246,49.34272,41.4431,0.63083,0.89036
444.046,49.61658,36.9239,0.56498,0.88816
446.846,49.89127,33.111,0.47991,0.88595
449.646,50.16469,30.10878,0.3869,0.88373
452.446,50.43778,27.8525,0.30905,0.8815
455.246,50.71116,26.14844,0.25552,0.87926
458.046,50.98536,24.877,0.21251,0.87702
460.846,51.26082,23.79117,0.16618,0.87477
463.646,51.53585,22.97853,0.12201,0.87251
466.446,51.81132,22.309,0.07955871,0.87024
469.246,52.0871,21.82493,0.03714106,0.86796
472.046,52.36305,21.35742,0.004468734,0.86568
474.846,52.63839,20.98033,-0.02382195,0.86339
477.646,52.91355,20.68429,-0.04133335,0.86109
480.446,53.18869,20.47025,-0.05469542,0.85879
483.246,53.46445,20.24636,-0.04685176,0.85648
486.046,53.73949,20.0911,-0.04775645,0.85416
488.846,54.0144,19.95233,-0.03692238,0.85183
491.646,54.2904,19.7987,-0.03836364,0.8495
494.446,54.5668,19.70206,-0.04419558,0.84716
497.246,54.8445,19.58625,-0.0508167,0.84482
500.046,55.12242,19.5221,-0.05490031,0.84246
502.846,55.4,19.41639,-0.06152982,0.84011
505.646,55.67836,19.33401,-0.06914003,0.83774
508.446,55.9559,19.26379,-0.07284092,0.83537
511.246,56.23324,19.19408,-0.07570933,0.83299
514.046,56.51092,19.16098,-0.07984658,0.83061
516.846,56.78971,19.1285,-0.08057487,0.82822
519.646,57.0676,19.06542,-0.0869671,0.82583
522.446,57.3457,19.0239,-0.08867778,0.82343
525.246,57.62438,18.98842,-0.09266173,0.82102
528.046,57.90274,18.9311,-0.09362842,0.81861
530.846,58.18147,18.93955,-0.09135812,0.81619
533.646,58.45998,18.87322,-0.09445568,0.81377
536.446,58.7384,18.81447,-0.0935722,0.81135
539.246,59.0171,18.824,-0.09696004,0.80891
542.046,59.2958,18.7587,-0.09857165,0.80648
544.846,59.57369,18.7239,-0.10383,0.80403
547.646,59.85176,18.66346,-0.10998,0.80159
550.446,60.1299,18.62668,-0.11039,0.79914
553.246,60.4072,18.56075,-0.11699,0.79668
556.046,60.68512,18.528,-0.12067,0.79422
558.846,60.96305,18.48647,-0.12631,0.79175
561.646,61.2412,18.35984,-0.12889,0.78928
564.446,61.52069,18.34349,-0.13712,0.78681
567.246,61.8007,18.32268,-0.13776,0.78433
570.046,62.08138,18.2621,-0.14486,0.78185
572.846,62.36221,18.22361,-0.14748,0.77936
575.646,62.6429,18.17886,-0.15182,0.77687
578.446,62.9233,18.11651,-0.15835,0.77438
581.246,63.20309,18.05544,-0.1592,0.77188
584.046,63.48293,17.98604,-0.16124,0.76938
586.846,63.76203,17.95459,-0.1655,0.76688
589.646,64.0407,17.88109,-0.16542,0.76437
592.446,64.3203,17.85594,-0.169,0.76186
595.246,64.5997,17.79025,-0.17254,0.75935
598.046,64.88042,17.7571,-0.17423,0.75683
600.846,65.161,17.69121,-0.17759,0.75431
603.646,65.44261,17.6505,-0.18454,0.75179
606.446,65.7239,17.59171,-0.19003,0.74926
609.246,66.0049,17.55317,-0.18871,0.74673
612.046,66.28588,17.49428,-0.19314,0.7442
614.846,66.56665,17.46125,-0.19494,0.74167
617.646,66.84785,17.47736,-0.19709,0.73913
620.446,67.12876,17.37875,-0.19808,0.73659
623.246,67.40929,17.34594,-0.20137,0.73405
626.046,67.69022,17.3129,-0.20055,0.73151
628.846,67.97068,17.2637,-0.20132,0.72896
631.646,68.2516,17.239,-0.20054,0.72642
634.446,68.53344,17.23301,-0.19737,0.72387
637.246,68.8155,17.2307,-0.19698,0.72131
640.046,69.09642,17.12999,-0.20466,0.71876
642.846,69.3779,17.14023,-0.20255,0.71621
645.646,69.658,17.12399,-0.20501,0.71365
648.446,69.93772,17.08182,-0.20738,0.71109
651.246,70.2187,17.05801,-0.20616,0.70854
654.046,70.4992,17.02528,-0.21476,0.70598
656.846,70.7802,16.9597,-0.21841,0.70341
659.646,71.06126,16.9925,-0.22577,0.70085
662.446,71.343,16.99471,-0.18831,0.69829
665.246,71.6246,16.99225,-0.19116,0.69572
668.046,71.90613,16.92416,-0.19705,0.69316
670.846,72.18819,16.92649,-0.19773,0.69059
673.646,72.46987,16.8935,-0.20287,0.68802
676.446,72.75304,16.92655,-0.20959,0.68546
679.246,73.0361,16.86092,-0.21705,0.68289
682.046,73.3198,16.86064,-0.22226,0.68032
684.846,73.60216,16.8185,-0.22478,0.67775
687.646,73.88432,16.84701,-0.22926,0.67518
690.446,74.16655,16.781,-0.23666,0.67261
693.246,74.44864,16.74825,-0.27551,0.67004
696.046,74.7299,16.74827,-0.2997,0.66747
698.646,74.99074,16.773,-0.31023,0.66509

File: Overstuffed_Chair_Polyester_Fabric_STA_N2_10KData_220204_R3.csv
##Temp./Â°C,Time/min,Mass(subtr.2)/%,DSC(subtr.2)/(mW/mg),Sensit./(uV/mW)
49.256,10.00917,99.15865,0.004271041,1.07447
51.956,11.2307,99.1223,0.08494821,1.07428
54.656,11.6344,99.07119,0.12822,1.07407
57.356,11.97284,99.0236,0.15572,1.07385
60.056,12.28663,99.05124,0.17232,1.0736
62.756,12.58812,99.01686,0.18027,1.07334
65.456,12.88376,99.02031,0.185,1.07306
68.156,13.1745,99.01855,0.19209,1.07277
70.856,13.46164,99.01427,0.19787,1.07246
73.556,13.74794,98.9666,0.20335,1.07213
76.256,14.03091,98.95222,0.20435,1.07178
78.956,14.31192,98.95328,0.20885,1.07142
81.656,14.5898,98.95549,0.21418,1.07104
84.356,14.865,98.9907,0.21866,1.07065
87.056,15.13843,98.92231,0.22295,1.07023
89.756,15.41041,98.9223,0.22565,1.0698
92.456,15.68,98.8895,0.22847,1.06936
95.156,15.94907,98.881,0.23185,1.06889
97.856,16.21665,98.8566,0.23612,1.06841
100.556,16.4837,98.89153,0.24112,1.06792
103.256,16.7497,98.85633,0.24464,1.0674
105.956,17.0152,98.8561,0.24851,1.06687
108.656,17.2799,98.85637,0.25701,1.06633
111.356,17.54385,98.84791,0.25944,1.06576
114.056,17.808,98.82341,0.26639,1.06518
116.756,18.07199,98.82341,0.27215,1.06459
119.456,18.3363,98.80674,0.27746,1.06398
122.156,18.5992,98.7822,0.2834,1.06335
124.856,18.86219,98.7739,0.29013,1.0627
127.556,19.12454,98.72832,0.30207,1.06204
130.256,19.38661,98.74085,0.31687,1.06137
132.956,19.64835,98.708,0.31861,1.06067
135.656,19.90999,98.67494,0.30371,1.05996
138.356,20.17062,98.67494,0.28936,1.05924
141.056,20.43123,98.67494,0.28506,1.05849
143.756,20.69083,98.6092,0.28653,1.05774
146.456,20.95061,98.64188,0.28855,1.05696
149.156,21.20993,98.57595,0.29451,1.05617
151.856,21.46896,98.57602,0.29677,1.05537
154.556,21.7278,98.6091,0.29859,1.05455
157.256,21.98702,98.57733,0.3031,1.05371
159.956,22.24628,98.56014,0.30601,1.05286
162.656,22.5047,98.58426,0.30937,1.05199
165.356,22.76407,98.58421,0.31351,1.0511
168.056,23.0234,98.58396,0.31647,1.0502
170.756,23.2821,98.58455,0.32125,1.04929
173.456,23.54031,98.58428,0.32193,1.04836
176.156,23.7991,98.61704,0.32676,1.04741
178.856,24.05754,98.64164,0.32879,1.04645
181.556,24.31578,98.60884,0.33077,1.04547
184.256,24.57297,98.64185,0.3345,1.04448
186.956,24.83077,98.64185,0.33816,1.04347
189.656,25.08865,98.60902,0.34142,1.04245
192.356,25.34606,98.63446,0.34692,1.04141
195.056,25.60432,98.60075,0.34977,1.04036
197.756,25.8617,98.58421,0.3512,1.03929
200.456,26.11965,98.56785,0.35828,1.03821
203.156,26.37779,98.55827,0.36196,1.03711
205.856,26.6352,98.54313,0.3656,1.036
208.556,26.8925,98.54311,0.37445,1.03488
211.256,27.14937,98.54308,0.37956,1.03373
213.956,27.4067,98.5346,0.38798,1.03258
216.656,27.66415,98.47762,0.39959,1.03141
219.356,27.9223,98.4684,0.40704,1.03022
222.056,28.18143,98.41906,0.42099,1.02902
224.756,28.44012,98.43584,0.43949,1.02781
227.456,28.69884,98.4193,0.45316,1.02658
230.156,28.95695,98.41102,0.43667,1.02534
232.856,29.2142,98.36967,0.42916,1.02408
235.556,29.47151,98.36968,0.43529,1.02281
238.256,29.72843,98.39449,0.44822,1.02153
240.956,29.98568,98.33659,0.46582,1.02023
243.656,30.2435,98.30379,0.49129,1.01892
246.356,30.50201,98.30512,0.52654,1.01759
249.056,30.76155,98.26266,0.62452,1.01625
251.756,31.02122,98.24586,0.86802,1.0149
254.456,31.28133,98.2141,1.11696,1.01353
257.156,31.5412,98.11389,1.0517,1.01215
259.856,31.79948,98.08898,0.76223,1.01076
262.556,32.05643,97.98421,0.60337,1.00935
265.256,32.31321,97.9491,0.52873,1.00793
267.956,32.57015,97.88348,0.49978,1.00649
270.656,32.82816,97.85865,0.48802,1.00505
273.356,33.08639,97.8179,0.4875,1.00359
276.056,33.3444,97.73487,0.48843,1.00211
278.756,33.60265,97.70175,0.49113,1.00063
281.456,33.86005,97.63466,0.4974,0.99913
284.156,34.11853,97.6036,0.50047,0.99762
286.856,34.3763,97.53684,0.50053,0.99609
289.556,34.635,97.47068,0.50071,0.99455
292.256,34.89365,97.40476,0.49613,0.993
294.956,35.15255,97.3471,0.49451,0.99144
297.656,35.41158,97.27296,0.49591,0.98987
300.356,35.67,97.20702,0.49738,0.98828
303.056,35.92801,97.10802,0.49544,0.98668
305.756,36.1866,97.07509,0.49349,0.98507
308.456,36.44497,96.9759,0.49098,0.98344
311.156,36.70321,96.90279,0.48924,0.98181
313.856,36.96201,96.7997,0.49037,0.98016
316.556,37.22033,96.7286,0.49083,0.9785
319.256,37.47873,96.60475,0.49403,0.97683
321.956,37.738,96.57189,0.49876,0.97515
324.656,37.99693,96.47502,0.50753,0.97345
327.356,38.25522,96.37386,0.54762,0.97174
330.056,38.51328,96.29148,0.57371,0.97003
332.756,38.7729,96.221,0.58873,0.9683
335.456,39.0323,96.09532,0.5932,0.96656
338.156,39.29208,96.01931,0.59723,0.96481
340.856,39.5514,95.88746,0.60332,0.96304
343.556,39.81068,95.7512,0.61817,0.96127
346.256,40.0698,95.58774,0.63489,0.95948
348.956,40.32949,95.4531,0.65945,0.95769
351.656,40.5888,95.27518,0.68979,0.95588
354.356,40.84855,95.04866,0.72104,0.95406
357.056,41.10848,94.84221,0.76122,0.95224
359.756,41.369,94.5926,0.79831,0.9504
362.456,41.62948,94.342,0.83324,0.94855
365.156,41.89049,94.1306,0.86303,0.94669
367.856,42.15128,93.83205,0.88929,0.94482
370.556,42.4129,93.536,0.91112,0.94294
373.256,42.6751,93.2468,0.92195,0.94105
375.956,42.9372,92.90298,0.91099,0.93915
378.656,43.20089,92.53686,0.88474,0.93724
381.356,43.46435,92.2098,0.84624,0.93532
384.056,43.72817,91.8492,0.8117,0.93339
386.756,43.99123,91.4717,0.79234,0.93145
389.456,44.2562,91.00345,0.78134,0.9295
392.156,44.52152,90.45446,0.76601,0.92754
394.856,44.78732,89.84244,0.73602,0.92557
397.556,45.05199,89.15638,0.73068,0.92359
400.256,45.31797,88.3657,0.68601,0.92161
402.956,45.58365,87.43732,0.64121,0.91961
405.656,45.84815,86.46977,0.63656,0.91761
408.356,46.11133,85.48557,0.6506,0.91559
411.056,46.37409,83.7761,0.66404,0.91357
413.756,46.63714,81.7135,0.68958,0.91154
416.456,46.89956,79.37313,0.72688,0.9095
419.156,47.16245,76.58414,0.77276,0.90745
421.856,47.42542,73.33978,0.82378,0.90539
424.556,47.68842,69.63217,0.85026,0.90332
427.256,47.95154,65.63217,0.85558,0.90125
429.956,48.21495,61.26869,0.8635,0.89916
432.656,48.47848,56.55928,0.87207,0.89707
435.356,48.74175,51.62369,0.8675,0.89497
438.056,49.00503,46.65715,0.8327,0.89286
440.756,49.26834,41.8973,0.7838,0.89075
443.456,49.53092,37.52851,0.70558,0.88863
446.156,49.79316,33.5839,0.60911,0.88649
448.856,50.0555,30.51111,0.5009,0.88436
451.556,50.3172,28.12218,0.39791,0.88221
454.256,50.57863,26.28821,0.31961,0.88005
456.956,50.842,24.854,0.24871,0.87789
459.656,51.10491,23.71809,0.18902,0.87572
462.356,51.3681,22.81236,0.13701,0.87355
465.056,51.63147,22.0491,0.10631,0.87137
467.756,51.89047,21.5178,0.18391,0.86918
470.456,52.14233,20.97436,0.41092,0.86698
473.156,52.41097,20.597,0.24073,0.86477
475.856,52.68235,20.27659,0.08304264,0.86256
478.556,52.95417,19.99417,-0.1572,0.86034
481.256,53.2252,19.78462,-0.33674,0.85812
483.956,53.4946,19.53491,-0.41933,0.85589
486.656,53.7633,19.41776,-0.42297,0.85365
489.356,54.03291,19.31544,-0.41341,0.85141
492.056,54.302,19.18221,-0.39717,0.84916
494.756,54.5702,19.06607,-0.38036,0.8469
497.456,54.839,18.96431,-0.36268,0.84464
500.156,55.10699,18.94802,-0.34377,0.84237
502.856,55.3757,18.8504,-0.33076,0.8401
505.556,55.64444,18.791,-0.31554,0.83782
508.256,55.91384,18.73497,-0.30097,0.83553
510.956,56.1818,18.68082,-0.29264,0.83324
513.656,56.45005,18.6839,-0.28209,0.83094
516.356,56.7183,18.65067,-0.27581,0.82864
519.056,56.9863,18.5847,-0.2708,0.82633
521.756,57.2541,18.5305,-0.26713,0.82402
524.456,57.5222,18.48321,-0.2596,0.8217
527.156,57.7902,18.4823,-0.25883,0.81938
529.856,58.05794,18.41691,-0.25653,0.81705
532.556,58.3266,18.32623,-0.25565,0.81472
535.256,58.5953,18.27512,-0.25527,0.81238
537.956,58.8649,18.23584,-0.25585,0.81003
540.656,59.13463,18.2073,-0.25568,0.80769
543.356,59.4063,18.16732,-0.2559,0.80533
546.056,59.6774,18.0945,-0.25791,0.80298
548.756,59.9482,18.06266,-0.25966,0.80062
551.456,60.2182,18.06241,-0.26302,0.79825
554.156,60.4872,18.0213,-0.26339,0.79588
556.856,60.75665,17.9696,-0.26767,0.79351
559.556,61.02519,17.92224,-0.27233,0.79113
562.256,61.295,17.9223,-0.27234,0.78875
564.956,61.56403,17.88891,-0.27689,0.78636
567.656,61.8333,17.82338,-0.28134,0.78397
570.356,62.103,17.75739,-0.28531,0.78158
573.056,62.372,17.72622,-0.2958,0.77918
575.756,62.6413,17.71491,-0.29918,0.77678
578.456,62.91089,17.67474,-0.30875,0.77437
581.156,63.181,17.5925,-0.31168,0.77196
583.856,63.45086,17.59248,-0.31332,0.76955
586.556,63.7205,17.52282,-0.31253,0.76714
589.256,63.99018,17.52356,-0.31231,0.76472
591.956,64.25954,17.45774,-0.31283,0.7623
594.656,64.52982,17.4575,-0.30594,0.75988
597.356,64.8014,17.45789,-0.3018,0.75745
600.056,65.07319,17.4001,-0.30157,0.75502
602.756,65.34526,17.35765,-0.30086,0.75259
605.456,65.6177,17.30077,-0.29288,0.75015
608.156,65.8888,17.24336,-0.28951,0.74772
610.856,66.15944,17.18546,-0.28455,0.74528
613.556,66.42947,17.12777,-0.27833,0.74283
616.256,66.69981,17.0865,-0.27186,0.74039
618.956,66.97017,17.00449,-0.2698,0.73794
621.656,67.2398,16.9356,-0.26675,0.73549
624.356,67.51009,16.9024,-0.26196,0.73304
627.056,67.78177,16.86944,-0.25615,0.73059
629.756,68.05395,16.76516,-0.25602,0.72813
632.456,68.32685,16.74036,-0.24972,0.72568
635.156,68.59864,16.72246,-0.24871,0.72322
637.856,68.87097,16.67749,-0.24762,0.72076
640.556,69.1426,16.6695,-0.24463,0.7183
643.256,69.41456,16.6496,-0.24288,0.71583
645.956,69.68691,16.6832,-0.24194,0.71337
648.656,69.95819,16.66316,-0.24153,0.7109
651.356,70.22952,16.67944,-0.23911,0.70843
654.056,70.50055,16.67973,-0.23583,0.70597
656.756,70.7722,16.64679,-0.23283,0.7035
659.456,71.04381,16.6797,-0.23334,0.70103
662.156,71.3156,16.65699,-0.23212,0.69855
664.856,71.58711,16.6138,-0.23942,0.69608
667.556,71.85933,16.6055,-0.23787,0.69361
670.256,72.13229,16.56416,-0.23119,0.69113
672.956,72.4047,16.53133,-0.22787,0.68866
675.656,72.6771,16.55217,-0.23112,0.68618
678.356,72.94938,16.5226,-0.23331,0.6837
681.056,73.2222,16.4654,-0.24369,0.68123
683.756,73.4944,16.4654,-0.2556,0.67875
686.456,73.76629,16.40735,-0.25012,0.67627
689.156,74.039,16.40778,-0.25229,0.6738
691.856,74.3124,16.33543,-0.25023,0.67132
694.556,74.5856,16.3572,-0.25007,0.66884
697.256,74.85861,16.35814,-0.25515,0.66636
698.556,74.99008,16.32536,-0.24288,0.66517