Folder: fsri_materials_database/01_Data/Overstuffed_Chair_Polyester_Fabric/STA/N2/10K_min (part 2)

File: Overstuffed_Chair_Polyester_Fabric_STA_N2_10KData_220204_R4.csv
##Temp./Â°C,Time/min,Mass(subtr.2)/%,DSC(subtr.2)/(mW/mg),Sensit./(uV/mW)
49.3,10.00917,100.223,0.00156248,1.07447
51.9,11.2141,100.266,0.0720742,1.07429
54.5,11.61069,100.26,0.10959,1.07408
57.1,11.9419,100.251,0.13284,1.07387
59.7,12.2475,100.296,0.14173,1.07363
62.3,12.5404,100.285,0.14874,1.07339
64.9,12.8268,100.258,0.15569,1.07312
67.5,13.10864,100.255,0.16247,1.07284
70.1,13.38641,100.289,0.16708,1.07255
72.7,13.66191,100.223,0.16923,1.07223
75.3,13.93489,100.287,0.17182,1.07191
77.9,14.207,100.225,0.17498,1.07156
80.5,14.4766,100.191,0.17788,1.07121
83.1,14.7442,100.192,0.17813,1.07083
85.7,15.00857,100.191,0.18092,1.07044
88.3,15.271,100.17,0.1838,1.07004
90.9,15.53171,100.191,0.18945,1.06962
93.5,15.79147,100.191,0.19223,1.06918
96.1,16.04972,100.158,0.19492,1.06873
98.7,16.30635,100.214,0.19613,1.06826
101.3,16.56279,100.18,0.199,1.06778
103.9,16.81839,100.15,0.20137,1.06728
106.5,17.07422,100.181,0.20416,1.06676
109.1,17.3286,100.135,0.20753,1.06624
111.7,17.58311,100.199,0.21118,1.06569
114.3,17.83746,100.163,0.2151,1.06513
116.9,18.09124,100.164,0.21808,1.06456
119.5,18.34496,100.171,0.22143,1.06397
122.1,18.59818,100.252,0.22728,1.06336
124.7,18.85104,100.1774,0.23503,1.06274
127.3,19.10363,100.198,0.24154,1.06211
129.9,19.3554,100.197,0.25457,1.06146
132.5,19.60803,100.196,0.25911,1.06079
135.1,19.85954,100.204,0.24589,1.06011
137.7,20.11065,100.26,0.23005,1.05941
140.3,20.36211,100.196,0.21719,1.0587
142.9,20.61284,100.163,0.21488,1.05798
145.5,20.8632,100.214,0.2161,1.05724
148.1,21.11368,100.236,0.21862,1.05648
150.7,21.36386,100.2076,0.22067,1.05571
153.3,21.61372,100.2078,0.22092,1.05493
155.9,21.86309,100.218,0.22443,1.05413
158.5,22.11215,100.185,0.22908,1.05332
161.1,22.3609,100.206,0.229,1.05249
163.7,22.6092,100.21,0.2313,1.05165
166.3,22.8583,100.185,0.23255,1.05079
168.9,23.10684,100.217,0.23479,1.04992
171.5,23.35575,100.193,0.23736,1.04903
174.1,23.6039,100.185,0.24002,1.04813
176.7,23.85267,100.259,0.243,1.04722
179.3,24.10115,100.126,0.24488,1.04629
181.9,24.3491,100.19,0.2468,1.04535
184.5,24.59689,100.19,0.24921,1.04439
187.1,24.84475,100.223,0.25414,1.04342
189.7,25.09176,100.158,0.25377,1.04244
192.3,25.3398,100.278,0.25444,1.04144
194.9,25.58761,100.215,0.2561,1.04042
197.5,25.8348,100.199,0.25889,1.0394
200.1,26.08335,100.207,0.26094,1.03836
202.7,26.33108,100.18,0.26485,1.0373
205.3,26.5786,100.223,0.26884,1.03623
207.9,26.8262,100.19,0.27608,1.03515
210.5,27.0731,100.1643,0.28048,1.03406
213.1,27.3212,100.239,0.2863,1.03295
215.7,27.5688,100.207,0.29535,1.03182
218.3,27.81675,100.158,0.30079,1.03069
220.9,28.0648,100.158,0.31518,1.02954
223.5,28.31338,100.16,0.32916,1.02838
226.1,28.56165,100.126,0.34592,1.0272
228.7,28.8095,100.102,0.34089,1.02601
231.3,29.0573,100.086,0.32627,1.02481
233.9,29.30487,100.07,0.32529,1.02359
236.5,29.55265,100.053,0.33032,1.02237
239.1,29.8001,100.036,0.34452,1.02112
241.7,30.0485,100.057,0.36204,1.01987
244.3,30.29673,99.95992,0.38867,1.0186
246.9,30.54468,100.024,0.43011,1.01732
249.5,30.7928,99.9278,0.54899,1.01603
252.1,31.0418,99.92786,0.77187,1.01473
254.7,31.29245,99.92787,0.99728,1.01341
257.3,31.5422,99.87139,0.9078,1.01208
259.9,31.78968,99.8875,0.64756,1.01073
262.5,32.03683,99.8391,0.49448,1.00938
265.1,32.28325,99.78205,0.41452,1.00801
267.7,32.5313,99.79902,0.37573,1.00663
270.3,32.77839,99.7202,0.36079,1.00524
272.9,33.02618,99.7025,0.35437,1.00383
275.5,33.2748,99.60595,0.35104,1.00242
278.1,33.52288,99.57384,0.35474,1.00099
280.7,33.771,99.4929,0.35777,0.99955
283.3,34.02026,99.42787,0.35766,0.9981
285.9,34.27078,99.3877,0.35489,0.99663
288.5,34.52163,99.2624,0.3531,0.99516
291.1,34.77303,99.2949,0.34994,0.99367
293.7,35.02409,99.2302,0.35061,0.99217
296.3,35.2751,99.13387,0.3537,0.99066
298.9,35.5258,99.0694,0.34942,0.98914
301.5,35.77561,99.00449,0.34702,0.9876
304.1,36.02622,98.98095,0.34267,0.98606
306.7,36.27641,98.90881,0.34109,0.9845
309.3,36.52704,98.8122,0.34049,0.98293
311.9,36.77724,98.73154,0.34152,0.98136
314.5,37.02772,98.65135,0.34117,0.97977
317.1,37.279,98.6434,0.34192,0.97816
319.7,37.5301,98.57065,0.34479,0.97655
322.3,37.78139,98.5063,0.34802,0.97493
324.9,38.03259,98.42616,0.35807,0.9733
327.5,38.28255,98.36161,0.38088,0.97165
330.1,38.53246,98.2266,0.40911,0.97
332.7,38.78221,98.13184,0.42972,0.96833
335.3,39.03232,98.06812,0.44557,0.96666
337.9,39.28171,98.03573,0.4637,0.96497
340.5,39.53215,97.79929,0.47743,0.96328
343.1,39.7819,97.6998,0.49534,0.96157
345.7,40.03198,97.53839,0.51314,0.95985
348.3,40.28153,97.44162,0.52971,0.95812
350.9,40.53114,97.2072,0.54652,0.95639
353.5,40.78123,97.08815,0.55218,0.95464
356.1,41.03176,96.8689,0.56028,0.95288
358.7,41.28268,96.59048,0.55859,0.95112
361.3,41.53453,96.43393,0.55391,0.94934
363.9,41.78673,96.15441,0.54126,0.94755
366.5,42.03947,95.90495,0.52956,0.94576
369.1,42.2926,95.59437,0.51299,0.94395
371.7,42.546,95.26226,0.50002,0.94214
374.3,42.79918,94.96088,0.48087,0.94031
376.9,43.0529,94.6412,0.46201,0.93848
379.5,43.30579,94.27839,0.44337,0.93664
382.1,43.559,93.91274,0.42861,0.93479
384.7,43.81211,93.58152,0.42351,0.93293
387.3,44.06559,93.27847,0.42447,0.93106
389.9,44.31924,92.87975,0.43486,0.92918
392.5,44.57354,92.35986,0.44046,0.92729
395.1,44.82806,91.8151,0.43579,0.92539
397.7,45.08194,91.09655,0.44105,0.92349
400.3,45.3355,90.28458,0.44637,0.92157
402.9,45.58894,89.27643,0.45413,0.91965
405.5,45.84218,88.1841,0.47364,0.91772
408.1,46.09592,86.84651,0.5091,0.91578
410.7,46.34985,85.1929,0.53807,0.91384
413.3,46.60411,83.28274,0.55728,0.91188
415.9,46.85815,81.07842,0.58407,0.90992
418.5,47.1118,78.6195,0.62325,0.90794
421.1,47.36653,75.8089,0.6628,0.90596
423.7,47.621,72.48961,0.71573,0.90398
426.3,47.8754,68.98581,0.71806,0.90198
428.9,48.1297,65.14072,0.73167,0.89998
431.5,48.38445,60.9331,0.74816,0.89797
434.1,48.63906,56.58076,0.7556,0.89595
436.7,48.89379,52.12246,0.74448,0.89392
439.3,49.14788,47.9119,0.70935,0.89189
441.9,49.40143,43.78309,0.65808,0.88985
444.5,49.65508,39.8014,0.58741,0.8878
447.1,49.90845,36.25521,0.50764,0.88575
449.7,50.16183,33.30451,0.42356,0.88369
452.3,50.4156,30.98497,0.35087,0.88162
454.9,50.66945,29.18276,0.29627,0.87954
457.5,50.9238,27.7401,0.25523,0.87746
460.1,51.17819,26.5377,0.21658,0.87537
462.7,51.43329,25.55262,0.17124,0.87327
465.3,51.68938,23.23984,0.13397,0.87117
467.9,51.94542,22.8886,0.08182086,0.86906
470.5,52.19585,22.69984,0.14227,0.86694
473.1,52.44565,22.587,0.17509,0.86482
475.7,52.70305,22.48757,0.07931591,0.86269
478.3,52.96095,22.35155,0.00995846,0.86056
480.9,53.21915,22.17653,-0.07953063,0.85841
483.5,53.4781,21.9811,-0.15308,0.85627
486.1,53.73724,21.87361,-0.22056,0.85411
488.7,53.996,21.71236,-0.27557,0.85195
491.3,54.25388,21.61287,-0.31049,0.84979
493.9,54.5115,21.4847,-0.33911,0.84762
496.5,54.7695,21.4203,-0.34812,0.84544
499.1,55.0269,21.38822,-0.34657,0.84326
501.7,55.28415,21.3274,-0.34394,0.84107
504.3,55.5417,21.2837,-0.33715,0.83888
506.9,55.79962,21.20344,-0.33747,0.83668
509.5,56.0575,21.12274,-0.33374,0.83448
512.1,56.31593,21.07408,-0.32836,0.83227
514.7,56.57459,21.02113,-0.32561,0.83005
517.3,56.833,20.9127,-0.32866,0.82783
519.9,57.09135,20.88149,-0.3267,0.82561
522.5,57.35026,20.84915,-0.32721,0.82338
525.1,57.60799,20.75281,-0.32839,0.82115
527.7,57.86665,20.7386,-0.33229,0.81891
530.3,58.1249,20.7495,-0.3339,0.81667
532.9,58.3831,20.67215,-0.33906,0.81442
535.5,58.64147,20.67175,-0.34422,0.81217
538.1,58.90005,20.639,-0.3451,0.80991
540.7,59.15851,20.6079,-0.353,0.80765
543.3,59.41806,20.55159,-0.35369,0.80538
545.9,59.67723,20.51945,-0.35539,0.80311
548.5,59.93614,20.45383,-0.36396,0.80084
551.1,60.195,20.39228,-0.3686,0.79856
553.7,60.4533,20.3245,-0.37077,0.79628
556.3,60.7118,20.3182,-0.37446,0.794
558.9,60.97051,20.25368,-0.37927,0.79171
561.5,61.2288,20.18936,-0.38121,0.78941
564.1,61.4879,20.15723,-0.38203,0.78712
566.7,61.74671,20.14101,-0.38113,0.78482
569.3,62.0053,20.09393,-0.37707,0.78251
571.9,62.2643,20.0609,-0.36992,0.7802
574.5,62.5235,20.02861,-0.36311,0.77789
577.1,62.7834,19.9631,-0.34722,0.77558
579.7,63.04387,19.94414,-0.33295,0.77326
582.3,63.3043,19.87579,-0.33509,0.77094
584.9,63.56522,19.84352,-0.33369,0.76862
587.5,63.8256,19.81161,-0.33487,0.76629
590.1,64.0859,19.77111,-0.33914,0.76396
592.7,64.34704,19.755,-0.34179,0.76163
595.3,64.60686,19.723,-0.34585,0.7593
597.9,64.86707,19.69081,-0.34549,0.75696
600.5,65.12724,19.70491,-0.34916,0.75462
603.1,65.38811,19.78195,-0.34985,0.75228
605.7,65.64833,19.6479,-0.35564,0.74993
608.3,65.9085,19.58902,-0.35261,0.74759
610.9,66.16874,19.58853,-0.35766,0.74524
613.5,66.42949,19.52419,-0.35878,0.74289
616.1,66.69059,19.45981,-0.36093,0.74053
618.7,66.95244,19.41844,-0.36806,0.73818
621.3,67.21405,19.4279,-0.37297,0.73582
623.9,67.4756,19.34806,-0.37633,0.73346
626.5,67.73734,19.26652,-0.37504,0.7311
629.1,67.99891,19.2643,-0.37396,0.72873
631.7,68.26023,19.232,-0.37045,0.72637
634.3,68.52199,19.16495,-0.37016,0.724
636.9,68.78311,19.13159,-0.37007,0.72163
639.5,69.04369,19.05818,-0.36514,0.71926
642.1,69.30457,19.0512,-0.36501,0.71689
644.7,69.5656,19.06036,-0.36323,0.71452
647.3,69.82732,19.0286,-0.35909,0.71214
649.9,70.08833,19.02015,-0.35846,0.70977
652.5,70.35022,18.95599,-0.35551,0.70739
655.1,70.61162,19.02836,-0.35531,0.70501
657.7,70.87391,18.89968,-0.35169,0.70263
660.3,71.13615,18.9311,-0.35103,0.70025
662.9,71.39825,18.86721,-0.3531,0.69787
665.5,71.6604,18.83521,-0.34926,0.69549
668.1,71.92215,18.86725,-0.34875,0.69311
670.7,72.18339,18.80294,-0.35042,0.69072
673.3,72.44481,18.80276,-0.35439,0.68834
675.9,72.70614,18.83539,-0.35546,0.68596
678.5,72.96758,18.811,-0.35873,0.68357
681.1,73.22964,18.75453,-0.3595,0.68119
683.7,73.4924,18.79475,-0.36519,0.6788
686.3,73.75492,18.82116,-0.37055,0.67642
688.9,74.01813,18.72249,-0.37525,0.67403
691.5,74.28108,18.72299,-0.38588,0.67164
694.1,74.54428,18.72266,-0.38627,0.66926
696.7,74.80686,18.69022,-0.39961,0.66687
698.6,74.99814,18.68184,-0.40318,0.66513