Folder: fsri_materials_database/01_Data/PVC_R01/MCC

Note: 01_Data/README.md
# Materials and Products Database
## 01_Data

Raw data generated from each apparatus are included here in plain-text format. The data is organized first by material, next by the short name of test apparatus used, and where applicable additional filtering by test settings.

### material.json

Each material directory contains a json file of the same name as the material. This file links the data stored in the repository as well as data and graphs produced by the accompanying scripts (__02_Scripts__) to the respective landing page for the material on the front-end website.

File: PVC_MCC_30K_min_210920_R3.txt
Sample ID:	C:\MCC\PVC_MCC_30K_min_210920_R3.txt
Sample Weight (mg):	4.42
Heating Rate (C/s):	0.5
Combustor Temp (C):	900
N2 Flow Rate (cc/min):	80
O2 Flow Rate (cc/min):	20
Calibration File:	C:\MCC\MCC Cal\Coeff1 JN10440_30_210304.txt.txt
T Correction Coefficients:	0	1.024463	0
Time Shift (s):	14
*
Time (s)	Temperature (C)	N2 flow rate (cc/min)	O2 flow rate (cc/min)	Flow Rate (cc/min)	Oxygen (%)	HRR (W/g)	Heating rate (C/s)
0.000	110.506	80.005	19.994	100.257	20.219	-0.407	0.009
8.000	110.458	80.003	19.995	100.260	20.221	-0.579	-0.030
16.000	110.476	80.003	19.994	100.263	20.221	-0.568	0.016
24.000	110.515	80.002	19.995	100.324	20.212	0.075	0.045
31.999	110.753	80.001	19.996	100.347	20.202	0.793	0.067
40.000	111.304	80.001	19.995	100.434	20.194	1.342	0.061
48.000	112.434	80.003	19.994	100.452	20.190	1.626	0.193
55.999	113.879	80.003	19.995	100.454	20.187	1.878	0.199
64.001	115.656	80.002	19.995	100.482	20.182	2.175	0.255
71.999	117.801	80.005	19.994	100.495	20.176	2.629	0.316
79.999	120.304	80.005	19.995	100.504	20.179	2.432	0.337
87.999	123.156	80.001	19.995	100.511	20.174	2.773	0.347
95.999	126.269	80.000	19.996	100.527	20.177	2.556	0.368
104.001	129.631	80.003	19.994	100.515	20.174	2.794	0.419
111.999	133.124	80.004	19.994	100.524	20.179	2.407	0.427
120.001	136.885	80.001	19.995	100.527	20.178	2.461	0.470
127.999	140.702	80.003	19.995	100.514	20.179	2.420	0.485
136.000	144.649	80.003	19.995	100.505	20.176	2.615	0.530
144.000	148.627	80.003	19.994	100.501	20.180	2.327	0.491
151.999	152.675	80.003	19.995	100.498	20.182	2.222	0.541
159.999	156.683	80.004	19.995	100.489	20.184	2.058	0.483
168.000	160.739	80.002	19.992	100.482	20.181	2.290	0.505
176.000	164.828	80.002	19.994	100.476	20.186	1.910	0.538
183.999	168.843	80.003	19.995	100.460	20.185	1.980	0.511
191.999	172.807	80.005	19.995	100.458	20.187	1.837	0.477
199.999	176.834	80.003	19.995	100.458	20.188	1.783	0.505
208.000	180.808	80.004	19.995	100.441	20.189	1.717	0.522
215.999	184.751	80.004	19.996	100.454	20.189	1.744	0.502
224.000	188.681	80.002	19.995	100.437	20.190	1.655	0.469
232.000	192.648	80.005	19.995	100.432	20.185	1.970	0.495
239.999	196.495	80.004	19.994	100.440	20.195	1.307	0.477
248.001	200.409	80.004	19.995	100.419	20.195	1.285	0.513
256.000	204.352	80.002	19.995	100.421	20.193	1.409	0.473
264.000	208.268	80.003	19.995	100.426	20.191	1.546	0.477
272.000	212.178	80.003	19.994	100.418	20.188	1.807	0.479
280.000	216.072	80.002	19.994	100.421	20.192	1.504	0.497
288.000	220.000	80.003	19.994	100.420	20.189	1.743	0.516
296.000	223.965	80.004	19.995	100.419	20.186	1.904	0.493
304.000	227.936	80.003	19.995	100.421	20.185	2.010	0.488
312.000	231.917	80.003	19.995	100.416	20.184	2.080	0.505
320.000	235.931	80.006	19.995	100.412	20.173	2.857	0.487
328.000	239.963	80.004	19.995	100.411	20.167	3.257	0.482
336.000	243.958	80.001	19.996	100.417	20.156	4.052	0.512
344.000	247.911	80.002	19.996	100.433	20.147	4.701	0.483
352.000	252.041	80.004	19.995	100.421	20.122	6.439	0.528
360.000	256.087	80.002	19.994	100.422	20.101	7.960	0.491
368.000	260.127	80.002	19.995	100.419	20.092	8.617	0.501
376.000	264.133	80.004	19.995	100.416	20.089	8.769	0.517
384.000	268.143	80.005	19.995	100.413	20.088	8.881	0.508
392.000	272.179	80.004	19.995	100.416	20.099	8.084	0.508
400.000	276.192	80.005	19.995	100.417	20.105	7.680	0.473
408.000	280.157	80.004	19.994	100.426	20.105	7.636	0.469
416.000	284.128	80.003	19.995	100.459	20.098	8.174	0.484
424.000	288.082	80.001	19.995	100.465	20.089	8.790	0.488
432.000	291.963	80.001	19.996	100.474	20.074	9.865	0.494
440.000	295.990	80.004	19.995	100.478	20.060	10.892	0.530
448.000	299.963	80.002	19.994	100.476	20.048	11.729	0.529
456.000	303.866	80.004	19.994	100.461	20.039	12.332	0.475
464.000	307.881	80.005	19.995	100.453	20.038	12.443	0.458
472.000	311.983	80.005	19.994	100.430	20.039	12.372	0.552
480.000	316.066	80.006	19.995	100.417	20.045	11.924	0.531
488.000	320.091	80.005	19.993	100.390	20.057	11.077	0.507
496.000	324.144	80.002	19.996	100.382	20.065	10.501	0.500
504.000	328.265	80.003	19.996	100.345	20.077	9.642	0.520
512.000	332.351	80.004	19.995	100.339	20.084	9.142	0.510
520.000	336.428	80.002	19.996	100.304	20.085	9.053	0.515
528.000	340.485	80.000	19.995	100.313	20.093	8.524	0.500
536.000	344.518	80.002	19.994	100.342	20.091	8.637	0.527
544.000	348.579	80.004	19.995	100.388	20.087	8.968	0.475
552.000	352.657	80.003	19.995	100.427	20.089	8.778	0.516
560.000	356.785	80.004	19.993	100.464	20.083	9.211	0.537
568.000	360.820	80.007	19.994	100.486	20.080	9.452	0.510
576.000	364.787	80.003	19.994	100.496	20.079	9.531	0.479
584.000	368.789	80.004	19.995	100.496	20.074	9.868	0.474
592.000	372.848	80.003	19.995	100.496	20.077	9.693	0.519
600.000	376.855	80.003	19.995	100.494	20.074	9.896	0.491
608.000	380.877	80.002	19.994	100.492	20.068	10.298	0.512
616.000	384.890	80.002	19.996	100.472	20.061	10.773	0.493
624.000	388.948	80.005	19.995	100.462	20.050	11.548	0.485
632.000	393.001	80.004	19.995	100.458	20.031	12.895	0.512
640.000	397.065	80.004	19.994	100.458	20.012	14.289	0.506
648.000	401.121	80.003	19.993	100.456	19.981	16.428	0.498
656.000	405.217	80.003	19.995	100.448	19.950	18.637	0.543
664.000	409.230	80.003	19.994	100.433	19.907	21.687	0.469
672.000	413.230	80.004	19.995	100.450	19.855	25.375	0.494
680.000	417.226	80.003	19.995	100.427	19.787	30.215	0.508
688.000	421.252	80.002	19.995	100.424	19.710	35.637	0.507
696.000	425.254	80.005	19.995	100.437	19.622	41.904	0.496
704.000	429.298	80.004	19.996	100.417	19.525	48.799	0.487
712.000	433.357	80.005	19.996	100.417	19.431	55.418	0.534
720.000	437.364	80.005	19.995	100.420	19.348	61.316	0.525
728.000	441.345	80.005	19.995	100.417	19.270	66.870	0.475
736.001	445.397	80.003	19.995	100.414	19.227	69.884	0.519
744.000	449.388	80.004	19.994	100.412	19.246	68.549	0.486
752.000	453.420	80.004	19.995	100.418	19.255	67.900	0.541
760.000	457.468	80.003	19.995	100.412	19.266	67.083	0.488
768.000	461.566	80.001	19.995	100.376	19.343	61.690	0.513
776.000	465.643	80.004	19.996	100.389	19.489	51.306	0.516
784.000	469.774	80.007	19.995	100.382	19.602	43.310	0.527
792.000	473.871	80.002	19.994	100.372	19.664	38.910	0.529
800.000	478.007	80.004	19.996	100.411	19.698	36.486	0.496
808.000	482.052	80.005	19.995	100.411	19.752	32.687	0.520
816.000	486.177	80.003	19.994	100.381	19.815	28.224	0.527
824.000	490.184	80.001	19.995	100.380	19.876	23.910	0.473
832.000	494.265	80.002	19.994	100.361	19.933	19.827	0.521
840.000	498.332	80.005	19.995	100.368	19.978	16.658	0.474
848.000	502.482	80.002	19.994	100.361	20.022	13.541	0.540
856.000	506.543	80.002	19.996	100.365	20.058	10.993	0.553
864.000	510.588	80.003	19.996	100.361	20.083	9.211	0.525
872.000	514.693	80.003	19.994	100.364	20.105	7.682	0.553
880.000	518.779	80.003	19.994	100.351	20.122	6.482	0.508
888.000	522.855	80.003	19.995	100.352	20.139	5.271	0.524
896.000	526.909	80.003	19.996	100.340	20.153	4.245	0.515
904.000	530.984	80.002	19.995	100.341	20.167	3.262	0.505
912.000	535.044	80.003	19.995	100.340	20.179	2.410	0.528
920.000	539.093	80.003	19.994	100.339	20.194	1.375	0.504
928.000	543.134	80.003	19.996	100.342	20.200	0.898	0.518
936.000	547.116	80.004	19.994	100.347	20.204	0.628	0.495
944.000	551.175	80.006	19.993	100.345	20.208	0.355	0.488
952.000	555.223	80.003	19.996	100.344	20.212	0.114	0.505
960.000	559.295	80.004	19.996	100.340	20.219	-0.402	0.510
968.000	563.437	80.005	19.994	100.339	20.221	-0.525	0.551
976.000	567.653	80.006	19.995	100.337	20.221	-0.572	0.526
984.000	571.954	80.003	19.995	100.339	20.224	-0.782	0.531
992.000	576.261	80.004	19.994	100.336	20.226	-0.892	0.548
1000.000	580.528	80.004	19.993	100.341	20.229	-1.114	0.512
1008.000	584.768	80.001	19.996	100.343	20.228	-1.060	0.537
1016.000	588.920	80.005	19.993	100.344	20.228	-1.031	0.503
1024.000	593.026	80.003	19.996	100.342	20.234	-1.462	0.513
1031.999	597.153	80.005	19.997	100.339	20.232	-1.369	0.504
1040.000	601.206	80.004	19.995	100.336	20.233	-1.396	0.539
1047.999	605.321	80.007	19.995	100.336	20.238	-1.748	0.568
1056.001	609.306	80.003	19.994	100.338	20.238	-1.748	0.484
1064.000	613.315	80.004	19.994	100.338	20.239	-1.846	0.490
1071.999	617.312	80.002	19.995	100.341	20.243	-2.082	0.499
1080.001	621.159	80.002	19.995	100.338	20.241	-1.968	0.478
1088.000	625.016	80.003	19.996	100.338	20.243	-2.099	0.502
1095.999	628.942	80.003	19.995	100.339	20.244	-2.175	0.517
1104.000	632.915	80.006	19.995	100.335	20.247	-2.393	0.505
1111.999	636.987	80.004	19.994	100.336	20.246	-2.348	0.485
1119.999	641.020	80.004	19.994	100.336	20.246	-2.337	0.478
1127.999	645.026	80.004	19.994	100.335	20.244	-2.219	0.479
1135.999	649.088	80.005	19.994	100.334	20.246	-2.300	0.494
1144.000	653.155	80.003	19.995	100.341	20.248	-2.463	0.533
1152.000	657.270	80.003	19.995	100.339	20.248	-2.493	0.538
1160.000	661.346	80.003	19.995	100.340	20.250	-2.594	0.511
1168.000	665.352	80.001	19.996	100.334	20.248	-2.460	0.492
1176.000	669.412	80.002	19.996	100.335	20.250	-2.636	0.510
1184.000	673.480	80.005	19.994	100.337	20.249	-2.557	0.506
1192.000	677.577	80.004	19.994	100.340	20.248	-2.451	0.485
1200.000	681.645	80.003	19.994	100.342	20.248	-2.492	0.501
1208.000	685.687	80.005	19.993	100.339	20.251	-2.658	0.488
1216.000	689.757	80.006	19.994	100.337	20.249	-2.509	0.532
1224.000	693.764	80.005	19.994	100.328	20.252	-2.723	0.510
1232.001	697.756	80.004	19.995	100.338	20.253	-2.800	0.485
1240.000	701.751	80.002	19.996	100.336	20.252	-2.729	0.507
1248.000	705.703	80.003	19.993	100.340	20.254	-2.891	0.470
1256.000	709.740	80.003	19.996	100.340	20.253	-2.835	0.486
1264.000	713.812	80.004	19.996	100.340	20.252	-2.756	0.524
1272.000	717.890	80.004	19.995	100.341	20.253	-2.843	0.491
1280.000	721.884	80.004	19.995	100.338	20.255	-2.994	0.480
1288.001	725.903	80.006	19.995	100.339	20.253	-2.835	0.509
1296.000	729.895	80.008	19.995	100.338	20.251	-2.652	0.528
1304.001	733.857	80.006	19.995	100.353	20.252	-2.781	0.507
1312.000	737.851	80.003	19.994	100.339	20.252	-2.766	0.533
1320.000	741.825	80.003	19.994	100.343	20.253	-2.795	0.490
1323.500	743.627	80.004	19.995	100.341	20.251	-2.677	0.505

File: PVC_MCC_30K_min_210924_R4.txt
Sample ID:	C:\MCC\MCC Cal\Test\PVC_MCC_30K_min_210924_R4.txt
Sample Weight (mg):	4.81
Heating Rate (C/s):	0.5
Combustor Temp (C):	900
N2 Flow Rate (cc/min):	80
O2 Flow Rate (cc/min):	20
Calibration File:	C:\MCC\MCC Cal\Coeff1 JN10440_30_210304.txt.txt
T Correction Coefficients:	0	1.024463	0
Time Shift (s):	14
*
Time (s)	Temperature (C)	N2 flow rate (cc/min)	O2 flow rate (cc/min)	Flow Rate (cc/min)	Oxygen (%)	HRR (W/g)	Heating rate (C/s)
0.000	108.176	80.018	19.996	100.028	20.215	-0.140	0.025
8.000	108.134	80.008	19.997	100.035	20.218	-0.327	0.003
16.000	108.147	80.005	19.997	100.065	20.211	0.126	0.004
24.000	108.358	80.006	19.996	100.145	20.203	0.644	0.036
32.000	108.922	80.008	19.995	100.160	20.195	1.167	0.109
40.000	109.794	80.009	19.995	100.209	20.188	1.605	0.157
48.000	110.988	80.007	19.995	100.214	20.184	1.858	0.156
56.000	112.570	80.009	19.995	100.229	20.185	1.848	0.229
64.000	114.450	80.008	19.995	100.221	20.181	2.077	0.257
72.000	116.575	80.008	19.994	100.255	20.179	2.207	0.296
80.001	118.900	80.007	19.996	100.261	20.176	2.411	0.312
88.000	121.617	80.006	19.995	100.288	20.174	2.570	0.384
96.000	124.556	80.007	19.996	100.294	20.175	2.453	0.364
104.000	127.669	80.009	19.995	100.292	20.176	2.439	0.409
112.001	130.938	80.009	19.997	100.281	20.174	2.515	0.397
120.000	134.416	80.010	19.996	100.280	20.176	2.395	0.437
128.000	137.951	80.008	19.995	100.283	20.175	2.501	0.419
136.000	141.636	80.011	19.994	100.288	20.174	2.537	0.461
144.000	145.387	80.008	19.996	100.294	20.175	2.506	0.475
152.000	149.226	80.007	19.995	100.292	20.176	2.432	0.457
160.000	153.150	80.010	19.995	100.281	20.176	2.423	0.510
168.000	157.077	80.008	19.995	100.277	20.177	2.369	0.498
176.000	161.128	80.007	19.995	100.264	20.179	2.236	0.497
184.000	165.142	80.007	19.996	100.256	20.181	2.073	0.516
192.000	169.218	80.008	19.995	100.259	20.179	2.188	0.520
200.000	173.278	80.007	19.996	100.257	20.182	2.025	0.486
208.000	177.362	80.007	19.996	100.258	20.183	1.972	0.532
216.000	181.346	80.006	19.996	100.249	20.181	2.086	0.489
224.000	185.345	80.008	19.994	100.250	20.185	1.810	0.460
232.000	189.377	80.007	19.995	100.247	20.185	1.849	0.508
240.001	193.324	80.007	19.995	100.223	20.187	1.679	0.505
248.000	197.233	80.007	19.996	100.230	20.188	1.605	0.503
256.000	201.095	80.005	19.994	100.229	20.191	1.426	0.474
264.000	204.989	80.007	19.995	100.220	20.187	1.697	0.455
272.000	208.941	80.008	19.995	100.230	20.187	1.670	0.498
280.000	212.806	80.007	19.996	100.221	20.186	1.738	0.484
288.000	216.672	80.008	19.996	100.237	20.189	1.534	0.485
296.000	220.574	80.009	19.994	100.226	20.189	1.537	0.489
304.000	224.512	80.009	19.996	100.223	20.181	2.104	0.476
312.000	228.476	80.005	19.997	100.215	20.176	2.416	0.527
320.000	232.400	80.006	19.996	100.215	20.170	2.769	0.480
328.000	236.331	80.006	19.995	100.217	20.160	3.438	0.515
336.000	240.246	80.007	19.995	100.246	20.147	4.276	0.525
344.000	244.173	80.006	19.995	100.260	20.121	6.005	0.485
352.000	248.120	80.008	19.995	100.261	20.078	8.761	0.481
360.000	252.163	80.008	19.994	100.249	20.062	9.804	0.516
368.000	256.132	80.008	19.995	100.225	20.065	9.595	0.513
376.000	260.119	80.008	19.996	100.223	20.084	8.362	0.495
384.000	264.116	80.010	19.996	100.247	20.102	7.240	0.508
392.000	268.158	80.010	19.996	100.257	20.108	6.805	0.495
400.000	272.245	80.006	19.995	100.257	20.108	6.852	0.497
408.000	276.225	80.006	19.996	100.279	20.107	6.883	0.481
416.000	280.178	80.006	19.996	100.296	20.101	7.261	0.494
424.000	284.176	80.006	19.995	100.300	20.086	8.292	0.499
432.000	288.161	80.007	19.995	100.298	20.070	9.282	0.498
440.000	292.171	80.008	19.995	100.309	20.054	10.358	0.523
448.000	296.117	80.009	19.995	100.297	20.043	11.054	0.511
456.000	300.077	80.009	19.995	100.293	20.036	11.518	0.505
464.000	304.023	80.010	19.995	100.256	20.033	11.685	0.479
472.000	307.976	80.010	19.996	100.256	20.040	11.250	0.474
480.000	312.065	80.007	19.996	100.225	20.047	10.799	0.521
488.001	316.097	80.006	19.995	100.218	20.058	10.107	0.480
496.000	320.180	80.008	19.995	100.218	20.062	9.847	0.491
504.000	324.250	80.006	19.996	100.218	20.060	9.961	0.508
512.000	328.269	80.006	19.997	100.255	20.056	10.212	0.499
520.000	332.327	80.010	19.995	100.294	20.056	10.213	0.498
528.000	336.416	80.008	19.996	100.303	20.047	10.810	0.538
536.000	340.445	80.008	19.996	100.330	20.049	10.693	0.500
544.000	344.451	80.009	19.995	100.345	20.052	10.504	0.484
552.000	348.509	80.009	19.994	100.370	20.051	10.527	0.484
560.000	352.602	80.007	19.994	100.372	20.051	10.531	0.530
568.000	356.656	80.006	19.996	100.366	20.055	10.274	0.499
576.000	360.617	80.007	19.998	100.353	20.063	9.775	0.500
584.000	364.579	80.007	19.997	100.336	20.066	9.553	0.491
592.000	368.589	80.005	19.996	100.335	20.067	9.513	0.521
600.000	372.591	80.006	19.997	100.329	20.064	9.670	0.491
608.000	376.648	80.008	19.997	100.307	20.054	10.352	0.527
616.000	380.658	80.008	19.996	100.298	20.038	11.377	0.504
624.000	384.669	80.009	19.996	100.299	20.024	12.302	0.526
632.000	388.676	80.009	19.995	100.290	20.004	13.587	0.502
640.000	392.675	80.005	19.997	100.283	19.979	15.241	0.499
648.000	396.638	80.007	19.995	100.283	19.946	17.360	0.491
656.000	400.525	80.008	19.995	100.267	19.912	19.584	0.495
664.000	404.441	80.008	19.995	100.270	19.864	22.705	0.478
672.000	408.406	80.007	19.996	100.263	19.802	26.739	0.518
680.000	412.332	80.007	19.995	100.270	19.739	30.850	0.506
688.000	416.273	80.007	19.995	100.262	19.652	36.517	0.469
696.000	420.313	80.008	19.996	100.268	19.554	42.855	0.545
704.000	424.317	80.010	19.997	100.259	19.463	48.783	0.470
712.000	428.354	80.009	19.996	100.257	19.378	54.317	0.543
720.000	432.448	80.011	19.995	100.254	19.292	59.876	0.513
728.000	436.590	80.006	19.995	100.255	19.243	63.084	0.548
736.000	440.590	80.005	19.995	100.238	19.244	62.986	0.524
744.000	444.647	80.009	19.995	100.254	19.274	61.035	0.519
752.000	448.729	80.006	19.994	100.249	19.264	61.708	0.545
760.000	452.751	80.008	19.996	100.252	19.263	61.780	0.493
768.000	456.853	80.009	19.996	100.228	19.303	59.170	0.549
776.000	460.993	80.010	19.995	100.273	19.375	54.500	0.520
784.000	465.053	80.008	19.996	100.195	19.451	49.548	0.473
792.000	469.187	80.010	19.996	100.217	19.522	44.881	0.519
800.000	473.337	80.006	19.996	100.197	19.640	37.234	0.521
808.000	477.469	80.011	19.995	100.273	19.700	33.335	0.513
816.000	481.599	80.008	19.996	100.207	19.771	28.709	0.535
824.000	485.703	80.007	19.995	100.208	19.820	25.551	0.543
832.000	489.824	80.007	19.996	100.217	19.884	21.372	0.498
840.001	493.973	80.010	19.996	100.205	19.939	17.805	0.539
848.000	498.073	80.006	19.996	100.212	19.982	15.049	0.504
856.000	502.204	80.011	19.995	100.188	20.027	12.060	0.561
864.000	506.202	80.010	19.996	100.189	20.057	10.140	0.541
872.000	510.223	80.006	19.995	100.186	20.078	8.758	0.504
880.000	514.268	80.011	19.996	100.196	20.099	7.391	0.497
888.000	518.359	80.008	19.996	100.184	20.117	6.219	0.518
896.000	522.384	80.001	19.996	100.183	20.129	5.473	0.503
904.000	526.437	80.009	19.996	100.193	20.145	4.443	0.517
912.000	530.457	80.006	19.995	100.182	20.149	4.161	0.499
920.000	534.562	80.006	19.997	100.187	20.162	3.340	0.517
928.000	538.618	80.007	19.996	100.181	20.176	2.403	0.465
936.000	542.728	80.011	19.995	100.183	20.177	2.325	0.509
944.000	546.769	80.008	19.995	100.182	20.189	1.571	0.504
952.000	550.833	80.007	19.995	100.191	20.191	1.429	0.484
960.000	554.924	80.011	19.994	100.186	20.196	1.091	0.520
968.000	558.986	80.008	19.995	100.180	20.198	0.992	0.496
976.000	563.039	80.008	19.996	100.181	20.204	0.579	0.506
984.000	567.081	80.008	19.996	100.182	20.206	0.430	0.508
992.000	571.141	80.005	19.995	100.193	20.207	0.377	0.530
1000.000	575.235	80.007	19.997	100.189	20.214	-0.051	0.508
1008.000	579.257	80.007	19.996	100.184	20.214	-0.060	0.527
1016.000	583.293	80.006	19.995	100.185	20.222	-0.568	0.510
1024.000	587.314	80.007	19.994	100.185	20.221	-0.506	0.485
1032.000	591.373	80.008	19.996	100.187	20.222	-0.586	0.503
1040.000	595.461	80.011	19.995	100.187	20.224	-0.719	0.534
1048.000	599.539	80.009	19.995	100.187	20.228	-0.981	0.494
1056.000	603.580	80.009	19.995	100.194	20.228	-0.958	0.478
1064.000	607.753	80.007	19.996	100.188	20.229	-1.032	0.539
1072.000	611.737	80.006	19.995	100.180	20.226	-0.830	0.481
1080.000	615.865	80.007	19.995	100.179	20.226	-0.827	0.517
1088.000	619.893	80.006	19.995	100.180	20.231	-1.183	0.506
1096.000	623.956	80.007	19.997	100.181	20.229	-1.034	0.509
1104.001	628.021	80.009	19.995	100.177	20.227	-0.940	0.482
1112.000	632.147	80.008	19.995	100.182	20.228	-0.995	0.517
1120.000	636.199	80.010	19.996	100.178	20.232	-1.202	0.507
1128.000	640.243	80.010	19.995	100.176	20.233	-1.289	0.477
1136.001	644.303	80.006	19.995	100.181	20.229	-1.018	0.509
1144.001	648.293	80.008	19.994	100.179	20.229	-1.043	0.488
1152.000	652.273	80.010	19.995	100.187	20.231	-1.174	0.486
1160.000	656.299	80.006	19.995	100.181	20.231	-1.167	0.496
1168.000	660.325	80.007	19.996	100.176	20.234	-1.385	0.495
1176.001	664.390	80.006	19.996	100.185	20.234	-1.335	0.480
1184.000	668.490	80.008	19.995	100.175	20.236	-1.514	0.485
1192.000	672.607	80.007	19.997	100.175	20.235	-1.434	0.472
1200.001	676.654	80.008	19.997	100.177	20.236	-1.471	0.520
1208.001	680.676	80.009	19.995	100.177	20.238	-1.620	0.500
1216.000	684.736	80.009	19.995	100.178	20.240	-1.726	0.464
1224.000	688.678	80.007	19.996	100.183	20.240	-1.772	0.504
1232.000	692.716	80.008	19.995	100.179	20.238	-1.643	0.498
1240.000	696.782	80.008	19.994	100.175	20.235	-1.406	0.538
1248.000	700.813	80.007	19.996	100.177	20.235	-1.406	0.528
1256.000	704.852	80.009	19.996	100.176	20.238	-1.629	0.512
1264.000	708.945	80.008	19.996	100.176	20.236	-1.498	0.530
1272.000	713.032	80.007	19.996	100.178	20.238	-1.648	0.549
1280.000	717.073	80.009	19.995	100.177	20.238	-1.592	0.512
1288.000	721.027	80.008	19.996	100.177	20.237	-1.540	0.502
1296.001	725.057	80.009	19.996	100.182	20.238	-1.654	0.502
1304.000	729.045	80.008	19.996	100.177	20.241	-1.818	0.487
1312.000	733.064	80.008	19.996	100.178	20.241	-1.834	0.525
1320.000	737.042	80.007	19.996	100.177	20.239	-1.702	0.466
1328.001	741.058	80.008	19.996	100.177	20.235	-1.420	0.481
1333.000	743.568	80.008	19.996	100.177	20.234	-1.342	0.474