Folder: fsri_materials_database/01_Data/Carpet_Polyolefin_LowPile/Cone

Note: 01_Data/README.md
# Materials and Products Database
## 01_Data

Raw data generated from each apparatus are included here in plain-text format. The data is organized first by material, next by the short name of test apparatus used, and where applicable additional filtering by test settings.

### material.json

Each material directory contains a json file of the same name as the material. This file links the data stored in the repository as well as data and graphs produced by the accompanying scripts (__02_Scripts__) to the respective landing page for the material on the front-end website.

File: Polyolefin_Carpet_LowPile_Cone_HF25Scan_220406_R3.csv
Names,Time,Stack TC,Smoke TC,Exh Press,Smoke Comp,Smoke Meas,CO Meter,CO2 Meter,O2 Meter,Sample Mass,Ext Coeff,Start Test,Flame Verif
Chan Gain,,500,500,1,1,1,1,1,1,1,1,1.0,1.0
Offset,,0,0,0.132524,0,0,0,0,0,0,0,0.0,0.0
Gain,,1,1,25.011,13.2301,13.3727,1,1,1,1.0009,1.0066,1.0,1.0
Units,sec,C,C,Pa,%,%,%,%,%,g,/m,,
Baseline,,19.0079,19.5015,161.895,98.2814,95.5032,0.000813716,0.0664175,21.006,-833.808,0.253251,,
13,3,18.448,18.9781,165.963,97.8654,95.0689,0.000614,0.0761838,20.9941,195.955,0.255986,0.0,0.0
26,6.25,18.3565,18.9565,157.698,97.8698,94.7134,0.000478243,0.0760179,20.9945,195.945,0.289463,0.0,0.0
39,9.5,19.0214,19.0715,162.46,97.8839,94.7003,0.000724624,0.0739383,20.9967,195.945,0.291955,0.0,0.0
52,12.75,18.6222,19.3147,161.413,97.8734,94.8379,0.000947386,0.070431,20.9988,195.925,0.278195,0.0,0.0
65,16,18.6147,19.2465,160.211,97.8912,95.2888,0.000908565,0.0683151,21.0019,195.925,0.237911,0.0,0.0
78,19.25,18.3368,19.321,161.061,97.8908,94.9154,0.000782496,0.0671113,21.0044,195.905,0.272544,0.0,0.0
91,22.5,18.179,19.1983,162.543,97.8989,94.8101,0.000766962,0.067091,21.003,195.895,0.283073,0.0,0.0
104,25.75,18.8206,19.2139,162.765,97.8843,94.1319,0.000883529,0.0702997,20.9976,195.905,0.345157,0.0,0.0
117,29,18.8472,19.3149,159.522,97.8884,94.1616,0.00101809,0.0744879,20.9922,195.905,0.342727,0.0,0.0
130,32.25,18.7736,19.5085,161.356,97.8771,94.0245,0.00105132,0.0759193,20.9906,195.885,0.354576,0.0,0.0
143,35.5,18.9962,19.5413,161.993,97.8734,94.1412,0.0013161,0.0732235,20.991,195.855,0.343293,0.0,0.0
156,38.75,18.7023,19.1443,162.107,97.8734,94.3775,0.00171285,0.0861888,20.9682,195.925,0.321158,0.0,1.0
169,42,19.0215,19.0474,154.706,97.8755,92.4407,0.0020083,0.133758,20.9063,195.725,0.504434,0.0,1.0
182,45.25,19.8422,19.8816,153.477,97.8686,87.0798,0.00298003,0.190683,20.8073,195.645,1.03132,0.0,1.0
195,48.5,20.443,20.9872,149.856,97.8617,81.3039,0.00458871,0.245716,20.7141,195.505,1.6367,0.0,0.0
208,51.75,22.0855,22.8907,141.243,97.8605,75.819,0.00629995,0.302211,20.6175,195.345,2.25331,0.0,0.0
221,55,24.1187,24.3514,145.163,97.8593,74.0213,0.00762952,0.351673,20.5335,195.165,2.46508,0.0,0.0
234,58.25,26.2804,26.6152,136.6,97.8436,72.7721,0.00887364,0.392138,20.4685,194.984,2.61394,0.0,0.0
247,61.5,28.2197,29.1512,143.003,97.8403,72.5359,0.0099663,0.429424,20.4013,194.734,2.64237,0.0,0.0
260,64.75,30.3866,31.5788,136.416,97.8444,71.7511,0.010659,0.459225,20.3612,194.514,2.73879,0.0,0.0
273,68,32.5712,34.1757,138.497,97.829,71.4564,0.0110888,0.489977,20.3042,194.264,2.77374,0.0,0.0
286,71.25,35.1342,37.1277,137.07,97.8153,72.8672,0.0116474,0.513954,20.265,193.983,2.59986,0.0,0.0
299,74.5,37.5096,39.7043,138.852,97.8048,70.6423,0.0120804,0.531389,20.2324,193.753,2.87273,0.0,0.0
312,77.75,39.4962,41.9429,132.738,97.8004,71.7241,0.0121305,0.545111,20.2089,193.503,2.73813,0.0,0.0
325,81,41.2479,44.2097,141.386,97.7927,72.633,0.0116713,0.550365,20.1986,193.253,2.62625,0.0,0.0
338,84.25,43.7082,46.883,128.192,97.7826,72.1947,0.0114336,0.551433,20.1973,192.983,2.67879,0.0,0.0
351,87.5,45.5335,48.9823,130.579,97.7882,76.1431,0.0114523,0.54354,20.2088,192.742,2.20913,0.0,0.0
364,90.75,46.9437,50.3625,134.423,97.7794,74.0026,0.0113218,0.535773,20.2249,192.492,2.4601,0.0,0.0
377,94,48.6527,52.9929,141.659,97.7713,76.2222,0.0110777,0.529607,20.2358,192.252,2.19842,0.0,0.0
390,97.25,50.2517,54.1056,132.986,97.7632,76.8442,0.0106033,0.518549,20.2571,191.982,2.12594,0.0,0.0
403,100.5,51.2041,55.8118,135.748,97.7458,77.4257,0.0100703,0.500224,20.2888,191.772,2.0578,0.0,0.0
416,103.75,51.4715,56.0489,136.052,97.7236,76.8952,0.00950904,0.481647,20.321,191.621,2.1165,0.0,0.0
429,107,52.7471,57.473,139.645,97.7043,75.1881,0.00903456,0.456886,20.3611,191.421,2.31298,0.0,0.0
442,110.25,52.5686,57.5524,142.539,97.7115,81.0909,0.00852348,0.431259,20.3971,191.191,1.6463,0.0,0.0
455,113.5,52.3114,57.6303,148.435,97.6905,79.0675,0.00809204,0.404609,20.4487,191.051,1.86752,0.0,0.0
468,116.75,52.9043,57.7844,144.151,97.6667,82.6495,0.00750371,0.366932,20.5202,190.911,1.47416,0.0,0.0
481,120,52.4418,57.2463,149.726,97.6586,83.0535,0.00671526,0.330856,20.5797,190.791,1.43037,0.0,0.0
494,123.25,51.8916,56.8168,154.178,97.6429,81.9071,0.00591196,0.296724,20.6438,190.661,1.55167,0.0,0.0
507,126.5,50.8588,55.7661,153.435,97.6195,84.7022,0.00493184,0.26281,20.6933,190.55,1.25326,0.0,0.0
520,129.75,49.4639,54.6687,155.248,97.6219,86.3599,0.00392841,0.235257,20.7464,190.48,1.08234,0.0,0.0
533,133,48.4945,53.5268,152.962,97.6082,87.874,0.00322168,0.211097,20.7806,190.39,0.927634,0.0,0.0
546,136.25,47.5996,52.6556,154.728,97.5961,90.6193,0.00271331,0.191152,20.8144,190.34,0.654904,0.0,0.0
559,139.5,46.5792,51.1262,153.238,97.5775,90.9197,0.00239033,0.171532,20.8473,190.29,0.624005,0.0,0.0
572,142.75,45.2675,50.0401,159.074,97.5573,93.1067,0.0020301,0.154458,20.8763,190.25,0.412296,0.0,0.0
585,146,43.7602,48.4611,158.191,97.5311,93.4058,0.00197861,0.140019,20.8995,190.21,0.381597,0.0,0.0
598,149.25,42.7457,47.0962,153.97,97.5169,93.3932,0.00180518,0.12919,20.9163,190.17,0.381513,0.0,0.0
611,152.5,41.7134,46.1298,157.214,97.5238,93.8033,0.00169412,0.120271,20.9312,190.16,0.343443,0.0,0.0
624,155.75,40.7392,44.7363,157.555,97.4887,93.4413,0.00161416,0.112111,20.9417,190.13,0.374403,0.0,0.0
637,159,39.7056,43.8186,152.6,97.4802,93.5568,0.00129951,0.105761,20.9499,190.13,0.362728,0.0,0.0
650,162.25,38.4361,42.4218,156.535,97.4656,93.8641,0.0013057,0.100516,20.9578,190.11,0.332456,0.0,0.0
663,165.5,37.2851,40.8698,160.169,97.4697,93.7915,0.00150665,0.0950831,20.966,190.09,0.339658,0.0,0.0
676,168.75,36.5374,40.2107,158.952,97.4394,93.8788,0.00155611,0.0903039,20.9729,190.08,0.328696,0.0,0.0
689,172,35.5588,39.1206,159.4,97.4568,93.7323,0.00166728,0.0863894,20.9793,190.06,0.344059,0.0,0.0
702,175.25,34.9375,37.4972,162.7,97.4479,93.6821,0.00167669,0.0833574,20.9844,190.04,0.347985,0.0,0.0
715,178.5,34.0219,37.2422,159.398,97.4434,93.8001,0.00169246,0.0804921,20.9889,190.05,0.336473,0.0,0.0
728,181.75,32.9712,36.4978,160.96,97.4358,93.4724,0.00144885,0.0775857,20.9927,190.05,0.36668,0.0,0.0
741,185,31.5972,34.3536,160.819,97.4527,93.1128,0.00121847,0.0728242,20.9987,190.05,0.402246,0.0,0.0
754,188.25,30.4271,33.9576,159.17,97.462,94.2555,0.00115573,0.0699446,21.0035,190.03,0.295387,0.0,0.0
767,191.5,30.2533,33.3474,160.261,97.4689,94.3486,0.00104658,0.0684364,21.0057,190.01,0.287296,0.0,0.0
780,194.75,30.0751,32.1102,161.371,97.4883,93.7327,0.00100234,0.0673456,21.0063,190.02,0.346873,0.0,0.0
793,198,29.5016,31.3788,160.08,97.506,94.0564,0.000940453,0.0664613,21.0071,190.02,0.31805,0.0,0.0
806,201.25,28.5332,30.831,160.002,97.542,93.4748,0.000841397,0.0660086,21.0073,189.99,0.376066,0.0,0.0
819,204.5,27.962,30.665,162.692,97.5726,93.6123,0.000770139,0.0659353,21.0083,190.01,0.365862,0.0,0.0
832,207.75,27.4792,29.4998,159.886,97.5912,94.2384,0.000846995,0.0657183,21.0102,190,0.30869,0.0,0.0
845,211,26.8381,29.3846,155.122,97.6057,94.0106,0.000916405,0.0654079,21.011,189.99,0.331367,0.0,0.0
858,214.25,26.9203,28.6937,160.646,97.6191,93.363,0.000854702,0.0652006,21.0112,189.99,0.393614,0.0,0.0
871,217.5,26.3943,28.2017,165.049,97.6562,94.1767,0.000990269,0.065037,21.0111,189.98,0.320345,0.0,0.0
884,220.75,25.498,27.7541,156.667,97.6679,94.1098,0.00087292,0.0650231,21.0106,189.97,0.327681,0.0,0.0
897,224,25.3437,27.5987,159.945,97.6716,94.5118,0.000713555,0.0650565,21.0104,189.98,0.290375,0.0,0.0
910,227.25,25.4059,27.1214,160.977,97.7067,94.5983,0.00061366,0.0649187,21.011,189.97,0.28547,0.0,0.0
923,230.5,25.31,26.5783,162.113,97.7196,94.7407,0.000674748,0.0647998,21.0134,190.01,0.273353,0.0,0.0
936,233.75,24.8349,26.3842,158.841,97.7224,94.4102,0.000728881,0.0648092,21.0127,189.97,0.304471,0.0,0.0
949,237,24.6085,25.9923,158.158,97.7628,94.7616,0.00079436,0.064741,21.0123,189.99,0.275316,0.0,0.0
962,240.25,24.0412,25.7636,165.774,97.7681,94.5073,0.000888816,0.06479,21.0121,189.97,0.299512,0.0,0.0
975,243.5,23.9788,25.1506,159.787,97.783,94.9236,0.000961992,0.0650994,21.0121,189.96,0.262056,0.0,0.0
988,246.75,23.5172,24.617,159.487,97.8088,94.9105,0.000974588,0.0656992,21.0121,189.96,0.265604,0.0,0.0
1001,250,23.267,24.9332,162.821,97.8399,94.5069,0.00107563,0.0660493,21.0117,189.96,0.306039,0.0,0.0
1014,253.25,22.8895,24.7329,164.768,97.8855,94.7379,0.000876667,0.0659311,21.0114,189.96,0.288601,0.0,0.0
1027,256.5,22.5441,24.1556,160.274,97.9009,94.42,0.000833477,0.0653278,21.0113,189.95,0.319665,0.0,0.0
1040,259.75,22.8031,24.1724,155.858,97.9457,94.0355,0.000788091,0.0648041,21.0113,189.95,0.35973,0.0,0.0
1053,263,22.3501,23.5766,159.876,97.9691,94.1163,0.000821851,0.0646189,21.0113,189.94,0.354257,0.0,0.0
1066,266.25,22.6245,23.4286,161.023,97.9946,94.2775,0.000994042,0.0645363,21.0113,189.91,0.341439,0.0,0.0
1079,269.5,22.2937,23.4915,162.584,98.0273,95.2027,0.00091454,0.064433,21.0113,189.93,0.258159,0.0,0.0
1092,272.75,22.1821,23.1487,162.033,98.0648,94.6722,0.000820668,0.0648561,21.0115,189.91,0.310884,0.0,0.0
1105,276,22.1524,22.865,162.412,98.0907,94.7489,0.00101698,0.0659203,21.0091,189.92,0.306057,0.0,0.0
1118,279.25,21.89,23.0943,157.281,98.1201,95.1272,0.0010061,0.0668582,21.0084,189.92,0.273524,0.0,0.0
1131,282.5,21.8836,22.7915,164.609,98.1452,95.259,0.000917031,0.0673988,21.0086,189.91,0.263549,0.0,0.0
1144,285.75,21.5246,22.7353,160.149,98.171,95.146,0.000787189,0.0669498,21.0087,189.9,0.276359,0.0,0.0
1157,289,21.5364,22.7184,164.585,98.2037,94.7579,0.000591489,0.0664931,21.0087,189.91,0.31539,0.0,0.0
1170,292.25,21.432,22.9,162.072,98.2308,94.9134,,0.0661599,,189.88,0.303345,0.0,0.0
1183,295.5,21.6292,22.5024,158.814,98.2558,94.7432,,,,189.9,0.321442,0.0,0.0
1196,298.75,21.8326,22.0249,150.7,98.303,94.815,,,,189.9,0.318994,0.0,0.0
1207,301.5,20.9882,21.9947,159.027,98.339,95.4357,,,,189.88,0.264604,0.0,0.0

File: Polyolefin_Carpet_LowPile_Cone_HF50Scalar_220411_R2.csv
LABORATORY,FSRI
TEST IDENT,OlefinCarpet_HF50_2
OPERATOR,Dow
MATERIAL,Polyolefin carpet - low pile
ORIENTATION,Horizontal
HEAT FLUX,50
SURF AREA,0.00884
C FACTOR,0.0396972
SPEC HOLDER DIFF,-566
SPECIMEN MASS,12.66
SCAN TIME,0.25
O2 DELAY TIME,11
CO DELAY TIME,11
CO2 DELAY TIME,8
FLOW FACTOR,1
SCAN COUNT,1625
TIME TO IGN,11.25
END OF TEST SCAN,1145
END OF TEST TIME,286.25
TEST STATUS,1
PRE TEST CMT,Dimensions: 100.69 x 95.58 x 6.02 mm; with frame; with calcium silicate substrate
POST TEST CMT,After ignition the sample shriveled causing one corner to release from overlap with retainer frame. Total burning area was subsequentally less than the area of the frame. See test pictures.

File: Polyolefin_Carpet_LowPile_Cone_HF50Scalar_220411_R3.csv
LABORATORY,FSRI
TEST IDENT,OlefinCarpet_HF50_3
OPERATOR,Dow
MATERIAL,Polyolefin carpet - low pile
ORIENTATION,Horizontal
HEAT FLUX,50
SURF AREA,0.00884
C FACTOR,0.0396972
SPEC HOLDER DIFF,-566
SPECIMEN MASS,13.54
SCAN TIME,0.25
O2 DELAY TIME,11
CO DELAY TIME,11
CO2 DELAY TIME,8
FLOW FACTOR,1
SCAN COUNT,985
TIME TO IGN,10.5
END OF TEST SCAN,505
END OF TEST TIME,126.25
TEST STATUS,1
PRE TEST CMT,Dimensions: 100.01 x 98.87 x 5.61 mm; with frame; with calcium silicate substrate

File: Polyolefin_Carpet_LowPile_Cone_HF50Scan_220411_R1.csv
Names,Time,Stack TC,Smoke TC,Exh Press,Smoke Comp,Smoke Meas,CO Meter,CO2 Meter,O2 Meter,Sample Mass,Ext Coeff,Start Test,Flame Verif
Chan Gain,,500,500,1,1,1,1,1,1,1,1,1.0,1.0
Offset,,0,0,0.133936,0,0,0,0,0,0,0,0.0,0.0
Gain,,1,1,25.011,13.0656,13.5076,1,1,1,1.00089,1.01037,1.0,1.0
Units,sec,C,C,Pa,%,%,%,%,%,g,/m,,
Baseline,,29.106,30.2865,149.019,98.0413,94.8889,0.00115553,0.0536855,21.0035,-834.922,0.289718,,
21,5,28.0271,28.9827,149.559,98.0969,94.506,0.000807695,0.0561774,20.9999,199.258,0.330524,0.0,0.0
42,10.25,28.0739,29.2417,146.544,98.0938,92.6852,0.00144745,0.0611295,20.9859,199.198,0.502657,0.0,0.0
63,15.5,29.188,29.7339,134.857,98.1029,81.5195,0.00432897,0.179902,20.7753,199.008,1.64119,0.0,1.0
84,20.75,31.3481,32.359,125.697,98.1109,70.9304,0.0102436,0.387463,20.4281,198.627,2.87513,0.0,0.0
105,26,37.2801,38.4108,114.105,98.1169,62.3744,0.0167688,0.595043,20.0765,198.037,4.01494,0.0,0.0
126,31.25,44.697,46.1035,104.577,98.1133,59.04,0.0230225,0.844064,19.6462,197.356,4.50155,0.0,0.0
147,36.5,54.8351,57.4252,106.711,98.1296,59.1282,0.0267134,1.04478,19.3456,196.545,4.4898,0.0,0.0
168,41.75,64.6585,69.0178,102.134,98.1384,63.2067,0.0255953,1.08824,19.2851,195.775,3.89941,0.0,0.0
189,47,72.4416,77.8704,107.171,98.1368,64.3914,0.0221576,0.986441,19.4464,195.054,3.73468,0.0,0.0
210,52.25,77.6475,83.8056,124.273,98.1528,72.954,0.0172803,0.792153,19.8055,194.554,2.6296,0.0,0.0
231,57.5,78.3795,85.0626,129.722,98.1747,77.6376,0.0130238,0.587932,20.1316,194.203,2.0801,0.0,0.0
252,62.75,76.8903,84.0461,138.302,98.1823,83.2137,0.00908559,0.405603,20.4612,193.883,1.46605,0.0,0.0
273,68,74.146,80.8355,141.221,98.2086,88.1933,0.0054677,0.288403,20.6517,193.713,0.953321,0.0,0.0
294,73.25,70.6709,77.9577,146.935,98.2261,91.5813,0.00371331,0.213678,20.7802,193.573,0.620804,0.0,0.0
315,78.5,67.2595,73.6554,144.883,98.2321,93.1655,0.00288379,0.168422,20.8492,193.463,0.469345,0.0,0.0
336,83.75,64.0883,70.3755,144.395,98.2604,93.5183,0.00187536,0.140956,20.8844,193.423,0.438394,0.0,0.0
357,89,61.1656,67.3027,142.982,98.2879,94.3333,0.0015737,0.123723,20.9081,193.372,0.363975,0.0,0.0
378,94.25,57.2051,64.1842,145.877,98.3039,94.5621,0.00194142,0.111667,20.9253,193.302,0.343945,0.0,0.0
399,99.5,56.03,61.8863,146.042,98.3318,95.0658,0.0017216,0.103001,20.9362,193.262,0.299374,0.0,0.0
420,104.75,52.9169,58.8696,143.681,98.4008,94.2282,0.00160191,0.0965995,20.9461,193.222,0.384026,0.0,0.0
441,110,51.1267,56.8403,146.507,98.4299,94.6548,0.00154186,0.0917416,20.9527,193.172,0.346609,0.0,0.0
462,115.25,49.5297,54.9794,146.305,98.4542,95.3997,0.00160236,0.0869168,20.9588,193.142,0.279325,0.0,0.0
483,120.5,47.6016,52.758,146.259,98.5076,95.027,0.00170955,0.083515,20.9632,193.122,0.318822,0.0,0.0
504,125.75,46.2783,50.9267,148.288,98.5459,94.8646,0.00180622,0.0803715,20.9671,193.092,0.337426,0.0,0.0
525,131,44.9037,49.6497,145.14,98.5734,94.7624,0.00186226,0.0775448,20.972,193.062,0.349456,0.0,0.0
546,136.25,43.7393,48.6176,145.951,98.6296,94.7167,0.00184973,0.0754233,20.9749,193.042,0.358789,0.0,0.0
567,141.5,42.5657,46.9348,142.679,98.6392,94.7929,0.00195529,0.0739544,20.977,193.022,0.352516,0.0,0.0
588,146.75,41.8101,45.5563,147.694,98.6627,94.4743,0.00200862,0.072237,20.9795,193.002,0.384473,0.0,0.0
609,152,40.3346,44.1376,148.135,98.7066,95.0596,0.00167793,0.0703742,20.9785,192.972,0.333668,0.0,0.0
630,157.25,39.847,43.3184,147.723,98.7218,94.7933,0.00151161,0.0692273,20.9806,192.952,0.359892,0.0,0.0
651,162.5,39.1645,42.7497,147.148,98.7385,95.0415,0.00169141,0.0679279,20.9826,192.922,0.338223,0.0,0.0
672,167.75,38.3995,42.2483,146.966,98.7576,94.882,0.00185671,0.0666799,20.9844,192.922,0.354829,0.0,0.0
693,173,37.4819,40.7446,144.387,98.7756,95.504,0.00197592,0.0657756,20.9884,192.892,0.298525,0.0,0.0
714,178.25,37.6678,40.7335,145.135,98.7612,95.6557,0.00187595,0.0654396,20.9902,192.862,0.28317,0.0,0.0
735,183.5,37.4107,39.8416,143.914,98.7652,95.0951,0.00199388,0.0650619,20.9904,192.832,0.335625,0.0,0.0
756,188.75,37.3116,39.1232,145.642,98.7644,94.4718,0.00158801,0.064296,20.9917,192.812,0.393834,0.0,0.0
777,194,36.6585,39.3731,144.752,98.7413,94.3436,0.00146601,0.0635231,20.9926,192.822,0.403794,0.0,0.0
798,199.25,36.6968,38.8957,148.599,98.7381,95.1829,0.0012583,0.0630212,20.9927,192.772,0.325012,0.0,0.0
819,204.5,36.6929,38.0225,147.776,98.7265,95.1359,0.0013971,0.0627541,20.9927,192.742,0.328351,0.0,0.0
840,209.75,36.0673,37.8883,149.558,98.6982,95.0303,0.00123355,0.0623218,20.9935,192.722,0.335645,0.0,0.0
861,215,35.3314,37.9786,146.612,98.6843,95.1334,0.00142103,0.0621625,20.9923,192.692,0.324786,0.0,0.0
882,220.25,36.0058,37.2557,148.94,98.6707,94.5963,0.00139192,0.0620437,20.9948,192.692,0.373749,0.0,0.0
903,225.5,35.3213,37.272,148.285,98.634,94.7566,0.00146495,0.0619968,20.9966,192.692,0.355443,0.0,0.0
924,230.75,34.7571,37.0343,144.597,98.6097,95.0254,0.00109492,0.0618453,20.996,192.662,0.328154,0.0,0.0
945,236,35.9317,36.6591,148.248,98.5914,94.4203,0.000952909,0.0614756,20.9953,192.632,0.383127,0.0,0.0
966,241.25,35.0031,36.4271,144.987,98.5575,94.52,0.00123885,0.0614122,20.9951,192.612,0.370721,0.0,0.0
987,246.5,34.8794,36.2395,145.788,98.5367,94.3176,0.00115203,0.0616168,20.9956,192.602,0.387855,0.0,0.0
1008,251.75,34.8144,36.4344,147.264,98.5268,94.7884,0.00107451,0.0618312,20.9955,192.572,0.342832,0.0,0.0
1029,257,35.1513,35.9586,143.663,98.4654,93.7953,0.00100504,0.0621802,20.9934,192.542,0.430647,0.0,0.0
1050,262.25,35.0449,36.0644,144.924,98.4004,94.2006,0.00095327,0.0624261,20.9932,192.532,0.386588,0.0,0.0
1071,267.5,34.2237,35.5258,148.764,98.3713,94.4124,0.000818054,0.0623388,20.9942,192.502,0.364054,0.0,0.0
1092,272.75,34.2518,36.4612,146.394,98.2792,94.5019,0.00101832,0.0622377,20.9959,192.502,0.347358,0.0,0.0
1113,278,34.7452,35.6751,146.462,98.1815,94.7026,0.00118377,0.062194,20.9954,192.472,0.319736,0.0,0.0
1134,283.25,34.1007,35.4559,148.126,98.1085,94.4252,0.00123157,0.0623417,20.9942,192.462,0.339148,0.0,0.0
1155,288.5,34.4575,35.57,145.599,98.0064,94.4875,0.00132542,0.0626305,20.9938,192.432,0.324082,0.0,0.0
1176,293.75,34.7086,35.712,147.657,97.8828,94.006,0.00119437,0.0624929,20.9922,192.382,0.358175,0.0,0.0
1197,299,34.0582,35.0887,144.967,97.7855,93.5938,0.00122924,0.0622634,20.9939,192.362,0.388311,0.0,0.0
1218,304.25,34.1349,35.9073,147.85,97.642,93.2562,0.00109869,0.0624103,20.9939,192.352,0.407319,0.0,0.0
1239,309.5,34.5014,35.3061,148.563,97.4929,93.7636,0.0011973,0.0626013,20.9921,192.342,0.345676,0.0,0.0
1260,314.75,34.2503,35.1941,147.656,97.3517,94.0039,0.00107912,0.0626439,20.992,192.312,0.310149,0.0,0.0
1281,320,34.4011,35.7186,145.063,97.2026,93.8258,0.00111491,0.0621963,20.9916,192.282,0.313368,0.0,0.0
1302,325.25,34.4692,35.549,145.532,97.0666,94.0204,0.00118335,0.062069,20.9912,192.272,0.282601,0.0,0.0
1323,330.5,34.5478,35.617,145.094,96.9626,93.5752,0.000985506,0.0617193,20.9932,192.242,0.31516,0.0,0.0
1344,335.75,34.2403,35.1602,150.236,96.8728,92.9227,0.00124924,0.0614276,20.9942,192.211,0.368977,0.0,0.0
1365,341,33.9679,35.2558,145.888,96.8071,92.717,0.00100928,0.0610886,20.9943,192.191,0.382598,0.0,0.0
1386,346.25,34.2845,35.3688,145.877,96.7465,93.1024,0.00106232,0.0609141,20.9943,192.181,0.34028,0.0,0.0
1407,351.5,34.2391,35.3654,145.971,96.7086,93.0909,0.00118146,0.0603517,20.9943,192.171,0.337909,0.0,0.0
1428,356.75,34.1631,35.3434,147.366,96.6898,93.2867,0.00129049,0.0602046,20.995,192.141,0.317568,0.0,0.0
1449,362,34.2901,35.3417,148.585,96.697,92.8567,0.00131662,0.0597606,20.9973,192.111,0.359169,0.0,0.0
1470,367.25,34.3055,35.0685,147.137,96.7146,93.1923,0.00109574,0.0592736,20.996,192.091,0.328807,0.0,0.0
1491,372.5,33.3135,34.6884,147.406,96.7229,93.2562,0.00123268,0.0590515,20.9968,192.071,0.3235,0.0,0.0
1512,377.75,33.6493,34.987,149.949,96.75,93.44,0.001389,0.0584228,21.0003,192.071,0.308528,0.0,0.0
1533,383,34.0063,35.0475,147.835,96.8186,93.3856,0.00129683,0.0578024,21.0008,192.051,0.319971,0.0,0.0
1554,388.25,33.5548,34.3509,144.48,96.8445,93.0966,0.00107337,0.0558868,21.0037,192.031,0.34981,0.0,0.0
1575,393.5,33.2337,34.6299,146.251,96.8748,93.4037,0.00111845,0.0550626,21.0053,192.021,0.323395,0.0,0.0
1596,398.75,33.2457,34.3128,141.044,96.9462,93.0525,0.00116321,0.0547036,21.0055,191.991,0.363311,0.0,0.0
1617,404,32.1806,33.3003,146.558,97.01,93.0233,0.00119756,0.0546635,21.0055,191.991,0.37193,0.0,0.0
1638,409.25,33.245,34.0726,146.169,97.0583,93.4087,0.000882586,0.0546259,21.0053,191.951,0.33969,0.0,0.0
1659,414.5,32.9422,34.5169,146.041,97.142,93.1997,0.00088467,0.0545519,21.0055,191.921,0.367186,0.0,0.0
1680,419.75,32.9697,34.5008,146.056,97.2114,93.6234,0.000806405,0.054424,21.0055,191.911,0.333307,0.0,0.0
1701,425,32.655,34.1027,146.318,97.274,93.4985,0.000892305,0.0544787,21.0055,191.891,0.350844,0.0,0.0
1722,430.25,33.1898,34.0326,145.39,97.3346,93.5282,0.000866045,0.0543605,21.006,191.871,0.353551,0.0,0.0
1743,435.5,32.3025,33.8728,147.389,97.394,94.0625,0.000685206,0.0543933,21.0061,191.911,0.308478,0.0,0.0
1764,440.75,32.4444,33.7907,144.695,97.4223,93.5773,0.00116626,0.0546179,21.0049,191.841,0.356887,0.0,0.0
1785,446,32.787,33.6434,147.013,97.5008,94.1123,0.00102272,0.0547733,21.004,191.841,0.313499,0.0,0.0
1806,451.25,32.9388,33.9537,147.054,97.5662,93.6424,0.00132663,0.0550266,21.0045,191.831,0.363807,0.0,0.0
1827,456.5,33.0315,33.9925,150.322,97.6109,94.3679,0.00130499,0.055119,21.0042,191.801,0.299461,0.0,0.0
1848,461.75,32.8886,33.8828,148.257,97.6779,94.06,0.000878026,0.0549136,21.0037,191.761,0.334508,0.0,0.0
1869,467,33.183,33.6336,145.311,97.7138,94.75,0.00113043,0.054876,21.0046,191.761,0.27298,0.0,0.0
1890,472.25,32.563,33.7956,148.108,97.7732,93.9458,0.00115503,0.0548787,21.0074,191.731,0.353916,0.0,0.0
1911,477.5,32.9583,33.641,144.569,97.8382,94.6058,0.00100337,0.0548326,21.0058,191.711,0.297763,0.0,0.0
1932,482.75,32.0716,33.2409,145.622,97.9135,94.309,0.000909808,0.0547742,21.005,191.691,0.332435,0.0,0.0
1953,488,33.0094,34.0827,147.328,97.9466,94.325,0.000972998,0.05467,21.0046,191.681,0.333919,0.0,0.0
1974,493.25,32.4006,34.0657,151.576,97.9881,94.4969,0.00119994,0.0544754,21.0041,191.671,0.321534,0.0,0.0
1995,498.5,32.5118,33.352,144.632,98.0347,94.196,,,,191.651,0.354021,0.0,0.0
2016,503.75,32.7908,34.192,147.174,98.0419,95.0184,,,,191.631,0.277628,0.0,0.0
2021,505,32.7071,33.6365,145.475,98.0483,94.9174,,,,191.621,0.28763,0.0,0.0

File: Polyolefin_Carpet_LowPile_Cone_HF75Scalar_220411_R2.csv
LABORATORY,FSRI
TEST IDENT,OlefinCarpet_HF75_2
OPERATOR,Dow
MATERIAL,Polyolefin carpet - low pile
ORIENTATION,Horizontal
HEAT FLUX,75
SURF AREA,0.00884
C FACTOR,0.0396972
SPEC HOLDER DIFF,-566
SPECIMEN MASS,14.04
SCAN TIME,0.25
O2 DELAY TIME,11
CO DELAY TIME,11
CO2 DELAY TIME,8
FLOW FACTOR,1
SCAN COUNT,1390
TIME TO IGN,6.5
END OF TEST SCAN,910
END OF TEST TIME,227.5
TEST STATUS,1
PRE TEST CMT,Dimensions: 101.97 x 100.06 x 5.88 mm; with frame; with calcium silicate substrate