Folder: fsri_materials_database/01_Data/HDPE/STA/N2/10K_min

Note: 01_Data/README.md
# Materials and Products Database
## 01_Data

Raw data generated from each apparatus are included here in plain-text format. The data is organized first by material, next by the short name of test apparatus used, and where applicable additional filtering by test settings.

### material.json

Each material directory contains a json file of the same name as the material. This file links the data stored in the repository as well as data and graphs produced by the accompanying scripts (__02_Scripts__) to the respective landing page for the material on the front-end website.

File: HDPE_STA_N2_10KData_2199_R1.csv
##Temp./Â°C,Time/min,DSC(subtr.2)/(mW/mg),Mass loss(subtr.2)/mg,Sensit./(uV/mW)
49.608,10.00917,0.02214633,-0.04004,1.03585
52.208,12.37374,0.11503,-0.04711106,1.03572
54.808,13.0768,0.1598,-0.04695499,1.03556
57.408,13.63655,0.19091,-0.04916063,1.03536
60.008,14.12539,0.21392,-0.04933206,1.03514
62.608,14.5675,0.2313,-0.05102354,1.03489
65.208,14.9767,0.24943,-0.05177443,1.03461
67.808,15.36108,0.2621,-0.05332622,1.0343
70.408,15.7266,0.27542,-0.0532788,1.03397
73.008,16.07496,0.28805,-0.05356126,1.0336
75.608,16.41018,0.29953,-0.05365353,1.03321
78.208,16.73528,0.31534,-0.05418061,1.03279
80.808,17.05037,0.32793,-0.05518101,1.03234
83.408,17.3573,0.33732,-0.05606555,1.03187
86.008,17.657,0.35252,-0.05487978,1.03136
88.608,17.9494,0.36033,-0.056397,1.03083
91.208,18.23627,0.37165,-0.0574383,1.03028
93.808,18.51823,0.38381,-0.05769154,1.02969
96.408,18.79485,0.39654,-0.057693,1.02908
99.008,19.06772,0.40787,-0.05861913,1.02844
101.608,19.33726,0.41971,-0.06026942,1.02778
104.208,19.60438,0.43179,-0.05902188,1.02709
106.808,19.86818,0.44972,-0.05902624,1.02638
109.408,20.1312,0.46595,-0.06031508,1.02563
112.008,20.39149,0.48616,-0.06021652,1.02487
114.608,20.65024,0.51134,-0.06211004,1.02408
117.208,20.90699,0.54565,-0.06213904,1.02326
119.808,21.16168,0.59019,-0.06211721,1.02242
122.408,21.41541,0.65815,-0.06220074,1.02155
125.008,21.66775,0.77398,-0.06285964,1.02066
127.608,21.91882,0.9908,-0.06549065,1.01974
130.208,22.1694,1.40089,-0.06405973,1.0188
132.808,22.42047,2.04752,-0.0640603,1.01784
135.408,22.67199,2.68256,-0.06384958,1.01685
138.008,22.92321,3.043,-0.06394802,1.01584
140.608,23.17011,2.75505,-0.06394778,1.01481
143.208,23.41,1.65692,-0.06440638,1.01375
145.808,23.6445,0.8471,-0.06539074,1.01267
148.408,23.87781,0.6092,-0.06593411,1.01157
151.008,24.11226,0.54176,-0.06739271,1.01045
153.608,24.34783,0.52265,-0.06604096,1.0093
156.208,24.58305,0.52257,-0.06614296,1.00813
158.808,24.81776,0.52145,-0.06570837,1.00694
161.408,25.05323,0.52516,-0.06604009,1.00573
164.008,25.28841,0.52766,-0.06603841,1.00449
166.608,25.5231,0.533,-0.06746999,1.00324
169.208,25.7589,0.53422,-0.06757518,1.00196
171.808,25.9929,0.53941,-0.06757996,1.00067
174.408,26.2264,0.5419,-0.06889022,0.99935
177.008,26.4616,0.54427,-0.06802629,0.99801
179.608,26.69572,0.55066,-0.06888275,0.99666
182.208,26.9289,0.55285,-0.07019919,0.99528
184.808,27.1609,0.55504,-0.07088824,0.99388
187.408,27.3945,0.55859,-0.07018657,0.99247
190.008,27.62697,0.56349,-0.07152994,0.99103
192.608,27.85922,0.56497,-0.07054107,0.98958
195.208,28.0909,0.56721,-0.07151877,0.98811
197.808,28.3228,0.57038,-0.07023054,0.98662
200.408,28.55433,0.57122,-0.07251752,0.98511
203.008,28.78619,0.57619,-0.07119,0.98358
205.608,29.01793,0.57661,-0.06988001,0.98204
208.208,29.24989,0.58439,-0.0712,0.98047
210.808,29.48157,0.58427,-0.07005893,0.97889
213.408,29.71353,0.5871,-0.0725754,0.9773
216.008,29.9458,0.58747,-0.0713015,0.97569
218.608,30.1778,0.58796,-0.07262455,0.97406
221.208,30.40987,0.59132,-0.07327995,0.97241
223.808,30.64217,0.5947,-0.0718625,0.97075
226.408,30.87446,0.59898,-0.07294355,0.96907
229.008,31.10653,0.60104,-0.07295851,0.96738
231.608,31.3391,0.60217,-0.07327998,0.96567
234.208,31.57173,0.60366,-0.07438665,0.96394
236.808,31.80433,0.60525,-0.07394254,0.96221
239.408,32.03695,0.60915,-0.07426677,0.96045
242.008,32.2697,0.60959,-0.07356818,0.95868
244.608,32.50309,0.61193,-0.07459996,0.9569
247.208,32.73574,0.61366,-0.07580134,0.95511
249.808,32.96864,0.61581,-0.07459822,0.9533
252.408,33.20151,0.61618,-0.07491998,0.95147
255.008,33.43475,0.6184,-0.07522591,0.94963
257.608,33.66746,0.61957,-0.07492,0.94778
260.208,33.9005,0.62008,-0.07624,0.94592
262.808,34.13328,0.62227,-0.07493001,0.94405
265.408,34.36629,0.6265,-0.07624003,0.94216
268.008,34.59939,0.62735,-0.0749218,0.94026
270.608,34.83293,0.62901,-0.07527457,0.93835
273.208,35.0668,0.62762,-0.07624,0.93642
275.808,35.30072,0.63026,-0.07591131,0.93449
278.408,35.53483,0.63316,-0.07605746,0.93254
281.008,35.76899,0.63536,-0.07788156,0.93059
283.608,36.00322,0.6382,-0.07723257,0.92862
286.208,36.23786,0.64063,-0.07723,0.92664
288.808,36.473,0.64233,-0.07568467,0.92465
291.408,36.7085,0.64563,-0.07689996,0.92265
294.008,36.944,0.64329,-0.07822025,0.92065
296.608,37.18007,0.64732,-0.0769,0.91863
299.208,37.41556,0.6461,-0.07821,0.9166
301.808,37.65182,0.64777,-0.07821053,0.91456
304.408,37.88858,0.64615,-0.07778003,0.91252
307.008,38.12523,0.64661,-0.07906981,0.91047
309.608,38.362,0.64479,-0.07775735,0.9084
312.208,38.59879,0.64505,-0.07777,0.90633
314.808,38.8358,0.64377,-0.08028772,0.90425
317.408,39.07315,0.64395,-0.0784296,0.90217
320.008,39.311,0.64488,-0.0791047,0.90007
322.608,39.5486,0.64558,-0.08073776,0.89797
325.208,39.78689,0.64855,-0.0804,0.89586
327.808,40.025,0.6467,-0.07779271,0.89375
330.408,40.26406,0.64942,-0.0792,0.89163
333.008,40.50258,0.65107,-0.07910306,0.8895
335.608,40.7418,0.65376,-0.08052233,0.88737
338.208,40.98087,0.65372,-0.08036011,0.88522
340.808,41.21935,0.65693,-0.08084433,0.88308
343.408,41.45796,0.65761,-0.07976971,0.88093
346.008,41.6976,0.66033,-0.08184,0.87877
348.608,41.9371,0.6621,-0.08215341,0.87661
351.208,42.17727,0.66616,-0.08150604,0.87444
353.808,42.4176,0.66622,-0.08149234,0.87227
356.408,42.65783,0.66987,-0.08359,0.87009
359.008,42.89882,0.66897,-0.08326013,0.86791
361.608,43.14,0.67556,-0.08326,0.86573
364.208,43.38152,0.67677,-0.08325955,0.86354
366.808,43.62303,0.67929,-0.08456839,0.86134
369.408,43.86485,0.68136,-0.08457,0.85915
372.008,44.10694,0.68791,-0.08556,0.85695
374.608,44.34944,0.6903,-0.08424889,0.85475
377.208,44.592,0.69343,-0.08293103,0.85254
379.808,44.83526,0.6961,-0.08566114,0.85033
382.408,45.0788,0.70189,-0.08820139,0.84812
385.008,45.32249,0.70465,-0.08817367,0.84591
387.608,45.56595,0.71149,-0.09186605,0.8437
390.208,45.81089,0.71636,-0.09193068,0.84148
392.808,46.0552,0.72279,-0.09226365,0.83926
395.408,46.2992,0.72795,-0.09226,0.83704
398.008,46.54354,0.73357,-0.093962,0.83482
400.608,46.7881,0.73824,-0.09489831,0.8326
403.208,47.03289,0.74426,-0.09729998,0.83038
405.808,47.27793,0.75162,-0.09994,0.82815
408.408,47.5227,0.76231,-0.10125,0.82593
411.008,47.76843,0.76955,-0.10454,0.82371
413.608,48.01401,0.77997,-0.10684,0.82148
416.208,48.25993,0.78773,-0.10948,0.81926
418.808,48.50602,0.81865,-0.11338,0.81703
421.408,48.7525,0.80561,-0.11834,0.81481
424.008,48.99868,0.80481,-0.12394,0.81258
426.608,49.2451,0.81658,-0.13313,0.81036
429.208,49.49129,0.82693,-0.14053,0.80814
431.808,49.73822,0.83771,-0.14839,0.80592
434.408,49.98512,0.84954,-0.16134,0.8037
437.008,50.2325,0.8683,-0.17302,0.80148
439.608,50.48003,0.88949,-0.18734,0.79927
442.208,50.72801,0.91464,-0.20369,0.79705
444.808,50.97678,0.9439,-0.22297,0.79484
447.408,51.22571,0.97806,-0.24706,0.79263
450.008,51.4746,1.01709,-0.27208,0.79042
452.608,51.72331,1.06992,-0.3045,0.78821
455.208,51.9724,1.12911,-0.34251,0.78601
457.808,52.22205,1.19947,-0.38887,0.78381
460.408,52.47116,1.28776,-0.44512,0.78161
463.008,52.72076,1.39136,-0.51616,0.77941
465.608,52.9702,1.51774,-0.6013,0.77722
468.208,53.22,1.66571,-0.71303,0.77503
470.808,53.47006,1.85128,-0.84933,0.77285
473.408,53.72002,2.03815,-1.02746,0.77067
476.008,53.96985,2.20673,-1.24366,0.76849
478.608,54.21969,2.33819,-1.50376,0.76632
481.208,54.4698,2.42192,-1.80263,0.76415
483.808,54.7195,2.48975,-2.15492,0.76198
486.408,54.97,2.48544,-2.55383,0.75982
489.008,55.22095,2.40081,-2.9804,0.75766
491.608,55.47274,2.205,-3.39861,0.75551
494.208,55.72518,1.87121,-3.78099,0.75336
496.808,55.97784,1.42388,-4.08989,0.75122
499.408,56.2314,0.9387,-4.2961,0.74908
502.008,56.4851,0.54123,-4.40893,0.74695
504.608,56.73806,0.28165,-4.45821,0.74482
507.208,56.9895,0.14608,-4.4741,0.7427
509.808,57.24253,0.08310942,-4.47765,0.74059
512.408,57.4947,0.06385004,-4.47904,0.73847
515.008,57.7475,0.03776224,-4.47769,0.73637
517.608,58.0001,0.04884841,-4.48036,0.73427
520.208,58.25325,0.0588063,-4.47881,0.73218
522.808,58.50655,0.06077459,-4.48003,0.73009
525.408,58.76014,0.06313973,-4.47904,0.72801
528.008,59.01355,0.06291248,-4.47997,0.72593
530.608,59.2676,0.0619709,-4.47904,0.72387
533.208,59.52171,0.06233812,-4.4797,0.7218
535.808,59.77613,0.06250277,-4.47969,0.71975
538.408,60.031,0.06436747,-4.47904,0.7177
541.008,60.2858,0.06534374,-4.47967,0.71566
543.608,60.54034,0.07038606,-4.48036,0.71362
546.208,60.7959,0.06877845,-4.48102,0.71159
548.808,61.05118,0.0708733,-4.48035,0.70957
551.408,61.3063,0.06756321,-4.48099,0.70756
554.008,61.5618,0.06761045,-4.47959,0.70555
556.608,61.81742,0.07141273,-4.47861,0.70355
559.208,62.0733,0.0691649,-4.47959,0.70156
561.808,62.32904,0.07351138,-4.47959,0.69958
564.408,62.58501,0.07320448,-4.4786,0.6976
567.008,62.841,0.07212972,-4.47992,0.69563
569.608,63.09712,0.0758772,-4.47842,0.69367
572.208,63.35375,0.07760171,-4.48027,0.69172
574.808,63.6102,0.0741759,-4.47959,0.68977
577.408,63.86685,0.0791891,-4.48091,0.68784
580.008,64.12351,0.07830125,-4.47959,0.68591
582.608,64.38041,0.07738855,-4.48094,0.68399
585.208,64.63721,0.07947356,-4.47958,0.68207
587.808,64.89412,0.07807098,-4.48869,0.68017
590.408,65.15164,0.07787694,-4.48178,0.67827
593.008,65.40996,0.07752301,-4.48047,0.67638
595.608,65.6686,0.07584325,-4.4818,0.6745
598.208,65.92693,0.0787455,-4.48277,0.67263
600.808,66.1853,0.07683176,-4.48014,0.67077
603.408,66.44373,0.07719278,-4.47422,0.66892
606.008,66.70177,0.07239244,-4.48024,0.66707
608.608,66.95991,0.07058322,-4.48035,0.66524
611.208,67.2186,0.07175745,-4.48233,0.66341
613.808,67.47743,0.07166734,-4.48364,0.66159
616.408,67.7362,0.07219367,-4.48233,0.65978
619.008,67.99646,0.07321499,-4.481,0.65798
621.608,68.2556,0.07241265,-4.48096,0.65619
624.208,68.5158,0.07391977,-4.48085,0.6544
626.808,68.77524,0.0711301,-4.4815,0.65263
629.408,69.03554,0.07551068,-4.48211,0.65086
632.008,69.29517,0.07695362,-4.48211,0.64911
634.608,69.55502,0.07403721,-4.48211,0.64736
637.208,69.815,0.07042773,-4.48079,0.64562
639.008,69.9948,0.07094992,-4.47948,0.64443

File: HDPE_STA_N2_10KData_2199_R2.csv
##Temp./Â°C,Time/min,DSC(subtr.2)/(mW/mg),Mass loss(subtr.2)/mg,Sensit./(uV/mW)
49.648,10.01,-0.002515,-0.03511,1.03585
52.248,12.37006,0.09326511,-0.03840135,1.03572
54.848,13.07125,0.1372,-0.04271128,1.03555
57.448,13.6292,0.16617,-0.04150428,1.03536
60.048,14.11679,0.18881,-0.04182149,1.03514
62.648,14.55986,0.20804,-0.04343451,1.03489
65.248,14.9701,0.22412,-0.04168417,1.03461
67.848,15.35426,0.23568,-0.04349306,1.0343
70.448,15.7189,0.24663,-0.04469833,1.03396
73.048,16.06781,0.25893,-0.04595514,1.0336
75.648,16.40316,0.26979,-0.04569406,1.03321
78.248,16.72825,0.28467,-0.04684575,1.03278
80.848,17.04335,0.29892,-0.04737588,1.03234
83.448,17.35,0.3082,-0.04738991,1.03186
86.048,17.64915,0.31937,-0.04870579,1.03136
88.648,17.94271,0.32961,-0.04957765,1.03083
91.248,18.2289,0.34112,-0.04708367,1.03027
93.848,18.51018,0.35443,-0.04839113,1.02968
96.448,18.7876,0.36297,-0.04773273,1.02907
99.048,19.0609,0.37846,-0.04903979,1.02843
101.648,19.33031,0.38749,-0.04982887,1.02777
104.248,19.59769,0.40216,-0.04946593,1.02708
106.848,19.86213,0.41783,-0.05068082,1.02636
109.448,20.12461,0.43671,-0.05244009,1.02562
112.048,20.38496,0.45397,-0.05252978,1.02486
114.648,20.64368,0.47971,-0.05101309,1.02406
117.248,20.9006,0.51776,-0.05150556,1.02325
119.848,21.15597,0.56816,-0.05255539,1.0224
122.448,21.41017,0.6455,-0.05386423,1.02154
125.048,21.66212,0.7808,-0.05384432,1.02065
127.648,21.91369,1.0371,-0.05389639,1.01973
130.248,22.16514,1.53379,-0.05271188,1.01879
132.848,22.41692,2.28976,-0.05394913,1.01783
135.448,22.66974,3.04283,-0.05409016,1.01684
138.048,22.9208,3.28671,-0.0517357,1.01583
140.648,23.16475,2.28437,-0.05442053,1.01479
143.248,23.40171,1.04744,-0.05495652,1.01374
145.848,23.63574,0.62862,-0.05660015,1.01266
148.448,23.87114,0.51502,-0.05528904,1.01155
151.048,24.1059,0.4876,-0.05660536,1.01043
153.648,24.34242,0.4807,-0.05671768,1.00928
156.248,24.5777,0.4802,-0.05770015,1.00811
158.848,24.81383,0.48112,-0.05804356,1.00692
161.448,25.04918,0.48498,-0.05672345,1.00571
164.048,25.28461,0.4907,-0.05540012,1.00447
166.648,25.51975,0.49469,-0.05803167,1.00322
169.248,25.7557,0.49884,-0.05899262,1.00194
171.848,25.99061,0.50191,-0.0577,1.00065
174.448,26.2255,0.50283,-0.05806516,0.99933
177.048,26.45975,0.50348,-0.05913101,0.99799
179.648,26.6939,0.5062,-0.05913021,0.99663
182.248,26.9272,0.50865,-0.0591332,0.99526
184.848,27.1603,0.51263,-0.05846929,0.99386
187.448,27.39258,0.51439,-0.05946,0.99244
190.048,27.6249,0.51897,-0.06067465,0.99101
192.648,27.85768,0.52502,-0.0593483,0.98956
195.248,28.0898,0.52379,-0.06097456,0.98808
197.848,28.3215,0.52633,-0.06066054,0.98659
200.448,28.55286,0.52958,-0.06066054,0.98508
203.048,28.7851,0.53279,-0.06206596,0.98356
205.648,29.0169,0.53724,-0.06079596,0.98201
208.248,29.24905,0.53957,-0.06077326,0.98045
210.848,29.48113,0.54181,-0.06280549,0.97887
213.448,29.71322,0.54519,-0.06297,0.97727
216.048,29.9454,0.54824,-0.06302928,0.97566
218.648,30.17737,0.54928,-0.06428004,0.97403
221.248,30.4098,0.55093,-0.06428001,0.97238
223.848,30.6421,0.55382,-0.06428,0.97072
226.448,30.8744,0.55798,-0.06428988,0.96904
229.048,31.10681,0.5596,-0.06494052,0.96735
231.648,31.3396,0.56202,-0.06362046,0.96564
234.248,31.5724,0.56469,-0.06496861,0.96392
236.848,31.80505,0.56776,-0.06457209,0.96218
239.448,32.0382,0.56935,-0.06526998,0.96042
242.048,32.27057,0.57306,-0.06659947,0.95866
244.648,32.50362,0.5744,-0.06641807,0.95687
247.248,32.73697,0.5749,-0.06659356,0.95508
249.848,32.97035,0.57754,-0.0662501,0.95327
252.448,33.20345,0.57972,-0.06555821,0.95144
255.048,33.43705,0.58066,-0.06789969,0.94961
257.648,33.67089,0.58439,-0.06710274,0.94776
260.248,33.90445,0.58898,-0.06761349,0.94589
262.848,34.13817,0.58875,-0.06712719,0.94402
265.448,34.37185,0.59477,-0.07009931,0.94213
268.048,34.60556,0.59593,-0.06785907,0.94023
270.648,34.83948,0.59695,-0.06942626,0.93832
273.248,35.07339,0.59949,-0.06844078,0.93639
275.848,35.3077,0.60021,-0.06992449,0.93446
278.448,35.54201,0.60325,-0.069274,0.93251
281.048,35.77691,0.60549,-0.07083629,0.93056
283.648,36.01212,0.60701,-0.07207,0.92859
286.248,36.24755,0.60819,-0.07122585,0.92661
288.848,36.48302,0.60895,-0.07238625,0.92462
291.448,36.71891,0.61274,-0.0727178,0.92262
294.048,36.95449,0.61191,-0.07376942,0.92062
296.648,37.19103,0.61211,-0.07400917,0.9186
299.248,37.42715,0.61567,-0.07240001,0.91657
301.848,37.66346,0.61665,-0.07305964,0.91453
304.448,37.89949,0.62005,-0.07565794,0.91249
307.048,38.13664,0.61962,-0.07189377,0.91043
309.648,38.3733,0.62241,-0.07473,0.90837
312.248,38.60999,0.61966,-0.07602,0.9063
314.848,38.8475,0.61629,-0.07731706,0.90422
317.448,39.08526,0.61635,-0.07602,0.90214
320.048,39.3233,0.61765,-0.0760238,0.90004
322.648,39.56106,0.61962,-0.07733,0.89794
325.248,39.79968,0.62206,-0.0760247,0.89583
327.848,40.03745,0.62048,-0.07602001,0.89372
330.448,40.27618,0.62249,-0.07734001,0.8916
333.048,40.5144,0.62834,-0.07863446,0.88947
335.648,40.7534,0.63024,-0.07734,0.88733
338.248,40.99256,0.63161,-0.07865961,0.88519
340.848,41.2318,0.63635,-0.07799996,0.88305
343.448,41.4717,0.63437,-0.0779951,0.88089
346.048,41.71141,0.63899,-0.07930685,0.87874
348.648,41.95063,0.64115,-0.07932018,0.87657
351.248,42.19117,0.6408,-0.07997001,0.87441
353.848,42.4306,0.64112,-0.07996966,0.87223
356.448,42.6719,0.64356,-0.08096,0.87006
359.048,42.91317,0.64543,-0.08096001,0.86788
361.648,43.1546,0.65137,-0.08135902,0.86569
364.248,43.3958,0.65533,-0.08194625,0.8635
366.848,43.6378,0.65918,-0.08222092,0.86131
369.448,43.87976,0.66259,-0.08261354,0.85911
372.048,44.12256,0.66387,-0.0826,0.85692
374.648,44.3653,0.66926,-0.08381482,0.85471
377.248,44.6081,0.66778,-0.08391801,0.85251
379.848,44.85091,0.67145,-0.08600014,0.8503
382.448,45.0946,0.6759,-0.08468003,0.84809
385.048,45.33805,0.67988,-0.08797997,0.84588
387.648,45.58153,0.68279,-0.08804577,0.84366
390.248,45.8256,0.68668,-0.08795496,0.84145
392.848,46.06942,0.69326,-0.08929,0.83923
395.448,46.3136,0.69886,-0.08928996,0.83701
398.048,46.55833,0.70175,-0.0919342,0.83479
400.648,46.8035,0.70838,-0.09209473,0.83257
403.248,47.04824,0.71555,-0.09191962,0.83034
405.848,47.29368,0.71948,-0.09471149,0.82812
408.448,47.5392,0.72813,-0.09555003,0.8259
411.048,47.78513,0.73512,-0.09752017,0.82367
413.648,48.0308,0.74377,-0.10017,0.82145
416.248,48.27691,0.75248,-0.10147,0.81922
418.848,48.52385,0.76484,-0.10315,0.817
421.448,48.77067,0.77619,-0.10707,0.81477
424.048,49.01736,0.78788,-0.10958,0.81255
426.648,49.2644,0.78912,-0.11233,0.81033
429.248,49.51141,0.7997,-0.11771,0.80811
431.848,49.75842,0.812,-0.12231,0.80589
434.448,50.00565,0.82896,-0.1275,0.80367
437.048,50.25343,0.89739,-0.13513,0.80145
439.648,50.50141,0.8695,-0.14548,0.79923
442.248,50.7494,0.88453,-0.15539,0.79702
444.848,50.9979,0.9139,-0.17101,0.7948
447.448,51.2454,0.94881,-0.18565,0.79259
450.048,51.4943,0.99493,-0.20791,0.79038
452.648,51.7429,1.04393,-0.2328,0.78818
455.248,51.9921,1.10613,-0.26357,0.78597
457.848,52.24158,1.18044,-0.29934,0.78377
460.448,52.4911,1.2718,-0.34753,0.78158
463.048,52.7402,1.37935,-0.40787,0.77938
465.648,52.98998,1.5096,-0.48295,0.77719
468.248,53.2392,1.65937,-0.57707,0.775
470.848,53.48964,1.83857,-0.6985,0.77282
473.448,53.7398,2.02804,-0.84741,0.77063
476.048,53.98976,2.25539,-1.04291,0.76846
478.648,54.24005,2.48058,-1.27537,0.76628
481.248,54.4904,2.71148,-1.55608,0.76411
483.848,54.7412,2.86557,-1.89199,0.76195
486.448,54.99136,2.97167,-2.27073,0.75979
489.048,55.2429,2.91353,-2.66877,0.75763
491.648,55.4941,2.66426,-3.06733,0.75548
494.248,55.7467,2.23424,-3.43949,0.75333
496.848,55.9998,1.6659,-3.74496,0.75119
499.448,56.25277,1.0689,-3.95843,0.74905
502.048,56.506,0.59226,-4.07354,0.74692
504.648,56.75819,0.29774,-4.12436,0.74479
507.248,57.00982,0.15142,-4.13878,0.74267
509.848,57.26183,0.08807587,-4.1429,0.74055
512.448,57.51365,0.06728177,-4.14186,0.73844
515.048,57.76602,0.04985986,-4.1445,0.73634
517.648,58.01866,0.06279425,-4.14397,0.73424
520.248,58.27166,0.06055875,-4.14449,0.73214
522.848,58.5253,0.06051734,-4.14318,0.73006
525.448,58.779,0.06002708,-4.14712,0.72798
528.048,59.03235,0.0578107,-4.14614,0.7259
530.648,59.2859,0.0551229,-4.1457,0.72383
533.248,59.5395,0.0565636,-4.1457,0.72177
535.848,59.7938,0.05906521,-4.14504,0.71972
538.448,60.04845,0.05812416,-4.14507,0.71767
541.048,60.30344,0.06274619,-4.14498,0.71563
543.648,60.5585,0.06537726,-4.14517,0.71359
546.248,60.81391,0.06399621,-4.14647,0.71156
548.848,61.06916,0.06200717,-4.14647,0.70954
551.448,61.32445,0.06061624,-4.14637,0.70753
554.048,61.5798,0.05986385,-4.14713,0.70552
556.648,61.83563,0.06628629,-4.14628,0.70352
559.248,62.09169,0.06523494,-4.1456,0.70153
561.848,62.34777,0.06533191,-4.14697,0.69955
564.448,62.6036,0.06007779,-4.1461,0.69757
567.048,62.85937,0.06102953,-4.14557,0.6956
569.648,63.11558,0.05784015,-4.14526,0.69364
572.248,63.37195,0.05489588,-4.14485,0.69169
574.848,63.62916,0.04897671,-4.14581,0.68974
577.448,63.88592,0.05045031,-4.14581,0.68781
580.048,64.14379,0.05519937,-4.14614,0.68588
582.648,64.40134,0.08187348,-4.14481,0.68396
585.248,64.65873,0.08066962,-4.14383,0.68204
587.848,64.91597,0.08259583,-4.14516,0.68014
590.448,65.17295,0.08244988,-4.14384,0.67824
593.048,65.43039,0.0813437,-4.14414,0.67636
595.648,65.68828,0.08534064,-4.14316,0.67448
598.248,65.94673,0.09015674,-4.1448,0.67261
600.848,66.20565,0.08963865,-4.14286,0.67074
603.448,66.46378,0.09342477,-4.14286,0.66889
606.048,66.7218,0.09309056,-4.1428,0.66704
608.648,66.97986,0.09064192,-4.14252,0.66521
611.248,67.23876,0.08878025,-4.14296,0.66338
613.848,67.49773,0.08821989,-4.14428,0.66156
616.448,67.75647,0.08368457,-4.14234,0.65975
619.048,68.01554,0.08788466,-4.14299,0.65795
621.648,68.27454,0.08765385,-4.14653,0.65616
624.248,68.53447,0.08730118,-4.14285,0.65438
626.848,68.7941,0.08618492,-4.14252,0.6526
629.448,69.05374,0.08815692,-4.14284,0.65084
632.048,69.3136,0.08908778,-4.14282,0.64908
634.648,69.57372,0.09014157,-4.14199,0.64733
637.248,69.8329,0.09046695,-4.14241,0.6456
638.848,69.99316,0.08841075,-4.14242,0.64453