Folder: fsri_materials_database/01_Data/HDPE/STA/N2/10K_min (part 2)

File: HDPE_STA_N2_10KData_21109_R3.csv
##Temp./Â°C,Time/min,DSC(subtr.2)/(mW/mg),Mass loss(subtr.2)/mg,Sensit./(uV/mW)
49.721,10.01,-0.02145959,-0.0034,1.03585
52.421,12.40199,0.06258076,-0.005305246,1.03571
55.121,13.1176,0.10171,-0.004002293,1.03553
57.821,13.68556,0.12607,-0.004197962,1.03533
60.521,14.1834,0.14621,-0.00479858,1.03509
63.221,14.63623,0.16227,-0.00646742,1.03483
65.921,15.0552,0.1737,-0.003734124,1.03453
68.621,15.44939,0.18599,-0.004382002,1.0342
71.321,15.82272,0.2006,-0.00629457,1.03384
74.021,16.18073,0.21327,-0.00576039,1.03345
76.721,16.5251,0.22266,-0.004433452,1.03304
79.421,16.85752,0.23359,-0.007203891,1.03259
82.121,17.18079,0.24298,-0.005442678,1.03211
84.821,17.4959,0.25297,-0.00444005,1.0316
87.521,17.803,0.26302,-0.007698779,1.03106
90.221,18.10341,0.27415,-0.004167575,1.03049
92.921,18.39745,0.28534,-0.00678052,1.02989
95.621,18.68638,0.29571,-0.00652542,1.02927
98.321,18.97148,0.30666,-0.005281821,1.02862
101.021,19.25275,0.3188,-0.004059786,1.02793
103.721,19.53076,0.33458,-0.005011536,1.02722
106.421,19.8066,0.35452,-0.004960386,1.02648
109.121,20.0796,0.37333,-0.004359464,1.02572
111.821,20.35059,0.39488,-0.005050324,1.02492
114.521,20.61916,0.42659,-0.00502909,1.0241
117.221,20.8861,0.46273,-0.005045776,1.02325
119.921,21.15108,0.51835,-0.005049337,1.02238
122.621,21.41421,0.60538,-0.00375593,1.02148
125.321,21.67683,0.76147,-0.006360104,1.02055
128.021,21.93757,1.07969,-0.007203086,1.0196
130.721,22.19918,1.71882,-0.00239951,1.01862
133.421,22.46225,2.67892,-0.00631628,1.01761
136.121,22.72553,3.35223,-0.00373273,1.01658
138.821,22.9839,2.81463,-0.00505735,1.01552
141.521,23.23293,1.27126,-0.005041125,1.01444
144.221,23.4765,0.63359,-0.00424239,1.01333
146.921,23.72138,0.4724,-0.00615393,1.0122
149.621,23.96719,0.43351,-0.006210652,1.01105
152.321,24.21291,0.4265,-0.00367282,1.00987
155.021,24.45816,0.42546,-0.005014869,1.00867
157.721,24.7031,0.42726,-0.00472039,1.00744
160.421,24.94815,0.43094,-0.005591446,1.00619
163.121,25.1926,0.43601,-0.00461192,1.00492
165.821,25.43767,0.43845,-0.003247346,1.00362
168.521,25.68153,0.44001,-0.006042845,1.0023
171.221,25.92537,0.44416,-0.007349891,1.00096
173.921,26.16861,0.44599,-0.007345469,0.9996
176.621,26.41204,0.44807,-0.00731414,0.99821
179.321,26.65512,0.45044,-0.005918301,0.99681
182.021,26.89733,0.45049,-0.006277817,0.99538
184.721,27.13982,0.45449,-0.008880014,0.99393
187.421,27.3816,0.4559,-0.00877803,0.99246
190.121,27.62327,0.45989,-0.005272582,0.99097
192.821,27.8647,0.4624,-0.00592499,0.98946
195.521,28.10483,0.46332,-0.01033163,0.98793
198.221,28.3462,0.46503,-0.00941057,0.98638
200.921,28.5866,0.46849,-0.00909748,0.98481
203.621,28.8275,0.46831,-0.009110254,0.98322
206.321,29.0693,0.4732,-0.01037262,0.98161
209.021,29.31025,0.47459,-0.008769482,0.97998
211.721,29.55084,0.47655,-0.007080655,0.97834
214.421,29.79164,0.47567,-0.01049547,0.97667
217.121,30.0327,0.47695,-0.00801106,0.97499
219.821,30.27328,0.47796,-0.0110583,0.97329
222.521,30.5149,0.48089,-0.009483469,0.97157
225.221,30.75565,0.4814,-0.007894267,0.96984
227.921,30.99714,0.48556,-0.009320137,0.96809
230.621,31.2377,0.48608,-0.01205936,0.96632
233.321,31.47917,0.4875,-0.01114894,0.96453
236.021,31.7209,0.48968,-0.01173774,0.96273
238.721,31.96254,0.49001,-0.00942981,0.96092
241.421,32.20382,0.49396,-0.01043943,0.95908
244.121,32.4459,0.49333,-0.01043653,0.95724
246.821,32.6875,0.49509,-0.01145756,0.95537
249.521,32.92942,0.49788,-0.009077752,0.9535
252.221,33.17123,0.49833,-0.01272006,0.9516
254.921,33.41352,0.49734,-0.008387175,0.9497
257.621,33.6556,0.49927,-0.01180384,0.94778
260.321,33.89768,0.50118,-0.01305999,0.94584
263.021,34.1397,0.50259,-0.0143697,0.94389
265.721,34.38221,0.50557,-0.01294084,0.94193
268.421,34.62513,0.50755,-0.01338695,0.93996
271.121,34.86831,0.50917,-0.01558022,0.93797
273.821,35.1119,0.50914,-0.0113684,0.93597
276.521,35.35557,0.50956,-0.0140381,0.93396
279.221,35.5993,0.50938,-0.01271669,0.93193
281.921,35.84317,0.50942,-0.01635051,0.9299
284.621,36.087,0.50936,-0.01336494,0.92785
287.321,36.33108,0.51371,-0.01193237,0.92579
290.021,36.57503,0.51464,-0.01612003,0.92372
292.721,36.8196,0.5141,-0.01481,0.92164
295.421,37.06477,0.51416,-0.01274792,0.91955
298.121,37.3098,0.51745,-0.01074396,0.91745
300.821,37.5546,0.5186,-0.01558044,0.91534
303.521,37.7998,0.51675,-0.01293997,0.91322
306.221,38.04572,0.51816,-0.01399141,0.91109
308.921,38.29135,0.51698,-0.01294347,0.90895
311.621,38.53745,0.51625,-0.01546215,0.9068
314.321,38.78379,0.51254,-0.01412375,0.90464
317.021,39.03025,0.51199,-0.01380004,0.90248
319.721,39.27701,0.51294,-0.01414759,0.90031
322.421,39.52447,0.50945,-0.01184271,0.89812
325.121,39.7712,0.5097,-0.01667986,0.89594
327.821,40.01939,0.50951,-0.01535727,0.89374
330.521,40.26719,0.50994,-0.01323932,0.89154
333.221,40.51471,0.50924,-0.01570264,0.88932
335.921,40.76303,0.5118,-0.01681992,0.88711
338.621,41.01082,0.50985,-0.0163429,0.88488
341.321,41.25967,0.51022,-0.02376712,0.88265
344.021,41.50819,0.51183,-0.02385439,0.88042
346.721,41.75693,0.51471,-0.02029,0.87818
349.421,42.00643,0.51596,-0.01780958,0.87593
352.121,42.25623,0.51783,-0.01766,0.87368
354.821,42.5064,0.51707,-0.01505584,0.87142
357.521,42.7568,0.51601,-0.01633576,0.86916
360.221,43.00699,0.51902,-0.01807199,0.86689
362.921,43.2578,0.51895,-0.01931062,0.86462
365.621,43.50885,0.51984,-0.01645004,0.86235
368.321,43.76014,0.52197,-0.01909087,0.86007
371.021,44.01137,0.52791,-0.02301182,0.85778
373.721,44.26291,0.52993,-0.0205928,0.8555
376.421,44.5148,0.52772,-0.01946607,0.85321
379.121,44.76762,0.52445,-0.01463081,0.85092
381.821,45.02033,0.53326,-0.02008379,0.84862
384.521,45.2729,0.53503,-0.02735538,0.84633
387.221,45.52652,0.53592,-0.02332348,0.84403
389.921,45.7797,0.53651,-0.02336023,0.84173
392.621,46.03331,0.53595,-0.02468505,0.83942
395.321,46.2868,0.53858,-0.02467041,0.83712
398.021,46.5411,0.54074,-0.02796265,0.83481
400.721,46.7952,0.5446,-0.03311941,0.8325
403.421,47.04931,0.54878,-0.02577606,0.8302
406.121,47.30397,0.54974,-0.02847398,0.82789
408.821,47.55881,0.55211,-0.03339491,0.82558
411.521,47.81378,0.55466,-0.03607852,0.82327
414.221,48.06852,0.55958,-0.03773931,0.82096
416.921,48.32308,0.56366,-0.04286305,0.81865
419.621,48.57848,0.56338,-0.04452023,0.81634
422.321,48.8337,0.56301,-0.04989916,0.81403
425.021,49.0897,0.56715,-0.05495604,0.81172
427.721,49.34537,0.5705,-0.05923048,0.80941
430.421,49.60132,0.5766,-0.06647535,0.8071
433.121,49.8575,0.56075,-0.07682848,0.8048
435.821,50.11407,0.54543,-0.08374526,0.80249
438.521,50.3707,0.53634,-0.09434918,0.80019
441.221,50.62857,0.52568,-0.10988,0.79789
443.921,50.88572,0.52219,-0.12514,0.79559
446.621,51.14371,0.52439,-0.14564,0.7933
449.321,51.40169,0.53792,-0.16822,0.791
452.021,51.65985,0.56292,-0.19742,0.78871
454.721,51.91899,0.6076,-0.2327,0.78642
457.421,52.17779,0.67185,-0.27465,0.78413
460.121,52.43637,0.75504,-0.32701,0.78185
462.821,52.6961,0.8685,-0.39306,0.77957
465.521,52.95445,1.00821,-0.47768,0.7773
468.221,53.21454,1.1804,-0.58617,0.77502
470.921,53.47384,1.39244,-0.7242,0.77275
473.621,53.73475,1.59049,-0.89679,0.77049
476.321,53.99507,1.75265,-1.1075,0.76823
479.021,54.25525,1.87315,-1.36812,0.76597
481.721,54.51486,1.96816,-1.66818,0.76372
484.421,54.77437,2.0222,-2.02564,0.76147
487.121,55.03422,1.98986,-2.3991,0.75923
489.821,55.2947,1.83287,-2.79367,0.75699
492.521,55.55522,1.55361,-3.20161,0.75476
495.221,55.818,1.16516,-3.53082,0.75253
497.921,56.0815,0.78413,-3.76537,0.75031
500.621,56.34496,0.49387,-3.90536,0.74809
503.321,56.6089,0.28396,-3.96768,0.74588
506.021,56.8721,0.12724,-3.98654,0.74367
508.721,57.13505,0.03749541,-3.99631,0.74147
511.421,57.3974,0.002232477,-4.00259,0.73928
514.121,57.6589,-0.02598024,-3.99893,0.73709
516.821,57.92128,-0.01402185,-3.99729,0.73491
519.521,58.1838,-0.009474745,-3.9986,0.73273
522.221,58.44738,-0.005733743,-3.99828,0.73056
524.921,58.711,-0.003018983,-3.99869,0.7284
527.621,58.9747,-0.006569789,-3.99871,0.72624
530.321,59.23946,-0.00631213,-3.99888,0.72409
533.021,59.5036,-0.00634102,-3.99575,0.72195
535.721,59.7683,-0.007878868,-3.99871,0.71982
538.421,60.0325,-0.006203384,-3.99883,0.71769
541.121,60.2979,-0.001684674,-3.99894,0.71557
543.821,60.56286,-0.00850192,-3.99898,0.71346
546.521,60.82806,-0.006112015,-3.99893,0.71135
549.221,61.0936,-0.007779627,-3.997,0.70925
551.921,61.3592,-0.009366898,-3.99631,0.70716
554.621,61.6246,-0.01316937,-3.99863,0.70508
557.321,61.88992,-0.01767426,-3.9973,0.70301
560.021,62.15571,-0.000401558,-3.9986,0.70094
562.721,62.4214,-0.0111478,-3.9983,0.69888
565.421,62.687,-0.00971782,-3.99817,0.69683
568.121,62.95397,-0.007117636,-3.9971,0.69479
570.821,63.22119,-0.006668126,-3.99717,0.69276
573.521,63.4877,-0.005228897,-3.99685,0.69074
576.221,63.7545,-0.006066487,-3.99685,0.68872
578.921,64.02206,-0.002398095,-3.99817,0.68671
581.621,64.28945,0.0005608693,-3.99824,0.68471
584.321,64.55681,-0.001463411,-3.99682,0.68272
587.021,64.8249,-0.004555755,-3.99532,0.68074
589.721,65.0929,-0.00323768,-3.99598,0.67877
592.421,65.36036,0.00168168,-3.99817,0.67681
595.121,65.62886,-0.0001108495,-3.99506,0.67486
597.821,65.89662,0.00226711,-3.99598,0.67291
600.521,66.1648,0.0058576,-3.99715,0.67098
603.221,66.43261,0.002522149,-3.99839,0.66905
605.921,66.70025,0.0008255327,-3.99652,0.66713
608.621,66.96888,-0.0008098636,-3.99825,0.66523
611.321,67.2377,0.002477885,-3.99848,0.66333
614.021,67.50662,0.004700017,-3.99718,0.66144
616.721,67.77548,0.001003345,-3.99586,0.65956
619.421,68.04424,-0.004270676,-3.99585,0.65769
622.121,68.3129,-0.002162126,-3.99719,0.65583
624.821,68.58196,0.00625836,-3.99653,0.65398
627.521,68.851,0.005038798,-3.99785,0.65214
630.221,69.12048,0.0078061,-3.99619,0.65031
632.921,69.39036,0.004976122,-3.99591,0.64849
635.621,69.65979,0.001982597,-3.99641,0.64668
638.321,69.93034,0.002673505,-3.99488,0.64488
638.921,69.99064,-0.000277612,-3.99488,0.64448