Folder: fsri_materials_database/01_Data/HDPE/STA/N2/30K_min (part 2)

File: HDPE_STA_N2_30KData_21109_R3.csv
##Temp./Â°C,Time/min,Mass loss(subtr.2)/mg,DSC(subtr.2)/(mW/mg),Sensit./(uV/mW)
49.382,10.01,-0.01326,0.005942016,1.05401
51.882,11.5459,-0.01116018,0.1487,1.05405
54.382,11.89354,-0.01255789,0.24533,1.05406
56.882,12.14901,-0.0141623,0.32828,1.05404
59.382,12.36207,-0.01537465,0.39408,1.05399
61.882,12.55227,-0.0120925,0.45128,1.05391
64.382,12.72701,-0.01519126,0.49508,1.0538
66.882,12.8913,-0.01416041,0.52617,1.05366
69.382,13.04756,-0.01437171,0.55402,1.05349
71.882,13.19735,-0.01395633,0.57965,1.05329
74.382,13.342,-0.01502266,0.60088,1.05307
76.882,13.48231,-0.01662452,0.6211,1.05281
79.382,13.61728,-0.01554152,0.64652,1.05252
81.882,13.74896,-0.0172599,0.67204,1.0522
84.382,13.87655,-0.01321496,0.70145,1.05186
86.882,13.99983,-0.01677635,0.73131,1.05148
89.382,14.1196,-0.01470266,0.75924,1.05108
91.882,14.2367,-0.01515528,0.78933,1.05065
94.382,14.35004,-0.01457633,0.82065,1.05019
96.882,14.4608,-0.01311736,0.85342,1.0497
99.382,14.5692,-0.01505182,0.89128,1.04919
101.882,14.6752,-0.01526843,0.92701,1.04864
104.382,14.77922,-0.018245,0.96193,1.04807
106.882,14.88125,-0.01681326,1.00542,1.04747
109.382,14.98153,-0.01385744,1.0483,1.04685
111.882,15.08035,-0.0109395,1.10109,1.0462
114.382,15.1776,-0.0102055,1.16125,1.04552
116.882,15.2731,-0.009671111,1.23533,1.04481
119.382,15.3677,-0.01189222,1.3239,1.04408
121.882,15.4611,-0.01368279,1.44391,1.04332
124.382,15.5532,-0.01722154,1.62164,1.04254
126.882,15.6441,-0.01862355,1.89487,1.04173
129.382,15.73434,-0.01586278,2.32913,1.04089
131.882,15.82368,-0.01724928,2.95626,1.04003
134.382,15.9124,-0.01733596,3.78664,1.03915
136.882,16.00076,-0.01296168,4.66528,1.03824
139.382,16.08857,-0.01189054,5.27202,1.0373
141.882,16.17547,-0.01218156,5.61342,1.03634
144.382,16.2609,-0.01643823,5.50908,1.03536
146.882,16.34539,-0.01499657,4.95476,1.03435
149.382,16.42812,-0.01293157,4.03177,1.03332
151.882,16.50946,-0.01295558,3.13162,1.03226
154.382,16.5897,-0.01294006,2.50185,1.03118
156.882,16.66919,-0.01578971,2.09655,1.03008
159.382,16.7482,-0.01668132,1.8477,1.02895
161.882,16.82687,-0.02040204,1.69708,1.0278
164.382,16.90524,-0.01856769,1.60451,1.02663
166.882,16.9831,-0.01839133,1.55283,1.02543
169.382,17.06043,-0.01721992,1.52488,1.02422
171.882,17.13755,-0.01723432,1.51131,1.02298
174.382,17.21435,-0.01721,1.5078,1.02172
176.882,17.29073,-0.01721,1.51694,1.02044
179.382,17.3664,-0.01620424,1.52161,1.01914
181.882,17.44199,-0.0181487,1.53331,1.01781
184.382,17.51683,-0.01864098,1.54562,1.01647
186.882,17.5913,-0.01991391,1.5593,1.0151
189.382,17.66553,-0.02157891,1.57221,1.01372
191.882,17.73937,-0.01995349,1.58679,1.01231
194.382,17.8127,-0.02005735,1.59953,1.01088
196.882,17.88601,-0.0204034,1.61479,1.00944
199.382,17.95883,-0.01754444,1.62759,1.00797
201.882,18.03141,-0.01510295,1.64276,1.00649
204.382,18.10366,-0.01492834,1.65778,1.00499
206.882,18.1757,-0.01665641,1.67248,1.00346
209.382,18.24761,-0.01633753,1.68517,1.00192
211.882,18.31914,-0.017658,1.69855,1.00037
214.382,18.3906,-0.02072703,1.71152,0.99879
216.882,18.46173,-0.02521653,1.72401,0.99719
219.382,18.53281,-0.02096906,1.7374,0.99558
221.882,18.60355,-0.02083009,1.74963,0.99395
224.382,18.67418,-0.02212459,1.76107,0.99231
226.882,18.74466,-0.02070176,1.77305,0.99064
229.382,18.81498,-0.02026295,1.78637,0.98896
231.882,18.8851,-0.01587791,1.79635,0.98727
234.382,18.95509,-0.01403516,1.80868,0.98555
236.882,19.02492,-0.01886193,1.81945,0.98383
239.382,19.09469,-0.02257223,1.83176,0.98208
241.882,19.16422,-0.01466129,1.84196,0.98032
244.382,19.23357,-0.01766222,1.85042,0.97855
246.882,19.3029,-0.01881554,1.86081,0.97676
249.382,19.37216,-0.02018318,1.87142,0.97496
251.882,19.44108,-0.02017496,1.88072,0.97314
254.382,19.51032,-0.01753749,1.8912,0.97131
256.882,19.57914,-0.01755714,1.89949,0.96946
259.382,19.64794,-0.01885994,1.91076,0.9676
261.882,19.71661,-0.01886,1.91946,0.96573
264.382,19.78519,-0.01886192,1.93076,0.96384
266.882,19.85376,-0.01876183,1.93773,0.96194
269.382,19.92223,-0.0202771,1.94783,0.96003
271.882,19.9905,-0.02670275,1.95584,0.95811
274.382,20.0588,-0.02614733,1.96434,0.95617
276.882,20.12707,-0.02061484,1.97214,0.95422
279.382,20.19537,-0.01914961,1.98097,0.95226
281.882,20.26364,-0.02062477,1.98828,0.95029
284.382,20.33172,-0.02353961,1.99524,0.94831
286.882,20.39997,-0.0236911,2.00273,0.94631
289.382,20.46815,-0.02192884,2.01078,0.94431
291.882,20.53608,-0.02061006,2.01628,0.94229
294.382,20.6042,-0.02060792,2.02183,0.94027
296.882,20.6724,-0.02093962,2.03114,0.93823
299.382,20.74033,-0.01829109,2.03493,0.93619
301.882,20.80837,-0.01959121,2.04397,0.93413
304.382,20.87637,-0.0222591,2.05208,0.93207
306.882,20.9443,-0.02425714,2.05657,0.92999
309.382,21.01233,-0.02410707,2.06051,0.92791
311.882,21.0804,-0.02280645,2.0668,0.92582
314.382,21.1483,-0.02361754,2.07393,0.92372
316.882,21.21624,-0.02357865,2.07973,0.92162
319.382,21.28422,-0.02267173,2.08566,0.9195
321.882,21.3522,-0.0254223,2.09228,0.91738
324.382,21.4201,-0.02676002,2.09578,0.91525
326.882,21.488,-0.02673899,2.10001,0.91311
329.382,21.55619,-0.02246786,2.10216,0.91097
331.882,21.62463,-0.0255903,2.09916,0.90882
334.382,21.69271,-0.02482875,2.09832,0.90666
336.882,21.76106,-0.01897147,2.09728,0.9045
339.382,21.82919,-0.01968203,2.09879,0.90233
341.882,21.8972,-0.02128927,2.09964,0.90015
344.382,21.96582,-0.02403339,2.10155,0.89797
346.882,22.03439,-0.02634097,2.10366,0.89579
349.382,22.10284,-0.02650369,2.10967,0.89359
351.882,22.17137,-0.0283724,2.11118,0.8914
354.382,22.23988,-0.02324361,2.11684,0.8892
356.882,22.3085,-0.02323997,2.12137,0.88699
359.382,22.3774,-0.02395959,2.12829,0.88478
361.882,22.44613,-0.02501636,2.13007,0.88257
364.382,22.515,-0.02599004,2.14052,0.88035
366.882,22.58391,-0.03004631,2.14521,0.87813
369.382,22.65302,-0.02860731,2.15074,0.87591
371.882,22.72204,-0.02598136,2.15693,0.87368
374.382,22.7912,-0.02599035,2.16523,0.87145
376.882,22.86051,-0.02766557,2.17133,0.86922
379.382,22.9298,-0.02994014,2.17747,0.86699
381.882,22.9992,-0.03091934,2.18411,0.86475
384.382,23.06873,-0.03125188,2.19631,0.86251
386.882,23.13833,-0.02858596,2.19769,0.86027
389.382,23.20809,-0.02598737,2.20373,0.85803
391.882,23.27792,-0.02840812,2.21972,0.85578
394.382,23.3478,-0.03235403,2.22677,0.85354
396.882,23.4178,-0.03133587,2.23574,0.85129
399.382,23.48781,-0.02983013,2.24692,0.84904
401.882,23.55796,-0.02983,2.25672,0.84679
404.382,23.6283,-0.02983,2.26783,0.84455
406.882,23.69855,-0.02983,2.27788,0.8423
409.382,23.76896,-0.02982647,2.28665,0.84005
411.882,23.83951,-0.03115004,2.29763,0.8378
414.382,23.91021,-0.0314973,2.30846,0.83555
416.882,23.98095,-0.03377021,2.3209,0.83331
419.382,24.0518,-0.03377688,2.33219,0.83106
421.882,24.12276,-0.03489874,2.34581,0.82881
424.382,24.19375,-0.03863028,2.36013,0.82657
426.882,24.26484,-0.04027616,2.37371,0.82433
429.382,24.33621,-0.04015962,2.38371,0.82208
431.882,24.40758,-0.04014043,2.3922,0.81984
434.382,24.47922,-0.03883893,2.39753,0.81761
436.882,24.5508,-0.0356264,2.40969,0.81537
439.382,24.62257,-0.04286489,2.42384,0.81314
441.882,24.6942,-0.05602524,2.44123,0.8109
444.382,24.76611,-0.06600055,2.46202,0.80868
446.882,24.8382,-0.06266461,2.48378,0.80645
449.382,24.91046,-0.05922996,2.50651,0.80423
451.882,24.98282,-0.06053861,2.53144,0.80201
454.382,25.05536,-0.0636447,2.56292,0.79979
456.882,25.128,-0.06647933,2.60458,0.79757
459.382,25.20075,-0.07842301,2.65815,0.79536
461.882,25.27347,-0.08783887,2.71633,0.79316
464.382,25.34654,-0.09447096,2.78912,0.79095
466.882,25.41946,-0.11001,2.86993,0.78876
469.382,25.49296,-0.12538,2.96254,0.78656
471.882,25.5669,-0.14023,3.07757,0.78437
474.382,25.64104,-0.16082,3.21688,0.78219
476.882,25.71549,-0.18613,3.37553,0.78
479.382,25.78989,-0.21921,3.57392,0.77783
481.882,25.86438,-0.25867,3.8201,0.77566
484.382,25.93814,-0.31367,4.12102,0.77349
486.882,26.0117,-0.37392,4.35678,0.77133
489.382,26.08504,-0.4463,4.69211,0.76917
491.882,26.158,-0.53663,5.06754,0.76702
494.382,26.23043,-0.65666,5.49298,0.76488
496.882,26.30255,-0.80602,5.90532,0.76274
499.382,26.3745,-0.99242,6.31439,0.76061
501.882,26.4463,-1.2439,6.62771,0.75848
504.382,26.5186,-1.51332,6.87446,0.75636
506.882,26.59098,-1.83603,6.99836,0.75424
509.382,26.6632,-2.18706,6.96595,0.75213
511.882,26.7348,-2.55506,6.71336,0.75003
514.382,26.8063,-2.92211,6.1555,0.74794
516.882,26.8779,-3.25632,5.29233,0.74585
519.382,26.95335,-3.52341,4.02716,0.74377
521.882,27.0315,-3.72878,2.74938,0.74169
524.382,27.1089,-3.87788,1.76985,0.73962
526.882,27.18765,-3.94253,1.16475,0.73756
529.382,27.26694,-3.97765,0.77315,0.73551
531.882,27.3452,-3.99813,0.51613,0.73346
534.382,27.42253,-3.99891,0.33046,0.73143
536.882,27.4994,-4.00399,0.20676,0.72939
539.382,27.57566,-4.00518,0.14164,0.72737
541.882,27.6517,-4.00802,0.112,0.72536
544.382,27.72808,-4.00672,0.09893796,0.72335
546.882,27.8046,-4.00786,0.09184268,0.72135
549.382,27.8811,-4.00414,0.08293053,0.71936
551.882,27.95767,-4.00691,0.07612914,0.71737
554.382,28.0343,-4.00937,0.07351664,0.7154
556.882,28.11096,-4.01188,0.079199,0.71343
559.382,28.1878,-4.00891,0.09128894,0.71147
561.882,28.26445,-4.00949,0.1052,0.70952
564.382,28.34127,-4.01346,0.12134,0.70758
566.882,28.4183,-4.01021,0.12824,0.70565
569.382,28.4954,-4.00968,0.13573,0.70373
571.882,28.57252,-4.01199,0.13669,0.70181
574.382,28.6497,-4.01111,0.13718,0.69991
576.882,28.7273,-4.00847,0.13855,0.69801
579.382,28.8049,-4.00624,0.14221,0.69612
581.882,28.8826,-4.00546,0.14067,0.69424
584.382,28.96017,-4.00549,0.14218,0.69237
586.882,29.0375,-4.00411,0.14325,0.69051
589.382,29.11482,-4.00987,0.14233,0.68866
591.882,29.1924,-4.01126,0.14234,0.68681
594.382,29.26998,-4.00474,0.13687,0.68498
596.882,29.34747,-4.01173,0.13811,0.68316
599.382,29.42535,-4.01231,0.14399,0.68134
601.882,29.5033,-4.01234,0.14331,0.67954
604.382,29.58165,-4.01101,0.14594,0.67774
606.882,29.65992,-4.00759,0.14263,0.67596
609.382,29.7383,-4.01226,0.14768,0.67418
611.882,29.81675,-4.01473,0.14812,0.67241
614.382,29.8954,-4.01079,0.15213,0.67066
616.882,29.9738,-4.01508,0.14781,0.66891
617.682,29.999,-4.01505,0.14909,0.66835