Folder: fsri_materials_database/01_Data/HDPE/STA/N2/3K_min

Note: 01_Data/README.md
# Materials and Products Database
## 01_Data

Raw data generated from each apparatus are included here in plain-text format. The data is organized first by material, next by the short name of test apparatus used, and where applicable additional filtering by test settings.

### material.json

Each material directory contains a json file of the same name as the material. This file links the data stored in the repository as well as data and graphs produced by the accompanying scripts (__02_Scripts__) to the respective landing page for the material on the front-end website.

File: HDPE_STA_N2_3KData_2199_R1.csv
##Temp./Â°C,Time/min,Mass loss(subtr.2)/mg,DSC(subtr.2)/(mW/mg),Sensit./(uV/mW)
49.701,10.01,-0.04048,-0.00384758,1.03585
52.301,13.91525,-0.05055014,0.04604802,1.03571
54.901,15.4619,-0.05166988,0.06069874,1.03555
57.501,16.7358,-0.05397154,0.07416229,1.03536
60.101,17.87226,-0.05659986,0.08152522,1.03513
62.701,18.93194,-0.05682925,0.08441825,1.03488
65.301,19.94305,-0.05912939,0.09036143,1.0346
67.901,20.9131,-0.06143135,0.09173304,1.03429
70.501,21.86052,-0.06308081,0.09477746,1.03396
73.101,22.78821,-0.06306937,0.09797916,1.03359
75.701,23.7051,-0.06361153,0.09972886,1.0332
78.301,24.60853,-0.06404287,0.10304,1.03278
80.901,25.50808,-0.0657096,0.10515,1.03233
83.501,26.3941,-0.06668988,0.11132,1.03185
86.101,27.27672,-0.06669354,0.11125,1.03135
88.701,28.1502,-0.06933334,0.10971,1.03081
91.301,29.0186,-0.06931965,0.11331,1.03026
93.901,29.88103,-0.06931647,0.1168,1.02967
96.501,30.7387,-0.0706394,0.11723,1.02906
99.101,31.5941,-0.07130029,0.12255,1.02842
101.701,32.44405,-0.07163956,0.12458,1.02776
104.301,33.2935,-0.07291444,0.12672,1.02707
106.901,34.1394,-0.07162002,0.13115,1.02635
109.501,34.98802,-0.07162986,0.13755,1.02561
112.101,35.83365,-0.07265396,0.14683,1.02484
114.701,36.68,-0.07196,0.15364,1.02405
117.301,37.5248,-0.07238108,0.16635,1.02323
119.901,38.36995,-0.07229,0.18525,1.02239
122.501,39.21237,-0.07262002,0.21787,1.02152
125.101,40.05585,-0.07190968,0.28424,1.02063
127.701,40.9009,-0.07261073,0.45461,1.01971
130.301,41.7554,-0.07065443,0.88682,1.01877
132.901,42.6218,-0.07064,1.537,1.01781
135.501,43.46925,-0.07064,1.03176,1.01682
138.101,44.2732,-0.07267254,0.1516,1.01581
140.701,45.09091,-0.07295015,0.1382,1.01477
143.301,45.9121,-0.07163,0.141,1.01371
145.901,46.735,-0.0705753,0.1421,1.01263
148.501,47.55956,-0.07393028,0.14322,1.01153
151.101,48.38433,-0.07383944,0.14394,1.0104
153.701,49.20983,-0.07262,0.14497,1.00926
156.301,50.03602,-0.07188425,0.14652,1.00809
158.901,50.86233,-0.07228956,0.1506,1.0069
161.501,51.6864,-0.07129974,0.14959,1.00568
164.101,52.50857,-0.0711034,0.14724,1.00445
166.701,53.3333,-0.07163,0.15208,1.00319
169.301,54.15919,-0.06965014,0.15344,1.00192
171.901,54.9844,-0.07032,0.15347,1.00062
174.501,55.8086,-0.07064,0.15458,0.9993
177.101,56.6327,-0.07097,0.15779,0.99796
179.701,57.458,-0.06933068,0.16086,0.99661
182.301,58.2822,-0.06899371,0.16039,0.99523
184.901,59.1046,-0.06899998,0.16254,0.99383
187.501,59.9271,-0.07128772,0.16529,0.99242
190.101,60.7507,-0.06999097,0.16399,0.99098
192.701,61.5746,-0.06998908,0.16665,0.98953
195.301,62.39586,-0.0703524,0.1662,0.98805
197.901,63.21535,-0.07065405,0.16552,0.98656
200.501,64.03791,-0.06801006,0.1697,0.98505
203.101,64.85687,-0.06985663,0.1727,0.98353
205.701,65.67956,-0.06866995,0.17105,0.98198
208.301,66.50125,-0.06834539,0.175,0.98042
210.901,67.325,-0.06767953,0.17299,0.97884
213.501,68.14854,-0.06757748,0.17392,0.97724
216.101,68.96996,-0.06802,0.17449,0.97563
218.701,69.79178,-0.06768,0.1751,0.974
221.301,70.61331,-0.06801002,0.17646,0.97235
223.901,71.43851,-0.06800997,0.17594,0.97069
226.501,72.2619,-0.06834,0.17826,0.96901
229.101,73.08304,-0.0670199,0.17887,0.96732
231.701,73.9061,-0.066365,0.17872,0.96561
234.301,74.7299,-0.06571,0.18077,0.96388
236.901,75.5541,-0.06571,0.18529,0.96214
239.501,76.37698,-0.06538,0.18597,0.96039
242.101,77.20064,-0.06472,0.18733,0.95862
244.701,78.02546,-0.06505,0.18825,0.95684
247.301,78.84958,-0.06570001,0.18565,0.95504
249.901,79.67348,-0.06570686,0.1893,0.95323
252.501,80.49696,-0.06405966,0.18725,0.95141
255.101,81.32231,-0.06472003,0.19072,0.94957
257.701,82.14678,-0.06412608,0.19226,0.94772
260.301,82.97246,-0.06407,0.19265,0.94586
262.901,83.79772,-0.06374,0.19164,0.94398
265.501,84.623,-0.06439,0.19037,0.94209
268.101,85.44819,-0.06382685,0.19282,0.94019
270.701,86.27455,-0.06341,0.19631,0.93828
273.301,87.10089,-0.06307999,0.19416,0.93636
275.901,87.9289,-0.0627497,0.19278,0.93442
278.501,88.7573,-0.06274,0.19747,0.93247
281.101,89.58431,-0.06274,0.19583,0.93052
283.701,90.4118,-0.06242,0.19883,0.92855
286.301,91.23902,-0.06209,0.19791,0.92657
288.901,92.06832,-0.06143,0.19631,0.92458
291.501,92.89621,-0.06208,0.19809,0.92258
294.101,93.72589,-0.06241757,0.19973,0.92057
296.701,94.556,-0.06209018,0.19678,0.91856
299.301,95.38677,-0.0627499,0.19434,0.91653
301.901,96.2191,-0.06144582,0.19652,0.91449
304.501,97.05049,-0.06076999,0.1929,0.91245
307.101,97.88314,-0.06111161,0.19777,0.91039
309.701,98.71468,-0.06105612,0.19872,0.90833
312.301,99.5466,-0.06176642,0.19836,0.90626
314.901,100.3782,-0.06209332,0.20327,0.90418
317.501,101.211,-0.06175429,0.20327,0.90209
320.101,102.0459,-0.06242984,0.2017,0.9
322.701,102.881,-0.06274014,0.19987,0.8979
325.301,103.715,-0.06515451,0.20657,0.89579
327.901,104.547,-0.0624093,0.2038,0.89367
330.501,105.385,-0.06307,0.20355,0.89155
333.101,106.224,-0.06271948,0.20595,0.88942
335.701,107.061,-0.06416657,0.20782,0.88729
338.301,107.897,-0.06349058,0.20708,0.88515
340.901,108.733,-0.06295487,0.20854,0.883
343.501,109.57,-0.06384953,0.20673,0.88085
346.101,110.408,-0.06253,0.20532,0.87869
348.701,111.25,-0.06284991,0.2092,0.87653
351.301,112.092,-0.06252986,0.20866,0.87436
353.901,112.932,-0.06088,0.21098,0.87219
356.501,113.77,-0.06187,0.2116,0.87001
359.101,114.612,-0.06219,0.21303,0.86783
361.701,115.453,-0.06317996,0.21538,0.86565
364.301,116.291,-0.06186,0.21608,0.86346
366.901,117.134,-0.06285002,0.22026,0.86127
369.501,117.977,-0.06318246,0.22318,0.85907
372.101,118.823,-0.06317802,0.22414,0.85687
374.701,119.6659,-0.0645,0.22779,0.85467
377.301,120.5098,-0.06483,0.22908,0.85246
379.901,121.352,-0.0645,0.23235,0.85026
382.501,122.199,-0.06713118,0.23711,0.84805
385.101,123.046,-0.06613998,0.23714,0.84583
387.701,123.8912,-0.06878,0.24052,0.84362
390.301,124.737,-0.07075466,0.23989,0.8414
392.901,125.583,-0.07272711,0.24544,0.83918
395.501,126.431,-0.07206961,0.2509,0.83696
398.101,127.276,-0.07832,0.25236,0.83474
400.701,128.127,-0.08587874,0.26107,0.83252
403.301,128.975,-0.08557326,0.25856,0.8303
405.901,129.8232,-0.09716826,0.26456,0.82807
408.501,130.674,-0.10005,0.26544,0.82585
411.101,131.527,-0.10912,0.27333,0.82363
413.701,132.382,-0.12093,0.27712,0.8214
416.301,133.233,-0.13139,0.28497,0.81918
418.901,134.086,-0.14602,0.29277,0.81695
421.501,134.961,-0.16267,0.30008,0.81473
424.101,135.85,-0.17964,0.31742,0.81251
426.701,136.6918,-0.20434,0.32401,0.81028
429.301,137.53,-0.22474,0.34101,0.80806
431.901,138.38,-0.25908,0.36197,0.80584
434.501,139.2443,-0.30044,0.38979,0.80362
437.101,140.0854,-0.34868,0.41085,0.8014
439.701,140.95,-0.41099,0.44742,0.79919
442.301,141.817,-0.48112,0.49063,0.79697
444.901,142.681,-0.57951,0.53294,0.79476
447.501,143.537,-0.69452,0.5809,0.79255
450.101,144.393,-0.83613,0.63589,0.79034
452.701,145.257,-1.01953,0.67813,0.78813
455.301,146.1279,-1.24068,0.7007,0.78593
457.901,146.987,-1.50503,0.7096,0.78373
460.501,147.841,-1.80739,0.70621,0.78153
463.101,148.703,-2.14913,0.71429,0.77934
465.701,149.574,-2.5267,0.69474,0.77714
468.301,150.425,-2.9053,0.63014,0.77496
470.901,151.293,-3.27215,0.53501,0.77277
473.501,152.156,-3.57499,0.37995,0.77059
476.101,153.017,-3.78052,0.22808,0.76841
478.701,153.88,-3.88829,0.13794,0.76624
481.301,154.7376,-3.93363,0.09717251,0.76407
483.901,155.605,-3.94761,0.06231153,0.7619
486.501,156.471,-3.95353,0.04754432,0.75974
489.101,157.323,-3.95089,0.02095249,0.75759
491.701,158.206,-3.95024,0.04150645,0.75543
494.301,159.07,-3.94958,0.04009291,0.75329
496.901,159.932,-3.95089,0.03685294,0.75114
499.501,160.784,-3.94926,0.04146331,0.74901
502.101,161.648,-3.94939,0.04356321,0.74687
504.701,162.537,-3.94624,0.05003871,0.74475
507.301,163.386,-3.94761,0.04049022,0.74263
509.901,164.268,-3.9496,0.04715299,0.74051
512.501,165.135,-3.95058,0.04221588,0.7384
515.101,165.9957,-3.9486,0.04231419,0.73629
517.701,166.849,-3.94931,0.03706766,0.7342
520.301,167.736,-3.94986,0.05103623,0.7321
522.901,168.615,-3.94925,0.04470349,0.73002
525.501,169.448,-3.94705,0.02653247,0.72793
528.101,170.309,-3.94761,0.03617571,0.72586
530.701,171.194,-3.94596,0.03859096,0.72379
533.301,172.068,-3.94764,0.04198998,0.72173
535.901,172.936,-3.94652,0.04039121,0.71967
538.501,173.81,-3.94597,0.04183338,0.71763
541.101,174.688,-3.94564,0.04274445,0.71558
543.701,175.543,-3.94597,0.04183587,0.71355
546.301,176.422,-3.94465,0.04822604,0.71152
548.901,177.3,-3.94465,0.04627563,0.7095
551.501,178.167,-3.94432,0.04301102,0.70749
554.101,179.055,-3.9453,0.04371417,0.70548
556.701,179.922,-3.94465,0.04510179,0.70348
559.301,180.7622,-3.94333,0.03154645,0.70149
561.901,181.656,-3.94256,0.04431012,0.69951
564.501,182.555,-3.94366,0.04507721,0.69753
567.101,183.417,-3.94234,0.03350816,0.69556
569.701,184.298,-3.94201,0.03354737,0.6936
572.301,185.179,-3.94234,0.03789222,0.69165
574.901,186.021,-3.9407,0.03546641,0.6897
577.501,186.907,-3.94071,0.04196316,0.68777
580.101,187.799,-3.9407,0.0430182,0.68584
582.701,188.692,-3.94071,0.05164057,0.68392
585.301,189.544,-3.94127,0.04102723,0.682
587.901,190.43,-3.94004,0.04148324,0.6801
590.501,191.296,-3.94004,0.05017274,0.6782
593.101,192.1846,-3.93971,0.0539809,0.67632
595.701,193.066,-3.9384,0.05131197,0.67444
598.301,193.9482,-3.93839,0.04801855,0.67257
600.901,194.847,-3.93968,0.04124163,0.6707
603.501,195.726,-3.93904,0.0433246,0.66885
606.101,196.5974,-3.9384,0.03194033,0.66701
608.701,197.458,-3.9384,0.03654317,0.66517
611.301,198.365,-3.93807,0.04101185,0.66334
613.901,199.229,-3.93734,0.02950109,0.66152
616.501,200.1264,-3.93806,0.04457837,0.65971
619.101,201.011,-3.93741,0.03316978,0.65791
621.701,201.893,-3.93676,0.03693098,0.65612
624.301,202.757,-3.9374,0.03464665,0.65434
626.901,203.635,-3.93582,0.04587182,0.65257
629.501,204.545,-3.93575,0.054311,0.6508
632.101,205.433,-3.93544,0.05124853,0.64905
634.701,206.331,-3.93521,0.0523938,0.6473
637.301,207.212,-3.93357,0.04947502,0.64556
639.901,208.081,-3.93586,0.04601479,0.64383
642.501,208.962,-3.93355,0.05107616,0.64211
645.101,209.806,-3.93355,0.04051093,0.6404
645.601,209.981,-3.9335,0.04646073,0.64008