Folder: fsri_materials_database/01_Data/Pressure_Treated_Deck/STA/N2/10K_min (part 2)

File: Pressure_Treated_Deck_STA_N2_10KData_211806_R3.csv
##Temp./Â°C,Time/min,Mass loss(subtr.2)/mg,DSC(subtr.2)/mW,Sensit./(uV/mW)
49.295,10.01,-0.03357,-0.09871361,0.6183
52.295,12.35618,-0.03733199,0.06106166,0.61988
55.295,13.04083,-0.04157006,0.12678,0.62144
58.295,13.59094,-0.04220447,0.17892,0.62296
61.295,14.08012,-0.04486108,0.26027,0.62445
64.295,14.52935,-0.04606114,0.29832,0.62591
67.295,14.95186,-0.04618037,0.35691,0.62733
70.295,15.3519,-0.05010999,0.41688,0.62873
73.295,15.73445,-0.05287118,0.47967,0.63009
76.295,16.10301,-0.05564354,0.51385,0.63143
79.295,16.45789,-0.06030799,0.55307,0.63273
82.295,16.80367,-0.06290295,0.5718,0.634
85.295,17.14089,-0.06558841,0.57713,0.63524
88.295,17.46893,-0.0747035,0.59162,0.63644
91.295,17.78983,-0.07110387,0.56005,0.63762
94.295,18.10515,-0.0711769,0.53621,0.63876
97.295,18.4152,-0.07551214,0.49513,0.63987
100.295,18.72002,-0.07689031,0.45827,0.64095
103.295,19.02188,-0.07666743,0.42113,0.642
106.295,19.32104,-0.07998356,0.36074,0.64301
109.295,19.61745,-0.08245929,0.3337,0.644
112.295,19.91228,-0.0804,0.30723,0.64495
115.295,20.20435,-0.08311352,0.29482,0.64587
118.295,20.49522,-0.08172014,0.26654,0.64676
121.295,20.78412,-0.08434491,0.28801,0.64762
124.295,21.07205,-0.08403156,0.27049,0.64845
127.295,21.35718,-0.08258653,0.26108,0.64925
130.295,21.64025,-0.08654088,0.24773,0.65001
133.295,21.92183,-0.08368076,0.25224,0.65075
136.295,22.20199,-0.08532728,0.27444,0.65145
139.295,22.48026,-0.08456226,0.27621,0.65212
142.295,22.75705,-0.08499711,0.27763,0.65276
145.295,23.03203,-0.08755456,0.27685,0.65337
148.295,23.3059,-0.08752126,0.29953,0.65395
151.295,23.57919,-0.08818795,0.2923,0.65449
154.295,23.85204,-0.08702172,0.31207,0.65501
157.295,24.12325,-0.09210113,0.32978,0.6555
160.295,24.39584,-0.09147996,0.34086,0.65595
163.295,24.66645,-0.09160014,0.34616,0.65638
166.295,24.93809,-0.09120213,0.36025,0.65677
169.295,25.2094,-0.09257018,0.38853,0.65714
172.295,25.47946,-0.09224257,0.39434,0.65748
175.295,25.75006,-0.09389283,0.4094,0.65778
178.295,26.01986,-0.09520006,0.44754,0.65806
181.295,26.28925,-0.09552999,0.46138,0.6583
184.295,26.5579,-0.09769111,0.46897,0.65852
187.295,26.826,-0.09881374,0.48681,0.65871
190.295,27.09324,-0.10215,0.51052,0.65886
193.295,27.36069,-0.1008,0.53116,0.65899
196.295,27.62782,-0.10607,0.55854,0.65909
199.295,27.8951,-0.10607,0.57726,0.65917
202.295,28.1616,-0.1087,0.60952,0.65921
205.295,28.4289,-0.10809,0.64529,0.65922
208.295,28.6958,-0.11529,0.65737,0.65921
211.295,28.96273,-0.11791,0.68759,0.65917
214.295,29.2294,-0.12066,0.71539,0.6591
217.295,29.49591,-0.12727,0.74486,0.659
220.295,29.7618,-0.13005,0.77597,0.65888
223.295,30.02905,-0.13676,0.78433,0.65873
226.295,30.29585,-0.14291,0.77604,0.65855
229.295,30.5625,-0.14995,0.76345,0.65834
232.295,30.8294,-0.15953,0.7641,0.65811
235.295,31.09613,-0.16944,0.76325,0.65785
238.295,31.3627,-0.17933,0.75054,0.65757
241.295,31.6297,-0.19043,0.73141,0.65726
244.295,31.89732,-0.20312,0.72459,0.65692
247.295,32.1648,-0.21655,0.71544,0.65656
250.295,32.43202,-0.22983,0.69466,0.65617
253.295,32.69976,-0.24602,0.70851,0.65576
256.295,32.9677,-0.2598,0.7161,0.65533
259.295,33.236,-0.27625,0.73807,0.65486
262.295,33.5043,-0.29376,0.76729,0.65438
265.295,33.77254,-0.31388,0.78317,0.65387
268.295,34.0404,-0.33413,0.79185,0.65333
271.295,34.30858,-0.3617,0.8249,0.65278
274.295,34.57691,-0.38942,0.84138,0.65219
277.295,34.8456,-0.42189,0.86167,0.65159
280.295,35.1141,-0.45757,0.86275,0.65096
283.295,35.3831,-0.49302,0.8627,0.65031
286.295,35.6526,-0.53325,0.86867,0.64964
289.295,35.92197,-0.57583,0.89124,0.64895
292.295,36.19232,-0.62797,0.90783,0.64823
295.295,36.4626,-0.67849,0.93277,0.64749
298.295,36.73369,-0.73539,0.96764,0.64673
301.295,37.00443,-0.79358,0.99611,0.64595
304.295,37.2755,-0.85558,1.03528,0.64515
307.295,37.54698,-0.91963,1.08352,0.64433
310.295,37.81831,-0.99041,1.13715,0.64349
313.295,38.08964,-1.06274,1.18715,0.64263
316.295,38.362,-1.13917,1.24011,0.64174
319.295,38.63353,-1.21754,1.30698,0.64084
322.295,38.906,-1.29806,1.36817,0.63992
325.295,39.17828,-1.38609,1.42153,0.63898
328.295,39.45189,-1.4761,1.49407,0.63803
331.295,39.72551,-1.56839,1.57412,0.63705
334.295,39.99951,-1.66695,1.65288,0.63606
337.295,40.27312,-1.76718,1.72223,0.63505
340.295,40.5484,-1.87317,1.81669,0.63402
343.295,40.82354,-1.98402,1.91424,0.63297
346.295,41.09852,-2.10211,2.02351,0.63191
349.295,41.3737,-2.21976,2.10494,0.63083
352.295,41.64926,-2.34446,2.18912,0.62974
355.295,41.92474,-2.47412,2.24175,0.62863
358.295,42.20093,-2.60485,2.22954,0.6275
361.295,42.47775,-2.73769,2.13173,0.62636
364.295,42.75481,-2.8641,1.89115,0.6252
367.295,43.03185,-2.9794,1.52423,0.62403
370.295,43.30961,-3.07276,1.00043,0.62284
373.295,43.58733,-3.14125,0.45508,0.62164
376.295,43.86545,-3.18448,0.03728875,0.62043
379.295,44.14342,-3.21467,-0.18023,0.6192
382.295,44.42272,-3.23481,-0.26366,0.61796
385.295,44.70136,-3.2553,-0.31689,0.61671
388.295,44.9801,-3.27061,-0.37065,0.61544
391.295,45.2598,-3.28465,-0.42476,0.61416
394.295,45.53951,-3.29998,-0.46916,0.61287
397.295,45.8204,-3.31218,-0.51796,0.61157
400.295,46.1014,-3.32599,-0.5598,0.61025
403.295,46.38263,-3.3384,-0.6006,0.60893
406.295,46.66387,-3.35486,-0.63853,0.60759
409.295,46.94603,-3.36805,-0.66687,0.60625
412.295,47.22787,-3.37853,-0.70734,0.60489
415.295,47.51017,-3.39105,-0.73452,0.60353
418.295,47.79251,-3.40195,-0.76957,0.60215
421.295,48.07544,-3.41504,-0.78369,0.60077
424.295,48.35828,-3.42584,-0.79875,0.59937
427.295,48.64175,-3.43889,-0.78585,0.59797
430.295,48.9257,-3.45158,-0.79497,0.59656
433.295,49.21095,-3.46033,-0.7858,0.59514
436.295,49.49655,-3.47173,-0.73773,0.59371
439.295,49.7824,-3.48145,-0.71434,0.59228
442.295,50.06904,-3.49108,-0.68123,0.59083
445.295,50.35536,-3.50107,-0.62755,0.58939
448.295,50.6421,-3.51121,-0.57307,0.58793
451.295,50.92895,-3.51996,-0.56609,0.58647
454.295,51.21602,-3.52685,-0.51235,0.585
457.295,51.50333,-3.53628,-0.46227,0.58353
460.295,51.79096,-3.54426,-0.43452,0.58205
463.295,52.0796,-3.5513,-0.4013,0.58056
466.295,52.36813,-3.56649,-0.39537,0.57907
469.295,52.6575,-3.5637,-0.37274,0.57758
472.295,52.9464,-3.56935,-0.35156,0.57608
475.295,53.2358,-3.58033,-0.33917,0.57458
478.295,53.5258,-3.58322,-0.32796,0.57307
481.295,53.8155,-3.59029,-0.31064,0.57156
484.295,54.1061,-3.59398,-0.32774,0.57004
487.295,54.39654,-3.59936,-0.3108,0.56853
490.295,54.6868,-3.60343,-0.31476,0.56701
493.295,54.97804,-3.60876,-0.3329,0.56549
496.295,55.26944,-3.61284,-0.31138,0.56396
499.295,55.5611,-3.61929,-0.31077,0.56244
502.295,55.8535,-3.62347,-0.33467,0.56091
505.295,56.1461,-3.62818,-0.31869,0.55938
508.295,56.4393,-3.6316,-0.32171,0.55785
511.295,56.7321,-3.63695,-0.31213,0.55631
514.295,57.0243,-3.63952,-0.32169,0.55478
517.295,57.3167,-3.64506,-0.3135,0.55325
520.295,57.60966,-3.64426,-0.31113,0.55171
523.295,57.90384,-3.6542,-0.33057,0.55018
526.295,58.19857,-3.65781,-0.33339,0.54865
529.295,58.4934,-3.66077,-0.32457,0.54711
532.295,58.7883,-3.66431,-0.31231,0.54558
535.295,59.0832,-3.66977,-0.31749,0.54405
538.295,59.37899,-3.67196,-0.32185,0.54252
541.295,59.6742,-3.67752,-0.32762,0.54099
544.295,59.96976,-3.68018,-0.32375,0.53946
547.295,60.26543,-3.68412,-0.29763,0.53793
550.295,60.5617,-3.68677,-0.28986,0.53641
553.295,60.85875,-3.69384,-0.31777,0.53489
556.295,61.1566,-3.69324,-0.30476,0.53337
559.295,61.45361,-3.7081,-0.35049,0.53185
562.295,61.75042,-3.70234,-0.34378,0.53034
565.295,62.0481,-3.70334,-0.34021,0.52882
568.295,62.34604,-3.70609,-0.38406,0.52732
571.295,62.644,-3.71088,-0.3602,0.52581
574.295,62.942,-3.71528,-0.39224,0.52431
577.295,63.24041,-3.71661,-0.40722,0.52281
580.295,63.5384,-3.72068,-0.38203,0.52132
583.295,63.83805,-3.72196,-0.4005,0.51983
586.295,64.13812,-3.72349,-0.40454,0.51834
589.295,64.43749,-3.72691,-0.43239,0.51686
592.295,64.73735,-3.72992,-0.42732,0.51538
595.295,65.03734,-3.73229,-0.42708,0.51391
598.295,65.33787,-3.73525,-0.43063,0.51244
601.295,65.63858,-3.73689,-0.43619,0.51098
604.295,65.93991,-3.74084,-0.3698,0.50952
607.295,66.24091,-3.74216,-0.32893,0.50807
610.295,66.54173,-3.74654,-0.33366,0.50663
613.295,66.84291,-3.74754,-0.39,0.50519
616.295,67.1451,-3.74885,-0.40321,0.50375
619.295,67.44744,-3.75149,-0.38115,0.50232
622.295,67.74899,-3.75341,-0.35151,0.5009
625.295,68.05086,-3.75828,-0.34635,0.49948
628.295,68.3539,-3.75896,-0.26919,0.49807
631.295,68.6561,-3.75939,-0.26796,0.49667
634.295,68.95963,-3.76465,-0.34354,0.49527
637.295,69.26353,-3.76586,-0.31272,0.49388
640.295,69.5673,-3.76752,-0.28751,0.4925
643.295,69.87131,-3.7698,-0.25013,0.49112
646.295,70.1759,-3.77149,-0.23986,0.48975
649.295,70.4809,-3.77407,-0.1585,0.48839
652.295,70.78511,-3.77538,-0.10233,0.48703
655.295,71.08946,-3.7767,-0.14327,0.48569
658.295,71.39485,-3.77748,-0.12956,0.48434
661.295,71.6998,-3.77977,-0.05043218,0.48301
664.295,72.00506,-3.78102,-0.08620695,0.48168
667.295,72.31056,-3.78244,-0.06193428,0.48037
670.295,72.6165,-3.78439,-0.07761008,0.47906
673.295,72.9217,-3.78571,-0.07903436,0.47775
676.295,73.2268,-3.78801,-0.07168673,0.47646
679.295,73.53316,-3.78834,-0.05372388,0.47517
682.295,73.8387,-3.78829,-0.02484038,0.47389
685.295,74.1444,-3.78966,-0.03762908,0.47262
688.295,74.45257,-3.78979,-0.005495905,0.47136
691.295,74.75963,-3.79129,0.02886604,0.4701
694.295,75.06701,-3.79394,0.05374617,0.46885
697.295,75.37444,-3.79426,0.09036464,0.46761
700.295,75.68248,-3.7969,0.05965335,0.46638
703.295,75.99035,-3.79559,-0.0117725,0.46516
706.295,76.2987,-3.79287,-0.03640518,0.46395
709.295,76.6056,-3.79804,-0.05263198,0.46274
712.295,76.91359,-3.80128,-0.03124563,0.46154
715.295,77.22175,-3.80327,0.01690317,0.46036
718.295,77.53004,-3.80458,0.05655837,0.45918
721.295,77.83806,-3.80327,0.12525,0.458
724.295,78.14663,-3.8049,0.12966,0.45684
727.295,78.4555,-3.80654,0.18159,0.45569
730.295,78.7651,-3.80786,0.22508,0.45454
733.295,79.07459,-3.80917,0.3303,0.4534
736.295,79.38421,-3.80984,0.38756,0.45227
739.295,79.69402,-3.81049,0.45969,0.45115
742.195,79.9932,-3.81192,0.53487,0.45007