Folder: fsri_materials_database/01_Data/Pressure_Treated_Deck/STA/N2/10K_min

Note: 01_Data/README.md
# Materials and Products Database
## 01_Data

Raw data generated from each apparatus are included here in plain-text format. The data is organized first by material, next by the short name of test apparatus used, and where applicable additional filtering by test settings.

### material.json

Each material directory contains a json file of the same name as the material. This file links the data stored in the repository as well as data and graphs produced by the accompanying scripts (__02_Scripts__) to the respective landing page for the material on the front-end website.

File: Pressure_Treated_Deck_STA_N2_10KData_211706_R1.csv
##Temp./Â°C,Time/min,Mass loss(subtr.2)/mg,DSC(subtr.2)/mW,Sensit./(uV/mW)
49.387,10.01,-0.00801,-0.03207959,0.61835
52.387,12.35877,-0.009449279,0.18377,0.61993
55.387,13.04304,-0.007171178,0.3032,0.62148
58.387,13.59394,-0.0155681,0.35926,0.623
61.387,14.0824,-0.01120644,0.42695,0.62449
64.387,14.5319,-0.01172796,0.49944,0.62595
67.387,14.9544,-0.01201285,0.5626,0.62738
70.387,15.3544,-0.01337553,0.6087,0.62877
73.387,15.73674,-0.01600278,0.64938,0.63014
76.387,16.10594,-0.0172903,0.70394,0.63147
79.387,16.46164,-0.02073503,0.73684,0.63277
82.387,16.80719,-0.02072975,0.77512,0.63404
85.387,17.14311,-0.02548947,0.78811,0.63527
88.387,17.47176,-0.02336876,0.80218,0.63648
91.387,17.79255,-0.02583894,0.78458,0.63765
94.387,18.10621,-0.02711659,0.76976,0.63879
97.387,18.41639,-0.0294497,0.76205,0.6399
100.387,18.72175,-0.03082037,0.74,0.64098
103.387,19.02372,-0.03220238,0.73343,0.64203
106.387,19.32299,-0.03355301,0.72622,0.64305
109.387,19.62043,-0.03213977,0.70723,0.64403
112.387,19.91512,-0.03213838,0.70981,0.64498
115.387,20.20799,-0.03344966,0.7133,0.6459
118.387,20.49934,-0.04157419,0.70078,0.64679
121.387,20.78886,-0.03411,0.70555,0.64765
124.387,21.07591,-0.03237103,0.69583,0.64848
127.387,21.36092,-0.03323888,0.71886,0.64927
130.387,21.6438,-0.03603143,0.72625,0.65003
133.387,21.92587,-0.03466598,0.75407,0.65077
136.387,22.20571,-0.03598371,0.75829,0.65147
139.387,22.48406,-0.03726221,0.78477,0.65214
142.387,22.7607,-0.03597999,0.78424,0.65278
145.387,23.0356,-0.03457646,0.78214,0.65339
148.387,23.30956,-0.03858182,0.78872,0.65396
151.387,23.5822,-0.03724726,0.79027,0.65451
154.387,23.85541,-0.03779882,0.80411,0.65503
157.387,24.12821,-0.03730001,0.81563,0.65551
160.387,24.39967,-0.03731046,0.82933,0.65597
163.387,24.67107,-0.03771746,0.82439,0.65639
166.387,24.94174,-0.04015391,0.84631,0.65679
169.387,25.213,-0.0403837,0.86281,0.65715
172.387,25.48394,-0.04235054,0.8647,0.65749
175.387,25.75444,-0.04234005,0.87415,0.65779
178.387,26.02443,-0.04325997,0.88017,0.65806
181.387,26.2935,-0.0446614,0.91427,0.65831
184.387,26.5625,-0.04661,0.93063,0.65853
187.387,26.8307,-0.04657274,0.93469,0.65871
190.387,27.0979,-0.04934941,0.96789,0.65887
193.387,27.36559,-0.0504878,0.95773,0.659
196.387,27.63271,-0.05182512,0.97492,0.6591
199.387,27.89947,-0.05319004,0.99545,0.65917
202.387,28.1662,-0.0558137,1.00463,0.65921
205.387,28.433,-0.06183071,1.03229,0.65922
208.387,28.69936,-0.06054965,1.04755,0.65921
211.387,28.9667,-0.06251875,1.07084,0.65917
214.387,29.2335,-0.06580822,1.08599,0.6591
217.387,29.50007,-0.06998205,1.11023,0.659
220.387,29.76687,-0.07140998,1.13765,0.65888
223.387,30.0335,-0.07564079,1.12288,0.65872
226.387,30.3007,-0.08052224,1.1414,0.65854
229.387,30.56782,-0.08880791,1.12855,0.65834
232.387,30.835,-0.09309151,1.10023,0.65811
235.387,31.10261,-0.10113,1.07929,0.65785
238.387,31.3706,-0.10935,1.05243,0.65756
241.387,31.63764,-0.11691,1.03112,0.65725
244.387,31.9052,-0.12712,1.01034,0.65691
247.387,32.17317,-0.13778,0.99398,0.65655
250.387,32.4407,-0.14946,0.9767,0.65616
253.387,32.70859,-0.15833,0.97252,0.65575
256.387,32.97623,-0.17046,0.99324,0.65531
259.387,33.24453,-0.18413,0.98495,0.65485
262.387,33.513,-0.19705,0.99018,0.65436
265.387,33.78065,-0.21149,1.01383,0.65385
268.387,34.04932,-0.22962,1.0358,0.65332
271.387,34.31755,-0.24826,1.04317,0.65276
274.387,34.58598,-0.27046,1.06507,0.65218
277.387,34.85438,-0.29513,1.08746,0.65157
280.387,35.12378,-0.31925,1.08465,0.65094
283.387,35.39273,-0.34742,1.08949,0.65029
286.387,35.66199,-0.38175,1.12547,0.64962
289.387,35.93225,-0.41575,1.10735,0.64892
292.387,36.2023,-0.45356,1.11772,0.64821
295.387,36.4726,-0.50491,1.14344,0.64747
298.387,36.7434,-0.56824,1.16675,0.64671
301.387,37.01513,-0.56155,1.14145,0.64593
304.387,37.28628,-0.63028,1.19361,0.64513
307.387,37.5569,-0.68062,1.22525,0.6443
310.387,37.8279,-0.73135,1.26857,0.64346
313.387,38.1001,-0.78855,1.30721,0.6426
316.387,38.3726,-0.84751,1.35657,0.64172
319.387,38.64433,-0.90645,1.40624,0.64082
322.387,38.917,-0.97175,1.42975,0.63989
325.387,39.18998,-1.03871,1.48179,0.63896
328.387,39.46311,-1.10721,1.52559,0.638
331.387,39.73639,-1.18049,1.582,0.63702
334.387,40.01017,-1.2553,1.62044,0.63603
337.387,40.28453,-1.3343,1.6835,0.63502
340.387,40.55835,-1.41656,1.73624,0.63399
343.387,40.8334,-1.50132,1.81298,0.63294
346.387,41.1083,-1.58855,1.87452,0.63188
349.387,41.38367,-1.68208,1.96253,0.6308
352.387,41.65886,-1.77781,2.02639,0.6297
355.387,41.9345,-1.8778,2.05952,0.62859
358.387,42.21035,-1.97797,2.05967,0.62746
361.387,42.48689,-2.08153,1.97584,0.62632
364.387,42.76401,-2.18174,1.7895,0.62516
367.387,43.04057,-2.26826,1.46766,0.62399
370.387,43.31735,-2.341,1.02455,0.62281
373.387,43.59515,-2.39388,0.54855,0.6216
376.387,43.87285,-2.42884,0.20091,0.62039
379.387,44.1513,-2.45016,-0.000701779,0.61916
382.387,44.42929,-2.46505,-0.08077812,0.61792
385.387,44.70824,-2.48225,-0.13832,0.61667
388.387,44.98737,-2.49156,-0.16777,0.6154
391.387,45.26664,-2.50378,-0.21434,0.61412
394.387,45.5467,-2.51347,-0.2571,0.61283
397.387,45.82748,-2.52327,-0.30758,0.61153
400.387,46.1088,-2.53419,-0.35601,0.61021
403.387,46.38961,-2.54348,-0.38598,0.60889
406.387,46.67113,-2.55282,-0.43423,0.60755
409.387,46.95296,-2.56245,-0.4941,0.60621
412.387,47.23499,-2.57253,-0.51873,0.60485
415.387,47.5174,-2.58043,-0.55212,0.60348
418.387,47.8003,-2.59004,-0.57397,0.60211
421.387,48.08338,-2.59812,-0.60622,0.60072
424.387,48.36694,-2.60558,-0.63143,0.59933
427.387,48.6514,-2.61348,-0.6482,0.59793
430.387,48.93572,-2.62294,-0.64608,0.59651
433.387,49.22,-2.63148,-0.6513,0.59509
436.387,49.5058,-2.63927,-0.63783,0.59367
439.387,49.7909,-2.64676,-0.62717,0.59223
442.387,50.07649,-2.65309,-0.6195,0.59079
445.387,50.36242,-2.66108,-0.59478,0.58934
448.387,50.64907,-2.66769,-0.57648,0.58788
451.387,50.9367,-2.67296,-0.54276,0.58642
454.387,51.2246,-2.67945,-0.53378,0.58495
457.387,51.51201,-2.68501,-0.51597,0.58348
460.387,51.7989,-2.69027,-0.50283,0.582
463.387,52.08662,-2.69619,-0.49779,0.58052
466.387,52.37453,-2.70084,-0.47622,0.57903
469.387,52.6634,-2.70618,-0.47592,0.57753
472.387,52.95208,-2.70983,-0.47602,0.57603
475.387,53.2415,-2.71429,-0.46481,0.57453
478.387,53.53018,-2.7199,-0.47668,0.57302
481.387,53.8202,-2.72493,-0.4779,0.57151
484.387,54.10983,-2.72789,-0.49659,0.57
487.387,54.4,-2.73052,-0.52341,0.56848
490.387,54.6905,-2.73447,-0.50969,0.56696
493.387,54.98185,-2.73843,-0.5266,0.56544
496.387,55.2731,-2.74171,-0.54501,0.56391
499.387,55.56448,-2.74568,-0.55291,0.56239
502.387,55.8565,-2.74972,-0.57577,0.56086
505.387,56.14875,-2.75334,-0.58358,0.55933
508.387,56.44248,-2.75727,-0.6096,0.5578
511.387,56.7343,-2.75795,-0.63225,0.55627
514.387,57.0281,-2.76255,-0.67102,0.55473
517.387,57.3216,-2.76477,-0.63673,0.5532
520.387,57.61486,-2.76952,-0.62401,0.55167
523.387,57.9084,-2.77097,-0.66969,0.55013
526.387,58.2021,-2.77563,-0.6684,0.5486
529.387,58.4962,-2.77953,-0.71816,0.54707
532.387,58.7912,-2.77868,-0.73245,0.54553
535.387,59.0862,-2.78197,-0.7664,0.544
538.387,59.382,-2.7865,-0.78047,0.54247
541.387,59.67754,-2.78843,-0.83522,0.54094
544.387,59.9734,-2.79095,-0.85651,0.53941
547.387,60.26896,-2.79371,-0.86062,0.53789
550.387,60.5658,-2.79503,-0.89461,0.53636
553.387,60.86243,-2.79766,-0.91883,0.53484
556.387,61.15876,-2.80054,-0.93379,0.53332
559.387,61.4566,-2.80353,-0.94844,0.5318
562.387,61.7537,-2.80456,-0.9639,0.53029
565.387,62.0518,-2.80851,-0.97696,0.52878
568.387,62.3494,-2.81114,-0.99809,0.52727
571.387,62.64702,-2.8125,-1.04329,0.52576
574.387,62.94596,-2.81639,-1.07407,0.52426
577.387,63.24471,-2.81789,-1.08521,0.52276
580.387,63.5429,-2.82036,-1.10356,0.52127
583.387,63.84256,-2.823,-1.09748,0.51978
586.387,64.14275,-2.82445,-1.1433,0.5183
589.387,64.44305,-2.82783,-1.16439,0.51681
592.387,64.74334,-2.8288,-1.17799,0.51534
595.387,65.0435,-2.83056,-1.15081,0.51387
598.387,65.3437,-2.83384,-1.13735,0.5124
601.387,65.6442,-2.83583,-1.13111,0.51094
604.387,65.9451,-2.83845,-1.10833,0.50948
607.387,66.2469,-2.84076,-1.10824,0.50803
610.387,66.5487,-2.84306,-1.10391,0.50658
613.387,66.84993,-2.84373,-1.07694,0.50514
616.387,67.1512,-2.84639,-1.08347,0.50371
619.387,67.4526,-2.84536,-1.03799,0.50228
622.387,67.75435,-2.84587,-1.03831,0.50086
625.387,68.0568,-2.85063,-1.04566,0.49944
628.387,68.3585,-2.85304,-1.02468,0.49803
631.387,68.66124,-2.85326,-1.02043,0.49663
634.387,68.96466,-2.85458,-1.01036,0.49523
637.387,69.2684,-2.85689,-1.00624,0.49384
640.387,69.57263,-2.85755,-0.99012,0.49246
643.387,69.87528,-2.85986,-0.99986,0.49108
646.387,70.17922,-2.86116,-1.00588,0.48971
649.387,70.48366,-2.86379,-1.01544,0.48835
652.387,70.788,-2.86511,-0.99271,0.48699
655.387,71.09249,-2.86647,-0.98136,0.48564
658.387,71.39787,-2.86906,-0.9967,0.4843
661.387,71.70325,-2.87047,-0.98103,0.48297
664.387,72.00808,-2.86764,-0.94462,0.48164
667.387,72.31264,-2.87028,-0.91898,0.48033
670.387,72.61869,-2.8729,-0.93274,0.47902
673.387,72.92493,-2.87158,-0.87789,0.47771
676.387,73.23116,-2.87256,-0.88184,0.47642
679.387,73.5369,-2.87389,-0.87513,0.47513
682.387,73.84274,-2.8765,-0.86589,0.47385
685.387,74.14945,-2.87481,-0.84457,0.47258
688.387,74.4564,-2.87783,-0.79211,0.47132
691.387,74.7632,-2.87718,-0.81387,0.47006
694.387,75.0708,-2.88048,-0.81561,0.46882
697.387,75.37817,-2.87904,-0.76689,0.46758
700.387,75.6857,-2.88299,-0.75753,0.46635
703.387,75.9927,-2.88332,-0.72137,0.46512
706.387,76.29925,-2.88374,-0.67313,0.46391
709.387,76.60699,-2.88518,-0.69503,0.46271
712.387,76.91476,-2.88717,-0.77886,0.46151
715.387,77.22338,-2.88782,-0.83067,0.46032
718.387,77.53134,-2.88234,-0.76653,0.45914
721.387,77.8387,-2.88935,-0.78391,0.45797
724.387,78.14716,-2.89132,-0.72059,0.4568
727.387,78.4559,-2.89166,-0.69949,0.45565
730.387,78.76576,-2.89166,-0.64694,0.4545
733.387,79.07502,-2.893,-0.63357,0.45337
736.387,79.385,-2.89527,-0.60878,0.45224
739.387,79.69476,-2.89411,-0.56759,0.45112
742.287,79.9939,-2.89528,-0.5375,0.45004

File: Pressure_Treated_Deck_STA_N2_10KData_211706_R2.csv
##Temp./Â°C,Time/min,Mass loss(subtr.2)/mg,DSC(subtr.2)/mW,Sensit./(uV/mW)
49.227,10.00917,-0.02555,-0.0505935,0.61826
52.227,12.34867,-0.02808277,0.31992,0.61985
55.227,13.03359,-0.03000398,0.50504,0.6214
58.227,13.58355,-0.03289666,0.61692,0.62292
61.227,14.0715,-0.0342195,0.73697,0.62442
64.227,14.52048,-0.0359754,0.82577,0.62587
67.227,14.942,-0.03799094,0.90555,0.6273
70.227,15.3423,-0.04143494,0.97785,0.6287
73.227,15.72489,-0.03262741,1.05973,0.63006
76.227,16.09199,-0.0445091,1.13752,0.6314
79.227,16.44802,-0.04608936,1.20362,0.6327
82.227,16.79255,-0.04849404,1.25835,0.63397
85.227,17.12869,-0.05556772,1.29336,0.63521
88.227,17.45569,-0.05624508,1.33768,0.63642
91.227,17.77637,-0.05336148,1.35534,0.63759
94.227,18.09085,-0.06076625,1.35679,0.63873
97.227,18.4006,-0.05991092,1.35975,0.63985
100.227,18.70598,-0.06076932,1.34748,0.64093
103.227,19.00865,-0.06339999,1.34046,0.64197
106.227,19.30734,-0.06458669,1.33182,0.64299
109.227,19.60454,-0.06597972,1.34352,0.64398
112.227,19.89923,-0.06734,1.33675,0.64493
115.227,20.19231,-0.06896481,1.3107,0.64585
118.227,20.48295,-0.0674602,1.318,0.64674
121.227,20.77212,-0.06747472,1.31153,0.6476
124.227,21.05921,-0.06745962,1.32367,0.64843
127.227,21.34477,-0.06909953,1.34306,0.64923
130.227,21.6278,-0.07042,1.36465,0.64999
133.227,21.90906,-0.07042,1.3612,0.65073
136.227,22.1884,-0.07063998,1.38328,0.65143
139.227,22.46613,-0.07064001,1.40656,0.6521
142.227,22.74241,-0.07078655,1.42227,0.65274
145.227,23.018,-0.07293455,1.44956,0.65335
148.227,23.29225,-0.07196069,1.46051,0.65393
151.227,23.56567,-0.07360957,1.47189,0.65448
154.227,23.8387,-0.07393015,1.50199,0.655
157.227,24.11114,-0.07736117,1.51139,0.65549
160.227,24.3828,-0.07788,1.53192,0.65594
163.227,24.65384,-0.07656835,1.55771,0.65637
166.227,24.9251,-0.0758074,1.57541,0.65677
169.227,25.19546,-0.07798958,1.59584,0.65713
172.227,25.46659,-0.07447953,1.59662,0.65747
175.227,25.7361,-0.07531629,1.62854,0.65777
178.227,26.00587,-0.07798006,1.62864,0.65805
181.227,26.2752,-0.07920265,1.64782,0.6583
184.227,26.54288,-0.08205033,1.66609,0.65851
187.227,26.81235,-0.08347825,1.66377,0.6587
190.227,27.0804,-0.08335988,1.67745,0.65886
193.227,27.34849,-0.0884632,1.69918,0.65899
196.227,27.6158,-0.08807998,1.72143,0.65909
199.227,27.88253,-0.08939963,1.74503,0.65916
202.227,28.1496,-0.09238975,1.75674,0.65921
205.227,28.4167,-0.0955185,1.77934,0.65922
208.227,28.68295,-0.10172,1.80271,0.65921
211.227,28.9494,-0.10769,1.82641,0.65917
214.227,29.2165,-0.10146,1.84957,0.6591
217.227,29.4832,-0.10559,1.86625,0.65901
220.227,29.7501,-0.10982,1.89331,0.65888
223.227,30.0172,-0.1153,1.89253,0.65873
226.227,30.2836,-0.12107,1.89289,0.65855
229.227,30.551,-0.12868,1.88129,0.65835
232.227,30.81815,-0.13547,1.88669,0.65812
235.227,31.0846,-0.14606,1.8631,0.65786
238.227,31.35203,-0.15605,1.84852,0.65758
241.227,31.61958,-0.16399,1.81771,0.65727
244.227,31.88707,-0.17607,1.81125,0.65693
247.227,32.15478,-0.18651,1.78249,0.65657
250.227,32.4223,-0.19983,1.76809,0.65618
253.227,32.69042,-0.20952,1.76103,0.65577
256.227,32.95813,-0.22367,1.75121,0.65534
259.227,33.22505,-0.23777,1.74716,0.65487
262.227,33.49353,-0.25324,1.75786,0.65439
265.227,33.7612,-0.26959,1.75578,0.65388
268.227,34.0294,-0.29057,1.75408,0.65335
271.227,34.29775,-0.31063,1.75,0.65279
274.227,34.56647,-0.33538,1.74348,0.65221
277.227,34.83526,-0.3615,1.74169,0.6516
280.227,35.1041,-0.39059,1.73934,0.65098
283.227,35.37353,-0.42431,1.72365,0.65033
286.227,35.6428,-0.46091,1.71962,0.64966
289.227,35.91207,-0.49797,1.73269,0.64896
292.227,36.1818,-0.54199,1.72878,0.64825
295.227,36.45173,-0.58995,1.72629,0.64751
298.227,36.72141,-0.63638,1.74526,0.64675
301.227,36.99243,-0.68792,1.75651,0.64597
304.227,37.26356,-0.74318,1.77434,0.64517
307.227,37.53481,-0.79762,1.79339,0.64435
310.227,37.80601,-0.85866,1.82403,0.64351
313.227,38.07779,-0.92419,1.84817,0.64265
316.227,38.3495,-0.9911,1.89497,0.64176
319.227,38.622,-1.06123,1.93646,0.64086
322.227,38.89424,-1.13146,1.96979,0.63994
325.227,39.1676,-1.20625,2.008,0.63901
328.227,39.44059,-1.28447,2.04209,0.63805
331.227,39.71397,-1.36681,2.07383,0.63707
334.227,39.9876,-1.45402,2.13142,0.63608
337.227,40.262,-1.54284,2.17864,0.63507
340.227,40.53608,-1.63624,2.23371,0.63404
343.227,40.81107,-1.73503,2.28879,0.633
346.227,41.08652,-1.83636,2.35856,0.63193
349.227,41.3619,-1.93981,2.41827,0.63086
352.227,41.63765,-2.04972,2.46926,0.62976
355.227,41.91402,-2.1623,2.50737,0.62865
358.227,42.1901,-2.28116,2.4985,0.62752
361.227,42.46633,-2.39957,2.4181,0.62638
364.227,42.74388,-2.51166,2.20178,0.62523
367.227,43.02062,-2.61361,1.85595,0.62405
370.227,43.29813,-2.69856,1.38465,0.62287
373.227,43.5754,-2.76319,0.89246,0.62167
376.227,43.85287,-2.80408,0.50889,0.62046
379.227,44.1303,-2.82644,0.29644,0.61923
382.227,44.40834,-2.84492,0.18248,0.61799
385.227,44.6867,-2.86283,0.13649,0.61673
388.227,44.966,-2.87786,0.09165433,0.61547
391.227,45.24577,-2.89235,0.0564012,0.61419
394.227,45.5261,-2.90367,0.01427698,0.6129
397.227,45.8056,-2.9159,-0.03526813,0.6116
400.227,46.08713,-2.92746,-0.0872293,0.61028
403.227,46.3686,-2.94176,-0.12389,0.60896
406.227,46.65016,-2.95003,-0.18525,0.60762
409.227,46.93251,-2.96299,-0.21353,0.60628
412.227,47.21542,-2.97094,-0.25719,0.60492
415.227,47.49858,-2.98255,-0.28804,0.60356
418.227,47.7819,-2.99514,-0.32391,0.60218
421.227,48.0648,-3.00189,-0.35724,0.6008
424.227,48.3489,-3.01338,-0.37162,0.5994
427.227,48.6327,-3.02448,-0.38962,0.598
430.227,48.91714,-3.03472,-0.39832,0.59659
433.227,49.20203,-3.04309,-0.38372,0.59517
436.227,49.48715,-3.05117,-0.38432,0.59374
439.227,49.77207,-3.05991,-0.36393,0.59231
442.227,50.0578,-3.07011,-0.33184,0.59087
445.227,50.34383,-3.07829,-0.31471,0.58942
448.227,50.63041,-3.0835,-0.26706,0.58796
451.227,50.91745,-3.0959,-0.24615,0.5865
454.227,51.20407,-3.10016,-0.2135,0.58503
457.227,51.49185,-3.10698,-0.20638,0.58356
460.227,51.7794,-3.114,-0.18208,0.58208
463.227,52.06745,-3.11795,-0.1662,0.5806
466.227,52.35625,-3.12606,-0.15789,0.57911
469.227,52.6453,-3.12883,-0.13498,0.57761
472.227,52.9348,-3.13499,-0.13457,0.57611
475.227,53.2239,-3.14294,-0.12567,0.57461
478.227,53.513,-3.14839,-0.13084,0.5731
481.227,53.8022,-3.15375,-0.13266,0.57159
484.227,54.09125,-3.1564,-0.14007,0.57008
487.227,54.38142,-3.16051,-0.10837,0.56856
490.227,54.6724,-3.16581,-0.13038,0.56704
493.227,54.96394,-3.16969,-0.14019,0.56552
496.227,55.25611,-3.17501,-0.14847,0.564
499.227,55.5477,-3.1776,-0.15973,0.56247
502.227,55.8395,-3.18255,-0.16562,0.56094
505.227,56.13231,-3.18649,-0.15198,0.55941
508.227,56.4257,-3.18976,-0.18963,0.55788
511.227,56.7187,-3.19451,-0.19486,0.55635
514.227,57.01106,-3.20318,-0.19343,0.55482
517.227,57.3039,-3.20187,-0.15723,0.55328
520.227,57.59723,-3.20745,-0.16481,0.55175
523.227,57.89036,-3.21002,-0.16254,0.55021
526.227,58.18317,-3.21346,-0.19757,0.54868
529.227,58.47671,-3.2161,-0.20392,0.54715
532.227,58.77098,-3.22238,-0.18213,0.54561
535.227,59.06632,-3.22397,-0.2209,0.54408
538.227,59.3617,-3.22782,-0.24402,0.54255
541.227,59.65759,-3.22916,-0.26893,0.54102
544.227,59.9532,-3.23587,-0.28648,0.53949
547.227,60.25,-3.23859,-0.28008,0.53797
550.227,60.5465,-3.23955,-0.33424,0.53644
553.227,60.84236,-3.24243,-0.33921,0.53492
556.227,61.13909,-3.24638,-0.33044,0.5334
559.227,61.43611,-3.25143,-0.36356,0.53188
562.227,61.73395,-3.25474,-0.36721,0.53037
565.227,62.03141,-3.25783,-0.39954,0.52886
568.227,62.32982,-3.25943,-0.38295,0.52735
571.227,62.62786,-3.26227,-0.40367,0.52584
574.227,62.92651,-3.26689,-0.39924,0.52434
577.227,63.2252,-3.26787,-0.40008,0.52284
580.227,63.5252,-3.27127,-0.38084,0.52135
583.227,63.8245,-3.27265,-0.36573,0.51986
586.227,64.12424,-3.27667,-0.37874,0.51837
589.227,64.4233,-3.27907,-0.37114,0.51689
592.227,64.72301,-3.28135,-0.37954,0.51542
595.227,65.02263,-3.284,-0.3809,0.51394
598.227,65.3232,-3.28532,-0.40876,0.51248
601.227,65.62398,-3.29057,-0.36567,0.51101
604.227,65.92495,-3.29374,-0.34666,0.50956
607.227,66.2272,-3.29627,-0.3299,0.50811
610.227,66.5287,-3.29628,-0.28707,0.50666
613.227,66.83038,-3.29607,-0.26521,0.50522
616.227,67.13218,-3.30013,-0.20245,0.50378
619.227,67.43313,-3.30276,-0.17839,0.50236
622.227,67.73539,-3.30574,-0.17906,0.50093
625.227,68.03829,-3.30803,-0.2076,0.49952
628.227,68.3415,-3.30918,-0.17233,0.49811
631.227,68.64455,-3.31065,-0.1257,0.4967
634.227,68.94721,-3.3107,-0.12046,0.49531
637.227,69.25024,-3.31329,-0.11077,0.49391
640.227,69.554,-3.31656,-0.07041118,0.49253
643.227,69.8582,-3.31922,-0.0512701,0.49115
646.227,70.1623,-3.3202,-0.02992829,0.48978
649.227,70.46687,-3.32349,-0.01599812,0.48842
652.227,70.7722,-3.32343,0.07459086,0.48706
655.227,71.07714,-3.32741,0.12589,0.48572
658.227,71.38135,-3.32667,0.13279,0.48437
661.227,71.68568,-3.33061,0.14945,0.48304
664.227,71.99055,-3.33062,0.15874,0.48171
667.227,72.2957,-3.33321,0.18731,0.4804
670.227,72.60087,-3.3327,0.26344,0.47908
673.227,72.90638,-3.33413,0.33256,0.47778
676.227,73.2119,-3.33545,0.29825,0.47649
679.227,73.5174,-3.33808,0.28699,0.4752
682.227,73.82389,-3.33775,0.3323,0.47392
685.227,74.13001,-3.34475,0.39768,0.47265
688.227,74.43633,-3.34091,0.43276,0.47138
691.227,74.74247,-3.34093,0.46728,0.47013
694.227,75.04919,-3.34368,0.51743,0.46888
697.227,75.3561,-3.34235,0.56913,0.46764
700.227,75.66337,-3.34596,0.64139,0.46641
703.227,75.97071,-3.35384,0.67459,0.46519
706.227,76.27924,-3.34674,0.71529,0.46398
709.227,76.58748,-3.34751,0.70536,0.46277
712.227,76.89599,-3.35014,0.7051,0.46157
715.227,77.20419,-3.35149,0.71526,0.46038
718.227,77.5129,-3.35146,0.76035,0.4592
721.227,77.82197,-3.35278,0.77624,0.45803
724.227,78.13055,-3.35694,0.79672,0.45687
727.227,78.4397,-3.35398,0.84849,0.45571
730.227,78.74883,-3.35387,0.94834,0.45456
733.227,79.05784,-3.35563,1.01774,0.45343
736.227,79.3669,-3.35793,1.08176,0.4523
739.227,79.67676,-3.36365,1.18012,0.45118
742.227,79.9864,-3.35947,1.24534,0.45006
742.327,79.99553,-3.35947,1.25067,0.45003