Folder: fsri_materials_database/01_Data/Pressure_Treated_Deck/STA/N2/30K_min

Note: 01_Data/README.md
# Materials and Products Database
## 01_Data

Raw data generated from each apparatus are included here in plain-text format. The data is organized first by material, next by the short name of test apparatus used, and where applicable additional filtering by test settings.

### material.json

Each material directory contains a json file of the same name as the material. This file links the data stored in the repository as well as data and graphs produced by the accompanying scripts (__02_Scripts__) to the respective landing page for the material on the front-end website.

File: Pressure_Treated_Deck_STA_N2_30KData_211806_R1.csv
##Temp./Â°C,Time/min,Mass loss(subtr.2)/mg,DSC(subtr.2)/mW,Sensit./(uV/mW)
50.632,10.01,-0.03992,0.07097098,0.6235
53.532,11.54367,-0.03103935,0.45946,0.62347
56.432,11.89125,-0.03197927,0.74341,0.62342
59.332,12.14183,-0.03166595,0.98963,0.62336
62.232,12.35159,-0.0364802,1.18643,0.62328
65.132,12.53711,-0.03552722,1.36694,0.6232
68.032,12.70765,-0.0351429,1.52911,0.6231
70.932,12.8698,-0.03741707,1.68119,0.62299
73.832,13.02334,-0.03830201,1.81617,0.62286
76.732,13.17159,-0.03793084,1.94718,0.62273
79.632,13.3154,-0.0399757,2.0581,0.62258
82.532,13.4549,-0.03949576,2.17564,0.62242
85.432,13.59087,-0.04115716,2.28625,0.62225
88.332,13.72326,-0.04538947,2.37774,0.62206
91.232,13.85196,-0.04684047,2.46891,0.62186
94.132,13.97746,-0.04923716,2.55792,0.62166
97.032,14.10043,-0.04946107,2.64202,0.62143
99.932,14.21991,-0.050441,2.70929,0.6212
102.832,14.33784,-0.05077419,2.74738,0.62096
105.732,14.4527,-0.05362515,2.79198,0.6207
108.632,14.5655,-0.05748612,2.82145,0.62043
111.532,14.67636,-0.05590086,2.84488,0.62015
114.432,14.7853,-0.0558899,2.85134,0.61986
117.332,14.8924,-0.05759011,2.85264,0.61956
120.232,14.9978,-0.05722709,2.87269,0.61925
123.132,15.1014,-0.05725025,2.89372,0.61892
126.032,15.2035,-0.05840195,2.89721,0.61859
128.932,15.3041,-0.0596539,2.91155,0.61824
131.832,15.4031,-0.06216032,2.9535,0.61788
134.732,15.501,-0.06078303,3.02421,0.61751
137.632,15.5978,-0.06173182,3.06509,0.61713
140.532,15.69311,-0.06123028,3.09071,0.61674
143.432,15.7877,-0.0607599,3.11116,0.61634
146.332,15.88127,-0.06207881,3.16102,0.61593
149.232,15.97381,-0.0620768,3.22699,0.61551
152.132,16.06564,-0.0609724,3.27665,0.61507
155.032,16.15689,-0.06157814,3.35517,0.61463
157.932,16.24756,-0.06208002,3.40467,0.61418
160.832,16.33749,-0.06147784,3.46896,0.61371
163.732,16.42693,-0.06340082,3.51705,0.61324
166.632,16.51585,-0.06208142,3.58421,0.61275
169.532,16.60432,-0.06339085,3.63496,0.61226
172.432,16.69219,-0.06354005,3.68611,0.61175
175.332,16.77955,-0.06436493,3.74303,0.61124
178.232,16.86645,-0.0643616,3.80542,0.61072
181.132,16.95283,-0.0653543,3.83736,0.61018
184.032,17.03835,-0.06534471,3.91234,0.60964
186.932,17.124,-0.06832632,3.94432,0.60909
189.832,17.2087,-0.06833,4.01521,0.60853
192.732,17.29307,-0.06833,4.06593,0.60795
195.632,17.37694,-0.06846476,4.13811,0.60737
198.532,17.46049,-0.06965001,4.20363,0.60679
201.432,17.5437,-0.07102199,4.26317,0.60619
204.332,17.62651,-0.07198232,4.33447,0.60558
207.232,17.70925,-0.07200866,4.3976,0.60496
210.132,17.7916,-0.07209503,4.46384,0.60434
213.032,17.87377,-0.07649872,4.53728,0.6037
215.932,17.95559,-0.07905308,4.61269,0.60306
218.832,18.03744,-0.07776448,4.67731,0.60241
221.732,18.11867,-0.0807546,4.77752,0.60175
224.632,18.19985,-0.0811463,4.85227,0.60108
227.532,18.28081,-0.08244122,4.89977,0.60041
230.432,18.3617,-0.08670424,4.96481,0.59972
233.332,18.4424,-0.09009928,5.02184,0.59903
236.232,18.5229,-0.09316528,5.05589,0.59833
239.132,18.60322,-0.0984494,5.08958,0.59762
242.032,18.68344,-0.10557,5.07407,0.59691
244.932,18.76335,-0.1092,5.08273,0.59618
247.832,18.84335,-0.11689,5.05402,0.59545
250.732,18.92297,-0.12494,5.03116,0.59472
253.632,19.00246,-0.13242,4.99566,0.59397
256.532,19.08204,-0.14,4.95651,0.59322
259.432,19.16156,-0.13893,4.90966,0.59246
262.332,19.24085,-0.16608,4.89735,0.59169
265.232,19.32005,-0.16277,4.86227,0.59091
268.132,19.39919,-0.17498,4.86694,0.59013
271.032,19.47832,-0.18527,4.89655,0.58934
273.932,19.55734,-0.1958,4.92571,0.58855
276.832,19.6364,-0.20919,4.95402,0.58775
279.732,19.71561,-0.22233,4.95324,0.58694
282.632,19.7946,-0.23388,4.97228,0.58612
285.532,19.87368,-0.2497,4.97865,0.5853
288.432,19.9528,-0.26826,4.98875,0.58447
291.332,20.03183,-0.28845,4.94493,0.58364
294.232,20.11092,-0.31,4.93957,0.5828
297.132,20.19008,-0.33501,4.87693,0.58195
300.032,20.269,-0.35959,4.84913,0.5811
302.932,20.34805,-0.3844,4.78651,0.58024
305.832,20.42708,-0.4162,4.74734,0.57938
308.732,20.50613,-0.44979,4.71598,0.57851
311.632,20.5852,-0.48304,4.68881,0.57763
314.532,20.66406,-0.51847,4.72538,0.57675
317.432,20.74316,-0.55745,4.70383,0.57587
320.332,20.82215,-0.59925,4.73799,0.57498
323.232,20.90116,-0.64516,4.74009,0.57408
326.132,20.9805,-0.69199,4.81775,0.57318
329.032,21.05986,-0.73928,4.86997,0.57227
331.932,21.13918,-0.79031,4.93978,0.57136
334.832,21.2185,-0.84436,4.99109,0.57044
337.732,21.29812,-0.89904,5.07387,0.56952
340.632,21.37764,-0.96001,5.14151,0.56859
343.532,21.45741,-1.01926,5.22451,0.56766
346.432,21.53731,-1.08322,5.30994,0.56673
349.332,21.6172,-1.14696,5.40202,0.56579
352.232,21.6972,-1.21548,5.50156,0.56485
355.132,21.77735,-1.2868,5.60871,0.5639
358.032,21.85754,-1.35964,5.7419,0.56295
360.932,21.9379,-1.43473,5.91374,0.56199
363.832,22.01839,-1.51162,6.08539,0.56103
366.732,22.09902,-1.5917,6.29699,0.56007
369.632,22.17991,-1.67459,6.51023,0.5591
372.532,22.2608,-1.76636,6.70606,0.55813
375.432,22.34176,-1.85569,6.86812,0.55715
378.332,22.42282,-1.95062,6.97025,0.55617
381.232,22.504,-2.04646,6.91428,0.55519
384.132,22.58539,-2.1452,6.6529,0.55421
387.032,22.66704,-2.23638,6.14956,0.55322
389.932,22.7487,-2.32269,5.34457,0.55223
392.832,22.8308,-2.39417,4.24461,0.55123
395.732,22.913,-2.44973,3.04865,0.55023
398.632,22.99535,-2.49065,1.9954,0.54923
401.532,23.07765,-2.51673,1.23038,0.54823
404.432,23.16007,-2.53551,0.71346,0.54722
407.332,23.2425,-2.54991,0.43332,0.54621
410.232,23.32505,-2.56442,0.23563,0.5452
413.132,23.40783,-2.5745,0.10879,0.54419
416.032,23.4907,-2.58503,-0.01246936,0.54317
418.932,23.57376,-2.59572,-0.13615,0.54215
421.832,23.65695,-2.60717,-0.24336,0.54113
424.732,23.74026,-2.61748,-0.35487,0.54011
427.632,23.8238,-2.62764,-0.45603,0.53908
430.532,23.90737,-2.63744,-0.59429,0.53805
433.432,23.99113,-2.64794,-0.68652,0.53703
436.332,24.07508,-2.65796,-0.81044,0.53599
439.232,24.15918,-2.66369,-0.90108,0.53496
442.132,24.2434,-2.67166,-0.99416,0.53393
445.032,24.32784,-2.67811,-1.04739,0.53289
447.932,24.41242,-2.68763,-1.08595,0.53185
450.832,24.4973,-2.69381,-1.13145,0.53081
453.732,24.58207,-2.703,-1.14173,0.52977
456.632,24.6671,-2.70955,-1.12196,0.52873
459.532,24.7525,-2.71694,-1.08931,0.52769
462.432,24.83768,-2.72194,-1.05394,0.52664
465.332,24.92343,-2.72852,-1.01865,0.5256
468.232,25.00914,-2.73572,-0.9357,0.52455
471.132,25.09496,-2.74214,-0.87333,0.52351
474.032,25.18096,-2.7495,-0.80698,0.52246
476.932,25.2673,-2.75719,-0.73632,0.52141
479.832,25.3538,-2.75951,-0.66959,0.52036
482.732,25.44042,-2.76488,-0.63642,0.51931
485.632,25.52712,-2.76912,-0.5998,0.51826
488.532,25.61403,-2.77548,-0.56147,0.51721
491.432,25.70112,-2.77902,-0.53995,0.51615
494.332,25.78833,-2.78284,-0.51263,0.5151
497.232,25.87552,-2.7846,-0.50945,0.51405
500.132,25.96301,-2.79037,-0.51211,0.513
503.032,26.0506,-2.79296,-0.49771,0.51195
505.932,26.13851,-2.79957,-0.51457,0.51089
508.832,26.2263,-2.80471,-0.5171,0.50984
511.732,26.3143,-2.8075,-0.55839,0.50879
514.632,26.4024,-2.81072,-0.56121,0.50773
517.532,26.49067,-2.81152,-0.57411,0.50668
520.432,26.5792,-2.81614,-0.61438,0.50563
523.332,26.66793,-2.8175,-0.63936,0.50458
526.232,26.7566,-2.82017,-0.67664,0.50353
529.132,26.8456,-2.82309,-0.70315,0.50247
532.032,26.93455,-2.8259,-0.7394,0.50142
534.932,27.0236,-2.83449,-0.77724,0.50037
537.832,27.113,-2.83467,-0.81525,0.49932
540.732,27.20259,-2.83725,-0.86773,0.49828
543.632,27.29205,-2.83726,-0.93776,0.49723
546.532,27.38177,-2.83989,-0.96874,0.49618
549.432,27.4716,-2.84446,-0.99999,0.49513
552.332,27.56154,-2.84602,-1.05256,0.49409
555.232,27.6517,-2.8482,-1.09924,0.49304
558.132,27.74186,-2.84874,-1.13557,0.492
561.032,27.83202,-2.85225,-1.17783,0.49096
563.932,27.9225,-2.85641,-1.23894,0.48991
566.832,28.0131,-2.85985,-1.29207,0.48887
569.732,28.1038,-2.86428,-1.31869,0.48784
572.632,28.1945,-2.86764,-1.35404,0.4868
575.532,28.28537,-2.86884,-1.39835,0.48576
578.432,28.3764,-2.87015,-1.45702,0.48473
581.332,28.4675,-2.87356,-1.49236,0.48369
584.232,28.5588,-2.87595,-1.54645,0.48266
587.132,28.65015,-2.87927,-1.56669,0.48163
590.032,28.74132,-2.88409,-1.59565,0.4806
592.932,28.8331,-2.88373,-1.63335,0.47957
595.832,28.92493,-2.8842,-1.65879,0.47855
598.732,29.0167,-2.88551,-1.72571,0.47752
601.632,29.1087,-2.8883,-1.76179,0.4765
604.532,29.20068,-2.89035,-1.81918,0.47548
607.432,29.29284,-2.89203,-1.8618,0.47446
610.332,29.38505,-2.89516,-1.88183,0.47344
613.232,29.47751,-2.89813,-1.89143,0.47243
616.132,29.57003,-2.89944,-1.91779,0.47142
619.032,29.66265,-2.90191,-1.94327,0.47041
621.932,29.75527,-2.90325,-1.98504,0.4694
624.832,29.84794,-2.90608,-1.99391,0.46839
627.732,29.941,-2.90768,-2.01264,0.46739
630.632,30.0339,-2.91051,-2.10188,0.46638
633.532,30.1267,-2.91051,-2.09035,0.46538
636.432,30.22,-2.91195,-2.11113,0.46438
639.332,30.3132,-2.91326,-2.13921,0.46339
642.232,30.4063,-2.91458,-2.16814,0.4624
645.132,30.5,-2.91589,-2.2273,0.4614
648.032,30.5937,-2.91592,-2.23451,0.46042
650.932,30.68732,-2.91753,-2.20491,0.45943
653.832,30.781,-2.9196,-2.20593,0.45845
656.732,30.875,-2.92293,-2.22497,0.45746
659.632,30.9689,-2.92356,-2.20816,0.45649
662.532,31.063,-2.92579,-2.19955,0.45551
665.432,31.1571,-2.9262,-2.22726,0.45454
668.332,31.25106,-2.92763,-2.19516,0.45356
671.232,31.3454,-2.92915,-2.22161,0.4526
674.132,31.43995,-2.93015,-2.20288,0.45163
677.032,31.53438,-2.93245,-2.19269,0.45067
679.932,31.62908,-2.93245,-2.17868,0.44971
682.832,31.72376,-2.93295,-2.15322,0.44875
685.732,31.81857,-2.93443,-2.16237,0.44779
688.632,31.9134,-2.93509,-2.1081,0.44684
691.532,32.0081,-2.9387,-2.09913,0.44589
694.432,32.1033,-2.9401,-2.09038,0.44494
697.332,32.19839,-2.94127,-2.11138,0.444
700.232,32.29335,-2.94155,-1.99713,0.44306
703.132,32.38857,-2.94156,-1.98872,0.44212
706.032,32.48382,-2.94351,-1.87246,0.44119
708.932,32.57926,-2.94387,-1.90922,0.44026
711.832,32.6748,-2.9447,-1.83022,0.43933
714.732,32.77025,-2.94364,-1.7383,0.4384
717.632,32.86575,-2.9455,-1.68026,0.43748
720.532,32.9612,-2.94735,-1.66394,0.43656
723.432,33.05687,-2.94628,-1.65329,0.43564
726.332,33.15273,-2.94898,-1.64237,0.43472
729.232,33.24841,-2.95026,-1.66211,0.43381
731.732,33.33222,-2.95023,-1.62346,0.43303

File: Pressure_Treated_Deck_STA_N2_30KData_212106_R2.csv
##Temp./Â°C,Time/min,Mass loss(subtr.2)/mg,DSC(subtr.2)/mW,Sensit./(uV/mW)
50.645,10.01,-0.01568,-0.01590729,0.6235
53.645,11.55979,-0.0168863,0.2888,0.62346
56.645,11.9105,-0.01684034,0.53888,0.62341
59.645,12.1665,-0.01773168,0.73714,0.62335
62.645,12.37997,-0.0185406,0.89967,0.62327
65.645,12.57,-0.01645957,1.05898,0.62318
68.645,12.7455,-0.01573965,1.19232,0.62308
71.645,12.911,-0.02000552,1.31815,0.62296
74.645,13.06845,-0.01766935,1.43514,0.62283
77.645,13.221,-0.01999145,1.55106,0.62268
80.645,13.36846,-0.0227685,1.66259,0.62253
83.645,13.5119,-0.02431829,1.76098,0.62235
86.645,13.65086,-0.02693364,1.86783,0.62217
89.645,13.7864,-0.03024057,1.95637,0.62197
92.645,13.918,-0.03148148,2.03531,0.62176
95.645,14.0466,-0.03122557,2.08849,0.62154
98.645,14.17206,-0.03403052,2.14727,0.62131
101.645,14.29454,-0.03407798,2.17719,0.62106
104.645,14.4143,-0.03565114,2.18329,0.6208
107.645,14.5321,-0.03717991,2.19136,0.62053
110.645,14.6474,-0.03850496,2.18402,0.62024
113.645,14.76058,-0.0388308,2.16472,0.61994
116.645,14.8718,-0.03846077,2.15372,0.61963
119.645,14.98099,-0.03921803,2.1266,0.61931
122.645,15.0885,-0.04034251,2.1253,0.61898
125.645,15.19444,-0.04046398,2.12129,0.61863
128.645,15.2987,-0.04316763,2.13539,0.61827
131.645,15.40122,-0.04135875,2.15938,0.61791
134.645,15.50259,-0.04194858,2.14919,0.61752
137.645,15.6027,-0.04201012,2.1786,0.61713
140.645,15.7016,-0.04070841,2.20151,0.61673
143.645,15.79921,-0.04211627,2.19865,0.61631
146.645,15.89581,-0.04212,2.23165,0.61588
149.645,15.9918,-0.04211887,2.27095,0.61544
152.645,16.08664,-0.04211984,2.32575,0.61499
155.645,16.1811,-0.04211958,2.37401,0.61453
158.645,16.27456,-0.0421575,2.40318,0.61406
161.645,16.36768,-0.04365994,2.47743,0.61358
164.645,16.46,-0.04222996,2.50254,0.61309
167.645,16.55177,-0.04245672,2.54862,0.61258
170.645,16.643,-0.04145998,2.62733,0.61207
173.645,16.73374,-0.04277367,2.67969,0.61154
176.645,16.82367,-0.04489396,2.73246,0.611
179.645,16.91325,-0.04475135,2.78921,0.61046
182.645,17.00242,-0.04474992,2.85459,0.6099
185.645,17.09082,-0.04475179,2.94105,0.60933
188.645,17.1787,-0.04332399,2.9894,0.60876
191.645,17.26601,-0.04596005,3.0437,0.60817
194.645,17.35281,-0.04726671,3.12609,0.60757
197.645,17.43928,-0.04727733,3.19883,0.60697
200.645,17.52551,-0.04860599,3.23213,0.60635
203.645,17.6112,-0.04857872,3.3012,0.60572
206.645,17.69667,-0.0512502,3.38658,0.60509
209.645,17.7819,-0.05125827,3.48735,0.60444
212.645,17.86692,-0.05385128,3.56377,0.60379
215.645,17.95157,-0.05516054,3.64548,0.60313
218.645,18.03598,-0.05518007,3.71678,0.60245
221.645,18.12002,-0.05780091,3.81358,0.60177
224.645,18.2042,-0.0609458,3.90006,0.60108
227.645,18.28794,-0.06199255,3.99916,0.60038
230.645,18.37164,-0.063843,4.08548,0.59967
233.645,18.45496,-0.06689745,4.15212,0.59896
236.645,18.53833,-0.07142237,4.18996,0.59823
239.645,18.62131,-0.07699026,4.23984,0.5975
242.645,18.70407,-0.08022124,4.25844,0.59676
245.645,18.78689,-0.08545094,4.29689,0.59601
248.645,18.8694,-0.09213745,4.31326,0.59525
251.645,18.95172,-0.09897661,4.27467,0.59448
254.645,19.03416,-0.10739,4.24231,0.59371
257.645,19.1164,-0.11516,4.18806,0.59293
260.645,19.1984,-0.12165,4.16126,0.59214
263.645,19.28042,-0.13165,4.13475,0.59134
266.645,19.36243,-0.14179,4.1568,0.59053
269.645,19.44424,-0.14976,4.16663,0.58972
272.645,19.52599,-0.16094,4.17746,0.5889
275.645,19.60775,-0.17156,4.21707,0.58807
278.645,19.6894,-0.1843,4.24165,0.58724
281.645,19.77114,-0.1971,4.26394,0.5864
284.645,19.85272,-0.2132,4.30042,0.58555
287.645,19.93446,-0.22822,4.32074,0.5847
290.645,20.01644,-0.24455,4.33658,0.58384
293.645,20.0981,-0.26753,4.30154,0.58297
296.645,20.17987,-0.28965,4.2977,0.58209
299.645,20.26136,-0.31353,4.29308,0.58121
302.645,20.34308,-0.34089,4.26835,0.58033
305.645,20.42482,-0.37229,4.26085,0.57943
308.645,20.50659,-0.4027,4.27109,0.57853
311.645,20.58831,-0.43736,4.26712,0.57763
314.645,20.67002,-0.47297,4.27957,0.57672
317.645,20.7517,-0.51,4.30857,0.5758
320.645,20.83357,-0.55245,4.33959,0.57488
323.645,20.91542,-0.59342,4.39588,0.57395
326.645,20.9973,-0.64014,4.47517,0.57302
329.645,21.07931,-0.68957,4.54627,0.57208
332.645,21.16125,-0.74037,4.63585,0.57113
335.645,21.2436,-0.79396,4.72022,0.57018
338.645,21.32583,-0.84985,4.83608,0.56923
341.645,21.4084,-0.90875,4.93125,0.56827
344.645,21.49089,-0.96874,5.03699,0.56731
347.645,21.57315,-1.03379,5.15876,0.56634
350.645,21.65626,-1.09801,5.28396,0.56536
353.645,21.73869,-1.16289,5.40864,0.56438
356.645,21.82199,-1.23302,5.54495,0.5634
359.645,21.90501,-1.30427,5.73796,0.56241
362.645,21.98824,-1.38023,5.93835,0.56142
365.645,22.07156,-1.4582,6.1528,0.56043
368.645,22.15501,-1.5378,6.39916,0.55943
371.645,22.23856,-1.62555,6.63152,0.55842
374.645,22.32218,-1.71565,6.84233,0.55742
377.645,22.4062,-1.80913,7.02318,0.55641
380.645,22.49023,-1.90354,7.02079,0.55539
383.645,22.57433,-1.99716,6.83647,0.55437
386.645,22.65879,-2.08838,6.40829,0.55335
389.645,22.74315,-2.17106,5.65311,0.55232
392.645,22.82807,-2.24216,4.56921,0.55129
395.645,22.9131,-2.2999,3.35744,0.55026
398.645,22.99819,-2.34021,2.25928,0.54923
401.645,23.08342,-2.3662,1.4656,0.54819
404.645,23.16872,-2.38586,0.96552,0.54715
407.645,23.25406,-2.40007,0.67944,0.5461
410.645,23.33951,-2.41304,0.51464,0.54506
413.645,23.425,-2.42544,0.37956,0.54401
416.645,23.51074,-2.43556,0.25009,0.54296
419.645,23.59669,-2.44531,0.1405,0.5419
422.645,23.6826,-2.45536,0.05037383,0.54084
425.645,23.76885,-2.46169,-0.04023859,0.53978
428.645,23.85519,-2.47398,-0.16187,0.53872
431.645,23.94184,-2.48283,-0.26722,0.53766
434.645,24.02863,-2.49064,-0.36157,0.53659
437.645,24.11559,-2.49988,-0.44716,0.53553
440.645,24.20262,-2.50844,-0.51824,0.53446
443.645,24.29005,-2.51401,-0.59222,0.53339
446.645,24.37738,-2.52265,-0.66002,0.53231
449.645,24.46497,-2.5315,-0.70056,0.53124
452.645,24.55278,-2.53776,-0.69932,0.53016
455.645,24.64075,-2.54477,-0.72847,0.52909
458.645,24.72886,-2.55331,-0.71375,0.52801
461.645,24.81721,-2.56018,-0.70253,0.52693
464.645,24.90563,-2.56451,-0.66949,0.52585
467.645,24.99435,-2.57206,-0.61356,0.52476
470.645,25.08319,-2.57653,-0.55372,0.52368
473.645,25.17214,-2.58258,-0.48298,0.5226
476.645,25.26142,-2.5884,-0.41485,0.52151
479.645,25.35074,-2.59331,-0.34294,0.52043
482.645,25.44024,-2.59638,-0.28602,0.51934
485.645,25.53001,-2.60417,-0.22965,0.51825
488.645,25.61985,-2.60757,-0.18439,0.51717
491.645,25.70984,-2.61216,-0.1466,0.51608
494.645,25.80003,-2.61634,-0.1244,0.51499
497.645,25.89039,-2.61776,-0.08893086,0.5139
500.645,25.9807,-2.62235,-0.04577988,0.51281
503.645,26.07145,-2.62533,-0.0301742,0.51172
506.645,26.1622,-2.62856,-0.01988881,0.51063
509.645,26.25337,-2.63598,-0.03016929,0.50954
512.645,26.3445,-2.63683,-0.02200307,0.50846
515.645,26.43569,-2.64059,-0.03663762,0.50737
518.645,26.52712,-2.64329,-0.04815051,0.50628
521.645,26.6188,-2.64637,-0.04878157,0.50519
524.645,26.7105,-2.6507,-0.07279886,0.5041
527.645,26.80227,-2.65339,-0.07859695,0.50301
530.645,26.8943,-2.65551,-0.11067,0.50193
533.645,26.98647,-2.65759,-0.15535,0.50084
536.645,27.0786,-2.66033,-0.16614,0.49975
539.645,27.17103,-2.66479,-0.17335,0.49867
542.645,27.2635,-2.6667,-0.19564,0.49758
545.645,27.3563,-2.66857,-0.26029,0.4965
548.645,27.44915,-2.66994,-0.27911,0.49542
551.645,27.54226,-2.67278,-0.32377,0.49434
554.645,27.63546,-2.67615,-0.34002,0.49325
557.645,27.7286,-2.67921,-0.39302,0.49217
560.645,27.82193,-2.68191,-0.40237,0.4911
563.645,27.91545,-2.68304,-0.43908,0.49002
566.645,28.0092,-2.68882,-0.4603,0.48894
569.645,28.10285,-2.69026,-0.4836,0.48787
572.645,28.19675,-2.6916,-0.52008,0.48679
575.645,28.2908,-2.69554,-0.52981,0.48572
578.645,28.3848,-2.69839,-0.55604,0.48465
581.645,28.479,-2.6997,-0.59052,0.48358
584.645,28.5734,-2.70096,-0.60812,0.48251
587.645,28.66783,-2.70375,-0.62437,0.48145
590.645,28.76245,-2.7065,-0.66223,0.48038
593.645,28.8571,-2.70654,-0.6778,0.47932
596.645,28.9519,-2.7104,-0.68908,0.47826
599.645,29.04676,-2.71089,-0.73375,0.4772
602.645,29.1418,-2.71298,-0.76718,0.47614
605.645,29.2369,-2.71546,-0.81911,0.47509
608.645,29.33215,-2.71843,-0.85716,0.47404
611.645,29.4277,-2.71198,-0.89466,0.47298
614.645,29.52298,-2.7278,-0.95923,0.47194
617.645,29.6187,-2.72315,-0.98442,0.47089
620.645,29.71432,-2.72451,-1.03166,0.46984
623.645,29.81039,-2.72768,-1.07246,0.4688
626.645,29.90642,-2.729,-1.11752,0.46776
629.645,30.0027,-2.7256,-1.16575,0.46672
632.645,30.0989,-2.73774,-1.25133,0.46569
635.645,30.19531,-2.73433,-1.34112,0.46466
638.645,30.29168,-2.73559,-1.38007,0.46362
641.645,30.38816,-2.73688,-1.37894,0.4626
644.645,30.4847,-2.73952,-1.41724,0.46157
647.645,30.5814,-2.73952,-1.42963,0.46055
650.645,30.67843,-2.74099,-1.48174,0.45953
653.645,30.7752,-2.74356,-1.52182,0.45851
656.645,30.87223,-2.74367,-1.57964,0.45749
659.645,30.96937,-2.74617,-1.63044,0.45648
662.645,31.0663,-2.74757,-1.68287,0.45547
665.645,31.1638,-2.74853,-1.72422,0.45446
668.645,31.26107,-2.75016,-1.79191,0.45346
671.645,31.3588,-2.7515,-1.82836,0.45246
674.645,31.45638,-2.75027,-1.85767,0.45146
677.645,31.5541,-2.75402,-1.9184,0.45046
680.645,31.6518,-2.75267,-1.98793,0.44947
683.645,31.74965,-2.75529,-2.03643,0.44848
686.645,31.84765,-2.75663,-2.06643,0.44749
689.645,31.94568,-2.75524,-2.02144,0.44651
692.645,32.04371,-2.75662,-2.06637,0.44553
695.645,32.14185,-2.75928,-2.10302,0.44455
698.645,32.24021,-2.75927,-2.15171,0.44357
701.645,32.3384,-2.76137,-2.17138,0.4426
704.645,32.43685,-2.76156,-2.2012,0.44163
707.645,32.53513,-2.76325,-2.22311,0.44067
710.645,32.6339,-2.76209,-2.26389,0.43971
713.645,32.7325,-2.76321,-2.29044,0.43875
716.645,32.83141,-2.76453,-2.32504,0.43779
719.645,32.93031,-2.76585,-2.32977,0.43684
722.645,33.02926,-2.76624,-2.39141,0.43589
725.645,33.12835,-2.76716,-2.43348,0.43494
728.645,33.22746,-2.76717,-2.44295,0.434
731.645,33.32882,-2.76847,-2.4469,0.43306
731.845,33.33319,-2.76847,-2.44392,0.433