Folder: fsri_materials_database/01_Data/Pressure_Treated_Deck/STA/N2/30K_min (part 2)

File: Pressure_Treated_Deck_STA_N2_30KData_212206_R3.csv
##Temp./Â°C,Time/min,Mass loss(subtr.2)/mg,DSC(subtr.2)/mW,Sensit./(uV/mW)
50.631,10.00917,-0.01722,-0.07464209,0.6235
53.531,11.54453,-0.01682081,0.43419,0.62347
56.431,11.88992,-0.01951242,0.85207,0.62342
59.331,12.14048,-0.0208372,1.15438,0.62336
62.231,12.35069,-0.01994502,1.44041,0.62328
65.131,12.53662,-0.02066117,1.67649,0.6232
68.031,12.7079,-0.02163145,1.88368,0.6231
70.931,12.86914,-0.02270775,2.08674,0.62299
73.831,13.02375,-0.02215742,2.2699,0.62286
76.731,13.17215,-0.02556145,2.44272,0.62273
79.631,13.3162,-0.02733866,2.6093,0.62258
82.531,13.4559,-0.02878449,2.78055,0.62242
85.431,13.5918,-0.02987483,2.92983,0.62225
88.331,13.72424,-0.03155372,3.07114,0.62206
91.231,13.85339,-0.03403761,3.21638,0.62186
94.131,13.97913,-0.03543043,3.3173,0.62166
97.031,14.1017,-0.03693708,3.41168,0.62143
99.931,14.22199,-0.03948637,3.4729,0.6212
102.831,14.3396,-0.04210952,3.56714,0.62096
105.731,14.4547,-0.04286993,3.62399,0.6207
108.631,14.5675,-0.04375703,3.65015,0.62043
111.531,14.6783,-0.04474687,3.69377,0.62015
114.431,14.7873,-0.04639333,3.69404,0.61986
117.331,14.89461,-0.04747779,3.70557,0.61956
120.231,15.0001,-0.04886928,3.73542,0.61925
123.131,15.1037,-0.04969692,3.75539,0.61892
126.031,15.20604,-0.05127988,3.79482,0.61859
128.931,15.3067,-0.05220618,3.83882,0.61824
131.831,15.40586,-0.0524824,3.8655,0.61788
134.731,15.50348,-0.05254366,3.90137,0.61751
137.631,15.6003,-0.05199948,3.93806,0.61713
140.531,15.6961,-0.05190277,3.97051,0.61674
143.431,15.79066,-0.0522145,4.03539,0.61634
146.331,15.88391,-0.05251629,4.09774,0.61593
149.231,15.9771,-0.05384981,4.17555,0.61551
152.131,16.0691,-0.05155245,4.23843,0.61507
155.031,16.1602,-0.05352988,4.3037,0.61463
157.931,16.25122,-0.05255089,4.37671,0.61418
160.831,16.34095,-0.05253813,4.46235,0.61371
163.731,16.43055,-0.05253598,4.55896,0.61324
166.631,16.5195,-0.05483986,4.63715,0.61275
169.531,16.60792,-0.05297393,4.69008,0.61226
172.431,16.69603,-0.05221158,4.7473,0.61175
175.331,16.78341,-0.05486702,4.82424,0.61124
178.231,16.8702,-0.05581276,4.89669,0.61072
181.131,16.95686,-0.05713839,4.96753,0.61018
184.031,17.04275,-0.05584858,5.02797,0.60964
186.931,17.128,-0.05846147,5.09792,0.60909
189.831,17.21276,-0.05852874,5.16116,0.60853
192.731,17.29701,-0.05762313,5.2508,0.60796
195.631,17.3809,-0.05846145,5.32702,0.60737
198.531,17.4646,-0.05748212,5.39443,0.60679
201.431,17.54798,-0.05874606,5.45584,0.60619
204.331,17.6308,-0.06202284,5.55148,0.60558
207.231,17.71357,-0.06284955,5.63453,0.60496
210.131,17.79573,-0.06519795,5.71308,0.60434
213.031,17.87794,-0.06461284,5.78818,0.6037
215.931,17.95975,-0.06586658,5.88147,0.60306
218.831,18.04155,-0.06815741,5.96813,0.60241
221.731,18.1229,-0.07016842,6.04528,0.60175
224.631,18.20413,-0.07349533,6.1289,0.60108
227.531,18.28509,-0.07346578,6.22173,0.60041
230.431,18.36596,-0.0792179,6.30978,0.59972
233.331,18.4466,-0.08222565,6.37024,0.59903
236.231,18.5271,-0.08534006,6.42704,0.59833
239.131,18.60741,-0.08893768,6.47864,0.59762
242.031,18.68764,-0.09242889,6.50246,0.59691
244.931,18.7679,-0.09722611,6.50266,0.59619
247.831,18.84777,-0.10591,6.48535,0.59545
250.731,18.92758,-0.11487,6.46619,0.59472
253.631,19.0073,-0.12212,6.42787,0.59397
256.531,19.08677,-0.12924,6.37768,0.59322
259.431,19.16626,-0.13745,6.33465,0.59246
262.331,19.24549,-0.14718,6.30607,0.59169
265.231,19.32483,-0.15696,6.27096,0.59091
268.131,19.404,-0.16497,6.28499,0.59013
271.031,19.48325,-0.17577,6.31373,0.58934
273.931,19.5624,-0.18554,6.3115,0.58855
276.831,19.64161,-0.19646,6.32399,0.58775
279.731,19.72069,-0.20818,6.34646,0.58694
282.631,19.7998,-0.22151,6.35408,0.58612
285.531,19.87886,-0.24092,6.34892,0.5853
288.431,19.95784,-0.25665,6.37385,0.58447
291.331,20.0367,-0.27839,6.36094,0.58364
294.231,20.11575,-0.29953,6.33192,0.5828
297.131,20.19484,-0.32311,6.27145,0.58195
300.031,20.27386,-0.34823,6.24462,0.5811
302.931,20.35298,-0.37643,6.17721,0.58024
305.831,20.4319,-0.4032,6.13594,0.57938
308.731,20.5111,-0.43493,6.09923,0.57851
311.631,20.59011,-0.47091,6.05304,0.57763
314.531,20.66915,-0.5063,6.04001,0.57675
317.431,20.74812,-0.5484,6.04231,0.57587
320.331,20.8272,-0.59245,6.04618,0.57498
323.231,20.90621,-0.63382,6.06384,0.57408
326.131,20.98552,-0.68057,6.11286,0.57318
329.031,21.06466,-0.73079,6.1851,0.57227
331.931,21.144,-0.78282,6.27702,0.57136
334.831,21.22339,-0.83438,6.32934,0.57044
337.731,21.303,-0.89417,6.40642,0.56952
340.631,21.38237,-0.95158,6.46759,0.5686
343.531,21.46211,-1.01516,6.56101,0.56766
346.431,21.54196,-1.07641,6.6523,0.56673
349.331,21.6219,-1.14148,6.74379,0.56579
352.231,21.7019,-1.20949,6.84258,0.56485
355.131,21.78205,-1.2795,6.9405,0.5639
358.031,21.8624,-1.353,7.08314,0.56295
360.931,21.94276,-1.42859,7.22863,0.56199
363.831,22.0234,-1.50869,7.42562,0.56103
366.731,22.104,-1.58728,7.63065,0.56007
369.631,22.18479,-1.67495,7.82765,0.5591
372.531,22.2656,-1.76089,8.03889,0.55813
375.431,22.3467,-1.85353,8.18509,0.55715
378.331,22.42782,-1.95098,8.29731,0.55617
381.231,22.50892,-2.04832,8.23456,0.55519
384.131,22.59047,-2.14341,7.98749,0.55421
387.031,22.6723,-2.23715,7.46491,0.55322
389.931,22.75401,-2.32296,6.61829,0.55223
392.831,22.8361,-2.39773,5.55349,0.55123
395.731,22.91829,-2.45547,4.34354,0.55023
398.631,23.00067,-2.49741,3.27148,0.54923
401.531,23.08312,-2.52586,2.48839,0.54823
404.431,23.16558,-2.5457,1.99505,0.54722
407.331,23.24831,-2.56032,1.68798,0.54621
410.231,23.33077,-2.57268,1.47626,0.5452
413.131,23.4136,-2.5845,1.33824,0.54419
416.031,23.4966,-2.59616,1.2275,0.54317
418.931,23.57989,-2.60774,1.12715,0.54215
421.831,23.66302,-2.61917,1.00408,0.54113
424.731,23.74628,-2.62973,0.89507,0.54011
427.631,23.8297,-2.63801,0.78312,0.53908
430.531,23.91329,-2.6486,0.67531,0.53806
433.431,23.99718,-2.65905,0.56514,0.53703
436.331,24.08109,-2.66707,0.44198,0.53599
439.231,24.16534,-2.6752,0.35226,0.53496
442.131,24.2496,-2.68329,0.28976,0.53393
445.031,24.33399,-2.69242,0.22199,0.53289
447.931,24.41872,-2.70088,0.1767,0.53185
450.831,24.50328,-2.70872,0.15733,0.53081
453.731,24.58813,-2.71647,0.14597,0.52977
456.631,24.67322,-2.72411,0.18569,0.52873
459.531,24.7581,-2.73122,0.21052,0.52769
462.431,24.84381,-2.7396,0.25314,0.52664
465.331,24.9294,-2.74864,0.32385,0.5256
468.231,25.01517,-2.75225,0.38404,0.52455
471.131,25.10106,-2.76087,0.47191,0.52351
474.031,25.18719,-2.76859,0.54455,0.52246
476.931,25.27347,-2.77095,0.6097,0.52141
479.831,25.3597,-2.77658,0.68102,0.52036
482.731,25.44639,-2.78154,0.75787,0.51931
485.631,25.5332,-2.78756,0.78446,0.51826
488.531,25.62019,-2.79211,0.84132,0.51721
491.431,25.70738,-2.79524,0.8629,0.51616
494.331,25.79466,-2.80295,0.89783,0.5151
497.231,25.8821,-2.80597,0.90138,0.51405
500.131,25.9696,-2.81038,0.92979,0.513
503.031,26.05738,-2.8133,0.91946,0.51195
505.931,26.14528,-2.81765,0.93715,0.51089
508.831,26.23347,-2.81906,0.92435,0.50984
511.731,26.3216,-2.82331,0.90136,0.50879
514.631,26.40989,-2.8291,0.90735,0.50773
517.531,26.49839,-2.83248,0.90225,0.50668
520.431,26.58697,-2.83692,0.87615,0.50563
523.331,26.6754,-2.84024,0.87204,0.50458
526.231,26.76424,-2.84221,0.84684,0.50353
529.131,26.8531,-2.84483,0.83526,0.50247
532.031,26.94224,-2.84758,0.80346,0.50142
534.931,27.0312,-2.85063,0.76048,0.50037
537.831,27.1202,-2.85224,0.78215,0.49932
540.731,27.2097,-2.85664,0.7516,0.49828
543.631,27.29924,-2.86061,0.7242,0.49723
546.531,27.389,-2.86335,0.61686,0.49618
549.431,27.4788,-2.8664,0.57044,0.49513
552.331,27.56881,-2.86776,0.53904,0.49409
555.231,27.65887,-2.87091,0.50771,0.49304
558.131,27.74901,-2.87454,0.46364,0.492
561.031,27.83956,-2.87621,0.41961,0.49096
563.931,27.93008,-2.87849,0.39586,0.48992
566.831,28.02086,-2.88141,0.34831,0.48887
569.731,28.11147,-2.88397,0.28968,0.48784
572.631,28.2024,-2.88648,0.24495,0.4868
575.531,28.2934,-2.88958,0.22863,0.48576
578.431,28.38451,-2.89234,0.14467,0.48473
581.331,28.4756,-2.89511,0.12952,0.48369
584.231,28.5671,-2.89914,0.08656089,0.48266
587.131,28.6585,-2.89911,0.06044955,0.48163
590.031,28.75,-2.902,0.01751844,0.4806
592.931,28.84163,-2.90345,0.003515818,0.47957
595.831,28.93352,-2.90624,-0.02433038,0.47855
598.731,29.02505,-2.9092,-0.04279426,0.47752
601.631,29.1172,-2.91053,-0.07404759,0.4765
604.531,29.20918,-2.91359,-0.12357,0.47548
607.431,29.3014,-2.91547,-0.13892,0.47446
610.331,29.39348,-2.91761,-0.15177,0.47344
613.231,29.4859,-2.92028,-0.16343,0.47243
616.131,29.5784,-2.9216,-0.22587,0.47142
619.031,29.6709,-2.92291,-0.25344,0.47041
621.931,29.76357,-2.92444,-0.27436,0.4694
624.831,29.85635,-2.92696,-0.27045,0.46839
627.731,29.9492,-2.92829,-0.26771,0.46739
630.631,30.04218,-2.93102,-0.24476,0.46638
633.531,30.13519,-2.93264,-0.27017,0.46538
636.431,30.22839,-2.93498,-0.28092,0.46438
639.331,30.3216,-2.93517,-0.26827,0.46339
642.231,30.4149,-2.93757,-0.28763,0.4624
645.131,30.5084,-2.93937,-0.27951,0.4614
648.031,30.6019,-2.94206,-0.30514,0.46042
650.931,30.69565,-2.94486,-0.31055,0.45943
653.831,30.78933,-2.94485,-0.30611,0.45845
656.731,30.8832,-2.94823,-0.31696,0.45746
659.631,30.9773,-2.9488,-0.28843,0.45649
662.531,31.07129,-2.94888,-0.26083,0.45551
665.431,31.1655,-2.95285,-0.21206,0.45454
668.331,31.2598,-2.9542,-0.17495,0.45356
671.231,31.3537,-2.95405,-0.17189,0.4526
674.131,31.44857,-2.95548,-0.17289,0.45163
677.031,31.5433,-2.95647,-0.19441,0.45067
679.931,31.63772,-2.9578,-0.19518,0.44971
682.831,31.73224,-2.95915,-0.18093,0.44875
685.731,31.82702,-2.96091,-0.1802,0.44779
688.631,31.92186,-2.96165,-0.10104,0.44684
691.531,32.0166,-2.96529,-0.02039853,0.44589
694.431,32.11164,-2.96719,-0.02415097,0.44495
697.331,32.20646,-2.96509,0.000978858,0.444
700.231,32.30178,-2.96591,0.08205697,0.44306
703.131,32.39699,-2.96732,0.11283,0.44212
706.031,32.4918,-2.96995,0.11479,0.44119
708.931,32.5875,-2.97118,0.12563,0.44026
711.831,32.68288,-2.97118,0.1731,0.43933
714.731,32.77828,-2.97118,0.25825,0.4384
717.631,32.87388,-2.9725,0.30569,0.43748
720.531,32.9694,-2.97249,0.29575,0.43656
723.431,33.06514,-2.97385,0.3916,0.43564
726.331,33.1608,-2.97556,0.42088,0.43472
729.231,33.2567,-2.97688,0.42484,0.43381
731.431,33.33102,-2.97688,0.44668,0.43312