Folder: fsri_materials_database/01_Data/Pressure_Treated_Deck/STA/N2/3K_min

Note: 01_Data/README.md
# Materials and Products Database
## 01_Data

Raw data generated from each apparatus are included here in plain-text format. The data is organized first by material, next by the short name of test apparatus used, and where applicable additional filtering by test settings.

### material.json

Each material directory contains a json file of the same name as the material. This file links the data stored in the repository as well as data and graphs produced by the accompanying scripts (__02_Scripts__) to the respective landing page for the material on the front-end website.

File: Pressure_Treated_Deck_STA_N2_3KData_212106_R1.csv
##Temp./Â°C,Time/min,Mass loss(subtr.2)/mg,DSC(subtr.2)/mW,Sensit./(uV/mW)
48.871,10.01,-0.04048,0.18287,0.58408
51.871,13.9182,-0.04362329,0.33683,0.58549
54.871,15.49819,-0.04552997,0.39493,0.58688
57.871,16.8362,-0.04419571,0.44665,0.58825
60.871,18.05507,-0.04841094,0.46633,0.58959
63.871,19.2031,-0.04946951,0.49288,0.59091
66.871,20.3113,-0.05178,0.48546,0.5922
69.871,21.3858,-0.05342782,0.52033,0.59347
72.871,22.44068,-0.04853943,0.50833,0.59472
75.871,23.4821,-0.05535201,0.53419,0.59594
78.871,24.51367,-0.05725578,0.52049,0.59714
81.871,25.5339,-0.05933354,0.48519,0.59832
84.871,26.54604,-0.05904692,0.49016,0.59947
87.871,27.54792,-0.06076999,0.47152,0.6006
90.871,28.54478,-0.05952168,0.46973,0.60171
93.871,29.5328,-0.06023007,0.46306,0.60279
96.871,30.51697,-0.05966581,0.45564,0.60385
99.871,31.496,-0.05939533,0.46539,0.60488
102.871,32.4732,-0.06113933,0.46065,0.60589
105.871,33.44781,-0.05998818,0.46567,0.60688
108.871,34.4174,-0.05913,0.47469,0.60784
111.871,35.38552,-0.06052933,0.45607,0.60878
114.871,36.35386,-0.05879493,0.46504,0.60969
117.871,37.3198,-0.0578099,0.46848,0.61058
120.871,38.28451,-0.05977934,0.46726,0.61145
123.871,39.24863,-0.05659895,0.45356,0.61229
126.871,40.20786,-0.05813706,0.46978,0.61311
129.871,41.16762,-0.05662227,0.46653,0.6139
132.871,42.12511,-0.0585731,0.47493,0.61467
135.871,43.08112,-0.05836,0.47223,0.61542
138.871,44.03284,-0.05814998,0.48483,0.61614
141.871,44.98506,-0.05750164,0.49228,0.61684
144.871,45.93358,-0.05747626,0.51711,0.61751
147.871,46.87972,-0.05639005,0.51457,0.61816
150.871,47.82431,-0.056771,0.52179,0.61879
153.871,48.76961,-0.0580322,0.53225,0.61939
156.871,49.71262,-0.05512566,0.54781,0.61997
159.871,50.65733,-0.05946875,0.54592,0.62053
162.871,51.60096,-0.05714998,0.5517,0.62106
165.871,52.54185,-0.05972378,0.56698,0.62157
168.871,53.4836,-0.0586614,0.55802,0.62205
171.871,54.42729,-0.06291854,0.55409,0.62251
174.871,55.36645,-0.06293709,0.56378,0.62295
177.871,56.3094,-0.06527,0.58851,0.62337
180.871,57.24873,-0.06547842,0.57965,0.62376
183.871,58.18623,-0.06397494,0.55618,0.62412
186.871,59.12308,-0.06723977,0.56764,0.62446
189.871,60.06371,-0.07130693,0.5871,0.62478
192.871,61.002,-0.07481042,0.58504,0.62508
195.871,61.9359,-0.07457039,0.58549,0.62535
198.871,62.8718,-0.07854216,0.60342,0.6256
201.871,63.80699,-0.08327587,0.6048,0.62583
204.871,64.74739,-0.08735884,0.60097,0.62603
207.871,65.6824,-0.08977651,0.60046,0.62621
210.871,66.6183,-0.09747194,0.62219,0.62637
213.871,67.5563,-0.10366,0.64121,0.62651
216.871,68.49025,-0.10717,0.66247,0.62662
219.871,69.42415,-0.11492,0.63651,0.62671
222.871,70.3594,-0.12229,0.61473,0.62677
225.871,71.2983,-0.13454,0.63163,0.62681
228.871,72.2351,-0.14096,0.61806,0.62684
231.871,73.17356,-0.15348,0.6259,0.62683
234.871,74.1118,-0.16333,0.62798,0.62681
237.871,75.04763,-0.1767,0.61139,0.62676
240.871,75.9828,-0.1901,0.62619,0.62669
243.871,76.91872,-0.20269,0.64329,0.6266
246.871,77.8582,-0.21709,0.65383,0.62649
249.871,78.79525,-0.23392,0.65007,0.62635
252.871,79.73199,-0.25508,0.64203,0.6262
255.871,80.66915,-0.27532,0.64358,0.62602
258.871,81.60624,-0.29891,0.62422,0.62582
261.871,82.54389,-0.32542,0.6218,0.62559
264.871,83.48522,-0.3556,0.62513,0.62535
267.871,84.42433,-0.39192,0.63798,0.62508
270.871,85.36192,-0.42832,0.6367,0.62479
273.871,86.30256,-0.46841,0.62641,0.62449
276.871,87.2383,-0.50793,0.63882,0.62416
279.871,88.17745,-0.55808,0.65983,0.6238
282.871,89.1168,-0.60591,0.67212,0.62343
285.871,90.05807,-0.65518,0.69022,0.62304
288.871,90.99585,-0.71316,0.69483,0.62263
291.871,91.93984,-0.76946,0.69523,0.62219
294.871,92.88427,-0.83019,0.71771,0.62174
297.871,93.8284,-0.89428,0.74509,0.62126
300.871,94.77108,-0.96185,0.73293,0.62076
303.871,95.7126,-1.03132,0.71897,0.62025
306.871,96.6593,-1.10623,0.75996,0.61971
309.871,97.60731,-1.18472,0.7786,0.61915
312.871,98.55303,-1.26257,0.78562,0.61858
315.871,99.49631,-1.34885,0.81757,0.61798
318.871,100.445,-1.43844,0.85039,0.61737
321.871,101.392,-1.53151,0.86924,0.61673
324.871,102.339,-1.62951,0.89769,0.61608
327.871,103.289,-1.73143,0.90268,0.6154
330.871,104.241,-1.83733,0.9384,0.61471
333.871,105.193,-1.95041,0.94659,0.614
336.871,106.145,-2.06048,0.94379,0.61326
339.871,107.097,-2.16642,0.8921,0.61251
342.871,108.046,-2.27589,0.81546,0.61175
345.871,108.999,-2.36582,0.66937,0.61096
348.871,109.953,-2.44454,0.49078,0.61015
351.871,110.904,-2.48953,0.31572,0.60933
354.871,111.857,-2.5203,0.22921,0.60849
357.871,112.812,-2.53617,0.18183,0.60763
360.871,113.771,-2.55459,0.14544,0.60675
363.871,114.731,-2.56809,0.13594,0.60585
366.871,115.693,-2.57719,0.11895,0.60494
369.871,116.652,-2.58673,0.10038,0.60401
372.871,117.615,-2.59803,0.10057,0.60306
375.871,118.573,-2.61145,0.08470589,0.60209
378.871,119.5374,-2.619,0.0464274,0.60111
381.871,120.501,-2.63235,0.04182001,0.60011
384.871,121.468,-2.64343,0.03453295,0.5991
387.871,122.435,-2.65074,0.02249332,0.59806
390.871,123.4038,-2.65955,0.02074076,0.59701
393.871,124.374,-2.67019,0.01529705,0.59595
396.871,125.342,-2.6781,0.01019253,0.59487
399.871,126.313,-2.68678,0.01351531,0.59377
402.871,127.289,-2.69368,0.01255305,0.59266
405.871,128.261,-2.70562,0.03042355,0.59153
408.871,129.232,-2.71353,0.03868886,0.59038
411.871,130.2011,-2.72154,0.05652267,0.58922
414.871,131.178,-2.73096,0.06621051,0.58805
417.871,132.155,-2.7396,0.06878943,0.58685
420.871,133.132,-2.74136,0.09337202,0.58565
423.871,134.11,-2.75137,0.08486842,0.58443
426.871,135.088,-2.75857,0.12644,0.58319
429.871,136.063,-2.76387,0.12501,0.58194
432.871,137.041,-2.7732,0.14888,0.58068
435.871,138.021,-2.77882,0.17273,0.5794
438.871,139.003,-2.78305,0.1619,0.57811
441.871,139.988,-2.78934,0.17407,0.5768
444.871,140.969,-2.79372,0.18149,0.57548
447.871,141.9492,-2.79623,0.22037,0.57415
450.871,142.934,-2.80216,0.19819,0.5728
453.871,143.92,-2.80644,0.18023,0.57144
456.871,144.9073,-2.80939,0.16647,0.57007
459.871,145.896,-2.81305,0.14468,0.56868
462.871,146.881,-2.81766,0.13643,0.56728
465.871,147.866,-2.8196,0.11204,0.56587
468.871,148.855,-2.82475,0.14546,0.56444
471.871,149.845,-2.82694,0.13611,0.56301
474.871,150.8362,-2.83109,0.12446,0.56156
477.871,151.829,-2.83232,0.07772832,0.5601
480.871,152.817,-2.83835,0.08179712,0.55862
483.871,153.808,-2.8412,0.08153916,0.55714
486.871,154.802,-2.84601,0.07757303,0.55564
489.871,155.795,-2.84746,0.04963988,0.55414
492.871,156.789,-2.84939,0.04957408,0.55262
495.871,157.782,-2.85361,0.03444203,0.55109
498.871,158.777,-2.85494,0.02157217,0.54955
501.871,159.779,-2.85623,0.01473667,0.548
504.871,160.775,-2.86007,0.001722284,0.54643
507.871,161.77,-2.86204,-0.002805732,0.54486
510.871,162.7715,-2.86643,0.01741744,0.54328
513.871,163.769,-2.86864,0.00363106,0.54169
516.871,164.77,-2.86972,-0.00281665,0.54008
519.871,165.771,-2.87335,-0.02175289,0.53847
522.871,166.772,-2.87202,-0.02344706,0.53685
525.871,167.776,-2.87401,-0.04027294,0.53522
528.871,168.782,-2.87795,-0.0642174,0.53358
531.871,169.789,-2.87961,-0.0599388,0.53193
534.871,170.794,-2.87872,-0.07548398,0.53027
537.871,171.799,-2.8774,-0.08174911,0.5286
540.871,172.805,-2.88004,-0.10038,0.52692
543.871,173.8145,-2.89735,-0.11934,0.52524
546.871,174.819,-2.88005,-0.11442,0.52354
549.871,175.831,-2.88675,-0.11108,0.52184
552.871,176.84,-2.88692,-0.12615,0.52013
555.871,177.847,-2.89299,-0.17511,0.51842
558.871,178.857,-2.90102,-0.16425,0.51669
561.871,179.865,-2.90635,-0.15044,0.51496
564.871,180.8776,-2.90099,-0.1236,0.51322
567.871,181.888,-2.90334,-0.13475,0.51147
570.871,182.905,-2.9152,-0.15923,0.50972
573.871,183.914,-2.9079,-0.13776,0.50796
576.871,184.941,-2.90395,-0.07370382,0.50619
579.871,185.959,-2.9084,-0.03939417,0.50441
582.871,186.973,-2.91074,-0.07677144,0.50263
585.871,187.984,-2.91403,-0.09607607,0.50084
588.871,188.9997,-2.92496,-0.13303,0.49905
591.871,190.021,-2.92127,-0.11761,0.49725
594.871,191.0356,-2.92193,-0.11263,0.49545
597.871,192.055,-2.91968,-0.06007642,0.49363
600.871,193.07,-2.92436,-0.03401168,0.49182
603.871,194.087,-2.92523,-0.009878723,0.49
606.871,195.105,-2.92621,-0.01674725,0.48817
609.871,196.134,-2.92512,-0.00489736,0.48634
612.871,197.155,-2.92623,-0.01326696,0.4845
615.871,198.184,-2.92426,0.003976942,0.48266
618.871,199.205,-2.92841,-0.004311372,0.48081
621.871,200.224,-2.93042,0.02552634,0.47896
624.871,201.2474,-2.93167,0.002823951,0.4771
627.871,202.277,-2.93268,0.02140784,0.47524
630.871,203.302,-2.93119,0.009199894,0.47338
633.871,204.331,-2.93312,0.00110902,0.47151
636.871,205.348,-2.93312,0.007850298,0.46964
639.871,206.381,-2.93773,-0.02282718,0.46776
642.871,207.412,-2.9359,-0.04254074,0.46588
645.871,208.441,-2.93861,-0.08239844,0.464
648.871,209.468,-2.94044,-0.16454,0.46211
651.871,210.497,-2.94046,-0.16545,0.46022
654.871,211.527,-2.9408,-0.21546,0.45833
657.871,212.56,-2.94036,-0.23736,0.45644
660.871,213.586,-2.9396,-0.20846,0.45454
663.871,214.6203,-2.94127,-0.20525,0.45264
666.871,215.6554,-2.93997,-0.19715,0.45074
669.871,216.687,-2.94135,-0.17212,0.44884
672.871,217.721,-2.94199,-0.16191,0.44693
675.871,218.7545,-2.94223,-0.12491,0.44502
678.871,219.791,-2.94157,-0.05146636,0.44311
681.871,220.82,-2.94322,-0.06397277,0.4412
684.871,221.8608,-2.94387,-0.03856087,0.43928
687.871,222.897,-2.94465,-0.0653123,0.43737
690.871,223.934,-2.94889,-0.05543782,0.43545
693.871,224.969,-2.95079,-0.05703347,0.43353
696.871,226.001,-2.95017,0.02972511,0.43162
699.871,227.038,-2.95012,0.06244926,0.4297
702.871,228.076,-2.95238,0.07587244,0.42778
705.871,229.114,-2.9544,0.11776,0.42585
708.871,230.143,-2.9532,0.11674,0.42393
711.871,231.182,-2.9533,0.21413,0.42201
714.871,232.226,-2.9532,0.25213,0.42009
717.871,233.264,-2.9543,0.28546,0.41816
720.871,234.305,-2.95632,0.33516,0.41624
723.871,235.347,-2.9566,0.34586,0.41432
726.871,236.391,-2.95824,0.3908,0.4124
729.871,237.434,-2.95846,0.41117,0.41047
732.871,238.477,-2.96107,0.43522,0.40855
735.871,239.514,-2.95968,0.44042,0.40663
738.871,240.562,-2.96197,0.52179,0.40471
741.871,241.609,-2.96142,0.60131,0.40279
744.871,242.65,-2.96263,0.73072,0.40087
746.771,243.31,-2.96427,0.76706,0.39965