Folder: fsri_materials_database/01_Data/LW_GypBoard_Unpainted_Paper/STA/N2/10K_min

Note: 01_Data/README.md
# Materials and Products Database
## 01_Data

Raw data generated from each apparatus are included here in plain-text format. The data is organized first by material, next by the short name of test apparatus used, and where applicable additional filtering by test settings.

### material.json

Each material directory contains a json file of the same name as the material. This file links the data stored in the repository as well as data and graphs produced by the accompanying scripts (__02_Scripts__) to the respective landing page for the material on the front-end website.

File: Lw_Gypsum_Paper_STA_N2_10KData_220103_R3.csv
##Temp./Â°C,Time/min,DSC(subtr.2)/(mW/mg),Mass loss(subtr.2)/mg,Sensit./(uV/mW)
49.6,10.00917,0.03015711,-0.07371,1.07521
52.5,11.26266,0.12177,-0.07922894,1.0737
55.4,11.68656,0.17046,-0.08242407,1.07219
58.3,12.04665,0.19997,-0.08389933,1.07068
61.2,12.38181,0.2209,-0.08490411,1.06917
64.1,12.70427,0.23852,-0.08677922,1.06766
67.0,13.02058,0.25235,-0.08945069,1.06616
69.9,13.33215,0.27263,-0.0907087,1.06466
72.8,13.63959,0.28723,-0.0933395,1.06315
75.7,13.94325,0.30142,-0.09729698,1.06165
78.6,14.24562,0.31345,-0.09993,1.06015
81.5,14.5458,0.32789,-0.10259,1.05866
84.4,14.8439,0.34258,-0.10543,1.05716
87.3,15.13905,0.36243,-0.11044,1.05567
90.2,15.43111,0.37219,-0.11327,1.05417
93.1,15.72115,0.37593,-0.11802,1.05268
96.0,16.00887,0.37364,-0.12195,1.05119
98.9,16.29606,0.36544,-0.12455,1.0497
101.8,16.58219,0.3568,-0.12809,1.04821
104.7,16.8675,0.34689,-0.13184,1.04672
107.6,17.15239,0.33658,-0.13481,1.04524
110.5,17.43759,0.32606,-0.13697,1.04375
113.4,17.72233,0.31987,-0.13971,1.04227
116.3,18.006,0.31519,-0.14105,1.04079
119.2,18.28878,0.31501,-0.145,1.0393
122.1,18.57193,0.30824,-0.14599,1.03783
125.0,18.8537,0.2995,-0.14763,1.03635
127.9,19.1358,0.2902,-0.14764,1.03487
130.8,19.4174,0.28187,-0.15027,1.03339
133.7,19.6974,0.27868,-0.15159,1.03192
136.6,19.97757,0.27673,-0.15257,1.03044
139.5,20.25783,0.27196,-0.15122,1.02897
142.4,20.53771,0.26921,-0.15257,1.0275
145.3,20.81786,0.27171,-0.15487,1.02603
148.2,21.09732,0.27099,-0.15488,1.02456
151.1,21.37669,0.27296,-0.15488,1.02309
154.0,21.65615,0.27307,-0.15485,1.02162
156.9,21.93471,0.27626,-0.15717,1.02015
159.8,22.21312,0.27753,-0.15628,1.01868
162.7,22.49154,0.27871,-0.15751,1.01722
165.6,22.76971,0.28048,-0.15882,1.01575
168.5,23.0488,0.28065,-0.1575,1.01429
171.4,23.3273,0.28296,-0.15874,1.01282
174.3,23.60528,0.2874,-0.15949,1.01136
177.2,23.8841,0.28774,-0.16011,1.0099
180.1,24.1615,0.29119,-0.16285,1.00843
183.0,24.43852,0.29518,-0.1608,1.00697
185.9,24.71576,0.29617,-0.16343,1.00551
188.8,24.99225,0.29905,-0.16343,1.00405
191.7,25.2687,0.30077,-0.16606,1.00259
194.6,25.54457,0.30686,-0.16606,1.00112
197.5,25.8198,0.3092,-0.16738,0.99966
200.4,26.09535,0.31245,-0.16705,0.9982
203.3,26.3711,0.31447,-0.16869,0.99674
206.2,26.6465,0.31565,-0.17067,0.99528
209.1,26.9228,0.31773,-0.17199,0.99382
212.0,27.19877,0.3176,-0.17298,0.99236
214.9,27.4761,0.32002,-0.17502,0.9909
217.8,27.75273,0.32161,-0.17659,0.98944
220.7,28.0289,0.32585,-0.18054,0.98797
223.6,28.30528,0.32702,-0.18186,0.98651
226.5,28.5823,0.32816,-0.18482,0.98505
229.4,28.85912,0.33043,-0.18877,0.98358
232.3,29.13675,0.33113,-0.19173,0.98212
235.2,29.4142,0.33394,-0.19436,0.98066
238.1,29.6912,0.34033,-0.19781,0.97919
241.0,29.96919,0.34334,-0.20236,0.97772
243.9,30.24713,0.34235,-0.20763,0.97626
246.8,30.52497,0.33587,-0.21557,0.97479
249.7,30.8026,0.33734,-0.22331,0.97332
252.6,31.0792,0.336,-0.23232,0.97185
255.5,31.35554,0.33727,-0.24014,0.97038
258.4,31.63205,0.34348,-0.25075,0.96891
261.3,31.90905,0.34324,-0.26357,0.96743
264.2,32.1858,0.34515,-0.27541,0.96596
267.1,32.4636,0.3504,-0.29019,0.96448
270.0,32.74154,0.35611,-0.30856,0.963
272.9,33.01939,0.36877,-0.33367,0.96152
275.8,33.2969,0.38198,-0.35009,0.96004
278.7,33.57544,0.39086,-0.36829,0.95856
281.6,33.85283,0.40623,-0.39825,0.95707
284.5,34.13029,0.42138,-0.43031,0.95558
287.4,34.40894,0.4378,-0.46733,0.95409
290.3,34.6876,0.45686,-0.5061,0.9526
293.2,34.9657,0.472,-0.5391,0.95111
296.1,35.2431,0.48963,-0.57768,0.94961
299.0,35.521,0.50753,-0.63365,0.94812
301.9,35.79887,0.5225,-0.68864,0.94662
304.8,36.07707,0.54049,-0.7464,0.94511
307.7,36.35542,0.55507,-0.80479,0.94361
310.6,36.63366,0.57064,-0.86798,0.9421
313.5,36.9131,0.58461,-0.93509,0.94059
316.4,37.19266,0.59755,-1.00533,0.93908
319.3,37.47302,0.61079,-1.07823,0.93756
322.2,37.7538,0.62729,-1.15515,0.93604
325.1,38.03281,0.64663,-1.23764,0.93452
328.0,38.31266,0.67227,-1.32354,0.93299
330.9,38.59323,0.69632,-1.41403,0.93146
333.8,38.8727,0.72494,-1.5085,0.92993
336.7,39.15275,0.7588,-1.61107,0.9284
339.6,39.43327,0.79049,-1.71791,0.92686
342.5,39.71452,0.81699,-1.83258,0.92531
345.4,39.99548,0.83769,-1.95325,0.92377
348.3,40.2759,0.84459,-2.07567,0.92222
351.2,40.5566,0.82422,-2.19871,0.92067
354.1,40.83661,0.773,-2.31798,0.91911
357.0,41.11645,0.69003,-2.42496,0.91755
359.9,41.39659,0.58474,-2.51842,0.91598
362.8,41.67642,0.46644,-2.5962,0.91441
365.7,41.9562,0.35349,-2.65541,0.91284
368.6,42.23612,0.252,-2.69829,0.91126
371.5,42.51635,0.17076,-2.72503,0.90968
374.4,42.7965,0.11736,-2.74461,0.9081
377.3,43.07832,0.08692553,-2.75663,0.9065
380.2,43.36026,0.07230856,-2.76551,0.90491
383.1,43.6432,0.06233969,-2.77389,0.90331
386.0,43.92573,0.05627881,-2.78183,0.90171
388.9,44.2093,0.05151134,-2.79261,0.9001
391.8,44.49197,0.04572003,-2.7996,0.89848
394.7,44.7746,0.04386931,-2.80586,0.89686
397.6,45.05733,0.03870676,-2.81413,0.89524
400.5,45.34049,0.03642416,-2.82123,0.89361
403.4,45.62355,0.0348194,-2.83037,0.89198
406.3,45.90683,0.03240594,-2.83682,0.89034
409.2,46.1905,0.02814102,-2.84513,0.88869
412.1,46.47396,0.02284627,-2.8529,0.88704
415.0,46.7574,0.02510079,-2.85939,0.88539
417.9,47.0404,0.02621261,-2.86687,0.88372
420.8,47.32332,0.02390128,-2.87338,0.88206
423.7,47.6061,0.02697189,-2.88124,0.88039
426.6,47.88903,0.02647359,-2.88781,0.87871
429.5,48.173,0.02767457,-2.89452,0.87702
432.4,48.45689,0.02925164,-2.90053,0.87534
435.3,48.74174,0.03032954,-2.906,0.87364
438.2,49.02655,0.03162682,-2.91146,0.87194
441.1,49.31175,0.0343656,-2.91806,0.87023
444.0,49.59666,0.03564521,-2.92335,0.86852
446.9,49.8822,0.0391648,-2.92805,0.8668
449.8,50.1683,0.0375406,-2.93454,0.86507
452.7,50.45365,0.0416401,-2.93894,0.86334
455.6,50.7385,0.04332732,-2.94375,0.8616
458.5,51.02346,0.04264445,-2.94891,0.85986
461.4,51.3087,0.04403652,-2.95297,0.85811
464.3,51.5937,0.04497769,-2.95689,0.85635
467.2,51.87958,0.04715696,-2.95955,0.85458
470.1,52.1659,0.04600225,-2.96275,0.85281
473.0,52.4521,0.04852004,-2.96872,0.85104
475.9,52.7389,0.04969201,-2.97337,0.84925
478.8,53.02601,0.05119585,-2.97536,0.84746
481.7,53.31253,0.0513002,-2.97961,0.84566
484.6,53.59875,0.05044537,-2.98259,0.84386
487.5,53.88488,0.05358476,-2.98524,0.84205
490.4,54.1705,0.06099384,-2.98884,0.84023
493.3,54.45655,0.07605503,-2.99279,0.8384
496.2,54.74269,0.08153452,-2.99443,0.83657
499.1,55.02991,0.09311713,-2.99838,0.83473
502.0,55.3172,0.09378232,-3.00001,0.83288
504.9,55.60431,0.09476947,-3.00339,0.83103
507.8,55.89186,0.09792124,-3.00923,0.82917
510.7,56.1798,0.08275747,-3.00923,0.8273
513.6,56.4674,0.06666196,-3.01329,0.82542
516.5,56.75473,0.05886364,-3.01385,0.82354
519.4,57.0426,0.05822834,-3.01725,0.82165
522.3,57.3304,0.05832662,-3.01988,0.81975
525.2,57.6187,0.05455791,-3.02119,0.81785
528.1,57.9073,0.04945098,-3.0237,0.81593
531.0,58.1956,0.04701443,-3.02755,0.81401
533.9,58.4848,0.03995403,-3.02766,0.81209
536.8,58.7738,0.02887706,-3.03282,0.81015
539.7,59.06204,0.02499928,-3.03378,0.80821
542.6,59.35066,0.01609781,-3.03559,0.80626
545.5,59.63921,0.0068708,-3.03512,0.8043
548.4,59.92748,0.001438698,-3.0386,0.80233
551.3,60.2161,-0.009039745,-3.04033,0.80036
554.2,60.50484,-0.01494556,-3.04051,0.79838
557.1,60.79445,-0.01717544,-3.04327,0.79639
560.0,61.08401,-0.02016785,-3.0458,0.79439
562.9,61.37334,-0.02397836,-3.04892,0.79239
565.8,61.6631,-0.02837121,-3.05121,0.79038
568.7,61.9521,-0.02689571,-3.05339,0.78836
571.6,62.24125,-0.02841009,-3.05651,0.78633
574.5,62.53075,-0.02978079,-3.05757,0.78429
577.4,62.82114,-0.02703556,-3.05816,0.78225
580.3,63.1122,-0.02729367,-3.06046,0.7802
583.2,63.40217,-0.02609516,-3.06027,0.77814
586.1,63.6921,-0.02442305,-3.06405,0.77607
589.0,63.981,-0.01963243,-3.06671,0.774
591.9,64.2697,-0.01277069,-3.06705,0.77191
594.8,64.55808,-0.006166856,-3.06903,0.76982
597.7,64.84668,-0.003203164,-3.07264,0.76772
600.6,65.13679,0.002127211,-3.07427,0.76562
603.5,65.42734,0.008768887,-3.07691,0.7635
606.4,65.71885,0.01403789,-3.07856,0.76138
609.3,66.01079,0.02386385,-3.08251,0.75925
612.2,66.30334,0.02703573,-3.08251,0.75712
615.1,66.59505,0.03381433,-3.08646,0.75497
618.0,66.8865,0.03672323,-3.08678,0.75282
620.9,67.17748,0.04359293,-3.09073,0.75066
623.8,67.46879,0.05175611,-3.09039,0.74849
626.7,67.75985,0.05853633,-3.09431,0.74631
629.6,68.04983,0.06030391,-3.09698,0.74413
632.5,68.34089,0.07207836,-3.10225,0.74194
635.4,68.63171,0.08325278,-3.10358,0.73974
638.3,68.92362,0.09835317,-3.1085,0.73753
641.2,69.21557,0.11063,-3.11113,0.73531
644.1,69.50713,0.12297,-3.11425,0.73309
647.0,69.79866,0.1361,-3.11837,0.73086
649.9,70.0901,0.15146,-3.12243,0.72862
652.8,70.3817,0.16884,-3.12705,0.72638
655.7,70.6725,0.17791,-3.1311,0.72413
658.6,70.96359,0.18671,-3.13497,0.72187
661.5,71.25509,0.19284,-3.13986,0.7196
664.4,71.54828,0.2009,-3.14492,0.71732
667.3,71.84265,0.20034,-3.15019,0.71504
670.2,72.1356,0.19789,-3.1543,0.71275
673.1,72.4284,0.19507,-3.15742,0.71045
676.0,72.7213,0.19524,-3.16221,0.70815
678.9,73.01445,0.18832,-3.16664,0.70584
681.8,73.30735,0.17426,-3.1699,0.70352
684.7,73.60034,0.14914,-3.17446,0.70119
687.6,73.89323,0.12454,-3.17851,0.69886
690.5,74.18687,0.10315,-3.18205,0.69652
693.4,74.4804,0.09367696,-3.18441,0.69417
696.3,74.77369,0.08747325,-3.18661,0.69181
699.2,75.0668,0.08713331,-3.18933,0.68945
702.1,75.35889,0.08688735,-3.19462,0.68708
705.0,75.65038,0.08531237,-3.19592,0.68471
707.9,75.94215,0.08802538,-3.19724,0.68233
710.8,76.2351,0.08854739,-3.20084,0.67994
713.7,76.52835,0.08752266,-3.20382,0.67754
716.6,76.8219,0.08741289,-3.20646,0.67514
719.5,77.1152,0.0897746,-3.20845,0.67273
722.4,77.40894,0.08714147,-3.20974,0.67032
725.3,77.70225,0.09199047,-3.20974,0.66789
728.2,77.9954,0.0987863,-3.21236,0.66547
731.1,78.28962,0.09178567,-3.21503,0.66303
734.0,78.58425,0.094529,-3.21666,0.66059
736.9,78.87828,0.0930613,-3.21796,0.65814
739.8,79.17236,0.09023181,-3.22029,0.65569
742.7,79.46635,0.09042469,-3.22027,0.65323
745.6,79.76004,0.08651762,-3.22093,0.65077
747.9,79.9927,0.08576111,-3.22324,0.64881