Folder: fsri_materials_database/01_Data/LW_GypBoard_Unpainted_Paper/STA/N2/30K_min

Note: 01_Data/README.md
# Materials and Products Database
## 01_Data

Raw data generated from each apparatus are included here in plain-text format. The data is organized first by material, next by the short name of test apparatus used, and where applicable additional filtering by test settings.

### material.json

Each material directory contains a json file of the same name as the material. This file links the data stored in the repository as well as data and graphs produced by the accompanying scripts (__02_Scripts__) to the respective landing page for the material on the front-end website.

File: Lw_Gypsum_Paper_STA_N2_30KData_220203_R1.csv
##Temp./Â°C,Time/min,DSC(subtr.2)/(mW/mg),Mass loss(subtr.2)/mg,Sensit./(uV/mW)
48.727,10.01,0.01695375,-0.01536,1.08895
51.727,10.85811,0.15119,-0.01727354,1.08642
54.727,11.0844,0.25121,-0.01618282,1.08391
57.727,11.25721,0.33083,-0.01700035,1.08142
60.727,11.40617,0.40129,-0.01787507,1.07893
63.727,11.54092,0.46083,-0.0164547,1.07647
66.727,11.6667,0.51241,-0.01657675,1.07402
69.727,11.7866,0.55939,-0.01642636,1.07159
72.727,11.90198,0.60196,-0.01683426,1.06917
75.727,12.01474,0.6461,-0.01702663,1.06677
78.727,12.12492,0.68392,-0.01830043,1.06438
81.727,12.23316,0.72143,-0.01941665,1.06201
84.727,12.33998,0.7591,-0.02227083,1.05965
87.727,12.44515,0.79844,-0.02236322,1.05731
90.727,12.54927,0.83789,-0.02360356,1.05498
93.727,12.6527,0.88109,-0.02492391,1.05267
96.727,12.75527,0.92702,-0.02710363,1.05038
99.727,12.85719,0.97419,-0.02884858,1.0481
102.727,12.95824,1.01432,-0.03141058,1.04583
105.727,13.05993,1.0457,-0.03412037,1.04358
108.727,13.1608,1.06617,-0.03675312,1.04134
111.727,13.2614,1.07331,-0.04068354,1.03912
114.727,13.362,1.07561,-0.04183225,1.03692
117.727,13.4622,1.06801,-0.04463906,1.03473
120.727,13.56204,1.06117,-0.04561812,1.03255
123.727,13.66128,1.0495,-0.04979609,1.03039
126.727,13.76007,1.03729,-0.05134002,1.02825
129.727,13.8586,1.02841,-0.0526519,1.02611
132.727,13.9566,1.02385,-0.05396873,1.024
135.727,14.0542,1.02028,-0.05538625,1.02189
138.727,14.1511,1.00792,-0.05529268,1.0198
141.727,14.24779,0.99182,-0.05652092,1.01773
144.727,14.3441,0.97297,-0.05759,1.01567
147.727,14.44006,0.95842,-0.0582547,1.01362
150.727,14.53563,0.9438,-0.0574225,1.01159
153.727,14.63105,0.93911,-0.05857012,1.00957
156.727,14.72623,0.93102,-0.05988971,1.00756
159.727,14.8207,0.93111,-0.05955384,1.00557
162.727,14.9154,0.93294,-0.06121333,1.00359
165.727,15.00964,0.93822,-0.06151054,1.00162
168.727,15.1037,0.94444,-0.06253245,0.99967
171.727,15.1974,0.94942,-0.06251734,0.99773
174.727,15.2911,0.95607,-0.06117002,0.9958
177.727,15.38429,0.96573,-0.05985654,0.99389
180.727,15.47734,0.97161,-0.06121002,0.99198
183.727,15.5701,0.98122,-0.06253049,0.99009
186.727,15.66278,0.98757,-0.06252924,0.98822
189.727,15.75504,0.99382,-0.06186968,0.98635
192.727,15.84715,1.00231,-0.06386806,0.9845
195.727,15.93914,1.00908,-0.06385305,0.98266
198.727,16.03121,1.018,-0.06255996,0.98083
201.727,16.12298,1.02536,-0.06252676,0.97901
204.727,16.21465,1.03193,-0.06384816,0.9772
207.727,16.3062,1.03937,-0.06557702,0.9754
210.727,16.3979,1.04688,-0.06581152,0.97362
213.727,16.48926,1.05245,-0.06712965,0.97185
216.727,16.5806,1.06029,-0.06713283,0.97008
219.727,16.67175,1.0698,-0.06894466,0.96833
222.727,16.7631,1.07663,-0.07108802,0.96659
225.727,16.8541,1.08464,-0.07282765,0.96486
228.727,16.94509,1.09064,-0.07468712,0.96313
231.727,17.036,1.09849,-0.07464343,0.96142
234.727,17.12697,1.10162,-0.0760136,0.95972
237.727,17.21779,1.10903,-0.07601001,0.95803
240.727,17.30835,1.11524,-0.07997141,0.95634
243.727,17.39903,1.1204,-0.08314237,0.95467
246.727,17.48945,1.12443,-0.08508471,0.953
249.727,17.58021,1.12735,-0.08807592,0.95135
252.727,17.67076,1.12561,-0.09383953,0.9497
255.727,17.76105,1.12237,-0.09856443,0.94806
258.727,17.85136,1.12634,-0.10299,0.94643
261.727,17.9418,1.12789,-0.10705,0.9448
264.727,18.03204,1.13011,-0.11347,0.94319
267.727,18.12239,1.13073,-0.12028,0.94158
270.727,18.21259,1.13242,-0.12663,0.93998
273.727,18.303,1.13854,-0.13658,0.93839
276.727,18.39325,1.14632,-0.14663,0.9368
279.727,18.48359,1.15607,-0.15901,0.93522
282.727,18.57399,1.16723,-0.17225,0.93365
285.727,18.66452,1.18339,-0.18696,0.93208
288.727,18.75515,1.20551,-0.20614,0.93052
291.727,18.8455,1.23182,-0.22401,0.92897
294.727,18.93616,1.26191,-0.24578,0.92742
297.727,19.02691,1.29955,-0.27268,0.92588
300.727,19.11768,1.33926,-0.30093,0.92434
303.727,19.20844,1.3841,-0.33254,0.92281
306.727,19.29949,1.42994,-0.369,0.92128
309.727,19.39037,1.47521,-0.40653,0.91976
312.727,19.4812,1.52395,-0.45087,0.91824
315.727,19.57228,1.57161,-0.50125,0.91673
318.727,19.6635,1.62063,-0.55168,0.91522
321.727,19.75453,1.66799,-0.60402,0.91372
324.727,19.8457,1.71139,-0.66216,0.91222
327.727,19.93701,1.75631,-0.72605,0.91072
330.727,20.02826,1.79675,-0.79223,0.90922
333.727,20.11979,1.83944,-0.86,0.90773
336.727,20.2111,1.88081,-0.93533,0.90625
339.727,20.3026,1.92211,-1.01594,0.90476
342.727,20.3944,1.96952,-1.09548,0.90328
345.727,20.4859,2.01628,-1.18001,0.9018
348.727,20.57787,2.06795,-1.27099,0.90032
351.727,20.66976,2.12497,-1.36419,0.89884
354.727,20.76181,2.18518,-1.46169,0.89737
357.727,20.8538,2.25521,-1.56402,0.89589
360.727,20.94592,2.31975,-1.67576,0.89442
363.727,21.0382,2.36829,-1.78766,0.89295
366.727,21.1305,2.39927,-1.9058,0.89148
369.727,21.223,2.38364,-2.02603,0.89001
372.727,21.31549,2.30845,-2.1411,0.88854
375.727,21.40789,2.16724,-2.25214,0.88707
378.727,21.50044,1.95709,-2.35674,0.8856
381.727,21.59264,1.70077,-2.44334,0.88413
384.727,21.68519,1.4113,-2.51672,0.88266
387.727,21.7774,1.11505,-2.57557,0.88119
390.727,21.8699,0.83349,-2.61686,0.87972
393.727,21.9622,0.60793,-2.64527,0.87825
396.727,22.05469,0.44832,-2.6648,0.87678
399.727,22.14733,0.34237,-2.67762,0.8753
402.727,22.24006,0.27894,-2.68952,0.87382
405.727,22.33301,0.23437,-2.69566,0.87235
408.727,22.42625,0.20452,-2.70088,0.87087
411.727,22.51942,0.17998,-2.71295,0.86938
414.727,22.61285,0.16348,-2.72027,0.8679
417.727,22.7064,0.14338,-2.72773,0.86641
420.727,22.8,0.12937,-2.73514,0.86492
423.727,22.89359,0.11638,-2.74377,0.86343
426.727,22.9875,0.10043,-2.75082,0.86193
429.727,23.0812,0.08881721,-2.75808,0.86043
432.727,23.1752,0.08232406,-2.76421,0.85893
435.727,23.26951,0.07283901,-2.77229,0.85742
438.727,23.36394,0.06855106,-2.7812,0.85591
441.727,23.45828,0.06652974,-2.78442,0.85439
444.727,23.5528,0.06800764,-2.79655,0.85287
447.727,23.64741,0.06561295,-2.80129,0.85135
450.727,23.7422,0.07212659,-2.80884,0.84982
453.727,23.83707,0.07737594,-2.81724,0.84828
456.727,23.93202,0.08131143,-2.82346,0.84675
459.727,24.02705,0.09136303,-2.83113,0.8452
462.727,24.1223,0.09734476,-2.83781,0.84365
465.727,24.2176,0.1053,-2.84135,0.8421
468.727,24.31269,0.10827,-2.84745,0.84054
471.727,24.40837,0.1119,-2.85341,0.83897
474.727,24.50401,0.11477,-2.85834,0.8374
477.727,24.59982,0.11559,-2.86478,0.83582
480.727,24.69576,0.11696,-2.86936,0.83423
483.727,24.79174,0.11711,-2.8739,0.83264
486.727,24.88776,0.11845,-2.8782,0.83104
489.727,24.98372,0.1186,-2.88182,0.82944
492.727,25.08006,0.1197,-2.88705,0.82782
495.727,25.17619,0.1176,-2.89035,0.82621
498.727,25.2726,0.1194,-2.89295,0.82458
501.727,25.36893,0.11911,-2.89717,0.82294
504.727,25.4651,0.12063,-2.89992,0.8213
507.727,25.5618,0.11844,-2.90455,0.81965
510.727,25.65837,0.11887,-2.90719,0.81799
513.727,25.7549,0.11887,-2.91246,0.81633
516.727,25.85146,0.11763,-2.91578,0.81465
519.727,25.9482,0.11877,-2.91983,0.81297
522.727,26.04466,0.11886,-2.92104,0.81128
525.727,26.1413,0.12031,-2.9233,0.80958
528.727,26.2378,0.1164,-2.92711,0.80788
531.727,26.3346,0.11452,-2.92702,0.80616
534.727,26.4314,0.11572,-2.93074,0.80443
537.727,26.5281,0.11327,-2.93297,0.8027
540.727,26.625,0.12246,-2.93635,0.80095
543.727,26.72198,0.13168,-2.93854,0.7992
546.727,26.8188,0.13862,-2.94124,0.79744
549.727,26.91592,0.14676,-2.94431,0.79567
552.727,27.013,0.15192,-2.94728,0.79388
555.727,27.11005,0.15649,-2.9499,0.79209
558.727,27.2075,0.15597,-2.95121,0.79029
561.727,27.3049,0.15853,-2.95409,0.78848
564.727,27.4021,0.15369,-2.95692,0.78666
567.727,27.49982,0.14644,-2.95955,0.78483
570.727,27.5975,0.13916,-2.96228,0.78299
573.727,27.6951,0.13,-2.96225,0.78113
576.727,27.79311,0.12239,-2.96475,0.77927
579.727,27.89112,0.11558,-2.96698,0.7774
582.727,27.98915,0.10511,-2.96913,0.77552
585.727,28.0873,0.10402,-2.96957,0.77362
588.727,28.1854,0.10034,-2.97347,0.77172
591.727,28.28336,0.09784962,-2.97752,0.7698
594.727,28.38188,0.09197051,-2.97764,0.76788
597.727,28.4803,0.08834582,-2.97886,0.76594
600.727,28.57875,0.08702986,-2.98174,0.76399
603.727,28.67732,0.08279075,-2.98326,0.76203
606.727,28.7759,0.08281138,-2.98599,0.76006
609.727,28.8744,0.08039773,-2.9861,0.75808
612.727,28.97327,0.07911243,-2.98722,0.75609
615.727,29.07198,0.07837627,-2.98862,0.75408
618.727,29.17075,0.07964363,-2.99136,0.75207
621.727,29.26963,0.07763545,-2.99232,0.75004
624.727,29.36843,0.08665677,-2.99496,0.748
627.727,29.46722,0.09208236,-2.99697,0.74595
630.727,29.5661,0.09697432,-2.99906,0.74389
633.727,29.6652,0.09818761,-3.00179,0.74182
636.727,29.7643,0.10327,-3.00457,0.73974
639.727,29.8635,0.10548,-3.00713,0.73764
642.727,29.96255,0.11495,-3.01111,0.73553
645.727,30.0616,0.1206,-3.01243,0.73341
648.727,30.16106,0.1272,-3.01572,0.73128
651.727,30.2604,0.1319,-3.01801,0.72914
654.727,30.3598,0.1352,-3.01967,0.72699
657.727,30.4589,0.13883,-3.02252,0.72482
660.727,30.55817,0.14406,-3.02465,0.72265
663.727,30.6575,0.15578,-3.02681,0.72046
666.727,30.7568,0.16316,-3.02934,0.71826
669.727,30.8562,0.17549,-3.03373,0.71604
672.727,30.95546,0.19875,-3.03686,0.71382
675.727,31.0547,0.21867,-3.04126,0.71159
678.727,31.1541,0.24208,-3.0413,0.70934
681.727,31.25344,0.27481,-3.04499,0.70708
684.727,31.35277,0.30491,-3.0489,0.70481
687.727,31.45236,0.33797,-3.05197,0.70253
690.727,31.5519,0.37094,-3.05734,0.70023
693.727,31.65168,0.40255,-3.06062,0.69793
696.727,31.7515,0.43365,-3.06845,0.69561
699.727,31.851,0.45897,-3.07312,0.69328
702.727,31.95102,0.47041,-3.07804,0.69094
705.727,32.05087,0.47611,-3.07962,0.68859
708.727,32.15074,0.47709,-3.08406,0.68623
711.727,32.2508,0.47343,-3.09007,0.68385
714.727,32.35062,0.46168,-3.09552,0.68147
717.727,32.45092,0.43227,-3.10109,0.67907
720.727,32.55089,0.38164,-3.10435,0.67666
723.727,32.65096,0.31071,-3.1078,0.67424
726.727,32.75101,0.22587,-3.11007,0.67181
729.727,32.85107,0.17164,-3.11484,0.66937
732.727,32.95115,0.1321,-3.11674,0.66691
735.727,33.05129,0.1013,-3.11936,0.66445
738.727,33.15146,0.08128761,-3.12376,0.66197
741.727,33.25144,0.06524846,-3.1265,0.65949
744.127,33.33262,0.05056394,-3.13039,0.65749

File: Lw_Gypsum_Paper_STA_N2_30KData_220303_R2.csv
##Temp./Â°C,Time/min,DSC(subtr.2)/(mW/mg),Mass loss(subtr.2)/mg,Sensit./(uV/mW)
48.763,10.01,0.01327913,-0.00054,1.08892
51.763,10.85845,0.15727,-0.000319406,1.08639
54.763,11.08425,0.26127,-8.734713e-05,1.08388
57.763,11.2574,0.3433,-0.00172017,1.08139
60.763,11.40618,0.41056,1.075435e-05,1.07891
63.763,11.54145,0.47143,-0.00253414,1.07644
66.763,11.66741,0.52414,-0.00149019,1.07399
69.763,11.78754,0.57362,-0.003564486,1.07156
72.763,11.90342,0.61821,-0.003777718,1.06914
75.763,12.01629,0.66016,-0.00402048,1.06674
78.763,12.1264,0.70113,-0.001812333,1.06435
81.763,12.2348,0.73733,-0.003312771,1.06198
84.763,12.3413,0.77648,-0.00569575,1.05962
87.763,12.44645,0.81871,-0.007104905,1.05728
90.763,12.55076,0.8581,-0.008609664,1.05495
93.763,12.6538,0.90265,-0.01022224,1.05264
96.763,12.75666,0.95039,-0.01155455,1.05035
99.763,12.85858,0.9947,-0.01337089,1.04807
102.763,12.96015,1.03302,-0.0154676,1.0458
105.763,13.06156,1.06133,-0.01814251,1.04355
108.763,13.1619,1.07993,-0.02201949,1.04132
111.763,13.263,1.08675,-0.02335783,1.0391
114.763,13.3635,1.08991,-0.02586797,1.03689
117.763,13.46379,1.08339,-0.02868866,1.0347
120.763,13.56365,1.07921,-0.02997544,1.03253
123.763,13.66296,1.067,-0.03286098,1.03037
126.763,13.76172,1.06143,-0.03388754,1.02822
129.763,13.86005,1.05562,-0.03652999,1.02609
132.763,13.9579,1.05284,-0.03881258,1.02397
135.763,14.05546,1.05054,-0.04047015,1.02187
138.763,14.1524,1.03783,-0.04047006,1.01978
141.763,14.2488,1.02327,-0.04178959,1.0177
144.763,14.34491,1.00903,-0.0417416,1.01564
147.763,14.4405,0.99444,-0.04408354,1.01359
150.763,14.5362,0.984,-0.0454,1.01156
153.763,14.6313,0.97584,-0.04531027,1.00954
156.763,14.72587,0.97398,-0.04443351,1.00754
159.763,14.82045,0.96911,-0.04573196,1.00554
162.763,14.9148,0.97055,-0.04704999,1.00356
165.763,15.0092,0.97242,-0.04643855,1.0016
168.763,15.10312,0.97701,-0.0464,0.99964
171.763,15.19696,0.98059,-0.0464,0.9977
174.763,15.2904,0.9892,-0.04640013,0.99578
177.763,15.3836,0.99473,-0.04846081,0.99386
180.763,15.4764,1.00013,-0.0479888,0.99196
183.763,15.5692,1.00895,-0.04804007,0.99007
186.763,15.66156,1.0159,-0.04900233,0.98819
189.763,15.7538,1.02156,-0.04902,0.98633
192.763,15.846,1.03075,-0.04902,0.98447
195.763,15.93784,1.04177,-0.04896039,0.98263
198.763,16.02972,1.04923,-0.04903035,0.9808
201.763,16.1214,1.05798,-0.04949587,0.97899
204.763,16.21296,1.069,-0.05165999,0.97718
207.763,16.30441,1.07575,-0.0530762,0.97538
210.763,16.39582,1.08709,-0.05408037,0.9736
213.763,16.48704,1.09581,-0.05429034,0.97182
216.763,16.57825,1.10573,-0.05395711,0.97006
219.763,16.6692,1.11493,-0.05424945,0.96831
222.763,16.76025,1.11992,-0.05560103,0.96657
225.763,16.8509,1.13267,-0.05823731,0.96484
228.763,16.94214,1.13634,-0.05708132,0.96311
231.763,17.0329,1.14368,-0.05824109,0.9614
234.763,17.12355,1.15295,-0.06233975,0.9597
237.763,17.2141,1.15808,-0.06350515,0.95801
240.763,17.30467,1.16448,-0.0656433,0.95632
243.763,17.39535,1.17093,-0.07016892,0.95465
246.763,17.48583,1.17514,-0.07146742,0.95298
249.763,17.57614,1.17862,-0.0759403,0.95133
252.763,17.66667,1.18232,-0.07947118,0.94968
255.763,17.75675,1.17931,-0.08332884,0.94804
258.763,17.84734,1.18379,-0.08956899,0.94641
261.763,17.9377,1.18131,-0.09416565,0.94479
264.763,18.02794,1.18093,-0.10085,0.94317
267.763,18.11819,1.18184,-0.10868,0.94156
270.763,18.20828,1.18593,-0.1157,0.93996
273.763,18.29866,1.18713,-0.1259,0.93837
276.763,18.38867,1.19302,-0.13489,0.93678
279.763,18.4792,1.20246,-0.14488,0.9352
282.763,18.56956,1.21151,-0.15784,0.93363
285.763,18.66,1.22599,-0.17352,0.93206
288.763,18.75036,1.24813,-0.19138,0.9305
291.763,18.84082,1.27242,-0.21474,0.92895
294.763,18.93126,1.30146,-0.23435,0.9274
297.763,19.02177,1.33724,-0.25984,0.92586
300.763,19.1124,1.37477,-0.28641,0.92432
303.763,19.2031,1.41627,-0.31831,0.92279
306.763,19.294,1.45967,-0.35237,0.92127
309.763,19.3846,1.50518,-0.39225,0.91974
312.763,19.47561,1.55396,-0.43612,0.91823
315.763,19.5666,1.59899,-0.48635,0.91671
318.763,19.6575,1.64535,-0.53899,0.9152
321.763,19.74894,1.68932,-0.59311,0.9137
324.763,19.83999,1.73282,-0.65054,0.9122
327.763,19.93145,1.7747,-0.71306,0.9107
330.763,20.02311,1.81198,-0.78131,0.90921
333.763,20.11455,1.85487,-0.85123,0.90772
336.763,20.20618,1.89427,-0.92242,0.90623
339.763,20.29815,1.93406,-1.00187,0.90474
342.763,20.38999,1.97618,-1.08446,0.90326
345.763,20.482,2.01993,-1.1657,0.90178
348.763,20.57405,2.06977,-1.25598,0.9003
351.763,20.6661,2.12381,-1.34912,0.89882
354.763,20.7584,2.1835,-1.44501,0.89735
357.763,20.85071,2.24705,-1.5495,0.89588
360.763,20.9432,2.30721,-1.66076,0.8944
363.763,21.0356,2.35518,-1.77038,0.89293
366.763,21.12803,2.37916,-1.88662,0.89146
369.763,21.22045,2.36006,-2.00497,0.88999
372.763,21.31325,2.28496,-2.11748,0.88852
375.763,21.4058,2.14107,-2.22581,0.88705
378.763,21.49844,1.93588,-2.32778,0.88558
381.763,21.59105,1.6862,-2.41139,0.88411
384.763,21.68362,1.40595,-2.48223,0.88265
387.763,21.77615,1.12367,-2.53861,0.88117
390.763,21.8685,0.86291,-2.57675,0.8797
393.763,21.9607,0.64953,-2.60216,0.87823
396.763,22.05326,0.50042,-2.62154,0.87676
399.763,22.14571,0.40798,-2.63367,0.87528
402.763,22.2387,0.34612,-2.64167,0.87381
405.763,22.33138,0.30709,-2.65169,0.87233
408.763,22.42458,0.27897,-2.65975,0.87085
411.763,22.51782,0.25693,-2.66765,0.86936
414.763,22.61117,0.24041,-2.67602,0.86788
417.763,22.70456,0.22237,-2.68203,0.86639
420.763,22.7982,0.20818,-2.68934,0.8649
423.763,22.8916,0.19463,-2.69577,0.86341
426.763,22.98555,0.18397,-2.70591,0.86191
429.763,23.07923,0.17026,-2.71401,0.86041
432.763,23.1733,0.16606,-2.72087,0.85891
435.763,23.26727,0.15445,-2.72861,0.8574
438.763,23.36169,0.15118,-2.73439,0.85589
441.763,23.45628,0.14662,-2.74099,0.85437
444.763,23.55109,0.14464,-2.75029,0.85285
447.763,23.6458,0.146,-2.7564,0.85133
450.763,23.74106,0.14525,-2.76325,0.8498
453.763,23.83652,0.15214,-2.76972,0.84827
456.763,23.93198,0.15421,-2.77643,0.84673
459.763,24.02753,0.16163,-2.78531,0.84518
462.763,24.12313,0.1684,-2.79161,0.84363
465.763,24.219,0.17328,-2.79676,0.84208
468.763,24.31476,0.18368,-2.79962,0.84052
471.763,24.41065,0.18492,-2.80695,0.83895
474.763,24.5066,0.19058,-2.81444,0.83738
477.763,24.60264,0.19354,-2.81859,0.8358
480.763,24.69882,0.19687,-2.82269,0.83421
483.763,24.79469,0.20039,-2.82705,0.83262
486.763,24.89086,0.20188,-2.83118,0.83102
489.763,24.9867,0.20522,-2.83567,0.82942
492.763,25.08278,0.20709,-2.84009,0.82781
495.763,25.17875,0.20948,-2.84135,0.82619
498.763,25.27484,0.20763,-2.84499,0.82456
501.763,25.3709,0.21166,-2.84896,0.82292
504.763,25.46651,0.2105,-2.85273,0.82128
507.763,25.56307,0.21134,-2.85577,0.81963
510.763,25.65931,0.21365,-2.85974,0.81797
513.763,25.75546,0.21181,-2.86438,0.81631
516.763,25.85193,0.21673,-2.86872,0.81463
519.763,25.9482,0.21515,-2.87237,0.81295
522.763,26.04451,0.21505,-2.87557,0.81126
525.763,26.14108,0.21465,-2.87693,0.80956
528.763,26.2376,0.21236,-2.87863,0.80785
531.763,26.33428,0.21375,-2.88328,0.80614
534.763,26.4309,0.2105,-2.88614,0.80441
537.763,26.5275,0.21068,-2.88947,0.80268
540.763,26.62414,0.20761,-2.892,0.80093
543.763,26.7211,0.21011,-2.89209,0.79918
546.763,26.81805,0.21307,-2.89579,0.79742
549.763,26.9151,0.21808,-2.89819,0.79565
552.763,27.0122,0.22631,-2.89889,0.79386
555.763,27.1093,0.2346,-2.89889,0.79207
558.763,27.20703,0.23415,-2.9022,0.79027
561.763,27.3046,0.23613,-2.90768,0.78846
564.763,27.40209,0.23945,-2.91008,0.78664
567.763,27.49977,0.23873,-2.91271,0.78481
570.763,27.5975,0.23487,-2.91403,0.78296
573.763,27.69544,0.22619,-2.91668,0.78111
576.763,27.79324,0.21759,-2.91888,0.77925
579.763,27.8913,0.21026,-2.92111,0.77738
582.763,27.98915,0.20478,-2.92238,0.77549
585.763,28.08715,0.19839,-2.92432,0.7736
588.763,28.1851,0.19618,-2.92561,0.7717
591.763,28.28312,0.19064,-2.92829,0.76978
594.763,28.38125,0.18876,-2.93095,0.76785
597.763,28.4793,0.18759,-2.93224,0.76592
600.763,28.57755,0.18368,-2.93357,0.76397
603.763,28.6757,0.18655,-2.93422,0.76201
606.763,28.77416,0.18308,-2.9363,0.76004
609.763,28.87241,0.18208,-2.93893,0.75806
612.763,28.97087,0.18155,-2.94024,0.75606
615.763,29.0693,0.18302,-2.94194,0.75406
618.763,29.16757,0.18083,-2.94312,0.75204
621.763,29.2661,0.18468,-2.94719,0.75002
624.763,29.36458,0.19109,-2.95108,0.74798
627.763,29.4635,0.19644,-2.95126,0.74593
630.763,29.56203,0.20021,-2.95437,0.74387
633.763,29.66099,0.20252,-2.95649,0.7418
636.763,29.76,0.20886,-2.95812,0.73971
639.763,29.8591,0.21417,-2.9597,0.73762
642.763,29.9582,0.21765,-2.96175,0.73551
645.763,30.0574,0.22584,-2.96303,0.73339
648.763,30.15645,0.23252,-2.96703,0.73126
651.763,30.2558,0.23794,-2.96931,0.72912
654.763,30.35502,0.23924,-2.97168,0.72696
657.763,30.4541,0.24612,-2.97405,0.7248
660.763,30.5535,0.24878,-2.97739,0.72262
663.763,30.65294,0.25856,-2.97874,0.72043
666.763,30.7522,0.26861,-2.98134,0.71823
669.763,30.85146,0.28035,-2.984,0.71602
672.763,30.9507,0.30135,-2.98768,0.71379
675.763,31.05022,0.31985,-2.98743,0.71156
678.763,31.1494,0.34781,-2.99356,0.70931
681.763,31.2489,0.37188,-2.99502,0.70705
684.763,31.34827,0.40356,-2.9994,0.70478
687.763,31.44783,0.43825,-3.00393,0.7025
690.763,31.5474,0.47092,-3.00822,0.7002
693.763,31.647,0.50775,-3.01078,0.6979
696.763,31.74665,0.53571,-3.0167,0.69558
699.763,31.84638,0.56025,-3.01927,0.69325
702.763,31.946,0.57818,-3.02284,0.69091
705.763,32.0458,0.58698,-3.02828,0.68856
708.763,32.14565,0.59242,-3.03297,0.6862
711.763,32.24569,0.586,-3.03853,0.68382
714.763,32.346,0.57559,-3.04348,0.68144
717.763,32.44601,0.55567,-3.04634,0.67904
720.763,32.54633,0.50871,-3.05176,0.67663
723.763,32.6467,0.4514,-3.05668,0.67421
726.763,32.74708,0.38555,-3.06044,0.67178
729.763,32.8476,0.33898,-3.06396,0.66934
732.763,32.9482,0.30824,-3.06567,0.66688
735.763,33.04878,0.2896,-3.06992,0.66442
738.763,33.1495,0.27971,-3.07237,0.66194
741.763,33.24991,0.2666,-3.07274,0.65946
744.163,33.33193,0.25295,-3.07406,0.65746