Folder: fsri_materials_database/01_Data/Triexta_Carpet_HighPile/MCC

Note: 01_Data/README.md
# Materials and Products Database
## 01_Data

Raw data generated from each apparatus are included here in plain-text format. The data is organized first by material, next by the short name of test apparatus used, and where applicable additional filtering by test settings.

### material.json

Each material directory contains a json file of the same name as the material. This file links the data stored in the repository as well as data and graphs produced by the accompanying scripts (__02_Scripts__) to the respective landing page for the material on the front-end website.

File: Triexta_Carpet_HighPile_MCC_30K_min_211117_R1.txt
Sample ID:	C:\MCC\MCC Cal\Test\Triexta_Carpet_High_Pile_MCC_30K_min_211117_R1.txt
Sample Weight (mg):	4.39
Heating Rate (C/s):	0.5
Combustor Temp (C):	900
N2 Flow Rate (cc/min):	80
O2 Flow Rate (cc/min):	20
Calibration File:	C:\MCC\MCC Cal\Coeff1 JN10440_30_210304.txt.txt
T Correction Coefficients:	0	1.024463	0
Time Shift (s):	14
*
Time (s)	Temperature (C)	N2 flow rate (cc/min)	O2 flow rate (cc/min)	Flow Rate (cc/min)	Oxygen (%)	HRR (W/g)	Heating rate (C/s)
-0.001	110.516	80.002	19.993	103.051	19.895	0.182	0.034
8.000	110.530	80.001	19.996	103.067	19.892	0.374	-0.015
16.000	110.496	80.002	19.996	103.090	19.886	0.772	-0.000
24.000	110.745	80.004	19.996	103.137	19.878	1.420	0.052
32.000	111.315	80.003	19.996	103.231	19.862	2.588	0.083
39.999	112.388	80.001	19.997	103.270	19.854	3.187	0.153
48.000	113.879	80.002	19.996	103.291	19.850	3.474	0.200
56.000	115.788	80.005	19.995	103.299	19.842	4.073	0.242
63.999	118.177	80.004	19.994	103.303	19.845	3.853	0.311
71.999	120.881	80.002	19.995	103.314	19.843	3.932	0.338
79.999	123.847	80.003	19.995	103.309	19.840	4.212	0.378
87.999	127.042	80.003	19.995	103.319	19.838	4.348	0.410
95.999	130.399	80.001	19.995	103.314	19.840	4.214	0.433
103.999	133.897	80.003	19.994	103.314	19.842	4.051	0.433
112.000	137.601	80.003	19.995	103.312	19.837	4.372	0.469
119.999	141.344	80.002	19.995	103.300	19.837	4.435	0.463
128.000	145.161	80.003	19.996	103.305	19.838	4.320	0.490
136.000	149.113	80.003	19.994	103.300	19.837	4.423	0.526
144.000	153.042	80.001	19.996	103.294	19.842	4.005	0.507
152.000	156.943	80.002	19.994	103.294	19.841	4.121	0.468
160.000	160.912	80.003	19.994	103.290	19.841	4.084	0.464
168.000	164.897	80.003	19.995	103.280	19.838	4.325	0.516
176.000	168.859	80.001	19.995	103.271	19.839	4.236	0.486
184.000	172.830	80.003	19.995	103.278	19.842	4.006	0.508
192.000	176.816	80.003	19.995	103.272	19.844	3.916	0.469
200.000	180.753	80.001	19.994	103.263	19.841	4.106	0.503
208.000	184.604	80.003	19.995	103.257	19.843	3.928	0.450
216.000	188.613	80.002	19.995	103.256	19.846	3.726	0.490
224.000	192.533	80.002	19.996	103.255	19.844	3.865	0.469
232.000	196.447	80.003	19.996	103.256	19.846	3.712	0.500
240.000	200.348	80.002	19.996	103.252	19.846	3.750	0.497
248.000	204.256	80.002	19.995	103.252	19.846	3.736	0.505
256.000	208.186	80.001	19.996	103.259	19.846	3.767	0.513
264.000	212.109	80.003	19.994	103.258	19.845	3.831	0.502
272.000	216.074	80.003	19.995	103.247	19.848	3.603	0.489
280.000	220.069	80.004	19.995	103.255	19.842	4.031	0.509
288.000	224.072	80.005	19.996	103.248	19.840	4.207	0.467
296.000	228.045	80.005	19.997	103.250	19.844	3.904	0.513
304.000	232.046	80.003	19.996	103.249	19.843	3.952	0.509
312.000	236.002	80.001	19.995	103.256	19.842	4.045	0.478
320.000	239.948	80.000	19.997	103.251	19.845	3.793	0.512
328.000	243.842	80.000	19.996	103.245	19.843	3.929	0.490
336.000	247.757	80.001	19.996	103.235	19.844	3.875	0.490
344.000	251.809	80.002	19.995	103.220	19.843	3.939	0.499
352.000	255.762	80.004	19.996	103.218	19.844	3.920	0.489
360.000	259.827	80.003	19.995	103.209	19.844	3.863	0.511
368.000	263.857	80.005	19.996	103.195	19.842	4.039	0.486
376.000	267.943	80.005	19.995	103.191	19.844	3.885	0.513
384.000	272.107	80.001	19.996	103.213	19.844	3.884	0.532
392.000	276.214	80.001	19.996	103.206	19.846	3.771	0.525
400.000	280.309	80.002	19.995	103.197	19.843	3.973	0.529
408.000	284.315	80.002	19.996	103.201	19.845	3.808	0.476
416.000	288.271	80.001	19.997	103.195	19.840	4.169	0.467
424.000	292.238	80.002	19.996	103.209	19.840	4.176	0.473
432.000	296.221	80.003	19.995	103.199	19.840	4.172	0.486
440.000	300.105	80.002	19.995	103.196	19.840	4.203	0.474
448.000	304.014	80.004	19.995	103.198	19.833	4.722	0.480
456.000	307.967	80.004	19.994	103.214	19.834	4.595	0.508
464.000	311.962	80.003	19.995	103.206	19.829	4.991	0.509
472.000	315.951	80.002	19.995	103.213	19.831	4.876	0.499
480.000	320.018	80.003	19.996	103.202	19.825	5.266	0.507
488.000	323.981	80.001	19.997	103.187	19.821	5.577	0.484
496.000	328.000	80.002	19.995	103.203	19.816	5.907	0.528
504.000	332.018	80.002	19.996	103.190	19.812	6.221	0.491
512.000	336.114	80.002	19.996	103.194	19.804	6.849	0.490
520.000	340.159	80.002	19.994	103.215	19.798	7.279	0.500
528.000	344.247	80.004	19.995	103.208	19.785	8.219	0.528
536.000	348.349	80.005	19.995	103.212	19.770	9.349	0.517
544.000	352.515	80.002	19.996	103.214	19.754	10.524	0.564
552.000	356.538	80.002	19.994	103.216	19.734	11.954	0.521
560.000	360.580	80.002	19.995	103.219	19.700	14.426	0.478
568.000	364.594	80.001	19.995	103.226	19.661	17.352	0.496
576.000	368.549	79.999	19.996	103.246	19.608	21.196	0.473
584.000	372.536	80.002	19.996	103.261	19.537	26.442	0.500
592.000	376.563	80.003	19.995	103.273	19.448	32.983	0.508
600.000	380.610	80.001	19.996	103.304	19.340	40.925	0.540
608.000	384.614	80.003	19.996	103.334	19.207	50.661	0.503
616.000	388.640	80.003	19.995	103.363	19.059	61.564	0.508
624.000	392.637	80.001	19.995	103.404	18.888	74.196	0.496
632.000	396.710	80.001	19.995	103.447	18.716	86.873	0.490
640.000	400.707	80.002	19.996	103.459	18.553	98.836	0.499
648.000	404.710	80.002	19.995	103.495	18.424	108.339	0.487
656.000	408.711	80.001	19.995	103.496	18.341	114.436	0.514
664.000	412.708	80.001	19.995	103.496	18.320	115.967	0.480
672.000	416.673	80.003	19.995	103.492	18.361	112.917	0.515
680.000	420.711	80.004	19.996	103.472	18.460	105.643	0.516
688.000	424.679	80.002	19.995	103.455	18.600	95.315	0.483
696.000	428.757	80.002	19.996	103.413	18.767	83.011	0.542
704.000	432.802	80.001	19.994	103.374	18.932	70.873	0.532
712.000	436.897	80.002	19.995	103.334	19.080	60.003	0.512
720.000	441.045	80.003	19.995	103.286	19.237	48.416	0.518
728.000	445.144	80.002	19.995	103.262	19.373	38.429	0.515
736.000	449.300	80.002	19.993	103.225	19.449	32.823	0.512
744.000	453.494	80.003	19.995	103.206	19.469	31.389	0.557
752.000	457.678	80.003	19.995	103.183	19.471	31.191	0.566
760.000	461.860	80.003	19.995	103.176	19.458	32.187	0.541
768.000	465.880	80.003	19.996	103.143	19.485	30.165	0.432
776.000	469.664	80.003	19.995	103.140	19.554	25.138	0.429
784.000	474.292	80.001	19.995	103.137	19.639	18.910	0.496
792.000	478.234	80.002	19.995	103.139	19.709	13.786	0.506
800.000	482.339	80.002	19.995	103.148	19.769	9.417	0.495
808.000	486.307	80.002	19.995	103.149	19.804	6.817	0.467
816.000	490.336	80.001	19.996	103.148	19.823	5.458	0.502
824.000	494.415	80.002	19.994	103.160	19.828	5.052	0.509
832.000	498.502	80.001	19.994	103.151	19.832	4.781	0.544
840.000	502.564	80.000	19.995	103.155	19.835	4.567	0.490
848.000	506.665	80.003	19.996	103.158	19.838	4.361	0.509
856.000	510.816	80.004	19.994	103.154	19.838	4.297	0.518
864.000	514.916	80.000	19.996	103.145	19.840	4.150	0.543
872.000	519.027	80.002	19.995	103.164	19.841	4.093	0.501
880.000	523.181	80.001	19.996	103.156	19.838	4.340	0.526
888.000	527.329	80.002	19.996	103.165	19.836	4.445	0.495
896.000	531.503	80.002	19.995	103.171	19.831	4.829	0.531
904.000	535.721	80.002	19.995	103.166	19.828	5.038	0.527
912.000	539.850	80.004	19.994	103.152	19.831	4.815	0.518
920.000	543.952	80.003	19.995	103.154	19.829	4.951	0.474
928.000	548.069	80.004	19.994	103.142	19.832	4.759	0.529
936.000	552.113	80.004	19.995	103.142	19.833	4.656	0.492
944.000	556.207	80.000	19.995	103.152	19.832	4.799	0.545
952.000	560.299	80.001	19.994	103.158	19.828	5.049	0.529
960.000	564.386	80.000	19.997	103.162	19.828	5.038	0.529
968.000	568.499	80.000	19.997	103.166	19.825	5.297	0.513
976.000	572.728	80.001	19.995	103.151	19.824	5.374	0.539
984.000	576.969	80.002	19.995	103.150	19.818	5.800	0.547
992.000	581.150	80.003	19.995	103.155	19.805	6.759	0.536
1000.000	585.388	80.002	19.995	103.167	19.801	7.051	0.538
1008.000	589.469	80.005	19.994	103.153	19.787	8.030	0.528
1016.000	593.597	80.004	19.993	103.171	19.768	9.441	0.503
1024.000	597.680	80.000	19.995	103.181	19.732	12.118	0.495
1031.999	601.759	80.000	19.995	103.178	19.696	14.763	0.540
1039.999	605.673	80.002	19.995	103.179	19.670	16.610	0.503
1048.000	609.624	80.001	19.994	103.179	19.652	17.968	0.498
1055.999	613.550	80.000	19.997	103.176	19.664	17.066	0.482
1063.999	617.492	80.000	19.996	103.176	19.720	12.976	0.518
1071.999	621.515	80.002	19.995	103.159	19.790	7.828	0.500
1079.999	625.571	80.002	19.995	103.146	19.837	4.420	0.517
1087.999	629.682	80.001	19.994	103.140	19.860	2.729	0.499
1096.001	633.775	80.003	19.994	103.125	19.873	1.764	0.504
1104.000	637.919	80.002	19.994	103.118	19.876	1.533	0.532
1111.999	642.052	80.000	19.996	103.132	19.881	1.189	0.553
1119.999	646.061	80.000	19.995	103.134	19.883	1.048	0.528
1128.000	650.171	80.001	19.996	103.137	19.885	0.892	0.543
1135.999	654.196	79.999	19.995	103.144	19.887	0.734	0.525
1143.999	658.334	80.001	19.995	103.137	19.888	0.664	0.490
1151.999	662.488	80.001	19.995	103.141	19.886	0.807	0.494
1160.000	666.578	80.002	19.994	103.143	19.891	0.469	0.560
1168.000	670.630	80.003	19.995	103.147	19.891	0.427	0.533
1175.999	674.774	80.002	19.994	103.140	19.888	0.680	0.526
1183.999	678.941	80.002	19.995	103.142	19.890	0.479	0.498
1191.999	682.989	80.002	19.995	103.149	19.892	0.348	0.528
1199.999	686.966	80.002	19.995	103.154	19.891	0.417	0.509
1207.999	691.054	80.001	19.995	103.154	19.894	0.253	0.525
1215.999	695.055	80.000	19.995	103.160	19.891	0.415	0.507
1223.999	699.152	80.002	19.995	103.151	19.894	0.188	0.539
1231.999	703.241	80.003	19.996	103.139	19.897	0.000	0.504
1239.999	707.329	80.001	19.995	103.119	19.902	-0.393	0.540
1247.999	711.412	80.004	19.995	103.107	19.907	-0.698	0.499
1255.999	715.501	80.004	19.996	103.102	19.909	-0.909	0.505
1263.999	719.580	80.000	19.995	103.103	19.908	-0.812	0.532
1272.000	723.595	80.001	19.995	103.100	19.908	-0.793	0.513
1279.999	727.641	80.001	19.994	103.089	19.912	-1.079	0.496
1287.999	731.647	80.002	19.994	103.102	19.912	-1.087	0.500
1295.999	735.618	80.000	19.995	103.092	19.909	-0.903	0.470
1304.000	739.613	80.003	19.996	103.085	19.910	-0.983	0.488
1311.999	743.636	80.003	19.994	103.088	19.909	-0.886	0.505

File: Triexta_Carpet_HighPile_MCC_30K_min_211117_R2.txt
Sample ID:	C:\MCC\MCC Cal\Test\Triexta_Carpet_High_Pile_MCC_30K_min_211117_R2.txt
Sample Weight (mg):	4.18
Heating Rate (C/s):	0.5
Combustor Temp (C):	900
N2 Flow Rate (cc/min):	80
O2 Flow Rate (cc/min):	20
Calibration File:	C:\MCC\MCC Cal\Coeff1 JN10440_30_210304.txt.txt
T Correction Coefficients:	0	1.024463	0
Time Shift (s):	14
*
Time (s)	Temperature (C)	N2 flow rate (cc/min)	O2 flow rate (cc/min)	Flow Rate (cc/min)	Oxygen (%)	HRR (W/g)	Heating rate (C/s)
0.000	108.391	79.997	19.995	102.980	19.984	0.228	-0.000
7.999	108.367	80.001	19.994	102.971	19.991	-0.334	0.011
15.999	108.379	80.006	19.995	103.009	19.986	0.068	0.001
24.000	108.547	80.001	19.994	103.028	19.978	0.668	0.048
32.000	108.790	80.002	19.995	103.063	19.973	1.103	0.058
39.999	109.374	80.001	19.996	103.105	19.962	1.954	0.076
47.999	110.276	80.000	19.996	103.140	19.955	2.439	0.140
56.000	111.457	79.997	19.995	103.136	19.954	2.543	0.158
63.999	112.952	80.014	19.992	103.165	19.948	2.984	0.205
71.999	114.756	79.999	19.994	103.187	19.944	3.288	0.240
80.000	116.822	80.000	19.995	103.205	19.945	3.226	0.266
87.999	119.223	80.011	19.992	103.220	19.946	3.133	0.326
95.999	121.883	79.999	19.995	103.227	19.941	3.547	0.393
103.999	124.891	80.000	19.995	103.227	19.939	3.712	0.390
111.999	128.065	79.995	19.995	103.237	19.936	3.930	0.431
119.999	131.446	80.002	19.996	103.257	19.937	3.838	0.458
127.999	135.083	80.001	19.996	103.254	19.934	4.085	0.481
136.000	138.857	80.002	19.995	103.241	19.939	3.738	0.496
144.000	142.740	80.002	19.996	103.241	19.940	3.594	0.483
152.000	146.786	80.002	19.994	103.224	19.946	3.189	0.525
160.000	150.806	80.010	19.993	103.226	19.941	3.536	0.533
168.000	154.863	80.002	19.995	103.221	19.942	3.457	0.523
176.000	158.901	79.997	19.995	103.218	19.938	3.756	0.523
184.000	162.962	79.998	19.995	103.222	19.945	3.244	0.509
192.000	167.056	80.003	19.993	103.200	19.946	3.178	0.515
200.000	171.103	79.999	19.994	103.201	19.947	3.052	0.520
208.000	175.066	80.000	19.996	103.180	19.950	2.882	0.492
216.000	178.996	80.003	19.995	103.184	19.950	2.840	0.465
224.000	182.925	80.000	19.996	103.180	19.949	2.903	0.473
232.000	186.888	80.000	19.996	103.179	19.949	2.942	0.475
240.000	190.803	79.998	19.995	103.181	19.947	3.061	0.509
248.000	194.653	79.999	19.994	103.182	19.949	2.938	0.475
256.000	198.550	80.000	19.994	103.180	19.951	2.743	0.497
264.000	202.450	79.999	19.995	103.175	19.954	2.522	0.471
272.000	206.367	80.000	19.993	103.165	19.954	2.539	0.507
280.000	210.315	80.001	19.994	103.177	19.952	2.687	0.496
288.000	214.217	80.001	19.995	103.179	19.955	2.478	0.479
296.000	218.151	80.003	19.995	103.175	19.954	2.541	0.489
304.000	222.072	80.000	19.994	103.177	19.957	2.318	0.498
312.000	225.962	79.997	19.995	103.171	19.955	2.447	0.491
320.000	229.934	79.998	19.995	103.178	19.959	2.179	0.490
328.000	233.849	79.999	19.995	103.170	19.956	2.366	0.477
336.000	237.807	80.002	19.995	103.170	19.956	2.414	0.514
344.000	241.708	80.001	19.995	103.165	19.954	2.532	0.497
352.000	245.747	80.000	19.994	103.176	19.956	2.355	0.515
360.000	249.740	80.002	19.994	103.153	19.956	2.399	0.568
368.000	253.863	80.003	19.994	103.141	19.961	2.002	0.509
376.000	257.932	80.003	19.994	103.141	19.961	2.025	0.517
384.000	261.988	80.000	19.995	103.115	19.961	2.041	0.489
392.000	266.023	79.998	19.993	103.109	19.959	2.133	0.497
400.000	270.096	79.998	19.996	103.107	19.956	2.423	0.546
408.000	274.132	79.998	19.997	103.106	19.965	1.701	0.523
416.000	278.145	79.999	19.995	103.113	19.958	2.215	0.502
424.000	282.103	80.000	19.994	103.104	19.957	2.274	0.506
432.000	286.003	80.000	19.994	103.117	19.955	2.446	0.486
440.000	289.955	80.003	19.994	103.104	19.957	2.338	0.481
448.000	293.835	80.000	19.995	103.105	19.959	2.155	0.490
456.000	297.737	80.003	19.995	103.118	19.954	2.527	0.459
464.000	301.570	80.001	19.995	103.106	19.950	2.847	0.475
472.000	305.467	80.001	19.996	103.108	19.950	2.853	0.496
480.000	309.370	80.000	19.996	103.128	19.952	2.681	0.511
488.000	313.350	80.001	19.995	103.118	19.943	3.370	0.483
496.000	317.224	79.997	19.996	103.115	19.943	3.406	0.466
504.000	321.129	80.003	19.995	103.117	19.942	3.447	0.503
512.000	325.076	80.002	19.995	103.114	19.937	3.821	0.538
520.000	329.028	80.001	19.994	103.111	19.931	4.296	0.505
528.000	333.050	80.001	19.994	103.110	19.925	4.787	0.500
536.000	337.106	80.000	19.994	103.112	19.919	5.246	0.492
544.000	341.205	80.003	19.993	103.115	19.912	5.765	0.491
552.000	345.297	80.001	19.993	103.121	19.904	6.398	0.504
560.000	349.397	79.998	19.995	103.162	19.887	7.711	0.514
568.000	353.531	80.000	19.995	103.133	19.869	9.115	0.500
576.000	357.577	79.999	19.994	103.132	19.849	10.622	0.469
584.000	361.643	80.001	19.995	103.127	19.819	12.957	0.505
592.000	365.578	80.000	19.995	103.140	19.782	15.760	0.474
600.000	369.486	80.001	19.994	103.145	19.736	19.297	0.499
608.000	373.364	80.002	19.994	103.179	19.668	24.590	0.496
616.000	377.438	80.001	19.993	103.213	19.593	30.380	0.544
624.000	381.645	80.000	19.994	103.266	19.498	37.659	0.534
632.000	385.981	80.002	19.994	103.260	19.357	48.545	0.513
640.000	390.365	80.000	19.994	103.284	19.200	60.725	0.562
648.000	394.775	79.997	19.995	103.322	19.022	74.443	0.533
656.000	399.196	79.999	19.995	103.357	18.835	88.878	0.548
664.000	403.505	80.000	19.995	103.381	18.658	102.581	0.552
672.000	407.788	80.000	19.995	103.411	18.518	113.379	0.536
680.000	412.012	80.000	19.996	103.415	18.431	120.076	0.535
688.000	416.106	80.002	19.994	103.418	18.420	120.943	0.503
696.000	420.235	80.001	19.993	103.416	18.476	116.623	0.523
704.000	424.344	79.999	19.995	103.438	18.597	107.253	0.514
712.000	428.445	80.000	19.995	103.350	18.758	94.777	0.541
720.000	432.497	80.000	19.994	103.311	18.939	80.796	0.516
728.000	436.592	80.000	19.996	103.266	19.110	67.593	0.502
736.000	440.626	80.001	19.995	103.230	19.261	55.901	0.504
744.000	444.584	80.002	19.993	103.181	19.421	43.542	0.472
752.000	448.505	80.006	19.994	103.149	19.527	35.376	0.469
760.000	452.384	80.002	19.994	103.138	19.585	30.975	0.467
768.000	456.209	80.002	19.996	103.108	19.599	29.836	0.491
776.000	460.025	80.001	19.994	103.097	19.595	30.124	0.477
784.000	463.843	80.002	19.994	103.074	19.600	29.772	0.478
792.000	467.630	80.000	19.995	103.059	19.637	26.952	0.477
800.000	471.479	80.002	19.996	103.063	19.707	21.539	0.480
808.000	475.461	79.999	19.995	103.074	19.774	16.362	0.491
816.000	479.625	80.001	19.994	103.095	19.830	12.116	0.514
824.000	483.930	80.001	19.994	103.107	19.877	8.494	0.579
832.000	488.271	80.001	19.995	103.110	19.908	6.118	0.547
840.000	492.739	80.002	19.996	103.101	19.920	5.167	0.539
848.000	497.176	80.002	19.995	103.101	19.923	4.965	0.543
856.000	501.526	80.000	19.996	103.103	19.923	4.944	0.528
864.000	505.890	79.998	19.996	103.101	19.930	4.393	0.551
872.000	510.180	80.001	19.994	103.105	19.926	4.682	0.545
880.000	514.507	80.001	19.995	103.106	19.926	4.701	0.564
888.000	518.753	79.999	19.994	103.104	19.928	4.520	0.533
896.000	522.942	80.001	19.993	103.107	19.924	4.819	0.537
904.000	527.073	80.001	19.994	103.102	19.921	5.072	0.533
912.000	531.251	80.001	19.995	103.104	19.922	5.037	0.530
920.000	535.333	80.002	19.995	103.101	19.919	5.201	0.550
928.000	539.424	80.001	19.995	103.106	19.916	5.465	0.495
936.000	543.508	79.999	19.994	103.105	19.912	5.764	0.516
944.000	547.532	79.999	19.996	103.104	19.910	5.955	0.522
952.000	551.592	79.999	19.995	103.104	19.911	5.841	0.495
960.000	555.634	80.000	19.994	103.106	19.912	5.808	0.473
968.000	559.668	79.999	19.995	103.105	19.913	5.668	0.490
976.000	563.695	80.000	19.995	103.104	19.909	5.978	0.497
984.000	567.769	80.002	19.995	103.102	19.907	6.194	0.495
992.000	571.797	80.002	19.992	103.105	19.902	6.519	0.481
1000.000	575.888	80.002	19.994	103.105	19.894	7.124	0.504
1008.000	579.932	80.001	19.994	103.107	19.886	7.793	0.496
1016.000	583.896	80.001	19.995	103.116	19.876	8.531	0.481
1024.000	587.888	80.000	19.994	103.116	19.867	9.269	0.482
1031.999	591.899	80.000	19.996	103.134	19.852	10.406	0.507
1039.999	595.871	79.999	19.996	103.141	19.828	12.226	0.479
1047.999	599.861	79.999	19.995	103.141	19.792	15.035	0.503
1055.999	603.854	80.003	19.994	103.149	19.753	17.986	0.491
1063.999	607.864	80.003	19.994	103.177	19.728	19.910	0.540
1072.000	611.987	80.003	19.995	103.177	19.720	20.593	0.490
1079.999	616.068	80.003	19.993	103.166	19.737	19.242	0.510
1087.999	620.149	80.003	19.994	103.144	19.790	15.188	0.592
1095.999	624.220	80.001	19.996	103.140	19.860	9.809	0.549
1103.999	628.232	80.000	19.995	103.123	19.894	7.180	0.474
1111.999	632.408	79.999	19.995	103.105	19.904	6.375	0.480
1119.999	636.648	79.999	19.996	103.108	19.911	5.843	0.506
1127.999	640.843	79.999	19.997	103.118	19.918	5.333	0.555
1135.999	644.527	79.999	19.994	103.111	19.916	5.506	-0.083
1143.999	649.081	80.002	19.994	103.123	19.914	5.647	0.506
1151.999	653.222	80.001	19.994	103.132	19.915	5.518	0.500
1159.999	657.319	80.003	19.995	103.126	19.914	5.639	0.498
1168.000	661.408	80.003	19.994	103.137	19.916	5.429	0.518
1176.000	665.378	80.002	19.995	103.143	19.911	5.824	0.486
1183.999	669.417	80.002	19.996	103.142	19.913	5.700	0.494
1191.999	673.506	79.998	19.997	103.146	19.911	5.850	0.526
1199.999	677.688	80.000	19.997	103.145	19.913	5.704	0.528
1207.999	681.812	79.999	19.996	103.161	19.908	6.108	0.494
1215.999	686.001	80.002	19.996	103.144	19.907	6.155	0.497
1223.999	690.081	80.001	19.995	103.160	19.908	6.064	0.472
1231.999	694.295	80.001	19.995	103.159	19.909	6.032	0.529
1240.000	698.499	80.002	19.995	103.157	19.908	6.094	0.518
1247.999	702.589	80.001	19.996	103.143	19.911	5.836	0.490
1255.999	706.678	80.000	19.995	103.130	19.915	5.554	0.515
1263.999	710.742	79.999	19.995	103.122	19.915	5.538	0.496
1271.999	714.800	80.000	19.995	103.107	19.916	5.496	0.530
1279.999	718.837	80.001	19.995	103.110	19.911	5.839	0.516
1287.999	722.920	80.001	19.996	103.104	19.918	5.330	0.512
1296.001	726.909	80.001	19.994	103.106	19.914	5.618	0.518
1303.999	731.032	79.999	19.996	103.103	19.913	5.675	0.499
1311.999	735.077	80.001	19.995	103.102	19.912	5.787	0.511
1319.999	739.099	80.004	19.994	103.104	19.910	5.922	0.451
1328.000	743.203	80.002	19.994	103.109	19.908	6.080	0.495
1328.500	743.499	80.002	19.993	103.109	19.909	5.980	0.515