Folder: fsri_materials_database/01_Data/Overstuffed_Chair_Polyurethane_Foam/MCC

Note: 01_Data/README.md
# Materials and Products Database
## 01_Data

Raw data generated from each apparatus are included here in plain-text format. The data is organized first by material, next by the short name of test apparatus used, and where applicable additional filtering by test settings.

### material.json

Each material directory contains a json file of the same name as the material. This file links the data stored in the repository as well as data and graphs produced by the accompanying scripts (__02_Scripts__) to the respective landing page for the material on the front-end website.

File: Overstuffed_Chair_Polyurethane_Foam_MCC_30K_min_210308_R2.txt
Sample ID:	C:\MCC\MCC Cal\Test\PUF_30_2.txt
Sample Weight (mg):	3.27
Heating Rate (C/s):	0.5
Combustor Temp (C):	900
N2 Flow Rate (cc/min):	80
O2 Flow Rate (cc/min):	20
Calibration File:	C:\MCC\MCC Cal\Coeff1 JN10440_30_210304.txt.txt
T Correction Coefficients:	0	1.024463	0
Time Shift (s):	14
*
Time (s)	Temperature (C)	N2 flow rate (cc/min)	O2 flow rate (cc/min)	Flow Rate (cc/min)	Oxygen (%)	HRR (W/g)	Heating rate (C/s)
0.000	109.095	80.002	19.997	99.648	20.151	-0.607	0.012
5.500	109.068	80.004	19.994	99.653	20.146	-0.185	0.021
11.000	109.035	80.004	19.998	99.675	20.137	0.722	-0.013
16.500	109.115	80.005	19.999	99.700	20.141	0.373	-0.018
22.000	109.299	80.003	19.995	99.752	20.128	1.536	0.091
27.500	109.538	80.005	19.995	99.780	20.123	2.033	0.071
32.999	109.954	80.004	19.997	99.800	20.121	2.258	0.065
38.500	110.530	80.009	19.996	99.764	20.117	2.600	0.101
43.999	111.175	80.005	19.994	99.799	20.115	2.770	0.131
49.499	111.954	80.007	19.995	99.836	20.108	3.480	0.135
54.999	112.912	80.008	19.996	99.842	20.113	2.977	0.193
60.500	114.070	80.008	19.996	99.855	20.105	3.805	0.228
65.999	115.286	80.009	19.995	99.882	20.098	4.421	0.225
71.499	116.774	80.002	19.994	99.882	20.099	4.356	0.309
77.000	118.253	80.006	19.994	99.897	20.090	5.198	0.260
82.500	119.927	80.005	19.995	99.909	20.092	4.976	0.311
88.000	121.745	80.007	19.997	99.926	20.091	5.075	0.347
93.500	123.778	80.006	19.995	99.934	20.092	5.033	0.366
98.999	125.907	80.003	19.998	99.928	20.088	5.388	0.381
104.499	128.133	80.005	19.998	99.967	20.089	5.256	0.410
109.999	130.478	80.005	19.998	99.925	20.085	5.702	0.437
115.499	132.864	80.008	19.997	99.936	20.088	5.405	0.445
120.999	135.376	80.007	19.995	99.938	20.084	5.796	0.470
126.499	137.960	80.007	19.995	99.944	20.085	5.701	0.459
132.000	140.590	80.006	19.996	99.934	20.082	5.947	0.479
137.500	143.300	80.008	19.995	99.923	20.084	5.731	0.487
143.000	146.043	80.007	19.995	99.932	20.082	5.920	0.499
148.500	148.797	80.007	19.997	99.936	20.086	5.605	0.502
154.000	151.630	80.006	19.996	99.919	20.086	5.573	0.498
159.500	154.370	80.006	19.995	99.920	20.089	5.288	0.531
165.000	157.224	80.005	19.999	99.921	20.088	5.343	0.507
170.500	159.989	80.006	19.995	99.912	20.087	5.439	0.473
175.999	162.785	80.005	19.996	99.918	20.088	5.348	0.482
181.499	165.675	80.005	19.996	99.893	20.090	5.160	0.487
187.000	168.481	80.005	19.995	99.907	20.086	5.571	0.524
192.500	171.273	80.004	19.998	99.908	20.092	5.041	0.515
197.999	174.066	80.007	19.996	99.884	20.090	5.206	0.473
203.499	176.835	80.004	19.996	99.883	20.088	5.349	0.505
208.999	179.642	80.006	19.996	99.884	20.091	5.122	0.526
214.499	182.368	80.007	19.995	99.883	20.090	5.201	0.519
219.999	185.058	80.009	19.996	99.885	20.089	5.284	0.517
225.499	187.871	80.007	19.995	99.883	20.087	5.480	0.527
230.999	190.617	80.004	19.994	99.879	20.086	5.600	0.480
236.500	193.308	80.005	19.995	99.880	20.086	5.534	0.496
241.999	195.994	80.004	19.997	99.879	20.085	5.673	0.476
247.499	198.712	80.006	19.996	99.873	20.083	5.817	0.470
252.999	201.353	80.005	19.994	99.877	20.078	6.318	0.459
258.500	204.095	80.005	19.997	99.811	20.077	6.458	0.481
264.000	206.788	80.003	19.995	99.884	20.073	6.824	0.498
269.500	209.564	80.006	19.994	99.882	20.071	7.031	0.501
275.000	212.257	80.007	19.998	99.885	20.066	7.491	0.479
280.500	214.955	80.006	19.995	99.868	20.059	8.099	0.456
286.000	217.635	79.989	19.995	99.868	20.058	8.268	0.505
291.500	220.395	79.986	19.993	99.879	20.053	8.708	0.488
297.000	223.161	79.988	19.994	99.862	20.048	9.240	0.524
302.500	225.919	79.989	19.995	99.881	20.035	10.441	0.510
308.000	228.739	79.988	19.994	99.880	20.023	11.563	0.532
313.500	231.446	79.985	19.995	99.892	20.014	12.390	0.476
319.000	234.263	79.986	19.993	99.884	20.003	13.477	0.516
324.500	237.026	79.987	19.995	99.885	19.992	14.580	0.509
330.000	239.754	79.986	19.994	99.913	19.976	16.027	0.518
335.500	242.574	79.986	19.994	99.906	19.961	17.493	0.511
341.000	245.360	79.985	19.995	99.882	19.943	19.195	0.507
346.500	248.057	79.986	19.994	99.881	19.915	21.895	0.484
352.000	250.903	79.986	19.995	99.912	19.890	24.232	0.499
357.500	253.661	79.986	19.995	99.890	19.867	26.446	0.490
363.000	256.378	79.989	19.994	99.909	19.831	29.923	0.501
368.500	259.127	79.988	19.996	99.909	19.787	34.060	0.496
374.000	261.870	79.989	19.994	99.927	19.749	37.680	0.476
379.500	264.637	79.987	19.994	99.933	19.700	42.373	0.506
385.000	267.388	79.989	19.992	99.958	19.653	46.840	0.532
390.500	270.134	79.985	19.995	99.960	19.600	51.984	0.478
396.000	272.954	79.985	19.995	99.963	19.544	57.260	0.501
401.500	275.710	79.987	19.994	100.000	19.488	62.602	0.507
407.000	278.449	79.987	19.995	100.022	19.438	67.429	0.481
412.500	281.157	79.988	19.994	99.989	19.393	71.690	0.445
418.000	284.017	79.988	19.994	99.997	19.359	74.912	0.513
423.500	286.732	79.985	19.993	100.005	19.338	76.924	0.489
429.000	289.533	79.985	19.993	100.012	19.350	75.780	0.505
434.500	292.350	79.988	19.995	99.995	19.380	72.925	0.491
440.000	295.165	79.989	19.995	99.961	19.446	66.572	0.518
445.500	297.954	79.988	19.995	99.942	19.544	57.252	0.474
451.000	300.791	79.986	19.995	99.922	19.609	51.073	0.494
456.500	303.597	79.987	19.995	99.990	19.648	47.345	0.538
462.000	306.360	79.988	19.993	99.920	19.672	45.046	0.498
467.500	309.171	79.989	19.992	99.914	19.704	41.993	0.485
473.000	311.997	79.987	19.995	99.893	19.765	36.184	0.509
478.500	314.807	79.985	19.993	99.900	19.837	29.304	0.500
484.000	317.616	79.987	19.995	99.887	19.896	23.692	0.538
489.500	320.403	79.990	19.994	99.874	19.938	19.691	0.511
495.000	323.194	79.988	19.995	99.864	19.965	17.120	0.534
500.500	325.928	79.987	19.994	99.843	19.975	16.135	0.517
506.000	328.703	79.984	19.994	99.851	19.987	15.001	0.514
511.500	331.387	79.986	19.994	99.810	19.994	14.302	0.473
517.000	334.202	79.988	19.993	99.880	19.994	14.321	0.535
522.500	336.949	79.986	19.995	99.844	19.997	14.058	0.495
528.000	339.676	79.987	19.997	99.885	19.993	14.385	0.476
533.500	342.450	79.987	19.994	99.854	19.980	15.631	0.511
539.000	345.196	79.988	19.995	99.843	19.969	16.717	0.509
544.500	347.904	79.990	19.995	99.866	19.948	18.736	0.507
550.000	350.676	79.989	19.995	99.841	19.919	21.448	0.507
555.500	353.479	79.987	19.996	99.844	19.871	26.013	0.512
561.000	356.248	79.988	19.994	99.865	19.804	32.449	0.495
566.500	359.011	79.987	19.994	99.872	19.719	40.556	0.497
572.000	361.742	79.987	19.994	99.894	19.601	51.808	0.485
577.500	364.539	79.987	19.992	99.921	19.454	65.872	0.525
583.000	367.314	79.985	19.994	99.923	19.256	84.743	0.527
588.500	370.098	79.986	19.992	99.949	19.024	106.843	0.491
594.000	372.950	79.988	19.995	99.940	18.735	134.427	0.551
599.500	375.743	79.987	19.993	99.958	18.391	167.183	0.537
605.000	378.478	79.989	19.993	99.946	18.016	202.830	0.485
610.500	381.273	79.988	19.995	99.934	17.650	237.444	0.485
616.000	384.045	79.988	19.993	99.877	17.344	266.520	0.494
621.500	386.884	79.989	19.995	99.767	17.176	282.321	0.539
627.000	389.589	79.988	19.994	99.746	17.143	285.374	0.499
632.500	392.345	79.985	19.995	99.681	17.280	272.363	0.507
638.000	395.119	79.987	19.995	99.656	17.536	247.924	0.488
643.500	397.871	79.986	19.994	99.639	17.875	215.880	0.509
649.000	400.647	79.987	19.994	99.631	18.261	179.130	0.527
654.500	403.399	79.987	19.995	99.676	18.634	143.709	0.509
660.000	406.156	79.986	19.995	99.688	18.968	111.991	0.496
665.500	408.859	79.986	19.994	99.725	19.246	85.494	0.458
671.000	411.611	79.987	19.995	99.732	19.463	64.896	0.476
676.500	414.418	79.988	19.993	99.771	19.628	49.155	0.521
682.000	417.136	79.989	19.995	99.781	19.749	37.658	0.483
687.500	419.918	79.987	19.996	99.795	19.846	28.424	0.534
693.000	422.695	79.987	19.995	99.804	19.912	22.178	0.508
698.500	425.490	79.988	19.995	99.809	19.962	17.340	0.515
704.000	428.356	79.990	19.995	99.815	19.995	14.214	0.531
709.500	431.155	79.987	19.994	99.825	20.013	12.520	0.539
715.000	434.060	79.987	19.995	99.809	20.029	11.021	0.478
720.500	436.938	79.988	19.996	99.796	20.043	9.654	0.524
726.000	439.735	79.988	19.994	99.827	20.056	8.400	0.476
731.500	442.543	79.987	19.994	99.822	20.066	7.447	0.534
737.000	445.352	79.987	19.994	99.829	20.067	7.367	0.472
742.500	448.207	79.986	19.996	99.805	20.071	7.023	0.529
748.000	451.036	79.987	19.995	99.822	20.072	6.876	0.483
753.500	453.813	79.987	19.995	99.825	20.075	6.575	0.541
759.000	456.670	79.989	19.994	99.843	20.076	6.557	0.501
764.500	459.552	79.990	19.994	99.826	20.077	6.441	0.540
770.000	462.423	79.987	19.994	99.828	20.081	6.050	0.496
775.500	465.253	79.987	19.994	99.816	20.077	6.438	0.517
781.000	468.102	79.988	19.994	99.817	20.076	6.485	0.515
786.500	470.882	79.991	19.994	99.809	20.079	6.274	0.526
792.000	473.711	79.988	19.994	99.818	20.079	6.276	0.501
797.500	476.523	79.985	19.995	99.814	20.078	6.357	0.505
803.000	479.291	79.988	19.997	99.804	20.075	6.597	0.544
808.500	482.071	79.989	19.995	99.804	20.074	6.751	0.500
814.000	484.864	79.990	19.995	99.810	20.079	6.190	0.536
819.500	487.667	79.988	19.993	99.812	20.078	6.302	0.497
825.000	490.445	79.988	19.995	99.806	20.074	6.701	0.497
830.500	493.228	79.987	19.993	99.800	20.071	7.011	0.523
836.000	495.989	79.989	19.995	99.805	20.074	6.748	0.493
841.500	498.799	79.990	19.994	99.806	20.070	7.111	0.502
847.000	501.628	79.991	19.992	99.807	20.070	7.062	0.483
852.500	504.367	79.988	19.996	99.811	20.066	7.518	0.508
858.000	507.184	79.987	19.995	99.819	20.071	7.019	0.519
863.500	509.996	79.991	19.995	99.816	20.070	7.047	0.494
869.000	512.777	79.997	19.994	99.804	20.072	6.875	0.512
874.500	515.667	80.007	19.994	99.800	20.069	7.182	0.512
880.000	518.520	80.006	19.995	99.799	20.070	7.066	0.521
885.500	521.323	79.985	19.993	99.782	20.067	7.355	0.530
891.000	524.166	79.986	19.993	99.803	20.068	7.312	0.504
896.500	526.957	79.987	19.994	99.805	20.070	7.118	0.521
902.000	529.829	79.987	19.995	99.821	20.064	7.635	0.493
907.500	532.655	79.985	19.993	99.807	20.063	7.755	0.517
913.000	535.532	79.987	19.995	99.810	20.066	7.447	0.531
918.500	538.361	79.988	19.994	99.811	20.075	6.646	0.538
924.000	541.197	79.991	19.993	99.804	20.070	7.068	0.515
928.500	543.484	79.989	19.994	99.800	20.064	7.705	0.491