Folder: fsri_materials_database/01_Data/Latex_Pillow_Foam/MCC

Note: 01_Data/README.md
# Materials and Products Database
## 01_Data

Raw data generated from each apparatus are included here in plain-text format. The data is organized first by material, next by the short name of test apparatus used, and where applicable additional filtering by test settings.

### material.json

Each material directory contains a json file of the same name as the material. This file links the data stored in the repository as well as data and graphs produced by the accompanying scripts (__02_Scripts__) to the respective landing page for the material on the front-end website.

File: Latex_Pillow_Foam_MCC_30K_min_211213_R1.txt
Sample ID:	C:\MCC\MCC Cal\Test\LatexPillow_C_Foam_MCC_30K_min_211213_R1.txt
Sample Weight (mg):	4.41
Heating Rate (C/s):	0.5
Combustor Temp (C):	900
N2 Flow Rate (cc/min):	80
O2 Flow Rate (cc/min):	20
Calibration File:	C:\MCC\MCC Cal\Coeff1 JN10440_30_210304.txt.txt
T Correction Coefficients:	0	1.024463	0
Time Shift (s):	14
*
Time (s)	Temperature (C)	N2 flow rate (cc/min)	O2 flow rate (cc/min)	Flow Rate (cc/min)	Oxygen (%)	HRR (W/g)	Heating rate (C/s)
0.000	112.265	79.996	19.994	103.016	20.327	-0.080	-0.017
8.000	112.235	80.012	19.992	103.019	20.329	-0.205	-0.005
16.001	112.215	80.013	19.993	103.059	20.324	0.175	0.016
24.000	112.288	79.999	19.997	103.167	20.310	1.193	0.013
32.000	112.878	80.003	19.996	103.198	20.296	2.194	0.069
40.000	113.908	79.998	19.994	103.190	20.296	2.183	0.135
48.000	115.222	80.003	19.993	103.193	20.292	2.484	0.167
56.000	116.791	80.004	19.996	103.226	20.286	2.945	0.180
64.000	118.704	79.992	19.995	103.232	20.285	2.990	0.227
72.000	120.845	79.989	19.995	103.252	20.283	3.155	0.264
80.000	123.260	80.001	19.993	103.268	20.277	3.605	0.280
88.000	125.973	80.009	19.994	103.282	20.276	3.634	0.373
96.000	128.839	79.999	19.994	103.283	20.271	4.054	0.357
104.000	131.999	80.017	19.991	103.304	20.268	4.234	0.408
112.000	135.383	79.999	19.993	103.285	20.269	4.152	0.456
120.001	138.895	80.008	19.995	103.287	20.266	4.391	0.459
128.000	142.605	80.019	19.993	103.301	20.271	3.994	0.456
136.000	146.403	80.003	19.996	103.286	20.271	4.000	0.500
144.000	150.309	79.996	19.998	103.294	20.263	4.580	0.494
152.000	154.272	79.995	19.997	103.294	20.268	4.267	0.522
160.000	158.186	80.009	19.995	103.285	20.266	4.350	0.528
168.000	162.210	79.997	19.994	103.285	20.267	4.288	0.486
176.000	166.336	80.016	19.995	103.272	20.268	4.216	0.488
184.000	170.383	80.009	19.995	103.263	20.269	4.170	0.485
192.000	174.462	80.011	19.994	103.253	20.264	4.529	0.510
200.000	178.512	80.012	19.996	103.254	20.265	4.487	0.527
208.000	182.508	80.000	19.994	103.256	20.264	4.523	0.529
216.000	186.528	80.004	19.994	103.244	20.261	4.759	0.520
224.000	190.485	80.004	19.995	103.233	20.254	5.227	0.491
232.000	194.428	80.003	19.996	103.241	20.249	5.658	0.485
240.000	198.396	80.006	19.996	103.232	20.244	5.980	0.528
248.000	202.284	80.009	19.995	103.238	20.242	6.123	0.468
256.000	206.255	80.005	19.995	103.234	20.240	6.302	0.482
264.000	210.176	80.011	19.994	103.238	20.239	6.323	0.483
272.000	214.116	80.003	19.996	103.247	20.228	7.151	0.496
280.000	218.055	80.008	19.995	103.229	20.234	6.697	0.496
288.000	221.977	80.014	19.994	103.228	20.234	6.712	0.481
296.000	226.017	80.012	19.993	103.222	20.233	6.805	0.551
304.000	229.995	80.010	19.993	103.229	20.232	6.867	0.455
312.000	233.996	80.004	19.996	103.220	20.234	6.698	0.490
320.000	237.961	80.003	19.995	103.219	20.235	6.628	0.478
328.000	241.914	80.001	19.994	103.214	20.228	7.188	0.476
336.000	245.873	80.005	19.997	103.219	20.223	7.505	0.484
344.000	249.890	80.007	19.995	103.207	20.225	7.385	0.514
352.000	253.885	80.020	19.991	103.213	20.218	7.851	0.499
360.000	257.894	80.004	19.993	103.209	20.219	7.789	0.478
368.000	261.887	80.010	19.995	103.205	20.213	8.286	0.518
376.000	265.913	80.009	19.998	103.206	20.215	8.094	0.489
384.000	269.908	80.012	19.992	103.205	20.208	8.637	0.502
392.000	273.932	80.009	19.991	103.188	20.201	9.111	0.483
400.001	277.973	80.026	19.992	103.185	20.197	9.389	0.520
408.000	281.967	80.017	19.991	103.178	20.197	9.433	0.491
416.000	285.992	80.010	19.992	103.169	20.190	9.905	0.522
424.000	289.990	79.984	19.998	103.177	20.186	10.215	0.505
432.000	294.089	80.015	19.992	103.178	20.174	11.121	0.522
440.000	298.127	80.020	19.993	103.169	20.158	12.267	0.493
448.000	302.130	80.003	19.997	103.180	20.143	13.351	0.499
456.000	306.152	80.009	19.992	103.178	20.117	15.263	0.516
464.000	310.238	80.000	19.996	103.176	20.090	17.241	0.516
472.000	314.379	80.001	19.994	103.178	20.050	20.151	0.543
480.000	318.451	80.008	19.993	103.171	19.997	24.008	0.520
488.000	322.463	80.002	19.994	103.172	19.935	28.572	0.503
496.001	326.499	80.009	19.996	103.169	19.869	33.368	0.501
504.000	330.531	80.005	19.996	103.151	19.794	38.848	0.463
512.000	334.604	80.006	19.995	103.148	19.704	45.359	0.532
520.000	338.593	80.003	19.997	103.137	19.592	53.550	0.512
528.000	342.672	80.003	19.995	103.135	19.450	63.900	0.533
536.000	346.648	80.000	19.993	103.132	19.279	76.351	0.510
544.000	350.688	80.004	19.995	103.110	19.072	91.470	0.510
552.000	354.677	80.000	19.998	103.094	18.820	109.856	0.492
560.000	358.754	80.007	19.994	103.089	18.514	132.091	0.518
568.000	362.750	80.006	19.994	103.056	18.180	156.417	0.480
576.000	366.771	80.004	19.994	103.020	17.828	181.975	0.511
584.000	370.809	80.005	19.996	102.991	17.506	205.391	0.505
592.000	374.917	80.004	19.995	102.945	17.251	223.862	0.520
600.000	379.011	80.006	19.993	102.926	17.122	233.347	0.509
608.000	383.044	80.004	19.995	102.901	17.148	231.435	0.487
616.000	387.118	80.004	19.996	102.936	17.301	220.380	0.518
624.000	391.176	80.005	19.995	102.963	17.537	203.227	0.510
632.000	395.271	80.003	19.995	102.977	17.803	183.857	0.501
640.000	399.301	80.003	19.995	102.993	18.081	163.610	0.497
648.000	403.363	80.006	19.993	103.020	18.332	145.385	0.495
656.000	407.446	80.004	19.993	103.035	18.534	130.645	0.518
664.000	411.483	80.004	19.995	103.059	18.700	118.541	0.508
672.000	415.494	80.005	19.995	103.056	18.822	109.683	0.483
680.000	419.566	80.007	19.996	103.059	18.912	103.129	0.503
688.000	423.565	80.005	19.995	103.075	18.979	98.239	0.473
696.000	427.620	80.005	19.996	103.080	19.035	94.130	0.529
704.000	431.644	80.005	19.996	103.087	19.081	90.811	0.518
712.000	435.728	80.003	19.995	103.093	19.129	87.274	0.484
720.000	439.761	80.003	19.995	103.095	19.184	83.283	0.520
728.000	443.802	80.006	19.994	103.098	19.240	79.224	0.513
736.000	447.812	80.006	19.995	103.094	19.309	74.186	0.503
744.000	451.773	80.007	19.995	103.097	19.393	68.078	0.494
752.000	455.897	80.006	19.994	103.117	19.475	62.053	0.539
760.000	459.970	80.009	19.994	103.109	19.572	55.042	0.503
768.000	463.998	80.005	19.994	103.118	19.677	47.351	0.487
776.000	468.074	80.004	19.995	103.124	19.785	39.474	0.507
784.000	472.150	80.003	19.994	103.133	19.893	31.600	0.499
792.000	476.236	80.003	19.995	103.138	19.993	24.286	0.494
800.000	480.268	80.004	19.996	103.136	20.073	18.429	0.502
808.000	484.293	80.005	19.996	103.133	20.140	13.549	0.530
816.000	488.194	80.006	19.995	103.144	20.177	10.900	0.478
824.000	492.145	80.007	19.995	103.141	20.196	9.484	0.479
832.000	496.170	80.006	19.994	103.135	20.209	8.509	0.498
840.000	500.235	80.007	19.994	103.148	20.218	7.901	0.507
848.000	504.333	80.006	19.995	103.150	20.222	7.579	0.523
856.001	508.461	80.006	19.993	103.140	20.209	8.530	0.560
864.000	512.496	80.004	19.994	103.145	20.222	7.595	0.540
872.000	516.753	80.004	19.995	103.142	20.221	7.662	0.408
880.000	520.579	80.004	19.995	103.133	20.218	7.850	0.527
888.000	524.570	80.004	19.995	103.134	20.219	7.789	0.470
896.000	528.587	80.005	19.994	103.136	20.220	7.732	0.537
904.000	532.625	80.005	19.994	103.137	20.217	7.937	0.507
912.000	536.809	80.005	19.996	103.141	20.215	8.106	0.536
920.000	541.002	80.007	19.994	103.145	20.215	8.080	0.515
928.000	545.296	80.006	19.994	103.147	20.213	8.229	0.553
936.000	549.542	80.005	19.994	103.141	20.215	8.122	0.529
944.000	553.892	80.006	19.993	103.134	20.215	8.120	0.545
952.001	558.214	80.006	19.994	103.139	20.211	8.369	0.528
960.000	562.511	80.007	19.995	103.134	20.209	8.568	0.528
968.000	566.780	80.005	19.997	103.147	20.210	8.483	0.532
976.000	571.051	80.005	19.994	103.150	20.203	9.004	0.540
984.000	575.527	80.007	19.995	103.140	20.201	9.135	0.545
992.000	579.864	80.006	19.996	103.135	20.203	9.000	0.520
1000.000	584.164	80.005	19.996	103.143	20.200	9.230	0.549
1008.000	588.412	80.009	19.995	103.144	20.198	9.374	0.553
1016.000	592.521	80.006	19.995	103.135	20.194	9.615	0.500
1024.001	596.644	80.005	19.995	103.140	20.192	9.782	0.495
1032.000	600.512	80.005	19.995	103.135	20.193	9.684	0.465
1040.000	604.384	80.006	19.995	103.138	20.192	9.785	0.481
1048.000	608.314	80.006	19.994	103.139	20.192	9.758	0.477
1056.000	612.250	80.006	19.993	103.138	20.182	10.480	0.495
1064.000	616.207	80.006	19.994	103.143	20.184	10.332	0.492
1072.001	620.235	80.008	19.995	103.137	20.180	10.678	0.529
1080.001	624.317	80.006	19.995	103.140	20.182	10.502	0.484
1088.000	628.397	80.008	19.995	103.133	20.179	10.725	0.503
1096.000	632.505	80.006	19.996	103.139	20.178	10.795	0.532
1104.000	636.648	80.005	19.994	103.139	20.171	11.300	0.502
1112.001	640.766	80.005	19.994	103.146	20.170	11.391	0.516
1120.000	644.801	80.006	19.994	103.142	20.168	11.497	0.514
1128.000	648.845	80.006	19.995	103.133	20.164	11.854	0.507
1136.001	652.954	80.006	19.993	103.136	20.167	11.590	0.494
1144.000	656.994	80.008	19.994	103.134	20.165	11.754	0.507
1152.001	661.089	80.006	19.994	103.131	20.158	12.234	0.480
1160.001	665.181	80.006	19.995	103.133	20.157	12.339	0.518
1168.000	669.236	80.007	19.994	103.135	20.157	12.333	0.534
1176.000	673.296	80.008	19.994	103.134	20.155	12.511	0.546
1184.000	677.387	80.004	19.995	103.137	20.155	12.484	0.499
1192.000	681.455	80.005	19.995	103.136	20.158	12.281	0.487
1200.000	685.613	80.006	19.994	103.135	20.154	12.562	0.536
1208.000	689.722	80.007	19.995	103.133	20.155	12.514	0.512
1216.000	693.726	80.005	19.995	103.133	20.155	12.510	0.480
1224.001	697.725	80.005	19.995	103.135	20.149	12.924	0.498
1232.000	701.744	80.008	19.994	103.135	20.146	13.122	0.462
1240.000	705.757	80.008	19.994	103.137	20.145	13.185	0.486
1248.001	709.789	80.007	19.994	103.138	20.141	13.505	0.497
1256.000	713.849	80.007	19.994	103.135	20.140	13.567	0.535
1264.001	717.904	80.007	19.994	103.135	20.136	13.850	0.501
1272.000	721.960	80.006	19.995	103.136	20.135	13.959	0.507
1280.000	725.985	80.005	19.995	103.130	20.133	14.073	0.494
1288.000	730.062	80.005	19.995	103.138	20.133	14.050	0.477
1296.000	734.188	80.006	19.994	103.142	20.135	13.935	0.506
1304.001	738.319	80.006	19.994	103.146	20.129	14.397	0.539
1312.000	742.488	80.009	19.994	103.153	20.127	14.491	0.536
1313.500	743.297	80.008	19.993	103.153	20.125	14.652	0.524