Folder: fsri_materials_database/01_Data/Gypsum_Wallboard_GypsumCore/MCC

Note: 01_Data/README.md
# Materials and Products Database
## 01_Data

Raw data generated from each apparatus are included here in plain-text format. The data is organized first by material, next by the short name of test apparatus used, and where applicable additional filtering by test settings.

### material.json

Each material directory contains a json file of the same name as the material. This file links the data stored in the repository as well as data and graphs produced by the accompanying scripts (__02_Scripts__) to the respective landing page for the material on the front-end website.

File: Gypsum_Wallboard_GypsumCore_MCC_30K_min_211004_R1.txt
Sample ID:	C:\MCC\MCC Cal\Test\Gypsum_Wallboard_GypsumCore_MCC_30K_min_211004_R1.txt
Sample Weight (mg):	4.73
Heating Rate (C/s):	0.5
Combustor Temp (C):	900
N2 Flow Rate (cc/min):	80
O2 Flow Rate (cc/min):	20
Calibration File:	C:\MCC\MCC Cal\Coeff1 JN10440_30_210304.txt.txt
T Correction Coefficients:	0	1.024463	0
Time Shift (s):	14
*
Time (s)	Temperature (C)	N2 flow rate (cc/min)	O2 flow rate (cc/min)	Flow Rate (cc/min)	Oxygen (%)	HRR (W/g)	Heating rate (C/s)
0.000	106.812	79.994	19.997	100.627	20.034	-0.092	0.001
8.000	106.791	79.993	19.996	100.631	20.028	0.298	0.008
16.000	106.863	79.994	19.997	100.702	20.022	0.664	0.027
24.000	107.180	79.993	19.995	100.829	20.010	1.495	0.101
32.001	107.930	79.995	19.996	100.815	19.999	2.195	0.115
40.000	109.214	79.996	19.995	100.821	19.998	2.307	0.176
48.000	110.813	79.995	19.994	100.813	19.992	2.673	0.210
56.000	112.830	79.996	19.994	100.869	19.984	3.228	0.302
64.001	115.173	79.998	19.995	100.889	19.987	3.029	0.323
72.000	117.848	79.995	19.995	100.892	19.987	2.991	0.330
80.001	120.815	79.996	19.997	100.899	19.982	3.371	0.419
88.000	123.969	79.995	19.995	100.890	19.982	3.338	0.408
96.000	127.288	79.994	19.997	100.891	19.976	3.746	0.430
104.000	130.835	79.993	19.995	100.891	19.976	3.740	0.426
112.000	134.545	79.993	19.996	100.891	19.982	3.349	0.460
120.000	138.363	79.997	19.995	100.886	19.984	3.235	0.454
128.000	142.282	79.995	19.995	100.894	19.984	3.224	0.461
136.000	146.295	79.995	19.995	100.873	19.983	3.289	0.473
144.001	150.296	79.997	19.994	100.872	19.982	3.333	0.507
152.000	154.256	79.996	19.995	100.861	19.984	3.241	0.472
160.000	158.305	79.995	19.997	100.867	19.987	3.013	0.530
168.000	162.302	79.994	19.995	100.862	19.986	3.103	0.477
176.000	166.368	79.996	19.996	100.858	19.990	2.846	0.513
184.000	170.358	79.994	19.995	100.859	19.994	2.569	0.478
192.000	174.395	79.995	19.997	100.853	19.997	2.337	0.549
200.000	178.342	79.997	19.996	100.833	19.995	2.504	0.498
208.000	182.343	79.996	19.995	100.837	19.990	2.822	0.507
216.000	186.240	79.995	19.996	100.826	19.994	2.541	0.472
224.000	190.198	79.996	19.995	100.821	19.993	2.601	0.540
232.000	194.134	79.996	19.996	100.821	19.995	2.496	0.502
240.000	198.047	79.995	19.996	100.825	19.990	2.807	0.484
248.001	201.957	79.997	19.995	100.822	19.993	2.598	0.464
256.000	205.884	79.995	19.997	100.824	19.994	2.558	0.519
264.000	209.916	79.994	19.996	100.823	19.996	2.436	0.538
272.000	213.825	79.994	19.995	100.823	19.992	2.681	0.511
280.000	217.806	79.995	19.996	100.824	19.998	2.306	0.491
288.000	221.731	79.995	19.997	100.818	19.993	2.593	0.511
296.000	225.680	79.995	19.995	100.816	19.994	2.516	0.448
304.000	229.637	79.996	19.995	100.805	19.994	2.537	0.481
312.000	233.653	79.994	19.994	100.800	19.998	2.257	0.476
320.000	237.578	79.992	19.995	100.804	19.995	2.493	0.500
328.000	241.514	79.993	19.995	100.785	19.997	2.347	0.454
336.000	245.406	79.994	19.997	100.794	19.995	2.510	0.473
344.000	249.311	79.995	19.995	100.794	19.999	2.206	0.506
352.000	253.169	79.993	19.996	100.785	20.001	2.082	0.503
360.000	256.980	79.996	19.996	100.785	20.001	2.101	0.460
368.000	260.706	79.996	19.996	100.781	19.998	2.310	0.418
376.000	264.408	79.994	19.996	100.782	19.998	2.314	0.466
384.000	268.197	79.996	19.995	100.785	19.998	2.282	0.523
392.000	272.033	79.997	19.996	100.782	20.001	2.081	0.466
400.000	275.826	79.992	19.995	100.785	20.000	2.151	0.491
408.000	279.690	79.995	19.996	100.790	20.001	2.106	0.472
416.000	283.566	79.995	19.997	100.797	19.998	2.260	0.500
424.000	287.499	79.995	19.996	100.782	19.997	2.325	0.473
432.000	291.491	79.995	19.995	100.782	19.998	2.285	0.489
440.000	295.493	79.995	19.996	100.789	19.997	2.376	0.484
448.000	299.515	79.997	19.996	100.782	19.994	2.522	0.504
456.000	303.634	79.994	19.995	100.782	19.999	2.231	0.517
464.000	307.643	79.995	19.996	100.785	19.996	2.392	0.453
472.000	311.780	79.995	19.995	100.811	19.999	2.226	0.494
480.000	316.161	79.993	19.996	100.794	19.997	2.345	0.583
488.000	320.440	79.996	19.996	100.791	19.989	2.859	0.542
496.000	324.826	79.996	19.995	100.793	19.994	2.537	0.534
504.000	329.168	79.995	19.997	100.787	19.995	2.471	0.539
512.000	333.507	79.993	19.996	100.783	19.998	2.265	0.566
520.000	337.870	79.995	19.996	100.783	19.996	2.430	0.566
528.000	342.005	79.996	19.996	100.780	19.996	2.395	0.484
536.000	346.206	79.994	19.997	100.779	19.992	2.659	0.538
544.000	350.334	79.995	19.996	100.777	19.996	2.428	0.484
552.000	354.528	79.998	19.995	100.773	19.992	2.674	0.535
560.000	358.572	79.994	19.995	100.769	19.995	2.458	0.492
568.001	362.597	79.994	19.998	100.762	19.998	2.274	0.504
576.000	366.584	79.995	19.995	100.772	19.993	2.623	0.506
584.000	370.589	79.995	19.996	100.774	20.001	2.113	0.525
592.000	374.596	79.995	19.996	100.776	20.002	2.035	0.518
600.000	378.611	79.995	19.996	100.776	19.996	2.395	0.482
608.000	382.620	79.997	19.995	100.758	20.001	2.053	0.506
616.000	386.608	79.997	19.995	100.770	20.004	1.912	0.461
624.000	390.604	79.998	19.996	100.747	20.003	1.948	0.501
632.001	394.642	79.999	19.996	100.747	19.996	2.389	0.478
640.000	398.634	79.996	19.995	100.756	19.999	2.218	0.480
648.000	402.602	79.995	19.996	100.752	20.001	2.051	0.484
656.000	406.600	79.994	19.997	100.750	19.999	2.200	0.500
664.000	410.627	79.995	19.996	100.753	19.998	2.277	0.543
672.000	414.606	79.995	19.996	100.746	19.998	2.279	0.475
680.000	418.718	79.994	19.996	100.764	19.998	2.259	0.518
688.000	422.745	79.998	19.995	100.748	20.004	1.908	0.483
696.000	426.813	79.996	19.996	100.756	20.003	1.955	0.510
704.000	430.891	79.996	19.997	100.744	20.001	2.058	0.508
712.000	434.956	79.998	19.996	100.750	20.001	2.076	0.518
720.000	439.015	79.998	19.996	100.755	19.995	2.458	0.523
728.000	442.984	79.996	19.996	100.757	20.001	2.060	0.511
736.000	446.944	79.996	19.996	100.746	20.002	2.004	0.501
744.000	450.934	79.996	19.996	100.743	19.999	2.234	0.500
752.000	454.789	79.995	19.997	100.743	19.997	2.349	0.483
760.000	458.622	79.995	19.995	100.742	19.998	2.259	0.493
768.000	462.467	79.998	19.995	100.746	19.997	2.364	0.509
776.000	466.301	79.996	19.995	100.750	19.992	2.668	0.509
784.000	470.232	79.995	19.994	100.747	19.998	2.286	0.517
792.000	474.281	79.997	19.995	100.756	19.995	2.474	0.524
800.000	478.315	79.998	19.995	100.750	19.998	2.290	0.478
808.000	482.281	79.995	19.997	100.745	19.997	2.333	0.482
816.000	486.233	79.997	19.997	100.764	19.995	2.447	0.478
824.000	490.392	79.997	19.998	100.765	19.989	2.849	0.510
832.000	494.775	79.995	19.997	100.760	19.987	2.990	0.558
840.000	499.295	79.995	19.997	100.755	19.985	3.151	0.572
848.000	503.825	79.997	19.997	100.748	19.992	2.662	0.591
856.000	508.439	79.995	19.994	100.753	19.988	2.963	0.565
864.000	512.982	79.995	19.995	100.758	19.991	2.715	0.566
872.000	517.575	79.996	19.995	100.751	19.988	2.962	0.557
880.000	522.151	79.998	19.995	100.741	19.993	2.641	0.538
888.001	526.657	79.994	19.995	100.742	19.988	2.966	0.566
896.000	531.147	79.994	19.996	100.747	19.991	2.762	0.563
904.000	535.556	79.995	19.996	100.744	19.989	2.883	0.547
912.000	539.877	79.995	19.996	100.745	19.991	2.715	0.563
920.000	544.121	79.994	19.997	100.745	19.990	2.796	0.519
928.000	548.385	79.997	19.996	100.747	19.989	2.859	0.522
936.000	552.545	79.996	19.996	100.728	19.989	2.875	0.475
944.000	556.771	79.998	19.997	100.740	19.993	2.619	0.516
952.000	560.884	79.997	19.995	100.726	19.991	2.733	0.534
960.000	564.981	79.999	19.995	100.730	19.989	2.867	0.473
968.001	569.034	79.995	19.997	100.741	19.988	2.937	0.521
976.000	573.179	79.995	19.997	100.743	19.992	2.671	0.520
984.000	577.291	79.995	19.997	100.740	19.989	2.899	0.449
992.001	581.384	79.996	19.997	100.747	19.991	2.713	0.478
1000.000	585.441	79.994	19.997	100.742	19.990	2.820	0.530
1008.000	589.521	79.995	19.998	100.742	19.992	2.659	0.499
1016.000	593.565	79.998	19.995	100.744	19.993	2.617	0.496
1024.000	597.616	79.996	19.996	100.741	19.988	2.943	0.471
1032.000	601.718	79.996	19.997	100.741	19.986	3.105	0.506
1040.000	605.772	79.997	19.995	100.742	19.991	2.725	0.530
1048.000	609.861	79.998	19.995	100.745	19.989	2.906	0.530
1056.000	613.941	79.994	19.996	100.746	19.992	2.669	0.528
1064.000	617.995	79.997	19.996	100.744	19.984	3.230	0.495
1072.000	622.072	79.998	19.996	100.742	19.987	3.020	0.508
1080.000	626.081	79.997	19.996	100.743	19.985	3.169	0.486
1088.001	630.144	79.994	19.997	100.743	19.985	3.125	0.529
1096.000	634.165	79.998	19.996	100.742	19.986	3.111	0.513
1104.000	638.203	79.995	19.995	100.745	19.993	2.617	0.549
1112.000	642.183	79.995	19.994	100.745	19.991	2.751	0.500
1120.000	646.219	79.996	19.996	100.747	19.988	2.935	0.497
1128.000	650.265	79.997	19.995	100.741	19.982	3.362	0.482
1136.000	654.379	79.996	19.996	100.742	19.992	2.700	0.524
1144.001	658.458	79.995	19.996	100.742	19.984	3.223	0.544
1152.000	662.492	79.996	19.995	100.758	19.990	2.827	0.492
1160.001	666.547	79.995	19.995	100.743	19.988	2.943	0.497
1168.000	670.603	79.995	19.995	100.753	19.986	3.053	0.532
1176.000	674.655	79.995	19.996	100.747	19.988	2.937	0.498
1184.001	678.715	79.995	19.995	100.753	19.989	2.899	0.487
1192.000	682.778	79.995	19.996	100.743	19.989	2.865	0.522
1200.000	686.775	79.998	19.997	100.751	19.984	3.232	0.489
1208.000	690.755	79.996	19.998	100.741	19.981	3.431	0.488
1216.000	694.827	79.994	19.997	100.743	19.982	3.337	0.528
1224.001	698.841	79.997	19.996	100.747	19.984	3.187	0.515
1232.001	702.879	79.996	19.995	100.749	19.982	3.344	0.492
1240.000	706.958	79.994	19.994	100.751	19.988	2.917	0.509
1248.001	711.023	79.994	19.994	100.746	19.987	3.011	0.504
1256.000	715.080	79.996	19.996	100.740	19.990	2.785	0.508
1264.000	719.076	79.998	19.997	100.739	19.985	3.170	0.459
1272.000	723.088	79.998	19.998	100.736	19.986	3.058	0.477
1280.000	727.096	79.999	19.997	100.736	19.985	3.149	0.542
1288.000	731.054	79.997	19.995	100.738	19.981	3.425	0.476
1296.000	735.128	79.995	19.996	100.743	19.980	3.454	0.470
1304.001	739.218	79.994	19.997	100.743	19.982	3.347	0.528
1312.000	743.219	79.995	19.995	100.738	19.980	3.459	0.536
1312.500	743.501	79.995	19.995	100.734	19.979	3.521	0.527