Folder: fsri_materials_database/01_Data/Nylon/STA/N2/10K_min (part 2)

File: Nylon_STA_N2_10KData_220604_R3.csv
##Temp./Â°C,Time/min,DSC(subtr.2)/(mW/mg),Mass loss(subtr.2)/mg,Sensit./(uV/mW)
49.858,10.01,0.002632041,-0.04036,1.06049
52.958,11.31001,0.13379,-0.0433202,1.05984
56.058,11.75305,0.19842,-0.04587634,1.05918
59.158,12.13009,0.23576,-0.0456366,1.0585
62.258,12.48093,0.26086,-0.04715689,1.0578
65.358,12.82307,0.28183,-0.04847957,1.05708
68.458,13.1605,0.29565,-0.04847315,1.05635
71.558,13.49298,0.30731,-0.05138626,1.0556
74.658,13.82042,0.31257,-0.05242927,1.05483
77.758,14.1444,0.31919,-0.05295653,1.05404
80.858,14.46565,0.32326,-0.05251202,1.05324
83.958,14.78382,0.32691,-0.06337512,1.05242
87.058,15.09869,0.32811,-0.05552353,1.05158
90.158,15.4106,0.33047,-0.05517,1.05072
93.258,15.722,0.33332,-0.05781075,1.04985
96.358,16.0295,0.34126,-0.06307,1.04896
99.458,16.3363,0.34178,-0.06119871,1.04805
102.558,16.64126,0.3473,-0.05133475,1.04713
105.658,16.94568,0.35119,-0.06044088,1.04619
108.758,17.2504,0.35939,-0.06208,1.04523
111.858,17.5535,0.36289,-0.0643949,1.04425
114.958,17.85604,0.36834,-0.06363913,1.04326
118.058,18.15894,0.37179,-0.0662715,1.04225
121.158,18.46065,0.37608,-0.06574102,1.04123
124.258,18.7637,0.37702,-0.06535613,1.04019
127.358,19.06544,0.38178,-0.06537,1.03913
130.458,19.3669,0.38335,-0.066681,1.03806
133.558,19.66789,0.39166,-0.06703163,1.03697
136.658,19.96837,0.39878,-0.06800383,1.03587
139.758,20.268,0.40094,-0.06800996,1.03474
142.858,20.56811,0.4043,-0.06881108,1.03361
145.958,20.86734,0.40863,-0.06799971,1.03245
149.058,21.166,0.4147,-0.06866508,1.03129
152.158,21.4644,0.41983,-0.06923724,1.0301
155.258,21.76256,0.42443,-0.06931998,1.0289
158.358,22.06041,0.4279,-0.06998,1.02769
161.458,22.358,0.43173,-0.07064001,1.02645
164.558,22.65534,0.43719,-0.07192517,1.02521
167.658,22.9529,0.43863,-0.07065293,1.02395
170.758,23.25031,0.44274,-0.07195,1.02267
173.858,23.54795,0.44758,-0.07195094,1.02138
176.958,23.84538,0.44932,-0.07194843,1.02007
180.058,24.14211,0.45235,-0.07326334,1.01875
183.158,24.4386,0.45406,-0.07261144,1.01741
186.258,24.73515,0.45394,-0.07327005,1.01606
189.358,25.0309,0.45669,-0.07327,1.01469
192.458,25.32722,0.45834,-0.07459789,1.01331
195.558,25.62267,0.46288,-0.07393,1.01192
198.658,25.9182,0.46564,-0.0755799,1.01051
201.758,26.21435,0.47017,-0.07534943,1.00908
204.858,26.51039,0.47409,-0.0759,1.00765
207.958,26.80592,0.4804,-0.07490437,1.00619
211.058,27.1021,0.48385,-0.07525065,1.00473
214.158,27.39811,0.48975,-0.07660792,1.00325
217.258,27.6939,0.49659,-0.07689,1.00175
220.358,27.98974,0.50381,-0.07689005,1.00024
223.458,28.28555,0.5101,-0.0771944,0.99872
226.558,28.5819,0.52005,-0.07721,0.99719
229.658,28.877,0.52996,-0.07852959,0.99564
232.758,29.1721,0.54191,-0.07591096,0.99407
235.858,29.46872,0.55401,-0.07855694,0.9925
238.958,29.7643,0.57036,-0.07854003,0.99091
242.058,30.06063,0.58896,-0.07854,0.98931
245.158,30.3566,0.61812,-0.07891193,0.98769
248.258,30.6529,0.66904,-0.07753981,0.98606
251.358,30.94957,0.80164,-0.08018381,0.98442
254.458,31.2467,0.99902,-0.0791831,0.98277
257.558,31.5457,1.27464,-0.08049863,0.9811
260.658,31.84491,1.50998,-0.08149026,0.97942
263.758,32.14289,1.0512,-0.07950998,0.97773
266.858,32.43603,0.60071,-0.08083,0.97602
269.958,32.7288,0.53145,-0.08083,0.9743
273.058,33.02147,0.51827,-0.08149,0.97258
276.158,33.31629,0.51581,-0.08197927,0.97083
279.258,33.61285,0.5161,-0.08280999,0.96908
282.358,33.90886,0.51964,-0.08176364,0.96731
285.458,34.20445,0.52042,-0.08215924,0.96554
288.558,34.50045,0.52093,-0.08247999,0.96375
291.658,34.79667,0.52245,-0.0837837,0.96194
294.758,35.09348,0.52404,-0.08511,0.96013
297.858,35.38974,0.52544,-0.08511,0.95831
300.958,35.6868,0.52752,-0.08511,0.95647
304.058,35.9838,0.52688,-0.08610723,0.95462
307.158,36.28215,0.52866,-0.08709046,0.95276
310.258,36.57995,0.53092,-0.08709,0.95089
313.358,36.87742,0.53409,-0.08807296,0.94901
316.458,37.17577,0.53536,-0.08869371,0.94712
319.558,37.4744,0.53643,-0.09137624,0.94522
322.658,37.77281,0.53875,-0.09004996,0.9433
325.758,38.07179,0.54028,-0.09044095,0.94138
328.858,38.3703,0.54097,-0.09137,0.93944
331.958,38.66896,0.54153,-0.09399972,0.93749
335.058,38.96889,0.54493,-0.09234891,0.93554
338.158,39.26757,0.54659,-0.09465018,0.93357
341.258,39.56702,0.55121,-0.09660563,0.93159
344.358,39.86646,0.5537,-0.09624738,0.9296
347.458,40.1661,0.55747,-0.09992009,0.92761
350.558,40.46476,0.56049,-0.09906876,0.9256
353.658,40.76355,0.56326,-0.10009,0.92358
356.758,41.06538,0.56489,-0.1029,0.92155
359.858,41.36575,0.56412,-0.10688,0.91951
362.958,41.6661,0.56603,-0.10946,0.91747
366.058,41.96662,0.57778,-0.11188,0.91541
369.158,42.2662,0.59464,-0.11506,0.91334
372.258,42.56845,0.60971,-0.12107,0.91127
375.358,42.86994,0.63366,-0.12702,0.90918
378.458,43.17201,0.6659,-0.1324,0.90709
381.558,43.47452,0.72223,-0.1427,0.90498
384.658,43.77715,0.79019,-0.15429,0.90287
387.758,44.0801,0.86852,-0.17198,0.90075
390.858,44.3833,0.9651,-0.19844,0.89862
393.958,44.68685,1.11234,-0.22988,0.89648
397.058,44.99042,1.22259,-0.27518,0.89433
400.158,45.29404,1.31882,-0.33205,0.89217
403.258,45.59753,1.40482,-0.39968,0.89001
406.358,45.9009,1.49681,-0.47908,0.88783
409.458,46.20446,1.60046,-0.56621,0.88565
412.558,46.50826,1.69486,-0.66816,0.88346
415.658,46.81278,1.78297,-0.78229,0.88126
418.758,47.11677,1.87355,-0.90655,0.87905
421.858,47.42136,1.94572,-1.05083,0.87684
424.958,47.72526,1.99306,-1.19928,0.87462
428.058,48.03007,2.01678,-1.36178,0.87238
431.158,48.3352,2.02642,-1.53367,0.87015
434.258,48.63942,2.02354,-1.71044,0.8679
437.358,48.94358,1.9986,-1.89732,0.86565
440.458,49.24765,1.96691,-2.08408,0.86338
443.558,49.5499,1.91182,-2.27374,0.86112
446.658,49.85517,1.86829,-2.46716,0.85884
449.758,50.15917,1.80898,-2.66155,0.85656
452.858,50.46351,1.72849,-2.85505,0.85427
455.958,50.7675,1.62117,-3.04456,0.85197
459.058,51.07143,1.48312,-3.22645,0.84966
462.158,51.37494,1.30298,-3.39785,0.84735
465.258,51.6781,1.0777,-3.55166,0.84503
468.358,51.9812,0.81621,-3.67851,0.84271
471.458,52.28373,0.55809,-3.77752,0.84038
474.558,52.5872,0.35128,-3.84649,0.83804
477.658,52.89176,0.22365,-3.88888,0.8357
480.758,53.19634,0.14451,-3.91568,0.83334
483.858,53.50135,0.10947,-3.93193,0.83099
486.958,53.8074,0.08919,-3.93771,0.82862
490.058,54.11319,0.07525027,-3.94294,0.82625
493.158,54.4192,0.0734423,-3.94957,0.82388
496.258,54.72535,0.08526358,-3.95084,0.8215
499.358,55.03151,0.10064,-3.95221,0.81911
502.458,55.3387,0.08416155,-3.95355,0.81672
505.558,55.64689,0.06684494,-3.95385,0.81432
508.658,55.95469,0.06134856,-3.95649,0.81191
511.758,56.263,0.04757868,-3.95649,0.8095
514.858,56.57023,0.03152459,-3.95912,0.80709
517.958,56.87967,0.0197859,-3.95717,0.80467
521.058,57.18971,0.0181345,-3.9578,0.80224
524.158,57.4992,0.01950153,-3.95781,0.79981
527.258,57.8079,0.02127542,-3.96043,0.79737
530.358,58.1164,0.02767763,-3.95913,0.79493
533.458,58.42484,0.03079134,-3.95978,0.79248
536.558,58.73251,0.03100601,-3.95934,0.79003
539.658,59.0404,0.0357019,-3.95978,0.78757
542.758,59.3487,0.0379306,-3.95978,0.78511
545.858,59.6575,0.03550519,-3.96114,0.78265
548.958,59.9655,0.03357801,-3.96109,0.78018
552.058,60.27325,0.03573464,-3.95944,0.7777
555.158,60.58286,0.04155648,-3.96174,0.77522
558.258,60.89255,0.04278211,-3.96279,0.77274
561.358,61.2027,0.04135029,-3.96438,0.77025
564.458,61.51334,0.04435389,-3.96405,0.76776
567.558,61.8236,0.04545018,-3.96302,0.76526
570.658,62.13395,0.04718871,-3.96277,0.76276
573.758,62.44486,0.0420037,-3.96433,0.76026
576.858,62.75396,0.04749527,-3.96407,0.75775
579.958,63.06521,0.04932028,-3.96537,0.75524
583.058,63.3757,0.0509132,-3.96538,0.75273
586.158,63.68541,0.04910571,-3.96608,0.75021
589.258,63.99499,0.05011137,-3.96532,0.74768
592.358,64.30506,0.05485291,-3.968,0.74516
595.458,64.61514,0.05981086,-3.96791,0.74263
598.558,64.92599,0.06029805,-3.96833,0.7401
601.658,65.2362,0.06036992,-3.968,0.73756
604.758,65.54521,0.05931313,-3.97021,0.73502
607.858,65.85673,0.06457264,-3.97031,0.73248
610.958,66.16923,0.06226986,-3.96959,0.72994
614.058,66.48015,0.06827099,-3.97293,0.72739
617.158,66.79115,0.07057752,-3.97031,0.72484
620.258,67.10237,0.07220107,-3.97064,0.72229
623.358,67.41305,0.07456521,-3.97162,0.71973
626.458,67.72446,0.07732426,-3.97294,0.71717
629.558,68.03644,0.07807069,-3.97118,0.71461
632.658,68.3489,0.07935081,-3.97283,0.71205
635.758,68.6608,0.08434445,-3.97184,0.70948
638.858,68.9725,0.08406086,-3.97151,0.70691
641.958,69.2846,0.08765032,-3.97274,0.70434
645.058,69.5968,0.08767745,-3.97314,0.70177
648.158,69.90897,0.08818786,-3.97151,0.6992
651.258,70.22106,0.09160856,-3.97279,0.69662
654.358,70.53262,0.08942455,-3.97283,0.69404
657.458,70.84413,0.08870615,-3.97138,0.69146
660.558,71.15641,0.08572617,-3.97251,0.68888
663.658,71.4688,0.08612724,-3.97117,0.6863
666.758,71.78115,0.08453255,-3.9725,0.68371
669.858,72.09362,0.08653384,-3.9718,0.68113
672.958,72.40618,0.09141762,-3.97381,0.67854
676.058,72.71914,0.09387739,-3.97546,0.67595
679.158,73.03183,0.08776824,-3.97414,0.67336
682.258,73.34403,0.08771267,-3.9758,0.67077
685.358,73.65726,0.08786678,-3.97283,0.66818
688.458,73.97063,0.09396689,-3.97518,0.66558
691.558,74.28361,0.09951924,-3.9748,0.66299
694.658,74.59774,0.09959679,-3.97381,0.66039
697.758,74.91135,0.09817428,-3.97512,0.65779
700.858,75.22522,0.10181,-3.97382,0.6552
703.958,75.53875,0.1023,-3.97381,0.6526
707.058,75.85306,0.10726,-3.97381,0.65
710.158,76.16694,0.11662,-3.97513,0.6474
713.258,76.48114,0.11734,-3.9748,0.6448
716.358,76.79462,0.11812,-3.97382,0.6422
719.458,77.1083,0.12296,-3.9725,0.6396
722.558,77.4221,0.12448,-3.97381,0.637
725.658,77.73599,0.1292,-3.97417,0.6344
728.758,78.04996,0.13224,-3.97382,0.6318
731.858,78.364,0.1278,-3.9725,0.6292
734.958,78.6776,0.12997,-3.97446,0.6266
738.058,78.99158,0.13413,-3.97348,0.62399
741.158,79.30546,0.13073,-3.97217,0.62139
744.258,79.62024,0.12893,-3.97384,0.61879
747.358,79.93414,0.12441,-3.97151,0.61619
747.958,79.9946,0.12012,-3.97151,0.61569