Folder: fsri_materials_database/01_Data/Nylon/STA/N2/10K_min

Note: 01_Data/README.md
# Materials and Products Database
## 01_Data

Raw data generated from each apparatus are included here in plain-text format. The data is organized first by material, next by the short name of test apparatus used, and where applicable additional filtering by test settings.

### material.json

Each material directory contains a json file of the same name as the material. This file links the data stored in the repository as well as data and graphs produced by the accompanying scripts (__02_Scripts__) to the respective landing page for the material on the front-end website.

File: Nylon_STA_N2_10KData_220604_R1.csv
##Temp./Â°C,Time/min,DSC(subtr.2)/(mW/mg),Mass loss(subtr.2)/mg,Sensit./(uV/mW)
49.962,10.00917,-0.000910683,-0.00713,1.06046
52.962,11.29567,0.13705,-0.00663606,1.05984
55.962,11.72873,0.20405,-0.007946921,1.0592
58.962,12.09778,0.24461,-0.006288472,1.05854
61.962,12.44202,0.27056,-0.006242927,1.05787
64.962,12.77351,0.29143,-0.00891526,1.05718
67.962,13.0992,0.30696,-0.006690424,1.05647
70.962,13.4208,0.32165,-0.01030177,1.05574
73.962,13.73875,0.32741,-0.01031218,1.055
76.962,14.0535,0.33481,-0.008940257,1.05425
79.962,14.36495,0.33816,-0.009645818,1.05347
82.962,14.6738,0.34359,-0.01226029,1.05268
85.962,14.97923,0.34485,-0.01195,1.05188
88.962,15.2824,0.35221,-0.01496024,1.05105
91.962,15.58375,0.35602,-0.01229,1.05022
94.962,15.8824,0.36075,-0.0142599,1.04936
97.962,16.1803,0.36424,-0.01425993,1.04849
100.962,16.47707,0.3744,-0.01426041,1.0476
103.962,16.7725,0.38104,-0.01553961,1.0467
106.962,17.06718,0.38411,-0.01871406,1.04578
109.962,17.36287,0.39048,-0.01492996,1.04485
112.962,17.65705,0.3961,-0.01753988,1.0439
115.962,17.9509,0.40173,-0.01752948,1.04294
118.962,18.24354,0.4078,-0.01721961,1.04196
121.962,18.5362,0.41604,-0.0162296,1.04096
124.962,18.82775,0.4216,-0.01721935,1.03995
127.962,19.1185,0.42634,-0.01886102,1.03893
130.962,19.40996,0.43126,-0.01754981,1.03788
133.962,19.70061,0.43814,-0.01821,1.03683
136.962,19.99129,0.44197,-0.01724241,1.03576
139.962,20.28122,0.44691,-0.01557997,1.03467
142.962,20.57106,0.44972,-0.01722291,1.03357
145.962,20.86041,0.45779,-0.01753465,1.03245
148.962,21.14934,0.46317,-0.01886005,1.03132
151.962,21.438,0.46986,-0.0182,1.03018
154.962,21.72595,0.47361,-0.01788067,1.02902
157.962,22.01476,0.47921,-0.01824342,1.02784
160.962,22.30069,0.48555,-0.01689592,1.02665
163.962,22.589,0.48783,-0.01819872,1.02545
166.962,22.87807,0.48927,-0.01887016,1.02423
169.962,23.1667,0.49594,-0.01983268,1.023
172.962,23.45479,0.49779,-0.01957093,1.02175
175.962,23.74183,0.50324,-0.01908094,1.02049
178.962,24.02897,0.50772,-0.01920003,1.01922
181.962,24.31624,0.50803,-0.01762135,1.01793
184.962,24.60255,0.51244,-0.01951742,1.01663
187.962,24.88867,0.51644,-0.01952,1.01531
190.962,25.1747,0.51816,-0.02083914,1.01398
193.962,25.4616,0.52184,-0.02008515,1.01264
196.962,25.74771,0.52785,-0.02053591,1.01128
199.962,26.03345,0.5311,-0.02279618,1.00991
202.962,26.3197,0.53378,-0.02413907,1.00853
205.962,26.6065,0.53875,-0.02282,1.00713
208.962,26.89283,0.54378,-0.02282,1.00572
211.962,27.17953,0.54834,-0.02282,1.0043
214.962,27.46637,0.55669,-0.0238,1.00286
217.962,27.75323,0.56226,-0.02512697,1.00141
220.962,28.03929,0.5731,-0.02380052,0.99995
223.962,28.3254,0.57933,-0.02510945,0.99847
226.962,28.6115,0.59064,-0.02535377,0.99699
229.962,28.8977,0.60236,-0.02612842,0.99548
232.962,29.1836,0.61333,-0.02679457,0.99397
235.962,29.46985,0.62994,-0.02808276,0.99245
238.962,29.75528,0.64529,-0.02938284,0.99091
241.962,30.04225,0.66296,-0.03205283,0.98936
244.962,30.3284,0.68788,-0.02807989,0.98779
247.962,30.6149,0.73579,-0.03207089,0.98622
250.962,30.9021,0.84735,-0.03241808,0.98463
253.962,31.18954,1.02841,-0.03129192,0.98303
256.962,31.4784,1.30075,-0.03422,0.98142
259.962,31.7691,1.5429,-0.0306,0.9798
262.962,32.05853,1.36384,-0.03323983,0.97816
265.962,32.34344,0.71919,-0.03455829,0.97652
268.962,32.62755,0.60705,-0.03717942,0.97486
271.962,32.91265,0.58459,-0.03586508,0.97319
274.962,33.19833,0.58211,-0.0352396,0.97151
277.962,33.4842,0.58103,-0.03882935,0.96981
280.962,33.77071,0.58256,-0.03885821,0.96811
283.962,34.05645,0.58765,-0.03750976,0.96639
286.962,34.3433,0.58816,-0.04011121,0.96467
289.962,34.63016,0.59109,-0.04175439,0.96293
292.962,34.9167,0.59459,-0.04300643,0.96118
295.962,35.20277,0.595,-0.0431,0.95942
298.962,35.49096,0.59502,-0.04309991,0.95765
301.962,35.77872,0.5949,-0.04574,0.95587
304.962,36.06678,0.59773,-0.04475,0.95408
307.962,36.35488,0.60084,-0.0473819,0.95228
310.962,36.6436,0.60357,-0.05000999,0.95047
313.962,36.93199,0.60565,-0.05041747,0.94864
316.962,37.22065,0.60623,-0.05066997,0.94681
319.962,37.5096,0.61018,-0.05400506,0.94497
322.962,37.79861,0.60973,-0.05362797,0.94311
325.962,38.08748,0.6156,-0.0562197,0.94125
328.962,38.37686,0.61524,-0.05626086,0.93937
331.962,38.6661,0.61871,-0.0589,0.93749
334.962,38.95598,0.62119,-0.05857,0.9356
337.962,39.24605,0.62603,-0.0612,0.93369
340.962,39.5366,0.62788,-0.06382273,0.93178
343.962,39.82659,0.63063,-0.06180607,0.92986
346.962,40.1169,0.63334,-0.06581,0.92793
349.962,40.4069,0.6409,-0.0677878,0.92598
352.962,40.6974,0.64935,-0.07072365,0.92403
355.962,40.9879,0.65514,-0.07502065,0.92207
358.962,41.27819,0.66124,-0.07502934,0.9201
361.962,41.56899,0.67442,-0.07765995,0.91813
364.962,41.85968,0.68288,-0.08029229,0.91614
367.962,42.15045,0.69434,-0.08367027,0.91414
370.962,42.44195,0.7033,-0.08816649,0.91214
373.962,42.7333,0.71431,-0.09177367,0.91012
376.962,43.02519,0.72886,-0.09838227,0.9081
379.962,43.31657,0.75058,-0.10235,0.90607
382.962,43.60885,0.78087,-0.11516,0.90403
385.962,43.90115,0.82562,-0.12191,0.90198
388.962,44.19337,0.87993,-0.13238,0.89992
391.962,44.48591,0.94466,-0.1512,0.89786
394.962,44.77956,1.01778,-0.17225,0.89578
397.962,45.07262,1.10323,-0.19991,0.8937
400.962,45.36607,1.19398,-0.23636,0.89161
403.962,45.65975,1.28535,-0.28102,0.88951
406.962,45.9536,1.37795,-0.33123,0.88741
409.962,46.24735,1.47907,-0.39412,0.88529
412.962,46.5413,1.59103,-0.46749,0.88317
415.962,46.8356,1.68968,-0.55354,0.88104
418.962,47.13022,1.79407,-0.65519,0.87891
421.962,47.4253,1.88199,-0.76276,0.87676
424.962,47.71997,1.95858,-0.88374,0.87461
427.962,48.01449,2.02409,-1.02306,0.87245
430.962,48.30826,2.05608,-1.16802,0.87029
433.962,48.60386,2.08685,-1.32625,0.86811
436.962,48.8984,2.11242,-1.49358,0.86593
439.962,49.19332,2.1234,-1.66791,0.86375
442.962,49.48805,2.12602,-1.85217,0.86155
445.962,49.78308,2.10496,-2.04181,0.85935
448.962,50.07829,2.08006,-2.23516,0.85714
451.962,50.37362,2.02796,-2.4328,0.85493
454.962,50.66868,1.95008,-2.63159,0.85271
457.962,50.963,1.84312,-2.82442,0.85048
460.962,51.25685,1.69901,-3.01268,0.84825
463.962,51.54995,1.51332,-3.18756,0.846
466.962,51.84233,1.28398,-3.34725,0.84376
469.962,52.13411,1.02234,-3.48227,0.8415
472.962,52.426,0.74963,-3.58935,0.83924
475.962,52.71963,0.51195,-3.66581,0.83698
478.962,53.01412,0.34768,-3.71748,0.83471
481.962,53.3097,0.24966,-3.74519,0.83243
484.962,53.6046,0.19452,-3.76416,0.83015
487.962,53.9001,0.1661,-3.7734,0.82786
490.962,54.1958,0.15219,-3.77747,0.82556
493.962,54.4924,0.1491,-3.78209,0.82326
496.962,54.7891,0.14445,-3.78439,0.82096
499.962,55.08563,0.14907,-3.78691,0.81864
502.962,55.38239,0.16992,-3.78724,0.81633
505.962,55.6789,0.16472,-3.78956,0.814
508.962,55.9771,0.15268,-3.78954,0.81168
511.962,56.27511,0.14591,-3.78796,0.80934
514.962,56.5738,0.142,-3.79316,0.80701
517.962,56.8726,0.1388,-3.79354,0.80466
520.962,57.171,0.12646,-3.79119,0.80231
523.962,57.46904,0.11951,-3.79317,0.79996
526.962,57.7683,0.11332,-3.7948,0.7976
529.962,58.06725,0.11354,-3.79612,0.79524
532.962,58.3652,0.11318,-3.79516,0.79287
535.962,58.664,0.11259,-3.7958,0.7905
538.962,58.9625,0.11565,-3.79581,0.78813
541.962,59.26166,0.11872,-3.79711,0.78575
544.962,59.5606,0.11519,-3.79711,0.78336
547.962,59.8599,0.11528,-3.79843,0.78097
550.962,60.15954,0.12204,-3.79843,0.77858
553.962,60.45879,0.12062,-3.79974,0.77618
556.962,60.7581,0.12028,-3.79975,0.77378
559.962,61.05709,0.12337,-3.79971,0.77137
562.962,61.3564,0.12182,-3.80046,0.76896
565.962,61.65616,0.12384,-3.79968,0.76655
568.962,61.9557,0.12371,-3.80209,0.76413
571.962,62.25575,0.12781,-3.80205,0.76171
574.962,62.55585,0.12937,-3.80281,0.75929
577.962,62.85555,0.12834,-3.80172,0.75686
580.962,63.1565,0.12544,-3.80404,0.75443
583.962,63.45734,0.13031,-3.80378,0.75199
586.962,63.75776,0.13064,-3.80446,0.74955
589.962,64.0581,0.13261,-3.80512,0.74711
592.962,64.35816,0.13338,-3.80348,0.74467
595.962,64.6576,0.13311,-3.80611,0.74222
598.962,64.9582,0.12939,-3.80611,0.73977
601.962,65.25831,0.13303,-3.80676,0.73731
604.962,65.5577,0.13405,-3.80705,0.73486
607.962,65.85784,0.13178,-3.80709,0.7324
610.962,66.15841,0.13075,-3.80841,0.72993
613.962,66.46011,0.13479,-3.8071,0.72747
616.962,66.7615,0.1326,-3.80849,0.725
619.962,67.06328,0.13482,-3.80743,0.72253
622.962,67.36583,0.13156,-3.80979,0.72006
625.962,67.66736,0.13522,-3.81127,0.71758
628.962,67.969,0.14047,-3.80994,0.7151
631.962,68.2705,0.13509,-3.80961,0.71262
634.962,68.57104,0.13209,-3.80863,0.71014
637.962,68.8728,0.13469,-3.80853,0.70766
640.962,69.17405,0.13433,-3.80864,0.70517
643.962,69.47529,0.13154,-3.81124,0.70268
646.962,69.77695,0.13173,-3.81168,0.70019
649.962,70.07852,0.12888,-3.81258,0.6977
652.962,70.37904,0.13029,-3.8139,0.69521
655.962,70.6814,0.1364,-3.81389,0.69271
658.962,70.98603,0.1331,-3.81258,0.69021
661.962,71.28876,0.12852,-3.8152,0.68771
664.962,71.59097,0.1325,-3.81235,0.68521
667.962,71.89217,0.13097,-3.81521,0.68271
670.962,72.19285,0.13352,-3.81356,0.68021
673.962,72.49506,0.13722,-3.81719,0.6777
676.962,72.79884,0.13478,-3.81587,0.6752
679.962,73.10185,0.1311,-3.81319,0.67269
682.962,73.40383,0.12906,-3.81374,0.67018
685.962,73.70604,0.13412,-3.8185,0.66767
688.962,74.00873,0.1298,-3.81521,0.66516
691.962,74.31233,0.12702,-3.81422,0.66265
694.962,74.61625,0.12763,-3.81686,0.66014
697.962,74.92012,0.12473,-3.81619,0.65762
700.962,75.22413,0.1275,-3.81784,0.65511
703.962,75.52754,0.12472,-3.8185,0.6526
706.962,75.83103,0.13259,-3.81807,0.65008
709.962,76.1344,0.13236,-3.81883,0.64757
712.962,76.438,0.13198,-3.81882,0.64505
715.962,76.74155,0.1306,-3.81753,0.64253
718.962,77.0462,0.12979,-3.81752,0.64002
721.962,77.3507,0.12986,-3.81888,0.6375
724.962,77.655,0.13075,-3.81883,0.63498
727.962,77.95897,0.13285,-3.82048,0.63247
730.962,78.26307,0.13235,-3.82007,0.62995
733.962,78.56533,0.13516,-3.82015,0.62743
736.962,78.86831,0.13427,-3.81942,0.62491
739.962,79.1716,0.13414,-3.81882,0.6224
742.962,79.47516,0.13509,-3.81916,0.61988
745.962,79.77976,0.13975,-3.82179,0.61736
748.062,79.99287,0.14031,-3.82323,0.6156

File: Nylon_STA_N2_10KData_220604_R2.csv
##Temp./Â°C,Time/min,DSC(subtr.2)/(mW/mg),Mass loss(subtr.2)/mg,Sensit./(uV/mW)
49.935,10.01,0.00689387,-0.04081,1.06047
53.035,11.3063,0.13749,-0.04801765,1.05982
56.135,11.74875,0.1999,-0.04909396,1.05916
59.235,12.12732,0.23745,-0.05020919,1.05848
62.335,12.47987,0.2628,-0.05045365,1.05778
65.435,12.82167,0.2799,-0.05230953,1.05706
68.535,13.15681,0.294,-0.05182827,1.05633
71.635,13.4873,0.30747,-0.05289817,1.05558
74.735,13.8146,0.31268,-0.05420463,1.05481
77.835,14.13843,0.32008,-0.05549782,1.05402
80.935,14.45948,0.32075,-0.05944896,1.05322
84.035,14.7775,0.32444,-0.06077315,1.0524
87.135,15.09229,0.32463,-0.06292885,1.05156
90.235,15.4038,0.3275,-0.06467445,1.0507
93.335,15.7139,0.33051,-0.06502642,1.04983
96.435,16.02226,0.33445,-0.06719622,1.04894
99.535,16.3287,0.33828,-0.06735024,1.04803
102.635,16.6347,0.3411,-0.06955239,1.0471
105.735,16.93938,0.3484,-0.07260999,1.04616
108.835,17.24385,0.35248,-0.07280174,1.0452
111.935,17.54747,0.35626,-0.07130012,1.04423
115.035,17.85078,0.36358,-0.07300899,1.04324
118.135,18.15408,0.36359,-0.07392291,1.04223
121.235,18.4567,0.36848,-0.07459,1.0412
124.335,18.7595,0.3714,-0.07590273,1.04016
127.435,19.06075,0.37733,-0.07590975,1.03911
130.535,19.3623,0.38269,-0.07583571,1.03803
133.635,19.6627,0.38798,-0.0778804,1.03694
136.735,19.96336,0.39221,-0.07866221,1.03584
139.835,20.26286,0.39784,-0.08050986,1.03472
142.935,20.56215,0.40099,-0.07854077,1.03358
146.035,20.86029,0.40744,-0.08117,1.03243
149.135,21.15865,0.41557,-0.08183001,1.03126
152.235,21.45683,0.42017,-0.08247999,1.03007
155.335,21.75564,0.42056,-0.08248321,1.02887
158.435,22.0538,0.42467,-0.08479008,1.02765
161.535,22.35211,0.42808,-0.08512587,1.02642
164.635,22.6498,0.43646,-0.08643262,1.02518
167.735,22.94674,0.43761,-0.08643,1.02391
170.835,23.24445,0.44289,-0.08670111,1.02264
173.935,23.54093,0.4456,-0.08775204,1.02135
177.035,23.83728,0.44961,-0.08675114,1.02004
180.135,24.1341,0.44748,-0.08744032,1.01872
183.235,24.43094,0.44902,-0.08775742,1.01738
186.335,24.72683,0.45149,-0.0889748,1.01603
189.435,25.02141,0.45191,-0.09289228,1.01466
192.535,25.31784,0.45614,-0.09092933,1.01328
195.635,25.61528,0.45916,-0.09135049,1.01188
198.735,25.91133,0.46079,-0.09225,1.01047
201.835,26.20663,0.46469,-0.09225,1.00905
204.935,26.50344,0.47021,-0.09319169,1.00761
208.035,26.79932,0.47357,-0.09224993,1.00616
211.135,27.0947,0.48138,-0.09487999,1.00469
214.235,27.3907,0.48912,-0.09256979,1.00321
217.335,27.6872,0.49291,-0.09389047,1.00171
220.435,27.9823,0.4985,-0.09586856,1.00021
223.535,28.27768,0.50763,-0.09487605,0.99868
226.635,28.57312,0.51756,-0.09752303,0.99715
229.735,28.8687,0.52838,-0.09565001,0.9956
232.835,29.16362,0.53742,-0.09697,0.99404
235.935,29.46032,0.55175,-0.09827284,0.99246
239.035,29.7562,0.56867,-0.09762014,0.99087
242.135,30.0522,0.58677,-0.09894,0.98927
245.235,30.3483,0.61534,-0.09861434,0.98765
248.335,30.6445,0.6698,-0.09992012,0.98602
251.435,30.9401,0.79607,-0.0996,0.98438
254.535,31.2375,0.99052,-0.10254,0.98273
257.635,31.5358,1.25678,-0.1029,0.98106
260.735,31.8357,1.48646,-0.10321,0.97938
263.835,32.13405,1.07852,-0.10321,0.97768
266.935,32.4272,0.60276,-0.10552,0.97598
270.035,32.7209,0.52521,-0.10585,0.97426
273.135,33.01577,0.51089,-0.10688,0.97253
276.235,33.31126,0.51067,-0.10651,0.97079
279.335,33.60715,0.50838,-0.10521,0.96904
282.435,33.90318,0.51153,-0.10925,0.96727
285.535,34.19938,0.51357,-0.10892,0.96549
288.635,34.49558,0.51208,-0.10925,0.9637
291.735,34.79207,0.51337,-0.11059,0.9619
294.835,35.08863,0.5177,-0.1099,0.96009
297.935,35.38523,0.51935,-0.10925,0.95826
301.035,35.68217,0.52076,-0.11187,0.95642
304.135,35.97932,0.52324,-0.11315,0.95458
307.235,36.27694,0.52436,-0.11325,0.95272
310.335,36.57423,0.52824,-0.11418,0.95085
313.435,36.8717,0.53023,-0.11583,0.94896
316.535,37.16945,0.53318,-0.11715,0.94707
319.635,37.46752,0.5366,-0.11781,0.94517
322.735,37.76494,0.53867,-0.11879,0.94325
325.835,38.06255,0.54123,-0.12075,0.94133
328.935,38.36057,0.54461,-0.12131,0.93939
332.035,38.6592,0.54871,-0.12151,0.93745
335.135,38.9581,0.54909,-0.12198,0.93549
338.235,39.2562,0.55067,-0.12426,0.93352
341.335,39.55658,0.55145,-0.12611,0.93154
344.435,39.8564,0.55385,-0.12723,0.92955
347.535,40.156,0.55671,-0.1292,0.92756
350.635,40.4555,0.56089,-0.13184,0.92555
353.735,40.75574,0.56807,-0.13151,0.92353
356.835,41.05556,0.57544,-0.13406,0.9215
359.935,41.3559,0.585,-0.13774,0.91946
363.035,41.65699,0.60102,-0.13812,0.91742
366.135,41.95773,0.61624,-0.14205,0.91536
369.235,42.2584,0.63938,-0.14685,0.91329
372.335,42.5588,0.68431,-0.14874,0.91121
375.435,42.85972,0.73361,-0.15477,0.90913
378.535,43.1612,0.7698,-0.16224,0.90703
381.635,43.46315,0.79758,-0.16886,0.90493
384.735,43.7672,0.8108,-0.17824,0.90282
387.835,44.0713,0.82773,-0.19057,0.90069
390.935,44.3754,0.86598,-0.20647,0.89856
394.035,44.67908,0.93152,-0.22719,0.89642
397.135,44.98319,1.00662,-0.25512,0.89428
400.235,45.28695,1.09401,-0.2916,0.89212
403.335,45.59052,1.1764,-0.3354,0.88995
406.435,45.89419,1.27425,-0.38893,0.88778
409.535,46.19814,1.37979,-0.45614,0.8856
412.635,46.5022,1.39125,-0.52751,0.8834
415.735,46.80601,1.45064,-0.61243,0.88121
418.835,47.1082,1.50996,-0.69946,0.879
421.935,47.41215,1.58197,-0.80271,0.87678
425.035,47.71695,1.65938,-0.91537,0.87456
428.135,48.02279,1.72145,-1.04194,0.87233
431.235,48.32783,1.77839,-1.18622,0.87009
434.335,48.6327,1.8269,-1.33996,0.86784
437.435,48.93822,1.85756,-1.50539,0.86559
440.535,49.24324,1.87239,-1.68326,0.86333
443.635,49.54786,1.88088,-1.8685,0.86106
446.735,49.85281,1.89161,-2.06465,0.85878
449.835,50.15551,1.87917,-2.26367,0.8565
452.935,50.45984,1.8458,-2.47159,0.85421
456.035,50.7662,1.78864,-2.67979,0.85191
459.135,51.07095,1.70138,-2.88701,0.84961
462.235,51.37559,1.57837,-3.09067,0.8473
465.335,51.67991,1.41164,-3.28184,0.84498
468.435,51.9835,1.19124,-3.45803,0.84265
471.535,52.28682,0.92496,-3.61066,0.84032
474.635,52.59004,0.63504,-3.72846,0.83798
477.735,52.8928,0.39595,-3.80973,0.83564
480.835,53.19611,0.2323,-3.86593,0.83329
483.935,53.4997,0.13756,-3.89703,0.83093
487.035,53.80375,0.08446252,-3.91468,0.82856
490.135,54.1085,0.06090543,-3.92472,0.8262
493.235,54.41404,0.04972362,-3.93049,0.82382
496.335,54.71957,0.05063019,-3.93444,0.82144
499.435,55.0255,0.05328902,-3.93839,0.81905
502.535,55.3328,0.03178837,-3.93935,0.81666
505.635,55.6404,0.0322329,-3.94069,0.81426
508.735,55.94856,0.004924726,-3.9407,0.81185
511.835,56.2564,-0.02150676,-3.94168,0.80944
514.935,56.5634,-0.03280406,-3.94168,0.80703
518.035,56.87138,-0.03120841,-3.94432,0.80461
521.135,57.1792,-0.02865444,-3.94562,0.80218
524.235,57.48734,-0.02360133,-3.94631,0.79975
527.335,57.79484,-0.01933154,-3.94499,0.79731
530.435,58.10306,-0.01546047,-3.94822,0.79487
533.535,58.412,-0.01779895,-3.94692,0.79242
536.635,58.7209,-0.01449009,-3.94683,0.78997
539.735,59.02926,-0.01135225,-3.94574,0.78751
542.835,59.3393,-0.01183811,-3.94839,0.78505
545.935,59.6483,-0.01587315,-3.94805,0.78259
549.035,59.95769,-0.01673325,-3.94903,0.78012
552.135,60.2669,-0.01739074,-3.94936,0.77764
555.235,60.57676,-0.0151624,-3.9487,0.77516
558.335,60.8855,-0.01687541,-3.94925,0.77268
561.435,61.19322,-0.01747415,-3.9487,0.77019
564.535,61.5036,-0.01579962,-3.95133,0.7677
567.635,61.8125,-0.01610768,-3.95067,0.7652
570.735,62.12236,-0.01662296,-3.95143,0.7627
573.835,62.4325,-0.01491781,-3.95265,0.7602
576.935,62.7435,-0.01353094,-3.95218,0.75769
580.035,63.05369,-0.01483368,-3.95484,0.75518
583.135,63.3648,-0.01656125,-3.95484,0.75266
586.235,63.67493,-0.01570618,-3.95359,0.75014
589.335,63.98457,-0.01475901,-3.95583,0.74762
592.435,64.29462,-0.01746204,-3.95585,0.7451
595.535,64.60446,-0.01626465,-3.95594,0.74257
598.635,64.9147,-0.01813675,-3.95496,0.74003
601.735,65.2248,-0.0201548,-3.95699,0.7375
604.835,65.53482,-0.01824078,-3.95609,0.73496
607.935,65.8461,-0.01598464,-3.96014,0.73242
611.035,66.15767,-0.02010319,-3.95748,0.72987
614.135,66.46882,-0.01741348,-3.95649,0.72733
617.235,66.7805,-0.01995809,-3.95498,0.72478
620.335,67.09183,-0.01886835,-3.95765,0.72222
623.435,67.40279,-0.02167538,-3.95865,0.71967
626.535,67.7145,-0.01832569,-3.95934,0.71711
629.635,68.02558,-0.02100089,-3.96074,0.71455
632.735,68.33715,-0.02264578,-3.95914,0.71198
635.835,68.64887,-0.0212351,-3.96033,0.70942
638.935,68.96089,-0.02464275,-3.96033,0.70685
642.035,69.2735,-0.02396701,-3.96231,0.70428
645.135,69.58514,-0.02538909,-3.9623,0.70171
648.235,69.8966,-0.01762317,-3.96164,0.69913
651.335,70.208,-0.01603882,-3.96165,0.69656
654.435,70.51953,-0.02143171,-3.96263,0.69398
657.535,70.83122,-0.0203811,-3.96093,0.6914
660.635,71.1438,-0.02239575,-3.96472,0.68882
663.735,71.4564,-0.02567884,-3.96407,0.68624
666.835,71.7693,-0.02860409,-3.96338,0.68365
669.935,72.08161,-0.02563547,-3.9636,0.68106
673.035,72.39575,-0.0296683,-3.96603,0.67848
676.135,72.70895,-0.027021,-3.96512,0.67589
679.235,73.0224,-0.02858071,-3.96503,0.6733
682.335,73.33618,-0.02889836,-3.96438,0.6707
685.435,73.65013,-0.02864277,-3.96505,0.66811
688.535,73.96288,-0.02651224,-3.96876,0.66552
691.635,74.27551,-0.03102262,-3.96485,0.66292
694.735,74.58793,-0.03681123,-3.96504,0.66033
697.835,74.90047,-0.0331631,-3.96504,0.65773
700.935,75.2127,-0.03084305,-3.96636,0.65513
704.035,75.52563,-0.03065533,-3.96745,0.65253
707.135,75.83925,-0.03499224,-3.96636,0.64994
710.235,76.15309,-0.03451849,-3.96777,0.64734
713.335,76.467,-0.03712342,-3.96768,0.64474
716.435,76.7811,-0.03431149,-3.96571,0.64214
719.535,77.09528,-0.03545829,-3.96852,0.63954
722.635,77.41026,-0.0412736,-3.9679,0.63694
725.735,77.72403,-0.04319731,-3.96757,0.63433
728.835,78.0377,-0.04999633,-3.96757,0.63173
731.935,78.35112,-0.0530349,-3.96626,0.62913
735.035,78.66466,-0.05755298,-3.96857,0.62653
738.135,78.9785,-0.05735228,-3.96856,0.62393
741.235,79.29255,-0.06075004,-3.96955,0.62133
744.335,79.60641,-0.06123429,-3.96822,0.61873
747.435,79.92047,-0.06146721,-3.96822,0.61613
748.135,79.99138,-0.05919491,-3.96719,0.61554