Folder: fsri_materials_database/01_Data/Nylon/STA/N2/30K_min

Note: 01_Data/README.md
# Materials and Products Database
## 01_Data

Raw data generated from each apparatus are included here in plain-text format. The data is organized first by material, next by the short name of test apparatus used, and where applicable additional filtering by test settings.

### material.json

Each material directory contains a json file of the same name as the material. This file links the data stored in the repository as well as data and graphs produced by the accompanying scripts (__02_Scripts__) to the respective landing page for the material on the front-end website.

File: Nylon_STA_N2_30KData_220604_R1.csv
##Temp./Â°C,Time/min,DSC(subtr.2)/(mW/mg),Mass loss(subtr.2)/mg,Sensit./(uV/mW)
48.589,10.00667,0.00766766,-0.02072,1.07502
51.589,10.86706,0.19475,-0.02419565,1.07369
54.589,11.09408,0.32877,-0.02463381,1.07236
57.589,11.26931,0.43481,-0.0239509,1.07101
60.589,11.4191,0.52476,-0.02298196,1.06966
63.589,11.5551,0.60682,-0.0240743,1.06829
66.589,11.68169,0.67954,-0.02595937,1.06692
69.589,11.80226,0.7484,-0.02526692,1.06553
72.589,11.91864,0.80456,-0.02516689,1.06414
75.589,12.03169,0.84945,-0.02628238,1.06274
78.589,12.14255,0.88145,-0.02571202,1.06132
81.589,12.2511,0.90276,-0.0266246,1.0599
84.589,12.358,0.91858,-0.02799942,1.05847
87.589,12.4634,0.93362,-0.02793502,1.05703
90.589,12.5677,0.95039,-0.02890928,1.05557
93.589,12.67095,0.96818,-0.02861143,1.05412
96.589,12.77324,0.98734,-0.02993959,1.05265
99.589,12.8751,1.0062,-0.0311223,1.05117
102.589,12.97644,1.02216,-0.03131843,1.04968
105.589,13.0779,1.04394,-0.02994347,1.04819
108.589,13.1789,1.06204,-0.0316332,1.04668
111.589,13.2795,1.08137,-0.03092813,1.04517
114.589,13.37985,1.09962,-0.03125179,1.04365
117.589,13.48008,1.11767,-0.03257039,1.04212
120.589,13.58,1.1357,-0.03257,1.04058
123.589,13.67937,1.15146,-0.03355999,1.03904
126.589,13.7784,1.16604,-0.03220911,1.03749
129.589,13.8768,1.18666,-0.0337901,1.03592
132.589,13.975,1.2039,-0.03389256,1.03435
135.589,14.0723,1.21872,-0.03520428,1.03278
138.589,14.1698,1.23462,-0.0352,1.03119
141.589,14.2664,1.25299,-0.03419587,1.0296
144.589,14.36265,1.27188,-0.03521,1.028
147.589,14.4586,1.28467,-0.03606429,1.02639
150.589,14.5541,1.30396,-0.03652029,1.02477
153.589,14.6494,1.31966,-0.0352,1.02315
156.589,14.74441,1.33706,-0.03652253,1.02152
159.589,14.83915,1.35241,-0.03652,1.01988
162.589,14.9338,1.36545,-0.03651997,1.01823
165.589,15.02815,1.37929,-0.03605191,1.01658
168.589,15.1222,1.39454,-0.03652,1.01492
171.589,15.21625,1.40677,-0.03714824,1.01325
174.589,15.30991,1.41921,-0.03777975,1.01158
177.589,15.4033,1.43587,-0.03656914,1.0099
180.589,15.4963,1.44955,-0.0378402,1.00821
183.589,15.5888,1.45945,-0.03705394,1.00652
186.589,15.6812,1.46856,-0.03784,1.00482
189.589,15.7735,1.48162,-0.03784791,1.00311
192.589,15.86527,1.49742,-0.03915112,1.0014
195.589,15.95708,1.50884,-0.03710926,0.99968
198.589,16.04865,1.5205,-0.03717,0.99795
201.589,16.14014,1.53538,-0.03717048,0.99622
204.589,16.23141,1.54985,-0.03849,0.99448
207.589,16.32284,1.56834,-0.03849,0.99273
210.589,16.41411,1.58554,-0.03849,0.99098
213.589,16.50534,1.60387,-0.03751003,0.98922
216.589,16.5964,1.62509,-0.03751,0.98746
219.589,16.6875,1.64831,-0.03751,0.98569
222.589,16.77855,1.67619,-0.03850051,0.98391
225.589,16.86955,1.70534,-0.03882995,0.98213
228.589,16.96055,1.73453,-0.03883,0.98035
231.589,17.05157,1.76877,-0.03917868,0.97855
234.589,17.14234,1.80858,-0.03916,0.97676
237.589,17.23302,1.85476,-0.03916,0.97495
240.589,17.3241,1.90974,-0.03916,0.97314
243.589,17.41491,1.98522,-0.03916,0.97133
246.589,17.50565,2.11343,-0.03916,0.96951
249.589,17.5965,2.35583,-0.03916,0.96768
252.589,17.68771,2.70093,-0.04014305,0.96585
255.589,17.77886,3.16313,-0.04014,0.96402
258.589,17.87041,3.72354,-0.04014,0.96217
261.589,17.96219,4.13082,-0.04014,0.96033
264.589,18.0535,3.17893,-0.04014,0.95848
267.589,18.14419,2.52114,-0.0414602,0.95662
270.589,18.23432,2.164,-0.04140331,0.95476
273.589,18.32424,1.96527,-0.04029592,0.95289
276.589,18.41435,1.85091,-0.04146,0.95102
279.589,18.50441,1.79039,-0.04146,0.94915
282.589,18.59444,1.7584,-0.0431132,0.94727
285.589,18.68476,1.74125,-0.04409157,0.94538
288.589,18.77529,1.73283,-0.04276642,0.94349
291.589,18.86555,1.72791,-0.04210952,0.9416
294.589,18.95609,1.7288,-0.0421913,0.9397
297.589,19.0466,1.72789,-0.04342836,0.93779
300.589,19.13721,1.73138,-0.04232466,0.93588
303.589,19.22794,1.73191,-0.04342599,0.93397
306.589,19.31866,1.73574,-0.0441108,0.93205
309.589,19.40945,1.7385,-0.04343006,0.93013
312.589,19.50028,1.74399,-0.04475001,0.92821
315.589,19.59112,1.74693,-0.04475,0.92628
318.589,19.6821,1.75063,-0.04493903,0.92434
321.589,19.77299,1.75592,-0.0454,0.9224
324.589,19.86402,1.7606,-0.04652612,0.92046
327.589,19.95522,1.76627,-0.04688532,0.91851
330.589,20.0463,1.77216,-0.04738,0.91656
333.589,20.13774,1.77663,-0.04868652,0.91461
336.589,20.22909,1.78707,-0.04869,0.91265
339.589,20.32029,1.79512,-0.04869,0.91069
342.589,20.41212,1.80647,-0.04868998,0.90872
345.589,20.50355,1.81751,-0.05000992,0.90675
348.589,20.59518,1.82357,-0.05265927,0.90477
351.589,20.68701,1.83392,-0.05265003,0.90279
354.589,20.77885,1.84622,-0.05396,0.90081
357.589,20.8708,1.85241,-0.05395999,0.89883
360.589,20.96279,1.85776,-0.05528016,0.89684
363.589,21.05476,1.8624,-0.05658944,0.89484
366.589,21.14701,1.86251,-0.05791003,0.89285
369.589,21.23909,1.84644,-0.06053585,0.89085
372.589,21.33139,1.81483,-0.06053697,0.88884
375.589,21.4238,1.79279,-0.06322875,0.88684
378.589,21.5162,1.78814,-0.0648044,0.88482
381.589,21.60889,1.80357,-0.06725665,0.88281
384.589,21.70134,1.84756,-0.06953215,0.88079
387.589,21.79431,1.89803,-0.07216528,0.87877
390.589,21.88726,1.95334,-0.07518293,0.87675
393.589,21.98049,2.00229,-0.08033195,0.87472
396.589,22.0742,2.03431,-0.08435965,0.87269
399.589,22.1677,2.07036,-0.09014155,0.87065
402.589,22.26149,2.12048,-0.09575948,0.86861
405.589,22.3548,2.20748,-0.10285,0.86657
408.589,22.44895,2.3427,-0.11211,0.86453
411.589,22.54305,2.498,-0.12438,0.86248
414.589,22.63736,2.67032,-0.13852,0.86043
417.589,22.73156,2.88166,-0.15841,0.85837
420.589,22.82582,3.11335,-0.18424,0.85632
423.589,22.92031,3.33156,-0.21388,0.85426
426.589,23.01505,3.59392,-0.25347,0.85219
429.589,23.10954,3.8697,-0.29975,0.85013
432.589,23.20435,4.14478,-0.35649,0.84806
435.589,23.29929,4.42531,-0.42165,0.84599
438.589,23.39445,4.70208,-0.49782,0.84391
441.589,23.48967,4.96416,-0.58555,0.84183
444.589,23.58496,5.22785,-0.68393,0.83975
447.589,23.6803,5.46372,-0.79658,0.83767
450.589,23.7756,5.67498,-0.91866,0.83558
453.589,23.87108,5.84317,-1.05178,0.83349
456.589,23.9665,5.97609,-1.1953,0.8314
459.589,24.062,6.06989,-1.34715,0.8293
462.589,24.15747,6.12424,-1.50988,0.82721
465.589,24.25291,6.15647,-1.67821,0.82511
468.589,24.3485,6.139,-1.85502,0.823
471.589,24.444,6.13518,-2.0385,0.8209
474.589,24.53943,6.12751,-2.23004,0.81879
477.589,24.63505,6.10611,-2.4303,0.81668
480.589,24.73066,5.99562,-2.6364,0.81456
483.589,24.82615,5.78509,-2.84372,0.81244
486.589,24.9215,5.44079,-3.04742,0.81032
489.589,25.01661,4.92756,-3.24067,0.8082
492.589,25.11141,4.24251,-3.4158,0.80608
495.589,25.20589,3.39653,-3.56706,0.80395
498.589,25.3001,2.45927,-3.6838,0.80182
501.589,25.39425,1.60228,-3.76615,0.79969
504.589,25.4881,0.98807,-3.8143,0.79755
507.589,25.58233,0.62024,-3.84144,0.79542
510.589,25.67676,0.42609,-3.85574,0.79328
513.589,25.7715,0.32525,-3.86357,0.79114
516.589,25.86656,0.27844,-3.86808,0.78899
519.589,25.96189,0.25141,-3.86806,0.78685
522.589,26.0573,0.24971,-3.86952,0.7847
525.589,26.15295,0.27825,-3.8717,0.78255
528.589,26.24861,0.28737,-3.87197,0.78039
531.589,26.34477,0.28969,-3.87196,0.77824
534.589,26.4409,0.28563,-3.87434,0.77608
537.589,26.53728,0.2772,-3.87433,0.77392
540.589,26.63376,0.25983,-3.87433,0.77175
543.589,26.73072,0.23708,-3.87564,0.76959
546.589,26.8278,0.21112,-3.87696,0.76742
549.589,26.92502,0.18185,-3.87596,0.76525
552.589,27.0221,0.16298,-3.87699,0.76308
555.589,27.11944,0.15128,-3.87861,0.76091
558.589,27.21677,0.14613,-3.87795,0.75873
561.589,27.314,0.14606,-3.87861,0.75655
564.589,27.4116,0.14616,-3.87861,0.75437
567.589,27.5091,0.14476,-3.87861,0.75219
570.589,27.60659,0.14876,-3.87861,0.75001
573.589,27.70406,0.1449,-3.88135,0.74782
576.589,27.8018,0.15059,-3.88132,0.74563
579.589,27.89974,0.14624,-3.88266,0.74344
582.589,27.9976,0.15239,-3.88365,0.74125
585.589,28.0957,0.15635,-3.88365,0.73905
588.589,28.19349,0.16027,-3.883,0.73686
591.589,28.29158,0.16192,-3.88365,0.73466
594.589,28.38969,0.17128,-3.88365,0.73246
597.589,28.4879,0.17534,-3.88365,0.73026
600.589,28.58588,0.18791,-3.88497,0.72805
603.589,28.68422,0.19862,-3.88563,0.72585
606.589,28.7827,0.2146,-3.88426,0.72364
609.589,28.88115,0.21786,-3.88431,0.72143
612.589,28.9796,0.22393,-3.88593,0.71922
615.589,29.07821,0.22621,-3.88562,0.71701
618.589,29.1766,0.22901,-3.88562,0.71479
621.589,29.27535,0.22762,-3.88562,0.71258
624.589,29.37404,0.22575,-3.88431,0.71036
627.589,29.4727,0.2317,-3.88563,0.70814
630.589,29.5714,0.23552,-3.88661,0.70592
633.589,29.6701,0.23736,-3.88661,0.7037
636.589,29.7689,0.24582,-3.88651,0.70147
639.589,29.868,0.24852,-3.88562,0.69925
642.589,29.9669,0.24851,-3.88661,0.69702
645.589,30.0659,0.25598,-3.88629,0.69479
648.589,30.16514,0.25632,-3.8876,0.69256
651.589,30.26417,0.25807,-3.8876,0.69033
654.589,30.36337,0.25901,-3.88629,0.68809
657.589,30.4627,0.26207,-3.8876,0.68586
660.589,30.56196,0.26516,-3.88802,0.68362
663.589,30.6611,0.26636,-3.88692,0.68138
666.589,30.76035,0.26773,-3.88661,0.67914
669.589,30.85973,0.27383,-3.88661,0.6769
672.589,30.95917,0.27295,-3.88793,0.67466
675.589,31.0586,0.27948,-3.88738,0.67242
678.589,31.15798,0.27818,-3.88858,0.67017
681.589,31.25745,0.28229,-3.88858,0.66793
684.589,31.35698,0.28288,-3.88858,0.66568
687.589,31.4566,0.28824,-3.88858,0.66343
690.589,31.5563,0.2888,-3.8899,0.66118
693.589,31.6561,0.29221,-3.88957,0.65893
696.589,31.756,0.2926,-3.88957,0.65668
699.589,31.856,0.29599,-3.88957,0.65443
702.589,31.9558,0.30142,-3.89036,0.65217
705.589,32.05598,0.30288,-3.88958,0.64992
708.589,32.15607,0.3103,-3.88958,0.64766
711.589,32.25626,0.31469,-3.88958,0.6454
714.589,32.35625,0.3153,-3.88958,0.64314
717.589,32.45643,0.32384,-3.8899,0.64089
720.589,32.55663,0.33808,-3.8899,0.63863
723.589,32.65704,0.34843,-3.8899,0.63637
726.589,32.75724,0.35896,-3.89089,0.6341
729.589,32.8575,0.36676,-3.89089,0.63184
732.589,32.9578,0.37957,-3.89089,0.62958
735.589,33.05816,0.3905,-3.89089,0.62731
738.589,33.1584,0.40145,-3.89154,0.62505
741.589,33.25886,0.41178,-3.89023,0.62278
743.789,33.3326,0.42101,-3.89155,0.62112

File: Nylon_STA_N2_30KData_220704_R2.csv
##Temp./Â°C,Time/min,DSC(subtr.2)/(mW/mg),Mass loss(subtr.2)/mg,Sensit./(uV/mW)
48.581,10.00667,0.01150866,-0.07075,1.07502
51.581,10.8687,0.19754,-0.07341146,1.0737
54.581,11.09702,0.32959,-0.07540104,1.07236
57.581,11.27237,0.43657,-0.0765813,1.07102
60.581,11.42249,0.52768,-0.07565038,1.06966
63.581,11.55845,0.6087,-0.07673043,1.0683
66.581,11.68587,0.682,-0.07860146,1.06692
69.581,11.80675,0.7507,-0.07831332,1.06554
72.581,11.92347,0.80786,-0.07996662,1.06414
75.581,12.03697,0.84906,-0.08085142,1.06274
78.581,12.14771,0.87708,-0.08127017,1.06133
81.581,12.25633,0.89625,-0.08099409,1.0599
84.581,12.36305,0.9135,-0.08176948,1.05847
87.581,12.46879,0.9293,-0.08286956,1.05703
90.581,12.57287,0.95164,-0.08483663,1.05558
93.581,12.67585,0.97196,-0.08404469,1.05412
96.581,12.7782,0.99341,-0.0846595,1.05265
99.581,12.88011,1.01454,-0.08545054,1.05117
102.581,12.98135,1.03209,-0.08458801,1.04969
105.581,13.08257,1.05219,-0.0854565,1.04819
108.581,13.1834,1.07113,-0.08543867,1.04669
111.581,13.28405,1.0907,-0.08675623,1.04518
114.581,13.38427,1.1115,-0.08939281,1.04366
117.581,13.4842,1.12768,-0.09007369,1.04213
120.581,13.584,1.1436,-0.09096629,1.04059
123.581,13.68335,1.16203,-0.09203002,1.03904
126.581,13.78175,1.17352,-0.09203003,1.03749
129.581,13.8801,1.19104,-0.09203169,1.03593
132.581,13.9779,1.20745,-0.09366997,1.03436
135.581,14.0753,1.22187,-0.09466002,1.03278
138.581,14.1722,1.23988,-0.09366692,1.03119
141.581,14.26862,1.25426,-0.09495184,1.0296
144.581,14.3649,1.26784,-0.09565,1.028
147.581,14.46057,1.28315,-0.09564999,1.02639
150.581,14.55609,1.2995,-0.09493565,1.02478
153.581,14.65136,1.31307,-0.09565,1.02315
156.581,14.7463,1.32803,-0.09697584,1.02152
159.581,14.841,1.34365,-0.09570936,1.01988
162.581,14.93547,1.3569,-0.09828,1.01824
165.581,15.0295,1.37156,-0.09815023,1.01658
168.581,15.12364,1.38384,-0.09828,1.01492
171.581,15.21781,1.39831,-0.09828,1.01326
174.581,15.31148,1.40894,-0.09827999,1.01158
177.581,15.4048,1.42255,-0.09695985,1.0099
180.581,15.4979,1.43506,-0.09696036,1.00822
183.581,15.5905,1.44746,-0.09964393,1.00652
186.581,15.6829,1.45703,-0.09960098,1.00482
189.581,15.7752,1.47075,-0.09996799,1.00311
192.581,15.8673,1.48345,-0.09992087,1.0014
195.581,15.959,1.49671,-0.10124,0.99968
198.581,16.0506,1.51063,-0.09986819,0.99795
201.581,16.14227,1.52432,-0.10233,0.99622
204.581,16.2338,1.53896,-0.10256,0.99448
207.581,16.32526,1.55559,-0.10256,0.99274
210.581,16.41667,1.57427,-0.10289,0.99099
213.581,16.5079,1.59404,-0.10398,0.98923
216.581,16.59899,1.61537,-0.10255,0.98746
219.581,16.6902,1.63888,-0.10363,0.98569
222.581,16.7812,1.66327,-0.10388,0.98392
225.581,16.87237,1.69481,-0.10388,0.98214
228.581,16.96329,1.72723,-0.10519,0.98035
231.581,17.0543,1.75761,-0.10519,0.97856
234.581,17.1452,1.79946,-0.10567,0.97676
237.581,17.23603,1.84407,-0.10649,0.97496
240.581,17.32696,1.90111,-0.10782,0.97315
243.581,17.41762,1.98214,-0.10782,0.97133
246.581,17.50834,2.11651,-0.1065,0.96951
249.581,17.59896,2.36312,-0.10782,0.96769
252.581,17.6905,2.71956,-0.10913,0.96586
255.581,17.78171,3.16882,-0.10913,0.96402
258.581,17.87329,3.68992,-0.11012,0.96218
261.581,17.96503,3.98876,-0.11144,0.96033
264.581,18.05657,3.16365,-0.11144,0.95848
267.581,18.147,2.51652,-0.11144,0.95663
270.581,18.23701,2.15962,-0.11144,0.95476
273.581,18.3268,1.96109,-0.11144,0.9529
276.581,18.41686,1.84996,-0.11207,0.95103
279.581,18.5068,1.78629,-0.11243,0.94915
282.581,18.5971,1.75511,-0.1134,0.94727
285.581,18.6873,1.73674,-0.11368,0.94538
288.581,18.7775,1.72921,-0.11309,0.94349
291.581,18.8679,1.72688,-0.11309,0.9416
294.581,18.95853,1.7224,-0.11309,0.9397
297.581,19.04901,1.72448,-0.11405,0.9378
300.581,19.13965,1.72737,-0.11572,0.93589
303.581,19.2305,1.72944,-0.11704,0.93398
306.581,19.32124,1.73028,-0.11605,0.93206
309.581,19.412,1.7344,-0.11605,0.93014
312.581,19.5027,1.73705,-0.11572,0.92821
315.581,19.59356,1.73818,-0.11704,0.92628
318.581,19.6846,1.74055,-0.11704,0.92435
321.581,19.77574,1.74336,-0.1182,0.92241
324.581,19.86676,1.74242,-0.11802,0.92047
327.581,19.95801,1.74471,-0.11802,0.91852
330.581,20.04945,1.74868,-0.11835,0.91657
333.581,20.1409,1.75235,-0.11835,0.91461
336.581,20.23236,1.75443,-0.11969,0.91265
339.581,20.3239,1.76077,-0.12198,0.91069
342.581,20.4152,1.76382,-0.1231,0.90872
345.581,20.50722,1.76779,-0.12592,0.90675
348.581,20.59913,1.77396,-0.12592,0.90478
351.581,20.69117,1.77887,-0.12725,0.9028
354.581,20.78319,1.78258,-0.12724,0.90082
357.581,20.87549,1.78642,-0.12855,0.89883
360.581,20.96762,1.79325,-0.12987,0.89684
363.581,21.05992,1.79882,-0.12987,0.89485
366.581,21.1524,1.80938,-0.13118,0.89285
369.581,21.24479,1.81721,-0.13256,0.89085
372.581,21.33749,1.82876,-0.13518,0.88885
375.581,21.4302,1.84307,-0.13645,0.88684
378.581,21.52287,1.85886,-0.13775,0.88483
381.581,21.61552,1.87704,-0.1404,0.88281
384.581,21.7085,1.89753,-0.14171,0.8808
387.581,21.8015,1.92321,-0.14564,0.87878
390.581,21.89459,1.9527,-0.14852,0.87675
393.581,21.98774,1.98928,-0.15303,0.87472
396.581,22.0808,2.02766,-0.1561,0.87269
399.581,22.17424,2.08128,-0.1603,0.87066
402.581,22.2677,2.15132,-0.16732,0.86862
405.581,22.36104,2.23969,-0.17507,0.86658
408.581,22.45453,2.36494,-0.18453,0.86453
411.581,22.54864,2.51909,-0.19526,0.86248
414.581,22.64244,2.68226,-0.21036,0.86043
417.581,22.7364,2.86653,-0.22768,0.85838
420.581,22.8308,3.07894,-0.2511,0.85632
423.581,22.92511,3.30046,-0.28042,0.85426
426.581,23.01951,3.42982,-0.31436,0.8522
429.581,23.11401,3.61385,-0.3539,0.85013
432.581,23.20851,3.83179,-0.40255,0.84806
435.581,23.30303,4.05949,-0.45687,0.84599
438.581,23.39803,4.30025,-0.52036,0.84392
441.581,23.49305,4.5492,-0.59383,0.84184
444.581,23.58811,4.80204,-0.68224,0.83976
447.581,23.68317,5.03484,-0.78041,0.83767
450.581,23.77854,5.25847,-0.894,0.83559
453.581,23.87398,5.4441,-1.0157,0.8335
456.581,23.96925,5.60128,-1.1502,0.8314
459.581,24.0649,5.73387,-1.2951,0.82931
462.581,24.16031,5.83917,-1.4506,0.82721
465.581,24.25597,5.92756,-1.61892,0.82511
468.581,24.3514,5.99979,-1.79776,0.82301
471.581,24.44697,6.04485,-1.98446,0.8209
474.581,24.54211,6.07903,-2.17731,0.81879
477.581,24.63788,6.09358,-2.37693,0.81668
480.581,24.73377,6.04691,-2.58546,0.81457
483.581,24.8293,5.93429,-2.79848,0.81245
486.581,24.92478,5.69548,-3.01395,0.81033
489.581,25.0201,5.27174,-3.22085,0.80821
492.581,25.11524,4.68586,-3.41272,0.80608
495.581,25.21014,3.9276,-3.58366,0.80396
498.581,25.30451,3.02567,-3.72471,0.80183
501.581,25.39884,2.09914,-3.83129,0.7997
504.581,25.49277,1.33432,-3.9019,0.79756
507.581,25.58695,0.82462,-3.94308,0.79542
510.581,25.6812,0.52768,-3.96903,0.79328
513.581,25.77589,0.37116,-3.98301,0.79114
516.581,25.87118,0.28637,-3.98817,0.789
519.581,25.96649,0.24209,-3.99169,0.78685
522.581,26.06213,0.22285,-3.993,0.7847
525.581,26.15802,0.21117,-3.9956,0.78255
528.581,26.25406,0.20532,-3.99639,0.7804
531.581,26.3503,0.20397,-3.99695,0.77824
534.581,26.44687,0.20484,-3.99828,0.77608
537.581,26.54342,0.20626,-4.00029,0.77392
540.581,26.64,0.2174,-3.99959,0.77176
543.581,26.7364,0.22651,-4.00024,0.76959
546.581,26.8331,0.23279,-4.00025,0.76743
549.581,26.9301,0.23326,-4.00091,0.76526
552.581,27.0272,0.23419,-4.00091,0.76309
555.581,27.12479,0.23717,-3.99993,0.76091
558.581,27.222,0.2363,-4.00124,0.75874
561.581,27.3194,0.23558,-4.00124,0.75656
564.581,27.41674,0.2329,-4.00124,0.75438
567.581,27.51422,0.23249,-4.00124,0.7522
570.581,27.61178,0.2303,-4.00321,0.75001
573.581,27.7095,0.22605,-4.0042,0.74783
576.581,27.80701,0.2245,-4.00551,0.74564
579.581,27.9047,0.22173,-4.00617,0.74345
582.581,28.00249,0.22056,-4.00486,0.74125
585.581,28.10037,0.22071,-4.00486,0.73906
588.581,28.19823,0.21271,-4.00486,0.73686
591.581,28.29637,0.21469,-4.00555,0.73467
594.581,28.39436,0.20842,-4.00552,0.73247
597.581,28.4927,0.20721,-4.00814,0.73026
600.581,28.59085,0.20959,-4.00928,0.72806
603.581,28.68917,0.20804,-4.00851,0.72585
606.581,28.78746,0.21062,-4.00815,0.72365
609.581,28.8858,0.20714,-4.00815,0.72144
612.581,28.98428,0.20746,-4.00948,0.71923
615.581,29.08265,0.20783,-4.00947,0.71701
618.581,29.1814,0.2113,-4.00914,0.7148
621.581,29.27995,0.20756,-4.00914,0.71258
624.581,29.37862,0.20778,-4.01178,0.71037
627.581,29.47734,0.21,-4.01177,0.70815
630.581,29.5759,0.20467,-4.01308,0.70592
633.581,29.6753,0.20358,-4.01112,0.7037
636.581,29.7742,0.20097,-4.01309,0.70148
639.581,29.8732,0.19863,-4.01309,0.69925
642.581,29.9723,0.2059,-4.01267,0.69702
645.581,30.07149,0.20333,-4.01309,0.69479
648.581,30.1707,0.20539,-4.01309,0.69256
651.581,30.26965,0.20949,-4.01441,0.69033
654.581,30.3689,0.21307,-4.01539,0.6881
657.581,30.46807,0.21069,-4.01572,0.68586
660.581,30.56689,0.21466,-4.01473,0.68363
663.581,30.6665,0.21682,-4.01605,0.68139
666.581,30.76588,0.21897,-4.01705,0.67915
669.581,30.86512,0.22031,-4.0157,0.67691
672.581,30.96459,0.2242,-4.0144,0.67467
675.581,31.06387,0.22764,-4.01572,0.67242
678.581,31.1632,0.23084,-4.01572,0.67018
681.581,31.26274,0.23103,-4.01539,0.66793
684.581,31.3621,0.2373,-4.01964,0.66568
687.581,31.46159,0.23795,-4.01508,0.66344
690.581,31.5612,0.24347,-4.01638,0.66119
693.581,31.6604,0.24161,-4.01539,0.65894
696.581,31.7603,0.24222,-4.01539,0.65668
699.581,31.85993,0.2463,-4.01571,0.65443
702.581,31.9596,0.24843,-4.01671,0.65218
705.581,32.0595,0.24942,-4.01605,0.64992
708.581,32.15918,0.25064,-4.01639,0.64767
711.581,32.25907,0.25876,-4.0177,0.64541
714.581,32.3591,0.25944,-4.0177,0.64315
717.581,32.45892,0.26441,-4.01769,0.64089
720.581,32.55895,0.26935,-4.01638,0.63863
723.581,32.65903,0.27412,-4.01638,0.63637
726.581,32.7592,0.2784,-4.0177,0.63411
729.581,32.85923,0.28176,-4.01637,0.63185
732.581,32.95909,0.27937,-4.01637,0.62958
735.581,33.05885,0.2806,-4.01613,0.62732
738.581,33.15907,0.28087,-4.01638,0.62506
741.581,33.25958,0.28266,-4.01638,0.62279
743.781,33.33316,0.27736,-4.0177,0.62113