Folder: fsri_materials_database/01_Data/Nylon/STA/N2/30K_min (part 2)

File: Nylon_STA_N2_30KData_220704_R3.csv
##Temp./Â°C,Time/min,DSC(subtr.2)/(mW/mg),Mass loss(subtr.2)/mg,Sensit./(uV/mW)
48.468,10.00667,0.02168442,-0.04673,1.07507
51.468,10.86955,0.21619,-0.04826833,1.07375
54.468,11.09722,0.3466,-0.04920932,1.07241
57.468,11.27063,0.45353,-0.04899818,1.07107
60.468,11.4213,0.54504,-0.04830682,1.06971
63.468,11.55747,0.62796,-0.04967782,1.06835
66.468,11.68389,0.70305,-0.0486314,1.06697
69.468,11.805,0.77081,-0.0497281,1.06559
72.468,11.92148,0.82362,-0.05058121,1.0642
75.468,12.03468,0.86365,-0.0504264,1.06279
78.468,12.14537,0.89195,-0.05189948,1.06138
81.468,12.25429,0.90986,-0.05068605,1.05996
84.468,12.36084,0.93237,-0.05230852,1.05852
87.468,12.46641,0.94773,-0.05396225,1.05708
90.468,12.57042,0.96578,-0.05286611,1.05563
93.468,12.67367,0.98567,-0.05265564,1.05417
96.468,12.77533,1.00399,-0.05397787,1.05271
99.468,12.87805,1.02556,-0.05522895,1.05123
102.468,12.97931,1.04821,-0.05528949,1.04974
105.468,13.0802,1.06493,-0.05529389,1.04825
108.468,13.1807,1.0866,-0.05792967,1.04674
111.468,13.2815,1.10739,-0.05796753,1.04523
114.468,13.3818,1.12327,-0.05924019,1.04371
117.468,13.482,1.13753,-0.0589085,1.04218
120.468,13.58167,1.15652,-0.05928065,1.04065
123.468,13.68089,1.17356,-0.05923002,1.0391
126.468,13.77953,1.1872,-0.05923037,1.03755
129.468,13.8779,1.20432,-0.05956973,1.03599
132.468,13.9758,1.21871,-0.06089,1.03442
135.468,14.0732,1.23353,-0.06219999,1.03284
138.468,14.17007,1.25025,-0.06187876,1.03125
141.468,14.2665,1.26469,-0.06219776,1.02966
144.468,14.3628,1.28326,-0.06219978,1.02806
147.468,14.45855,1.29799,-0.0634757,1.02645
150.468,14.55398,1.31275,-0.06483,1.02484
153.468,14.6491,1.32905,-0.0651693,1.02321
156.468,14.7438,1.34581,-0.06469408,1.02158
159.468,14.8388,1.35947,-0.06483,1.01994
162.468,14.933,1.37695,-0.06614869,1.0183
165.468,15.02754,1.38881,-0.06615007,1.01665
168.468,15.1214,1.40248,-0.06483,1.01499
171.468,15.2154,1.41668,-0.06483062,1.01332
174.468,15.30904,1.42936,-0.06647001,1.01165
177.468,15.40235,1.44305,-0.06647,1.00997
180.468,15.4955,1.45368,-0.06647452,1.00828
183.468,15.58816,1.46566,-0.06713,1.00659
186.468,15.68051,1.47835,-0.06778947,1.00489
189.468,15.7728,1.48916,-0.06779,1.00318
192.468,15.86484,1.50374,-0.06516041,1.00147
195.468,15.9568,1.51321,-0.06737148,0.99975
198.468,16.0484,1.52642,-0.06746,0.99802
201.468,16.14002,1.5426,-0.06746,0.99629
204.468,16.23164,1.55636,-0.06746,0.99455
207.468,16.3229,1.57341,-0.06746,0.9928
210.468,16.41437,1.58994,-0.06878252,0.99105
213.468,16.50566,1.60882,-0.06878,0.98929
216.468,16.59689,1.6329,-0.06878,0.98753
219.468,16.688,1.65495,-0.06881103,0.98576
222.468,16.77896,1.68146,-0.07008953,0.98399
225.468,16.8701,1.7095,-0.07009235,0.98221
228.468,16.96097,1.74138,-0.07009,0.98042
231.468,17.05179,1.77372,-0.07008828,0.97863
234.468,17.14284,1.81315,-0.07272929,0.97683
237.468,17.23382,1.85863,-0.07141001,0.97503
240.468,17.3246,1.91494,-0.07009001,0.97322
243.468,17.41555,1.99266,-0.07141009,0.9714
246.468,17.50633,2.11149,-0.07108004,0.96958
249.468,17.59733,2.31201,-0.07107998,0.96776
252.468,17.6883,2.61687,-0.07108441,0.96593
255.468,17.77952,3.02833,-0.07108522,0.96409
258.468,17.87096,3.55862,-0.07129809,0.96225
261.468,17.96261,4.16325,-0.07108,0.9604
264.468,18.05418,3.51689,-0.07108,0.95855
267.468,18.14494,2.72568,-0.07106384,0.9567
270.468,18.2353,2.29571,-0.07339,0.95483
273.468,18.32535,2.06255,-0.07339,0.95297
276.468,18.4154,1.93086,-0.0733928,0.9511
279.468,18.5055,1.86056,-0.07437,0.94922
282.468,18.59564,1.81879,-0.07426451,0.94734
285.468,18.686,1.80127,-0.07240008,0.94546
288.468,18.77638,1.79143,-0.0724,0.94357
291.468,18.86695,1.7896,-0.072401,0.94167
294.468,18.95753,1.79068,-0.07371567,0.93977
297.468,19.04813,1.79567,-0.07468461,0.93787
300.468,19.13854,1.80092,-0.07570111,0.93596
303.468,19.22939,1.80216,-0.07700963,0.93405
306.468,19.31979,1.8069,-0.07701021,0.93213
309.468,19.41076,1.81428,-0.07602,0.93021
312.468,19.5016,1.8176,-0.07735699,0.92828
315.468,19.59254,1.82495,-0.07734,0.92635
318.468,19.68345,1.82613,-0.07761713,0.92442
321.468,19.77446,1.83166,-0.07865226,0.92248
324.468,19.86562,1.83825,-0.0796506,0.92054
327.468,19.95668,1.84352,-0.07964001,0.91859
330.468,20.04791,1.84661,-0.08029993,0.91664
333.468,20.13925,1.85199,-0.0803,0.91469
336.468,20.23064,1.85906,-0.08063118,0.91273
339.468,20.3222,1.86124,-0.08194063,0.91076
342.468,20.41376,1.86796,-0.0832602,0.9088
345.468,20.50548,1.87079,-0.08457,0.90683
348.468,20.59732,1.87623,-0.08457,0.90485
351.468,20.68899,1.88147,-0.08456995,0.90287
354.468,20.78121,1.88736,-0.08456941,0.90089
357.468,20.8733,1.89682,-0.08589974,0.89891
360.468,20.96525,1.90387,-0.0859,0.89692
363.468,21.05763,1.91151,-0.08721097,0.89492
366.468,21.1499,1.92037,-0.08984034,0.89293
369.468,21.24226,1.93065,-0.09114757,0.89093
372.468,21.33493,1.93981,-0.09247056,0.88892
375.468,21.42752,1.94994,-0.09378402,0.88692
378.468,21.5202,1.96742,-0.096529,0.88491
381.468,21.6131,1.98027,-0.09785001,0.88289
384.468,21.70594,1.99441,-0.09913262,0.88087
387.468,21.799,2.01309,-0.1033,0.87885
390.468,21.89224,2.03489,-0.10607,0.87683
393.468,21.98538,2.068,-0.11027,0.8748
396.468,22.0787,2.10801,-0.11418,0.87277
399.468,22.17191,2.1619,-0.11552,0.87073
402.468,22.2656,2.23107,-0.12658,0.8687
405.468,22.35922,2.31563,-0.13578,0.86665
408.468,22.45295,2.44624,-0.14353,0.86461
411.468,22.54668,2.6312,-0.15423,0.86256
414.468,22.6405,2.85381,-0.17063,0.86051
417.468,22.73477,3.10844,-0.19188,0.85846
420.468,22.82926,3.37738,-0.21873,0.8564
423.468,22.92373,3.63143,-0.25418,0.85434
426.468,23.01835,3.90633,-0.29643,0.85228
429.468,23.11311,4.19335,-0.34769,0.85021
432.468,23.208,4.48451,-0.40642,0.84814
435.468,23.30304,4.776,-0.47821,0.84607
438.468,23.3982,5.05269,-0.56035,0.84399
441.468,23.49346,5.3231,-0.65365,0.84192
444.468,23.5887,5.56808,-0.76104,0.83984
447.468,23.68401,5.78802,-0.87904,0.83775
450.468,23.7795,5.97981,-1.00929,0.83567
453.468,23.8751,6.13385,-1.14707,0.83358
456.468,23.97073,6.23791,-1.29519,0.83148
459.468,24.06606,6.29527,-1.44837,0.82939
462.468,24.16159,6.3371,-1.61318,0.82729
465.468,24.2572,6.30197,-1.78963,0.82519
468.468,24.3526,6.24631,-1.9667,0.82309
471.468,24.44797,6.20857,-2.14862,0.82098
474.468,24.54308,6.1702,-2.3367,0.81887
477.468,24.63883,6.11712,-2.53264,0.81676
480.468,24.7343,5.98914,-2.73646,0.81465
483.468,24.8297,5.74205,-2.94069,0.81253
486.468,24.92463,5.3546,-3.14016,0.81041
489.468,25.01949,4.79649,-3.32457,0.80829
492.468,25.11438,4.06005,-3.48983,0.80616
495.468,25.2088,3.16567,-3.62638,0.80404
498.468,25.30265,2.2171,-3.73029,0.80191
501.468,25.3967,1.40636,-3.7991,0.79978
504.468,25.49106,0.86772,-3.83697,0.79764
507.468,25.58471,0.56048,-3.85993,0.7955
510.468,25.67921,0.39713,-3.86978,0.79336
513.468,25.77441,0.30992,-3.87438,0.79122
516.468,25.86991,0.26184,-3.87708,0.78908
519.468,25.96557,0.24022,-3.87973,0.78693
522.468,26.06119,0.2275,-3.88234,0.78478
525.468,26.1569,0.22416,-3.88235,0.78263
528.468,26.253,0.23841,-3.88365,0.78048
531.468,26.34882,0.26705,-3.88496,0.77832
534.468,26.44489,0.27234,-3.88399,0.77616
537.468,26.5413,0.27081,-3.88399,0.774
540.468,26.6379,0.26522,-3.88531,0.77184
543.468,26.7345,0.25677,-3.88596,0.76968
546.468,26.83121,0.24398,-3.88728,0.76751
549.468,26.92816,0.23551,-3.88728,0.76534
552.468,27.02526,0.22009,-3.88597,0.76317
555.468,27.1223,0.20417,-3.88728,0.76099
558.468,27.2195,0.18956,-3.88728,0.75882
561.468,27.31652,0.17443,-3.8886,0.75664
564.468,27.4138,0.1633,-3.88837,0.75446
567.468,27.511,0.15235,-3.88805,0.75228
570.468,27.6084,0.13672,-3.88805,0.75009
573.468,27.70593,0.1287,-3.88805,0.74791
576.468,27.80351,0.11905,-3.88841,0.74572
579.468,27.90121,0.11314,-3.88921,0.74353
582.468,27.99907,0.10347,-3.89276,0.74134
585.468,28.0969,0.0976808,-3.8897,0.73914
588.468,28.19496,0.08914788,-3.8897,0.73695
591.468,28.2931,0.08450053,-3.89101,0.73475
594.468,28.3913,0.08234569,-3.89002,0.73255
597.468,28.48971,0.08271247,-3.89131,0.73035
600.468,28.588,0.08211461,-3.89266,0.72814
603.468,28.6866,0.07936122,-3.89266,0.72594
606.468,28.7851,0.08280949,-3.89167,0.72373
609.468,28.88372,0.08381458,-3.89298,0.72152
612.468,28.98237,0.08455901,-3.89298,0.71931
615.468,29.08108,0.08371608,-3.89298,0.7171
618.468,29.1798,0.08217644,-3.89396,0.71488
621.468,29.27867,0.08368848,-3.8943,0.71267
624.468,29.37753,0.08649778,-3.89331,0.71045
627.468,29.4765,0.08288724,-3.8943,0.70823
630.468,29.57553,0.08386132,-3.8943,0.70601
633.468,29.6744,0.08558757,-3.89562,0.70379
636.468,29.77347,0.09011629,-3.8966,0.70156
639.468,29.8726,0.09424482,-3.89529,0.69934
642.468,29.9715,0.09400167,-3.89529,0.69711
645.468,30.07062,0.09392009,-3.89529,0.69488
648.468,30.16955,0.09410235,-3.89529,0.69265
651.468,30.2686,0.09420519,-3.89489,0.69042
654.468,30.36753,0.09686435,-3.89563,0.68818
657.468,30.46647,0.09749381,-3.89562,0.68595
660.468,30.5655,0.09827255,-3.89793,0.68371
663.468,30.6643,0.10053,-3.89793,0.68147
666.468,30.7635,0.10239,-3.89658,0.67923
669.468,30.8628,0.10825,-3.8986,0.67699
672.468,30.962,0.109,-3.89858,0.67475
675.468,31.06125,0.11284,-3.89858,0.67251
678.468,31.1602,0.11326,-3.89725,0.67026
681.468,31.25955,0.11856,-3.89726,0.66802
684.468,31.35888,0.12373,-3.89858,0.66577
687.468,31.45869,0.12848,-3.89858,0.66352
690.468,31.5587,0.12971,-3.89858,0.66127
693.468,31.6584,0.13586,-3.8989,0.65902
696.468,31.7582,0.13641,-3.90023,0.65677
699.468,31.858,0.14222,-3.90023,0.65452
702.468,31.9578,0.14844,-3.8999,0.65226
705.468,32.05782,0.15223,-3.8999,0.65001
708.468,32.15789,0.1583,-3.90023,0.64775
711.468,32.2579,0.161,-3.90023,0.64549
714.468,32.3581,0.16757,-3.90088,0.64324
717.468,32.45811,0.17117,-3.89956,0.64098
720.468,32.55831,0.17767,-3.89858,0.63872
723.468,32.65863,0.18645,-3.89991,0.63646
726.468,32.7588,0.19589,-3.8999,0.63419
729.468,32.85909,0.20422,-3.89989,0.63193
732.468,32.95945,0.20754,-3.89989,0.62967
735.468,33.05997,0.21065,-3.90121,0.62741
738.468,33.1606,0.21279,-3.89988,0.62514
741.468,33.26089,0.21823,-3.89989,0.62288
743.568,33.3315,0.21099,-3.89956,0.62129