Folder: fsri_materials_database/01_Data/Nylon/STA/N2/3K_min

Note: 01_Data/README.md
# Materials and Products Database
## 01_Data

Raw data generated from each apparatus are included here in plain-text format. The data is organized first by material, next by the short name of test apparatus used, and where applicable additional filtering by test settings.

### material.json

Each material directory contains a json file of the same name as the material. This file links the data stored in the repository as well as data and graphs produced by the accompanying scripts (__02_Scripts__) to the respective landing page for the material on the front-end website.

File: Nylon_STA_N2_3KData_220704_R1.csv
##Temp./Â°C,Time/min,Mass loss(subtr.2)/mg,DSC(subtr.2)/(mW/mg),Sensit./(uV/mW)
50.534,10.0158,-0.07371,0.004854871,1.05026
53.634,12.26853,-0.08851186,0.05785925,1.0497
56.734,13.4488,-0.09508188,0.06745021,1.04913
59.834,14.56649,-0.10201,0.07513567,1.04855
62.934,15.63809,-0.10869,0.08011802,1.04795
66.034,16.6939,-0.11354,0.07860015,1.04733
69.134,17.74277,-0.11615,0.08336424,1.0467
72.234,18.78472,-0.12011,0.08216954,1.04605
75.334,19.8195,-0.12449,0.07980634,1.04539
78.434,20.85839,-0.12801,0.07719264,1.04471
81.534,21.89854,-0.13327,0.07650752,1.04402
84.634,22.93927,-0.13596,0.07237211,1.04331
87.734,23.96932,-0.13722,0.07522967,1.04259
90.834,25.0006,-0.14117,0.07307177,1.04185
93.934,26.03128,-0.14707,0.073534,1.0411
97.034,27.06193,-0.1498,0.07699223,1.04033
100.134,28.0893,-0.15184,0.07901067,1.03954
103.234,29.1143,-0.15433,0.0776912,1.03874
106.334,30.14195,-0.1569,0.07920503,1.03793
109.434,31.1736,-0.15627,0.07853965,1.0371
112.534,32.19764,-0.15959,0.08227542,1.03626
115.634,33.22012,-0.16091,0.08305009,1.0354
118.734,34.23923,-0.16226,0.08151597,1.03452
121.834,35.26486,-0.16585,0.08232614,1.03363
124.934,36.2874,-0.16782,0.08511095,1.03272
128.034,37.30993,-0.16684,0.08713312,1.0318
131.134,38.3273,-0.16721,0.08918939,1.03087
134.234,39.34649,-0.16849,0.08941044,1.02992
137.334,40.3648,-0.17176,0.0861054,1.02895
140.434,41.38109,-0.17106,0.09070556,1.02797
143.534,42.39587,-0.1761,0.09166684,1.02697
146.634,43.40613,-0.17572,0.09385314,1.02596
149.734,44.41868,-0.17701,0.09475346,1.02493
152.834,45.43261,-0.17671,0.09276667,1.02389
155.934,46.4418,-0.17609,0.09516347,1.02283
159.034,47.45538,-0.1777,0.09571452,1.02176
162.134,48.46891,-0.17638,0.09585499,1.02067
165.234,49.47929,-0.1767,0.09721164,1.01957
168.334,50.48949,-0.17409,0.09541669,1.01845
171.434,51.5026,-0.17611,0.09763751,1.01732
174.534,52.5029,-0.17769,0.10056,1.01617
177.634,53.521,-0.17639,0.09598514,1.01501
180.734,54.53711,-0.17547,0.09904416,1.01384
183.834,55.5476,-0.17473,0.10037,1.01264
186.934,56.5572,-0.17736,0.10175,1.01144
190.034,57.5635,-0.17835,0.1004,1.01021
193.134,58.5755,-0.17824,0.10023,1.00898
196.234,59.58335,-0.17965,0.10028,1.00773
199.334,60.59046,-0.17834,0.10253,1.00646
202.434,61.59799,-0.18099,0.10498,1.00518
205.534,62.6047,-0.18039,0.10448,1.00388
208.634,63.61062,-0.18033,0.10736,1.00257
211.734,64.61636,-0.17526,0.10682,1.00125
214.834,65.62055,-0.17664,0.10812,0.99991
217.934,66.625,-0.1793,0.10755,0.99855
221.034,67.63461,-0.17987,0.11026,0.99718
224.134,68.6409,-0.18219,0.1136,0.9958
227.234,69.64666,-0.18218,0.12051,0.9944
230.334,70.6524,-0.1852,0.12097,0.99299
233.434,71.65687,-0.1821,0.12566,0.99156
236.534,72.6644,-0.18384,0.12922,0.99012
239.634,73.66678,-0.18745,0.13443,0.98866
242.734,74.67437,-0.19042,0.13566,0.98719
245.834,75.68445,-0.19009,0.14435,0.9857
248.934,76.6936,-0.18965,0.15626,0.9842
252.034,77.70397,-0.19229,0.19234,0.98269
255.134,78.714,-0.19061,0.25409,0.98116
258.234,79.72811,-0.19462,0.3729,0.97962
261.334,80.74416,-0.191,0.43565,0.97806
264.434,81.74679,-0.19316,0.29524,0.97649
267.534,82.73925,-0.19524,0.12058,0.9749
270.634,83.7431,-0.19512,0.119,0.9733
273.734,84.7558,-0.19371,0.11325,0.97169
276.834,85.7642,-0.19207,0.11673,0.97006
279.934,86.76878,-0.19436,0.11471,0.96842
283.034,87.77734,-0.19761,0.11501,0.96677
286.134,88.78449,-0.20105,0.11341,0.9651
289.234,89.7946,-0.20117,0.11478,0.96341
292.334,90.80721,-0.20557,0.11448,0.96171
295.434,91.81511,-0.20743,0.11614,0.96
298.534,92.82592,-0.20639,0.1148,0.95828
301.634,93.83507,-0.20481,0.11764,0.95654
304.734,94.84059,-0.20659,0.11641,0.95479
307.834,95.85099,-0.20935,0.11818,0.95302
310.934,96.86418,-0.21367,0.11933,0.95124
314.034,97.87437,-0.21646,0.12003,0.94945
317.134,98.88297,-0.2151,0.12438,0.94764
320.234,99.896,-0.21727,0.12292,0.94582
323.334,100.907,-0.21984,0.12353,0.94399
326.434,101.918,-0.21838,0.12341,0.94214
329.534,102.931,-0.22146,0.12469,0.94028
332.634,103.945,-0.22343,0.12473,0.93841
335.734,104.96,-0.22705,0.126,0.93652
338.834,105.975,-0.23002,0.13092,0.93462
341.934,106.987,-0.22801,0.13337,0.93271
345.034,108.001,-0.23431,0.14399,0.93079
348.134,109.0104,-0.23963,0.15838,0.92885
351.234,110.025,-0.24897,0.17931,0.9269
354.334,111.03,-0.24795,0.20805,0.92493
357.434,112.039,-0.26051,0.23372,0.92295
360.534,113.052,-0.27016,0.24109,0.92096
363.634,114.076,-0.28668,0.23112,0.91896
366.734,115.099,-0.31218,0.25415,0.91695
369.834,116.122,-0.3401,0.26586,0.91492
372.934,117.141,-0.38254,0.28725,0.91288
376.034,118.157,-0.42783,0.30881,0.91083
379.134,119.181,-0.48359,0.33501,0.90876
382.234,120.202,-0.55123,0.36602,0.90669
385.334,121.222,-0.63096,0.39639,0.9046
388.434,122.244,-0.72008,0.42396,0.9025
391.534,123.265,-0.82191,0.44666,0.90038
394.634,124.287,-0.93403,0.46527,0.89826
397.734,125.305,-1.05905,0.48297,0.89612
400.834,126.326,-1.19832,0.49889,0.89397
403.934,127.35,-1.34844,0.50606,0.89181
407.034,128.372,-1.50755,0.51321,0.88964
410.134,129.394,-1.6761,0.51572,0.88745
413.234,130.415,-1.85484,0.51778,0.88526
416.334,131.433,-2.04107,0.51711,0.88305
419.434,132.46,-2.23387,0.50849,0.88083
422.534,133.486,-2.43037,0.4952,0.8786
425.634,134.507,-2.62378,0.47343,0.87636
428.734,135.527,-2.81953,0.44705,0.87411
431.834,136.554,-3.01505,0.41223,0.87184
434.934,137.581,-3.19487,0.37441,0.86957
438.034,138.599,-3.36157,0.3242,0.86728
441.134,139.623,-3.51556,0.27131,0.86499
444.234,140.651,-3.64627,0.20519,0.86268
447.334,141.6746,-3.75215,0.14851,0.86036
450.434,142.696,-3.83554,0.10054,0.85803
453.534,143.717,-3.89497,0.06019664,0.85569
456.634,144.745,-3.9344,0.03701848,0.85334
459.734,145.773,-3.96208,0.0200083,0.85098
462.834,146.801,-3.97492,0.02095273,0.84861
465.934,147.8285,-3.98348,0.01964951,0.84623
469.034,148.857,-3.98913,0.02687912,0.84384
472.134,149.888,-3.99269,0.02577404,0.84144
475.234,150.918,-3.99602,0.009439896,0.83903
478.334,151.946,-3.99951,-0.002631872,0.83661
481.434,152.982,-3.99927,-0.02447694,0.83417
484.534,154.011,-3.99933,-0.03229449,0.83173
487.634,155.048,-4.0019,-0.03188319,0.82928
490.734,156.078,-4.0012,-0.03528614,0.82682
493.834,157.112,-4.00256,-0.03405871,0.82436
496.934,158.145,-4.0045,-0.03274303,0.82188
500.034,159.178,-4.00453,-0.02756436,0.81939
503.134,160.213,-4.00744,-0.02795603,0.81689
506.234,161.25,-4.00749,-0.02377515,0.81439
509.334,162.286,-4.00842,-0.02172858,0.81187
512.434,163.318,-4.00815,-0.01941044,0.80935
515.534,164.351,-4.00825,-0.02280097,0.80681
518.634,165.384,-4.00876,-0.02077508,0.80427
521.734,166.416,-4.01144,-0.02523285,0.80172
524.834,167.451,-4.01014,-0.02389534,0.79916
527.934,168.487,-4.01248,-0.02268975,0.7966
531.034,169.52,-4.01156,-0.02084936,0.79402
534.134,170.557,-4.01309,-0.02491525,0.79144
537.234,171.595,-4.01274,-0.02664368,0.78885
540.334,172.63,-4.01309,-0.02603375,0.78625
543.434,173.667,-4.01499,-0.02847146,0.78364
546.534,174.703,-4.01572,-0.02815533,0.78103
549.634,175.743,-4.01572,-0.03230501,0.7784
552.734,176.783,-4.01539,-0.03249287,0.77577
555.834,177.823,-4.01707,-0.03125538,0.77313
558.934,178.859,-4.01704,-0.02552399,0.77049
562.034,179.8983,-4.01636,-0.02848847,0.76784
565.134,180.936,-4.01868,-0.02988456,0.76518
568.234,181.977,-4.02,-0.02920596,0.76251
571.334,183.014,-4.01901,-0.02892528,0.75984
574.434,184.051,-4.01835,-0.0273461,0.75715
577.534,185.096,-4.01868,-0.02994617,0.75447
580.634,186.139,-4.02,-0.03408417,0.75177
583.734,187.179,-4.02065,-0.03561287,0.74907
586.834,188.223,-4.02067,-0.03818592,0.74636
589.934,189.266,-4.019,-0.03275849,0.74365
593.034,190.307,-4.02197,-0.03241894,0.74093
596.134,191.354,-4.01904,-0.03544724,0.73821
599.234,192.3943,-4.02032,-0.03688436,0.73547
602.334,193.438,-4.01965,-0.03615418,0.73274
605.434,194.476,-4.02131,-0.03769845,0.72999
608.534,195.519,-4.02156,-0.03711993,0.72724
611.634,196.565,-4.02296,-0.03526931,0.72449
614.734,197.606,-4.02198,-0.03775766,0.72173
617.834,198.652,-4.02253,-0.0357754,0.71896
620.934,199.696,-4.02163,-0.03713529,0.71619
624.034,200.735,-4.01999,-0.03804216,0.71341
627.134,201.779,-4.02157,-0.03302133,0.71063
630.234,202.822,-4.02329,-0.0317184,0.70785
633.334,203.87,-4.0223,-0.03312559,0.70506
636.434,204.9118,-4.02494,-0.03184488,0.70226
639.534,205.956,-4.02088,-0.03318461,0.69946
642.634,207,-4.02296,-0.03316183,0.69666
645.734,208.046,-4.02163,-0.03063807,0.69385
648.834,209.089,-4.02462,-0.03085354,0.69103
651.934,210.133,-4.0253,-0.02828632,0.68822
655.034,211.183,-4.02426,-0.02809143,0.68539
658.134,212.23,-4.02389,-0.02844219,0.68257
661.234,213.2737,-4.02534,-0.02446105,0.67974
664.334,214.322,-4.02493,-0.02161644,0.67691
667.434,215.37,-4.02328,-0.02126402,0.67407
670.534,216.42,-4.02329,-0.01806035,0.67123
673.634,217.472,-4.02496,-0.01625765,0.66839
676.734,218.519,-4.02491,-0.01501143,0.66554
679.834,219.5638,-4.02461,-0.01027835,0.66269
682.934,220.616,-4.02657,-0.009469786,0.65984
686.034,221.663,-4.02689,-0.01451359,0.65699
689.134,222.707,-4.02592,-0.008848487,0.65413
692.234,223.753,-4.02688,-0.0111816,0.65127
695.334,224.803,-4.02757,-0.01006014,0.6484
698.434,225.85,-4.02921,-0.01412729,0.64554
701.534,226.898,-4.03053,-0.009929039,0.64267
704.634,227.946,-4.03019,-0.00667238,0.6398
707.734,228.992,-4.0285,-0.0099711,0.63693
710.834,230.039,-4.02739,-0.008906778,0.63406
713.934,231.085,-4.03119,-0.01207082,0.63118
717.034,232.131,-4.03145,-0.01841499,0.6283
720.134,233.1795,-4.02955,-0.0198164,0.62542
723.234,234.233,-4.02922,-0.01724469,0.62254
726.334,235.276,-4.03084,-0.02323983,0.61966
729.434,236.319,-4.03127,-0.01180957,0.61678
732.534,237.364,-4.03182,-0.01408001,0.61389
735.634,238.412,-4.02923,-0.01514285,0.61101
738.734,239.462,-4.03151,-0.02105338,0.60812
741.834,240.508,-4.03053,-0.02464025,0.60524
744.934,241.561,-4.03085,-0.02866148,0.60235
748.034,242.6086,-4.03349,-0.03364907,0.59946
750.134,243.317,-4.0305,-0.03480831,0.5975