Folder: fsri_materials_database/01_Data/MDF/STA/N2/10K_min (part 2)

File: MDF_STA_N2_10KData_211011_R3.csv
##Temp./Â°C,Time/min,Mass(subtr.2)/%,DSC(subtr.2)/(mW/mg),Sensit./(uV/mW)
49.911,10.01,100.1045,-0.01104816,1.03584
52.411,12.34149,100.152,0.03209175,1.03571
54.911,13.02507,100.13,0.05206956,1.03555
57.411,13.56812,100.157,0.06914029,1.03536
59.911,14.04302,100.134,0.08241611,1.03515
62.411,14.47435,100.104,0.09158355,1.03491
64.911,14.8741,100.094,0.10258,1.03465
67.411,15.24889,100.135,0.11283,1.03435
69.911,15.6031,100.105,0.12272,1.03404
72.411,15.9449,100.075,0.13375,1.03369
74.911,16.27204,100.106,0.14156,1.03332
77.411,16.58856,100.069,0.15049,1.03292
79.911,16.89519,100.034,0.15528,1.0325
82.411,17.1942,100,0.16035,1.03205
84.911,17.4856,99.95559,0.1622,1.03158
87.411,17.76974,99.95902,0.16574,1.03108
89.911,18.04814,99.93638,0.16576,1.03056
92.411,18.32122,99.937,0.1654,1.03001
94.911,18.59071,99.90264,0.16563,1.02944
97.411,18.85512,99.92914,0.16313,1.02884
99.911,19.11629,99.90966,0.16166,1.02822
102.411,19.37479,99.8606,0.16709,1.02757
104.911,19.63016,99.8575,0.16866,1.0269
107.411,19.88438,99.9036,0.16982,1.02621
109.911,20.13624,99.86877,0.16617,1.02549
112.411,20.38683,99.83402,0.16346,1.02475
114.911,20.63514,99.8248,0.16409,1.02398
117.411,20.8814,99.86434,0.1633,1.02319
119.911,21.127,99.84313,0.16291,1.02238
122.411,21.37046,99.8575,0.1647,1.02155
124.911,21.61192,99.84522,0.16525,1.02069
127.411,21.85207,99.82467,0.16525,1.01981
129.911,22.091,99.86515,0.16957,1.01891
132.411,22.32795,99.84918,0.16959,1.01799
134.911,22.56374,99.81675,0.17126,1.01704
137.411,22.79824,99.8646,0.17369,1.01608
139.911,23.03135,99.82115,0.17352,1.01509
142.411,23.26333,99.8301,0.17493,1.01408
144.911,23.49461,99.79727,0.17704,1.01305
147.411,23.7251,99.79975,0.18001,1.012
149.911,23.9548,99.83,0.18196,1.01092
152.411,24.18338,99.83025,0.18376,1.00983
154.911,24.41197,99.86313,0.18543,1.00871
157.411,24.6402,99.83025,0.18683,1.00758
159.911,24.8687,99.8356,0.18682,1.00643
162.411,25.09606,99.80367,0.18928,1.00525
164.911,25.3233,99.83532,0.19128,1.00406
167.411,25.55003,99.83575,0.19343,1.00285
169.911,25.77722,99.77452,0.19356,1.00161
172.411,26.00355,99.837,0.19579,1.00036
174.911,26.2302,99.8355,0.19684,0.99909
177.411,26.4555,99.8025,0.19795,0.9978
179.911,26.6804,99.811,0.20091,0.9965
182.411,26.90561,99.77799,0.20295,0.99517
184.911,27.13015,99.7945,0.20709,0.99383
187.411,27.35435,99.81087,0.20885,0.99246
189.911,27.5786,99.76964,0.21305,0.99109
192.411,27.80166,99.77801,0.21717,0.98969
194.911,28.02491,99.6588,0.22037,0.98828
197.411,28.2484,99.7132,0.22558,0.98684
199.911,28.4716,99.64665,0.23083,0.9854
202.411,28.6945,99.58876,0.22957,0.98393
204.911,28.9179,99.58875,0.23535,0.98245
207.411,29.141,99.5395,0.238,0.98095
209.911,29.36383,99.42407,0.24006,0.97944
212.411,29.587,99.39125,0.24679,0.97791
214.911,29.81038,99.32477,0.24541,0.97637
217.411,30.0329,99.2595,0.24846,0.97481
219.911,30.2561,99.16383,0.24919,0.97323
222.411,30.47935,99.0566,0.25019,0.97164
224.911,30.7026,98.96471,0.25266,0.97004
227.411,30.92652,98.89107,0.24992,0.96842
229.911,31.1497,98.76387,0.2531,0.96679
232.411,31.37353,98.65938,0.25312,0.96514
234.911,31.59735,98.48212,0.25125,0.96348
237.411,31.8214,98.40114,0.25223,0.9618
239.911,32.04547,98.19624,0.25128,0.96011
242.411,32.2697,98.0347,0.24877,0.95841
244.911,32.49347,97.8792,0.24792,0.95669
247.411,32.71777,97.68913,0.24538,0.95496
249.911,32.94151,97.3932,0.24453,0.95322
252.411,33.1655,97.13686,0.24448,0.95147
254.911,33.3896,96.85786,0.23943,0.9497
257.411,33.61374,96.58408,0.23532,0.94793
259.911,33.83807,96.20843,0.2307,0.94614
262.411,34.0621,95.85769,0.22711,0.94433
264.911,34.2862,95.4919,0.22084,0.94252
267.411,34.5109,95.0103,0.21302,0.9407
269.911,34.73563,94.54159,0.20636,0.93886
272.411,34.961,93.98868,0.19866,0.93702
274.911,35.18606,93.46391,0.18925,0.93516
277.411,35.41041,92.83362,0.17961,0.93329
279.911,35.6365,92.208,0.16845,0.93141
282.411,35.8617,91.50114,0.15913,0.92953
284.911,36.0875,90.8107,0.14902,0.92763
287.411,36.31313,90.0087,0.13999,0.92572
289.911,36.5391,89.25871,0.13759,0.92381
292.411,36.76551,88.54436,0.13246,0.92188
294.911,36.99168,87.6637,0.12821,0.91995
297.411,37.21904,86.76462,0.12255,0.918
299.911,37.4463,85.9192,0.1255,0.91605
302.411,37.67368,85.03148,0.12868,0.91409
304.911,37.9013,83.99495,0.13427,0.91212
307.411,38.12863,83.1289,0.14239,0.91015
309.911,38.35609,82.17625,0.15434,0.90816
312.411,38.5843,81.13678,0.16896,0.90617
314.911,38.81217,80.0718,0.18477,0.90417
317.411,39.04104,79.0248,0.19801,0.90217
319.911,39.26952,77.9169,0.21583,0.90015
322.411,39.49885,76.75583,0.23248,0.89813
324.911,39.7277,75.5742,0.2501,0.89611
327.411,39.95555,74.33878,0.26633,0.89407
329.911,40.18551,73.0001,0.2863,0.89203
332.411,40.41511,71.67076,0.30556,0.88999
334.911,40.6447,70.26354,0.32589,0.88794
337.411,40.87386,68.72833,0.34873,0.88588
339.911,41.1038,67.1641,0.37177,0.88382
342.411,41.3336,65.3823,0.39749,0.88175
344.911,41.564,63.6193,0.4234,0.87968
347.411,41.79479,61.62184,0.45135,0.8776
349.911,42.02563,59.62546,0.47667,0.87552
352.411,42.25657,57.54956,0.50036,0.87344
354.911,42.4883,55.28861,0.52216,0.87134
357.411,42.7199,52.90752,0.53585,0.86925
359.911,42.9519,50.5577,0.53793,0.86715
362.411,43.1845,48.17403,0.52658,0.86505
364.911,43.4173,45.82651,0.49762,0.86294
367.411,43.65017,43.5678,0.44843,0.86084
369.911,43.88312,41.69092,0.37388,0.85872
372.411,44.11598,40.02114,0.27965,0.85661
374.911,44.34859,38.80892,0.18282,0.85449
377.411,44.58174,38.03938,0.10576,0.85237
379.911,44.81507,37.4848,0.0564391,0.85025
382.411,45.04815,37.0784,0.02742618,0.84812
384.911,45.2819,36.85817,0.01056962,0.84599
387.411,45.51637,36.56047,-0.0007202498,0.84387
389.911,45.75132,36.31617,-0.01136636,0.84173
392.411,45.98585,36.1193,-0.01990942,0.8396
394.911,46.22025,35.88564,-0.02597443,0.83747
397.411,46.45517,35.6466,-0.03386453,0.83533
399.911,46.6905,35.45211,-0.03922871,0.8332
402.411,46.92606,35.2463,-0.04473625,0.83106
404.911,47.16151,35.0209,-0.04843286,0.82892
407.411,47.39741,34.76547,-0.0516482,0.82678
409.911,47.63357,34.65528,-0.05452978,0.82464
412.411,47.86996,34.427,-0.05495962,0.82251
414.911,48.10652,34.2489,-0.05704798,0.82037
417.411,48.3432,34.11111,-0.05788984,0.81823
419.911,48.57969,33.882,-0.06006579,0.81609
422.411,48.81619,33.74001,-0.05971492,0.81395
424.911,49.05281,33.52454,-0.0566619,0.81181
427.411,49.29031,33.39598,-0.05109393,0.80968
429.911,49.52791,33.19279,-0.04989837,0.80754
432.411,49.7659,33.0347,-0.04525624,0.8054
434.911,50.0034,32.82906,-0.04427797,0.80327
437.411,50.241,32.64363,-0.04543598,0.80114
439.911,50.47919,32.4985,-0.03565746,0.79901
442.411,50.7185,32.31835,-0.03320295,0.79688
444.911,50.95732,32.2126,-0.0296582,0.79475
447.411,51.19592,32.0597,-0.02592397,0.79262
449.911,51.43502,31.9486,-0.02266217,0.7905
452.411,51.67302,31.80023,-0.02008109,0.78838
454.911,51.91214,31.65904,-0.01646776,0.78626
457.411,52.1513,31.5589,-0.01682306,0.78414
459.911,52.39161,31.41933,-0.01628473,0.78203
462.411,52.6318,31.2518,-0.01334399,0.77992
464.911,52.8725,31.1198,-0.01196009,0.77781
467.411,53.11306,31.0158,-0.01384552,0.7757
469.911,53.35369,30.881,-0.0131682,0.7736
472.411,53.5944,30.7829,-0.01377631,0.7715
474.911,53.83549,30.68955,-0.01362481,0.76941
477.411,54.07662,30.6179,-0.01717902,0.76732
479.911,54.31756,30.5164,-0.02118142,0.76523
482.411,54.5589,30.34334,-0.02692592,0.76314
484.911,54.801,30.2393,-0.03107834,0.76106
487.411,55.04237,30.16051,-0.03556901,0.75899
489.911,55.28286,30.0918,-0.03750078,0.75692
492.411,55.52495,29.9795,-0.03980968,0.75485
494.911,55.7681,29.88348,-0.0424016,0.75278
497.411,56.0107,29.7261,-0.04626724,0.75072
499.911,56.2533,29.6944,-0.05045098,0.74867
502.411,56.4955,29.6067,-0.05402388,0.74662
504.911,56.7373,29.5053,-0.05960802,0.74458
507.411,56.98056,29.4526,-0.06373985,0.74254
509.911,57.22288,29.3248,-0.06902966,0.7405
512.411,57.4653,29.2007,-0.07504707,0.73847
514.911,57.70859,29.16982,-0.07930903,0.73645
517.411,57.9523,29.07553,-0.08533715,0.73443
519.911,58.1962,29.0171,-0.08884487,0.73242
522.411,58.44073,28.9114,-0.09448877,0.73041
524.911,58.6849,28.8179,-0.09808251,0.72841
527.411,58.92931,28.7963,-0.10308,0.72641
529.911,59.17377,28.70948,-0.10549,0.72442
532.411,59.4182,28.59423,-0.1112,0.72243
534.911,59.66346,28.5489,-0.11854,0.72046
537.411,59.90811,28.4818,-0.12231,0.71848
539.911,60.1532,28.41565,-0.12901,0.71652
542.411,60.39915,28.3066,-0.13523,0.71456
544.911,60.6447,28.2408,-0.14081,0.71261
547.411,60.8905,28.216,-0.14817,0.71066
549.911,61.13579,28.186,-0.15808,0.70872
552.411,61.3814,28.09017,-0.16817,0.70679
554.911,61.62679,28.0129,-0.17655,0.70486
557.411,61.873,27.942,-0.18499,0.70294
559.911,62.11841,27.8726,-0.19505,0.70103
562.411,62.3651,27.8595,-0.20081,0.69912
564.911,62.61119,27.78825,-0.20999,0.69722
567.411,62.85861,27.6905,-0.21698,0.69533
569.911,63.10641,27.6375,-0.22459,0.69344
572.411,63.35346,27.6036,-0.22666,0.69157
574.911,63.6015,27.5917,-0.23214,0.6897
577.411,63.8484,27.525,-0.24197,0.68783
579.911,64.0959,27.45925,-0.24915,0.68598
582.411,64.3433,27.42645,-0.26009,0.68413
584.911,64.58926,27.346,-0.26432,0.68229
587.411,64.83761,27.3369,-0.26978,0.68046
589.911,65.08551,27.28377,-0.2764,0.67863
592.411,65.33296,27.2515,-0.27749,0.67682
594.911,65.5802,27.152,-0.28736,0.67501
597.411,65.8279,27.1232,-0.28902,0.67321
599.911,66.07528,27.06175,-0.29344,0.67141
602.411,66.32325,27.02325,-0.29551,0.66963
604.911,66.57095,27.02325,-0.29503,0.66785
607.411,66.8189,26.9575,-0.29556,0.66608
609.911,67.06688,26.923,-0.29577,0.66432
612.411,67.31511,26.85813,-0.29442,0.66257
614.911,67.5639,26.82848,-0.29676,0.66082
617.411,67.81311,26.8056,-0.29639,0.65908
619.911,68.063,26.74046,-0.29386,0.65735
622.411,68.3126,26.78455,-0.28469,0.65563
624.911,68.56306,26.65065,-0.27688,0.65392
627.411,68.81283,26.59935,-0.27064,0.65222
629.911,69.06275,26.64445,-0.26975,0.65052
632.411,69.31306,26.54938,-0.27134,0.64884
634.911,69.56279,26.51655,-0.27959,0.64716
637.411,69.81245,26.51537,-0.27274,0.64549
639.211,69.99296,26.49383,-0.27287,0.64429