Folder: fsri_materials_database/01_Data/MDF/STA/N2/10K_min

Note: 01_Data/README.md
# Materials and Products Database
## 01_Data

Raw data generated from each apparatus are included here in plain-text format. The data is organized first by material, next by the short name of test apparatus used, and where applicable additional filtering by test settings.

### material.json

Each material directory contains a json file of the same name as the material. This file links the data stored in the repository as well as data and graphs produced by the accompanying scripts (__02_Scripts__) to the respective landing page for the material on the front-end website.

File: MDF_STA_N2_10KData_211008_R1.csv
##Temp./Â°C,Time/min,Mass(subtr.2)/%,DSC(subtr.2)/(mW/mg),Sensit./(uV/mW)
49.951,10.01,100.074,0.0174493,1.03584
52.451,12.34702,100.113,0.07529577,1.0357
54.951,13.03262,100.11,0.10726,1.03555
57.451,13.5763,100.08,0.12593,1.03536
59.951,14.0512,100.107,0.14594,1.03515
62.451,14.48313,100.066,0.16083,1.03491
64.951,14.8833,100.081,0.17476,1.03464
67.451,15.25939,100.055,0.18872,1.03435
69.951,15.6159,100.011,0.20226,1.03403
72.451,15.9559,99.98444,0.21294,1.03368
74.951,16.2839,99.95347,0.22469,1.03331
77.451,16.60047,99.9538,0.23467,1.03292
79.951,16.90794,99.95062,0.24099,1.03249
82.451,17.20789,99.91575,0.24698,1.03205
84.951,17.49909,99.91334,0.25362,1.03157
87.451,17.78271,99.85516,0.25569,1.03107
89.951,18.06158,99.84935,0.25786,1.03055
92.451,18.33462,99.8313,0.25885,1.03
94.951,18.60342,99.81696,0.26014,1.02943
97.451,18.86921,99.8174,0.26147,1.02883
99.951,19.13035,99.78453,0.26383,1.02821
102.451,19.38879,99.75394,0.26537,1.02756
104.951,19.64462,99.7787,0.27096,1.02689
107.451,19.89856,99.7239,0.27269,1.0262
109.951,20.15072,99.74978,0.27363,1.02548
112.451,20.40101,99.72395,0.27464,1.02474
114.951,20.64948,99.70855,0.27632,1.02397
117.451,20.89629,99.72553,0.27633,1.02318
119.951,21.14105,99.69374,0.27678,1.02237
122.451,21.38447,99.72765,0.27793,1.02154
124.951,21.626,99.69403,0.28109,1.02068
127.451,21.86647,99.6935,0.28317,1.0198
129.951,22.10437,99.699,0.28643,1.0189
132.451,22.342,99.69369,0.28974,1.01797
134.951,22.57745,99.69331,0.28993,1.01703
137.451,22.81232,99.69377,0.29408,1.01606
139.951,23.046,99.69207,0.29507,1.01507
142.451,23.27736,99.65813,0.30005,1.01406
144.951,23.50892,99.65809,0.30203,1.01303
147.451,23.73977,99.65808,0.30436,1.01198
149.951,23.96931,99.69066,0.30753,1.01091
152.451,24.19865,99.6584,0.30998,1.00981
154.951,24.42708,99.66309,0.31221,1.0087
157.451,24.65579,99.62521,0.31351,1.00756
159.951,24.8841,99.62505,0.31708,1.00641
162.451,25.11158,99.6254,0.31988,1.00523
164.951,25.3391,99.60245,0.32525,1.00404
167.451,25.56648,99.5922,0.32646,1.00283
169.951,25.794,99.59252,0.32701,1.00159
172.451,26.02064,99.55967,0.33135,1.00034
174.951,26.2473,99.55985,0.33312,0.99907
177.451,26.4735,99.5596,0.33713,0.99778
179.951,26.699,99.5596,0.33961,0.99647
182.451,26.9246,99.49388,0.34213,0.99515
184.951,27.14888,99.494,0.34576,0.9938
187.451,27.373,99.48589,0.35088,0.99244
189.951,27.5973,99.48697,0.35479,0.99106
192.451,27.8206,99.4521,0.35872,0.98967
194.951,28.0445,99.40374,0.36126,0.98825
197.451,28.2679,99.3385,0.3693,0.98682
199.951,28.4915,99.32132,0.37187,0.98537
202.451,28.7149,99.26409,0.37783,0.98391
204.951,28.93788,99.20699,0.37978,0.98243
207.451,29.1615,99.20698,0.38623,0.98093
209.951,29.38472,99.1306,0.38931,0.97942
212.451,29.60809,99.101,0.39227,0.97789
214.951,29.83199,98.99974,0.39376,0.97634
217.451,30.0552,98.90205,0.39516,0.97478
219.951,30.2789,98.83739,0.39667,0.97321
222.451,30.50262,98.70604,0.39958,0.97162
224.951,30.72617,98.64039,0.40117,0.97001
227.451,30.9488,98.54213,0.40157,0.96839
229.951,31.1723,98.44204,0.40308,0.96676
232.451,31.39733,98.30526,0.40604,0.96511
234.951,31.6211,98.14001,0.40637,0.96345
237.451,31.84443,97.96136,0.40665,0.96177
239.951,32.06879,97.8273,0.40749,0.96008
242.451,32.2933,97.6464,0.40665,0.95838
244.951,32.51745,97.44641,0.40637,0.95667
247.451,32.74219,97.21803,0.40554,0.95494
249.951,32.96642,96.9388,0.40469,0.9532
252.451,33.19075,96.68382,0.40328,0.95144
254.951,33.41531,96.43794,0.4001,0.94968
257.451,33.63967,96.12518,0.40022,0.9479
259.951,33.86475,95.76846,0.39451,0.94611
262.451,34.08927,95.40509,0.39064,0.94431
264.951,34.31378,94.96919,0.38724,0.94249
267.451,34.53848,94.56656,0.37779,0.94067
269.951,34.7624,94.06496,0.37235,0.93883
272.451,34.98772,93.53541,0.36098,0.93699
274.951,35.2121,92.91368,0.35041,0.93513
277.451,35.43784,92.37155,0.34004,0.93326
279.951,35.66346,91.66085,0.32869,0.93138
282.451,35.88862,90.97577,0.31979,0.9295
284.951,36.1143,90.26058,0.3085,0.9276
287.451,36.34044,89.49688,0.29868,0.92569
289.951,36.5668,88.68754,0.29034,0.92378
292.451,36.79299,87.90595,0.28375,0.92185
294.951,37.01947,87.08343,0.27901,0.91992
297.451,37.24645,86.18991,0.27762,0.91797
299.951,37.4737,85.32128,0.27751,0.91602
302.451,37.70101,84.34796,0.27796,0.91406
304.951,37.9288,83.44659,0.28354,0.91209
307.451,38.15654,82.51446,0.2913,0.91011
309.951,38.38438,81.52724,0.29916,0.90813
312.451,38.61223,80.46449,0.31205,0.90614
314.951,38.84046,79.4058,0.32491,0.90414
317.451,39.06883,78.35776,0.33841,0.90213
319.951,39.29744,77.2591,0.35435,0.90012
322.451,39.52616,76.0831,0.36929,0.8981
324.951,39.75571,74.8704,0.38558,0.89607
327.451,39.98534,73.61968,0.40424,0.89404
329.951,40.21584,72.2672,0.42235,0.892
332.451,40.4461,70.84089,0.4408,0.88996
334.951,40.6764,69.37744,0.46122,0.88791
337.451,40.90623,67.8139,0.47908,0.88585
339.951,41.13637,66.15739,0.50205,0.88379
342.451,41.36646,64.46648,0.52438,0.88172
344.951,41.5966,62.65935,0.54446,0.87965
347.451,41.8273,60.75705,0.56597,0.87757
349.951,42.05812,58.7122,0.59068,0.87549
352.451,42.28975,56.50532,0.60862,0.8734
354.951,42.52133,54.2507,0.62588,0.87131
357.451,42.7537,51.86888,0.63716,0.86922
359.951,42.98519,49.50101,0.63621,0.86712
362.451,43.21812,47.11569,0.61858,0.86502
364.951,43.45067,44.73788,0.58103,0.86291
367.451,43.68346,42.51654,0.52587,0.8608
369.951,43.91648,40.5055,0.44459,0.85869
372.451,44.15015,38.93302,0.34419,0.85657
374.951,44.38303,37.67365,0.24428,0.85446
377.451,44.61671,36.8687,0.16253,0.85234
379.951,44.85048,36.30956,0.10929,0.85021
382.451,45.08416,35.94527,0.0814345,0.84809
384.951,45.31788,35.67827,0.06179227,0.84596
387.451,45.55175,35.3376,0.04966585,0.84383
389.951,45.786,35.12202,0.04013446,0.8417
392.451,46.0209,34.9082,0.03105377,0.83957
394.951,46.2552,34.6856,0.02416372,0.83743
397.451,46.49053,34.42881,0.01591241,0.8353
399.951,46.72593,34.21416,0.01057246,0.83316
402.451,46.96164,34.0225,0.001546966,0.83103
404.951,47.19732,33.78884,-0.00384165,0.82889
407.451,47.43327,33.59848,-0.004376375,0.82675
409.951,47.6714,33.43217,-0.009252053,0.82461
412.451,47.9092,33.1654,-0.01040576,0.82247
414.951,48.14697,32.98765,-0.01262996,0.82033
417.451,48.3844,32.8009,-0.0130918,0.81819
419.951,48.62117,32.5514,-0.01476411,0.81605
422.451,48.85889,32.45179,-0.01684142,0.81392
424.951,49.096,32.2702,-0.0172063,0.81178
427.451,49.33336,32.06027,-0.01463617,0.80964
429.951,49.57046,31.85507,-0.009588615,0.80751
432.451,49.80885,31.68477,-0.00787438,0.80537
434.951,50.0471,31.5179,-0.001266049,0.80324
437.451,50.2862,31.3572,0.001401611,0.8011
439.951,50.52533,31.1973,0.00712519,0.79897
442.451,50.76372,31.02712,0.009639545,0.79684
444.951,51.00245,30.88937,0.01324891,0.79472
447.451,51.24109,30.7798,0.0181314,0.79259
449.951,51.48033,30.61595,0.02214788,0.79047
452.451,51.72,30.4738,0.02196183,0.78835
454.951,51.95952,30.32902,0.02700868,0.78623
457.451,52.20069,30.18518,0.0312975,0.78411
459.951,52.4417,30.07654,0.03679442,0.782
462.451,52.6827,29.9101,0.03822279,0.77988
464.951,52.9247,29.77908,0.04213382,0.77778
467.451,53.16449,29.6686,0.04329904,0.77567
469.951,53.40348,29.59195,0.04362483,0.77357
472.451,53.6429,29.4262,0.0415731,0.77147
474.951,53.8838,29.34508,0.04163607,0.76937
477.451,54.12551,29.2195,0.04262049,0.76728
479.951,54.3674,29.11385,0.04598419,0.7652
482.451,54.6113,28.97477,0.0486397,0.76311
484.951,54.8556,28.88577,0.05364243,0.76103
487.451,55.0981,28.7713,0.05085508,0.75895
489.951,55.3387,28.67255,0.04874547,0.75688
492.451,55.5785,28.54559,0.04843791,0.75481
494.951,55.81989,28.50198,0.04827755,0.75275
497.451,56.0618,28.4115,0.0467384,0.75069
499.951,56.30525,28.2799,0.04581873,0.74864
502.451,56.54981,28.2145,0.04688875,0.74659
504.951,56.79308,28.11575,0.0480385,0.74454
507.451,57.03703,28.00943,0.0475613,0.7425
509.951,57.2808,27.9445,0.04573374,0.74047
512.451,57.52551,27.80973,0.04275729,0.73844
514.951,57.7691,27.7112,0.03804258,0.73642
517.451,58.01234,27.68696,0.03238827,0.7344
519.951,58.25521,27.60973,0.02931093,0.73238
522.451,58.49905,27.4463,0.02805351,0.73038
524.951,58.74321,27.41357,0.03196515,0.72837
527.451,58.9871,27.3741,0.02811992,0.72638
529.951,59.2315,27.2818,0.02621891,0.72439
532.451,59.47671,27.14951,0.02365116,0.7224
534.951,59.7213,27.12303,0.02572718,0.72042
537.451,59.96598,27.0436,0.02054024,0.71845
539.951,60.2109,26.98449,0.02188717,0.71649
542.451,60.45626,26.95066,0.02075986,0.71453
544.951,60.7014,26.8547,0.01616662,0.71257
547.451,60.94716,26.7635,0.01589586,0.71063
549.951,61.1919,26.72209,0.01229472,0.70869
552.451,61.43883,26.6583,0.01220817,0.70675
554.951,61.68538,26.58646,0.009031328,0.70483
557.451,61.93164,26.51094,0.007941657,0.70291
559.951,62.1771,26.46032,0.004021943,0.701
562.451,62.42411,26.38604,0.005447985,0.69909
564.951,62.6709,26.32145,0.002158799,0.69719
567.451,62.91806,26.2806,-0.0007251038,0.6953
569.951,63.1646,26.19264,-0.007474184,0.69341
572.451,63.41169,26.18204,-0.00693932,0.69154
574.951,63.6587,26.12774,-0.00948364,0.68967
577.451,63.9051,26.05994,-0.009636872,0.6878
579.951,64.15172,26.00903,-0.009808959,0.68595
582.451,64.3985,26.00982,-0.00730609,0.6841
584.951,64.6465,25.93277,-0.000760713,0.68226
587.451,64.8942,25.8675,0.004030189,0.68043
589.951,65.1421,25.84389,0.00569952,0.6786
592.451,65.3899,25.76928,0.00675072,0.67679
594.951,65.63745,25.7444,0.005598856,0.67498
597.451,65.88464,25.67943,0.00693919,0.67318
599.951,66.13333,25.6132,0.01059534,0.67138
602.451,66.3832,25.60482,0.008875586,0.6696
604.951,66.63286,25.56635,0.00868265,0.66782
607.451,66.88091,25.5065,0.008275794,0.66605
609.951,67.1288,25.44913,0.01282376,0.66429
612.451,67.377,25.4033,0.01493261,0.66254
614.951,67.62478,25.40015,0.01611941,0.66079
617.451,67.87183,25.33432,0.01778713,0.65906
619.951,68.12168,25.3514,0.02361807,0.65733
622.451,68.37358,25.28501,0.03515804,0.65561
624.951,68.62447,25.28504,0.04038974,0.6539
627.451,68.8736,25.21921,0.04875078,0.65219
629.951,69.12387,25.15375,0.04887872,0.6505
632.451,69.37384,25.1292,0.05364665,0.64881
634.951,69.62384,25.0636,0.05668653,0.64713
637.451,69.87305,25.0716,0.05820889,0.64546
638.651,69.99343,25.07157,0.0616816,0.64466

File: MDF_STA_N2_10KData_211011_R2.csv
##Temp./Â°C,Time/min,Mass(subtr.2)/%,DSC(subtr.2)/(mW/mg),Sensit./(uV/mW)
49.876,10.00917,99.72095,-0.008816467,1.03584
52.376,12.33947,99.64227,0.07000429,1.03571
54.876,13.02493,99.6404,0.11075,1.03555
57.376,13.56848,99.56694,0.13684,1.03537
59.876,14.04375,99.53921,0.16029,1.03515
62.376,14.47608,99.51774,0.17866,1.03492
64.876,14.8766,99.48561,0.1979,1.03465
67.376,15.2514,99.46251,0.21645,1.03436
69.876,15.60684,99.43149,0.23192,1.03404
72.376,15.94714,99.38892,0.24868,1.0337
74.876,16.27431,99.3166,0.2628,1.03333
77.376,16.5904,99.31891,0.27464,1.03293
79.876,16.89498,99.27935,0.28672,1.03251
82.376,17.19312,99.23245,0.29557,1.03206
84.876,17.48653,99.22584,0.30217,1.03159
87.376,17.77082,99.19015,0.30966,1.03109
89.876,18.04952,99.18564,0.31401,1.03057
92.376,18.32253,99.16035,0.31953,1.03002
94.876,18.59161,99.12475,0.32418,1.02944
97.376,18.85681,99.0921,0.32577,1.02885
99.876,19.11777,99.10327,0.33144,1.02823
102.376,19.37643,99.0864,0.33916,1.02758
104.876,19.63285,99.05779,0.34336,1.02691
107.376,19.88693,99.02625,0.34729,1.02622
109.876,20.139,98.99327,0.34786,1.0255
112.376,20.3891,99.02342,0.35108,1.02476
114.876,20.63712,98.99044,0.35454,1.02399
117.376,20.88404,99.02556,0.35744,1.02321
119.876,21.1285,98.97681,0.36045,1.02239
122.376,21.37189,98.9768,0.36458,1.02156
124.876,21.6137,98.964,0.36998,1.02071
127.376,21.85343,98.944,0.37389,1.01983
129.876,22.092,98.94447,0.38041,1.01893
132.376,22.32863,99.05331,0.38352,1.018
134.876,22.56425,98.95915,0.38864,1.01706
137.376,22.79842,98.9263,0.39111,1.01609
139.876,23.0309,98.96141,0.39471,1.0151
142.376,23.26236,98.93141,0.39884,1.01409
144.876,23.49338,98.92705,0.40322,1.01306
147.376,23.72489,98.89556,0.4088,1.01201
149.876,23.95334,98.88016,0.41399,1.01094
152.376,24.18235,98.92404,0.41579,1.00984
154.876,24.41185,98.9827,0.42142,1.00873
157.376,24.63983,98.8948,0.42412,1.0076
159.876,24.86794,98.89849,0.42707,1.00644
162.376,25.09543,98.84823,0.42801,1.00527
164.876,25.32232,98.85634,0.43255,1.00408
167.376,25.54867,98.84289,0.43655,1.00286
169.876,25.77654,98.77422,0.43969,1.00163
172.376,26.0025,98.83997,0.44451,1.00038
174.876,26.22852,98.82369,0.44464,0.99911
177.376,26.45444,98.76089,0.44895,0.99782
179.876,26.67935,98.77456,0.45534,0.99651
182.376,26.90405,98.73284,0.45805,0.99519
184.876,27.12868,98.74718,0.46191,0.99385
187.376,27.3511,98.68405,0.46654,0.99248
189.876,27.57491,98.6761,0.47086,0.99111
192.376,27.7988,98.6686,0.47655,0.98971
194.876,28.02307,98.6228,0.48153,0.9883
197.376,28.24597,98.58583,0.48501,0.98686
199.876,28.47014,98.58915,0.49118,0.98542
202.376,28.6931,98.52246,0.49411,0.98395
204.876,28.9163,98.4899,0.49871,0.98247
207.376,29.1394,98.39152,0.50021,0.98098
209.876,29.36256,98.2906,0.50427,0.97946
212.376,29.5856,98.30917,0.5106,0.97793
214.876,29.8087,98.20826,0.51088,0.97639
217.376,30.0324,98.09945,0.51503,0.97483
219.876,30.2555,98.0073,0.51586,0.97326
222.376,30.4789,97.9374,0.51814,0.97167
224.876,30.70219,97.83131,0.51783,0.97006
227.376,30.9261,97.73516,0.51865,0.96844
229.876,31.1492,97.61752,0.5213,0.96681
232.376,31.3722,97.48365,0.52137,0.96516
234.876,31.59563,97.31289,0.52221,0.9635
237.376,31.8192,97.17706,0.52202,0.96182
239.876,32.04283,96.99844,0.52345,0.96013
242.376,32.26643,96.85551,0.52055,0.95843
244.876,32.49057,96.64945,0.52027,0.95672
247.376,32.7146,96.38006,0.51915,0.95499
249.876,32.93906,96.20874,0.51894,0.95325
252.376,33.16344,95.91335,0.51583,0.95149
254.876,33.3876,95.63369,0.51241,0.94973
257.376,33.61144,95.37536,0.50953,0.94795
259.876,33.83603,95.00577,0.50553,0.94616
262.376,34.06115,94.65352,0.50147,0.94436
264.876,34.28457,94.29266,0.49599,0.94255
267.376,34.51011,93.78809,0.48799,0.94072
269.876,34.73518,93.36496,0.4815,0.93889
272.376,34.9602,92.8096,0.47457,0.93704
274.876,35.18567,92.21405,0.46444,0.93518
277.376,35.4114,91.64174,0.45198,0.93332
279.876,35.6366,90.96613,0.43839,0.93144
282.376,35.86182,90.28334,0.43089,0.92955
284.876,36.0875,89.5643,0.41715,0.92766
287.376,36.31349,88.7978,0.40755,0.92575
289.876,36.53928,88.04085,0.40014,0.92383
292.376,36.76577,87.21311,0.39301,0.92191
294.876,36.99184,86.41657,0.38611,0.91997
297.376,37.21862,85.56509,0.38109,0.91803
299.876,37.44582,84.69329,0.37949,0.91608
302.376,37.67263,83.84954,0.38097,0.91412
304.876,37.89947,82.85151,0.38462,0.91215
307.376,38.12702,81.9588,0.3894,0.91017
309.876,38.3546,80.94402,0.39966,0.90819
312.376,38.58207,79.9495,0.41097,0.9062
314.876,38.81008,78.8822,0.42425,0.9042
317.376,39.03889,77.7984,0.4386,0.90219
319.876,39.26717,76.65199,0.45266,0.90018
322.376,39.49595,75.57517,0.46652,0.89816
324.876,39.7249,74.35814,0.48074,0.89613
327.376,39.95433,73.09561,0.49795,0.8941
329.876,40.18329,71.79364,0.51451,0.89206
332.376,40.41219,70.422,0.53276,0.89002
334.876,40.6419,69.04127,0.55058,0.88797
337.376,40.87154,67.51555,0.57282,0.88591
339.876,41.10157,65.87513,0.59264,0.88385
342.376,41.33194,64.18896,0.61428,0.88178
344.876,41.56278,62.4264,0.63896,0.87971
347.376,41.79378,60.44686,0.66429,0.87763
349.876,42.02516,58.43255,0.68618,0.87555
352.376,42.2563,56.3374,0.7057,0.87346
354.876,42.48823,54.0708,0.72318,0.87137
357.376,42.7205,51.70259,0.73057,0.86928
359.876,42.95325,49.35051,0.72658,0.86718
362.376,43.18543,46.89877,0.71277,0.86508
364.876,43.41819,44.54733,0.67636,0.86297
367.376,43.65103,42.35597,0.61907,0.86087
369.876,43.884,40.41762,0.53833,0.85875
372.376,44.1166,38.76417,0.43661,0.85664
374.876,44.34919,37.55255,0.33441,0.85452
377.376,44.58251,36.65676,0.25004,0.8524
379.876,44.81539,36.16077,0.19574,0.85028
382.376,45.04851,35.81496,0.16549,0.84815
384.876,45.28222,35.45971,0.14678,0.84602
387.376,45.51621,35.20778,0.13332,0.8439
389.876,45.75006,34.99807,0.12283,0.84176
392.376,45.98352,34.77487,0.11013,0.83963
394.876,46.21801,34.55466,0.10373,0.8375
397.376,46.4527,34.32096,0.09735915,0.83536
399.876,46.68764,34.06882,0.0905096,0.83323
402.376,46.92263,33.89844,0.08775776,0.83109
404.876,47.15749,33.67671,0.08246877,0.82895
407.376,47.3932,33.52397,0.08008064,0.82681
409.876,47.62859,33.32,0.07798174,0.82467
412.376,47.86493,33.1447,0.07912123,0.82254
414.876,48.10127,32.92887,0.07873992,0.8204
417.376,48.3384,32.67535,0.07976649,0.81826
419.876,48.57515,32.54718,0.07665887,0.81612
422.376,48.8119,32.3273,0.0785963,0.81398
424.876,49.04847,32.17289,0.08269106,0.81184
427.376,49.28533,32.0366,0.08959813,0.80971
429.876,49.52243,31.8226,0.09162475,0.80757
432.376,49.75976,31.666,0.09635842,0.80543
434.876,49.99778,31.58138,0.09884029,0.8033
437.376,50.23558,31.33936,0.10442,0.80117
439.876,50.4741,31.15744,0.11352,0.79904
442.376,50.71264,31.052,0.11765,0.79691
444.876,50.95203,30.91665,0.12103,0.79478
447.376,51.19082,30.76732,0.12821,0.79265
449.876,51.42948,30.66187,0.13288,0.79053
452.376,51.6685,30.43553,0.14014,0.78841
454.876,51.9076,30.30213,0.14472,0.78629
457.376,52.1467,30.20058,0.1456,0.78417
459.876,52.38621,30.08452,0.15069,0.78206
462.376,52.62689,29.92884,0.15839,0.77995
464.876,52.8675,29.80514,0.16309,0.77784
467.376,53.1083,29.6968,0.16609,0.77573
469.876,53.34907,29.59825,0.16697,0.77363
472.376,53.59016,29.48992,0.1707,0.77153
474.876,53.8313,29.33318,0.17411,0.76944
477.376,54.07225,29.25361,0.17419,0.76735
479.876,54.31326,29.1515,0.17803,0.76526
482.376,54.5547,29.07992,0.17738,0.76317
484.876,54.79605,28.93887,0.17674,0.76109
487.376,55.03816,28.8351,0.17877,0.75902
489.876,55.28035,28.7362,0.17978,0.75694
492.376,55.52166,28.63845,0.18239,0.75488
494.876,55.7638,28.53748,0.18144,0.75281
497.376,56.00555,28.42213,0.18518,0.75075
499.876,56.2486,28.3567,0.1881,0.7487
502.376,56.4916,28.2523,0.19177,0.74665
504.876,56.73324,28.17768,0.19408,0.7446
507.376,56.97778,28.0531,0.19654,0.74256
509.876,57.22081,27.9706,0.19481,0.74053
512.376,57.4637,27.9025,0.19369,0.7385
514.876,57.70618,27.7368,0.19518,0.73648
517.376,57.94945,27.7163,0.19405,0.73446
519.876,58.1927,27.64276,0.19707,0.73244
522.376,58.4358,27.54808,0.19756,0.73044
524.876,58.6789,27.5115,0.19929,0.72843
527.376,58.9229,27.42346,0.20099,0.72644
529.876,59.16698,27.3528,0.20669,0.72445
532.376,59.412,27.2965,0.20586,0.72246
534.876,59.65729,27.1859,0.20959,0.72048
537.376,59.9019,27.1145,0.21244,0.71851
539.876,60.14669,27.06515,0.21761,0.71655
542.376,60.3924,26.96051,0.21982,0.71459
544.876,60.6381,26.93425,0.22218,0.71263
547.376,60.88403,26.89896,0.22576,0.71069
549.876,61.1295,26.79477,0.22314,0.70875
552.376,61.37559,26.7578,0.22386,0.70681
554.876,61.6217,26.64175,0.22397,0.70489
557.376,61.8675,26.5354,0.22798,0.70297
559.876,62.1139,26.5324,0.22614,0.70105
562.376,62.3604,26.4608,0.22525,0.69915
564.876,62.60719,26.4283,0.22431,0.69725
567.376,62.854,26.3306,0.22517,0.69536
569.876,63.1004,26.36239,0.22526,0.69347
572.376,63.34689,26.25047,0.22941,0.69159
574.876,63.5932,26.1991,0.23111,0.68972
577.376,63.84007,26.11371,0.23259,0.68786
579.876,64.08713,26.1133,0.23358,0.68601
582.376,64.33381,26.05559,0.23199,0.68416
584.876,64.58099,26.0095,0.23653,0.68232
587.376,64.8284,25.9766,0.23705,0.68048
589.876,65.07554,25.90024,0.24171,0.67866
592.376,65.32311,25.89476,0.25028,0.67684
594.876,65.57205,25.85124,0.24942,0.67503
597.376,65.82091,25.7892,0.25731,0.67323
599.876,66.0697,25.72202,0.26324,0.67144
602.376,66.31811,25.75542,0.26854,0.66965
604.876,66.56621,25.66007,0.27527,0.66787
607.376,66.8143,25.6478,0.2834,0.6661
609.876,67.06251,25.58579,0.2872,0.66434
612.376,67.31063,25.55435,0.29118,0.66259
614.876,67.55938,25.55545,0.2977,0.66084
617.376,67.8081,25.45711,0.30238,0.65911
619.876,68.05721,25.42471,0.31115,0.65738
622.376,68.3066,25.4136,0.32495,0.65566
624.876,68.55609,25.34919,0.33422,0.65395
627.376,68.8052,25.30646,0.34402,0.65224
629.876,69.05498,25.27409,0.34913,0.65055
632.376,69.3049,25.24083,0.35308,0.64886
634.876,69.55419,25.2094,0.34856,0.64718
637.376,69.80471,25.1583,0.36058,0.64551
639.276,69.99508,25.17009,0.36454,0.64425