Folder: fsri_materials_database/01_Data/MDF/STA/N2/30K_min (part 2)

File: MDF_STA_N2_30KData_211012_R3.csv
##Temp./Â°C,Time/min,DSC(subtr.2)/mW,Mass loss(subtr.2)/mg,Sensit./(uV/mW)
49.556,10.01,-0.002171528,-0.01448,1.05401
52.056,11.53946,0.23137,-0.01722534,1.05405
54.556,11.88758,0.39351,-0.01514326,1.05406
57.056,12.1416,0.53169,-0.01812019,1.05404
59.556,12.35404,0.63569,-0.01965709,1.05399
62.056,12.5437,0.72998,-0.01918681,1.05391
64.556,12.7181,0.80892,-0.01849447,1.0538
67.056,12.8821,0.88518,-0.01872377,1.05365
69.556,13.0378,0.95011,-0.02251943,1.05348
72.056,13.1881,1.0109,-0.02031939,1.05328
74.556,13.33281,1.08302,-0.02077856,1.05305
77.056,13.47219,1.14795,-0.02327386,1.05279
79.556,13.6073,1.20968,-0.02348811,1.0525
82.056,13.7389,1.27191,-0.02322762,1.05218
84.556,13.86589,1.32357,-0.02516471,1.05183
87.056,13.98908,1.37061,-0.02544896,1.05146
89.556,14.10873,1.4238,-0.02553811,1.05105
92.056,14.2252,1.46233,-0.02582228,1.05062
94.556,14.33864,1.50046,-0.02963913,1.05016
97.056,14.44905,1.52562,-0.02897319,1.04967
99.556,14.55705,1.54751,-0.02906036,1.04915
102.056,14.6627,1.55829,-0.02906961,1.0486
104.556,14.7665,1.57363,-0.03109289,1.04803
107.056,14.8686,1.57633,-0.03149278,1.04743
109.556,14.96848,1.59197,-0.03180896,1.0468
112.056,15.067,1.61554,-0.03157896,1.04615
114.556,15.16425,1.63017,-0.03454344,1.04547
117.056,15.25983,1.64073,-0.03169884,1.04476
119.556,15.35426,1.6531,-0.03202082,1.04403
122.056,15.4474,1.65363,-0.03351211,1.04327
124.556,15.5394,1.65329,-0.03402173,1.04248
127.056,15.6298,1.65219,-0.03486977,1.04167
129.556,15.71943,1.66261,-0.03531521,1.04084
132.056,15.8078,1.66425,-0.03562399,1.03997
134.556,15.8954,1.66808,-0.03558475,1.03909
137.056,15.98175,1.67965,-0.03588311,1.03817
139.556,16.0673,1.68547,-0.03577414,1.03724
142.056,16.15212,1.69299,-0.03513466,1.03627
144.556,16.23593,1.72192,-0.03733228,1.03529
147.056,16.31908,1.73186,-0.03575965,1.03428
149.556,16.40155,1.75213,-0.03564776,1.03324
152.056,16.48346,1.76713,-0.0370471,1.03218
154.556,16.56466,1.78368,-0.03566132,1.0311
157.056,16.64507,1.80606,-0.03573408,1.03
159.556,16.72532,1.82794,-0.03693661,1.02887
162.056,16.80481,1.84902,-0.03828694,1.02772
164.556,16.88406,1.8786,-0.03679058,1.02655
167.056,16.96265,1.90875,-0.03675608,1.02535
169.556,17.04035,1.91973,-0.03592479,1.02413
172.056,17.1181,1.93739,-0.03905829,1.02289
174.556,17.19535,1.97671,-0.03772782,1.02163
177.056,17.27209,1.99268,-0.03716149,1.02035
179.556,17.34802,2.02904,-0.03673373,1.01904
182.056,17.4238,2.06096,-0.03844118,1.01772
184.556,17.499,2.08237,-0.03955419,1.01637
187.056,17.57375,2.10683,-0.0394743,1.01501
189.556,17.64828,2.13807,-0.04046931,1.01362
192.056,17.7224,2.16397,-0.04083787,1.01221
194.556,17.79606,2.20072,-0.04082911,1.01078
197.056,17.8694,2.24466,-0.04076511,1.00934
199.556,17.94246,2.29049,-0.04212343,1.00787
202.056,18.0152,2.32235,-0.04343046,1.00638
204.556,18.08773,2.36746,-0.04343,1.00488
207.056,18.16018,2.39926,-0.04377655,1.00336
209.556,18.23216,2.43411,-0.04786575,1.00182
212.056,18.30385,2.48033,-0.04632732,1.00026
214.556,18.3754,2.51377,-0.04907563,0.99868
217.056,18.44678,2.55912,-0.04969729,0.99708
219.556,18.51815,2.58844,-0.05162022,0.99547
222.056,18.58915,2.62699,-0.05396937,0.99384
224.556,18.65992,2.65669,-0.05395957,0.99219
227.056,18.73047,2.68203,-0.05717115,0.99053
229.556,18.80101,2.70955,-0.05975403,0.98885
232.056,18.87118,2.73585,-0.06274373,0.98715
234.556,18.94136,2.74816,-0.06465283,0.98544
237.056,19.01126,2.76746,-0.06941587,0.98371
239.556,19.08101,2.77579,-0.07195252,0.98196
242.056,19.15072,2.79144,-0.07631551,0.9802
244.556,19.22041,2.78292,-0.08051104,0.97843
247.056,19.28979,2.78177,-0.0857477,0.97664
249.556,19.3589,2.77742,-0.08878683,0.97483
252.056,19.42812,2.78275,-0.09601625,0.97301
254.556,19.49708,2.76415,-0.10116,0.97118
257.056,19.56596,2.74067,-0.1066,0.96933
259.556,19.63481,2.72444,-0.11327,0.96747
262.056,19.70349,2.7061,-0.12247,0.9656
264.556,19.77211,2.67563,-0.13151,0.96371
267.056,19.8407,2.64035,-0.13527,0.96181
269.556,19.90919,2.60883,-0.14598,0.9599
272.056,19.97768,2.56815,-0.15617,0.95797
274.556,20.04597,2.51133,-0.16842,0.95603
277.056,20.1143,2.45259,-0.17951,0.95408
279.556,20.1825,2.37236,-0.19222,0.95212
282.056,20.25072,2.28722,-0.20397,0.95015
284.556,20.31883,2.18687,-0.22018,0.94817
287.056,20.38683,2.06591,-0.23607,0.94617
289.556,20.45506,1.95451,-0.25733,0.94417
292.056,20.52313,1.81463,-0.27675,0.94215
294.556,20.59102,1.6446,-0.2955,0.94012
297.056,20.65894,1.50963,-0.32024,0.93809
299.556,20.7269,1.34563,-0.34462,0.93604
302.056,20.7947,1.18665,-0.36868,0.93399
304.556,20.86255,1.05063,-0.39278,0.93192
307.056,20.93037,0.91954,-0.42277,0.92985
309.556,20.99822,0.81017,-0.4509,0.92777
312.056,21.06609,0.69679,-0.47795,0.92568
314.556,21.13381,0.62547,-0.51017,0.92358
317.056,21.20176,0.55648,-0.53989,0.92147
319.556,21.26963,0.51417,-0.57282,0.91935
322.056,21.3374,0.49676,-0.60787,0.91723
324.556,21.40535,0.48203,-0.64141,0.9151
327.056,21.47335,0.49664,-0.67666,0.91296
329.556,21.54133,0.5468,-0.71018,0.91082
332.056,21.60942,0.60213,-0.75102,0.90867
334.556,21.67749,0.68692,-0.78636,0.90651
337.056,21.74546,0.77591,-0.82561,0.90435
339.556,21.81385,0.89428,-0.86948,0.90218
342.056,21.88216,1.01435,-0.91089,0.9
344.556,21.95045,1.14812,-0.95334,0.89782
347.056,22.0188,1.2794,-0.9973,0.89563
349.556,22.08717,1.43133,-1.04712,0.89344
352.056,22.15576,1.58608,-1.09393,0.89125
354.556,22.2243,1.73666,-1.14318,0.88904
357.056,22.2928,1.9164,-1.19895,0.88684
359.556,22.36158,2.09097,-1.25298,0.88463
362.056,22.43042,2.28417,-1.31209,0.88242
364.556,22.49921,2.48995,-1.37504,0.8802
367.056,22.56811,2.68823,-1.43715,0.87798
369.556,22.63694,2.91595,-1.50732,0.87575
372.056,22.70607,3.13452,-1.57972,0.87353
374.556,22.7751,3.32649,-1.6582,0.8713
377.056,22.84434,3.4876,-1.73947,0.86906
379.556,22.9136,3.60968,-1.81823,0.86683
382.056,22.98315,3.66129,-1.90541,0.86459
384.556,23.05264,3.61084,-1.99493,0.86235
387.056,23.1222,3.42268,-2.08061,0.86011
389.556,23.19214,3.08051,-2.16203,0.85787
392.056,23.2622,2.58147,-2.24395,0.85563
394.556,23.33236,1.896,-2.31823,0.85338
397.056,23.40266,1.07382,-2.37513,0.85113
399.556,23.4731,0.24786,-2.42151,0.84889
402.056,23.54385,-0.46398,-2.45567,0.84664
404.556,23.61444,-1.00461,-2.47778,0.84439
407.056,23.68522,-1.3864,-2.49249,0.84214
409.556,23.75606,-1.65717,-2.50465,0.83989
412.056,23.82686,-1.84014,-2.51491,0.83765
414.556,23.89764,-1.99672,-2.52384,0.8354
417.056,23.96861,-2.10195,-2.53314,0.83315
419.556,24.03964,-2.21603,-2.53985,0.8309
422.056,24.11071,-2.30257,-2.54788,0.82866
424.556,24.1819,-2.38635,-2.55706,0.82641
427.056,24.25315,-2.45344,-2.5623,0.82417
429.556,24.32456,-2.52192,-2.57301,0.82193
432.056,24.39624,-2.57117,-2.57922,0.81969
434.556,24.46795,-2.62079,-2.58614,0.81745
437.056,24.53974,-2.66628,-2.59174,0.81521
439.556,24.6115,-2.68765,-2.60288,0.81298
442.056,24.6832,-2.70599,-2.6066,0.81075
444.556,24.75551,-2.71208,-2.6154,0.80852
447.056,24.82769,-2.72542,-2.62388,0.80629
449.556,24.89979,-2.71271,-2.63103,0.80407
452.056,24.97222,-2.70665,-2.63629,0.80185
454.556,25.0447,-2.69347,-2.64218,0.79963
457.056,25.11734,-2.667,-2.64777,0.79742
459.556,25.1902,-2.64311,-2.6542,0.79521
462.056,25.26295,-2.61233,-2.6607,0.793
464.556,25.33592,-2.58303,-2.66546,0.7908
467.056,25.40896,-2.56262,-2.67142,0.7886
469.556,25.48206,-2.54139,-2.67673,0.78641
472.056,25.5554,-2.50498,-2.68345,0.78422
474.556,25.6289,-2.48129,-2.68753,0.78203
477.056,25.70232,-2.45994,-2.69285,0.77985
479.556,25.77587,-2.4395,-2.69641,0.77768
482.056,25.8496,-2.41516,-2.70427,0.77551
484.556,25.9234,-2.40756,-2.70761,0.77334
487.056,25.9973,-2.39169,-2.71129,0.77118
489.556,26.0713,-2.37849,-2.71642,0.76902
492.056,26.14524,-2.36486,-2.72188,0.76687
494.556,26.21947,-2.37353,-2.72603,0.76473
497.056,26.29375,-2.3738,-2.72771,0.76259
499.556,26.36808,-2.365,-2.73438,0.76046
502.056,26.4426,-2.37579,-2.73645,0.75833
504.556,26.5169,-2.38528,-2.73983,0.75621
507.056,26.59188,-2.39317,-2.74585,0.7541
509.556,26.66657,-2.39716,-2.74919,0.75199
512.056,26.7414,-2.40752,-2.755,0.74989
514.556,26.81663,-2.41719,-2.75552,0.74779
517.056,26.8918,-2.42775,-2.76088,0.7457
519.556,26.96708,-2.43522,-2.76518,0.74362
522.056,27.04245,-2.44693,-2.76803,0.74155
524.556,27.11771,-2.4738,-2.77072,0.73948
527.056,27.19319,-2.48986,-2.77592,0.73742
529.556,27.2689,-2.51155,-2.77954,0.73537
532.056,27.34463,-2.54377,-2.78074,0.73332
534.556,27.42047,-2.56984,-2.78504,0.73128
537.056,27.4963,-2.57534,-2.78864,0.72925
539.556,27.5722,-2.60457,-2.79197,0.72723
542.056,27.64838,-2.62676,-2.79347,0.72522
544.556,27.72435,-2.65961,-2.79727,0.72321
547.056,27.80081,-2.67609,-2.8007,0.72121
549.556,27.8769,-2.70186,-2.80207,0.71922
552.056,27.95337,-2.72085,-2.80561,0.71724
554.556,28.02986,-2.74759,-2.80806,0.71526
557.056,28.1064,-2.78359,-2.81236,0.7133
559.556,28.1831,-2.8207,-2.81552,0.71134
562.056,28.2599,-2.84461,-2.81662,0.70939
564.556,28.33656,-2.88493,-2.81969,0.70745
567.056,28.4135,-2.90862,-2.8225,0.70552
569.556,28.4904,-2.93102,-2.82539,0.70359
572.056,28.56745,-2.97741,-2.828,0.70168
574.556,28.64442,-3.00027,-2.82827,0.69977
577.056,28.7218,-3.03801,-2.83111,0.69788
579.556,28.79904,-3.06325,-2.83405,0.69599
582.056,28.87635,-3.11186,-2.83674,0.69411
584.556,28.95392,-3.13499,-2.83888,0.69224
587.056,29.0315,-3.16375,-2.84011,0.69038
589.556,29.1091,-3.19826,-2.84445,0.68853
592.056,29.18668,-3.23698,-2.84444,0.68669
594.556,29.26432,-3.259,-2.84746,0.68485
597.056,29.3422,-3.31277,-2.84853,0.68303
599.556,29.42013,-3.34081,-2.85173,0.68122
602.056,29.49829,-3.38519,-2.85328,0.67941
604.556,29.5764,-3.39768,-2.85473,0.67762
607.056,29.6547,-3.42259,-2.85698,0.67583
609.556,29.7329,-3.45689,-2.85884,0.67406
612.056,29.81128,-3.48745,-2.86016,0.67229
614.556,29.8898,-3.49978,-2.86191,0.67054
617.056,29.9682,-3.54098,-2.86488,0.66879
618.056,29.9998,-3.5436,-2.86488,0.66809