Folder: fsri_materials_database/01_Data/MDF/STA/N2/30K_min

Note: 01_Data/README.md
# Materials and Products Database
## 01_Data

Raw data generated from each apparatus are included here in plain-text format. The data is organized first by material, next by the short name of test apparatus used, and where applicable additional filtering by test settings.

### material.json

Each material directory contains a json file of the same name as the material. This file links the data stored in the repository as well as data and graphs produced by the accompanying scripts (__02_Scripts__) to the respective landing page for the material on the front-end website.

File: MDF_STA_N2_30KData_211012_R1.csv
##Temp./Â°C,Time/min,DSC(subtr.2)/mW,Mass loss(subtr.2)/mg,Sensit./(uV/mW)
49.528,10.01,0.0419829,-0.01821,1.05401
52.028,11.5385,0.41132,-0.02073674,1.05405
54.528,11.88664,0.64983,-0.02058582,1.05406
57.028,12.1403,0.85364,-0.02061749,1.05404
59.528,12.35402,1.00217,-0.02201314,1.05399
62.028,12.54348,1.1413,-0.02310712,1.05391
64.528,12.71745,1.27098,-0.0236752,1.0538
67.028,12.88129,1.37438,-0.0231314,1.05365
69.528,13.03783,1.4671,-0.02257146,1.05348
72.028,13.1874,1.57306,-0.02457273,1.05328
74.528,13.33196,1.66819,-0.02433774,1.05305
77.028,13.4714,1.75143,-0.02455442,1.05279
79.528,13.6065,1.83227,-0.02486643,1.0525
82.028,13.73736,1.92164,-0.02726909,1.05218
84.528,13.86478,1.99794,-0.02708403,1.05184
87.028,13.9879,2.0673,-0.03034225,1.05146
89.528,14.1076,2.13044,-0.02999587,1.05106
92.028,14.2242,2.1943,-0.03214087,1.05062
94.528,14.3376,2.25859,-0.03072526,1.05016
97.028,14.4482,2.30679,-0.03209726,1.04967
99.528,14.55605,2.36492,-0.03305003,1.04916
102.028,14.6618,2.39348,-0.03313128,1.04861
104.528,14.7654,2.41776,-0.03456227,1.04804
107.028,14.86714,2.45619,-0.03363015,1.04744
109.528,14.9672,2.48366,-0.03521105,1.04681
112.028,15.0656,2.53992,-0.03627404,1.04616
114.528,15.16291,2.57159,-0.03457992,1.04548
117.028,15.25844,2.60319,-0.03707998,1.04477
119.528,15.3528,2.61937,-0.03721382,1.04404
122.028,15.44585,2.64192,-0.03738586,1.04328
124.528,15.5375,2.66561,-0.03652145,1.04249
127.028,15.6283,2.6879,-0.03747849,1.04168
129.528,15.7179,2.69897,-0.03736811,1.04084
132.028,15.806,2.71907,-0.03970854,1.03998
134.528,15.8934,2.74216,-0.04060785,1.0391
137.028,15.98011,2.7573,-0.0392695,1.03818
139.528,16.0657,2.77972,-0.03923974,1.03725
142.028,16.1505,2.80961,-0.03949229,1.03628
144.528,16.23372,2.83332,-0.04199968,1.0353
147.028,16.3167,2.86486,-0.04138334,1.03429
149.528,16.39922,2.89024,-0.03914899,1.03325
152.028,16.48103,2.92454,-0.03941604,1.0322
154.528,16.56213,2.95082,-0.04059012,1.03112
157.028,16.64317,2.97637,-0.0421755,1.03001
159.528,16.72312,3.01433,-0.04213904,1.02888
162.028,16.8028,3.04783,-0.04179081,1.02773
164.528,16.88168,3.07962,-0.04179308,1.02656
167.028,16.96027,3.1148,-0.04309483,1.02536
169.528,17.03833,3.1396,-0.04080627,1.02415
172.028,17.11584,3.17987,-0.0421736,1.02291
174.528,17.19304,3.2075,-0.04212056,1.02165
177.028,17.2697,3.24595,-0.0421199,1.02036
179.528,17.34569,3.28525,-0.04279537,1.01906
182.028,17.42152,3.30784,-0.0434325,1.01773
184.528,17.49661,3.3534,-0.04342328,1.01639
187.028,17.57144,3.39358,-0.04364919,1.01502
189.528,17.64578,3.43039,-0.0446499,1.01363
192.028,17.71969,3.45929,-0.04594153,1.01223
194.528,17.79336,3.51572,-0.04596001,1.0108
197.028,17.86671,3.55682,-0.04547385,1.00935
199.528,17.9398,3.60009,-0.04726614,1.00789
202.028,18.01237,3.64941,-0.04858257,1.0064
204.528,18.08492,3.70785,-0.04853193,1.0049
207.028,18.15716,3.74976,-0.04859959,1.00337
209.528,18.2292,3.78769,-0.04991096,1.00183
212.028,18.30092,3.85568,-0.05266752,1.00027
214.528,18.37252,3.89471,-0.05400293,0.9987
217.028,18.4439,3.94354,-0.05539281,0.9971
219.528,18.51502,3.98783,-0.05671008,0.99549
222.028,18.5858,4.02842,-0.0585771,0.99386
224.528,18.65665,4.075,-0.06069558,0.99221
227.028,18.7273,4.10606,-0.06194967,0.99055
229.528,18.79736,4.13238,-0.06409019,0.98886
232.028,18.86778,4.1655,-0.06758203,0.98717
234.528,18.93797,4.18512,-0.07221191,0.98545
237.028,19.00781,4.20117,-0.07366442,0.98373
239.528,19.0775,4.22392,-0.07898435,0.98198
242.028,19.1471,4.23675,-0.08282396,0.98022
244.528,19.2165,4.23381,-0.08627797,0.97845
247.028,19.28574,4.23618,-0.09134577,0.97666
249.528,19.35492,4.24365,-0.09679496,0.97485
252.028,19.42408,4.2321,-0.10362,0.97303
254.528,19.493,4.23141,-0.10855,0.9712
257.028,19.5615,4.20937,-0.11392,0.96935
259.528,19.63065,4.19414,-0.12094,0.96749
262.028,19.6993,4.18033,-0.13046,0.96562
264.528,19.76775,4.15214,-0.13467,0.96373
267.028,19.83634,4.1205,-0.14487,0.96183
269.528,19.9049,4.08331,-0.15513,0.95992
272.028,19.9731,4.03649,-0.16184,0.95799
274.528,20.0413,3.99066,-0.17433,0.95606
277.028,20.10962,3.92756,-0.18467,0.95411
279.528,20.17776,3.85465,-0.1979,0.95215
282.028,20.24548,3.76205,-0.21354,0.95017
284.528,20.31352,3.66784,-0.23133,0.94819
287.028,20.38158,3.5487,-0.24562,0.94619
289.528,20.44991,3.41663,-0.2664,0.94419
292.028,20.518,3.27494,-0.28464,0.94217
294.528,20.58589,3.12819,-0.30607,0.94015
297.028,20.65389,2.96007,-0.32732,0.93811
299.528,20.72176,2.80145,-0.35182,0.93607
302.028,20.78971,2.63822,-0.37819,0.93401
304.528,20.85744,2.48995,-0.40547,0.93195
307.028,20.92551,2.34738,-0.43302,0.92987
309.528,20.99338,2.21683,-0.46307,0.92779
312.028,21.06111,2.10837,-0.48976,0.9257
314.528,21.12895,2.01595,-0.52104,0.9236
317.028,21.19693,1.94737,-0.55537,0.92149
319.528,21.2647,1.89327,-0.58646,0.91938
322.028,21.3324,1.85784,-0.6198,0.91725
324.528,21.40059,1.84869,-0.65329,0.91512
327.028,21.4684,1.86321,-0.69057,0.91299
329.528,21.53655,1.89605,-0.72878,0.91084
332.028,21.60454,1.95136,-0.76771,0.90869
334.528,21.6725,2.02205,-0.80532,0.90653
337.028,21.74062,2.12931,-0.84754,0.90437
339.528,21.80872,2.23619,-0.88959,0.9022
342.028,21.87678,2.34326,-0.93264,0.90002
344.528,21.94521,2.47146,-0.97404,0.89784
347.028,22.0135,2.60576,-1.02141,0.89566
349.528,22.0819,2.74074,-1.06977,0.89347
352.028,22.15031,2.89619,-1.11848,0.89127
354.528,22.21886,3.06299,-1.17016,0.88907
357.028,22.28722,3.23339,-1.22414,0.88686
359.528,22.35588,3.42141,-1.28044,0.88465
362.028,22.42447,3.62356,-1.34109,0.88244
364.528,22.49319,3.82637,-1.40346,0.88022
367.028,22.56162,4.04123,-1.47053,0.878
369.528,22.63075,4.25634,-1.53877,0.87578
372.028,22.69967,4.48654,-1.61268,0.87355
374.528,22.76865,4.68343,-1.69238,0.87132
377.028,22.83776,4.8498,-1.77441,0.86909
379.528,22.90695,4.97858,-1.85893,0.86685
382.028,22.97643,5.03102,-1.94731,0.86462
384.528,23.04587,4.97741,-2.03916,0.86238
387.028,23.1155,4.78141,-2.12928,0.86014
389.528,23.18522,4.42304,-2.21315,0.85789
392.028,23.25495,3.87394,-2.29855,0.85565
394.528,23.32505,3.1238,-2.37345,0.8534
397.028,23.3951,2.25312,-2.43664,0.85116
399.528,23.46552,1.35803,-2.48445,0.84891
402.028,23.5361,0.58201,-2.52292,0.84666
404.528,23.60677,-0.02102593,-2.54568,0.84442
407.028,23.67748,-0.43684,-2.56135,0.84217
409.528,23.7481,-0.73109,-2.57488,0.83992
412.028,23.81891,-0.92673,-2.58649,0.83767
414.528,23.88962,-1.0917,-2.59752,0.83542
417.028,23.9604,-1.21764,-2.60694,0.83318
419.528,24.03131,-1.33004,-2.61164,0.83093
422.028,24.10229,-1.43177,-2.62245,0.82868
424.528,24.17349,-1.50871,-2.63061,0.82644
427.028,24.24474,-1.58943,-2.64024,0.8242
429.528,24.31635,-1.65177,-2.64556,0.82195
432.028,24.3878,-1.71058,-2.65309,0.81971
434.528,24.45938,-1.76621,-2.66047,0.81748
437.028,24.5311,-1.80203,-2.6667,0.81524
439.528,24.603,-1.82897,-2.67684,0.81301
442.028,24.67494,-1.85402,-2.68186,0.81077
444.528,24.74703,-1.86578,-2.68959,0.80855
447.028,24.81915,-1.87406,-2.69555,0.80632
449.528,24.89157,-1.87109,-2.70438,0.8041
452.028,24.96394,-1.86184,-2.71105,0.80188
454.528,25.03644,-1.83986,-2.71713,0.79966
457.028,25.10906,-1.81539,-2.72254,0.79745
459.528,25.18178,-1.78649,-2.73125,0.79524
462.028,25.25453,-1.74602,-2.73492,0.79303
464.528,25.32767,-1.71511,-2.74163,0.79083
467.028,25.40086,-1.68525,-2.74767,0.78863
469.528,25.47393,-1.65248,-2.75349,0.78643
472.028,25.5472,-1.61346,-2.75817,0.78424
474.528,25.62058,-1.57619,-2.76449,0.78206
477.028,25.69412,-1.55526,-2.76931,0.77988
479.528,25.76774,-1.52417,-2.77482,0.7777
482.028,25.84146,-1.50743,-2.77893,0.77553
484.528,25.91519,-1.47255,-2.78369,0.77336
487.028,25.98915,-1.45931,-2.79063,0.7712
489.528,26.06309,-1.44951,-2.79328,0.76905
492.028,26.13717,-1.43905,-2.79762,0.7669
494.528,26.21142,-1.42883,-2.80391,0.76475
497.028,26.28534,-1.42175,-2.80785,0.76261
499.528,26.3601,-1.42158,-2.81169,0.76048
502.028,26.4345,-1.42516,-2.81658,0.75835
504.528,26.5093,-1.42355,-2.82007,0.75623
507.028,26.5841,-1.42888,-2.82277,0.75412
509.528,26.65881,-1.42944,-2.82795,0.75201
512.028,26.7338,-1.44586,-2.83127,0.74991
514.528,26.80885,-1.43666,-2.83542,0.74781
517.028,26.88397,-1.44321,-2.84084,0.74573
519.528,26.9593,-1.45076,-2.84209,0.74365
522.028,27.0345,-1.4509,-2.84729,0.74157
524.528,27.10987,-1.46602,-2.85128,0.7395
527.028,27.1854,-1.48136,-2.85502,0.73744
529.528,27.2612,-1.50418,-2.85906,0.73539
532.028,27.33703,-1.52549,-2.86234,0.73334
534.528,27.41269,-1.56266,-2.86386,0.73131
537.028,27.4885,-1.57608,-2.86827,0.72928
539.528,27.56447,-1.60367,-2.87106,0.72725
542.028,27.64047,-1.62558,-2.87466,0.72524
544.528,27.7166,-1.63402,-2.87699,0.72323
547.028,27.79285,-1.66021,-2.87668,0.72123
549.528,27.86905,-1.68568,-2.88238,0.71924
552.028,27.94544,-1.71594,-2.88537,0.71726
554.528,28.022,-1.72764,-2.88815,0.71528
557.028,28.09849,-1.75206,-2.89174,0.71332
559.528,28.17512,-1.77253,-2.89473,0.71136
562.028,28.2518,-1.78429,-2.90281,0.70941
564.528,28.32866,-1.81052,-2.90082,0.70747
567.028,28.4055,-1.83718,-2.90381,0.70554
569.528,28.48252,-1.85252,-2.90647,0.70361
572.028,28.55957,-1.87753,-2.90778,0.7017
574.528,28.63669,-1.89622,-2.91074,0.69979
577.028,28.71392,-1.91632,-2.91496,0.6979
579.528,28.7912,-1.93214,-2.91678,0.69601
582.028,28.86866,-1.95582,-2.91952,0.69413
584.528,28.9462,-1.96594,-2.92228,0.69226
587.028,29.02378,-1.99146,-2.92363,0.6904
589.528,29.10111,-2.01009,-2.92633,0.68855
592.028,29.17918,-2.01071,-2.92808,0.68671
594.528,29.2572,-2.0325,-2.9293,0.68487
597.028,29.3351,-2.0286,-2.93126,0.68305
599.528,29.41315,-2.04005,-2.93533,0.68124
602.028,29.49118,-2.0558,-2.93663,0.67943
604.528,29.56928,-2.06152,-2.93805,0.67764
607.028,29.6475,-2.08002,-2.93937,0.67585
609.528,29.7257,-2.07863,-2.94153,0.67408
612.028,29.804,-2.09314,-2.94514,0.67231
614.528,29.88225,-2.10241,-2.94647,0.67055
617.028,29.96064,-2.11029,-2.94784,0.66881
618.228,29.9985,-2.11581,-2.94912,0.66797

File: MDF_STA_N2_30KData_211012_R2.csv
##Temp./Â°C,Time/min,DSC(subtr.2)/mW,Mass loss(subtr.2)/mg,Sensit./(uV/mW)
49.498,10.01,0.07962281,-0.02842,1.05401
51.998,11.53704,0.49498,-0.03289376,1.05405
54.498,11.88448,0.78413,-0.03221275,1.05406
56.998,12.1395,1.00508,-0.03547055,1.05404
59.498,12.353,1.18153,-0.0330248,1.05399
61.998,12.54245,1.34597,-0.03629291,1.05391
64.498,12.7174,1.48708,-0.03689661,1.0538
66.998,12.88144,1.60546,-0.03635701,1.05366
69.498,13.03839,1.72414,-0.03610789,1.05349
71.998,13.1882,1.82829,-0.03844984,1.05328
74.498,13.33337,1.94073,-0.03545749,1.05305
76.998,13.4732,2.04475,-0.03858348,1.05279
79.498,13.6088,2.13732,-0.03952463,1.05251
81.998,13.7401,2.2384,-0.0397036,1.05219
84.498,13.867,2.32319,-0.04115745,1.05184
86.998,13.9908,2.41325,-0.04332316,1.05146
89.498,14.1101,2.48832,-0.04290451,1.05106
91.998,14.227,2.56747,-0.04490739,1.05063
94.498,14.3407,2.64126,-0.04578794,1.05017
96.998,14.45134,2.71048,-0.04820793,1.04968
99.498,14.5595,2.77996,-0.04786377,1.04916
101.998,14.66523,2.82683,-0.04631435,1.04862
104.498,14.7691,2.86202,-0.04931767,1.04805
106.998,14.87098,2.91073,-0.04923945,1.04745
109.498,14.97095,2.94843,-0.05070629,1.04682
111.998,15.0699,2.99942,-0.05089938,1.04617
114.498,15.16699,3.05409,-0.04933619,1.04549
116.998,15.26261,3.10165,-0.05115867,1.04478
119.498,15.35694,3.14332,-0.04864951,1.04405
121.998,15.45025,3.16429,-0.05459324,1.04329
124.498,15.54231,3.19021,-0.05167622,1.0425
126.998,15.63304,3.2321,-0.0500309,1.04169
129.498,15.7226,3.25663,-0.05174512,1.04086
131.998,15.8111,3.28719,-0.05407233,1.03999
134.498,15.8985,3.31833,-0.05440482,1.03911
136.998,15.98528,3.35395,-0.05423699,1.03819
139.498,16.07068,3.38627,-0.04829422,1.03726
141.998,16.1554,3.41938,-0.05823627,1.0363
144.498,16.23978,3.44808,-0.05739777,1.03531
146.998,16.32239,3.49488,-0.05573862,1.0343
149.498,16.40554,3.53061,-0.0546013,1.03327
151.998,16.48751,3.57565,-0.05569943,1.03221
154.498,16.56876,3.61981,-0.05592466,1.03113
156.998,16.64951,3.65437,-0.05685774,1.03002
159.498,16.72973,3.70297,-0.05814432,1.0289
161.998,16.80924,3.74243,-0.05883325,1.02775
164.498,16.88842,3.78994,-0.0571569,1.02657
166.998,16.9671,3.83507,-0.05888015,1.02538
169.498,17.04526,3.88229,-0.05797957,1.02416
171.998,17.12282,3.92015,-0.057477,1.02292
174.498,17.2,3.96978,-0.0588,1.02166
176.998,17.27675,4.02438,-0.05748012,1.02038
179.498,17.3531,4.05394,-0.05816173,1.01907
181.998,17.4289,4.10347,-0.05946073,1.01775
184.498,17.50423,4.15231,-0.05946,1.0164
186.998,17.57915,4.19368,-0.05947131,1.01504
189.498,17.6536,4.24196,-0.06011488,1.01365
191.998,17.7275,4.28415,-0.06147676,1.01224
194.498,17.80102,4.33786,-0.06142967,1.01082
196.998,17.87451,4.38768,-0.06051451,1.00937
199.498,17.94766,4.45169,-0.06409317,1.0079
201.998,18.02054,4.50714,-0.06274889,1.00642
204.498,18.09315,4.55909,-0.06401568,1.00492
206.998,18.1653,4.60912,-0.06538003,1.00339
209.498,18.23735,4.66601,-0.06538013,1.00185
211.998,18.3092,4.73781,-0.0666835,1.00029
214.498,18.3808,4.78493,-0.06841248,0.99871
216.998,18.45212,4.83587,-0.07074753,0.99712
219.498,18.52347,4.88535,-0.07207179,0.99551
221.998,18.59434,4.93209,-0.07340997,0.99388
224.498,18.66505,4.97886,-0.07631214,0.99223
226.998,18.7354,5.02391,-0.07899373,0.99057
229.498,18.80613,5.05919,-0.07968069,0.98888
231.998,18.87615,5.09407,-0.08327906,0.98719
234.498,18.94631,5.12598,-0.08703829,0.98548
236.998,19.0162,5.15006,-0.0908723,0.98375
239.498,19.08602,5.17365,-0.09564728,0.982
241.998,19.15558,5.19869,-0.09838309,0.98024
244.498,19.2251,5.20414,-0.1025,0.97847
246.998,19.2943,5.20386,-0.10755,0.97668
249.498,19.3637,5.21254,-0.11217,0.97487
251.998,19.43274,5.21587,-0.11977,0.97305
254.498,19.50171,5.22014,-0.12234,0.97122
256.998,19.57072,5.19726,-0.13007,0.96938
259.498,19.63928,5.18667,-0.13671,0.96751
261.998,19.70794,5.18369,-0.14549,0.96564
264.498,19.77658,5.15432,-0.14873,0.96375
266.998,19.8452,5.12958,-0.15973,0.96185
269.498,19.91398,5.09845,-0.16879,0.95994
271.998,19.98238,5.05049,-0.17714,0.95802
274.498,20.05079,5.02055,-0.19114,0.95608
276.998,20.11908,4.93786,-0.20076,0.95413
279.498,20.18735,4.86832,-0.21326,0.95217
281.998,20.2555,4.77845,-0.22954,0.9502
284.498,20.32364,4.67499,-0.24567,0.94821
286.998,20.39181,4.55075,-0.26024,0.94622
289.498,20.45978,4.42602,-0.2803,0.94421
291.998,20.52775,4.28995,-0.30067,0.9422
294.498,20.59573,4.12828,-0.32164,0.94017
296.998,20.66364,3.96245,-0.34226,0.93814
299.498,20.73154,3.80731,-0.37047,0.93609
301.998,20.79941,3.65175,-0.39232,0.93404
304.498,20.86732,3.50891,-0.42152,0.93197
306.998,20.93511,3.35242,-0.44706,0.9299
309.498,21.00252,3.22479,-0.47764,0.92781
311.998,21.07038,3.10992,-0.5056,0.92572
314.498,21.13834,3.01902,-0.53539,0.92362
316.998,21.20618,2.94952,-0.57113,0.92152
319.498,21.27403,2.89691,-0.59996,0.9194
321.998,21.34181,2.86777,-0.63513,0.91728
324.498,21.4096,2.85189,-0.6703,0.91515
326.998,21.47764,2.85729,-0.70803,0.91301
329.498,21.54566,2.88855,-0.74333,0.91087
331.998,21.61366,2.9604,-0.78206,0.90872
334.498,21.6816,3.03992,-0.82408,0.90656
336.998,21.7497,3.12526,-0.86315,0.9044
339.498,21.81798,3.2407,-0.90682,0.90223
341.998,21.88624,3.36525,-0.95021,0.90005
344.498,21.95457,3.49498,-0.99299,0.89787
346.998,22.0229,3.64231,-1.0396,0.89568
349.498,22.0913,3.77979,-1.08935,0.89349
351.998,22.15975,3.92408,-1.13384,0.8913
354.498,22.2283,4.1092,-1.19125,0.8891
356.998,22.2969,4.27906,-1.24403,0.88689
359.498,22.36555,4.47892,-1.30168,0.88468
361.998,22.43429,4.67918,-1.36073,0.88247
364.498,22.50307,4.87794,-1.4254,0.88025
366.998,22.57196,5.10223,-1.49136,0.87803
369.498,22.64091,5.31058,-1.56207,0.87581
371.998,22.70984,5.53143,-1.63449,0.87358
374.498,22.77897,5.7234,-1.71604,0.87135
376.998,22.84824,5.89646,-1.79771,0.86912
379.498,22.9174,6.00772,-1.88127,0.86688
381.998,22.9867,6.05416,-1.97114,0.86464
384.498,23.05623,5.99202,-2.06361,0.86241
386.998,23.12586,5.79344,-2.15352,0.86016
389.498,23.19555,5.42014,-2.2393,0.85792
391.998,23.26521,4.87461,-2.32434,0.85568
394.498,23.33501,4.13742,-2.40161,0.85343
396.998,23.40535,3.29098,-2.46354,0.85119
399.498,23.47578,2.42605,-2.51255,0.84894
401.998,23.5464,1.68787,-2.55231,0.84669
404.498,23.6172,1.11219,-2.57289,0.84444
406.998,23.68788,0.70181,-2.59205,0.84219
409.498,23.7586,0.42739,-2.60381,0.83995
411.998,23.82936,0.22597,-2.61576,0.8377
414.498,23.90016,0.06376607,-2.62395,0.83545
416.998,23.9711,-0.07342298,-2.63475,0.8332
419.498,24.0423,-0.18425,-2.64299,0.83096
421.998,24.1132,-0.27153,-2.65369,0.82871
424.498,24.18457,-0.3611,-2.66035,0.82647
426.998,24.25575,-0.4503,-2.66828,0.82422
429.498,24.32721,-0.53536,-2.67671,0.82198
431.998,24.39875,-0.59225,-2.68491,0.81974
434.498,24.47029,-0.64871,-2.69108,0.8175
436.998,24.5418,-0.69211,-2.69849,0.81527
439.498,24.61285,-0.7338,-2.70662,0.81303
441.998,24.68532,-0.74889,-2.71508,0.8108
444.498,24.7574,-0.77311,-2.72019,0.80857
446.998,24.82921,-0.77398,-2.7305,0.80635
449.498,24.9015,-0.76795,-2.73472,0.80412
451.998,24.97409,-0.76417,-2.74228,0.8019
454.498,25.04652,-0.75466,-2.7483,0.79969
456.998,25.1192,-0.73494,-2.75469,0.79747
459.498,25.19187,-0.70572,-2.76184,0.79526
461.998,25.26471,-0.68165,-2.76694,0.79306
464.498,25.33765,-0.65232,-2.77392,0.79085
466.998,25.4107,-0.62355,-2.78094,0.78865
469.498,25.48374,-0.59954,-2.78639,0.78646
471.998,25.55696,-0.56536,-2.79226,0.78427
474.498,25.6303,-0.53435,-2.79793,0.78208
476.998,25.7038,-0.51138,-2.80226,0.7799
479.498,25.77734,-0.48903,-2.80705,0.77773
481.998,25.85117,-0.45833,-2.81227,0.77556
484.498,25.92504,-0.44699,-2.81582,0.77339
486.998,25.99896,-0.4302,-2.82273,0.77123
489.498,26.07326,-0.42916,-2.82763,0.76907
491.998,26.14736,-0.42591,-2.83062,0.76692
494.498,26.22155,-0.41315,-2.83733,0.76478
496.998,26.29601,-0.41393,-2.8412,0.76264
499.498,26.3704,-0.42116,-2.84806,0.76051
501.998,26.44492,-0.42204,-2.8485,0.75838
504.498,26.51965,-0.41879,-2.8529,0.75626
506.998,26.59403,-0.43848,-2.85736,0.75414
509.498,26.66868,-0.44102,-2.86062,0.75204
511.998,26.74401,-0.45453,-2.86698,0.74993
514.498,26.81891,-0.46302,-2.87009,0.74784
516.998,26.89402,-0.47096,-2.87325,0.74575
519.498,26.96926,-0.47955,-2.8769,0.74367
521.998,27.0446,-0.4935,-2.88196,0.7416
524.498,27.12,-0.51377,-2.88585,0.73953
526.998,27.19561,-0.53224,-2.8882,0.73747
529.498,27.27125,-0.56457,-2.89389,0.73541
531.998,27.34698,-0.60089,-2.8968,0.73337
534.498,27.42285,-0.62819,-2.90001,0.73133
536.998,27.4988,-0.65227,-2.90291,0.7293
539.498,27.57487,-0.67803,-2.9063,0.72728
541.998,27.6508,-0.70465,-2.90893,0.72526
544.498,27.72703,-0.72993,-2.916,0.72326
546.998,27.8034,-0.77739,-2.90863,0.72126
549.498,27.8796,-0.79989,-2.91821,0.71927
551.998,27.95605,-0.83172,-2.92009,0.71728
554.498,28.03257,-0.85446,-2.92367,0.71531
556.998,28.109,-0.88059,-2.92861,0.71334
559.498,28.1856,-0.91261,-2.92916,0.71138
561.998,28.2622,-0.93232,-2.93952,0.70943
564.498,28.3389,-0.95993,-2.93456,0.70749
566.998,28.41572,-0.99226,-2.93892,0.70556
569.498,28.4924,-1.01183,-2.94188,0.70364
571.998,28.56942,-1.04689,-2.94383,0.70172
574.498,28.6466,-1.0747,-2.94612,0.69982
576.998,28.72372,-1.09867,-2.95018,0.69792
579.498,28.80081,-1.13158,-2.95235,0.69603
581.998,28.8783,-1.15946,-2.95531,0.69415
584.498,28.9558,-1.18969,-2.95791,0.69228
586.998,29.03332,-1.2227,-2.95946,0.69042
589.498,29.11082,-1.24397,-2.96072,0.68857
591.998,29.1886,-1.24979,-2.96334,0.68673
594.498,29.26655,-1.28297,-2.96736,0.6849
596.998,29.34419,-1.2853,-2.9676,0.68307
599.498,29.4222,-1.30932,-2.97241,0.68126
601.998,29.50007,-1.33736,-2.9724,0.67945
604.498,29.57783,-1.35118,-2.97463,0.67766
606.998,29.6559,-1.37395,-2.97564,0.67587
609.498,29.73405,-1.3935,-2.97928,0.6741
611.998,29.8125,-1.4002,-2.98115,0.67233
614.498,29.89087,-1.40728,-2.98116,0.67058
616.998,29.96915,-1.43312,-2.98377,0.66883
617.898,29.9974,-1.44121,-2.9838,0.6682