Folder: fsri_materials_database/01_Data/MDF/STA/N2/3K_min

Note: 01_Data/README.md
# Materials and Products Database
## 01_Data

Raw data generated from each apparatus are included here in plain-text format. The data is organized first by material, next by the short name of test apparatus used, and where applicable additional filtering by test settings.

### material.json

Each material directory contains a json file of the same name as the material. This file links the data stored in the repository as well as data and graphs produced by the accompanying scripts (__02_Scripts__) to the respective landing page for the material on the front-end website.

File: MDF_STA_N2_3KData_211013_R1.csv
##Temp./Â°C,Time/min,Mass(subtr.2)/%,DSC(subtr.2)/(mW/mg),Sensit./(uV/mW)
50.194,10.00917,99.506,-0.01997041,0.99784
52.794,13.96083,99.28781,0.008570666,0.99982
55.394,15.5,99.24676,0.02240976,1.00172
57.994,16.77376,99.25486,0.02742369,1.00355
60.594,17.90996,99.19775,0.03569245,1.00531
63.194,18.9713,99.08385,0.03780546,1.007
65.794,19.97709,99.06464,0.04187022,1.00861
68.394,20.9486,99.0505,0.04432598,1.01016
70.994,21.89282,98.93624,0.04610202,1.01163
73.594,22.8226,98.94126,0.04925227,1.01303
76.194,23.73625,98.88955,0.04791803,1.01436
78.794,24.64102,98.82365,0.0467629,1.01561
81.394,25.53545,98.79948,0.04659073,1.0168
83.994,26.42169,98.8075,0.04673491,1.01792
86.594,27.2993,98.74226,0.04544839,1.01897
89.194,28.1734,98.70947,0.04434109,1.01995
91.794,29.04137,98.6443,0.04326599,1.02086
94.394,29.90467,98.63322,0.04940253,1.0217
96.994,30.76274,98.59751,0.04777331,1.02248
99.594,31.61625,98.58383,0.04607998,1.02318
102.194,32.46915,98.58383,0.04411797,1.02382
104.794,33.31649,98.53921,0.04557233,1.0244
107.394,34.16322,98.54463,0.044553,1.02491
109.994,35.00693,98.5206,0.04183666,1.02535
112.594,35.85069,98.4883,0.04398253,1.02572
115.194,36.6935,98.50449,0.04499949,1.02604
117.794,37.534,98.4828,0.04208792,1.02628
120.394,38.37706,98.49104,0.04293971,1.02647
122.994,39.21694,98.4657,0.04085744,1.02659
125.594,40.0561,98.42562,0.0415244,1.02664
128.194,40.89309,98.42662,0.0438929,1.02664
130.794,41.73087,98.35494,0.0422756,1.02657
133.394,42.56369,98.3576,0.04175345,1.02644
135.994,43.39673,98.3629,0.04203569,1.02625
138.594,44.22913,98.3383,0.04217424,1.026
141.194,45.0593,98.28052,0.04366537,1.02569
143.794,45.8891,98.3137,0.04164561,1.02532
146.394,46.7191,98.24002,0.04332068,1.02489
148.994,47.54952,98.2756,0.04464339,1.0244
151.594,48.37622,98.26342,0.04578424,1.02385
154.194,49.20243,98.1546,0.04771398,1.02325
156.794,50.02897,98.1746,0.04695905,1.02259
159.394,50.8557,98.17002,0.04803316,1.02187
161.994,51.68156,98.17849,0.04810256,1.0211
164.594,52.50466,98.1143,0.0498903,1.02027
167.194,53.3285,98.12493,0.04882366,1.01939
169.794,54.15399,98.05723,0.04933622,1.01846
172.394,54.9774,98.01393,0.04760409,1.01747
174.994,55.8018,97.84881,0.04971236,1.01642
177.594,56.6264,97.9006,0.04899563,1.01533
180.194,57.45221,97.92,0.05237646,1.01418
182.794,58.27612,97.86891,0.0517392,1.01299
185.394,59.10103,97.8235,0.05378022,1.01174
187.994,59.9221,97.75405,0.05490684,1.01044
190.594,60.7448,97.69491,0.05398555,1.00909
193.194,61.5681,97.63064,0.05649117,1.0077
195.794,62.3913,97.5334,0.056629,1.00625
198.394,63.214,97.46791,0.05735726,1.00476
200.994,64.03698,97.37787,0.05777136,1.00322
203.594,64.85959,97.304,0.0581833,1.00163
206.194,65.68088,97.21037,0.0579492,1.0
208.794,66.50145,97.09684,0.05770747,0.99833
211.394,67.3254,97.0068,0.05867671,0.99661
213.994,68.14694,96.81021,0.05993482,0.99484
216.594,68.96892,96.69586,0.05848188,0.99303
219.194,69.79126,96.5458,0.05968377,0.99118
221.794,70.61527,96.38211,0.06091775,0.98929
224.394,71.4389,96.2291,0.06109377,0.98736
226.994,72.2602,95.99284,0.06147911,0.98538
229.594,73.0817,95.81537,0.06341896,0.98337
232.194,73.9015,95.53616,0.06301081,0.98131
234.794,74.72641,95.23871,0.06075991,0.97922
237.394,75.548,94.95605,0.06036483,0.97709
239.994,76.37018,94.71834,0.05974937,0.97492
242.594,77.19436,94.27962,0.06134059,0.97272
245.194,78.0183,93.9072,0.05631814,0.97047
247.794,78.84141,93.44397,0.05486262,0.9682
250.394,79.66683,92.93875,0.05364661,0.96589
252.994,80.4913,92.37142,0.05359781,0.96354
255.594,81.31415,91.76337,0.05287265,0.96116
258.194,82.13936,91.10729,0.04907833,0.95875
260.794,82.96444,90.45936,0.047767,0.9563
263.394,83.78924,89.77611,0.04278276,0.95383
265.994,84.61437,89.00028,0.0361596,0.95132
268.594,85.4404,88.15918,0.03538482,0.94878
271.194,86.2663,87.30577,0.03312327,0.94621
273.794,87.09153,86.43599,0.03083183,0.94362
276.394,87.9169,85.5641,0.02985718,0.94099
278.994,88.74378,84.66054,0.03237022,0.93834
281.594,89.5717,83.66931,0.03368971,0.93566
284.194,90.40029,82.67365,0.03430515,0.93295
286.794,91.2294,81.71594,0.03671848,0.93022
289.394,92.0577,80.62787,0.04040902,0.92747
291.994,92.88877,79.58782,0.04126945,0.92469
294.594,93.71594,78.47031,0.04216749,0.92188
297.194,94.54267,77.28362,0.04622679,0.91905
299.794,95.3773,76.12303,0.05240229,0.9162
302.394,96.20926,74.87562,0.05796587,0.91333
304.994,97.04249,73.58751,0.06211361,0.91044
307.594,97.87541,72.20424,0.06739082,0.90753
310.194,98.704,70.76186,0.07793306,0.90459
312.794,99.533,69.2639,0.0881405,0.90164
315.394,100.365,67.64794,0.09414947,0.89867
317.994,101.202,65.89652,0.10755,0.89568
320.594,102.035,64.13875,0.11112,0.89267
323.194,102.869,62.1182,0.12393,0.88965
325.794,103.705,60.0012,0.13107,0.88661
328.394,104.54,57.80726,0.13913,0.88356
330.994,105.376,55.3848,0.1455,0.88049
333.594,106.215,52.91332,0.15107,0.87741
336.194,107.055,50.29578,0.15478,0.87431
338.794,107.894,47.6856,0.15309,0.87121
341.394,108.7306,45.10352,0.14011,0.86809
343.994,109.57,42.58607,0.11629,0.86495
346.594,110.407,40.49822,0.08310473,0.86181
349.194,111.244,38.6907,0.04111915,0.85866
351.794,112.086,37.49582,-0.0003019682,0.8555
354.394,112.928,36.70708,-0.0295668,0.85232
356.994,113.766,36.1558,-0.04244693,0.84914
359.594,114.602,35.7793,-0.05432688,0.84596
362.194,115.446,35.50597,-0.06190603,0.84276
364.794,116.288,35.21965,-0.06291358,0.83956
367.394,117.128,34.96867,-0.0683737,0.83635
369.994,117.968,34.70393,-0.06989484,0.83314
372.594,118.808,34.5441,-0.07507032,0.82992
375.194,119.652,34.30317,-0.07582065,0.8267
377.794,120.498,34.09558,-0.07836068,0.82347
380.394,121.344,33.85423,-0.08672542,0.82024
382.994,122.19,33.6453,-0.08830716,0.81701
385.594,123.036,33.43253,-0.08869395,0.81378
388.194,123.882,33.2047,-0.09119413,0.81055
390.794,124.727,33.04776,-0.09589969,0.80731
393.394,125.574,32.8104,-0.09625577,0.80408
395.994,126.426,32.61207,-0.09876347,0.80084
398.594,127.27,32.46671,-0.09702074,0.79761
401.194,128.119,32.24831,-0.09628975,0.79438
403.794,128.9682,32.01693,-0.09643769,0.79115
406.394,129.821,31.8826,-0.09624635,0.78792
408.994,130.673,31.67663,-0.09881517,0.7847
411.594,131.522,31.49805,-0.10038,0.78148
414.194,132.374,31.3288,-0.10288,0.77826
416.794,133.224,31.1624,-0.10354,0.77505
419.394,134.075,31.02065,-0.10346,0.77184
421.994,134.933,30.8555,-0.09743399,0.76864
424.594,135.79,30.7012,-0.09690948,0.76545
427.194,136.642,30.5674,-0.09427652,0.76226
429.794,137.493,30.3924,-0.08758299,0.75908
432.394,138.342,30.23876,-0.09092361,0.75591
434.994,139.196,30.1143,-0.08413573,0.75274
437.594,140.052,30.01545,-0.08573495,0.74959
440.194,140.905,29.8495,-0.07996571,0.74644
442.794,141.763,29.76812,-0.07900758,0.74331
445.394,142.625,29.64477,-0.07609779,0.74018
447.994,143.483,29.5169,-0.07087224,0.73706
450.594,144.34,29.34972,-0.07472146,0.73396
453.194,145.195,29.27413,-0.07199123,0.73087
455.794,146.054,29.16943,-0.07098415,0.72779
458.394,146.913,29.0628,-0.07602262,0.72472
460.994,147.771,28.93145,-0.0720368,0.72166
463.594,148.63,28.879,-0.07342026,0.71862
466.194,149.49,28.77487,-0.06916543,0.71559
468.794,150.349,28.67652,-0.06920303,0.71258
471.394,151.206,28.5731,-0.0702482,0.70958
473.994,152.0687,28.47761,-0.06744569,0.7066
476.594,152.936,28.39051,-0.0698944,0.70363
479.194,153.796,28.30821,-0.07460702,0.70067
481.794,154.658,28.27562,-0.07410413,0.69774
484.394,155.5183,28.202,-0.07515498,0.69482
486.994,156.3839,28.0926,-0.07398081,0.69192
489.594,157.249,27.9401,-0.07215516,0.68903
492.194,158.111,27.959,-0.07414439,0.68616
494.794,158.973,27.88733,-0.07757265,0.68331
497.394,159.838,27.80756,-0.08399446,0.68048
499.994,160.703,27.74352,-0.0896267,0.67767
502.594,161.565,27.92312,-0.0895287,0.67487
505.194,162.426,27.5826,-0.0934582,0.6721
507.794,163.291,27.5226,-0.09890577,0.66935
510.394,164.167,27.49254,-0.09561183,0.66661
512.994,165.039,27.41065,-0.09777067,0.6639
515.594,165.907,27.31226,-0.09945089,0.66121
518.194,166.776,27.28507,-0.09911314,0.65853
520.794,167.641,27.2508,-0.10747,0.65588
523.394,168.51,27.14875,-0.10871,0.65326
525.994,169.374,27.0728,-0.11643,0.65065
528.594,170.241,27.0149,-0.11332,0.64807
531.194,171.109,26.94677,-0.11259,0.6455
533.794,171.98,26.9032,-0.11389,0.64296
536.394,172.847,26.8295,-0.11664,0.64045
538.994,173.712,26.8024,-0.11592,0.63796
541.594,174.5874,26.7591,-0.11148,0.63549
544.194,175.463,26.6597,-0.11328,0.63304
546.794,176.332,26.652,-0.11788,0.63062
549.394,177.208,26.5895,-0.11499,0.62823
551.994,178.077,26.53724,-0.11209,0.62585
554.594,178.956,26.5601,-0.10792,0.62351
557.194,179.83,26.4899,-0.10267,0.62118
559.794,180.708,26.40338,-0.09843558,0.61889
562.394,181.586,26.39303,-0.09940273,0.61661
564.994,182.459,26.3656,-0.09266613,0.61437
567.594,183.3307,26.3192,-0.08778163,0.61215
570.194,184.2044,26.252,-0.07889655,0.60995
572.794,185.079,26.19378,-0.07400593,0.60778
575.394,185.952,26.13278,-0.07147983,0.60564
577.994,186.8292,26.09826,-0.05283015,0.60353
580.594,187.714,26.13959,-0.04688137,0.60144
583.194,188.589,26.0271,-0.04687027,0.59937
585.794,189.462,25.9945,-0.04233996,0.59734
588.394,190.342,25.93189,-0.03407766,0.59533
590.994,191.218,25.95646,-0.02848353,0.59335
593.594,192.105,25.83585,-0.02390314,0.59139
596.194,192.985,25.83635,-0.009398657,0.58947
598.794,193.864,25.9454,-0.01351728,0.58757
601.394,194.743,25.75558,-0.01286784,0.5857
603.994,195.6293,25.7517,-0.00486507,0.58385
606.594,196.512,25.68665,0.005183223,0.58203
609.194,197.397,25.66392,0.012782,0.58025
611.794,198.285,25.63964,0.02054083,0.57849
614.394,199.168,25.59921,0.02012124,0.57675
616.994,200.049,25.58266,0.01484046,0.57505
619.594,200.936,25.55247,0.01454044,0.57337
622.194,201.817,25.51711,0.0186726,0.57173
624.794,202.697,25.48165,0.01650098,0.57011
627.394,203.579,25.4928,0.01736148,0.56851
629.994,204.469,25.42984,0.01373356,0.56695
632.594,205.346,25.39997,0.004190736,0.56542
635.194,206.2266,25.42693,0.00291684,0.56391
637.794,207.113,25.42724,0.01105936,0.56243
640.394,207.998,25.38607,0.01306476,0.56098
642.994,208.8888,25.438,0.01024914,0.55956
645.594,209.78,25.37237,0.01297147,0.55817
646.194,209.987,25.33677,0.01972349,0.55785