Folder: fsri_materials_database/01_Data/Bamboo_Rug_Bamboo/STA/N2/10K_min

Note: 01_Data/README.md
# Materials and Products Database
## 01_Data

Raw data generated from each apparatus are included here in plain-text format. The data is organized first by material, next by the short name of test apparatus used, and where applicable additional filtering by test settings.

### material.json

Each material directory contains a json file of the same name as the material. This file links the data stored in the repository as well as data and graphs produced by the accompanying scripts (__02_Scripts__) to the respective landing page for the material on the front-end website.

File: Bamboo_Rug_A_STA_N2_10KData_220120_R2.csv
##Temp./Â°C,Time/min,Mass loss(subtr.)/mg,DSC(subtr.)/(mW/mg),Sensit./(uV/mW)
49.252,10.01,-0.04026,0.01126795,1.07447
52.452,11.31974,-0.04432428,0.10032,1.07424
55.652,11.77096,-0.04770684,0.14661,1.07399
58.852,12.1584,-0.04700398,0.17172,1.07371
62.052,12.522,-0.04873061,0.18664,1.07341
65.252,12.87461,-0.04960391,0.20157,1.07308
68.452,13.22,-0.05211312,0.21264,1.07274
71.652,13.5602,-0.05287724,0.2199,1.07236
74.852,13.8979,-0.05551156,0.22743,1.07196
78.052,14.2319,-0.05681924,0.23123,1.07154
81.252,14.5635,-0.06002173,0.23482,1.0711
84.452,14.8908,-0.0604527,0.23885,1.07063
87.652,15.2146,-0.06109951,0.24088,1.07014
90.852,15.53602,-0.06482033,0.23926,1.06962
94.052,15.85532,-0.06363265,0.23787,1.06908
97.252,16.1719,-0.06625826,0.23382,1.06852
100.452,16.48705,-0.06820491,0.23278,1.06794
103.652,16.8028,-0.06690539,0.23006,1.06733
106.852,17.1168,-0.06658315,0.22797,1.06669
110.052,17.43079,-0.06691372,0.23176,1.06604
113.252,17.74436,-0.07086221,0.23145,1.06536
116.452,18.05773,-0.06987,0.23166,1.06466
119.652,18.37015,-0.06954939,0.23282,1.06393
122.852,18.68228,-0.07086994,0.23293,1.06318
126.052,18.99396,-0.07120629,0.23549,1.06241
129.252,19.3046,-0.07381988,0.24049,1.06162
132.452,19.61477,-0.07481233,0.2454,1.0608
135.652,19.92428,-0.07223331,0.24663,1.05996
138.852,20.23434,-0.07553217,0.24856,1.0591
142.052,20.54376,-0.07601039,0.25284,1.05822
145.252,20.8531,-0.07864056,0.25559,1.05731
148.452,21.162,-0.08126829,0.25558,1.05638
151.652,21.47008,-0.08128032,0.26294,1.05543
154.852,21.77788,-0.08129,0.26763,1.05446
158.052,22.08568,-0.08676999,0.27551,1.05346
161.252,22.39268,-0.08512,0.27941,1.05244
164.452,22.69962,-0.08706669,0.28229,1.0514
167.652,23.0063,-0.08807945,0.28798,1.05034
170.852,23.31308,-0.09039025,0.29422,1.04926
174.052,23.61969,-0.09236,0.29704,1.04815
177.252,23.9263,-0.09161562,0.29976,1.04702
180.452,24.23272,-0.09363137,0.30808,1.04587
183.652,24.53933,-0.09889663,0.31118,1.0447
186.852,24.84577,-0.10228,0.31826,1.04351
190.052,25.15212,-0.10344,0.32564,1.0423
193.252,25.45776,-0.10737,0.32922,1.04107
196.452,25.76279,-0.11046,0.33759,1.03981
199.652,26.06904,-0.11528,0.34313,1.03854
202.852,26.37463,-0.11957,0.34962,1.03724
206.052,26.68004,-0.12362,0.35729,1.03592
209.252,26.98538,-0.13097,0.36382,1.03458
212.452,27.29087,-0.13492,0.37025,1.03322
215.652,27.5962,-0.14194,0.36926,1.03185
218.852,27.902,-0.14842,0.37077,1.03045
222.052,28.20751,-0.1551,0.36924,1.02903
225.252,28.5136,-0.16326,0.373,1.02759
228.452,28.8198,-0.17033,0.37173,1.02613
231.652,29.1262,-0.17892,0.3746,1.02465
234.852,29.4322,-0.19052,0.37583,1.02315
238.052,29.7377,-0.19789,0.37877,1.02163
241.252,30.04255,-0.20888,0.38194,1.02009
244.452,30.34726,-0.22437,0.38807,1.01853
247.652,30.65312,-0.23535,0.39429,1.01695
250.852,30.9589,-0.25426,0.40411,1.01535
254.052,31.26417,-0.27437,0.40664,1.01374
257.252,31.56946,-0.2928,0.38889,1.0121
260.452,31.8747,-0.31635,0.38396,1.01045
263.652,32.18055,-0.34346,0.38098,1.00877
266.852,32.4863,-0.37334,0.3803,1.00708
270.052,32.7926,-0.40778,0.38032,1.00537
273.252,33.09791,-0.44543,0.37852,1.00364
276.452,33.4039,-0.48568,0.37379,1.0019
279.652,33.70945,-0.52874,0.36871,1.00013
282.852,34.01555,-0.5762,0.3671,0.99835
286.052,34.32154,-0.62989,0.36496,0.99655
289.252,34.62812,-0.68382,0.36205,0.99473
292.452,34.9356,-0.74223,0.36055,0.99289
295.652,35.24293,-0.80357,0.36265,0.99104
298.852,35.55038,-0.86835,0.35935,0.98916
302.052,35.85779,-0.93269,0.36444,0.98728
305.252,36.16543,-1.00017,0.36412,0.98537
308.452,36.47311,-1.06966,0.36919,0.98345
311.652,36.7812,-1.13413,0.37238,0.98151
314.852,37.08913,-1.20234,0.37739,0.97955
318.052,37.39713,-1.27128,0.38636,0.97758
321.252,37.70598,-1.33707,0.39419,0.97559
324.452,38.01372,-1.40373,0.40557,0.97358
327.652,38.32203,-1.47471,0.42157,0.97156
330.852,38.62996,-1.54251,0.43727,0.96952
334.052,38.93853,-1.61832,0.45877,0.96746
337.252,39.24753,-1.69818,0.48428,0.96539
340.452,39.55747,-1.78512,0.51372,0.96331
343.652,39.8675,-1.87959,0.55001,0.96121
346.852,40.17758,-1.98455,0.59657,0.95909
350.052,40.48762,-2.10763,0.64678,0.95696
353.252,40.79825,-2.24902,0.69003,0.95481
356.452,41.10848,-2.40381,0.67407,0.95265
359.652,41.41819,-2.54916,0.55454,0.95047
362.852,41.72664,-2.65924,0.38204,0.94828
366.052,42.03501,-2.72804,0.24912,0.94607
369.252,42.34317,-2.76691,0.17212,0.94385
372.452,42.65234,-2.79203,0.12929,0.94161
375.652,42.9619,-2.80983,0.10387,0.93936
378.852,43.27195,-2.82655,0.08794153,0.9371
382.052,43.5831,-2.8377,0.0782243,0.93482
385.252,43.89498,-2.84802,0.0654479,0.93253
388.452,44.2074,-2.86179,0.06021248,0.93022
391.652,44.5197,-2.87122,0.04888463,0.92791
394.852,44.8314,-2.88291,0.04826277,0.92557
398.052,45.14247,-2.89212,0.04082082,0.92323
401.252,45.45366,-2.90191,0.03972484,0.92087
404.452,45.76474,-2.91155,0.03225476,0.9185
407.652,46.07607,-2.92269,0.03025188,0.91612
410.852,46.38816,-2.93013,0.02766821,0.91372
414.052,46.70092,-2.94069,0.02324901,0.91131
417.252,47.01368,-2.95078,0.02257108,0.90889
420.452,47.32646,-2.95923,0.02271613,0.90646
423.652,47.63836,-2.96665,0.02481159,0.90401
426.852,47.95112,-2.9748,0.02594096,0.90156
430.052,48.26362,-2.98389,0.02763288,0.89909
433.252,48.57719,-2.99174,0.02998684,0.89661
436.452,48.89053,-2.99709,0.0350513,0.89412
439.652,49.20418,-3.00812,0.04125812,0.89162
442.852,49.51862,-3.01352,0.0407435,0.8891
446.052,49.83333,-3.01835,0.04564722,0.88658
449.252,50.1479,-3.0258,0.05059838,0.88404
452.452,50.46306,-3.03264,0.05455383,0.8815
455.652,50.7787,-3.0391,0.05605142,0.87894
458.852,51.09437,-3.04353,0.06179139,0.87637
462.052,51.40995,-3.04752,0.06267361,0.87379
465.252,51.72605,-3.05223,0.0665151,0.87121
468.452,52.04132,-3.05816,0.0680608,0.86861
471.652,52.3569,-3.06222,0.07100743,0.866
474.852,52.6723,-3.06555,0.07454447,0.86339
478.052,52.98665,-3.0722,0.08665332,0.86076
481.252,53.3009,-3.07483,0.09144338,0.85812
484.452,53.6156,-3.07804,0.09993474,0.85548
487.652,53.93127,-3.08196,0.10863,0.85283
490.852,54.24723,-3.08711,0.11129,0.85016
494.052,54.56419,-3.09122,0.12474,0.84749
497.252,54.88044,-3.09482,0.1301,0.84481
500.452,55.19653,-3.09918,0.13287,0.84212
503.652,55.5139,-3.10025,0.13303,0.83943
506.852,55.83113,-3.10609,0.1237,0.83672
510.052,56.1488,-3.10873,0.10843,0.83401
513.252,56.4665,-3.11177,0.10409,0.83129
516.452,56.7846,-3.11412,0.09874084,0.82856
519.652,57.10205,-3.11806,0.09752193,0.82582
522.852,57.4197,-3.12068,0.09623443,0.82308
526.052,57.73775,-3.122,0.09808632,0.82033
529.252,58.0551,-3.12593,0.10069,0.81757
532.452,58.37206,-3.12595,0.10093,0.81481
535.652,58.6893,-3.12991,0.09882689,0.81203
538.852,59.00626,-3.13122,0.10194,0.80926
542.052,59.3243,-3.13352,0.09951063,0.80647
545.252,59.6431,-3.13532,0.09861748,0.80368
548.452,59.96252,-3.13894,0.09915203,0.80088
551.652,60.2822,-3.14141,0.09968188,0.79808
554.852,60.6015,-3.14404,0.09456286,0.79527
558.052,60.9208,-3.14668,0.09609709,0.79245
561.252,61.2391,-3.15037,0.10038,0.78963
564.452,61.55837,-3.15205,0.09636612,0.7868
567.652,61.8771,-3.15457,0.09163982,0.78397
570.852,62.1964,-3.15754,0.0917921,0.78114
574.052,62.51616,-3.15892,0.09200727,0.77829
577.252,62.8357,-3.16282,0.09119982,0.77545
580.452,63.1556,-3.16412,0.09005023,0.77259
583.652,63.47582,-3.16421,0.08829919,0.76974
586.852,63.79589,-3.16675,0.09110206,0.76687
590.052,64.11539,-3.16675,0.09296188,0.76401
593.252,64.43528,-3.16839,0.0973655,0.76114
596.452,64.75446,-3.16972,0.10303,0.75826
599.652,65.07426,-3.17103,0.10103,0.75538
602.852,65.39444,-3.17235,0.10565,0.7525
606.052,65.715,-3.17367,0.10677,0.74962
609.252,66.03664,-3.1763,0.11048,0.74673
612.452,66.35744,-3.1782,0.11501,0.74383
615.652,66.67831,-3.18083,0.11654,0.74094
618.852,66.99891,-3.18358,0.12014,0.73804
622.052,67.3192,-3.18025,0.12394,0.73513
625.252,67.6401,-3.18551,0.12467,0.73223
628.452,67.9611,-3.18615,0.13011,0.72932
631.652,68.28233,-3.18779,0.1291,0.72641
634.852,68.6041,-3.1895,0.13544,0.7235
638.052,68.9254,-3.18946,0.13374,0.72058
641.252,69.24735,-3.19201,0.13913,0.71766
644.452,69.56992,-3.19241,0.1363,0.71474
647.652,69.8912,-3.19335,0.13795,0.71182
650.852,70.21225,-3.1956,0.13733,0.7089
654.052,70.53358,-3.19529,0.14229,0.70597
657.252,70.85406,-3.19812,0.13851,0.70304
660.452,71.17469,-3.19991,0.14285,0.70011
663.652,71.49577,-3.20282,0.14463,0.69718
666.852,71.81769,-3.20273,0.14581,0.69425
670.052,72.14058,-3.2024,0.14566,0.69132
673.252,72.46414,-3.20402,0.14699,0.68839
676.452,72.78834,-3.20569,0.15002,0.68545
679.652,73.1113,-3.20405,0.14922,0.68252
682.852,73.4344,-3.20585,0.15638,0.67958
686.052,73.75676,-3.20898,0.15435,0.67664
689.252,74.07852,-3.20638,0.15214,0.67371
692.452,74.40018,-3.21051,0.1553,0.67077
695.652,74.72221,-3.20886,0.15171,0.66783
698.852,75.04445,-3.20994,0.15475,0.6649
702.052,75.3681,-3.20887,0.15787,0.66196
705.252,75.6916,-3.21336,0.15672,0.65902
708.452,76.01536,-3.21204,0.15708,0.65609
711.652,76.33859,-3.21402,0.16366,0.65315
714.852,76.66248,-3.2147,0.16668,0.65022
718.052,76.98626,-3.21608,0.16337,0.64728
721.252,77.31013,-3.21589,0.16914,0.64435
724.452,77.63486,-3.219,0.16456,0.64142
727.652,77.9589,-3.21688,0.17238,0.63849
730.852,78.28267,-3.21708,0.16956,0.63556
734.052,78.60625,-3.21874,0.17537,0.63263
737.252,78.9302,-3.21874,0.17486,0.6297
740.452,79.2548,-3.21869,0.17949,0.62677
743.652,79.57903,-3.2194,0.17982,0.62385
746.852,79.90391,-3.22148,0.17892,0.62093
750.052,80.2276,-3.22083,0.17954,0.61801
753.252,80.55173,-3.22277,0.17933,0.61509
756.452,80.87597,-3.22141,0.17995,0.61217
759.652,81.20084,-3.22302,0.18401,0.60926
762.852,81.526,-3.22301,0.1909,0.60635
766.052,81.8518,-3.22293,0.18855,0.60344
769.252,82.1765,-3.22555,0.19075,0.60053
772.452,82.50154,-3.2263,0.19311,0.59762
775.652,82.82605,-3.22447,0.19386,0.59472
778.852,83.1493,-3.22683,0.19452,0.59182
782.052,83.47394,-3.22785,0.19573,0.58893
785.252,83.79849,-3.2285,0.20346,0.58603
788.452,84.12308,-3.23015,0.20171,0.58314
791.652,84.44866,-3.22986,0.20357,0.58026
794.852,84.7745,-3.23071,0.21029,0.57737
797.052,84.99891,-3.23148,0.21268,0.57539

File: Bamboo_Rug_A_STA_N2_10KData_220120_R3.csv
##Temp./Â°C,Time/min,Mass loss(subtr.)/mg,DSC(subtr.)/(mW/mg),Sensit./(uV/mW)
49.333,10.00917,-0.04969,0.01266697,1.07447
52.633,11.33458,-0.05264523,0.11428,1.07423
55.933,11.79804,-0.05461347,0.16019,1.07397
59.233,12.19463,-0.05582585,0.18725,1.07368
62.533,12.56667,-0.05654766,0.20601,1.07336
65.833,12.9293,-0.05879864,0.21795,1.07302
69.133,13.2866,-0.06043904,0.22741,1.07266
72.433,13.6384,-0.06174857,0.2382,1.07227
75.733,13.9862,-0.06443286,0.2453,1.07185
79.033,14.3287,-0.06370471,0.25182,1.07141
82.333,14.6685,-0.06701848,0.25616,1.07094
85.633,15.00409,-0.06898857,0.25882,1.07045
88.933,15.33716,-0.06964429,0.25533,1.06994
92.233,15.66787,-0.07225824,0.25433,1.06939
95.533,15.99581,-0.07360252,0.25291,1.06883
98.833,16.32096,-0.07227778,0.24895,1.06823
102.133,16.64574,-0.07490898,0.24556,1.06762
105.433,16.96791,-0.07622999,0.24567,1.06698
108.733,17.29026,-0.07622994,0.24423,1.06631
112.033,17.61205,-0.0791996,0.24185,1.06562
115.333,17.93478,-0.07886647,0.23995,1.06491
118.633,18.25682,-0.0800882,0.2413,1.06417
121.933,18.57818,-0.08116933,0.24324,1.0634
125.233,18.89936,-0.08116,0.24641,1.06261
128.533,19.21943,-0.08116477,0.25005,1.0618
131.833,19.53901,-0.08182002,0.2524,1.06096
135.133,19.85898,-0.08380977,0.2535,1.0601
138.433,20.17761,-0.08245418,0.25429,1.05922
141.733,20.49597,-0.08512627,0.25856,1.05831
145.033,20.81335,-0.08479,0.26407,1.05737
148.333,21.1297,-0.08643,0.26622,1.05642
151.633,21.446,-0.08552009,0.27081,1.05544
154.933,21.76193,-0.08807999,0.2758,1.05443
158.233,22.07795,-0.09072477,0.2777,1.0534
161.533,22.39485,-0.09071259,0.28147,1.05235
164.833,22.71169,-0.09222541,0.2863,1.05128
168.133,23.0291,-0.09334,0.28986,1.05018
171.433,23.34485,-0.09596989,0.29359,1.04906
174.733,23.66104,-0.09859009,0.29502,1.04791
178.033,23.9762,-0.09992001,0.29791,1.04675
181.333,24.29315,-0.1022,0.30457,1.04555
184.633,24.609,-0.1065,0.30873,1.04434
187.933,24.92486,-0.10851,0.31422,1.04311
191.233,25.23999,-0.1121,0.31883,1.04185
194.533,25.5546,-0.11431,0.32594,1.04057
197.833,25.86968,-0.1177,0.32881,1.03926
201.133,26.18447,-0.12362,0.33832,1.03794
204.433,26.49914,-0.12757,0.3434,1.03659
207.733,26.81375,-0.13142,0.34741,1.03522
211.033,27.1299,-0.13813,0.35332,1.03383
214.333,27.44415,-0.14335,0.35939,1.03242
217.633,27.7587,-0.14994,0.36323,1.03098
220.933,28.07338,-0.15777,0.35949,1.02952
224.233,28.3887,-0.16584,0.35729,1.02805
227.533,28.70242,-0.17536,0.35908,1.02655
230.833,29.01728,-0.18072,0.35671,1.02503
234.133,29.33108,-0.19424,0.35957,1.02348
237.433,29.64429,-0.20443,0.36101,1.02192
240.733,29.95935,-0.21938,0.35922,1.02034
244.033,30.2738,-0.229,0.36147,1.01873
247.333,30.5879,-0.24608,0.37305,1.01711
250.633,30.9022,-0.26059,0.37878,1.01546
253.933,31.21702,-0.27401,0.37928,1.0138
257.233,31.53138,-0.30106,0.36329,1.01211
260.533,31.8449,-0.3249,0.35565,1.01041
263.833,32.15783,-0.35545,0.35311,1.00868
267.133,32.47128,-0.37827,0.35201,1.00693
270.433,32.78573,-0.41136,0.34352,1.00517
273.733,33.10242,-0.45728,0.33532,1.00338
277.033,33.42,-0.50038,0.33151,1.00158
280.333,33.73908,-0.54698,0.32462,0.99975
283.633,34.0583,-0.59946,0.31919,0.99791
286.933,34.3762,-0.65443,0.31439,0.99605
290.233,34.6943,-0.71307,0.31612,0.99417
293.533,35.01145,-0.77465,0.31612,0.99227
296.833,35.32782,-0.83847,0.31364,0.99035
300.133,35.6436,-0.90512,0.319,0.98841
303.433,35.96053,-0.97164,0.31948,0.98646
306.733,36.27754,-1.04185,0.32034,0.98448
310.033,36.59496,-1.11156,0.32682,0.98249
313.333,36.9124,-1.17996,0.33166,0.98048
316.633,37.23039,-1.24963,0.33552,0.97845
319.933,37.5486,-1.31478,0.34417,0.97641
323.233,37.8671,-1.38629,0.35211,0.97435
326.533,38.18639,-1.45704,0.36776,0.97227
329.833,38.50415,-1.52858,0.38652,0.97017
333.133,38.82215,-1.60307,0.4071,0.96806
336.433,39.13926,-1.68459,0.43024,0.96592
339.733,39.45885,-1.77098,0.4614,0.96378
343.033,39.77832,-1.8673,0.49535,0.96161
346.333,40.0985,-1.97548,0.53754,0.95943
349.633,40.41852,-2.09962,0.58783,0.95724
352.933,40.73899,-2.24396,0.62623,0.95502
356.233,41.05823,-2.40277,0.61368,0.95279
359.533,41.3774,-2.5561,0.50317,0.95055
362.833,41.6952,-2.67012,0.33807,0.94829
366.133,42.01308,-2.74087,0.20314,0.94601
369.433,42.33189,-2.78193,0.12967,0.94372
372.733,42.65124,-2.80927,0.08933993,0.94141
376.033,42.97077,-2.82687,0.06730023,0.93909
379.333,43.29136,-2.84178,0.04981587,0.93676
382.633,43.61163,-2.85481,0.039376,0.93441
385.933,43.9324,-2.86659,0.02915976,0.93204
389.233,44.2542,-2.87611,0.02002748,0.92966
392.533,44.57553,-2.88967,0.009259752,0.92727
395.833,44.89734,-2.89969,0.002127694,0.92486
399.133,45.21856,-2.91091,-0.005671142,0.92243
402.433,45.54018,-2.91906,-0.01125552,0.92
405.733,45.86209,-2.92941,-0.01970464,0.91755
409.033,46.18335,-2.93719,-0.0191604,0.91508
412.333,46.5055,-2.94874,-0.02498057,0.91261
415.633,46.82873,-2.9568,-0.02974749,0.91012
418.933,47.15188,-2.96803,-0.03185042,0.90762
422.233,47.47481,-2.97676,-0.03252865,0.9051
425.533,47.79828,-2.98247,-0.03233537,0.90257
428.833,48.12175,-2.99077,-0.03011745,0.90003
432.133,48.44614,-3.0002,-0.03302581,0.89748
435.433,48.7708,-3.00719,-0.0255675,0.89491
438.733,49.09523,-3.01442,-0.02192399,0.89233
442.033,49.42028,-3.02385,-0.01829063,0.88975
445.333,49.74532,-3.02931,-0.01320726,0.88714
448.633,50.0694,-3.03907,-0.008885293,0.88453
451.933,50.3956,-3.04299,-0.00492187,0.88191
455.233,50.7209,-3.04625,-0.001565771,0.87927
458.533,51.0465,-3.05507,0.00143789,0.87663
461.833,51.3709,-3.05902,0.001039725,0.87397
465.133,51.69676,-3.0643,-9.370484e-05,0.8713
468.433,52.02135,-3.06823,0.00603148,0.86862
471.733,52.34519,-3.07392,0.00829228,0.86594
475.033,52.6688,-3.07856,0.01729985,0.86324
478.333,52.99301,-3.08263,0.02531671,0.86053
481.633,53.31782,-3.08878,0.03137532,0.85781
484.933,53.64305,-3.09075,0.03430524,0.85508
488.233,53.96886,-3.09468,0.04493941,0.85234
491.533,54.29453,-3.10126,0.05187121,0.84959
494.833,54.62095,-3.10501,0.05606741,0.84684
498.133,54.9479,-3.10784,0.05893321,0.84407
501.433,55.2749,-3.11174,0.06082226,0.8413
504.733,55.602,-3.1151,0.06242636,0.83851
508.033,55.92884,-3.11705,0.05846998,0.83572
511.333,56.25569,-3.1211,0.05417897,0.83292
514.633,56.58302,-3.12441,0.05445379,0.83011
517.933,56.9108,-3.12704,0.03493533,0.82729
521.233,57.23817,-3.13132,0.02380188,0.82447
524.533,57.56598,-3.13396,0.02028786,0.82164
527.833,57.89376,-3.13787,0.01695261,0.81879
531.133,58.221,-3.14021,0.01269603,0.81595
534.433,58.5488,-3.14152,0.01015504,0.81309
537.733,58.87639,-3.14414,0.00749041,0.81023
541.033,59.204,-3.14667,0.005583825,0.80736
544.333,59.5322,-3.14922,0.002286223,0.80448
547.633,59.8606,-3.15227,0.001410286,0.8016
550.933,60.19015,-3.1549,-0.00135742,0.79871
554.233,60.5194,-3.15656,-0.008413689,0.79581
557.533,60.8482,-3.16151,-0.0104985,0.79291
560.833,61.17695,-3.1628,-0.01067683,0.79
564.133,61.50545,-3.16576,-0.009176635,0.78709
567.433,61.83404,-3.16707,-0.01379943,0.78417
570.733,62.1631,-3.16935,-0.01333041,0.78124
574.033,62.4929,-3.1697,-0.01710525,0.77831
577.333,62.82224,-3.17451,-0.01923897,0.77537
580.633,63.15172,-3.17464,-0.01825123,0.77243
583.933,63.481,-3.17764,-0.01692268,0.76948
587.233,63.81119,-3.17991,-0.01953771,0.76653
590.533,64.14052,-3.18155,-0.02336399,0.76358
593.833,64.4703,-3.18157,-0.02008724,0.76062
597.133,64.80028,-3.18682,-0.01886647,0.75765
600.433,65.13118,-3.18687,-0.01466598,0.75468
603.733,65.4615,-3.18921,-0.0186792,0.75171
607.033,65.79171,-3.19188,-0.01536459,0.74873
610.333,66.12223,-3.19187,-0.01013608,0.74575
613.633,66.45187,-3.19483,-0.006955028,0.74276
616.933,66.78317,-3.19585,-0.007302594,0.73978
620.233,67.11392,-3.19844,0.0005117731,0.73678
623.533,67.4449,-3.19966,-0.001254544,0.73379
626.833,67.77595,-3.20141,0.00204119,0.73079
630.133,68.1082,-3.20206,-0.0009322798,0.72779
633.433,68.4383,-3.20383,-0.001390994,0.72479
636.733,68.76871,-3.20546,-0.000723918,0.72178
640.033,69.09949,-3.20711,0.001512804,0.71877
643.333,69.4316,-3.20678,0.003146479,0.71576
646.633,69.76239,-3.2104,0.001458203,0.71275
649.933,70.09483,-3.21141,-0.003293978,0.70974
653.233,70.42612,-3.20777,-0.00328268,0.70672
656.533,70.75838,-3.21373,-0.001484225,0.7037
659.833,71.09065,-3.21499,-0.007209423,0.70068
663.133,71.42333,-3.21569,-0.00384882,0.69766
666.433,71.75584,-3.21566,-0.0025895,0.69464
669.733,72.08861,-3.22093,-0.004763278,0.69161
673.033,72.42147,-3.2183,-0.00488404,0.68859
676.333,72.75389,-3.21961,-0.004041825,0.68556
679.633,73.08641,-3.22079,-0.002949313,0.68253
682.933,73.4186,-3.22196,-0.002022185,0.67951
686.233,73.75102,-3.22225,-0.001523025,0.67648
689.533,74.0839,-3.22493,-0.00551194,0.67345
692.833,74.4171,-3.22226,-0.007764345,0.67042
696.133,74.75069,-3.22488,-0.00907585,0.66739
699.433,75.0843,-3.22586,-0.01356835,0.66436
702.733,75.4173,-3.2258,-0.01279472,0.66134
706.033,75.7505,-3.22883,-0.0130031,0.65831
709.333,76.0832,-3.22994,-0.01569598,0.65528
712.633,76.41627,-3.23138,-0.01624941,0.65225
715.933,76.75,-3.23212,-0.01350416,0.64923
719.233,77.08369,-3.2341,-0.01921895,0.6462
722.533,77.41757,-3.23285,-0.01577613,0.64318
725.833,77.75219,-3.23343,-0.0209162,0.64015
729.133,78.08585,-3.23409,-0.02217296,0.63713
732.433,78.41995,-3.2341,-0.02411867,0.63411
735.733,78.7537,-3.23781,-0.02527869,0.63109
739.033,79.08787,-3.23673,-0.02341004,0.62807
742.333,79.42228,-3.23682,-0.03062457,0.62506
745.633,79.75685,-3.23805,-0.02935307,0.62204
748.933,80.09222,-3.23667,-0.0317227,0.61903
752.233,80.42764,-3.23936,-0.034191,0.61602
755.533,80.762,-3.23751,-0.03733803,0.61301
758.833,81.09558,-3.23822,-0.03967848,0.61
762.133,81.42974,-3.23871,-0.04399827,0.607
765.433,81.765,-3.2396,-0.0465223,0.604
768.733,82.09958,-3.24298,-0.04824624,0.601
772.033,82.4345,-3.24138,-0.05205312,0.598
775.333,82.76982,-3.24166,-0.04824714,0.59501
778.633,83.1049,-3.24169,-0.05622885,0.59202
781.933,83.44064,-3.24336,-0.05317658,0.58903
785.233,83.77707,-3.24561,-0.05953239,0.58605
788.533,84.11245,-3.2444,-0.0616706,0.58307
791.833,84.44685,-3.24567,-0.06607471,0.58009
795.133,84.78125,-3.2443,-0.06895701,0.57712
797.233,84.99444,-3.24691,-0.07137671,0.57523