Folder: fsri_materials_database/01_Data/Bamboo_Rug_Bamboo/STA/N2/30K_min

Note: 01_Data/README.md
# Materials and Products Database
## 01_Data

Raw data generated from each apparatus are included here in plain-text format. The data is organized first by material, next by the short name of test apparatus used, and where applicable additional filtering by test settings.

### material.json

Each material directory contains a json file of the same name as the material. This file links the data stored in the repository as well as data and graphs produced by the accompanying scripts (__02_Scripts__) to the respective landing page for the material on the front-end website.

File: Bamboo_Rug_A_STA_N2_30KData_220121_R2.csv
##Temp./Â°C,Time/min,Mass loss(subtr.2)/mg,DSC(subtr.2)/(mW/mg),Sensit./(uV/mW)
48.468,10.00917,-0.00757,0.00889408,1.06964
51.768,10.88397,-0.005371219,0.16931,1.06934
55.068,11.12078,-0.007532348,0.27224,1.06901
58.368,11.3025,-0.006870069,0.35423,1.06865
61.668,11.45953,-0.008693587,0.42123,1.06825
64.968,11.60413,-0.008680253,0.47507,1.06783
68.268,11.7392,-0.007680685,0.52412,1.06738
71.568,11.86801,-0.008915957,0.5636,1.0669
74.868,11.9932,-0.008827279,0.60048,1.06639
78.168,12.11552,-0.009175473,0.63242,1.06585
81.468,12.23511,-0.009945279,0.66295,1.06528
84.768,12.3528,-0.01106718,0.6909,1.06468
88.068,12.46902,-0.01305825,0.71383,1.06405
91.368,12.58334,-0.014006,0.73834,1.06339
94.668,12.6968,-0.01317453,0.7617,1.06271
97.968,12.80981,-0.01447968,0.77721,1.06199
101.268,12.92145,-0.01579369,0.79085,1.06125
104.568,13.03324,-0.01712125,0.80344,1.06048
107.868,13.14485,-0.01842251,0.81029,1.05968
111.168,13.25566,-0.01699349,0.8152,1.05885
114.468,13.36648,-0.01647214,0.81857,1.05799
117.768,13.47674,-0.02008192,0.81634,1.05711
121.068,13.5868,-0.0204003,0.81823,1.05619
124.368,13.69643,-0.02176221,0.8215,1.05526
127.668,13.8053,-0.02073508,0.82384,1.05429
130.968,13.91363,-0.021727,0.82434,1.0533
134.268,14.02149,-0.02116777,0.82936,1.05227
137.568,14.12868,-0.02171933,0.83751,1.05123
140.868,14.2354,-0.02271718,0.84404,1.05015
144.168,14.3415,-0.02303,0.85579,1.04905
147.468,14.4473,-0.02303141,0.8648,1.04793
150.768,14.5523,-0.02435,0.87891,1.04677
154.068,14.65754,-0.02533097,0.89122,1.0456
157.368,14.7622,-0.02538179,0.90439,1.04439
160.668,14.86641,-0.02566934,0.91812,1.04316
163.968,14.97044,-0.02697169,0.93084,1.04191
167.268,15.07427,-0.02863087,0.94524,1.04063
170.568,15.17786,-0.02826864,0.95874,1.03932
173.868,15.28095,-0.0296312,0.97281,1.03799
177.168,15.38389,-0.03090808,0.98545,1.03664
180.468,15.4865,-0.0312696,1.00151,1.03526
183.768,15.5886,-0.03256519,1.01309,1.03386
187.068,15.69041,-0.03520943,1.02876,1.03243
190.368,15.79199,-0.03520602,1.04355,1.03098
193.668,15.8933,-0.03625992,1.06093,1.02951
196.968,15.99425,-0.03805319,1.07939,1.02801
200.268,16.09533,-0.04080095,1.09732,1.0265
203.568,16.1961,-0.04462796,1.1132,1.02495
206.868,16.29684,-0.04764177,1.1309,1.02339
210.168,16.3973,-0.05026992,1.14879,1.0218
213.468,16.49755,-0.05280178,1.16533,1.02019
216.768,16.59843,-0.05457275,1.18217,1.01856
220.068,16.69849,-0.05973145,1.19351,1.0169
223.368,16.79891,-0.06656081,1.20588,1.01523
226.668,16.8991,-0.07095277,1.21911,1.01353
229.968,16.99924,-0.07590305,1.22656,1.01181
233.268,17.09931,-0.08248193,1.2344,1.01008
236.568,17.1994,-0.08917911,1.24378,1.00832
239.868,17.29926,-0.09619052,1.25373,1.00654
243.168,17.3992,-0.10288,1.26805,1.00474
246.468,17.499,-0.11264,1.28799,1.00292
249.768,17.5989,-0.12063,1.30402,1.00108
253.068,17.69874,-0.12884,1.28982,0.99922
256.368,17.7982,-0.13983,1.26546,0.99734
259.668,17.89786,-0.14855,1.24863,0.99544
262.968,17.9976,-0.16111,1.24052,0.99352
266.268,18.0972,-0.17589,1.23574,0.99159
269.568,18.1967,-0.19163,1.23034,0.98963
272.868,18.2962,-0.20943,1.22704,0.98766
276.168,18.3959,-0.23048,1.21543,0.98567
279.468,18.49536,-0.25491,1.20758,0.98366
282.768,18.59507,-0.27919,1.19159,0.98163
286.068,18.69474,-0.30859,1.17305,0.97959
289.368,18.79433,-0.34421,1.15042,0.97753
292.668,18.89387,-0.38081,1.12634,0.97545
295.968,18.99363,-0.42451,1.10152,0.97335
299.268,19.09325,-0.4701,1.07396,0.97124
302.568,19.19285,-0.51953,1.04384,0.96912
305.868,19.29251,-0.57458,1.01515,0.96697
309.168,19.39251,-0.635,0.98491,0.96481
312.468,19.49223,-0.69638,0.95818,0.96264
315.768,19.5921,-0.76081,0.93611,0.96045
319.068,19.69214,-0.82935,0.91865,0.95824
322.368,19.7921,-0.90023,0.90583,0.95602
325.668,19.8923,-0.969,0.89935,0.95379
328.968,19.99259,-1.04153,0.90322,0.95154
332.268,20.09295,-1.10842,0.90983,0.94927
335.568,20.19351,-1.17819,0.92238,0.947
338.868,20.29414,-1.24769,0.94133,0.94471
342.168,20.39493,-1.31878,0.96806,0.9424
345.468,20.49592,-1.38654,1.00345,0.94008
348.768,20.597,-1.45853,1.04212,0.93775
352.068,20.69821,-1.53215,1.09272,0.93541
355.368,20.79963,-1.61309,1.15303,0.93305
358.668,20.90126,-1.69542,1.23158,0.93068
361.968,21.0027,-1.79206,1.32128,0.9283
365.268,21.10444,-1.89599,1.43107,0.92591
368.568,21.2063,-2.02087,1.54409,0.9235
371.868,21.30827,-2.15994,1.62168,0.92108
375.168,21.41039,-2.31388,1.58164,0.91865
378.468,21.51236,-2.46675,1.36755,0.91621
381.768,21.61439,-2.59085,1.03653,0.91376
385.068,21.71619,-2.68265,0.7309,0.9113
388.368,21.8179,-2.73712,0.512,0.90883
391.668,21.91992,-2.77341,0.37683,0.90635
394.968,22.0218,-2.79625,0.2905,0.90386
398.268,22.12409,-2.81234,0.2317,0.90135
401.568,22.22616,-2.82732,0.18762,0.89884
404.868,22.3287,-2.84071,0.14874,0.89632
408.168,22.43112,-2.85368,0.11615,0.89379
411.468,22.5337,-2.86497,0.08767586,0.89125
414.768,22.6363,-2.87657,0.06171573,0.8887
418.068,22.73939,-2.88895,0.03844246,0.88615
421.368,22.84231,-2.90026,0.0182829,0.88358
424.668,22.9453,-2.90852,-0.006158615,0.88101
427.968,23.04862,-2.91782,-0.02388413,0.87843
431.268,23.15193,-2.92678,-0.03849046,0.87584
434.568,23.2553,-2.9364,-0.05199929,0.87324
437.868,23.3591,-2.94386,-0.06255793,0.87064
441.168,23.46264,-2.95308,-0.06729698,0.86803
444.468,23.5664,-2.96219,-0.07002204,0.86541
447.768,23.67031,-2.96944,-0.06946784,0.86278
451.068,23.77443,-2.97854,-0.06652228,0.86015
454.368,23.87846,-2.9861,-0.06258445,0.85751
457.668,23.98259,-2.99679,-0.05235634,0.85487
460.968,24.08693,-3.0018,-0.04312695,0.85222
464.268,24.19126,-3.00935,-0.03223814,0.84956
467.568,24.2956,-3.01412,-0.02018568,0.8469
470.868,24.40028,-3.02251,-0.007304828,0.84423
474.168,24.50498,-3.02705,0.003836135,0.84156
477.468,24.60961,-3.0343,0.0148886,0.83888
480.768,24.71448,-3.04114,0.02432626,0.8362
484.068,24.81956,-3.04622,0.03379003,0.83351
487.368,24.92478,-3.05269,0.04060037,0.83082
490.668,25.03,-3.05703,0.04628223,0.82812
493.968,25.13516,-3.06145,0.05191698,0.82542
497.268,25.24069,-3.06698,0.05521134,0.82271
500.568,25.3461,-3.0717,0.06234747,0.82
503.868,25.45182,-3.0768,0.06084244,0.81729
507.168,25.55738,-3.07933,0.0647576,0.81458
510.468,25.66329,-3.08368,0.06484614,0.81186
513.768,25.76923,-3.08821,0.06823567,0.80913
517.068,25.87529,-3.09226,0.07046176,0.80641
520.368,25.98149,-3.09676,0.06961805,0.80368
523.668,26.0876,-3.10003,0.06839905,0.80095
526.968,26.19388,-3.10373,0.06717904,0.79821
530.268,26.3002,-3.10887,0.06841547,0.79548
533.568,26.4065,-3.11015,0.06761138,0.79274
536.868,26.5133,-3.11451,0.06751866,0.79
540.168,26.62003,-3.11768,0.06718664,0.78725
543.468,26.72673,-3.11967,0.06993018,0.78451
546.768,26.8335,-3.12283,0.07224084,0.78176
550.068,26.94065,-3.12506,0.0744819,0.77902
553.368,27.0473,-3.12821,0.07759657,0.77627
556.668,27.1542,-3.13296,0.0771765,0.77352
559.968,27.26121,-3.13383,0.07972932,0.77077
563.268,27.36835,-3.1368,0.08088738,0.76801
566.568,27.47555,-3.1396,0.0781309,0.76526
569.868,27.58288,-3.14392,0.07767072,0.76251
573.168,27.69002,-3.14513,0.07377447,0.75975
576.468,27.79757,-3.14775,0.07227936,0.757
579.768,27.9049,-3.15013,0.06478013,0.75424
583.068,28.01223,-3.15184,0.06030296,0.75149
586.368,28.1197,-3.15316,0.05758041,0.74873
589.668,28.2274,-3.15578,0.05313362,0.74598
592.968,28.33488,-3.15711,0.04613925,0.74322
596.268,28.44264,-3.16125,0.04106797,0.74047
599.568,28.5505,-3.16377,0.03429591,0.73772
602.868,28.65836,-3.16511,0.02869977,0.73496
606.168,28.76667,-3.16675,0.02377518,0.73221
609.468,28.875,-3.17047,0.01557424,0.72946
612.768,28.9833,-3.17178,0.01144983,0.72671
616.068,29.09164,-3.17306,0.005883086,0.72396
619.368,29.2001,-3.17574,0.0003447221,0.72121
622.668,29.3086,-3.17673,-0.004687653,0.71847
625.968,29.41712,-3.17837,-0.008570262,0.71572
629.268,29.52569,-3.18102,-0.01301526,0.71298
632.568,29.6342,-3.18386,-0.02206113,0.71024
635.868,29.74288,-3.18518,-0.02545344,0.7075
639.168,29.8518,-3.18779,-0.02855918,0.70476
642.468,29.96037,-3.18785,-0.03052643,0.70202
645.768,30.06928,-3.18913,-0.03469904,0.69929
649.068,30.1782,-3.18913,-0.0362874,0.69656
652.368,30.2871,-3.1902,-0.04472172,0.69383
655.668,30.39609,-3.19406,-0.0454484,0.6911
658.968,30.50504,-3.19404,-0.0499557,0.68837
662.268,30.61403,-3.19559,-0.05390647,0.68565
665.568,30.72311,-3.1956,-0.05804125,0.68293
668.868,30.83225,-3.1996,-0.06245813,0.68021
672.168,30.9413,-3.20086,-0.06582795,0.6775
675.468,31.05041,-3.20263,-0.06690816,0.67479
678.768,31.1597,-3.20382,-0.07657956,0.67208
682.068,31.26898,-3.20382,-0.08244858,0.66937
685.368,31.37825,-3.20488,-0.08845064,0.66667
688.668,31.4875,-3.20528,-0.09192994,0.66397
691.968,31.59675,-3.20786,-0.10147,0.66128
695.268,31.7061,-3.20624,-0.10719,0.65858
698.568,31.8157,-3.2076,-0.11632,0.65589
701.868,31.92507,-3.20764,-0.12167,0.65321
705.168,32.03461,-3.21127,-0.13157,0.65053
708.468,32.1442,-3.21281,-0.13586,0.64785
711.768,32.2539,-3.21281,-0.14375,0.64517
715.068,32.36337,-3.21419,-0.15289,0.6425
718.368,32.47317,-3.21282,-0.15717,0.63984
721.668,32.58296,-3.21414,-0.15968,0.63717
724.968,32.69245,-3.21522,-0.16599,0.63451
728.268,32.8027,-3.21545,-0.17445,0.63186
731.568,32.91222,-3.21808,-0.181,0.62921
734.868,33.02219,-3.21808,-0.18461,0.62656
738.168,33.1323,-3.2194,-0.18687,0.62392
741.468,33.2423,-3.22076,-0.20169,0.62128
744.768,33.35253,-3.22138,-0.20261,0.61865
748.068,33.46287,-3.22269,-0.20611,0.61602
751.368,33.57328,-3.22204,-0.20982,0.61339
754.668,33.68373,-3.22335,-0.21821,0.61077
757.968,33.7941,-3.22334,-0.21201,0.60815
761.268,33.90465,-3.22564,-0.22177,0.60554
764.568,34.01525,-3.22565,-0.22504,0.60294
767.868,34.12587,-3.22733,-0.22578,0.60033
771.168,34.2365,-3.22495,-0.23154,0.59774
774.468,34.34732,-3.22871,-0.23007,0.59514
777.768,34.45856,-3.23004,-0.23417,0.59256
781.068,34.5694,-3.22872,-0.23901,0.58997
784.368,34.68051,-3.22881,-0.23979,0.58739
787.668,34.79136,-3.23003,-0.24021,0.58482
790.968,34.9026,-3.23136,-0.2342,0.58225
793.768,34.99687,-3.23267,-0.24165,0.58008