Folder: fsri_materials_database/01_Data/Bamboo_Rug_Bamboo/STA/N2/3K_min

Note: 01_Data/README.md
# Materials and Products Database
## 01_Data

Raw data generated from each apparatus are included here in plain-text format. The data is organized first by material, next by the short name of test apparatus used, and where applicable additional filtering by test settings.

### material.json

Each material directory contains a json file of the same name as the material. This file links the data stored in the repository as well as data and graphs produced by the accompanying scripts (__02_Scripts__) to the respective landing page for the material on the front-end website.

File: Bamboo_Rug_A_STA_N2_3KData_220121_R1.csv
##Temp./Â°C,Time/min,Mass loss(subtr.2)/mg,DSC(subtr.2)/(mW/mg),Sensit./(uV/mW)
50.001,10.0158,-0.01437,0.009455549,1.06378
53.401,12.39707,-0.01646002,0.05255657,1.06297
56.801,13.66645,-0.0174524,0.05769223,1.06214
60.201,14.87855,-0.02138108,0.06229772,1.06131
63.601,16.0472,-0.02116697,0.06726791,1.06048
67.001,17.2092,-0.02244837,0.0699936,1.05964
70.401,18.35164,-0.02344165,0.06787277,1.05879
73.801,19.4992,-0.02513012,0.06458382,1.05794
77.201,20.6435,-0.02640188,0.06111633,1.05708
80.601,21.77856,-0.02577983,0.06064919,1.05622
84.001,22.91085,-0.02860843,0.05964163,1.05535
87.401,24.0502,-0.02742991,0.05523388,1.05448
90.801,25.18609,-0.03005912,0.05295154,1.05359
94.201,26.31253,-0.02873296,0.05278206,1.05271
97.601,27.43713,-0.02919209,0.05191481,1.05181
101.001,28.57033,-0.03167333,0.05188875,1.05091
104.401,29.69728,-0.03005991,0.05488837,1.05
107.801,30.8151,-0.03272703,0.0542487,1.04908
111.201,31.94186,-0.03334995,0.05556808,1.04816
114.601,33.0659,-0.03236,0.05617873,1.04722
118.001,34.18571,-0.03322746,0.05881637,1.04628
121.401,35.30537,-0.03532052,0.05764678,1.04534
124.801,36.4212,-0.03400931,0.05783623,1.04438
128.201,37.5434,-0.03532684,0.05730045,1.04342
131.601,38.6637,-0.03666295,0.05977206,1.04244
135.001,39.78801,-0.03729995,0.06029094,1.04146
138.401,40.9036,-0.03986417,0.06169545,1.04047
141.801,42.01778,-0.04057997,0.06544908,1.03947
145.201,43.12703,-0.04089672,0.06621861,1.03846
148.601,44.24125,-0.04124932,0.06441012,1.03744
152.001,45.35957,-0.04423757,0.06745499,1.03641
155.401,46.47143,-0.04636739,0.06853048,1.03538
158.801,47.58355,-0.04705995,0.06918518,1.03433
162.201,48.69403,-0.04871161,0.07318424,1.03327
165.601,49.80549,-0.05349607,0.07348237,1.0322
169.001,50.9111,-0.05494653,0.07451272,1.03112
172.401,52.02126,-0.05823705,0.07548594,1.03003
175.801,53.1292,-0.06090744,0.07729751,1.02893
179.201,54.23635,-0.06482832,0.0793183,1.02782
182.601,55.3431,-0.06965854,0.08301566,1.0267
186.001,56.44825,-0.07426305,0.08610024,1.02556
189.401,57.5506,-0.07918914,0.08782073,1.02441
192.801,58.6578,-0.08525597,0.08919351,1.02326
196.201,59.7596,-0.09038998,0.09157787,1.02208
199.601,60.8631,-0.09664193,0.0938571,1.0209
203.001,61.97084,-0.10355,0.09432795,1.01971
206.401,63.08138,-0.11117,0.09334545,1.0185
209.801,64.1857,-0.11968,0.09438358,1.01728
213.201,65.28867,-0.12888,0.09354014,1.01605
216.601,66.39562,-0.13842,0.09563898,1.0148
220.001,67.50367,-0.14941,0.09140069,1.01354
223.401,68.60149,-0.16047,0.09037363,1.01227
226.801,69.70536,-0.17264,0.09116008,1.01098
230.201,70.80892,-0.18939,0.09399421,1.00968
233.601,71.9114,-0.20477,0.09073369,1.00837
237.001,73.0118,-0.2252,0.08905051,1.00704
240.401,74.11686,-0.2488,0.09088404,1.0057
243.801,75.2187,-0.27708,0.09223008,1.00434
247.201,76.33103,-0.30674,0.09121181,1.00297
250.601,77.43078,-0.34136,0.0969976,1.00158
254.001,78.52922,-0.37833,0.09908388,1.00018
257.401,79.6331,-0.42178,0.09229419,0.99876
260.801,80.7305,-0.46873,0.09067236,0.99733
264.201,81.83064,-0.51904,0.08378017,0.99588
267.601,82.9414,-0.57467,0.08333959,0.99442
271.001,84.04642,-0.63352,0.08480901,0.99294
274.401,85.14341,-0.69677,0.08632236,0.99145
277.801,86.25177,-0.76236,0.08467722,0.98994
281.201,87.34792,-0.83184,0.08889941,0.98841
284.601,88.4554,-0.90105,0.08487493,0.98686
288.001,89.567,-0.97528,0.08859554,0.98531
291.401,90.67706,-1.04763,0.08727005,0.98373
294.801,91.81697,-1.12126,0.08622833,0.98214
298.201,92.94187,-1.19713,0.09255131,0.98053
301.601,94.04202,-1.27046,0.09576732,0.9789
305.001,95.1503,-1.34432,0.0983467,0.97725
308.401,96.2576,-1.41989,0.10043,0.97559
311.801,97.36888,-1.50045,0.10575,0.97391
315.201,98.47758,-1.58491,0.11377,0.97222
318.601,99.58545,-1.67317,0.11881,0.9705
322.001,100.695,-1.77127,0.12889,0.96877
325.401,101.81,-1.87866,0.13764,0.96702
328.801,102.921,-1.99987,0.15004,0.96525
332.201,104.0351,-2.13855,0.16591,0.96347
335.601,105.144,-2.29563,0.17469,0.96166
339.001,106.26,-2.4591,0.15074,0.95984
342.401,107.366,-2.59857,0.09391153,0.958
345.801,108.4686,-2.68786,0.03998712,0.95614
349.201,109.581,-2.7387,0.001656968,0.95426
352.601,110.697,-2.76563,-0.01114801,0.95236
356.001,111.81,-2.78815,-0.01709553,0.95045
359.401,112.922,-2.80644,-0.01840023,0.94851
362.801,114.039,-2.82158,-0.02168521,0.94656
366.201,115.152,-2.83548,-0.02416159,0.94459
369.601,116.269,-2.84764,-0.02841102,0.9426
373.001,117.39,-2.86095,-0.02833274,0.94058
376.401,118.509,-2.87287,-0.03194373,0.93855
379.801,119.617,-2.88355,-0.03471593,0.9365
383.201,120.735,-2.89573,-0.03829639,0.93443
386.601,121.862,-2.90731,-0.04170565,0.93235
390.001,122.985,-2.91608,-0.0432148,0.93024
393.401,124.102,-2.92895,-0.04094723,0.92811
396.801,125.218,-2.93948,-0.04574287,0.92596
400.201,126.337,-2.94658,-0.04533341,0.92379
403.601,127.456,-2.95528,-0.0441785,0.92161
407.001,128.579,-2.96416,-0.04500585,0.9194
410.401,129.699,-2.97338,-0.04491918,0.91717
413.801,130.819,-2.98094,-0.04413719,0.91493
417.201,131.943,-2.98983,-0.04308052,0.91266
420.601,133.06,-2.99783,-0.04207733,0.91037
424.001,134.178,-3.00552,-0.04563645,0.90807
427.401,135.305,-3.01253,-0.04436978,0.90574
430.801,136.432,-3.01973,-0.04323059,0.90339
434.201,137.553,-3.0237,-0.04269439,0.90103
437.601,138.671,-3.03162,-0.03424243,0.89864
441.001,139.799,-3.03719,-0.02824126,0.89623
444.401,140.9247,-3.04378,-0.02488889,0.89381
447.801,142.047,-3.04784,-0.02399066,0.89136
451.201,143.169,-3.0539,-0.02628839,0.88889
454.601,144.295,-3.05783,-0.02896978,0.88641
458.001,145.424,-3.06312,-0.02817576,0.8839
461.401,146.56,-3.06738,-0.04056313,0.88138
464.801,147.69,-3.07178,-0.05504245,0.87883
468.201,148.818,-3.07787,-0.0581767,0.87626
471.601,149.946,-3.08055,-0.06077076,0.87368
475.001,151.074,-3.08383,-0.06367865,0.87107
478.401,152.206,-3.08844,-0.06779771,0.86845
481.801,153.331,-3.09239,-0.07166832,0.8658
485.201,154.461,-3.09453,-0.07706666,0.86314
488.601,155.5948,-3.09831,-0.08353175,0.86045
492.001,156.728,-3.10388,-0.08902507,0.85775
495.401,157.858,-3.10802,-0.09062048,0.85502
498.801,158.989,-3.11044,-0.10104,0.85228
502.201,160.118,-3.11373,-0.10588,0.84952
505.601,161.252,-3.11693,-0.1124,0.84674
509.001,162.38,-3.11838,-0.11587,0.84393
512.401,163.515,-3.12068,-0.11848,0.84111
515.801,164.663,-3.12299,-0.12114,0.83827
519.201,165.792,-3.12497,-0.12358,0.83542
522.601,166.92,-3.12891,-0.12076,0.83254
526.001,168.053,-3.13425,-0.12106,0.82964
529.401,169.195,-3.13646,-0.11967,0.82673
532.801,170.328,-3.13957,-0.11682,0.82379
536.201,171.461,-3.14176,-0.11653,0.82084
539.601,172.597,-3.14469,-0.11808,0.81787
543.001,173.74,-3.14768,-0.11538,0.81488
546.401,174.874,-3.14898,-0.12211,0.81187
549.801,176.008,-3.15065,-0.12046,0.80885
553.201,177.143,-3.15293,-0.1163,0.8058
556.601,178.2799,-3.15388,-0.11449,0.80274
560.001,179.426,-3.15818,-0.1145,0.79966
563.401,180.566,-3.15984,-0.11221,0.79657
566.801,181.702,-3.16228,-0.10639,0.79345
570.201,182.842,-3.16379,-0.10482,0.79032
573.601,183.9752,-3.16544,-0.10174,0.78717
577.001,185.114,-3.16831,-0.10511,0.784
580.401,186.261,-3.16906,-0.09798048,0.78082
583.801,187.401,-3.17169,-0.09239243,0.77762
587.201,188.539,-3.17443,-0.09202669,0.77441
590.601,189.682,-3.17399,-0.08908201,0.77117
594.001,190.822,-3.17598,-0.08755691,0.76793
597.401,191.966,-3.17729,-0.08588582,0.76466
600.801,193.115,-3.17797,-0.08230277,0.76138
604.201,194.251,-3.18123,-0.08067272,0.75808
607.601,195.387,-3.18255,-0.08026572,0.75477
611.001,196.542,-3.18551,-0.08483353,0.75144
614.401,197.68,-3.18769,-0.08086146,0.7481
617.801,198.824,-3.18756,-0.0821685,0.74474
621.201,199.965,-3.18946,-0.08363077,0.74137
624.601,201.1064,-3.19012,-0.07910864,0.73798
628.001,202.251,-3.19112,-0.07590016,0.73458
631.401,203.397,-3.19209,-0.06854192,0.73116
634.801,204.532,-3.19307,-0.06938679,0.72773
638.201,205.68,-3.19426,-0.07247607,0.72429
641.601,206.829,-3.19499,-0.0718397,0.72083
645.001,207.974,-3.19716,-0.07063661,0.71736
648.401,209.123,-3.1957,-0.07135488,0.71387
651.801,210.266,-3.19867,-0.06912632,0.71037
655.201,211.41,-3.19734,-0.07110405,0.70686
658.601,212.55,-3.19637,-0.07045301,0.70334
662.001,213.702,-3.2,-0.06979223,0.6998
665.401,214.848,-3.20092,-0.06282957,0.69626
668.801,215.99,-3.2013,-0.06850277,0.6927
672.201,217.141,-3.20299,-0.06632188,0.68912
675.601,218.286,-3.20362,-0.06676385,0.68554
679.001,219.425,-3.20393,-0.06441231,0.68194
682.401,220.58,-3.2034,-0.06746329,0.67834
685.801,221.7232,-3.20459,-0.06562839,0.67472
689.201,222.87,-3.20789,-0.06491184,0.67109
692.601,224.017,-3.20953,-0.07019176,0.66746
696.001,225.164,-3.20953,-0.07639727,0.66381
699.401,226.317,-3.21194,-0.07860858,0.66015
702.801,227.461,-3.2117,-0.07988559,0.65648
706.201,228.613,-3.21391,-0.08928605,0.65281
709.601,229.7561,-3.21591,-0.09164908,0.64912
713.001,230.903,-3.21557,-0.09605389,0.64543
716.401,232.053,-3.21917,-0.10577,0.64172
719.801,233.211,-3.21925,-0.11407,0.63801
723.201,234.357,-3.21918,-0.11517,0.63429
726.601,235.5113,-3.21907,-0.12301,0.63056
730.001,236.66,-3.21986,-0.13124,0.62683
733.401,237.806,-3.22076,-0.13315,0.62308
736.801,238.959,-3.22314,-0.13565,0.61933
740.201,240.108,-3.22577,-0.13844,0.61558
743.601,241.266,-3.22514,-0.14892,0.61181
747.001,242.413,-3.22465,-0.15018,0.60804
750.401,243.562,-3.22511,-0.15558,0.60427
753.801,244.713,-3.2261,-0.16823,0.60048
757.201,245.861,-3.22708,-0.1758,0.5967
760.601,247.015,-3.23103,-0.18084,0.5929
764.001,248.17,-3.22972,-0.17888,0.58911
767.401,249.315,-3.23267,-0.18137,0.5853
770.801,250.473,-3.233,-0.19028,0.5815
774.201,251.623,-3.23238,-0.18426,0.57769
777.601,252.78,-3.23432,-0.18933,0.57387
781.001,253.934,-3.23333,-0.18552,0.57005
784.401,255.088,-3.23498,-0.19201,0.56623
787.801,256.235,-3.23463,-0.1957,0.5624
791.201,257.391,-3.23497,-0.20887,0.55858
794.601,258.55,-3.23597,-0.21325,0.55474
798.001,259.699,-3.23629,-0.21635,0.55091
798.801,259.968,-3.23761,-0.22576,0.55001