Folder: fsri_materials_database/01_Data/Fiberglass_Insulation_R30_Paper_Faced_Paper/MCC

Note: 01_Data/README.md
# Materials and Products Database
## 01_Data

Raw data generated from each apparatus are included here in plain-text format. The data is organized first by material, next by the short name of test apparatus used, and where applicable additional filtering by test settings.

### material.json

Each material directory contains a json file of the same name as the material. This file links the data stored in the repository as well as data and graphs produced by the accompanying scripts (__02_Scripts__) to the respective landing page for the material on the front-end website.

File: Fiberglass_Insulation_R30_Paper_Faced_Paper_MCC_30K_min_220217_R1.txt
Sample ID:	C:\MCC\MCC Cal\Test\Fiberglas_Insulation3A_MCC_30K_min_220217_R1.txt
Sample Weight (mg):	4.8
Heating Rate (C/s):	0.5
Combustor Temp (C):	900
N2 Flow Rate (cc/min):	80
O2 Flow Rate (cc/min):	20
Calibration File:	C:\MCC\MCC Cal\Coeff1 JN10440_30_210304.txt.txt
T Correction Coefficients:	0	1.024463	0
Time Shift (s):	14
*
Time (s)	Temperature (C)	N2 flow rate (cc/min)	O2 flow rate (cc/min)	Flow Rate (cc/min)	Oxygen (%)	HRR (W/g)	Heating rate (C/s)
0.000	116.726	80.006	19.995	103.704	19.928	-0.065	0.005
7.500	116.666	80.003	19.996	103.699	19.925	0.158	-0.002
15.000	116.658	80.006	19.994	103.751	19.924	0.229	-0.019
22.500	116.881	80.005	19.993	103.853	19.908	1.260	0.018
30.000	117.576	80.009	19.993	103.911	19.893	2.327	0.132
37.500	118.709	80.008	19.993	103.963	19.883	2.993	0.155
45.000	120.424	80.005	19.993	103.993	19.881	3.134	0.260
52.500	122.585	80.007	19.991	103.997	19.873	3.632	0.327
60.000	125.104	79.997	19.993	103.981	19.878	3.297	0.362
67.501	127.976	80.005	19.993	103.966	19.879	3.235	0.436
75.000	131.078	80.015	19.994	103.951	19.874	3.589	0.408
82.500	134.417	80.004	19.995	103.895	19.873	3.682	0.455
90.000	137.846	80.006	19.994	103.964	19.874	3.596	0.476
97.500	141.516	80.000	19.995	103.966	19.879	3.256	0.482
105.001	145.303	80.004	19.995	103.987	19.884	2.933	0.519
112.500	149.096	80.010	19.993	103.943	19.882	3.076	0.520
120.000	152.939	79.987	19.996	103.952	19.883	2.988	0.498
127.500	156.801	80.006	19.993	103.948	19.881	3.102	0.537
135.000	160.621	80.016	19.993	103.949	19.882	3.028	0.506
142.500	164.479	80.004	19.994	103.945	19.887	2.709	0.537
150.000	168.266	79.977	19.995	103.917	19.884	2.926	0.478
157.500	172.042	80.005	19.994	103.912	19.886	2.762	0.475
165.000	175.846	80.004	19.995	103.913	19.886	2.802	0.479
172.500	179.519	80.000	19.996	103.903	19.888	2.642	0.477
180.000	183.209	80.001	19.996	103.912	19.883	2.974	0.465
187.500	187.001	79.997	19.997	103.914	19.885	2.810	0.508
195.000	190.669	79.993	19.995	103.898	19.878	3.299	0.507
202.500	194.320	80.010	19.994	103.918	19.877	3.381	0.473
210.000	197.976	79.998	19.994	103.897	19.879	3.244	0.477
217.500	201.649	80.007	19.992	103.878	19.873	3.651	0.509
225.000	205.323	80.006	19.994	103.875	19.872	3.720	0.506
232.500	209.036	80.007	19.994	103.876	19.869	3.903	0.462
240.000	212.844	79.994	19.996	103.874	19.869	3.927	0.505
247.500	216.600	79.992	19.994	103.892	19.871	3.800	0.533
255.000	220.364	79.983	19.997	103.870	19.864	4.238	0.500
262.500	224.199	80.015	19.993	103.877	19.862	4.378	0.523
270.000	227.957	80.004	19.993	103.871	19.860	4.540	0.479
277.500	231.762	80.007	19.993	103.872	19.854	4.910	0.494
285.000	235.489	80.004	19.996	103.870	19.846	5.448	0.488
292.500	239.223	80.007	19.995	103.872	19.840	5.906	0.491
300.000	242.904	80.008	19.993	103.869	19.834	6.288	0.490
307.500	246.657	79.997	19.995	103.876	19.833	6.376	0.519
315.000	250.439	80.021	19.992	103.873	19.823	7.026	0.512
322.500	254.150	80.006	19.994	103.880	19.816	7.523	0.502
330.000	257.851	80.006	19.994	103.878	19.810	7.892	0.468
337.500	261.572	80.007	19.992	103.880	19.798	8.710	0.462
345.000	265.293	80.004	19.994	103.889	19.791	9.158	0.485
352.500	268.997	80.007	19.995	103.899	19.779	10.004	0.510
360.000	272.763	80.004	19.995	103.900	19.767	10.792	0.459
367.500	276.504	80.006	19.994	103.882	19.760	11.261	0.518
375.000	280.194	79.997	19.995	103.904	19.744	12.351	0.515
382.500	283.974	79.992	19.996	103.909	19.729	13.369	0.518
390.000	287.761	80.001	19.994	103.912	19.712	14.543	0.529
397.500	291.509	80.008	19.993	103.916	19.693	15.842	0.525
405.000	295.252	80.004	19.995	103.932	19.670	17.401	0.488
412.500	299.042	80.003	19.994	103.915	19.647	18.898	0.485
420.000	302.822	79.998	19.997	103.950	19.625	20.386	0.515
427.500	306.609	80.008	19.994	103.949	19.593	22.567	0.464
435.000	310.391	80.009	19.993	103.951	19.566	24.392	0.509
442.500	314.215	80.007	19.993	103.962	19.528	26.988	0.505
450.000	317.980	80.003	19.996	103.970	19.490	29.549	0.486
457.500	321.727	80.005	19.994	103.991	19.450	32.245	0.497
465.000	325.500	80.007	19.993	104.023	19.404	35.402	0.478
472.500	329.294	80.002	19.995	104.028	19.351	38.942	0.507
480.000	333.105	80.004	19.995	104.041	19.301	42.375	0.497
487.500	336.949	80.008	19.992	104.061	19.239	46.536	0.528
495.000	340.744	80.006	19.994	104.086	19.172	51.116	0.507
502.500	344.538	80.004	19.995	104.106	19.103	55.780	0.475
510.000	348.351	80.005	19.994	104.114	19.035	60.377	0.525
517.500	352.150	80.005	19.994	104.121	18.972	64.649	0.549
525.000	355.986	80.012	19.993	104.148	18.920	68.131	0.484
532.500	359.798	80.006	19.992	104.119	18.891	70.081	0.535
540.000	363.534	80.003	19.993	104.099	18.902	69.286	0.492
547.500	367.356	79.996	20.000	104.041	18.959	65.421	0.485
555.000	371.229	80.004	19.994	103.971	19.068	57.990	0.494
562.500	375.048	80.005	19.995	103.912	19.224	47.481	0.474
570.000	378.903	80.007	19.994	103.878	19.394	35.977	0.514
577.500	382.763	80.023	19.989	103.839	19.537	26.307	0.521
585.000	386.577	80.005	19.994	103.816	19.631	19.984	0.497
592.500	390.378	80.002	19.993	103.802	19.674	17.087	0.494
600.000	394.248	80.007	19.993	103.810	19.687	16.196	0.528
607.500	398.045	80.009	19.989	103.825	19.683	16.495	0.490
615.000	401.873	80.007	19.993	103.835	19.678	16.830	0.513
622.500	405.616	79.996	20.001	103.812	19.662	17.889	0.511
630.000	409.471	79.995	19.992	103.836	19.649	18.788	0.533
637.501	413.274	80.009	19.993	103.838	19.636	19.613	0.519
645.000	417.029	80.004	19.992	103.816	19.613	21.192	0.519
652.500	420.832	80.007	19.993	103.809	19.596	22.352	0.508
660.000	424.612	80.023	19.989	103.810	19.574	23.831	0.510
667.500	428.399	80.011	19.995	103.792	19.550	25.421	0.516
675.000	432.159	80.003	19.993	103.794	19.529	26.854	0.496
682.500	435.987	80.007	19.995	103.794	19.510	28.105	0.511
690.000	439.793	80.008	19.993	103.794	19.492	29.344	0.526
697.500	443.605	80.001	19.993	103.796	19.476	30.422	0.515
705.000	447.339	79.988	20.001	103.794	19.464	31.249	0.520
712.500	451.152	80.004	19.994	103.798	19.463	31.278	0.526
720.000	454.960	80.004	19.994	103.790	19.461	31.460	0.500
727.500	458.804	80.003	19.996	103.774	19.472	30.707	0.525
735.000	462.610	80.000	19.998	103.778	19.492	29.374	0.519
742.500	466.405	80.004	19.997	103.796	19.520	27.468	0.496
750.000	470.247	80.008	19.995	103.788	19.555	25.098	0.511
757.500	474.093	80.005	19.994	103.796	19.598	22.202	0.539
765.000	477.991	80.009	19.996	103.800	19.646	18.974	0.492
772.500	481.876	80.013	19.993	103.786	19.685	16.347	0.505
780.000	485.744	80.005	19.993	103.794	19.725	13.646	0.537
787.500	489.672	80.007	19.994	103.811	19.758	11.396	0.538
795.000	493.511	79.999	19.996	103.793	19.787	9.463	0.510
802.500	497.409	80.006	19.992	103.798	19.809	7.979	0.509
810.000	501.242	80.007	19.993	103.798	19.822	7.081	0.533
817.500	504.955	80.006	19.994	103.801	19.841	5.793	0.488
825.000	508.655	80.004	19.996	103.804	19.847	5.413	0.507
832.500	512.425	80.007	19.996	103.797	19.856	4.790	0.522
840.000	516.247	80.006	19.993	103.798	19.864	4.242	0.512
847.500	520.051	80.004	19.995	103.797	19.868	4.002	0.507
855.000	523.874	80.005	19.995	103.795	19.873	3.664	0.507
862.500	527.617	80.006	19.996	103.796	19.877	3.355	0.467
870.000	531.563	80.005	19.994	103.794	19.876	3.413	0.545
877.500	535.460	80.005	19.994	103.798	19.880	3.180	0.528
885.000	539.381	80.008	19.994	103.805	19.881	3.081	0.526
892.500	543.250	80.003	19.994	103.797	19.885	2.815	0.520
900.000	547.032	80.005	19.994	103.799	19.884	2.924	0.520
907.500	550.980	80.006	19.994	103.800	19.886	2.757	0.503
915.000	554.821	80.006	19.994	103.796	19.889	2.559	0.509
922.500	558.786	80.006	19.995	103.795	19.890	2.486	0.520
930.000	562.643	80.005	19.995	103.793	19.889	2.600	0.516
937.500	566.479	80.007	19.995	103.791	19.890	2.490	0.527
945.000	570.437	80.006	19.996	103.793	19.885	2.826	0.611
952.500	574.403	80.005	19.996	103.791	19.884	2.902	0.513
960.000	578.728	80.004	19.993	103.797	19.890	2.501	1.029
967.500	582.231	80.005	19.994	103.797	19.888	2.613	0.599
975.000	586.174	80.005	19.994	103.797	19.886	2.755	0.580
982.500	590.029	80.005	19.994	103.800	19.886	2.770	0.486
990.000	593.827	80.008	19.993	103.794	19.890	2.516	0.502
997.500	597.610	80.006	19.994	103.792	19.891	2.434	0.496
1005.000	601.391	80.007	19.995	103.794	19.895	2.168	0.514
1012.500	605.092	80.006	19.994	103.795	19.895	2.189	0.504
1020.000	608.829	80.008	19.995	103.794	19.892	2.345	0.523
1027.500	612.553	80.006	19.995	103.796	19.889	2.567	0.510
1035.000	616.350	80.006	19.996	103.794	19.887	2.681	0.524
1042.500	620.163	80.004	19.994	103.804	19.891	2.429	0.523
1050.000	624.113	80.006	19.997	103.807	19.892	2.350	0.489
1057.500	627.993	80.005	19.994	103.796	19.888	2.645	0.513
1065.000	631.875	80.004	19.996	103.801	19.885	2.814	0.519
1072.500	635.722	80.006	19.995	103.803	19.885	2.850	0.527
1080.000	639.506	80.007	19.993	103.796	19.883	2.992	0.503
1087.500	643.373	80.006	19.994	103.811	19.883	2.992	0.489
1095.000	647.151	80.005	19.995	103.805	19.884	2.907	0.512
1102.500	650.955	80.007	19.993	103.822	19.881	3.132	0.498
1110.000	654.815	80.005	19.995	103.813	19.877	3.384	0.512
1117.501	658.636	80.005	19.995	103.836	19.878	3.291	0.509
1125.000	662.416	80.006	19.994	103.834	19.881	3.127	0.484
1132.500	666.240	80.006	19.993	103.833	19.876	3.478	0.515
1140.000	670.211	80.005	19.995	103.845	19.875	3.508	0.569
1147.500	674.198	80.005	19.994	103.861	19.887	2.736	0.509
1155.000	678.202	80.005	19.994	103.852	19.873	3.678	0.509
1162.500	682.163	80.008	19.994	103.874	19.876	3.466	0.235
1170.000	686.076	80.006	19.993	103.880	19.871	3.811	0.558
1177.500	690.015	80.007	19.994	103.878	19.872	3.746	0.546
1185.000	693.917	80.008	19.993	103.872	19.867	4.037	0.520
1192.500	697.792	80.004	19.994	103.875	19.863	4.317	0.502
1200.000	701.580	80.004	19.994	103.906	19.864	4.259	0.500
1207.501	705.364	80.006	19.994	103.885	19.863	4.354	0.519
1215.000	709.098	80.005	19.995	103.885	19.863	4.298	0.477
1222.500	712.953	80.005	19.995	103.877	19.862	4.419	0.527
1230.000	716.780	80.004	19.996	103.876	19.867	4.037	0.522
1237.501	720.557	80.006	19.995	103.838	19.872	3.711	0.507
1245.000	724.369	80.006	19.993	103.828	19.878	3.299	0.514
1252.500	728.087	80.006	19.995	103.791	19.887	2.700	0.509
1260.000	731.825	80.008	19.993	103.795	19.886	2.745	0.472
1267.500	735.515	80.008	19.994	103.777	19.885	2.806	0.465
1275.000	739.243	80.005	19.994	103.773	19.884	2.913	0.524
1282.500	742.965	80.006	19.993	103.773	19.881	3.099	0.486
1284.000	743.702	80.006	19.994	103.766	19.879	3.211	0.493