Folder: fsri_materials_database/01_Data/Vinyl_Chair_Polyester_Batting/MCC

Note: 01_Data/README.md
# Materials and Products Database
## 01_Data

Raw data generated from each apparatus are included here in plain-text format. The data is organized first by material, next by the short name of test apparatus used, and where applicable additional filtering by test settings.

### material.json

Each material directory contains a json file of the same name as the material. This file links the data stored in the repository as well as data and graphs produced by the accompanying scripts (__02_Scripts__) to the respective landing page for the material on the front-end website.

File: Vinyl_Chair_Polyester_Batting_MCC_30K_min_220309_R2.txt
Sample ID:	C:\MCC\MCC Cal\Test\PE_batting_82B_MCC_30K_min_220309_R2.txt
Sample Weight (mg):	4.41
Heating Rate (C/s):	0.5
Combustor Temp (C):	900
N2 Flow Rate (cc/min):	80
O2 Flow Rate (cc/min):	20
Calibration File:	C:\MCC\MCC Cal\Coeff1 JN10440_30_210304.txt.txt
T Correction Coefficients:	0	1.024463	0
Time Shift (s):	14
*
Time (s)	Temperature (C)	N2 flow rate (cc/min)	O2 flow rate (cc/min)	Flow Rate (cc/min)	Oxygen (%)	HRR (W/g)	Heating rate (C/s)
0.000	108.195	80.007	19.993	103.709	19.951	-0.512	0.019
8.000	108.204	80.008	19.993	103.716	19.950	-0.415	0.027
16.000	108.258	80.008	19.996	103.722	19.951	-0.478	0.007
24.000	108.331	80.006	19.995	103.775	19.937	0.537	0.038
32.000	108.681	80.007	19.994	103.845	19.923	1.599	0.055
40.000	109.422	80.007	19.994	103.891	19.917	2.045	0.141
48.001	110.553	80.007	19.993	103.902	19.916	2.078	0.161
56.000	112.070	80.007	19.994	103.928	19.907	2.719	0.162
64.000	113.939	80.008	19.993	103.940	19.907	2.778	0.251
72.000	116.182	80.009	19.992	103.963	19.906	2.813	0.304
80.000	118.790	80.007	19.993	103.981	19.901	3.205	0.354
88.000	121.732	80.007	19.994	103.990	19.903	3.079	0.380
96.000	124.878	80.009	19.994	103.984	19.902	3.097	0.390
104.000	128.267	80.009	19.994	103.985	19.901	3.193	0.416
112.000	131.845	80.007	19.994	103.986	19.903	3.061	0.436
120.001	135.526	80.008	19.994	103.981	19.900	3.280	0.452
128.000	139.389	80.005	19.994	103.977	19.900	3.257	0.505
136.000	143.306	80.007	19.994	103.982	19.903	3.017	0.486
144.000	147.315	80.005	19.993	103.963	19.902	3.109	0.514
152.000	151.358	80.008	19.994	103.956	19.907	2.786	0.505
160.000	155.389	80.008	19.994	103.948	19.905	2.883	0.523
168.000	159.430	80.008	19.993	103.945	19.909	2.583	0.512
176.000	163.496	80.010	19.993	103.943	19.910	2.508	0.486
184.000	167.543	80.009	19.993	103.932	19.912	2.416	0.491
192.000	171.568	80.007	19.993	103.939	19.911	2.445	0.465
200.000	175.565	80.006	19.994	103.925	19.911	2.483	0.492
208.000	179.519	80.006	19.994	103.918	19.911	2.430	0.487
216.000	183.433	80.006	19.995	103.920	19.910	2.538	0.461
224.000	187.502	80.007	19.994	103.910	19.908	2.688	0.516
232.000	191.395	80.008	19.993	103.911	19.907	2.781	0.485
240.000	195.333	80.008	19.994	103.910	19.902	3.150	0.514
248.000	199.267	80.008	19.993	103.909	19.896	3.541	0.509
256.000	203.205	80.009	19.993	103.915	19.890	3.991	0.518
264.000	207.177	80.010	19.993	103.912	19.882	4.574	0.538
272.000	211.111	80.007	19.994	103.911	19.873	5.226	0.477
280.000	215.095	80.006	19.994	103.913	19.865	5.852	0.496
288.000	219.109	80.006	19.994	103.913	19.850	6.975	0.503
296.000	223.060	80.006	19.994	103.909	19.833	8.181	0.457
304.000	227.090	80.006	19.994	103.921	19.807	10.099	0.511
312.000	231.153	80.007	19.995	103.915	19.778	12.248	0.541
320.000	235.106	80.009	19.994	103.919	19.743	14.793	0.511
328.000	239.069	80.008	19.994	103.943	19.701	17.904	0.488
336.000	243.057	80.007	19.994	103.953	19.658	21.092	0.502
344.000	247.053	80.007	19.993	103.951	19.614	24.274	0.496
352.000	251.114	80.009	19.993	103.951	19.560	28.267	0.522
360.000	255.137	80.008	19.994	103.974	19.495	33.058	0.513
368.000	259.109	80.009	19.993	103.985	19.426	38.168	0.521
376.000	263.048	80.007	19.995	103.993	19.345	44.110	0.508
384.000	267.046	80.006	19.994	104.024	19.251	51.033	0.506
392.000	271.057	80.006	19.994	104.043	19.146	58.782	0.516
400.000	275.076	80.006	19.994	104.057	19.031	67.297	0.494
408.000	279.038	80.006	19.994	104.077	18.891	77.593	0.459
416.000	283.087	80.008	19.994	104.106	18.754	87.661	0.496
424.000	287.129	80.010	19.993	104.093	18.725	89.783	0.516
432.000	291.168	80.009	19.993	104.057	18.981	70.891	0.531
440.000	295.181	80.008	19.993	104.037	19.245	51.465	0.529
448.000	299.199	80.007	19.993	103.988	19.393	40.554	0.529
456.000	303.173	80.007	19.993	103.962	19.467	35.117	0.476
464.000	307.254	80.006	19.994	103.949	19.534	30.164	0.508
472.000	311.413	80.006	19.994	103.933	19.586	26.379	0.530
480.000	315.583	80.007	19.994	103.916	19.643	22.131	0.518
488.000	319.638	80.007	19.994	103.900	19.690	18.684	0.481
496.000	323.767	80.006	19.996	103.885	19.731	15.664	0.516
504.000	327.804	80.009	19.994	103.870	19.757	13.755	0.482
512.000	331.827	80.010	19.993	103.868	19.781	12.033	0.509
520.000	335.938	80.007	19.994	103.867	19.783	11.876	0.525
528.000	339.872	80.007	19.994	103.846	19.791	11.271	0.517
536.000	343.805	80.007	19.993	103.847	19.785	11.744	0.487
544.000	347.803	80.007	19.994	103.841	19.773	12.613	0.484
552.000	351.801	80.007	19.993	103.852	19.744	14.691	0.500
560.000	355.809	80.008	19.993	103.852	19.698	18.073	0.478
568.000	359.800	80.009	19.995	103.849	19.633	22.899	0.488
576.000	363.784	80.008	19.994	103.867	19.529	30.541	0.494
584.000	367.754	80.009	19.994	103.881	19.378	41.655	0.504
592.000	371.723	80.010	19.996	103.906	19.165	57.310	0.476
600.000	375.749	80.006	19.994	103.913	18.861	79.658	0.470
608.000	379.726	80.007	19.994	103.938	18.461	109.075	0.532
616.000	383.662	80.007	19.995	103.948	18.005	142.605	0.480
624.000	387.637	80.006	19.993	103.922	17.527	177.564	0.496
632.000	391.554	80.006	19.994	103.845	17.150	205.212	0.504
640.000	395.595	80.007	19.994	103.803	16.998	216.282	0.485
648.000	399.563	80.008	19.993	103.749	17.105	208.519	0.496
656.000	403.552	80.007	19.994	103.789	17.392	187.419	0.499
664.000	407.573	80.008	19.993	103.822	17.724	163.079	0.519
672.000	411.650	80.009	19.993	103.805	18.057	138.661	0.514
680.000	415.755	80.007	19.994	103.826	18.425	111.642	0.527
688.000	419.871	80.006	19.995	103.831	18.757	87.252	0.527
696.000	423.961	80.006	19.996	103.832	19.048	65.840	0.511
704.000	428.030	80.007	19.994	103.844	19.294	47.747	0.525
712.000	432.092	80.006	19.994	103.838	19.497	32.846	0.535
720.000	436.175	80.006	19.993	103.834	19.659	20.991	0.493
728.000	440.194	80.008	19.993	103.825	19.778	12.250	0.504
736.000	444.267	80.007	19.994	103.827	19.864	5.934	0.509
744.000	448.298	80.008	19.994	103.831	19.913	2.288	0.504
752.000	452.360	80.009	19.993	103.811	19.943	0.132	0.488
760.000	456.475	80.007	19.994	103.799	19.954	-0.701	0.540
768.001	460.597	80.005	19.994	103.808	19.965	-1.521	0.513
776.000	464.674	80.006	19.994	103.814	19.966	-1.606	0.525
784.000	468.683	80.006	19.995	103.827	19.973	-2.126	0.492
792.000	472.783	80.006	19.993	103.810	19.974	-2.163	0.526
800.000	476.895	80.005	19.993	103.810	19.972	-2.041	0.509
808.000	481.012	80.008	19.993	103.813	19.978	-2.464	0.524
816.000	485.135	80.007	19.994	103.803	19.982	-2.727	0.543
824.000	489.236	80.008	19.993	103.805	19.980	-2.636	0.528
832.000	493.310	80.009	19.994	103.801	19.984	-2.871	0.503
840.000	497.350	80.009	19.993	103.792	19.982	-2.736	0.539
848.000	501.455	80.006	19.994	103.802	19.983	-2.827	0.539
856.000	505.659	80.007	19.995	103.813	19.988	-3.169	0.546
864.000	509.864	80.006	19.993	103.809	19.992	-3.464	0.558
872.000	514.011	80.007	19.994	103.794	19.988	-3.169	0.556
880.000	518.158	80.006	19.996	103.791	19.993	-3.539	0.476
888.000	521.917	80.007	19.994	103.793	19.995	-3.721	0.294
896.000	526.293	80.009	19.992	103.795	19.992	-3.474	0.459
904.000	530.170	80.009	19.993	103.797	19.995	-3.699	0.461
912.000	534.211	80.010	19.994	103.795	19.997	-3.882	0.490
920.000	538.201	80.009	19.993	103.808	19.998	-3.938	0.523
928.000	542.232	80.007	19.993	103.802	20.001	-4.144	0.485
936.000	546.304	80.007	19.993	103.795	20.000	-4.070	0.525
944.000	550.403	80.007	19.995	103.796	20.000	-4.096	0.499
952.000	554.651	80.007	19.993	103.794	20.000	-4.080	0.542
960.000	558.876	80.006	19.994	103.800	20.000	-4.090	0.536
968.000	563.075	80.008	19.995	103.795	19.999	-4.005	0.543
976.000	567.251	80.008	19.995	103.793	20.003	-4.296	0.532
984.000	571.314	80.008	19.994	103.793	20.004	-4.365	0.506
992.000	575.400	80.009	19.992	103.795	20.006	-4.503	0.503
1000.000	579.302	80.009	19.993	103.789	20.009	-4.778	0.476
1008.000	583.181	80.007	19.993	103.793	20.008	-4.660	0.472
1016.000	587.014	80.007	19.993	103.791	20.010	-4.784	0.499
1024.000	590.825	80.009	19.994	103.789	20.013	-5.019	0.484
1032.000	594.763	80.006	19.993	103.791	20.009	-4.748	0.489
1040.001	598.849	80.005	19.995	103.807	20.006	-4.521	0.549
1048.001	602.888	80.008	19.993	103.796	20.010	-4.782	0.508
1056.000	607.059	80.006	19.993	103.802	20.010	-4.829	0.542
1064.000	611.273	80.006	19.994	103.795	20.009	-4.774	0.531
1072.001	615.487	80.006	19.994	103.791	20.009	-4.729	0.490
1080.000	619.610	80.009	19.993	103.800	20.012	-4.997	0.513
1088.000	623.762	80.006	19.993	103.792	20.015	-5.199	0.514
1096.001	627.923	80.006	19.994	103.793	20.015	-5.201	0.509
1104.000	632.013	80.006	19.993	103.798	20.018	-5.372	0.482
1112.000	636.203	80.007	19.993	103.795	20.019	-5.467	0.511
1120.000	640.343	80.007	19.993	103.797	20.017	-5.303	0.537
1128.000	644.325	80.009	19.993	103.795	20.018	-5.414	0.489
1136.000	648.292	80.007	19.993	103.799	20.016	-5.234	0.475
1144.000	652.266	80.009	19.994	103.796	20.016	-5.258	0.490
1152.000	656.250	80.007	19.993	103.801	20.014	-5.099	0.451
1160.001	660.283	80.008	19.994	103.797	20.011	-4.910	0.474
1168.000	664.288	80.005	19.994	103.820	20.019	-5.461	0.516
1176.001	668.439	80.006	19.993	103.799	20.021	-5.590	0.853
1184.000	672.988	80.007	19.994	103.797	20.019	-5.458	0.229
1192.000	676.264	80.008	19.994	103.801	20.022	-5.675	0.501
1200.000	680.341	80.006	19.993	103.792	20.021	-5.606	0.524
1208.000	684.198	80.007	19.994	103.793	20.020	-5.561	0.500
1216.000	688.021	80.009	19.995	103.790	20.026	-6.003	0.481
1224.000	692.012	80.007	19.995	103.791	20.030	-6.250	0.494
1232.001	696.121	80.008	19.993	103.792	20.028	-6.127	0.551
1240.000	700.277	80.009	19.993	103.792	20.026	-5.999	0.500
1248.000	704.452	80.005	19.993	103.784	20.024	-5.863	0.528
1256.000	708.557	80.005	19.994	103.779	20.026	-5.988	0.501
1264.000	712.661	80.008	19.993	103.784	20.028	-6.107	0.530
1272.000	716.808	80.007	19.994	103.790	20.029	-6.186	0.545
1280.000	720.862	80.006	19.993	103.785	20.030	-6.294	0.536
1288.000	724.857	80.006	19.994	103.776	20.030	-6.277	0.515
1296.000	728.824	80.008	19.993	103.774	20.030	-6.318	0.491
1304.000	732.792	80.007	19.993	103.785	20.029	-6.224	0.500
1312.001	736.826	80.005	19.994	103.773	20.024	-5.845	0.514
1320.000	740.750	80.010	19.994	103.778	20.025	-5.925	0.490
1325.500	743.471	80.009	19.994	103.776	20.028	-6.119	0.547