Folder: fsri_materials_database/01_Data/Overstuffed_Chair_Polyester_Fabric/FTIR/ATR

Note: 01_Data/README.md
# Materials and Products Database
## 01_Data

Raw data generated from each apparatus are included here in plain-text format. The data is organized first by material, next by the short name of test apparatus used, and where applicable additional filtering by test settings.

### material.json

Each material directory contains a json file of the same name as the material. This file links the data stored in the repository as well as data and graphs produced by the accompanying scripts (__02_Scripts__) to the respective landing page for the material on the front-end website.

File: Overstuffed_Chair_Polyester_Fabric_ATR_210608_R1.tst
4497.79,0.02204
4484.29,0.02197
4470.79,0.02214
4457.29,0.02237
4443.79,0.02252
4430.28,0.02218
4416.78,0.02271
4403.28,0.02249
4389.78,0.02275
4376.28,0.02255
4362.78,0.02252
4349.28,0.02261
4335.78,0.02300
4322.28,0.02289
4308.77,0.02280
4295.27,0.02304
4281.77,0.02305
4268.27,0.02319
4254.77,0.02315
4241.27,0.02307
4227.77,0.02329
4214.27,0.02317
4200.77,0.02345
4187.26,0.02343
4173.76,0.02349
4160.26,0.02345
4146.76,0.02351
4133.26,0.02353
4119.76,0.02379
4106.26,0.02412
4092.76,0.02399
4079.26,0.02414
4065.75,0.02383
4052.25,0.02397
4038.75,0.02393
4025.25,0.02435
4011.75,0.02426
3998.25,0.02430
3984.75,0.02442
3971.25,0.02518
3957.75,0.02549
3944.25,0.02653
3930.74,0.02736
3917.24,0.02711
3903.74,0.03126
3890.24,0.02739
3876.74,0.02650
3863.24,0.02977
3849.74,0.02810
3836.24,0.03007
3822.74,0.02933
3809.23,0.02608
3795.73,0.02628
3782.23,0.02608
3768.73,0.02769
3755.23,0.02948
3741.73,0.03043
3728.23,0.02860
3714.73,0.02731
3701.23,0.02591
3687.72,0.02838
3674.22,0.03046
3660.72,0.02548
3647.22,0.03097
3633.72,0.02748
3620.22,0.03020
3606.72,0.02807
3593.22,0.02747
3579.72,0.02655
3566.21,0.03183
3552.71,0.02748
3539.21,0.02606
3525.71,0.02930
3512.21,0.02589
3498.71,0.02592
3485.21,0.02567
3471.71,0.02491
3458.21,0.02539
3444.7,0.02632
3431.2,0.02601
3417.7,0.02552
3404.2,0.02509
3390.7,0.02524
3377.2,0.02492
3363.7,0.02523
3350.2,0.02477
3336.7,0.02556
3323.2,0.02499
3309.69,0.02550
3296.19,0.02524
3282.69,0.02535
3269.19,0.02521
3255.69,0.02536
3242.19,0.02525
3228.69,0.02538
3215.19,0.02517
3201.69,0.02534
3188.18,0.02513
3174.68,0.02518
3161.18,0.02510
3147.68,0.02528
3134.18,0.02549
3120.68,0.02585
3107.18,0.02596
3093.68,0.02590
3080.18,0.02651
3066.67,0.02671
3053.17,0.02671
3039.67,0.02584
3026.17,0.02600
3012.67,0.02707
2999.17,0.02731
2985.67,0.02815
2972.17,0.03092
2958.67,0.03102
2945.16,0.02940
2931.66,0.02902
2918.16,0.02954
2904.66,0.03006
2891.16,0.02882
2877.66,0.02854
2864.16,0.02842
2850.66,0.02859
2837.16,0.02736
2823.66,0.02683
2810.15,0.02692
2796.65,0.02671
2783.15,0.02657
2769.65,0.02647
2756.15,0.02639
2742.65,0.02641
2729.15,0.02628
2715.65,0.02614
2702.15,0.02610
2688.64,0.02611
2675.14,0.02602
2661.64,0.02603
2648.14,0.02547
2634.64,0.02510
2621.14,0.02477
2607.64,0.02441
2594.14,0.02450
2580.64,0.02435
2567.13,0.02414
2553.63,0.02416
2540.13,0.02408
2526.63,0.02383
2513.13,0.02363
2499.63,0.02360
2486.13,0.02344
2472.63,0.02354
2459.13,0.02334
2445.62,0.02318
2432.12,0.02353
2418.62,0.02359
2405.12,0.02374
2391.62,0.02379
2378.12,0.02432
2364.62,0.01860
2351.12,0.02231
2337.62,0.01926
2324.12,0.02236
2310.61,0.02425
2297.11,0.02358
2283.61,0.02322
2270.11,0.02236
2256.61,0.02226
2243.11,0.02196
2229.61,0.02156
2216.11,0.02118
2202.61,0.02050
2189.1,0.01984
2175.6,0.01910
2162.1,0.01892
2148.6,0.02025
2135.1,0.02046
2121.6,0.02049
2108.1,0.02051
2094.6,0.02081
2081.1,0.02058
2067.59,0.02069
2054.09,0.02019
2040.59,0.01990
2027.09,0.01909
2013.59,0.01930
2000.09,0.01932
1986.59,0.02017
1973.09,0.01930
1959.59,0.02075
1946.08,0.02094
1932.58,0.01976
1919.08,0.02068
1905.58,0.01900
1892.08,0.01922
1878.58,0.01799
1865.08,0.01915
1851.58,0.01791
1838.08,0.01903
1824.57,0.02021
1811.07,0.01971
1797.57,0.02029
1784.07,0.01808
1770.57,0.01991
1757.07,0.01884
1743.57,0.04140
1730.07,0.12887
1716.57,0.24624
1703.07,0.15434
1689.56,0.07744
1676.06,0.05977
1662.56,0.04646
1649.06,0.04440
1635.56,0.03946
1622.06,0.03666
1608.56,0.03393
1595.06,0.03027
1581.56,0.03204
1568.05,0.03177
1554.55,0.03393
1541.05,0.03948
1527.55,0.03371
1514.05,0.03300
1500.55,0.03766
1487.05,0.03031
1473.55,0.04103
1460.05,0.03631
1446.54,0.03450
1433.04,0.03067
1419.54,0.03374
1406.04,0.06767
1392.54,0.03777
1379.04,0.03615
1365.54,0.03371
1352.04,0.03185
1338.54,0.08834
1325.03,0.03081
1311.53,0.03725
1298.03,0.05917
1284.53,0.10188
1271.03,0.16283
1257.53,0.22866
1244.03,0.28550
1230.53,0.19408
1217.03,0.11235
1203.53,0.07487
1190.02,0.05535
1176.52,0.05593
1163.02,0.05101
1149.52,0.05853
1136.02,0.10584
1122.52,0.19587
1109.02,0.20643
1095.52,0.24559
1082.02,0.18241
1068.51,0.10783
1055.01,0.08156
1041.51,0.07767
1028.01,0.07617
1014.51,0.14000
1001.01,0.06938
987.508,0.06071
974.007,0.07467
960.506,0.06342
947.005,0.04979
933.503,0.04437
920.002,0.04140
906.501,0.04418
893,0.04668
879.499,0.06134
865.998,0.06583
852.497,0.06568
838.996,0.05826
825.495,0.04482
811.994,0.04180
798.493,0.04347
784.992,0.04107
771.49,0.03371
757.989,0.02812
744.488,0.03212
730.987,0.19479
717.486,0.17689
703.985,0.07762
690.484,0.05217
676.983,0.05013
663.482,0.04490
649.981,0.03978
636.48,0.03911
622.979,0.03917
609.477,0.03864
599.834,0.04383

File: Overstuffed_Chair_Polyester_Fabric_ATR_210608_R2.tst
4497.79,0.02115
4484.29,0.02117
4470.79,0.02145
4457.29,0.02170
4443.79,0.02171
4430.28,0.02182
4416.78,0.02186
4403.28,0.02191
4389.78,0.02198
4376.28,0.02201
4362.78,0.02200
4349.28,0.02221
4335.78,0.02229
4322.28,0.02218
4308.77,0.02220
4295.27,0.02228
4281.77,0.02235
4268.27,0.02251
4254.77,0.02241
4241.27,0.02247
4227.77,0.02254
4214.27,0.02245
4200.77,0.02285
4187.26,0.02263
4173.76,0.02272
4160.26,0.02282
4146.76,0.02288
4133.26,0.02298
4119.76,0.02297
4106.26,0.02333
4092.76,0.02340
4079.26,0.02344
4065.75,0.02316
4052.25,0.02326
4038.75,0.02331
4025.25,0.02355
4011.75,0.02363
3998.25,0.02341
3984.75,0.02388
3971.25,0.02443
3957.75,0.02466
3944.25,0.02583
3930.74,0.02659
3917.24,0.02632
3903.74,0.03084
3890.24,0.02661
3876.74,0.02579
3863.24,0.02936
3849.74,0.02742
3836.24,0.02949
3822.74,0.02886
3809.23,0.02543
3795.73,0.02573
3782.23,0.02548
3768.73,0.02702
3755.23,0.02876
3741.73,0.02987
3728.23,0.02792
3714.73,0.02678
3701.23,0.02528
3687.72,0.02769
3674.22,0.02929
3660.72,0.02479
3647.22,0.03044
3633.72,0.02697
3620.22,0.02936
3606.72,0.02741
3593.22,0.02675
3579.72,0.02593
3566.21,0.03128
3552.71,0.02683
3539.21,0.02548
3525.71,0.02875
3512.21,0.02545
3498.71,0.02544
3485.21,0.02534
3471.71,0.02451
3458.21,0.02495
3444.7,0.02603
3431.2,0.02588
3417.7,0.02541
3404.2,0.02486
3390.7,0.02500
3377.2,0.02474
3363.7,0.02526
3350.2,0.02484
3336.7,0.02556
3323.2,0.02512
3309.69,0.02545
3296.19,0.02514
3282.69,0.02532
3269.19,0.02507
3255.69,0.02529
3242.19,0.02510
3228.69,0.02502
3215.19,0.02501
3201.69,0.02509
3188.18,0.02496
3174.68,0.02493
3161.18,0.02465
3147.68,0.02485
3134.18,0.02511
3120.68,0.02557
3107.18,0.02554
3093.68,0.02548
3080.18,0.02605
3066.67,0.02611
3053.17,0.02626
3039.67,0.02532
3026.17,0.02547
3012.67,0.02651
2999.17,0.02673
2985.67,0.02762
2972.17,0.03030
2958.67,0.03046
2945.16,0.02883
2931.66,0.02881
2918.16,0.02942
2904.66,0.02966
2891.16,0.02849
2877.66,0.02796
2864.16,0.02796
2850.66,0.02837
2837.16,0.02695
2823.66,0.02633
2810.15,0.02641
2796.65,0.02627
2783.15,0.02605
2769.65,0.02599
2756.15,0.02592
2742.65,0.02591
2729.15,0.02574
2715.65,0.02561
2702.15,0.02560
2688.64,0.02554
2675.14,0.02545
2661.64,0.02546
2648.14,0.02500
2634.64,0.02463
2621.14,0.02440
2607.64,0.02405
2594.14,0.02396
2580.64,0.02396
2567.13,0.02371
2553.63,0.02360
2540.13,0.02356
2526.63,0.02342
2513.13,0.02317
2499.63,0.02298
2486.13,0.02305
2472.63,0.02285
2459.13,0.02286
2445.62,0.02275
2432.12,0.02305
2418.62,0.02305
2405.12,0.02319
2391.62,0.02331
2378.12,0.02381
2364.62,0.01724
2351.12,0.02153
2337.62,0.01832
2324.12,0.02208
2310.61,0.02366
2297.11,0.02297
2283.61,0.02253
2270.11,0.02200
2256.61,0.02165
2243.11,0.02156
2229.61,0.02102
2216.11,0.02059
2202.61,0.02012
2189.1,0.01936
2175.6,0.01833
2162.1,0.01848
2148.6,0.01925
2135.1,0.01990
2121.6,0.02007
2108.1,0.01994
2094.6,0.02014
2081.1,0.02008
2067.59,0.02019
2054.09,0.01919
2040.59,0.01943
2027.09,0.01850
2013.59,0.01891
2000.09,0.01891
1986.59,0.01983
1973.09,0.01889
1959.59,0.02039
1946.08,0.02051
1932.58,0.01911
1919.08,0.02005
1905.58,0.01855
1892.08,0.01882
1878.58,0.01756
1865.08,0.01878
1851.58,0.01756
1838.08,0.01864
1824.57,0.01976
1811.07,0.01957
1797.57,0.02004
1784.07,0.01793
1770.57,0.01969
1757.07,0.01867
1743.57,0.04117
1730.07,0.12752
1716.57,0.24676
1703.07,0.15664
1689.56,0.07735
1676.06,0.05980
1662.56,0.04644
1649.06,0.04414
1635.56,0.03931
1622.06,0.03630
1608.56,0.03389
1595.06,0.03033
1581.56,0.03220
1568.05,0.03175
1554.55,0.03378
1541.05,0.04022
1527.55,0.03354
1514.05,0.03280
1500.55,0.03719
1487.05,0.03002
1473.55,0.04136
1460.05,0.03590
1446.54,0.03422
1433.04,0.03057
1419.54,0.03382
1406.04,0.06738
1392.54,0.03765
1379.04,0.03609
1365.54,0.03381
1352.04,0.03200
1338.54,0.08744
1325.03,0.03096
1311.53,0.03775
1298.03,0.05980
1284.53,0.10321
1271.03,0.16523
1257.53,0.23024
1244.03,0.28419
1230.53,0.18767
1217.03,0.10821
1203.53,0.07232
1190.02,0.05290
1176.52,0.05265
1163.02,0.04727
1149.52,0.05481
1136.02,0.10477
1122.52,0.19393
1109.02,0.20350
1095.52,0.23961
1082.02,0.17480
1068.51,0.10228
1055.01,0.07831
1041.51,0.07575
1028.01,0.07572
1014.51,0.13438
1001.01,0.06618
987.508,0.05847
974.007,0.07271
960.506,0.06046
947.005,0.04715
933.503,0.04234
920.002,0.03941
906.501,0.04202
893,0.04495
879.499,0.05978
865.998,0.06497
852.497,0.06467
838.996,0.05642
825.495,0.04318
811.994,0.04080
798.493,0.04220
784.992,0.03950
771.49,0.03296
757.989,0.02790
744.488,0.03141
730.987,0.19219
717.486,0.18079
703.985,0.07819
690.484,0.05237
676.983,0.04902
663.482,0.04315
649.981,0.03908
636.48,0.03886
622.979,0.03530
609.477,0.03886
599.834,0.03882

File: Overstuffed_Chair_Polyester_Fabric_ATR_210608_R5.tst
4497.79,0.01916
4484.29,0.01901
4470.79,0.01926
4457.29,0.01922
4443.79,0.01938
4430.28,0.01964
4416.78,0.01947
4403.28,0.01968
4389.78,0.01960
4376.28,0.01981
4362.78,0.01983
4349.28,0.01962
4335.78,0.02001
4322.28,0.02038
4308.77,0.02008
4295.27,0.02014
4281.77,0.02021
4268.27,0.02038
4254.77,0.02036
4241.27,0.02039
4227.77,0.02041
4214.27,0.02062
4200.77,0.02063
4187.26,0.02064
4173.76,0.02077
4160.26,0.02088
4146.76,0.02087
4133.26,0.02108
4119.76,0.02104
4106.26,0.02134
4092.76,0.02136
4079.26,0.02152
4065.75,0.02130
4052.25,0.02151
4038.75,0.02126
4025.25,0.02187
4011.75,0.02187
3998.25,0.02172
3984.75,0.02207
3971.25,0.02301
3957.75,0.02316
3944.25,0.02407
3930.74,0.02539
3917.24,0.02488
3903.74,0.02931
3890.24,0.02531
3876.74,0.02426
3863.24,0.02771
3849.74,0.02592
3836.24,0.02816
3822.74,0.02756
3809.23,0.02404
3795.73,0.02417
3782.23,0.02396
3768.73,0.02592
3755.23,0.02779
3741.73,0.02910
3728.23,0.02660
3714.73,0.02551
3701.23,0.02400
3687.72,0.02639
3674.22,0.02856
3660.72,0.02350
3647.22,0.02913
3633.72,0.02542
3620.22,0.02836
3606.72,0.02603
3593.22,0.02589
3579.72,0.02470
3566.21,0.03037
3552.71,0.02594
3539.21,0.02410
3525.71,0.02748
3512.21,0.02426
3498.71,0.02421
3485.21,0.02427
3471.71,0.02328
3458.21,0.02382
3444.7,0.02489
3431.2,0.02465
3417.7,0.02416
3404.2,0.02361
3390.7,0.02391
3377.2,0.02368
3363.7,0.02415
3350.2,0.02365
3336.7,0.02451
3323.2,0.02398
3309.69,0.02451
3296.19,0.02414
3282.69,0.02438
3269.19,0.02422
3255.69,0.02429
3242.19,0.02420
3228.69,0.02419
3215.19,0.02403
3201.69,0.02403
3188.18,0.02389
3174.68,0.02405
3161.18,0.02388
3147.68,0.02395
3134.18,0.02430
3120.68,0.02467
3107.18,0.02453
3093.68,0.02464
3080.18,0.02509
3066.67,0.02528
3053.17,0.02535
3039.67,0.02450
3026.17,0.02460
3012.67,0.02574
2999.17,0.02585
2985.67,0.02661
2972.17,0.02920
2958.67,0.02923
2945.16,0.02791
2931.66,0.02749
2918.16,0.02865
2904.66,0.02877
2891.16,0.02749
2877.66,0.02710
2864.16,0.02706
2850.66,0.02763
2837.16,0.02619
2823.66,0.02569
2810.15,0.02561
2796.65,0.02555
2783.15,0.02538
2769.65,0.02531
2756.15,0.02532
2742.65,0.02529
2729.15,0.02514
2715.65,0.02508
2702.15,0.02502
2688.64,0.02494
2675.14,0.02488
2661.64,0.02488
2648.14,0.02452
2634.64,0.02409
2621.14,0.02379
2607.64,0.02351
2594.14,0.02348
2580.64,0.02345
2567.13,0.02320
2553.63,0.02306
2540.13,0.02291
2526.63,0.02284
2513.13,0.02290
2499.63,0.02267
2486.13,0.02252
2472.63,0.02251
2459.13,0.02250
2445.62,0.02226
2432.12,0.02270
2418.62,0.02269
2405.12,0.02277
2391.62,0.02297
2378.12,0.02351
2364.62,0.01738
2351.12,0.02126
2337.62,0.01804
2324.12,0.02161
2310.61,0.02356
2297.11,0.02264
2283.61,0.02226
2270.11,0.02139
2256.61,0.02149
2243.11,0.02131
2229.61,0.02080
2216.11,0.02035
2202.61,0.01995
2189.1,0.01907
2175.6,0.01829
2162.1,0.01806
2148.6,0.01911
2135.1,0.01983
2121.6,0.02001
2108.1,0.01986
2094.6,0.02012
2081.1,0.02033
2067.59,0.02021
2054.09,0.01942
2040.59,0.01943
2027.09,0.01865
2013.59,0.01916
2000.09,0.01890
1986.59,0.01954
1973.09,0.01886
1959.59,0.02041
1946.08,0.02103
1932.58,0.01940
1919.08,0.02041
1905.58,0.01871
1892.08,0.01889
1878.58,0.01770
1865.08,0.01891
1851.58,0.01768
1838.08,0.01885
1824.57,0.02005
1811.07,0.01977
1797.57,0.02027
1784.07,0.01821
1770.57,0.02013
1757.07,0.01908
1743.57,0.04114
1730.07,0.12579
1716.57,0.23937
1703.07,0.15063
1689.56,0.07565
1676.06,0.05891
1662.56,0.04607
1649.06,0.04458
1635.56,0.03962
1622.06,0.03663
1608.56,0.03387
1595.06,0.03024
1581.56,0.03211
1568.05,0.03193
1554.55,0.03442
1541.05,0.04100
1527.55,0.03425
1514.05,0.03348
1500.55,0.03768
1487.05,0.03018
1473.55,0.04149
1460.05,0.03628
1446.54,0.03430
1433.04,0.03086
1419.54,0.03427
1406.04,0.06720
1392.54,0.03814
1379.04,0.03649
1365.54,0.03430
1352.04,0.03226
1338.54,0.08871
1325.03,0.03139
1311.53,0.03792
1298.03,0.05929
1284.53,0.10106
1271.03,0.16063
1257.53,0.22426
1244.03,0.28048
1230.53,0.19310
1217.03,0.11501
1203.53,0.07737
1190.02,0.05558
1176.52,0.05434
1163.02,0.04867
1149.52,0.05601
1136.02,0.10444
1122.52,0.19461
1109.02,0.20612
1095.52,0.24328
1082.02,0.18217
1068.51,0.11040
1055.01,0.08428
1041.51,0.08033
1028.01,0.07822
1014.51,0.14255
1001.01,0.07269
987.508,0.06327
974.007,0.07737
960.506,0.06610
947.005,0.05129
933.503,0.04585
920.002,0.04222
906.501,0.04525
893,0.04777
879.499,0.06233
865.998,0.06708
852.497,0.06734
838.996,0.05972
825.495,0.04604
811.994,0.04283
798.493,0.04417
784.992,0.04161
771.49,0.03436
757.989,0.02891
744.488,0.03339
730.987,0.19525
717.486,0.18409
703.985,0.08037
690.484,0.05393
676.983,0.05078
663.482,0.04466
649.981,0.04065
636.48,0.04051
622.979,0.03736
609.477,0.03612
599.834,0.04000