Folder: fsri_materials_database/01_Data/Overstuffed_Chair_Polyester_Fabric/FTIR/IS (part 2)

File: Overstuffed_Chair_Polyester_Fabric_IS_S_221019_R6.dpt
7497.03,0.83980
7473.88,0.82886
7450.74,0.82099
7427.59,0.83360
7404.45,0.82637
7381.31,0.82562
7358.16,0.81862
7335.02,0.81629
7311.87,0.81338
7288.73,0.81325
7265.58,0.81635
7242.44,0.80981
7219.29,0.81071
7196.15,0.81711
7173,0.81354
7149.86,0.80639
7126.71,0.80970
7103.57,0.80932
7080.42,0.81574
7057.28,0.80318
7034.13,0.81236
7010.99,0.80698
6987.84,0.80386
6964.7,0.80509
6941.55,0.79684
6918.41,0.80327
6895.26,0.81187
6872.12,0.81035
6848.97,0.80752
6825.83,0.80717
6802.68,0.81010
6779.54,0.81052
6756.39,0.81007
6733.25,0.81156
6710.1,0.81058
6686.96,0.81120
6663.81,0.81391
6640.67,0.81080
6617.52,0.81475
6594.38,0.81591
6571.23,0.81709
6548.09,0.81501
6524.94,0.82020
6501.8,0.81892
6478.65,0.81964
6455.51,0.81748
6432.36,0.81872
6409.22,0.81777
6386.07,0.81805
6362.93,0.81799
6339.78,0.82489
6316.64,0.82002
6293.49,0.81760
6270.35,0.81976
6247.2,0.81995
6224.06,0.81586
6200.91,0.80899
6177.77,0.80761
6154.62,0.79839
6131.48,0.79499
6108.33,0.78268
6085.19,0.74621
6062.04,0.72208
6038.9,0.69149
6015.75,0.67464
5992.61,0.70507
5969.46,0.71482
5946.32,0.72977
5923.17,0.74738
5900.03,0.75953
5876.88,0.74922
5853.74,0.75014
5830.59,0.75016
5807.45,0.75036
5784.3,0.75159
5761.16,0.75780
5738.01,0.76804
5714.87,0.77317
5691.72,0.77647
5668.58,0.78169
5645.44,0.78084
5622.29,0.78881
5599.15,0.78854
5576,0.78430
5552.86,0.78352
5529.71,0.78280
5506.57,0.78621
5483.42,0.78264
5460.28,0.78494
5437.13,0.79102
5413.99,0.79758
5390.84,0.79513
5367.7,0.79673
5344.55,0.79464
5321.41,0.79641
5298.26,0.79492
5275.12,0.78939
5251.97,0.78570
5228.83,0.78157
5205.68,0.78188
5182.54,0.78114
5159.39,0.77712
5136.25,0.76936
5113.1,0.76317
5089.96,0.77990
5066.81,0.78457
5043.67,0.78671
5020.52,0.78611
4997.38,0.78684
4974.23,0.78660
4951.09,0.78177
4927.94,0.77684
4904.8,0.77225
4881.65,0.76824
4858.51,0.76717
4835.36,0.75855
4812.22,0.74386
4789.07,0.73925
4765.93,0.74517
4742.78,0.72575
4719.64,0.68944
4696.49,0.65913
4673.35,0.68235
4650.2,0.69271
4627.06,0.68089
4603.91,0.71681
4580.77,0.69216
4557.62,0.72615
4534.48,0.72540
4511.33,0.71024
4488.19,0.66251
4465.04,0.61760
4441.9,0.59466
4418.75,0.60591
4395.61,0.61837
4372.46,0.62881
4349.32,0.62403
4326.17,0.61676
4303.03,0.60162
4279.88,0.59806
4256.74,0.60708
4233.59,0.60619
4210.45,0.61686
4187.3,0.61550
4164.16,0.61884
4141.01,0.62121
4117.87,0.60657
4094.72,0.54865
4071.58,0.59418
4048.43,0.61768
4025.29,0.63177
4002.14,0.63320
3979,0.64023
3955.85,0.64706
3932.71,0.65430
3909.57,0.65875
3886.42,0.67555
3863.28,0.68313
3840.13,0.68536
3816.99,0.67888
3793.84,0.67791
3770.7,0.67388
3747.55,0.68060
3724.41,0.68300
3701.26,0.66718
3678.12,0.63902
3654.97,0.63917
3631.83,0.60383
3608.68,0.57248
3585.54,0.52727
3562.39,0.47337
3539.25,0.45286
3516.1,0.45660
3492.96,0.45463
3469.81,0.43271
3446.67,0.37895
3423.52,0.35786
3400.38,0.42426
3377.23,0.43266
3354.09,0.42011
3330.94,0.40543
3307.8,0.41505
3284.65,0.42198
3261.51,0.43114
3238.36,0.43391
3215.22,0.44492
3192.07,0.44644
3168.93,0.44941
3145.78,0.44328
3122.64,0.42799
3099.49,0.40275
3076.35,0.38730
3053.2,0.37004
3030.06,0.41400
3006.91,0.33608
2983.77,0.28567
2960.62,0.24112
2937.48,0.32365
2914.33,0.28364
2891.19,0.32479
2868.04,0.35456
2844.9,0.40345
2821.75,0.47042
2798.61,0.47807
2775.46,0.50917
2752.32,0.51488
2729.17,0.53371
2706.03,0.55415
2682.88,0.56326
2659.74,0.56632
2636.59,0.53800
2613.45,0.53631
2590.3,0.52080
2567.16,0.51722
2544.01,0.51230
2520.87,0.52095
2497.72,0.53062
2474.58,0.55681
2451.43,0.55975
2428.29,0.53043
2405.14,0.49468
2382,0.48580
2358.85,0.51822
2335.71,0.54168
2312.56,0.55354
2289.42,0.50335
2266.27,0.49424
2243.13,0.50676
2219.98,0.52270
2196.84,0.53895
2173.7,0.51732
2150.55,0.46291
2127.41,0.42680
2104.26,0.40815
2081.12,0.43360
2057.97,0.49034
2034.83,0.51021
2011.68,0.46748
1988.54,0.41490
1965.39,0.33725
1942.25,0.37105
1919.1,0.43067
1895.96,0.45396
1872.81,0.44214
1849.67,0.36904
1826.52,0.29852
1803.38,0.28591
1780.23,0.24961
1757.09,0.14496
1733.94,0.03340
1710.8,0.08158
1687.65,0.17591
1664.51,0.23591
1641.36,0.27647
1618.22,0.27225
1595.07,0.29528
1571.93,0.25337
1548.78,0.28570
1525.64,0.25944
1502.49,0.16378
1479.35,0.20314
1456.2,0.15030
1433.06,0.16930
1409.91,0.05888
1386.77,0.10714
1363.62,0.10132
1340.48,0.05829
1317.33,0.06824
1294.19,0.03713
1271.04,0.06050
1247.9,0.06237
1224.75,0.14653
1201.61,0.24687
1178.46,0.19960
1155.32,0.10404
1132.17,0.05448
1109.03,0.06087
1085.88,0.12633
1062.74,0.26940
1039.59,0.20802
1016.45,0.14062
993.303,0.30700
970.158,0.19012
947.014,0.35266
923.869,0.35593
900.724,0.26018
877.579,0.18847
854.434,0.18954
831.289,0.26510
808.144,0.26730
784.999,0.26476
761.854,0.28965
738.709,0.10092
715.564,0.23839
692.419,0.30287
669.274,0.29214
646.129,0.30124
622.984,0.29347
599.84,0.28265

File: Overstuffed_Chair_Polyester_Fabric_IS_S_221019_R8.dpt
7497.03,0.83556
7473.88,0.83341
7450.74,0.82759
7427.59,0.82440
7404.45,0.83038
7381.31,0.82800
7358.16,0.81699
7335.02,0.81476
7311.87,0.82012
7288.73,0.82369
7265.58,0.82345
7242.44,0.81408
7219.29,0.82422
7196.15,0.81421
7173,0.81973
7149.86,0.81664
7126.71,0.81271
7103.57,0.80767
7080.42,0.81209
7057.28,0.81041
7034.13,0.81169
7010.99,0.80217
6987.84,0.81070
6964.7,0.80342
6941.55,0.80711
6918.41,0.80778
6895.26,0.81063
6872.12,0.80926
6848.97,0.80447
6825.83,0.80931
6802.68,0.81072
6779.54,0.81335
6756.39,0.81064
6733.25,0.81167
6710.1,0.81572
6686.96,0.81598
6663.81,0.82109
6640.67,0.81680
6617.52,0.81813
6594.38,0.81595
6571.23,0.81620
6548.09,0.81543
6524.94,0.81789
6501.8,0.81944
6478.65,0.81980
6455.51,0.82231
6432.36,0.81729
6409.22,0.81736
6386.07,0.82052
6362.93,0.81863
6339.78,0.81764
6316.64,0.81694
6293.49,0.81517
6270.35,0.81655
6247.2,0.81430
6224.06,0.81517
6200.91,0.80774
6177.77,0.80812
6154.62,0.79952
6131.48,0.79817
6108.33,0.78286
6085.19,0.75261
6062.04,0.72141
6038.9,0.69232
6015.75,0.67502
5992.61,0.70789
5969.46,0.72033
5946.32,0.73268
5923.17,0.74460
5900.03,0.76473
5876.88,0.75236
5853.74,0.74604
5830.59,0.75185
5807.45,0.74828
5784.3,0.75119
5761.16,0.75735
5738.01,0.77026
5714.87,0.77702
5691.72,0.77941
5668.58,0.77835
5645.44,0.77895
5622.29,0.78784
5599.15,0.78836
5576,0.78286
5552.86,0.78248
5529.71,0.78352
5506.57,0.78906
5483.42,0.78325
5460.28,0.78476
5437.13,0.79233
5413.99,0.79656
5390.84,0.79583
5367.7,0.79747
5344.55,0.79756
5321.41,0.79810
5298.26,0.79572
5275.12,0.79144
5251.97,0.78471
5228.83,0.78430
5205.68,0.78307
5182.54,0.78375
5159.39,0.77828
5136.25,0.77120
5113.1,0.76452
5089.96,0.78017
5066.81,0.78603
5043.67,0.78781
5020.52,0.78696
4997.38,0.78818
4974.23,0.78691
4951.09,0.78289
4927.94,0.77785
4904.8,0.77215
4881.65,0.77004
4858.51,0.76756
4835.36,0.75793
4812.22,0.74341
4789.07,0.73908
4765.93,0.74516
4742.78,0.72555
4719.64,0.68937
4696.49,0.65958
4673.35,0.68339
4650.2,0.69287
4627.06,0.68065
4603.91,0.71642
4580.77,0.69139
4557.62,0.72611
4534.48,0.72591
4511.33,0.71067
4488.19,0.66352
4465.04,0.61803
4441.9,0.59386
4418.75,0.60522
4395.61,0.61939
4372.46,0.63004
4349.32,0.62306
4326.17,0.61666
4303.03,0.60174
4279.88,0.59730
4256.74,0.60642
4233.59,0.60553
4210.45,0.61713
4187.3,0.61548
4164.16,0.61954
4141.01,0.62144
4117.87,0.60730
4094.72,0.54922
4071.58,0.59491
4048.43,0.61803
4025.29,0.63208
4002.14,0.63259
3979,0.64019
3955.85,0.64769
3932.71,0.65398
3909.57,0.65885
3886.42,0.67504
3863.28,0.68271
3840.13,0.68521
3816.99,0.67899
3793.84,0.67721
3770.7,0.67362
3747.55,0.68116
3724.41,0.68397
3701.26,0.66768
3678.12,0.64246
3654.97,0.64679
3631.83,0.61234
3608.68,0.57783
3585.54,0.53043
3562.39,0.47622
3539.25,0.45530
3516.1,0.45882
3492.96,0.45626
3469.81,0.43347
3446.67,0.37981
3423.52,0.35779
3400.38,0.42446
3377.23,0.43387
3354.09,0.42098
3330.94,0.40642
3307.8,0.41515
3284.65,0.42216
3261.51,0.43203
3238.36,0.43464
3215.22,0.44538
3192.07,0.44766
3168.93,0.45046
3145.78,0.44508
3122.64,0.42857
3099.49,0.40279
3076.35,0.38835
3053.2,0.37093
3030.06,0.41503
3006.91,0.33638
2983.77,0.28522
2960.62,0.24109
2937.48,0.32394
2914.33,0.28434
2891.19,0.32488
2868.04,0.35512
2844.9,0.40369
2821.75,0.47047
2798.61,0.47820
2775.46,0.50922
2752.32,0.51579
2729.17,0.53440
2706.03,0.55426
2682.88,0.56359
2659.74,0.56618
2636.59,0.53816
2613.45,0.53641
2590.3,0.52076
2567.16,0.51711
2544.01,0.51228
2520.87,0.52120
2497.72,0.53093
2474.58,0.55687
2451.43,0.56000
2428.29,0.53065
2405.14,0.49461
2382,0.48568
2358.85,0.51882
2335.71,0.54133
2312.56,0.55360
2289.42,0.50316
2266.27,0.49392
2243.13,0.50625
2219.98,0.52311
2196.84,0.53903
2173.7,0.51739
2150.55,0.46283
2127.41,0.42692
2104.26,0.40784
2081.12,0.43326
2057.97,0.49045
2034.83,0.51031
2011.68,0.46732
1988.54,0.41473
1965.39,0.33746
1942.25,0.37119
1919.1,0.43028
1895.96,0.45420
1872.81,0.44213
1849.67,0.36891
1826.52,0.29840
1803.38,0.28596
1780.23,0.25004
1757.09,0.14493
1733.94,0.03320
1710.8,0.08166
1687.65,0.17572
1664.51,0.23601
1641.36,0.27742
1618.22,0.27287
1595.07,0.29558
1571.93,0.25359
1548.78,0.28540
1525.64,0.25937
1502.49,0.16339
1479.35,0.20332
1456.2,0.15055
1433.06,0.16906
1409.91,0.05876
1386.77,0.10705
1363.62,0.10103
1340.48,0.05817
1317.33,0.06795
1294.19,0.03711
1271.04,0.06051
1247.9,0.06221
1224.75,0.14645
1201.61,0.24692
1178.46,0.19954
1155.32,0.10325
1132.17,0.05367
1109.03,0.06072
1085.88,0.12498
1062.74,0.26924
1039.59,0.20821
1016.45,0.14050
993.303,0.30586
970.158,0.18992
947.014,0.35292
923.869,0.35543
900.724,0.26090
877.579,0.18925
854.434,0.19012
831.289,0.26557
808.144,0.26783
784.999,0.26456
761.854,0.28904
738.709,0.09979
715.564,0.23825
692.419,0.30376
669.274,0.29234
646.129,0.30019
622.984,0.29239
599.84,0.28488

File: Overstuffed_Chair_Polyester_Fabric_IS_T_221019_R2.dpt
7497.03,0.03114
7473.88,0.02945
7450.74,0.02857
7427.59,0.03061
7404.45,0.02309
7381.31,0.02387
7358.16,0.02559
7335.02,0.02304
7311.87,0.02725
7288.73,0.02848
7265.58,0.02464
7242.44,0.01609
7219.29,0.02449
7196.15,0.02067
7173,0.02459
7149.86,0.02243
7126.71,0.02105
7103.57,0.02624
7080.42,0.02916
7057.28,0.02453
7034.13,0.02832
7010.99,0.01927
6987.84,0.02489
6964.7,0.01801
6941.55,0.02029
6918.41,0.02240
6895.26,0.02633
6872.12,0.02522
6848.97,0.02254
6825.83,0.02032
6802.68,0.02102
6779.54,0.02594
6756.39,0.01855
6733.25,0.02404
6710.1,0.01872
6686.96,0.02088
6663.81,0.02591
6640.67,0.01754
6617.52,0.02391
6594.38,0.02433
6571.23,0.02042
6548.09,0.01706
6524.94,0.02462
6501.8,0.02274
6478.65,0.02061
6455.51,0.02665
6432.36,0.02225
6409.22,0.02513
6386.07,0.01878
6362.93,0.02290
6339.78,0.02362
6316.64,0.02393
6293.49,0.02314
6270.35,0.01832
6247.2,0.02436
6224.06,0.02497
6200.91,0.02219
6177.77,0.02211
6154.62,0.02151
6131.48,0.01891
6108.33,0.02140
6085.19,0.02210
6062.04,0.02075
6038.9,0.02365
6015.75,0.02138
5992.61,0.02193
5969.46,0.02214
5946.32,0.02057
5923.17,0.02103
5900.03,0.02451
5876.88,0.02224
5853.74,0.02254
5830.59,0.02024
5807.45,0.02276
5784.3,0.02247
5761.16,0.02312
5738.01,0.02173
5714.87,0.02299
5691.72,0.02463
5668.58,0.02145
5645.44,0.02262
5622.29,0.02166
5599.15,0.02273
5576,0.02258
5552.86,0.02387
5529.71,0.01954
5506.57,0.02049
5483.42,0.02085
5460.28,0.02301
5437.13,0.02334
5413.99,0.02163
5390.84,0.02257
5367.7,0.02205
5344.55,0.02145
5321.41,0.02119
5298.26,0.02283
5275.12,0.02308
5251.97,0.02419
5228.83,0.02153
5205.68,0.02191
5182.54,0.02276
5159.39,0.02162
5136.25,0.02243
5113.1,0.02111
5089.96,0.02134
5066.81,0.02109
5043.67,0.02372
5020.52,0.02298
4997.38,0.02272
4974.23,0.02183
4951.09,0.02215
4927.94,0.02164
4904.8,0.02232
4881.65,0.02212
4858.51,0.02160
4835.36,0.02157
4812.22,0.02191
4789.07,0.02218
4765.93,0.02228
4742.78,0.02230
4719.64,0.02281
4696.49,0.02293
4673.35,0.02275
4650.2,0.02206
4627.06,0.02227
4603.91,0.02205
4580.77,0.02276
4557.62,0.02194
4534.48,0.02263
4511.33,0.02188
4488.19,0.02281
4465.04,0.02310
4441.9,0.02207
4418.75,0.02231
4395.61,0.02247
4372.46,0.02278
4349.32,0.02247
4326.17,0.02217
4303.03,0.02184
4279.88,0.02283
4256.74,0.02256
4233.59,0.02240
4210.45,0.02266
4187.3,0.02248
4164.16,0.02240
4141.01,0.02252
4117.87,0.02287
4094.72,0.02277
4071.58,0.02324
4048.43,0.02232
4025.29,0.02316
4002.14,0.02247
3979,0.02332
3955.85,0.02201
3932.71,0.02266
3909.57,0.02254
3886.42,0.02254
3863.28,0.02304
3840.13,0.02300
3816.99,0.02234
3793.84,0.02297
3770.7,0.02210
3747.55,0.02267
3724.41,0.02287
3701.26,0.02217
3678.12,0.02299
3654.97,0.02238
3631.83,0.02195
3608.68,0.02118
3585.54,0.02177
3562.39,0.02064
3539.25,0.02124
3516.1,0.02097
3492.96,0.02135
3469.81,0.02161
3446.67,0.02045
3423.52,0.02113
3400.38,0.01999
3377.23,0.02051
3354.09,0.02111
3330.94,0.02085
3307.8,0.02081
3284.65,0.02145
3261.51,0.02108
3238.36,0.02080
3215.22,0.02049
3192.07,0.02129
3168.93,0.02103
3145.78,0.02101
3122.64,0.02128
3099.49,0.02112
3076.35,0.02068
3053.2,0.02083
3030.06,0.02074
3006.91,0.02058
2983.77,0.01998
2960.62,0.01975
2937.48,0.01953
2914.33,0.02035
2891.19,0.02083
2868.04,0.02056
2844.9,0.02141
2821.75,0.02153
2798.61,0.02179
2775.46,0.02155
2752.32,0.02167
2729.17,0.02153
2706.03,0.02158
2682.88,0.02172
2659.74,0.02161
2636.59,0.02136
2613.45,0.02150
2590.3,0.02158
2567.16,0.02156
2544.01,0.02161
2520.87,0.02177
2497.72,0.02180
2474.58,0.02161
2451.43,0.02152
2428.29,0.02175
2405.14,0.02135
2382,0.02154
2358.85,0.02205
2335.71,0.02118
2312.56,0.02169
2289.42,0.02127
2266.27,0.02148
2243.13,0.02147
2219.98,0.02152
2196.84,0.02130
2173.7,0.02132
2150.55,0.02141
2127.41,0.02152
2104.26,0.02111
2081.12,0.02149
2057.97,0.02101
2034.83,0.02169
2011.68,0.02121
1988.54,0.02116
1965.39,0.02116
1942.25,0.02120
1919.1,0.02139
1895.96,0.02118
1872.81,0.02069
1849.67,0.02069
1826.52,0.02022
1803.38,0.01989
1780.23,0.01968
1757.09,0.01800
1733.94,0.01987
1710.8,0.02055
1687.65,0.01959
1664.51,0.01891
1641.36,0.01873
1618.22,0.01929
1595.07,0.01892
1571.93,0.01850
1548.78,0.01789
1525.64,0.01873
1502.49,0.01868
1479.35,0.01883
1456.2,0.01873
1433.06,0.01882
1409.91,0.01845
1386.77,0.01790
1363.62,0.01832
1340.48,0.01831
1317.33,0.01716
1294.19,0.01798
1271.04,0.01940
1247.9,0.02012
1224.75,0.01980
1201.61,0.01917
1178.46,0.01803
1155.32,0.01800
1132.17,0.01817
1109.03,0.01870
1085.88,0.01796
1062.74,0.01996
1039.59,0.02058
1016.45,0.01915
993.303,0.02130
970.158,0.02067
947.014,0.02014
923.869,0.01998
900.724,0.01909
877.579,0.01916
854.434,0.01900
831.289,0.01934
808.144,0.01834
784.999,0.01859
761.854,0.01800
738.709,0.01861
715.564,0.01835
692.419,0.01859
669.274,0.01835
646.129,0.01585
622.984,0.01660
599.84,0.01826

File: Overstuffed_Chair_Polyester_Fabric_IS_T_221019_R3.dpt
7497.03,0.02496
7473.88,0.02685
7450.74,0.02832
7427.59,0.02270
7404.45,0.02200
7381.31,0.02878
7358.16,0.02186
7335.02,0.03370
7311.87,0.03538
7288.73,0.02742
7265.58,0.02108
7242.44,0.01819
7219.29,0.03134
7196.15,0.02466
7173,0.02750
7149.86,0.02359
7126.71,0.02484
7103.57,0.02757
7080.42,0.01984
7057.28,0.02054
7034.13,0.02584
7010.99,0.02138
6987.84,0.02323
6964.7,0.02139
6941.55,0.02181
6918.41,0.02537
6895.26,0.02819
6872.12,0.02335
6848.97,0.02698
6825.83,0.02290
6802.68,0.02596
6779.54,0.02322
6756.39,0.02691
6733.25,0.02691
6710.1,0.02165
6686.96,0.02058
6663.81,0.02888
6640.67,0.02506
6617.52,0.02237
6594.38,0.02343
6571.23,0.02360
6548.09,0.01880
6524.94,0.02346
6501.8,0.02154
6478.65,0.02264
6455.51,0.02305
6432.36,0.02584
6409.22,0.02696
6386.07,0.01977
6362.93,0.02214
6339.78,0.02177
6316.64,0.02395
6293.49,0.02050
6270.35,0.01919
6247.2,0.02600
6224.06,0.02030
6200.91,0.02159
6177.77,0.01870
6154.62,0.02039
6131.48,0.01852
6108.33,0.02227
6085.19,0.02056
6062.04,0.02274
6038.9,0.02175
6015.75,0.02187
5992.61,0.02221
5969.46,0.02170
5946.32,0.01852
5923.17,0.01934
5900.03,0.02127
5876.88,0.02206
5853.74,0.02041
5830.59,0.02330
5807.45,0.01962
5784.3,0.02177
5761.16,0.02262
5738.01,0.02055
5714.87,0.02353
5691.72,0.02076
5668.58,0.02161
5645.44,0.02381
5622.29,0.02041
5599.15,0.02038
5576,0.02142
5552.86,0.02246
5529.71,0.02470
5506.57,0.02126
5483.42,0.02056
5460.28,0.02190
5437.13,0.02145
5413.99,0.02020
5390.84,0.02089
5367.7,0.02112
5344.55,0.02036
5321.41,0.02117
5298.26,0.02254
5275.12,0.02254
5251.97,0.02150
5228.83,0.02198
5205.68,0.02083
5182.54,0.02321
5159.39,0.02224
5136.25,0.02158
5113.1,0.02245
5089.96,0.02181
5066.81,0.02450
5043.67,0.02252
5020.52,0.02220
4997.38,0.02327
4974.23,0.02217
4951.09,0.02154
4927.94,0.02248
4904.8,0.02180
4881.65,0.02179
4858.51,0.02121
4835.36,0.02167
4812.22,0.02238
4789.07,0.02333
4765.93,0.02236
4742.78,0.02147
4719.64,0.02344
4696.49,0.02251
4673.35,0.02293
4650.2,0.02265
4627.06,0.02276
4603.91,0.02208
4580.77,0.02237
4557.62,0.02173
4534.48,0.02286
4511.33,0.02269
4488.19,0.02220
4465.04,0.02247
4441.9,0.02275
4418.75,0.02244
4395.61,0.02203
4372.46,0.02193
4349.32,0.02214
4326.17,0.02225
4303.03,0.02266
4279.88,0.02318
4256.74,0.02268
4233.59,0.02274
4210.45,0.02228
4187.3,0.02283
4164.16,0.02283
4141.01,0.02282
4117.87,0.02373
4094.72,0.02263
4071.58,0.02259
4048.43,0.02268
4025.29,0.02259
4002.14,0.02284
3979,0.02267
3955.85,0.02309
3932.71,0.02250
3909.57,0.02283
3886.42,0.02325
3863.28,0.02340
3840.13,0.02291
3816.99,0.02296
3793.84,0.02315
3770.7,0.02235
3747.55,0.02298
3724.41,0.02266
3701.26,0.02281
3678.12,0.02263
3654.97,0.02199
3631.83,0.02249
3608.68,0.02171
3585.54,0.02182
3562.39,0.02181
3539.25,0.02129
3516.1,0.02151
3492.96,0.02033
3469.81,0.02064
3446.67,0.02082
3423.52,0.02065
3400.38,0.02129
3377.23,0.02080
3354.09,0.02074
3330.94,0.02052
3307.8,0.02046
3284.65,0.02065
3261.51,0.02048
3238.36,0.02133
3215.22,0.02124
3192.07,0.02091
3168.93,0.02181
3145.78,0.02096
3122.64,0.02143
3099.49,0.02126
3076.35,0.02075
3053.2,0.02063
3030.06,0.02120
3006.91,0.02102
2983.77,0.02024
2960.62,0.02017
2937.48,0.02003
2914.33,0.02063
2891.19,0.02037
2868.04,0.02100
2844.9,0.02150
2821.75,0.02196
2798.61,0.02152
2775.46,0.02169
2752.32,0.02154
2729.17,0.02123
2706.03,0.02176
2682.88,0.02157
2659.74,0.02175
2636.59,0.02175
2613.45,0.02169
2590.3,0.02168
2567.16,0.02179
2544.01,0.02193
2520.87,0.02189
2497.72,0.02180
2474.58,0.02146
2451.43,0.02198
2428.29,0.02155
2405.14,0.02200
2382,0.02165
2358.85,0.02173
2335.71,0.02197
2312.56,0.02130
2289.42,0.02197
2266.27,0.02131
2243.13,0.02149
2219.98,0.02140
2196.84,0.02157
2173.7,0.02179
2150.55,0.02137
2127.41,0.02168
2104.26,0.02147
2081.12,0.02131
2057.97,0.02120
2034.83,0.02151
2011.68,0.02117
1988.54,0.02143
1965.39,0.02144
1942.25,0.02143
1919.1,0.02154
1895.96,0.02112
1872.81,0.02120
1849.67,0.02071
1826.52,0.02078
1803.38,0.02040
1780.23,0.01988
1757.09,0.01840
1733.94,0.01979
1710.8,0.02077
1687.65,0.01957
1664.51,0.01899
1641.36,0.01899
1618.22,0.01921
1595.07,0.01882
1571.93,0.01835
1548.78,0.01844
1525.64,0.01882
1502.49,0.01925
1479.35,0.01909
1456.2,0.01869
1433.06,0.01892
1409.91,0.01824
1386.77,0.01839
1363.62,0.01838
1340.48,0.01783
1317.33,0.01749
1294.19,0.01793
1271.04,0.01978
1247.9,0.02025
1224.75,0.01957
1201.61,0.01859
1178.46,0.01790
1155.32,0.01779
1132.17,0.01812
1109.03,0.01893
1085.88,0.01818
1062.74,0.02034
1039.59,0.01984
1016.45,0.01991
993.303,0.02062
970.158,0.02075
947.014,0.01997
923.869,0.02019
900.724,0.01934
877.579,0.01969
854.434,0.01929
831.289,0.01875
808.144,0.01877
784.999,0.01866
761.854,0.01907
738.709,0.01877
715.564,0.01877
692.419,0.01879
669.274,0.01748
646.129,0.01675
622.984,0.01645
599.84,0.01489

File: Overstuffed_Chair_Polyester_Fabric_IS_TRANS_MEAS_210623_R4.dpt
5998.34,0.09056
5979.05,0.10198
5959.76,0.10956
5940.48,0.11835
5921.19,0.13464
5901.9,0.14202
5882.61,0.12466
5863.33,0.12861
5844.04,0.14757
5824.75,0.13928
5805.47,0.13751
5786.18,0.12762
5766.89,0.14520
5747.6,0.14779
5728.32,0.16054
5709.03,0.15615
5689.74,0.16253
5670.46,0.16033
5651.17,0.17452
5631.88,0.16661
5612.59,0.17103
5593.31,0.16644
5574.02,0.16663
5554.73,0.16811
5535.44,0.16415
5516.16,0.17146
5496.87,0.16020
5477.58,0.18083
5458.3,0.16903
5439.01,0.17403
5419.72,0.17901
5400.43,0.17114
5381.15,0.18138
5361.86,0.18149
5342.57,0.17435
5323.28,0.17602
5304,0.17427
5284.71,0.17759
5265.42,0.17433
5246.14,0.15968
5226.85,0.16262
5207.56,0.16421
5188.27,0.16969
5168.99,0.17376
5149.7,0.16336
5130.41,0.16527
5111.12,0.15536
5091.84,0.16943
5072.55,0.16858
5053.26,0.17325
5033.98,0.17276
5014.69,0.17089
4995.4,0.16958
4976.11,0.17091
4956.83,0.17073
4937.54,0.16777
4918.25,0.16253
4898.96,0.16656
4879.68,0.16250
4860.39,0.16438
4841.1,0.15751
4821.82,0.14397
4802.53,0.13881
4783.24,0.14245
4763.95,0.14926
4744.67,0.13373
4725.38,0.10852
4706.09,0.09828
4686.8,0.08204
4667.52,0.10707
4648.23,0.10740
4628.94,0.09267
4609.66,0.12435
4590.37,0.11360
4571.08,0.11829
4551.79,0.13226
4532.51,0.12972
4513.22,0.12081
4493.93,0.09856
4474.64,0.07941
4455.36,0.05999
4436.07,0.05235
4416.78,0.06362
4397.5,0.06740
4378.21,0.07227
4358.92,0.06889
4339.63,0.06900
4320.35,0.06541
4301.06,0.06035
4281.77,0.06358
4262.48,0.06551
4243.2,0.06549
4223.91,0.06653
4204.62,0.07302
4185.34,0.06763
4166.05,0.07271
4146.76,0.07495
4127.47,0.06751
4108.19,0.06361
4088.9,0.04928
4069.61,0.06398
4050.33,0.07183
4031.04,0.07817
4011.75,0.07812
3992.46,0.08070
3973.18,0.08469
3953.89,0.08913
3934.6,0.08952
3915.31,0.09234
3896.03,0.09949
3876.74,0.10781
3857.45,0.11215
3838.17,0.11745
3818.88,0.11066
3799.59,0.10452
3780.3,0.10595
3761.02,0.09776
3741.73,0.11380
3722.44,0.11200
3703.15,0.09878
3683.87,0.06997
3664.58,0.06950
3645.29,0.06145
3626.01,0.05913
3606.72,0.06188
3587.43,0.06030
3568.14,0.05678
3548.86,0.04999
3529.57,0.05177
3510.28,0.05654
3490.99,0.05642
3471.71,0.05358
3452.42,0.04699
3433.13,0.04364
3413.85,0.04731
3394.56,0.05493
3375.27,0.05392
3355.98,0.05283
3336.7,0.04947
3317.41,0.05133
3298.12,0.04977
3278.83,0.05299
3259.55,0.05425
3240.26,0.05396
3220.97,0.05392
3201.69,0.05409
3182.4,0.05663
3163.11,0.05477
3143.82,0.05169
3124.54,0.04903
3105.25,0.04609
3085.96,0.04508
3066.67,0.04533
3047.39,0.04421
3028.1,0.04634
3008.81,0.04315
2989.53,0.04160
2970.24,0.04258
2950.95,0.04261
2931.66,0.04477
2912.38,0.04453
2893.09,0.04434
2873.8,0.04586
2854.51,0.04694
2835.23,0.05106
2815.94,0.05208
2796.65,0.05504
2777.37,0.05995
2758.08,0.06193
2738.79,0.06168
2719.5,0.06995
2700.22,0.07485
2680.93,0.07827
2661.64,0.07900
2642.35,0.07306
2623.07,0.06686
2603.78,0.06634
2584.49,0.06146
2565.21,0.06037
2545.92,0.06023
2526.63,0.05993
2507.34,0.06428
2488.06,0.06886
2468.77,0.07707
2449.48,0.07540
2430.2,0.06645
2410.91,0.05902
2391.62,0.05604
2372.33,0.05046
2353.05,0.05530
2333.76,0.05801
2314.47,0.06810
2295.18,0.06294
2275.9,0.06158
2256.61,0.06217
2237.32,0.06860
2218.04,0.07118
2198.75,0.07731
2179.46,0.07665
2160.17,0.06562
2140.89,0.05946
2121.6,0.05519
2102.31,0.05506
2083.02,0.05784
2063.74,0.06678
2044.45,0.07880
2025.16,0.07336
2005.88,0.06440
1986.59,0.05670
1967.3,0.05227
1948.01,0.05140
1928.73,0.05817
1909.44,0.06531
1890.15,0.06732
1870.86,0.06638
1851.58,0.05526
1832.29,0.05011
1813,0.04958
1793.72,0.04966
1774.43,0.04917
1755.14,0.04600
1735.85,0.04437
1716.57,0.04636
1697.28,0.04932
1677.99,0.04544
1658.7,0.04561
1639.42,0.04718
1620.13,0.04752
1600.84,0.04773
1581.56,0.04503
1562.27,0.05018
1542.98,0.05114
1523.69,0.05192
1504.41,0.04657
1485.12,0.04650
1465.83,0.04499
1446.54,0.04651
1427.26,0.04743
1407.97,0.04275
1388.68,0.04515
1369.4,0.04490
1350.11,0.04460
1330.82,0.04452
1311.53,0.04577
1292.25,0.04397
1272.96,0.04434
1253.67,0.04318
1234.38,0.04292
1215.1,0.04525
1195.81,0.04614
1176.52,0.04577
1157.24,0.04574
1137.95,0.04438
1118.66,0.04297
1099.37,0.04316
1080.09,0.04444
1060.8,0.04479
1041.51,0.04612
1022.22,0.04347
1002.94,0.04832
983.65,0.04471
964.363,0.04700
945.076,0.04746
925.789,0.05168
906.501,0.04764
887.214,0.04610
867.927,0.04768
848.64,0.04723
829.352,0.04961
810.065,0.05105
790.778,0.04852
771.49,0.04925
752.203,0.05436
732.916,0.04444
713.629,0.05037
694.341,0.05126
675.054,0.04799
655.767,0.05448
636.48,0.05555
617.192,0.06362
597.905,0.06447
578.618,0.07268
559.331,0.06341
540.043,0.05750
520.756,0.04120
501.469,0.05024
482.182,0.05592
462.894,0.04748
443.607,0.05396
424.32,0.05852
405.033,0.04746
399.246,0.06186