Folder: fsri_materials_database/01_Data/Overstuffed_Chair_Polyester_Fabric/FTIR/IS

Note: 01_Data/README.md
# Materials and Products Database
## 01_Data

Raw data generated from each apparatus are included here in plain-text format. The data is organized first by material, next by the short name of test apparatus used, and where applicable additional filtering by test settings.

### material.json

Each material directory contains a json file of the same name as the material. This file links the data stored in the repository as well as data and graphs produced by the accompanying scripts (__02_Scripts__) to the respective landing page for the material on the front-end website.

File: Overstuffed_Chair_Polyester_Fabric_IS_REFLECT_MEAS_210623_R1.dpt
5996.41,0.65986
5977.12,0.66811
5957.84,0.69110
5938.55,0.68797
5919.26,0.70664
5899.97,0.72050
5880.69,0.72374
5861.4,0.71675
5842.11,0.72088
5822.82,0.72457
5803.54,0.72667
5784.25,0.72011
5764.96,0.71886
5745.68,0.73815
5726.39,0.74730
5707.1,0.74504
5687.81,0.73534
5668.53,0.73795
5649.24,0.73861
5629.95,0.74460
5610.66,0.74393
5591.38,0.74577
5572.09,0.74670
5552.8,0.74856
5533.52,0.74303
5514.23,0.74553
5494.94,0.74226
5475.65,0.73292
5456.37,0.75323
5437.08,0.75870
5417.79,0.75604
5398.5,0.75080
5379.22,0.75006
5359.93,0.76230
5340.64,0.73811
5321.36,0.74954
5302.07,0.75268
5282.78,0.73922
5263.49,0.71423
5244.21,0.71494
5224.92,0.72085
5205.63,0.72910
5186.34,0.74042
5167.06,0.73473
5147.77,0.73681
5128.48,0.73935
5109.2,0.73030
5089.91,0.74548
5070.62,0.75073
5051.33,0.75391
5032.05,0.75262
5012.76,0.74613
4993.47,0.74382
4974.18,0.74538
4954.9,0.74963
4935.61,0.74389
4916.32,0.74259
4897.04,0.73894
4877.75,0.73670
4858.46,0.73760
4839.17,0.73386
4819.89,0.71985
4800.6,0.71435
4781.31,0.71476
4762.02,0.71378
4742.74,0.69624
4723.45,0.66209
4704.16,0.64226
4684.88,0.61901
4665.59,0.66313
4646.3,0.64899
4627.01,0.64863
4607.73,0.68858
4588.44,0.66405
4569.15,0.67774
4549.87,0.69135
4530.58,0.69155
4511.29,0.67654
4492,0.63715
4472.72,0.60360
4453.43,0.55727
4434.14,0.55005
4414.85,0.57159
4395.57,0.58707
4376.28,0.59453
4356.99,0.59381
4337.71,0.58424
4318.42,0.58069
4299.13,0.55896
4279.84,0.56324
4260.56,0.57358
4241.27,0.56808
4221.98,0.57201
4202.69,0.58492
4183.41,0.57351
4164.12,0.58406
4144.83,0.59118
4125.55,0.57358
4106.26,0.55164
4086.97,0.50296
4067.68,0.56713
4048.4,0.58285
4029.11,0.59906
4009.82,0.59757
3990.53,0.60386
3971.25,0.60676
3951.96,0.61344
3932.67,0.61764
3913.39,0.62205
3894.1,0.63513
3874.81,0.64059
3855.52,0.63749
3836.24,0.64665
3816.95,0.63695
3797.66,0.63371
3778.37,0.63641
3759.09,0.61780
3739.8,0.62379
3720.51,0.62704
3701.23,0.60131
3681.94,0.54212
3662.65,0.51675
3643.36,0.47698
3624.08,0.46082
3604.79,0.47034
3585.5,0.46833
3566.21,0.43779
3546.93,0.41984
3527.64,0.43534
3508.35,0.45208
3489.07,0.45779
3469.78,0.44661
3450.49,0.40732
3431.2,0.34829
3411.92,0.42561
3392.63,0.46117
3373.34,0.46855
3354.05,0.45872
3334.77,0.43994
3315.48,0.45591
3296.19,0.45291
3276.91,0.46450
3257.62,0.46854
3238.33,0.46359
3219.04,0.46930
3199.76,0.47133
3180.47,0.47080
3161.18,0.46766
3141.89,0.45206
3122.61,0.43439
3103.32,0.40073
3084.03,0.39096
3064.75,0.37902
3045.46,0.40766
3026.17,0.39831
3006.88,0.32724
2987.6,0.29124
2968.31,0.21446
2949.02,0.28885
2929.74,0.35867
2910.45,0.28228
2891.16,0.33780
2871.87,0.36711
2852.59,0.39880
2833.3,0.46307
2814.01,0.47115
2794.72,0.48489
2775.44,0.50832
2756.15,0.51349
2736.86,0.52051
2717.58,0.54193
2698.29,0.55617
2679,0.55964
2659.71,0.55900
2640.43,0.53437
2621.14,0.52224
2601.85,0.51683
2582.56,0.49884
2563.28,0.49624
2543.99,0.49148
2524.7,0.49633
2505.42,0.50773
2486.13,0.52139
2466.84,0.53814
2447.55,0.53394
2428.27,0.50238
2408.98,0.46776
2389.69,0.44496
2370.4,0.42099
2351.12,0.43180
2331.83,0.45330
2312.54,0.48361
2293.26,0.46448
2273.97,0.45981
2254.68,0.45511
2235.39,0.47868
2216.11,0.48691
2196.82,0.50282
2177.53,0.48803
2158.24,0.44403
2138.96,0.40660
2119.67,0.37292
2100.38,0.37003
2081.1,0.39487
2061.81,0.44337
2042.52,0.47484
2023.23,0.45350
2003.95,0.41084
1984.66,0.36599
1965.37,0.29984
1946.08,0.32049
1926.8,0.37457
1907.51,0.40752
1888.22,0.41767
1868.94,0.40525
1849.65,0.32918
1830.36,0.27273
1811.07,0.25548
1791.79,0.24651
1772.5,0.20536
1753.21,0.10196
1733.92,0.02697
1714.64,0.04948
1695.35,0.14880
1676.06,0.18342
1656.78,0.24579
1637.49,0.27109
1618.2,0.25773
1598.91,0.27678
1579.63,0.19623
1560.34,0.28323
1541.05,0.29458
1521.76,0.24856
1502.48,0.15122
1483.19,0.20898
1463.9,0.15273
1444.62,0.14247
1425.33,0.14687
1406.04,0.06531
1386.75,0.09366
1367.47,0.08443
1348.18,0.04788
1328.89,0.09377
1309.61,0.03688
1290.32,0.03078
1271.03,0.04698
1251.74,0.05148
1232.46,0.08511
1213.17,0.18885
1193.88,0.24436
1174.59,0.16597
1155.31,0.08756
1136.02,0.03805
1116.73,0.04708
1097.45,0.06233
1078.16,0.18289
1058.87,0.26426
1039.58,0.20018
1020.3,0.08907
1001.01,0.31775
981.722,0.23752
962.434,0.25461
943.147,0.34971
923.86,0.34326
904.573,0.25560
885.285,0.21712
865.998,0.19954
846.711,0.15971
827.424,0.24889
808.136,0.24499
788.849,0.21920
769.562,0.26156
750.274,0.21398
730.987,0.05269
711.7,0.21926
692.413,0.27596
673.125,0.25276
653.838,0.27187
634.551,0.24684
615.264,0.25845
595.976,0.24939
576.689,0.23934
557.402,0.20598
538.115,0.16216
518.827,0.12718
499.54,0.09769
480.253,0.12593
460.966,0.10885
441.678,0.05738
422.391,0.07402
403.104,0.05830
399.246,0.05752

File: Overstuffed_Chair_Polyester_Fabric_IS_REFLECT_MEAS_210623_R4.dpt
5996.41,0.67306
5977.12,0.66647
5957.84,0.68191
5938.55,0.68856
5919.26,0.69925
5899.97,0.71767
5880.69,0.71801
5861.4,0.70356
5842.11,0.71814
5822.82,0.71435
5803.54,0.72272
5784.25,0.71879
5764.96,0.72131
5745.68,0.73640
5726.39,0.74858
5707.1,0.74422
5687.81,0.73997
5668.53,0.74878
5649.24,0.74667
5629.95,0.75278
5610.66,0.75412
5591.38,0.75459
5572.09,0.75227
5552.8,0.75253
5533.52,0.75460
5514.23,0.75278
5494.94,0.75260
5475.65,0.73793
5456.37,0.75896
5437.08,0.76260
5417.79,0.76652
5398.5,0.76092
5379.22,0.75572
5359.93,0.76984
5340.64,0.74799
5321.36,0.75831
5302.07,0.75929
5282.78,0.73989
5263.49,0.70447
5244.21,0.70500
5224.92,0.71633
5205.63,0.72104
5186.34,0.73986
5167.06,0.74018
5147.77,0.73948
5128.48,0.73486
5109.2,0.73008
5089.91,0.74777
5070.62,0.75815
5051.33,0.76053
5032.05,0.75937
5012.76,0.75370
4993.47,0.75361
4974.18,0.75149
4954.9,0.75765
4935.61,0.74947
4916.32,0.74607
4897.04,0.74185
4877.75,0.74174
4858.46,0.74153
4839.17,0.73608
4819.89,0.71827
4800.6,0.71285
4781.31,0.71046
4762.02,0.71315
4742.74,0.69213
4723.45,0.65754
4704.16,0.63742
4684.88,0.61663
4665.59,0.65676
4646.3,0.64442
4627.01,0.64131
4607.73,0.68018
4588.44,0.65850
4569.15,0.67086
4549.87,0.69023
4530.58,0.68900
4511.29,0.67272
4492,0.62932
4472.72,0.60022
4453.43,0.55422
4434.14,0.54366
4414.85,0.56812
4395.57,0.58067
4376.28,0.59305
4356.99,0.58742
4337.71,0.57848
4318.42,0.57606
4299.13,0.55558
4279.84,0.55689
4260.56,0.56750
4241.27,0.56420
4221.98,0.56633
4202.69,0.57966
4183.41,0.56951
4164.12,0.57757
4144.83,0.58391
4125.55,0.56739
4106.26,0.54507
4086.97,0.49793
4067.68,0.56059
4048.4,0.57729
4029.11,0.59142
4009.82,0.59005
3990.53,0.59837
3971.25,0.59906
3951.96,0.60779
3932.67,0.60868
3913.39,0.61332
3894.1,0.62413
3874.81,0.62834
3855.52,0.62082
3836.24,0.63474
3816.95,0.62342
3797.66,0.62177
3778.37,0.62615
3759.09,0.60410
3739.8,0.60765
3720.51,0.61469
3701.23,0.58738
3681.94,0.52463
3662.65,0.49126
3643.36,0.45139
3624.08,0.43471
3604.79,0.44489
3585.5,0.44406
3566.21,0.41877
3546.93,0.40012
3527.64,0.41484
3508.35,0.43304
3489.07,0.43742
3469.78,0.42728
3450.49,0.39278
3431.2,0.33654
3411.92,0.41002
3392.63,0.44460
3373.34,0.45414
3354.05,0.44522
3334.77,0.43003
3315.48,0.44443
3296.19,0.44349
3276.91,0.45279
3257.62,0.45787
3238.33,0.45426
3219.04,0.45856
3199.76,0.46109
3180.47,0.46251
3161.18,0.45946
3141.89,0.44590
3122.61,0.42706
3103.32,0.39404
3084.03,0.38623
3064.75,0.37344
3045.46,0.40338
3026.17,0.39357
3006.88,0.32243
2987.6,0.28729
2968.31,0.21072
2949.02,0.28637
2929.74,0.35552
2910.45,0.27900
2891.16,0.33452
2871.87,0.36359
2852.59,0.39403
2833.3,0.45816
2814.01,0.46631
2794.72,0.48026
2775.44,0.50312
2756.15,0.50792
2736.86,0.51529
2717.58,0.53628
2698.29,0.55080
2679,0.55300
2659.71,0.55314
2640.43,0.52904
2621.14,0.51744
2601.85,0.51172
2582.56,0.49367
2563.28,0.49063
2543.99,0.48623
2524.7,0.49097
2505.42,0.50261
2486.13,0.51662
2466.84,0.53320
2447.55,0.52933
2428.27,0.49717
2408.98,0.46293
2389.69,0.44107
2370.4,0.41251
2351.12,0.42988
2331.83,0.44777
2312.54,0.48026
2293.26,0.46085
2273.97,0.45545
2254.68,0.45057
2235.39,0.47463
2216.11,0.48313
2196.82,0.49873
2177.53,0.48358
2158.24,0.44010
2138.96,0.40304
2119.67,0.37001
2100.38,0.36757
2081.1,0.39222
2061.81,0.43920
2042.52,0.47108
2023.23,0.44919
2003.95,0.40759
1984.66,0.36272
1965.37,0.29709
1946.08,0.31830
1926.8,0.37170
1907.51,0.40374
1888.22,0.41400
1868.94,0.40082
1849.65,0.32686
1830.36,0.26893
1811.07,0.25386
1791.79,0.24202
1772.5,0.20028
1753.21,0.09931
1733.92,0.02508
1714.64,0.04608
1695.35,0.14431
1676.06,0.17909
1656.78,0.23971
1637.49,0.26176
1618.2,0.24989
1598.91,0.27378
1579.63,0.19264
1560.34,0.27570
1541.05,0.28494
1521.76,0.24616
1502.48,0.14640
1483.19,0.20555
1463.9,0.14967
1444.62,0.13994
1425.33,0.14553
1406.04,0.06308
1386.75,0.09115
1367.47,0.08241
1348.18,0.04609
1328.89,0.09217
1309.61,0.03587
1290.32,0.02941
1271.03,0.04599
1251.74,0.04849
1232.46,0.08189
1213.17,0.18477
1193.88,0.24171
1174.59,0.16309
1155.31,0.08569
1136.02,0.03637
1116.73,0.04312
1097.45,0.05896
1078.16,0.17839
1058.87,0.26399
1039.58,0.19686
1020.3,0.08334
1001.01,0.31605
981.722,0.23532
962.434,0.25254
943.147,0.34574
923.86,0.33898
904.573,0.25171
885.285,0.21365
865.998,0.19764
846.711,0.15339
827.424,0.24739
808.136,0.24273
788.849,0.21526
769.562,0.25768
750.274,0.21281
730.987,0.04783
711.7,0.21673
692.413,0.27193
673.125,0.24645
653.838,0.26197
634.551,0.24298
615.264,0.25097
595.976,0.24541
576.689,0.23332
557.402,0.19624
538.115,0.16375
518.827,0.12162
499.54,0.09842
480.253,0.11578
460.966,0.11115
441.678,0.05654
422.391,0.08302
403.104,0.05411
399.246,0.04237

File: Overstuffed_Chair_Polyester_Fabric_IS_REFLECT_MEAS_210623_R5.dpt
5996.41,0.65687
5977.12,0.66594
5957.84,0.67427
5938.55,0.68416
5919.26,0.70073
5899.97,0.70791
5880.69,0.70953
5861.4,0.71128
5842.11,0.70549
5822.82,0.71272
5803.54,0.71783
5784.25,0.72162
5764.96,0.71869
5745.68,0.72660
5726.39,0.74211
5707.1,0.73785
5687.81,0.73686
5668.53,0.74112
5649.24,0.74069
5629.95,0.75812
5610.66,0.75066
5591.38,0.75258
5572.09,0.75438
5552.8,0.74855
5533.52,0.74411
5514.23,0.74874
5494.94,0.73914
5475.65,0.73636
5456.37,0.75004
5437.08,0.76440
5417.79,0.76226
5398.5,0.75868
5379.22,0.75768
5359.93,0.76230
5340.64,0.74433
5321.36,0.76063
5302.07,0.75448
5282.78,0.73484
5263.49,0.70485
5244.21,0.70584
5224.92,0.71095
5205.63,0.72033
5186.34,0.73670
5167.06,0.73698
5147.77,0.73513
5128.48,0.73463
5109.2,0.72929
5089.91,0.74619
5070.62,0.75541
5051.33,0.75688
5032.05,0.75803
5012.76,0.75237
4993.47,0.75170
4974.18,0.75297
4954.9,0.75234
4935.61,0.74304
4916.32,0.73823
4897.04,0.73635
4877.75,0.73674
4858.46,0.73852
4839.17,0.73265
4819.89,0.71255
4800.6,0.70556
4781.31,0.70526
4762.02,0.70792
4742.74,0.68628
4723.45,0.64894
4704.16,0.63147
4684.88,0.60907
4665.59,0.65110
4646.3,0.63872
4627.01,0.63587
4607.73,0.67562
4588.44,0.65017
4569.15,0.66739
4549.87,0.68406
4530.58,0.68370
4511.29,0.66903
4492,0.62354
4472.72,0.59387
4453.43,0.54523
4434.14,0.53662
4414.85,0.56041
4395.57,0.57335
4376.28,0.58320
4356.99,0.57905
4337.71,0.57151
4318.42,0.56937
4299.13,0.54874
4279.84,0.54980
4260.56,0.56026
4241.27,0.55592
4221.98,0.56015
4202.69,0.57253
4183.41,0.56206
4164.12,0.57265
4144.83,0.57733
4125.55,0.55894
4106.26,0.53902
4086.97,0.49114
4067.68,0.55320
4048.4,0.57145
4029.11,0.58565
4009.82,0.58390
3990.53,0.59223
3971.25,0.59308
3951.96,0.59993
3932.67,0.60252
3913.39,0.60600
3894.1,0.61622
3874.81,0.62208
3855.52,0.61644
3836.24,0.62807
3816.95,0.61789
3797.66,0.61536
3778.37,0.62128
3759.09,0.59691
3739.8,0.59980
3720.51,0.60870
3701.23,0.58209
3681.94,0.52008
3662.65,0.49095
3643.36,0.45423
3624.08,0.43830
3604.79,0.45293
3585.5,0.44616
3566.21,0.42112
3546.93,0.40279
3527.64,0.41683
3508.35,0.43367
3489.07,0.43801
3469.78,0.42754
3450.49,0.39055
3431.2,0.33333
3411.92,0.40737
3392.63,0.44342
3373.34,0.45211
3354.05,0.44170
3334.77,0.42435
3315.48,0.43902
3296.19,0.43560
3276.91,0.44622
3257.62,0.45303
3238.33,0.44819
3219.04,0.45327
3199.76,0.45627
3180.47,0.45630
3161.18,0.45311
3141.89,0.44041
3122.61,0.42068
3103.32,0.38747
3084.03,0.37907
3064.75,0.36683
3045.46,0.39749
3026.17,0.38696
3006.88,0.31713
2987.6,0.28299
2968.31,0.20783
2949.02,0.28109
2929.74,0.34763
2910.45,0.27391
2891.16,0.32979
2871.87,0.35806
2852.59,0.38798
2833.3,0.45149
2814.01,0.46035
2794.72,0.47296
2775.44,0.49709
2756.15,0.50204
2736.86,0.50877
2717.58,0.53094
2698.29,0.54425
2679,0.54757
2659.71,0.54700
2640.43,0.52226
2621.14,0.51098
2601.85,0.50501
2582.56,0.48662
2563.28,0.48425
2543.99,0.47974
2524.7,0.48422
2505.42,0.49625
2486.13,0.50967
2466.84,0.52641
2447.55,0.52181
2428.27,0.49070
2408.98,0.45605
2389.69,0.43488
2370.4,0.40520
2351.12,0.42412
2331.83,0.44230
2312.54,0.47289
2293.26,0.45363
2273.97,0.44886
2254.68,0.44334
2235.39,0.46727
2216.11,0.47684
2196.82,0.49232
2177.53,0.47729
2158.24,0.43322
2138.96,0.39648
2119.67,0.36422
2100.38,0.36123
2081.1,0.38587
2061.81,0.43315
2042.52,0.46497
2023.23,0.44355
2003.95,0.40117
1984.66,0.35706
1965.37,0.29092
1946.08,0.31199
1926.8,0.36567
1907.51,0.39864
1888.22,0.40840
1868.94,0.39415
1849.65,0.32153
1830.36,0.26433
1811.07,0.24855
1791.79,0.23748
1772.5,0.19722
1753.21,0.09860
1733.92,0.02611
1714.64,0.04860
1695.35,0.14178
1676.06,0.17480
1656.78,0.23278
1637.49,0.25663
1618.2,0.24870
1598.91,0.27139
1579.63,0.19070
1560.34,0.27001
1541.05,0.27975
1521.76,0.24110
1502.48,0.14582
1483.19,0.20399
1463.9,0.15004
1444.62,0.13927
1425.33,0.14438
1406.04,0.06356
1386.75,0.09261
1367.47,0.08232
1348.18,0.04801
1328.89,0.09235
1309.61,0.03619
1290.32,0.03016
1271.03,0.04875
1251.74,0.05141
1232.46,0.08408
1213.17,0.18781
1193.88,0.24601
1174.59,0.16897
1155.31,0.08882
1136.02,0.03723
1116.73,0.04673
1097.45,0.06135
1078.16,0.18040
1058.87,0.26304
1039.58,0.19663
1020.3,0.08465
1001.01,0.31670
981.722,0.23481
962.434,0.25197
943.147,0.34248
923.86,0.33854
904.573,0.25282
885.285,0.21419
865.998,0.19713
846.711,0.15256
827.424,0.24572
808.136,0.24117
788.849,0.21573
769.562,0.25817
750.274,0.21552
730.987,0.04918
711.7,0.21558
692.413,0.27529
673.125,0.25728
653.838,0.27410
634.551,0.24719
615.264,0.26563
595.976,0.25383
576.689,0.24208
557.402,0.21301
538.115,0.16815
518.827,0.12524
499.54,0.09489
480.253,0.12249
460.966,0.10960
441.678,0.06078
422.391,0.09191
403.104,0.05557
399.246,0.06323

File: Overstuffed_Chair_Polyester_Fabric_IS_S_221019_R3.dpt
7497.03,0.82805
7473.88,0.84217
7450.74,0.84474
7427.59,0.81678
7404.45,0.82488
7381.31,0.82067
7358.16,0.82836
7335.02,0.81392
7311.87,0.82160
7288.73,0.82284
7265.58,0.81300
7242.44,0.81508
7219.29,0.82272
7196.15,0.81750
7173,0.81639
7149.86,0.81420
7126.71,0.81092
7103.57,0.80642
7080.42,0.80716
7057.28,0.80501
7034.13,0.80479
7010.99,0.79916
6987.84,0.80752
6964.7,0.80591
6941.55,0.80658
6918.41,0.80388
6895.26,0.80394
6872.12,0.81303
6848.97,0.80945
6825.83,0.80810
6802.68,0.81163
6779.54,0.81133
6756.39,0.81288
6733.25,0.81142
6710.1,0.80970
6686.96,0.81518
6663.81,0.81192
6640.67,0.81930
6617.52,0.81337
6594.38,0.81288
6571.23,0.81642
6548.09,0.81680
6524.94,0.81914
6501.8,0.81690
6478.65,0.81616
6455.51,0.82242
6432.36,0.81769
6409.22,0.81818
6386.07,0.81823
6362.93,0.82159
6339.78,0.81716
6316.64,0.81675
6293.49,0.81793
6270.35,0.81754
6247.2,0.81899
6224.06,0.81604
6200.91,0.80684
6177.77,0.80639
6154.62,0.80059
6131.48,0.79705
6108.33,0.77995
6085.19,0.74913
6062.04,0.71885
6038.9,0.68983
6015.75,0.67756
5992.61,0.70543
5969.46,0.71886
5946.32,0.73134
5923.17,0.74655
5900.03,0.76211
5876.88,0.74950
5853.74,0.74837
5830.59,0.75052
5807.45,0.74942
5784.3,0.75210
5761.16,0.75843
5738.01,0.76676
5714.87,0.77447
5691.72,0.77568
5668.58,0.77938
5645.44,0.78070
5622.29,0.78650
5599.15,0.78820
5576,0.78351
5552.86,0.78382
5529.71,0.78236
5506.57,0.78498
5483.42,0.78061
5460.28,0.78789
5437.13,0.79096
5413.99,0.79663
5390.84,0.79756
5367.7,0.79503
5344.55,0.79374
5321.41,0.79666
5298.26,0.79543
5275.12,0.78684
5251.97,0.78154
5228.83,0.77899
5205.68,0.78062
5182.54,0.77999
5159.39,0.77617
5136.25,0.76796
5113.1,0.76294
5089.96,0.77926
5066.81,0.78393
5043.67,0.78469
5020.52,0.78488
4997.38,0.78528
4974.23,0.78542
4951.09,0.78086
4927.94,0.77599
4904.8,0.77256
4881.65,0.76787
4858.51,0.76748
4835.36,0.75624
4812.22,0.74489
4789.07,0.73807
4765.93,0.74490
4742.78,0.72677
4719.64,0.68965
4696.49,0.65963
4673.35,0.68339
4650.2,0.69181
4627.06,0.67995
4603.91,0.71649
4580.77,0.69019
4557.62,0.72561
4534.48,0.72499
4511.33,0.71091
4488.19,0.66268
4465.04,0.61718
4441.9,0.59492
4418.75,0.60486
4395.61,0.61840
4372.46,0.62939
4349.32,0.62213
4326.17,0.61685
4303.03,0.60054
4279.88,0.59723
4256.74,0.60649
4233.59,0.60466
4210.45,0.61652
4187.3,0.61511
4164.16,0.61826
4141.01,0.62122
4117.87,0.60673
4094.72,0.54861
4071.58,0.59385
4048.43,0.61761
4025.29,0.63192
4002.14,0.63276
3979,0.63919
3955.85,0.64684
3932.71,0.65408
3909.57,0.65762
3886.42,0.67402
3863.28,0.68171
3840.13,0.68404
3816.99,0.67868
3793.84,0.67701
3770.7,0.67281
3747.55,0.68009
3724.41,0.68189
3701.26,0.66418
3678.12,0.63423
3654.97,0.62618
3631.83,0.59067
3608.68,0.56237
3585.54,0.52064
3562.39,0.46791
3539.25,0.44818
3516.1,0.45242
3492.96,0.45073
3469.81,0.43053
3446.67,0.37725
3423.52,0.35592
3400.38,0.42232
3377.23,0.43103
3354.09,0.41850
3330.94,0.40444
3307.8,0.41326
3284.65,0.42013
3261.51,0.42927
3238.36,0.43156
3215.22,0.44266
3192.07,0.44435
3168.93,0.44805
3145.78,0.44168
3122.64,0.42621
3099.49,0.40102
3076.35,0.38576
3053.2,0.36889
3030.06,0.41332
3006.91,0.33541
2983.77,0.28471
2960.62,0.24119
2937.48,0.32285
2914.33,0.28337
2891.19,0.32453
2868.04,0.35452
2844.9,0.40322
2821.75,0.46901
2798.61,0.47633
2775.46,0.50835
2752.32,0.51417
2729.17,0.53263
2706.03,0.55285
2682.88,0.56232
2659.74,0.56468
2636.59,0.53667
2613.45,0.53541
2590.3,0.52018
2567.16,0.51666
2544.01,0.51153
2520.87,0.52028
2497.72,0.53019
2474.58,0.55587
2451.43,0.55881
2428.29,0.53022
2405.14,0.49383
2382,0.48491
2358.85,0.51764
2335.71,0.54124
2312.56,0.55309
2289.42,0.50272
2266.27,0.49314
2243.13,0.50602
2219.98,0.52196
2196.84,0.53815
2173.7,0.51610
2150.55,0.46173
2127.41,0.42615
2104.26,0.40719
2081.12,0.43276
2057.97,0.48942
2034.83,0.50924
2011.68,0.46685
1988.54,0.41459
1965.39,0.33738
1942.25,0.37113
1919.1,0.43017
1895.96,0.45322
1872.81,0.44137
1849.67,0.36848
1826.52,0.29814
1803.38,0.28611
1780.23,0.24974
1757.09,0.14482
1733.94,0.03321
1710.8,0.08154
1687.65,0.17533
1664.51,0.23535
1641.36,0.27530
1618.22,0.27105
1595.07,0.29417
1571.93,0.25291
1548.78,0.28519
1525.64,0.25942
1502.49,0.16328
1479.35,0.20310
1456.2,0.15026
1433.06,0.16885
1409.91,0.05899
1386.77,0.10719
1363.62,0.10097
1340.48,0.05822
1317.33,0.06803
1294.19,0.03707
1271.04,0.06084
1247.9,0.06229
1224.75,0.14656
1201.61,0.24674
1178.46,0.19940
1155.32,0.10362
1132.17,0.05339
1109.03,0.06067
1085.88,0.12522
1062.74,0.26911
1039.59,0.20920
1016.45,0.14032
993.303,0.30658
970.158,0.18990
947.014,0.35293
923.869,0.35553
900.724,0.26047
877.579,0.18876
854.434,0.18906
831.289,0.26567
808.144,0.26699
784.999,0.26397
761.854,0.28804
738.709,0.09981
715.564,0.23679
692.419,0.30247
669.274,0.29190
646.129,0.29973
622.984,0.29215
599.84,0.28290

File: Overstuffed_Chair_Polyester_Fabric_IS_S_221019_R5.dpt
7497.03,0.83207
7473.88,0.83891
7450.74,0.83797
7427.59,0.82715
7404.45,0.82649
7381.31,0.82361
7358.16,0.81707
7335.02,0.81188
7311.87,0.82644
7288.73,0.81565
7265.58,0.81039
7242.44,0.81746
7219.29,0.80616
7196.15,0.81156
7173,0.81376
7149.86,0.81267
7126.71,0.80925
7103.57,0.81257
7080.42,0.80646
7057.28,0.80288
7034.13,0.80029
7010.99,0.80362
6987.84,0.79997
6964.7,0.81345
6941.55,0.80446
6918.41,0.80368
6895.26,0.80886
6872.12,0.80721
6848.97,0.80659
6825.83,0.81119
6802.68,0.80948
6779.54,0.80782
6756.39,0.81223
6733.25,0.81445
6710.1,0.81461
6686.96,0.81157
6663.81,0.81267
6640.67,0.80464
6617.52,0.82046
6594.38,0.81138
6571.23,0.81382
6548.09,0.81617
6524.94,0.81991
6501.8,0.81772
6478.65,0.81992
6455.51,0.81630
6432.36,0.81787
6409.22,0.81930
6386.07,0.81948
6362.93,0.81956
6339.78,0.82022
6316.64,0.81454
6293.49,0.81970
6270.35,0.81776
6247.2,0.81757
6224.06,0.81618
6200.91,0.80673
6177.77,0.80447
6154.62,0.80281
6131.48,0.79658
6108.33,0.78238
6085.19,0.75050
6062.04,0.71868
6038.9,0.69246
6015.75,0.67853
5992.61,0.70622
5969.46,0.71770
5946.32,0.72890
5923.17,0.74555
5900.03,0.75976
5876.88,0.75271
5853.74,0.74789
5830.59,0.74927
5807.45,0.74800
5784.3,0.75091
5761.16,0.75704
5738.01,0.76783
5714.87,0.77836
5691.72,0.77808
5668.58,0.78055
5645.44,0.78253
5622.29,0.78899
5599.15,0.78790
5576,0.78407
5552.86,0.78098
5529.71,0.78412
5506.57,0.78593
5483.42,0.78191
5460.28,0.78432
5437.13,0.79378
5413.99,0.79566
5390.84,0.79468
5367.7,0.79664
5344.55,0.79490
5321.41,0.79822
5298.26,0.79521
5275.12,0.79003
5251.97,0.78210
5228.83,0.78280
5205.68,0.78178
5182.54,0.78228
5159.39,0.77862
5136.25,0.76843
5113.1,0.76280
5089.96,0.77818
5066.81,0.78414
5043.67,0.78593
5020.52,0.78649
4997.38,0.78631
4974.23,0.78713
4951.09,0.78280
4927.94,0.77735
4904.8,0.77222
4881.65,0.77006
4858.51,0.76589
4835.36,0.75827
4812.22,0.74430
4789.07,0.73835
4765.93,0.74507
4742.78,0.72492
4719.64,0.68997
4696.49,0.65988
4673.35,0.68299
4650.2,0.69227
4627.06,0.68112
4603.91,0.71646
4580.77,0.69018
4557.62,0.72581
4534.48,0.72484
4511.33,0.71021
4488.19,0.66276
4465.04,0.61844
4441.9,0.59548
4418.75,0.60452
4395.61,0.61916
4372.46,0.62974
4349.32,0.62423
4326.17,0.61634
4303.03,0.60103
4279.88,0.59738
4256.74,0.60567
4233.59,0.60509
4210.45,0.61712
4187.3,0.61509
4164.16,0.61970
4141.01,0.62131
4117.87,0.60579
4094.72,0.54828
4071.58,0.59354
4048.43,0.61745
4025.29,0.63188
4002.14,0.63253
3979,0.63940
3955.85,0.64757
3932.71,0.65311
3909.57,0.65839
3886.42,0.67481
3863.28,0.68253
3840.13,0.68548
3816.99,0.67861
3793.84,0.67733
3770.7,0.67333
3747.55,0.68043
3724.41,0.68237
3701.26,0.66611
3678.12,0.63817
3654.97,0.63528
3631.83,0.59974
3608.68,0.56988
3585.54,0.52437
3562.39,0.47238
3539.25,0.45104
3516.1,0.45551
3492.96,0.45389
3469.81,0.43171
3446.67,0.37823
3423.52,0.35678
3400.38,0.42326
3377.23,0.43222
3354.09,0.41963
3330.94,0.40533
3307.8,0.41425
3284.65,0.42109
3261.51,0.42984
3238.36,0.43323
3215.22,0.44370
3192.07,0.44617
3168.93,0.44840
3145.78,0.44348
3122.64,0.42770
3099.49,0.40206
3076.35,0.38643
3053.2,0.36978
3030.06,0.41429
3006.91,0.33613
2983.77,0.28502
2960.62,0.24098
2937.48,0.32325
2914.33,0.28388
2891.19,0.32467
2868.04,0.35495
2844.9,0.40319
2821.75,0.46974
2798.61,0.47706
2775.46,0.50851
2752.32,0.51507
2729.17,0.53345
2706.03,0.55300
2682.88,0.56279
2659.74,0.56561
2636.59,0.53774
2613.45,0.53602
2590.3,0.52020
2567.16,0.51707
2544.01,0.51192
2520.87,0.52073
2497.72,0.53039
2474.58,0.55640
2451.43,0.55967
2428.29,0.53036
2405.14,0.49436
2382,0.48567
2358.85,0.51822
2335.71,0.54125
2312.56,0.55265
2289.42,0.50305
2266.27,0.49416
2243.13,0.50609
2219.98,0.52230
2196.84,0.53846
2173.7,0.51678
2150.55,0.46246
2127.41,0.42660
2104.26,0.40754
2081.12,0.43305
2057.97,0.49003
2034.83,0.51009
2011.68,0.46700
1988.54,0.41461
1965.39,0.33723
1942.25,0.37102
1919.1,0.43025
1895.96,0.45380
1872.81,0.44219
1849.67,0.36883
1826.52,0.29857
1803.38,0.28631
1780.23,0.24943
1757.09,0.14485
1733.94,0.03344
1710.8,0.08124
1687.65,0.17572
1664.51,0.23574
1641.36,0.27622
1618.22,0.27203
1595.07,0.29530
1571.93,0.25330
1548.78,0.28551
1525.64,0.25918
1502.49,0.16388
1479.35,0.20291
1456.2,0.15009
1433.06,0.16928
1409.91,0.05859
1386.77,0.10706
1363.62,0.10074
1340.48,0.05789
1317.33,0.06766
1294.19,0.03695
1271.04,0.06036
1247.9,0.06215
1224.75,0.14633
1201.61,0.24673
1178.46,0.19929
1155.32,0.10365
1132.17,0.05419
1109.03,0.06032
1085.88,0.12513
1062.74,0.26970
1039.59,0.20821
1016.45,0.14028
993.303,0.30631
970.158,0.18993
947.014,0.35269
923.869,0.35581
900.724,0.26034
877.579,0.18857
854.434,0.19021
831.289,0.26573
808.144,0.26754
784.999,0.26461
761.854,0.28923
738.709,0.10027
715.564,0.23758
692.419,0.30325
669.274,0.29226
646.129,0.29927
622.984,0.29263
599.84,0.28333