Folder: fsri_materials_database/02_Data/Polyester_Fabric/Cone (part 2)

File: Polyester_Fabric_Cone_HF50Scan_210326_R3.csv
Names,Time,Stack TC,Smoke TC,Exh Press,Smoke Comp,Smoke Meas,CO Meter,CO2 Meter,O2 Meter,Sample Mass,Ext Coeff,Start Test,Flame Verif
Chan Gain,,500,500,1,1,1,1,1,1,1,1,1.0,1.0
Offset,,0,0,0.138348,0,0,0,0,0,0,0,0.0,0.0
Gain,,1,1,25.011,13.5067,16.616,1,1,1,1.00091,1.04608,1.0,1.0
Units,sec,C,C,Pa,%,%,%,%,%,g,/m,,
Baseline,,33.4271,35.6733,162.606,102.014,99.2797,-0.00140461,0.0485151,20.9567,-0.0601381,0.249381,,
7,1.5,30.9469,33.0535,163.143,102.26,99.8571,-0.00133058,0.0496412,20.9549,481.849,0.218172,0.0,0.0
14,3.25,31.0376,32.8494,163.922,102.261,99.4914,-0.00130454,0.0506516,20.9543,482.799,0.251904,0.0,0.0
21,5,31.0656,33.1074,163.593,102.267,99.8129,-0.00125678,0.0519214,20.9516,481.278,0.222856,0.0,0.0
28,6.75,31.1676,33.5848,161.565,102.257,99.2709,-0.00120824,0.0539837,20.9471,481.268,0.271938,0.0,1.0
35,8.5,30.876,33.4427,160.223,102.248,99.7156,-0.00122299,0.0559786,20.9437,481.318,0.23011,0.0,1.0
42,10.25,31.7839,34.0271,158.807,102.236,99.4575,-0.00130481,0.0579849,20.941,481.298,0.252819,0.0,1.0
49,12,29.753,32.2599,157.695,102.246,98.9022,-0.00134773,0.0605532,20.9388,481.288,0.305115,0.0,0.0
56,13.75,29.7644,32.7174,162.38,102.249,96.6361,-0.00123334,0.0672564,20.9295,481.258,0.518109,0.0,0.0
63,15.5,30.1249,33.0063,160.68,102.233,95.0479,-0.000958124,0.0781141,20.9106,481.218,0.668651,0.0,0.0
70,17.25,30.9151,33.3878,159.554,102.209,92.9517,-0.000622154,0.0921288,20.8912,481.188,0.871184,0.0,0.0
77,19,31.1276,34.4186,155.618,102.201,91.5592,-7.82261e-05,0.107206,20.8694,481.098,1.00894,0.0,0.0
84,20.75,31.311,34.6494,156.102,102.204,90.7154,0.000678455,0.124601,20.8423,481.048,1.09423,0.0,0.0
91,22.5,31.7647,35.0686,161.227,102.209,87.8626,0.0016331,0.147663,20.8144,480.968,1.38781,0.0,0.0
98,24.25,32.3903,37.0764,155.859,102.208,85.3074,0.00281539,0.178626,20.7741,480.848,1.65859,0.0,0.0
105,26,34.1171,38.5793,156.088,102.179,84.0235,0.00435223,0.218124,20.726,480.668,1.79511,0.0,0.0
112,27.75,34.8815,40.0834,149.963,102.183,81.2751,0.00575984,0.258327,20.678,480.517,2.10065,0.0,0.0
119,29.5,36.6053,41.1424,148.623,102.183,79.187,0.00681447,0.292972,20.6387,480.347,2.33949,0.0,0.0
126,31.25,36.0158,43.2519,157.734,102.167,82.3572,0.00748124,0.31759,20.6115,480.157,1.97788,0.0,0.0
133,33,37.3462,43.1719,149.572,102.153,78.5496,0.00771263,0.332901,20.5988,479.987,2.41098,0.0,0.0
140,34.75,38.0967,45.1637,150.991,102.165,81.9379,0.00746261,0.341733,20.5953,479.817,2.0245,0.0,0.0
147,36.5,38.9321,44.7618,154.621,102.147,85.5909,0.00670046,0.33604,20.6139,479.697,1.62267,0.0,0.0
154,38.25,38.5777,45.3405,157.679,102.152,90.7144,0.00552453,0.314542,20.6451,479.627,1.08964,0.0,0.0
161,40,38.8869,45.0423,158.972,102.145,92.8731,0.00405718,0.281119,20.6926,479.557,0.873209,0.0,0.0
168,41.75,38.3651,44.8871,155.223,102.141,96.1853,0.00278408,0.245052,20.752,479.547,0.55128,0.0,0.0
175,43.5,37.8714,44.206,159.494,102.15,98.527,0.00191271,0.204993,20.8026,479.526,0.331373,0.0,0.0
182,45.25,37.4514,43.3125,159.359,102.132,99.8525,0.00140591,0.172457,20.8403,479.516,0.207156,0.0,0.0
189,47,36.9559,42.6738,162.212,102.142,99.2283,0.00121724,0.145376,20.8694,479.526,0.265588,0.0,0.0
196,48.75,36.5578,41.7671,162.643,102.123,99.9169,0.00129698,0.122687,20.8907,479.547,0.200388,0.0,0.0
203,50.5,35.1091,40.549,161.48,102.139,99.4301,0.00152349,0.106811,20.9066,479.526,0.246647,0.0,0.0
210,52.25,35.232,40.101,162.709,102.142,99.458,0.00187485,0.0954983,20.915,479.516,0.244371,0.0,0.0
217,54,34.6682,38.7983,158.564,102.146,99.493,0.00224594,0.0886988,20.919,479.526,0.241513,0.0,0.0
224,55.75,34.459,38.5511,157.564,102.125,99.4681,0.00258496,0.0849099,20.9197,479.516,0.241841,0.0,0.0
231,57.5,34.0432,38.6936,156.489,102.131,99.5305,0.00286275,0.0823935,20.9186,479.507,0.236683,0.0,0.0
238,59.25,33.8638,37.7551,160.883,102.154,99.891,0.00301708,0.0801522,20.9188,479.496,0.205577,0.0,0.0
245,61,33.721,37.2692,163.27,102.149,99.4042,0.0030654,0.0777429,20.9212,479.507,0.249923,0.0,0.0
252,62.75,33.0172,37.0247,158.904,102.165,99.5427,0.00303463,0.0753158,20.9239,479.496,0.238634,0.0,0.0
259,64.5,33.3268,37.3335,163.44,102.155,99.4844,0.0029855,0.0725096,20.9267,479.496,0.243085,0.0,0.0
266,66.25,33.0686,36.5439,163.46,102.171,99.2273,0.00293148,0.0698166,20.9302,479.486,0.268273,0.0,0.0
273,68,32.9056,36.5521,160.552,102.174,99.283,0.00284295,0.0675704,20.9322,479.466,0.26334,0.0,0.0
280,69.75,32.3935,36.7505,161.35,102.186,99.924,0.00278048,0.065317,20.9338,479.476,0.205363,0.0,0.0
287,71.5,33.1614,36.1417,162.533,102.191,99.8484,0.00277943,0.0634582,20.9358,479.476,0.212822,0.0,0.0
294,73.25,32.2518,36.0591,161.005,102.199,99.2597,0.00276842,0.0618819,20.9369,479.476,0.267753,0.0,0.0
301,75,32.6822,35.7312,156.513,102.219,99.2775,0.00267123,0.0605799,20.9386,479.466,0.267963,0.0,0.0
308,76.75,32.8408,35.849,159.808,102.224,99.5584,0.0025116,0.0595937,20.9394,479.466,0.242441,0.0,0.0
315,78.5,32.3098,35.1698,163.043,102.223,99.6948,0.00239392,0.0590495,20.9398,479.456,0.22984,0.0,0.0
322,80.25,32.3581,35.4155,162.457,102.232,99.5812,0.00224604,0.0586807,20.942,479.446,0.241041,0.0,0.0
329,82,31.9444,35.1812,161.642,102.249,99.5817,0.00223475,0.0581126,20.9434,479.446,0.242547,0.0,0.0
336,83.75,32.5329,35.06,157.634,102.265,99.7369,0.00230694,0.0575607,20.9434,479.446,0.229741,0.0,0.0
343,85.5,32.358,35.3122,159.522,102.285,99.4306,0.00234682,0.0572406,20.943,479.446,0.2597,0.0,0.0
350,87.25,32.0632,35.0182,156.95,102.289,99.2191,0.00211739,0.0569309,20.9428,479.436,0.279605,0.0,0.0
357,89,31.7269,34.7502,162.366,102.32,99.8018,0.001767,0.0565302,20.9439,479.436,0.228651,0.0,0.0
364,90.75,31.3974,35.2302,161.9,102.342,100.439,0.00151368,0.0563583,20.9444,479.426,0.172193,0.0,0.0
371,92.5,31.8566,34.7673,162.944,102.361,99.4636,0.0014105,0.0562846,20.945,479.436,0.26346,0.0,0.0
378,94.25,32.0865,34.9531,166.639,102.372,99.9427,0.00142025,0.0561066,20.9465,479.446,0.220355,0.0,0.0
385,96,32.243,34.4922,163.649,102.394,99.8834,0.00137993,0.0559318,20.9474,479.446,0.227762,0.0,0.0
392,97.75,32.2636,34.6581,162.984,102.429,99.9539,0.00121645,0.0558147,20.9467,479.446,0.224466,0.0,0.0
399,99.5,30.9647,34.2507,164.298,102.436,99.4549,0.00106596,0.0558859,20.9462,479.446,0.270978,0.0,0.0
406,101.25,31.1949,34.3903,166.78,102.445,100.141,0.000996141,0.0561652,20.946,479.416,0.208745,0.0,0.0
413,103,31.9075,34.6787,160.336,102.457,99.4357,0.000999979,0.0564217,20.9445,479.436,0.274639,0.0,0.0
420,104.75,31.6517,33.6339,158.427,102.481,99.9286,0.0010364,0.0566946,20.9435,479.426,0.231409,0.0,0.0
427,106.5,31.8274,34.3817,159.521,102.501,100.265,0.000975207,0.0567637,20.943,479.416,0.202434,0.0,0.0
434,108.25,31.1926,34.5425,161.008,102.512,99.7348,0.000728573,0.0567262,20.9427,479.426,0.252055,0.0,0.0
441,110,31.5289,33.9685,159.552,102.511,99.7501,0.000518683,0.0565376,20.9426,479.406,0.250544,0.0,0.0
448,111.75,31.6109,34.1282,164.179,102.534,99.8221,0.000452807,0.0563559,20.9426,479.426,0.245989,0.0,0.0
455,113.5,31.6936,33.5002,164.164,102.539,99.9539,0.000458278,0.0561504,20.9425,479.426,0.234319,0.0,0.0
462,115.25,30.8952,34.4469,155.64,102.545,99.6228,0.000480571,0.0560663,20.9425,479.426,0.265286,0.0,0.0
469,117,31.1605,34.178,159.517,102.552,100.115,0.000451694,0.0558581,20.9425,479.406,0.220709,0.0,0.0
476,118.75,31.0761,33.6937,160.51,102.558,99.7992,0.000374541,0.0557049,20.9425,479.396,0.250226,0.0,0.0
483,120.5,31.3332,34.0686,159.436,102.568,100.328,0.000307104,0.055594,20.9425,479.386,0.20262,0.0,0.0
490,122.25,31.8783,33.6727,161.127,102.58,99.7541,0.000192272,0.0556329,20.9436,479.406,0.256367,0.0,0.0
497,124,31.5692,33.7659,160.048,102.574,99.7622,4.03013e-05,0.0554993,20.9443,479.366,0.255068,0.0,0.0
504,125.75,31.8359,33.8658,160.736,102.571,100.02,-0.000101053,0.0554111,20.9441,479.386,0.231146,0.0,0.0
511,127.5,30.8503,33.8118,158.694,102.58,100.017,-0.000163268,0.0553445,20.9439,479.386,0.232154,0.0,0.0
518,129.25,31.3407,34.058,159.182,102.587,100.13,-0.000170088,0.0553191,20.9438,479.386,0.222459,0.0,0.0
525,131,31.5214,33.5983,164.355,102.59,100.365,-0.000164376,0.0551484,20.9437,479.386,0.201217,0.0,0.0
532,132.75,31.1905,34.3815,165.599,102.585,99.749,-0.000186968,0.0549613,20.9442,479.376,0.257276,0.0,0.0
539,134.5,31.1451,34.4877,154.584,102.574,99.278,-0.000245645,0.0546261,20.9452,479.386,0.299718,0.0,0.0
546,136.25,30.8357,34.663,159.869,102.588,100.025,-0.000308253,0.0544298,20.9456,479.376,0.23211,0.0,0.0
553,138,30.9305,33.8751,161.936,102.603,99.5315,-0.00034518,0.0543953,20.9459,479.366,0.278931,0.0,0.0
560,139.75,31.1704,33.7832,160.945,102.585,99.8996,-0.000336282,0.0543717,20.9472,479.366,0.243396,0.0,0.0
567,141.5,31.41,34.0073,165.069,102.579,99.7247,-0.000358347,0.0541214,20.9478,479.366,0.258926,0.0,0.0
574,143.25,31.4443,33.8302,161.829,102.58,99.6268,-0.000402157,0.0537095,20.9494,479.366,0.268046,0.0,0.0
581,145,31.3117,34.2194,157.737,102.591,100.066,-0.000362533,0.0533817,20.9501,479.376,0.228647,0.0,0.0
588,146.75,31.6252,34.183,163.322,102.587,99.7272,-0.000264631,0.0530806,20.9504,479.376,0.259393,0.0,0.0
595,148.5,30.9418,33.6661,156.349,102.575,99.4539,-0.000239724,0.0528165,20.9509,479.366,0.283544,0.0,0.0
602,150.25,31.1549,33.375,160.275,102.573,99.5726,-0.000371848,0.0526096,20.9508,479.366,0.272455,0.0,0.0
609,152,31.1735,33.8747,160.28,102.57,100.319,-0.00052981,0.0524024,20.9504,479.356,0.20363,0.0,0.0
616,153.75,31.0976,33.3657,159.375,102.565,99.922,-0.00062944,0.052192,20.9515,479.356,0.239577,0.0,0.0
623,155.5,31.4195,33.7813,160.612,102.55,99.9017,-0.000660652,0.0520138,20.952,479.366,0.240112,0.0,0.0
630,157.25,31.1824,34.1443,158.927,102.548,99.6786,-0.000703422,0.0519316,20.9522,479.346,0.260408,0.0,0.0
637,159,31.0879,33.4625,159.116,102.545,99.9615,-0.000771436,0.0517459,20.9523,479.366,0.234138,0.0,0.0
644,160.75,31.0148,33.6083,157.298,102.545,99.9843,,0.0515051,,479.346,0.232043,0.0,0.0
651,162.5,30.8585,33.7734,164.173,102.54,99.6618,,,,479.356,0.261284,0.0,0.0
658,164.25,30.8019,33.5651,162.742,102.524,100.404,,,,479.356,0.191673,0.0,0.0
665,166,31.2451,33.5879,164.134,102.534,99.7658,,,,479.376,0.251164,0.0,0.0
672,167.75,31.0707,33.2789,158.534,102.55,100.899,,,,479.366,0.148997,0.0,0.0
679,169.5,29.9903,33.4925,161.378,102.552,99.5974,,,,479.356,0.268211,0.0,0.0
681,170,30.6891,33.7228,162.433,102.529,99.5771,,,,479.356,0.268051,0.0,0.0