Folder: fsri_materials_database/02_Data/Polyester_Fabric/Cone

Note: README.md
# fsri_materials_database
Database of Contemporary Material Properties for Fire Investigation Analysis

File: Polyester_Fabric_Cone_HF25Scalar_210325_R3.csv
LABORATORY,FSRI
TEST IDENT,Fabric_H25_3
OPERATOR,Morrissey
MATERIAL,Polyester Microfiber Fabric
ORIENTATION,Horizontal
HEAT FLUX,25
SURF AREA,0.01
C FACTOR,0.0386052
SPEC HOLDER DIFF,-87.32
SPECIMEN MASS,1.88
SCAN TIME,0.25
O2 DELAY TIME,11
CO DELAY TIME,11
CO2 DELAY TIME,8
FLOW FACTOR,1
SCAN COUNT,3047
TIME TO IGN,586.75
END OF TEST SCAN,2567
END OF TEST TIME,641.75
TEST STATUS,1
PRE TEST CMT,Test w/o retainer frame or grid
POST TEST CMT,Sample folded up. Consistent with other tests. Spark did not ignite sample upon contact. Sample melted-> bubbled-> then ignited.

File: Polyester_Fabric_Cone_HF25Scan_210324_R2.csv
Names,Time,Stack TC,Smoke TC,Exh Press,Smoke Comp,Smoke Meas,CO Meter,CO2 Meter,O2 Meter,Sample Mass,Ext Coeff,Start Test,Flame Verif
Chan Gain,,500,500,1,1,1,1,1,1,1,1,1.0,1.0
Offset,,0,0,0.194005,0,0,0,0,0,0,0,0.0,0.0
Gain,,1,1,25.011,13.5067,16.616,1,1,1,1.00091,1.04608,1.0,1.0
Units,sec,C,C,Pa,%,%,%,%,%,g,/m,,
Baseline,,20.871,22.0636,167.91,101.812,100.925,0.000529793,0.113373,20.6972,-1.35506,0.0803034,,
9,2,18.84,19.8278,164.949,101.647,100.781,0.000292218,0.119341,20.6811,469.547,0.0784969,0.0,0.0
18,4.25,18.5586,19.5907,164.106,101.659,100.862,0.000354758,0.120483,20.6825,469.547,0.072239,0.0,0.0
27,6.5,18.6714,19.8876,164.741,101.649,100.698,0.00032512,0.121131,20.6853,469.437,0.0862125,0.0,0.0
36,8.75,18.5311,19.9086,169.674,101.66,100.744,0.000276893,0.121484,20.6874,469.678,0.0829762,0.0,0.0
45,11,18.6597,20.6621,162.229,101.656,100.849,0.000184767,0.121729,20.6882,470.258,0.0731224,0.0,0.0
54,13.25,18.9891,20.1683,164.095,101.665,100.687,0.000141706,0.121565,20.6886,469.257,0.0887176,0.0,0.0
63,15.5,18.7974,20.4148,167.805,101.665,100.729,0.000289129,0.12149,20.6892,468.947,0.0848914,0.0,0.0
72,17.75,18.8606,20.6758,167.205,101.67,100.463,0.000557518,0.121544,20.6871,468.927,0.109612,0.0,0.0
81,20,19.3414,20.4033,167.106,101.666,100.364,0.000665338,0.12192,20.6846,469.177,0.118323,0.0,0.0
90,22.25,19.4737,20.6267,164.144,101.677,100.27,0.000617892,0.122653,20.6809,469.367,0.127907,0.0,0.0
99,24.5,19.3521,20.6908,166.685,101.677,99.9463,0.000625461,0.124452,20.6746,469.397,0.157525,0.0,0.0
108,26.75,19.6197,20.6996,164.254,101.676,100.101,0.000717646,0.126683,20.6684,469.287,0.143225,0.0,0.0
117,29,19.5374,21.4701,165.231,101.689,98.7141,0.000894125,0.129508,20.6641,469.427,0.272473,0.0,1.0
126,31.25,19.9538,21.8282,165.192,101.69,98.5721,0.00114015,0.133126,20.6575,469.367,0.285755,0.0,1.0
135,33.5,18.4026,21.0177,172.325,101.67,97.7618,0.0013217,0.137058,20.6506,469.397,0.359714,0.0,0.0
144,35.75,18.6053,21.0363,165.918,101.688,97.6274,0.00133715,0.141283,20.6427,469.377,0.373898,0.0,0.0
153,38,19.0336,21.1997,163.585,101.676,96.8384,0.00147906,0.145981,20.6356,469.297,0.447318,0.0,0.0
162,40.25,19.7613,21.9838,166.321,101.662,96.989,0.00166105,0.151087,20.6253,469.297,0.431793,0.0,0.0
171,42.5,19.3259,22.0619,160.977,101.655,95.5438,0.00181986,0.157139,20.6129,469.227,0.568955,0.0,0.0
180,44.75,20.1871,22.7817,160.078,101.657,95.2868,0.00203413,0.163696,20.6043,469.197,0.593828,0.0,0.0
189,47,19.7594,23.1035,165.712,101.654,94.8664,0.00235541,0.170732,20.5954,469.117,0.634102,0.0,0.0
198,49.25,20.3067,23.1978,167.859,101.618,94.9196,0.00260311,0.177915,20.5892,469.057,0.625678,0.0,0.0
207,51.5,21.0689,24.4503,162.224,101.632,95.4617,0.00290289,0.18477,20.5834,469.017,0.574689,0.0,0.0
216,53.75,20.9445,24.1734,161.831,101.622,92.8994,0.00312171,0.191348,20.5784,468.897,0.823457,0.0,0.0
225,56,21.879,25.2957,163.99,101.585,91.9664,0.00338165,0.198076,20.5704,468.847,0.912806,0.0,0.0
234,58.25,23.3703,24.9189,161.432,101.579,89.251,0.00373913,0.20464,20.5616,468.717,1.18726,0.0,0.0
243,60.5,22.6237,26.5534,158.334,101.566,88.3352,0.00420685,0.21228,20.5411,468.577,1.28075,0.0,0.0
252,62.75,23.1472,27.3813,160.251,101.545,88.856,0.00482809,0.223483,20.5122,468.436,1.22487,0.0,0.0
261,65,24.1013,28.6724,157.918,101.535,85.6918,0.00552618,0.237806,20.49,468.286,1.55674,0.0,0.0
270,67.25,24.8321,29.8579,161.235,101.533,86.5954,0.00601721,0.251939,20.4691,468.106,1.46022,0.0,0.0
279,69.5,25.3324,30.4492,160.448,101.514,87.64,0.00589857,0.267901,20.465,468.116,1.34856,0.0,0.0
288,71.75,25.4968,30.724,163.597,101.524,90.2302,0.00540061,0.279382,20.4755,467.896,1.08211,0.0,0.0
297,74,25.4726,30.4263,165.702,101.51,94.0277,0.00450856,0.283736,20.4993,467.816,0.702593,0.0,0.0
306,76.25,24.8042,29.6359,167.816,101.524,98.7851,0.00344862,0.279501,20.5462,467.786,0.250912,0.0,0.0
315,78.5,24.0947,28.4684,165.43,101.498,100.613,0.0026595,0.268118,20.5885,467.766,0.0803958,0.0,0.0
324,80.75,23.5351,27.4251,166.754,101.491,100.68,0.00203535,0.251611,20.6238,467.796,0.073576,0.0,0.0
333,83,23.0142,26.0815,171.525,101.477,100.548,0.0016085,0.232469,20.6486,467.776,0.0843333,0.0,0.0
342,85.25,21.3485,24.291,168.503,101.467,100.531,0.00136206,0.213794,20.6643,467.806,0.0850042,0.0,0.0
351,87.5,21.0291,23.9452,164.483,101.477,100.667,0.00121397,0.197291,20.6724,467.816,0.0735012,0.0,0.0
360,89.75,20.6362,23.8983,167.061,101.445,100.685,0.000923408,0.184614,20.6787,467.806,0.0690596,0.0,0.0
369,92,20.4871,22.7521,166.279,101.453,100.696,0.000550378,0.17144,20.6832,467.826,0.0687057,0.0,0.0
378,94.25,20.5142,22.2322,163.945,101.45,100.639,0.000382017,0.161375,20.6861,467.816,0.0736303,0.0,0.0
387,96.5,19.4584,21.5236,164.865,101.445,100.661,0.000289498,0.15335,20.6875,467.786,0.0711493,0.0,0.0
396,98.75,20.0139,21.2308,164.764,101.45,100.64,0.000285932,0.147244,20.6893,467.766,0.0735381,0.0,0.0
405,101,19.2661,21.1376,165.006,101.451,100.555,0.000440416,0.141766,20.6924,467.796,0.0814204,0.0,0.0
414,103.25,19.4939,20.86,170.369,101.464,100.69,0.00045249,0.137061,20.6938,467.816,0.0702299,0.0,0.0
423,105.5,19.3154,20.8365,165.94,101.444,100.602,0.000392116,0.133485,20.692,467.816,0.0764838,0.0,0.0
432,107.75,19.1258,21.0507,165.014,101.464,100.566,0.000396416,0.131076,20.6887,467.786,0.0815126,0.0,0.0
441,110,19.2102,20.6024,165.491,101.469,100.504,0.000475475,0.129939,20.6866,467.786,0.0876526,0.0,0.0
450,112.25,18.9918,20.6483,171.67,101.463,100.721,0.000523093,0.129298,20.685,467.806,0.0673745,0.0,0.0
459,114.5,18.9586,19.9883,165.653,101.477,100.637,0.000544176,0.128773,20.6865,467.786,0.0763124,0.0,0.0
468,116.75,18.3125,20.2052,167.563,101.485,100.704,0.000539811,0.127919,20.69,467.776,0.0708834,0.0,0.0
477,119,18.7951,19.2783,161.586,101.491,100.667,0.00047725,0.126515,20.6928,467.786,0.0748065,0.0,0.0
486,121.25,18.6156,19.3859,166.368,101.495,100.598,0.000363692,0.125338,20.6959,467.786,0.0814768,0.0,0.0
495,123.5,18.218,20.0441,169.149,101.504,100.615,0.000325567,0.123749,20.6979,467.806,0.0807233,0.0,0.0
504,125.75,18.6003,19.5711,166.521,101.531,100.744,0.000318521,0.122319,20.6987,467.816,0.071323,0.0,0.0
513,128,18.3711,19.9267,167.253,101.524,100.618,0.000327177,0.121275,20.699,467.796,0.0822433,0.0,0.0
522,130.25,17.9908,19.2462,169.919,101.54,100.708,0.00038207,0.120337,20.6991,467.796,0.0754228,0.0,0.0
531,132.5,17.9655,19.3834,167.855,101.543,100.669,0.000411826,0.11929,20.6984,467.786,0.0792789,0.0,0.0
540,134.75,17.724,19.2912,165.148,101.559,100.728,0.000436924,0.117968,20.4655,467.776,0.0753349,0.0,0.0
549,137,18.5765,18.958,165.899,101.562,100.687,0.000412672,0.115727,20.2311,467.816,0.0794209,0.0,0.0
558,139.25,18.1906,19.0811,165.383,100.975,100.68,0.000377411,0.114393,20.1365,467.816,0.0269191,0.0,0.0
567,141.5,17.6269,19.3535,165.616,0.187959,-0.0116628,0.000376267,0.113931,20.1001,467.816,0,0.0,0.0
576,143.75,18.0852,19.3253,168.896,0.171472,-0.00760619,0.00039837,0.113808,20.3662,467.816,0,0.0,0.0
585,146,17.9946,19.8057,170.045,0.158694,-0.0101416,0.000337559,0.113762,20.5551,467.816,0,0.0,0.0
594,148.25,18.1521,19.0381,171.785,0.166937,-0.00912742,0.000279922,0.113902,20.6285,467.816,0,0.0,0.0
603,150.5,18.2291,19.0559,168.563,0.168174,-0.00354955,0.000232417,0.113901,20.6563,467.816,0,0.0,0.0
612,152.75,17.5565,18.6861,168.583,0.145916,0.00709911,0.000209043,0.113659,20.6674,467.816,27.74,0.0,0.0
621,155,17.5306,19.4775,169.113,0.172708,-0.0177478,0.00031433,0.113474,20.6718,467.816,0,0.0,0.0
630,157.25,17.6916,19.3559,166.775,0.155808,-0.0395522,0.000415733,0.113554,20.6735,467.816,0,0.0,0.0
639,159.5,17.4787,18.4564,167.566,0.152099,0.0228186,0.00039956,0.113628,20.6741,467.816,17.4067,0.0,0.0
648,161.75,17.658,19.1902,167.794,0.162403,0.0380309,0.000397901,0.113758,20.6741,467.816,13.3208,0.0,0.0
657,164,17.7987,18.9539,164.575,0.172296,-0.0324531,0.000423475,0.113662,20.6733,467.816,0,0.0,0.0
666,166.25,17.9795,18.6545,168.632,0.139733,-0.00862034,0.000352189,0.113608,20.6737,467.816,0,0.0,0.0
675,168.5,17.5465,19.211,170.527,0.158694,0.00659203,0.000217498,0.113747,20.6741,467.816,29.1903,0.0,0.0
684,170.75,17.9383,18.668,168.12,0.156633,-0.0329601,0.000315233,0.113853,20.6742,467.816,0,0.0,0.0
693,173,17.4751,18.5319,167.447,0.147977,0.038538,0.000535237,0.113723,20.6748,467.816,12.3456,0.0,0.0
702,175.25,17.6002,18.7648,165.628,0.142618,0.0228186,0.000519502,0.113661,20.675,467.816,16.8161,0.0,0.0
711,177.5,17.3429,18.5183,168.873,0.154984,-0.0218044,0.00027237,0.113667,20.6751,467.816,0,0.0,0.0
720,179.75,17.2547,18.8603,168.175,0.152511,0.0806256,0.000190078,0.113646,20.6752,467.816,5.84904,0.0,0.0
729,182,17.6019,18.4048,172.03,0.18631,-0.0172407,0.000206925,0.113692,20.6752,467.816,0,0.0,0.0
738,184.25,17.4611,18.6866,167.701,0.157045,-0.00557787,7.04612e-05,0.113759,20.6744,467.816,0,0.0,0.0
747,186.5,17.5207,18.4346,165.41,0.154984,-0.00912742,-3.48713e-05,0.11379,20.6734,467.816,0,0.0,0.0
756,188.75,17.5308,18.6787,168.399,0.15416,-0.0228186,3.3526e-06,0.113703,20.673,467.816,0,0.0,0.0
765,191,17.246,18.692,167.066,0.152511,0.025861,7.56049e-05,0.113738,20.6725,467.816,16.283,0.0,0.0
774,193.25,17.6499,18.7384,163.902,0.159106,0.0263681,,0.113639,,467.816,16.4933,0.0,0.0
783,195.5,17.467,18.5557,169.037,0.157045,0.0436088,,0.113664,,467.816,11.7571,0.0,0.0
792,197.75,17.2731,18.5946,163.129,0.177654,-0.00354955,,,,467.816,0,0.0,0.0
801,200,17.2756,18.4724,168.904,0.150862,0.0136911,,,,467.816,22.0192,0.0,0.0
810,202.25,17.4168,18.0145,166.918,0.237422,0.0476654,,,,467.816,14.7335,0.0,0.0
816,203.75,17.2866,18.5335,169.219,0.18425,0.00557787,,,,467.816,32.0933,0.0,0.0

File: Polyester_Fabric_Cone_HF50Scan_210326_R2.csv
Names,Time,Stack TC,Smoke TC,Exh Press,Smoke Comp,Smoke Meas,CO Meter,CO2 Meter,O2 Meter,Sample Mass,Ext Coeff,Start Test,Flame Verif
Chan Gain,,500,500,1,1,1,1,1,1,1,1,1.0,1.0
Offset,,0,0,0.138348,0,0,0,0,0,0,0,0.0,0.0
Gain,,1,1,25.011,13.5067,16.616,1,1,1,1.00091,1.04608,1.0,1.0
Units,sec,C,C,Pa,%,%,%,%,%,g,/m,,
Baseline,,33.0523,35.3776,162.512,101.598,98.7374,-0.00151783,0.047753,20.955,-0.00775707,0.262113,,
8,1.75,30.5617,32.5224,163.65,102.284,99.7774,-0.00152929,0.0494959,20.9558,479.486,0.227636,0.0,0.0
16,3.75,30.5274,32.7197,160.684,102.293,99.245,-0.00147221,0.0508069,20.9535,480.277,0.277545,0.0,0.0
24,5.75,30.569,32.9806,158.886,102.306,99.4879,-0.00150713,0.0517571,20.9508,478.015,0.256336,0.0,0.0
32,7.75,31.2402,33.2989,162.172,102.321,99.8393,-0.00161864,0.0523973,20.9493,478.015,0.225313,0.0,0.0
40,9.75,31.4936,33.1327,165.408,102.338,99.5006,-0.00167082,0.0530648,20.9482,478.015,0.25805,0.0,0.0
48,11.75,31.3667,33.308,167.271,102.349,99.4869,-0.00164148,0.0541568,20.9468,478.025,0.260237,0.0,0.0
56,13.75,31.1942,33.4859,163.288,102.359,99.422,-0.00155138,0.0554561,20.9456,478.015,0.267149,0.0,0.0
64,15.75,31.2324,33.6156,164.569,102.367,99.3601,-0.00141776,0.0567075,20.9445,478.025,0.2736,0.0,0.0
72,17.75,31.65,33.4737,160.728,102.374,98.9545,-0.00133208,0.057763,20.944,478.025,0.311768,0.0,0.0
80,19.75,31.0463,34.2288,163.931,102.373,99.1431,-0.00130669,0.0588288,20.9428,477.995,0.294146,0.0,0.0
88,21.75,31.0417,33.8985,160.804,102.38,98.6649,-0.00117024,0.0599139,20.9394,477.985,0.339175,0.0,1.0
96,23.75,31.284,34.2152,162.454,102.387,94.4227,-0.00060514,0.0688883,20.9184,477.955,0.743075,0.0,1.0
104,25.75,31.6949,35.2115,154.276,102.366,89.7966,0.000136006,0.0902124,20.8836,477.875,1.20218,0.0,1.0
112,27.75,31.3206,34.7778,157.034,102.368,89.8924,0.00127613,0.122744,20.8463,477.775,1.1925,0.0,0.0
120,29.75,32.2528,35.4283,157.415,102.37,86.3525,0.00283341,0.15756,20.7979,477.625,1.56138,0.0,0.0
128,31.75,33.2495,38.1306,155.39,102.37,80.5779,0.00488436,0.206264,20.7191,477.475,2.1965,0.0,0.0
136,33.75,34.7442,40.0597,147.313,102.367,77.7545,0.00673788,0.264249,20.6573,477.214,2.52353,0.0,0.0
144,35.75,36.4298,42.147,149.273,102.381,74.9214,0.00870559,0.316387,20.6001,476.964,2.86537,0.0,0.0
152,37.75,37.3383,44.3424,150.134,102.371,77.432,0.00943405,0.358277,20.5602,476.714,2.56201,0.0,0.0
160,39.75,38.4543,45.2424,161.084,102.403,83.34,0.00898124,0.372886,20.5622,476.534,1.89015,0.0,0.0
168,41.75,38.7953,45.4939,155.864,102.39,87.2774,0.00766913,0.358482,20.5937,476.414,1.46536,0.0,0.0
176,43.75,38.8532,45.5664,153.91,102.39,89.7358,0.00581597,0.328552,20.6456,476.324,1.21055,0.0,0.0
184,45.75,38.3422,45.0479,159.617,102.394,93.6453,0.00414091,0.288007,20.7132,476.254,0.819559,0.0,0.0
192,47.75,37.7028,44.4123,162.89,102.391,96.7786,0.00278566,0.243153,20.7669,476.233,0.517306,0.0,0.0
200,49.75,37.8978,43.6568,160.326,102.398,98.9879,0.00183413,0.203057,20.8149,476.214,0.310771,0.0,0.0
208,51.75,37.0721,42.8799,158.79,102.404,99.3383,0.001141,0.166418,20.8568,476.203,0.278901,0.0,0.0
216,53.75,36.6604,41.8245,165.288,102.412,99.8829,0.000675952,0.138401,20.886,476.224,0.229472,0.0,0.0
224,55.75,35.5889,40.374,159.826,102.417,99.9879,0.000615691,0.116348,20.9039,476.224,0.22024,0.0,0.0
232,57.75,35.0115,39.2936,161.726,102.437,99.3865,0.000843501,0.101191,20.9151,476.214,0.277407,0.0,0.0
240,59.75,34.7257,38.894,156.281,102.438,99.4367,0.00124583,0.0906904,20.9236,476.214,0.272884,0.0,0.0
248,61.75,34.2921,39.1554,164.84,102.472,99.3921,0.00154836,0.0825349,20.9294,476.193,0.28003,0.0,0.0
256,63.75,34.0828,38.0519,161.264,102.463,99.8155,0.00159343,0.0767925,20.932,476.193,0.240211,0.0,0.0
264,65.75,33.8329,36.9302,157.22,102.471,100.119,0.00147589,0.0724877,20.9339,476.193,0.213077,0.0,0.0
272,67.75,33.3385,37.2177,159.512,102.476,99.6568,0.00144115,0.0691344,20.9361,476.193,0.255995,0.0,0.0
280,69.75,33.2347,37.1347,159.146,102.47,99.7085,0.00154632,0.0666282,20.939,476.193,0.25068,0.0,0.0
288,71.75,33.0107,36.8239,158.612,102.47,99.6557,0.00163587,0.064841,20.9394,476.193,0.255572,0.0,0.0
296,73.75,33.2987,36.275,164.948,102.487,99.5523,0.00164766,0.0635409,20.9395,476.193,0.266577,0.0,0.0
304,75.75,32.7849,36.1937,162.252,102.486,99.6349,0.00170385,0.0629075,20.9402,476.203,0.258888,0.0,0.0
312,77.75,32.6075,35.9884,161.327,102.479,99.8971,0.00179362,0.0622212,20.9412,476.183,0.234185,0.0,0.0
320,79.75,32.4389,35.931,160.503,102.489,100.484,0.00183419,0.0612177,20.9416,476.183,0.181338,0.0,0.0
328,81.75,32.5478,35.5953,165.041,102.496,100.176,0.00188935,0.0601095,20.9419,476.203,0.210079,0.0,0.0
336,83.75,32.3987,35.5574,167.52,102.512,99.7242,0.00196124,0.0589837,20.9429,476.193,0.253034,0.0,0.0
344,85.75,32.1345,35.9313,162.504,102.521,99.8956,0.00203518,0.0580535,20.9438,476.203,0.238052,0.0,0.0
352,87.75,31.7181,34.9956,162.328,102.525,99.9306,0.0020841,0.0571113,20.9455,476.163,0.235206,0.0,0.0
360,89.75,31.6414,35.413,161.748,102.506,100.009,0.00202682,0.0562898,20.9462,476.133,0.226342,0.0,0.0
368,91.75,31.8249,35.5046,160.139,102.521,99.6512,0.00196907,0.0558125,20.9465,476.073,0.260567,0.0,0.0
376,93.75,31.7459,34.4903,165.714,102.541,99.9676,0.00197765,0.0553947,20.9467,476.173,0.233246,0.0,0.0
384,95.75,31.8703,34.8495,162.698,102.534,99.7409,0.00194899,0.0551862,20.9481,476.203,0.25345,0.0,0.0
392,97.75,31.9901,34.4553,161,102.535,100.561,0.00183037,0.0552279,20.9474,476.193,0.17836,0.0,0.0
400,99.75,32.0848,34.3941,157.661,102.524,100.19,0.0017309,0.0552229,20.9471,476.193,0.211297,0.0,0.0
408,101.75,31.4785,33.5445,166.696,102.539,99.8854,0.00170508,0.0551559,20.9469,476.173,0.24057,0.0,0.0
416,103.75,31.1909,34.3083,161.807,102.546,100.163,0.00168921,0.0550484,20.9465,476.153,0.215742,0.0,0.0
424,105.75,31.3227,33.5959,159.527,102.543,99.8327,0.00168213,0.0550582,20.9449,476.143,0.245822,0.0,0.0
432,107.75,31.3276,34.112,159.27,102.552,99.6446,0.00169082,0.0550012,20.9451,476.143,0.263904,0.0,0.0
440,109.75,31.5189,33.919,159.506,102.554,100.228,0.0015515,0.0549444,20.9457,476.133,0.210461,0.0,0.0
448,111.75,31.5608,33.9086,163.62,102.565,100.065,0.00125733,0.0546402,20.9459,476.123,0.226418,0.0,0.0
456,113.75,31.4453,33.9898,159.755,102.565,99.9199,0.00102152,0.0543716,20.946,476.113,0.239763,0.0,0.0
464,115.75,31.5088,34.032,164.485,102.56,99.4245,0.000953587,0.0540669,20.9461,476.103,0.284893,0.0,0.0
472,117.75,31.3377,34.3229,160.79,102.568,99.9686,0.000884908,0.0539462,20.9461,476.103,0.235552,0.0,0.0
480,119.75,31.1195,33.6497,157.785,102.574,100.371,0.000720453,0.0537948,20.9461,476.113,0.199233,0.0,0.0
488,121.75,31.2356,34.1656,165.568,102.566,100.155,0.000659099,0.0537329,20.9465,476.083,0.218218,0.0,0.0
496,123.75,30.7192,33.9444,162.809,102.567,99.6223,0.000738539,0.0537217,20.9468,476.093,0.267286,0.0,0.0
504,125.75,31.137,33.9205,162.734,102.586,99.7602,0.000808576,0.0536456,20.9469,476.093,0.256286,0.0,0.0
512,127.75,31.3637,33.73,165.314,102.575,99.6796,0.000793558,0.053516,20.9477,476.093,0.262747,0.0,0.0
520,129.75,31.1661,34.0289,164.947,102.582,99.8854,0.000709502,0.0534004,20.9485,476.083,0.244405,0.0,0.0
528,131.75,31.2333,33.3255,160.652,102.587,99.672,0.000625375,0.0532106,20.9487,476.083,0.264517,0.0,0.0
536,133.75,31.3422,33.6996,161.75,102.594,99.5579,0.000607786,0.05309,20.9485,476.083,0.275617,0.0,0.0
544,135.75,31.1161,33.4139,161.34,102.593,100.3,0.000599709,0.0528734,20.9483,476.073,0.207374,0.0,0.0
552,137.75,31.1666,33.7296,159.43,102.596,100.085,0.000500221,0.0527164,20.9489,476.063,0.227443,0.0,0.0
560,139.75,30.8222,33.7263,162.638,102.589,99.6892,0.000359864,0.0525558,20.9499,476.053,0.263114,0.0,0.0
568,141.75,31.2164,33.8123,159.296,102.593,99.7927,0.000255635,0.0525975,20.9493,476.053,0.253929,0.0,0.0
576,143.75,30.6903,33.6908,160.066,102.6,99.5523,0.000193949,0.0524206,20.9487,476.073,0.276721,0.0,0.0
584,145.75,31.0762,33.3637,162.743,102.589,99.8104,0.000249306,0.0522006,20.9493,476.053,0.251966,0.0,0.0
592,147.75,31.0181,33.8814,158.206,102.614,99.7835,0.000289613,0.0522454,20.9497,476.063,0.256649,0.0,0.0
600,149.75,31.2339,33.4206,163.112,102.615,99.9762,0.000245117,0.0520546,20.9502,476.063,0.239019,0.0,0.0
608,151.75,31.6278,33.7972,163.571,102.615,99.8915,0.000153149,0.0519298,20.9501,476.063,0.246832,0.0,0.0
616,153.75,31.1575,33.3308,164.071,102.6,100.154,3.49935e-05,0.0518136,20.9499,476.063,0.221408,0.0,0.0
624,155.75,30.6416,34.0589,163.443,102.596,100.056,-0.000157448,0.0516537,20.9505,476.063,0.230094,0.0,0.0
632,157.75,31.0906,33.5594,163.876,102.6,100.222,-0.00035196,0.0515889,20.9514,476.063,0.215149,0.0,0.0
640,159.75,30.134,33.8422,163.621,102.602,99.7643,-0.000421178,0.0514414,20.9518,476.053,0.257351,0.0,0.0
648,161.75,30.8783,33.6235,160.178,102.598,99.7774,-0.000341586,0.0512442,20.952,476.063,0.255807,0.0,0.0
656,163.75,31.0746,33.0215,161.997,102.612,99.6963,,0.0511614,,476.053,0.264489,0.0,0.0
664,165.75,30.9644,33.3526,167.395,102.581,100.074,,0.0510159,,476.053,0.227064,0.0,0.0
672,167.75,30.6676,33.7863,163.957,102.584,99.8241,,,,476.043,0.250265,0.0,0.0
680,169.75,30.9202,33.2441,162.966,102.578,100.122,,,,476.053,0.222354,0.0,0.0
688,171.75,30.7356,33.1466,160.165,102.569,100.21,,,,476.053,0.213496,0.0,0.0
696,173.75,31.0016,33.6461,162.27,102.568,99.781,,,,476.043,0.252826,0.0,0.0
699,174.5,30.7343,33.0673,164.518,102.559,99.9651,,,,476.053,0.235104,0.0,0.0