Folder: fsri_materials_database/01_Data/LW_GypBoard_Painted_Paper/MCC

Note: 01_Data/README.md
# Materials and Products Database
## 01_Data

Raw data generated from each apparatus are included here in plain-text format. The data is organized first by material, next by the short name of test apparatus used, and where applicable additional filtering by test settings.

### material.json

Each material directory contains a json file of the same name as the material. This file links the data stored in the repository as well as data and graphs produced by the accompanying scripts (__02_Scripts__) to the respective landing page for the material on the front-end website.

File: LW_GypBoard_Painted_Paper_MCC_30K_min_211202_R4.txt
Sample ID:	C:\MCC\MCC Cal\Test\LW_GypBoard_Painted_Paper\LW_GypBoard_Painted_Paper_MCC_30K_min_211202_R4.txt
Sample Weight (mg):	4.8
Heating Rate (C/s):	0.5
Combustor Temp (C):	900
N2 Flow Rate (cc/min):	80
O2 Flow Rate (cc/min):	20
Calibration File:	C:\MCC\MCC Cal\Coeff1 JN10440_30_210304.txt.txt
T Correction Coefficients:	0	1.024463	0
Time Shift (s):	14
*
Time (s)	Temperature (C)	N2 flow rate (cc/min)	O2 flow rate (cc/min)	Flow Rate (cc/min)	Oxygen (%)	HRR (W/g)	Heating rate (C/s)
-0.001	108.278	80.001	19.996	103.050	20.117	-0.202	-0.020
8.000	108.315	80.002	19.995	103.034	20.112	0.113	-0.002
15.999	108.362	80.002	19.995	103.062	20.111	0.200	0.007
24.000	108.475	80.003	19.996	103.100	20.106	0.557	0.034
31.999	108.875	80.003	19.995	103.184	20.091	1.561	0.053
39.999	109.705	80.003	19.995	103.175	20.086	1.847	0.120
48.000	110.893	80.002	19.995	103.218	20.080	2.285	0.184
55.999	112.416	80.003	19.995	103.263	20.074	2.712	0.215
64.000	114.372	80.003	19.995	103.288	20.069	3.003	0.266
71.999	116.771	80.002	19.995	103.301	20.065	3.277	0.321
79.999	119.550	80.002	19.995	103.301	20.064	3.388	0.406
87.999	122.644	80.003	19.995	103.305	20.063	3.426	0.419
95.999	125.942	80.003	19.996	103.301	20.064	3.376	0.429
104.000	129.491	80.002	19.995	103.322	20.064	3.333	0.478
111.999	133.194	80.003	19.995	103.315	20.064	3.383	0.447
120.000	137.060	80.003	19.993	103.258	20.062	3.472	0.506
127.999	141.023	80.003	19.994	103.304	20.062	3.523	0.482
136.000	145.101	80.002	19.995	103.297	20.060	3.653	0.515
144.000	149.131	80.002	19.996	103.234	20.061	3.561	0.526
152.000	153.231	80.001	19.995	103.266	20.065	3.263	0.520
160.000	157.267	80.002	19.996	103.274	20.061	3.570	0.539
168.000	161.259	80.001	19.995	103.265	20.062	3.461	0.465
176.000	165.269	80.001	19.995	103.263	20.063	3.408	0.527
184.000	169.325	80.001	19.995	103.264	20.061	3.587	0.538
192.000	173.257	80.003	19.993	103.260	20.059	3.692	0.473
200.000	177.230	80.004	19.994	103.258	20.060	3.592	0.499
208.000	181.118	80.003	19.993	103.243	20.061	3.548	0.503
216.000	185.064	80.005	19.995	103.237	20.051	4.243	0.507
224.000	189.023	80.003	19.994	103.225	20.052	4.154	0.447
232.000	192.929	80.003	19.994	103.231	20.050	4.326	0.507
240.000	196.910	80.003	19.995	103.223	20.046	4.575	0.501
248.000	200.774	80.001	19.995	103.232	20.044	4.694	0.437
256.000	204.773	80.001	19.994	103.239	20.043	4.790	0.482
264.000	208.708	80.002	19.994	103.226	20.042	4.848	0.511
272.000	212.716	80.004	19.994	103.220	20.037	5.155	0.520
280.000	216.711	80.004	19.993	103.222	20.039	5.002	0.452
288.000	220.656	80.002	19.995	103.223	20.040	4.977	0.471
296.000	224.719	80.003	19.994	103.218	20.037	5.156	0.518
304.000	228.722	80.003	19.994	103.218	20.039	5.023	0.507
312.000	232.746	80.002	19.995	103.220	20.038	5.110	0.477
320.000	236.767	80.002	19.996	103.220	20.040	4.958	0.517
328.000	240.712	80.002	19.996	103.213	20.034	5.371	0.492
336.000	244.720	80.001	19.996	103.216	20.032	5.489	0.482
344.000	248.750	80.002	19.995	103.215	20.028	5.749	0.498
352.000	252.730	80.004	19.994	103.216	20.021	6.223	0.503
360.000	256.717	80.004	19.994	103.217	20.014	6.727	0.472
368.000	260.707	80.003	19.994	103.220	20.011	6.921	0.505
376.000	264.686	80.006	19.993	103.219	20.003	7.457	0.470
384.000	268.725	80.002	19.995	103.220	19.992	8.194	0.516
392.000	272.738	80.001	19.995	103.223	19.982	8.876	0.435
400.000	276.772	80.004	19.995	103.217	19.966	9.924	0.526
408.000	280.802	80.003	19.995	103.228	19.949	11.063	0.505
416.000	284.695	80.002	19.995	103.237	19.934	12.073	0.463
424.000	288.760	80.002	19.996	103.243	19.914	13.446	0.509
432.000	292.736	80.003	19.995	103.250	19.893	14.821	0.469
440.000	296.745	80.004	19.995	103.259	19.877	15.901	0.493
448.000	300.740	80.002	19.995	103.260	19.847	17.898	0.502
456.000	304.743	80.005	19.994	103.272	19.822	19.596	0.520
464.000	308.792	80.003	19.994	103.263	19.796	21.335	0.506
472.000	312.870	80.003	19.994	103.287	19.769	23.182	0.536
480.000	316.916	80.002	19.995	103.295	19.736	25.407	0.512
488.000	320.971	80.003	19.995	103.306	19.703	27.610	0.504
496.000	324.985	80.001	19.995	103.322	19.665	30.191	0.499
504.000	329.030	80.003	19.995	103.334	19.626	32.766	0.505
512.000	333.098	80.003	19.994	103.344	19.579	35.942	0.531
520.000	337.201	80.004	19.995	103.363	19.522	39.793	0.512
528.000	341.199	80.004	19.994	103.382	19.459	44.038	0.498
536.000	345.197	80.004	19.994	103.403	19.397	48.185	0.486
544.000	349.308	80.002	19.995	103.411	19.328	52.855	0.558
552.000	353.348	80.003	19.994	103.427	19.280	56.040	0.496
560.000	357.432	80.003	19.995	103.421	19.230	59.380	0.538
568.000	361.477	80.002	19.996	103.412	19.223	59.865	0.550
576.000	365.569	80.001	19.995	103.376	19.266	56.947	0.512
584.000	369.626	80.003	19.995	103.316	19.338	52.082	0.529
592.000	373.728	80.005	19.995	103.264	19.451	44.509	0.499
600.000	377.852	80.002	19.995	103.220	19.564	36.890	0.491
608.000	381.962	80.002	19.995	103.179	19.659	30.520	0.511
616.000	385.983	80.004	19.994	103.178	19.706	27.386	0.512
624.000	390.039	80.002	19.995	103.179	19.698	27.917	0.493
632.000	394.143	80.002	19.994	103.181	19.662	30.306	0.539
640.000	398.239	80.002	19.995	103.186	19.619	33.195	0.529
648.000	402.278	80.003	19.996	103.179	19.582	35.674	0.505
656.000	406.337	80.002	19.994	103.179	19.561	37.113	0.525
664.000	410.372	80.003	19.995	103.160	19.588	35.289	0.493
672.000	414.351	80.003	19.996	103.170	19.654	30.835	0.483
680.000	418.394	80.003	19.997	103.146	19.756	24.036	0.511
688.000	422.431	80.002	19.996	103.150	19.862	16.864	0.501
696.000	426.485	80.004	19.995	103.145	19.937	11.865	0.506
704.000	430.561	80.001	19.995	103.147	19.978	9.094	0.535
712.000	434.617	80.002	19.995	103.150	19.999	7.677	0.480
720.000	438.663	80.003	19.995	103.142	20.020	6.320	0.504
728.000	442.586	80.002	19.995	103.141	20.033	5.400	0.452
736.000	446.582	80.002	19.994	103.140	20.039	5.015	0.472
744.000	450.654	80.001	19.996	103.143	20.044	4.686	0.524
752.000	454.628	80.005	19.993	103.142	20.048	4.406	0.498
760.000	458.748	80.002	19.995	103.142	20.053	4.062	0.545
768.000	462.837	80.004	19.995	103.140	20.054	4.003	0.518
776.000	466.884	80.004	19.995	103.138	20.056	3.869	0.515
784.000	471.045	80.002	19.995	103.136	20.064	3.322	0.525
792.000	475.219	80.002	19.995	103.128	20.067	3.177	0.534
800.000	479.386	80.003	19.995	103.121	20.066	3.224	0.514
808.000	483.549	80.002	19.995	103.135	20.068	3.101	0.503
816.000	487.716	80.003	19.996	103.130	20.073	2.748	0.509
824.000	491.854	80.002	19.995	103.138	20.074	2.715	0.519
832.000	496.007	80.004	19.996	103.132	20.072	2.805	0.521
840.000	500.145	80.003	19.994	103.134	20.075	2.596	0.506
848.000	504.235	80.004	19.994	103.129	20.076	2.565	0.497
856.000	508.353	80.004	19.994	103.127	20.081	2.228	0.515
864.000	512.455	80.002	19.996	103.127	20.076	2.565	0.517
872.000	516.542	80.003	19.994	103.132	20.075	2.608	0.505
880.000	520.702	80.002	19.996	103.120	20.079	2.357	0.530
888.000	524.809	80.002	19.995	103.126	20.081	2.241	0.523
896.000	528.957	80.001	19.994	103.131	20.078	2.383	0.530
904.000	533.101	80.002	19.995	103.116	20.081	2.196	0.532
912.000	537.228	80.003	19.995	103.115	20.082	2.158	0.469
920.000	541.353	80.002	19.995	103.124	20.082	2.137	0.491
928.000	545.438	80.006	19.994	103.104	20.080	2.304	0.543
936.000	549.631	80.003	19.994	103.104	20.074	2.681	0.520
944.000	553.669	80.002	19.995	103.121	20.078	2.422	0.371
952.000	557.863	80.002	19.995	103.127	20.087	1.817	1.103
960.000	562.051	80.002	19.995	103.122	20.084	2.024	0.550
968.000	566.165	80.001	19.995	103.123	20.085	1.946	0.509
976.000	570.178	80.001	19.995	103.118	20.087	1.826	0.490
984.000	574.291	80.003	19.995	103.119	20.087	1.812	0.539
992.000	578.375	80.003	19.996	103.107	20.085	1.946	0.522
1000.000	582.352	80.002	19.994	103.126	20.081	2.183	0.521
1008.000	586.397	80.004	19.994	103.113	20.082	2.152	0.514
1016.000	590.401	80.005	19.995	103.121	20.084	1.994	0.523
1024.000	594.463	80.001	19.995	103.117	20.082	2.139	0.526
1031.999	598.562	80.002	19.996	103.105	20.084	2.039	0.540
1039.999	602.618	80.004	19.996	103.110	20.085	1.911	0.527
1047.999	606.694	80.002	19.995	103.105	20.088	1.735	0.492
1056.000	610.805	80.001	19.996	103.097	20.088	1.765	0.497
1064.000	614.949	80.018	20.000	103.179	20.090	1.640	0.528
1071.999	619.016	80.022	19.998	103.107	20.087	1.823	0.497
1080.000	623.073	80.018	19.995	103.119	20.082	2.141	0.499
1088.000	627.212	80.022	20.001	103.141	20.086	1.878	0.483
1095.999	631.251	80.022	19.998	103.124	20.084	2.009	0.530
1104.001	635.397	80.020	20.006	103.153	20.088	1.756	0.519
1111.999	639.477	80.022	20.003	103.142	20.082	2.143	0.521
1119.999	643.529	80.001	19.995	103.118	20.083	2.056	0.504
1128.000	647.565	80.001	19.996	103.131	20.080	2.246	0.499
1135.999	651.689	80.001	19.995	103.136	20.080	2.311	0.519
1143.999	655.717	80.003	19.995	103.114	20.077	2.457	0.530
1151.999	659.701	80.003	19.995	103.127	20.079	2.357	0.464
1159.999	663.807	80.003	19.995	103.122	20.080	2.259	0.508
1168.000	667.736	80.004	19.995	103.123	20.074	2.690	0.494
1175.999	671.858	80.003	19.995	103.115	20.075	2.594	0.532
1183.999	675.968	80.002	19.995	103.128	20.076	2.527	0.615
1192.000	680.116	80.003	19.996	103.135	20.076	2.571	0.525
1200.000	684.286	80.002	19.994	103.134	20.080	2.258	0.504
1207.999	688.523	80.001	19.994	103.126	20.081	2.241	0.562
1216.000	692.741	80.016	20.000	103.120	20.083	2.061	0.545
1224.000	696.883	80.003	19.997	103.107	20.079	2.357	0.498
1231.999	701.045	80.003	19.996	103.104	20.078	2.401	0.535
1239.999	705.134	80.003	19.996	103.101	20.075	2.610	0.488
1248.000	709.209	80.004	19.994	103.098	20.076	2.542	0.491
1255.999	713.265	80.004	19.994	103.102	20.076	2.533	0.538
1264.000	717.304	80.001	19.995	103.105	20.077	2.450	0.475
1272.000	721.312	80.002	19.995	103.107	20.074	2.708	0.485
1279.999	725.415	80.002	19.995	103.115	20.074	2.690	0.537
1288.000	729.473	80.002	19.995	103.100	20.070	2.969	0.536
1295.999	733.564	80.001	19.994	103.110	20.070	2.977	0.509
1303.999	737.582	80.003	19.995	103.100	20.068	3.089	0.505
1312.000	741.620	80.003	19.995	103.100	20.068	3.062	0.513
1315.999	743.605	80.002	19.995	103.103	20.071	2.886	0.531