Folder: fsri_materials_database/01_Data/Bean_Bag_Chair_Inner_Lining/MCC (part 2)

File: Bean_Bag_Chair_Inner_Lining_MCC_30K_min_220314_R3.txt
Sample ID:	C:\MCC\MCC Cal\Test\Bean_Bag_Chair_Inner_Lining_MCC_30K_min_220314_R3.txt
Sample Weight (mg):	4.66
Heating Rate (C/s):	0.5
Combustor Temp (C):	900
N2 Flow Rate (cc/min):	80
O2 Flow Rate (cc/min):	20
Calibration File:	C:\MCC\MCC Cal\Coeff1 JN10440_30_210304.txt.txt
T Correction Coefficients:	0	1.024463	0
Time Shift (s):	14
*
Time (s)	Temperature (C)	N2 flow rate (cc/min)	O2 flow rate (cc/min)	Flow Rate (cc/min)	Oxygen (%)	HRR (W/g)	Heating rate (C/s)
0.000	107.745	80.004	19.997	103.673	19.792	-0.255	-0.028
8.000	107.740	80.005	19.996	103.677	19.798	-0.688	0.014
16.000	107.787	80.012	19.993	103.677	19.791	-0.178	-0.008
24.000	107.872	80.008	19.990	103.731	19.788	0.009	0.007
32.000	108.161	80.011	19.993	103.826	19.773	1.080	0.063
40.001	108.925	80.013	19.995	103.839	19.764	1.735	0.127
48.000	110.085	80.009	19.993	103.878	19.757	2.213	0.193
56.000	111.631	80.009	19.997	103.904	19.752	2.535	0.203
64.000	113.577	80.010	19.994	103.930	19.749	2.766	0.263
72.000	115.902	80.009	19.991	103.941	19.743	3.182	0.325
80.000	118.469	80.007	20.000	103.940	19.742	3.203	0.327
88.000	121.416	80.007	19.994	103.945	19.736	3.644	0.375
96.000	124.575	80.011	19.995	103.943	19.738	3.535	0.386
104.000	128.020	80.011	19.992	103.946	19.738	3.543	0.439
112.000	131.590	80.007	19.996	103.947	19.739	3.474	0.460
120.000	135.386	80.012	19.992	103.948	19.740	3.355	0.510
128.000	139.288	80.006	19.998	103.943	19.744	3.099	0.531
136.000	143.285	80.007	19.995	103.947	19.744	3.127	0.488
144.000	147.328	80.009	19.994	103.943	19.739	3.420	0.525
152.000	151.459	80.006	19.995	103.930	19.740	3.408	0.496
160.000	155.488	80.007	19.996	103.911	19.750	2.670	0.515
168.000	159.565	80.006	19.990	103.906	19.745	3.040	0.518
176.000	163.621	80.008	19.995	103.907	19.751	2.630	0.496
184.001	167.662	80.011	19.992	103.910	19.754	2.401	0.542
192.000	171.679	80.012	19.993	103.905	19.753	2.440	0.485
200.000	175.629	80.010	19.991	103.905	19.751	2.615	0.470
208.000	179.511	80.011	19.993	103.898	19.753	2.467	0.476
216.000	183.398	80.013	19.994	103.899	19.754	2.375	0.475
224.000	187.356	80.008	19.993	103.903	19.756	2.256	0.496
232.000	191.277	80.008	19.995	103.897	19.754	2.371	0.490
240.000	195.191	80.009	19.994	103.886	19.755	2.299	0.482
248.000	199.076	80.007	19.994	103.894	19.758	2.128	0.460
256.000	203.029	80.007	19.995	103.880	19.754	2.376	0.495
264.000	206.987	80.009	19.994	103.883	19.755	2.346	0.475
272.000	210.936	80.011	19.993	103.884	19.758	2.128	0.505
280.000	214.897	80.011	19.994	103.877	19.759	2.077	0.522
288.000	218.864	80.011	19.994	103.863	19.761	1.921	0.490
296.000	222.857	80.011	19.993	103.868	19.757	2.190	0.503
304.000	226.872	80.010	19.994	103.867	19.761	1.884	0.496
312.000	230.842	80.009	19.992	103.866	19.760	1.959	0.509
320.000	234.851	80.006	19.993	103.867	19.762	1.846	0.488
328.000	238.827	80.007	19.995	103.866	19.764	1.685	0.480
336.000	242.807	80.007	19.993	103.866	19.760	1.968	0.517
344.000	246.842	80.010	19.994	103.863	19.766	1.559	0.495
352.000	250.879	80.009	19.994	103.862	19.767	1.508	0.514
360.000	254.834	80.008	19.995	103.861	19.768	1.457	0.507
368.000	258.851	80.011	19.992	103.862	19.767	1.499	0.529
376.000	262.793	80.012	19.992	103.864	19.769	1.388	0.521
384.000	266.791	80.009	19.993	103.854	19.769	1.380	0.530
392.000	270.805	80.008	19.994	103.855	19.766	1.532	0.516
400.000	274.796	80.009	19.993	103.856	19.771	1.228	0.513
408.000	278.813	80.008	19.993	103.847	19.772	1.160	0.518
416.000	282.819	80.008	19.995	103.854	19.769	1.346	0.512
424.000	286.821	80.007	19.995	103.844	19.772	1.119	0.495
432.000	290.861	80.011	19.994	103.842	19.773	1.076	0.467
440.000	294.891	80.009	19.994	103.843	19.770	1.307	0.512
448.000	298.914	80.009	19.992	103.838	19.771	1.207	0.503
456.000	302.914	80.011	19.994	103.846	19.771	1.205	0.490
464.000	306.934	80.009	19.994	103.830	19.773	1.111	0.517
472.000	310.948	80.008	19.993	103.826	19.772	1.149	0.532
480.000	315.011	80.009	19.994	103.828	19.774	1.008	0.538
488.000	319.075	80.009	19.994	103.825	19.772	1.136	0.530
496.000	323.162	80.008	19.993	103.826	19.775	0.961	0.481
504.000	327.305	80.009	19.994	103.828	19.772	1.171	0.545
512.000	331.396	80.010	19.994	103.830	19.771	1.215	0.505
520.000	335.490	80.008	19.996	103.827	19.772	1.125	0.508
528.000	339.597	80.010	19.993	103.830	19.771	1.241	0.543
536.000	343.646	80.011	19.993	103.826	19.772	1.154	0.505
544.000	347.708	80.010	19.995	103.822	19.771	1.194	0.523
552.000	351.782	80.007	19.995	103.823	19.767	1.474	0.518
560.000	355.793	80.009	19.994	103.825	19.762	1.859	0.459
568.000	359.861	80.007	19.994	103.824	19.758	2.105	0.501
576.000	363.918	80.007	19.993	103.830	19.752	2.527	0.523
584.000	367.952	80.008	19.993	103.830	19.743	3.171	0.495
592.000	372.029	80.011	19.993	103.836	19.727	4.249	0.494
600.000	376.124	80.010	19.994	103.834	19.705	5.831	0.476
608.000	380.231	80.009	19.993	103.825	19.674	7.943	0.529
616.000	384.272	80.011	19.993	103.841	19.656	9.236	0.510
624.000	388.396	80.012	19.994	103.860	19.633	10.782	0.530
632.000	392.501	80.008	19.993	103.863	19.591	13.745	0.529
640.000	396.724	80.007	19.994	103.904	19.543	17.086	0.510
648.000	400.910	80.008	19.995	103.932	19.460	22.843	0.503
656.000	405.131	80.008	19.993	103.923	19.380	28.451	0.530
664.000	409.369	80.008	19.994	103.989	19.288	34.841	0.506
672.000	413.425	80.009	19.994	104.015	19.167	43.290	0.516
680.000	417.370	80.010	19.994	104.069	18.994	55.429	0.481
688.000	421.307	80.009	19.993	104.159	18.782	70.281	0.522
696.000	425.111	80.010	19.993	104.227	18.565	85.442	0.469
704.000	429.135	80.010	19.993	104.572	18.009	124.764	0.491
712.000	433.112	80.008	19.993	104.467	17.786	140.258	0.473
720.000	437.295	80.008	19.995	104.743	17.420	166.196	0.540
728.000	441.469	80.008	19.994	104.630	17.266	176.958	0.542
736.000	445.656	80.006	19.994	104.758	17.145	185.402	0.528
744.000	449.800	80.008	19.995	104.757	17.122	186.871	0.523
752.000	453.879	80.010	19.995	104.714	17.280	175.624	0.505
760.000	457.937	80.011	19.994	104.597	17.619	151.604	0.483
768.000	461.981	80.008	19.994	104.439	18.085	118.903	0.494
776.000	465.961	80.010	19.994	104.284	18.588	83.658	0.505
784.000	470.009	80.010	19.992	104.160	19.022	53.373	0.504
792.000	474.131	80.009	19.994	104.032	19.291	34.610	0.508
800.000	478.223	80.008	19.995	103.952	19.458	22.996	0.494
808.000	482.289	80.009	19.994	103.903	19.564	15.629	0.544
816.000	486.388	80.009	19.993	103.887	19.630	11.020	0.547
824.000	490.437	80.008	19.994	103.863	19.676	7.829	0.551
832.000	494.545	80.008	19.995	103.847	19.698	6.313	0.548
840.000	498.554	80.010	19.993	103.831	19.721	4.704	0.510
848.000	502.635	80.009	19.994	103.827	19.733	3.826	0.493
856.000	506.762	80.009	19.992	103.821	19.743	3.196	0.522
864.000	510.794	80.011	19.993	103.801	19.747	2.905	0.476
872.000	514.916	80.012	19.994	103.800	19.753	2.470	0.516
880.000	519.041	80.009	19.993	103.799	19.754	2.397	0.516
888.000	523.204	80.011	19.994	103.787	19.757	2.207	0.517
896.000	527.326	80.009	19.994	103.788	19.756	2.282	0.500
904.000	531.452	80.008	19.994	103.795	19.757	2.175	0.510
912.000	535.544	80.009	19.995	103.791	19.758	2.139	0.526
920.000	539.661	80.008	19.994	103.790	19.756	2.288	0.513
928.000	543.743	80.009	19.995	103.787	19.753	2.464	0.517
936.000	547.812	80.010	19.994	103.786	19.749	2.721	0.519
944.000	551.912	80.011	19.993	103.785	19.755	2.334	0.492
952.000	556.042	80.011	19.993	103.784	19.750	2.661	0.556
960.000	560.040	80.009	19.994	103.787	19.754	2.376	0.491
968.000	564.111	80.009	19.993	103.787	19.747	2.903	0.473
976.000	568.172	80.008	19.993	103.789	19.749	2.716	0.488
984.000	572.205	80.008	19.993	103.789	19.750	2.685	0.523
992.000	576.346	80.009	19.994	103.787	19.745	3.017	0.516
1000.000	580.407	80.010	19.994	103.786	19.745	3.049	0.512
1008.000	584.516	80.010	19.993	103.786	19.746	2.971	0.520
1016.000	588.554	80.008	19.995	103.784	19.753	2.488	0.496
1024.000	592.780	80.011	19.994	103.790	19.743	3.162	0.591
1032.000	597.485	80.011	19.992	103.789	19.742	3.265	0.670
1040.001	600.956	80.009	19.993	103.793	19.741	3.301	0.541
1048.000	605.132	80.007	19.993	103.788	19.742	3.239	0.504
1056.000	609.327	80.009	19.994	103.784	19.736	3.618	0.522
1064.000	613.433	80.010	19.994	103.787	19.739	3.436	0.540
1072.000	617.611	80.008	19.992	103.786	19.741	3.331	0.509
1080.000	621.797	80.009	19.993	103.785	19.740	3.385	0.509
1088.000	625.993	80.010	19.993	103.781	19.740	3.370	0.531
1096.000	630.146	80.009	19.993	103.787	19.746	2.920	0.515
1104.000	634.312	80.010	19.994	103.788	19.743	3.158	0.511
1112.001	638.494	80.010	19.995	103.786	19.741	3.329	0.497
1120.000	642.596	80.008	19.994	103.765	19.744	3.064	0.539
1128.000	646.626	80.009	19.993	103.780	19.746	2.925	0.496
1136.001	650.688	80.009	19.993	103.782	19.744	3.126	0.472
1144.000	654.723	80.009	19.993	103.780	19.744	3.070	0.508
1152.000	658.938	80.008	19.994	103.770	19.747	2.850	0.469
1160.000	662.859	80.008	19.992	103.769	19.745	3.004	0.490
1168.000	666.874	80.011	19.993	103.774	19.750	2.687	0.512
1176.000	670.865	80.008	19.993	103.766	19.753	2.465	0.481
1184.000	674.966	80.009	19.993	103.767	19.749	2.773	0.514
1192.000	678.651	80.010	19.993	103.761	19.754	2.385	0.351
1200.000	682.970	80.008	19.995	103.759	19.756	2.284	0.483
1208.000	687.049	80.006	19.995	103.764	19.756	2.272	0.514
1216.000	691.045	80.007	19.994	103.772	19.754	2.368	0.491
1224.000	695.007	80.008	19.994	103.759	19.754	2.407	0.480
1232.000	698.988	80.008	19.993	103.772	19.751	2.612	0.490
1240.000	702.985	80.007	19.994	103.774	19.754	2.411	0.491
1248.001	707.045	80.009	19.992	103.782	19.754	2.428	0.527
1256.000	711.150	80.009	19.993	103.765	19.751	2.576	0.506
1264.000	715.263	80.010	19.993	103.768	19.757	2.195	0.527
1272.001	719.407	80.010	19.994	103.749	19.757	2.161	0.508
1280.000	723.592	80.009	19.994	103.749	19.759	2.077	0.482
1288.000	727.713	80.008	19.993	103.759	19.755	2.326	0.510
1296.000	731.895	80.007	19.994	103.757	19.755	2.325	0.518
1304.000	735.968	80.007	19.995	103.749	19.757	2.180	0.500
1312.000	740.008	80.007	19.994	103.750	19.757	2.201	0.470
1319.000	743.569	80.009	19.994	103.748	19.754	2.373	0.453