Folder: fsri_materials_database/01_Data/Bean_Bag_Chair_Inner_Lining/MCC

Note: 01_Data/README.md
# Materials and Products Database
## 01_Data

Raw data generated from each apparatus are included here in plain-text format. The data is organized first by material, next by the short name of test apparatus used, and where applicable additional filtering by test settings.

### material.json

Each material directory contains a json file of the same name as the material. This file links the data stored in the repository as well as data and graphs produced by the accompanying scripts (__02_Scripts__) to the respective landing page for the material on the front-end website.

File: Bean_Bag_Chair_Inner_Lining_MCC_30K_min_220314_R1.txt
Sample ID:	C:\MCC\MCC Cal\Test\Bean_Bag_Chair_Inner_Lining_MCC_30K_min_220314_R1.txt
Sample Weight (mg):	4.48
Heating Rate (C/s):	0.5
Combustor Temp (C):	900
N2 Flow Rate (cc/min):	80
O2 Flow Rate (cc/min):	20
Calibration File:	C:\MCC\MCC Cal\Coeff1 JN10440_30_210304.txt.txt
T Correction Coefficients:	0	1.024463	0
Time Shift (s):	14
*
Time (s)	Temperature (C)	N2 flow rate (cc/min)	O2 flow rate (cc/min)	Flow Rate (cc/min)	Oxygen (%)	HRR (W/g)	Heating rate (C/s)
-0.001	109.553	80.007	19.994	103.629	19.941	0.066	-0.016
7.999	109.567	80.005	19.995	103.638	19.941	0.057	0.009
15.999	109.586	80.006	19.995	103.702	19.933	0.632	0.010
24.000	109.883	80.004	19.993	103.719	19.929	0.892	0.028
31.999	110.404	80.007	19.994	103.775	19.913	2.062	0.076
39.999	111.303	80.004	19.994	103.833	19.908	2.443	0.116
47.999	112.556	80.006	19.993	103.844	19.902	2.838	0.172
55.999	114.248	80.008	19.996	103.848	19.898	3.142	0.215
63.999	116.170	80.006	19.993	103.872	19.895	3.388	0.236
71.999	118.432	80.007	19.994	103.880	19.893	3.482	0.302
79.999	121.040	80.009	19.993	103.885	19.882	4.338	0.361
87.999	123.887	80.005	19.993	103.905	19.886	4.010	0.365
95.999	126.992	80.003	19.996	103.899	19.883	4.270	0.386
103.999	130.272	80.006	19.995	103.907	19.884	4.163	0.410
111.999	133.717	80.007	19.995	103.903	19.887	3.965	0.449
119.999	137.265	80.009	19.993	103.909	19.886	4.037	0.456
127.999	140.967	80.007	19.994	103.907	19.883	4.209	0.501
136.000	144.768	80.009	19.993	103.911	19.891	3.676	0.492
144.000	148.645	80.006	19.994	103.901	19.888	3.840	0.500
152.000	152.616	80.009	19.994	103.897	19.890	3.762	0.488
160.000	156.559	80.010	19.993	103.876	19.882	4.334	0.501
168.000	160.539	80.006	19.994	103.876	19.882	4.331	0.499
176.000	164.536	80.007	19.996	103.870	19.887	3.974	0.475
184.000	168.619	80.005	19.993	103.866	19.883	4.249	0.492
192.000	172.646	80.006	19.995	103.869	19.883	4.251	0.493
200.000	176.623	80.006	19.995	103.869	19.884	4.168	0.486
208.000	180.624	80.007	19.994	103.868	19.888	3.882	0.502
216.000	184.678	80.008	19.993	103.864	19.884	4.193	0.512
224.000	188.685	80.007	19.994	103.870	19.880	4.422	0.509
232.000	192.626	80.008	19.993	103.834	19.890	3.721	0.540
240.000	196.558	80.007	19.996	103.860	19.881	4.375	0.518
248.000	200.404	80.009	19.993	103.840	19.882	4.283	0.438
256.000	204.388	80.007	19.994	103.846	19.882	4.278	0.482
264.000	208.356	80.007	19.993	103.864	19.877	4.656	0.490
272.000	212.298	80.007	19.994	103.841	19.880	4.468	0.480
280.000	216.276	80.010	19.993	103.837	19.879	4.533	0.517
288.000	220.255	80.004	19.994	103.838	19.886	4.044	0.515
296.000	224.269	80.007	19.995	103.834	19.885	4.074	0.547
304.000	228.239	80.006	19.993	103.821	19.882	4.284	0.522
312.000	232.245	80.010	19.993	103.831	19.883	4.240	0.494
320.000	236.190	80.006	19.994	103.832	19.882	4.294	0.483
328.000	240.081	80.010	19.994	103.829	19.880	4.449	0.464
336.000	244.088	80.007	19.992	103.833	19.880	4.437	0.517
344.000	248.006	80.004	19.993	103.834	19.882	4.310	0.462
352.000	252.038	80.006	19.994	103.836	19.879	4.544	0.534
360.000	256.071	80.007	19.995	103.833	19.881	4.409	0.529
368.000	260.043	80.004	19.995	103.830	19.881	4.362	0.510
376.000	264.079	80.007	19.994	103.829	19.879	4.551	0.496
384.000	268.097	80.008	19.994	103.826	19.881	4.392	0.473
392.000	272.187	80.008	19.994	103.807	19.879	4.542	0.523
400.000	276.239	80.011	19.993	103.831	19.880	4.468	0.559
408.000	280.221	80.009	19.993	103.830	19.876	4.729	0.486
416.000	284.253	80.006	19.992	103.828	19.874	4.863	0.520
424.000	288.317	79.995	19.994	103.827	19.876	4.741	0.503
432.000	292.487	80.007	19.994	103.830	19.872	5.057	0.528
440.000	296.551	79.994	19.995	103.809	19.875	4.815	0.520
448.000	300.568	80.007	19.993	103.817	19.874	4.874	0.483
456.000	304.672	79.998	19.994	103.806	19.875	4.776	0.521
464.000	308.640	80.007	19.994	103.811	19.867	5.386	0.515
472.000	312.706	80.005	19.994	103.820	19.873	4.922	0.541
480.000	316.662	79.996	19.996	103.794	19.869	5.262	0.490
488.000	320.675	80.009	19.995	103.800	19.867	5.419	0.467
496.000	324.697	80.021	19.993	103.792	19.870	5.195	0.524
504.000	328.639	80.012	19.994	103.797	19.868	5.284	0.511
512.000	332.605	80.018	19.993	103.790	19.866	5.472	0.489
520.000	336.517	80.006	19.995	103.794	19.866	5.492	0.461
528.000	340.446	80.005	19.994	103.811	19.861	5.821	0.473
536.000	344.464	80.002	19.994	103.815	19.864	5.591	0.519
544.000	348.590	80.004	19.993	103.824	19.859	5.986	0.559
552.000	352.729	80.016	19.993	103.819	19.856	6.167	0.551
560.000	356.885	80.012	19.993	103.792	19.857	6.095	0.496
568.000	361.051	80.012	19.993	103.795	19.850	6.606	0.515
576.000	365.192	80.010	19.994	103.832	19.848	6.760	0.504
584.000	369.323	80.000	19.995	103.823	19.833	7.820	0.491
592.000	373.454	80.015	19.996	103.805	19.815	9.143	0.503
600.000	377.580	80.001	19.994	103.820	19.806	9.814	0.486
608.000	381.697	80.000	19.993	103.825	19.785	11.316	0.507
616.000	385.856	80.013	19.992	103.839	19.755	13.511	0.540
624.000	389.917	80.007	19.993	103.840	19.720	16.016	0.494
632.000	393.997	80.007	19.994	103.862	19.677	19.153	0.513
640.000	398.067	80.009	19.994	103.874	19.614	23.730	0.499
648.000	402.105	80.008	19.994	103.909	19.544	28.808	0.513
656.000	406.196	80.011	19.994	103.908	19.459	34.974	0.528
664.000	410.251	80.008	19.992	103.981	19.376	40.975	0.504
672.000	414.259	80.006	19.994	103.997	19.260	49.390	0.474
680.000	418.270	79.999	19.994	104.064	19.100	61.020	0.452
688.000	422.285	80.009	19.994	104.145	18.897	75.803	0.475
696.000	426.315	80.009	19.994	104.215	18.664	92.818	0.486
704.000	430.345	80.007	19.994	104.324	18.395	112.496	0.501
712.000	434.385	80.007	19.994	104.433	18.020	140.015	0.498
720.000	438.377	80.009	19.993	104.527	17.668	165.697	0.491
728.000	442.438	80.006	19.994	104.617	17.407	184.875	0.499
736.000	446.437	80.007	19.994	104.705	17.321	191.160	0.407
744.000	450.487	80.010	19.992	104.732	17.285	193.664	0.555
752.000	454.612	80.010	19.995	104.692	17.379	186.642	0.505
760.000	458.706	80.009	19.994	104.604	17.658	166.052	0.534
768.000	462.745	80.006	19.995	104.463	18.080	135.168	0.510
776.000	466.879	80.008	19.994	104.310	18.574	99.166	0.513
784.000	470.981	80.006	19.996	104.196	19.024	66.494	0.493
792.000	475.193	80.008	19.995	104.062	19.312	45.607	0.524
800.000	479.346	80.005	19.995	103.985	19.482	33.239	0.501
808.000	483.437	80.009	19.997	103.926	19.588	25.583	0.514
816.000	487.536	80.011	19.992	103.895	19.653	20.872	0.508
824.000	491.665	80.009	19.992	103.869	19.702	17.291	0.525
832.000	495.752	80.012	19.996	103.846	19.737	14.803	0.501
840.000	499.825	80.009	19.991	103.833	19.757	13.359	0.551
848.000	503.882	80.006	19.991	103.816	19.769	12.461	0.498
856.000	507.957	80.004	20.001	103.797	19.776	11.990	0.515
864.000	512.075	80.006	19.988	103.797	19.777	11.894	0.508
872.000	516.185	80.009	19.994	103.798	19.779	11.723	0.506
880.000	520.286	80.009	19.995	103.795	19.782	11.556	0.518
888.000	524.368	80.008	19.995	103.795	19.779	11.718	0.487
896.000	528.472	80.015	19.994	103.791	19.777	11.916	0.501
904.000	532.606	80.008	19.993	103.789	19.774	12.132	0.536
912.000	536.620	80.009	19.994	103.791	19.774	12.102	0.501
920.000	540.754	80.010	19.994	103.788	19.772	12.236	0.523
928.000	544.739	80.009	19.994	103.788	19.774	12.128	0.480
936.000	548.741	80.008	19.994	103.792	19.768	12.580	0.469
944.000	552.811	80.007	19.993	103.786	19.766	12.666	0.500
952.000	556.869	80.009	19.994	103.794	19.765	12.727	0.502
960.000	560.917	80.007	19.995	103.795	19.763	12.911	0.506
968.000	564.978	80.009	19.994	103.789	19.765	12.731	0.498
976.000	569.103	80.010	19.994	103.791	19.760	13.091	0.514
984.000	573.279	80.010	19.994	103.790	19.763	12.895	0.519
992.000	577.440	80.008	19.995	103.789	19.758	13.253	0.524
1000.000	581.461	80.009	19.994	103.789	19.756	13.399	0.494
1008.000	585.569	80.011	19.992	103.782	19.754	13.522	0.525
1016.000	589.679	80.009	19.993	103.793	19.752	13.728	0.523
1024.000	593.814	80.008	19.995	103.794	19.749	13.887	0.517
1031.999	597.844	80.008	19.993	103.793	19.745	14.230	0.511
1039.999	601.910	80.010	19.993	103.789	19.743	14.340	0.506
1047.999	605.990	80.007	19.994	103.788	19.740	14.564	0.497
1055.999	610.057	80.009	19.995	103.790	19.743	14.383	0.503
1063.999	614.202	80.010	19.994	103.788	19.740	14.603	0.541
1071.999	618.282	80.009	19.994	103.790	19.736	14.887	0.504
1079.999	622.365	80.009	19.995	103.791	19.737	14.754	0.482
1087.999	626.430	80.011	19.994	103.791	19.735	14.960	0.475
1095.999	630.559	80.008	19.994	103.791	19.733	15.103	0.527
1104.000	634.635	80.010	19.992	103.788	19.733	15.068	0.547
1111.999	638.732	80.009	19.993	103.787	19.733	15.081	0.532
1119.999	642.903	80.009	19.994	103.789	19.729	15.377	0.506
1128.000	647.080	80.009	19.994	103.785	19.729	15.356	0.514
1135.999	651.237	80.006	19.994	103.768	19.729	15.369	0.538
1143.999	655.340	80.010	19.991	103.783	19.727	15.499	0.507
1151.999	659.445	80.010	19.993	103.779	19.732	15.133	0.543
1159.999	663.481	80.009	19.993	103.787	19.730	15.266	0.488
1167.999	667.593	80.010	19.995	103.779	19.729	15.373	0.491
1175.999	671.722	80.012	19.993	103.774	19.731	15.240	0.498
1183.999	675.857	80.011	19.995	103.781	19.729	15.328	0.520
1191.999	679.875	80.009	19.994	103.769	19.728	15.403	0.507
1199.999	683.862	80.008	19.994	103.771	19.726	15.588	0.511
1207.999	687.810	80.009	19.994	103.788	19.723	15.808	0.497
1215.999	691.774	80.010	19.994	103.792	19.720	16.026	0.504
1223.999	695.858	80.007	19.994	103.777	19.717	16.250	0.536
1231.999	699.880	80.010	19.994	103.760	19.717	16.260	0.492
1239.999	704.010	80.011	19.993	103.787	19.717	16.219	0.544
1247.999	708.045	80.011	19.994	103.773	19.715	16.368	0.511
1255.999	712.165	80.011	19.995	103.769	19.715	16.383	0.518
1263.999	716.210	80.012	19.993	103.776	19.716	16.308	0.523
1271.999	720.331	80.010	19.994	103.775	19.710	16.736	0.518
1279.999	724.490	80.009	19.994	103.783	19.711	16.673	0.494
1287.999	728.689	80.009	19.994	103.774	19.697	17.651	0.559
1295.999	732.794	80.010	19.995	103.779	19.704	17.146	0.542
1303.999	736.831	80.008	19.994	103.775	19.703	17.260	0.489
1311.999	741.015	80.008	19.993	103.774	19.699	17.528	0.519
1316.999	743.545	80.010	19.994	103.778	19.699	17.496	0.495

File: Bean_Bag_Chair_Inner_Lining_MCC_30K_min_220314_R2.txt
Sample ID:	C:\MCC\MCC Cal\Test\Bean_Bag_Chair_Inner_Lining_MCC_30K_min_220314_R2.txt
Sample Weight (mg):	4.08
Heating Rate (C/s):	0.5
Combustor Temp (C):	900
N2 Flow Rate (cc/min):	80
O2 Flow Rate (cc/min):	20
Calibration File:	C:\MCC\MCC Cal\Coeff1 JN10440_30_210304.txt.txt
T Correction Coefficients:	0	1.024463	0
Time Shift (s):	14
*
Time (s)	Temperature (C)	N2 flow rate (cc/min)	O2 flow rate (cc/min)	Flow Rate (cc/min)	Oxygen (%)	HRR (W/g)	Heating rate (C/s)
0.000	108.472	80.004	19.993	103.640	19.953	-0.154	-0.034
8.000	108.525	80.006	19.993	103.638	19.954	-0.188	0.022
16.000	108.600	80.004	19.993	103.668	19.952	-0.081	0.001
24.000	108.629	80.006	19.993	103.653	19.952	-0.094	-0.020
32.001	108.765	80.007	19.994	103.731	19.950	0.129	0.002
40.000	108.971	80.005	19.996	103.728	19.943	0.641	0.030
48.000	109.493	80.006	19.994	103.788	19.926	2.033	0.082
56.000	110.389	80.007	19.995	103.860	19.920	2.505	0.136
64.000	111.788	80.005	19.995	103.878	19.909	3.324	0.179
72.000	113.602	80.005	19.994	103.872	19.907	3.536	0.264
80.000	115.832	80.005	19.994	103.899	19.902	3.916	0.299
88.000	118.433	80.006	19.993	103.910	19.900	4.071	0.338
96.000	121.288	80.004	19.993	103.909	19.902	3.935	0.382
104.000	124.487	80.006	19.994	103.911	19.901	4.019	0.398
112.000	127.908	80.006	19.993	103.906	19.899	4.186	0.439
120.000	131.552	80.007	19.992	103.906	19.901	3.976	0.493
128.000	135.211	80.006	19.994	103.905	19.898	4.221	0.470
136.000	139.070	80.006	19.994	103.904	19.902	3.937	0.478
144.000	143.024	80.005	19.994	103.897	19.901	3.971	0.517
152.000	147.038	80.005	19.993	103.896	19.904	3.780	0.477
160.000	151.154	80.004	19.994	103.870	19.901	3.975	0.544
168.000	155.220	80.004	19.994	103.870	19.908	3.466	0.503
176.000	159.165	80.003	19.994	103.866	19.903	3.871	0.481
184.000	163.282	80.005	19.994	103.855	19.909	3.356	0.580
192.000	167.350	80.008	19.993	103.848	19.913	3.073	0.517
200.000	171.365	80.005	19.993	103.850	19.914	2.942	0.508
208.000	175.343	80.005	19.994	103.835	19.916	2.768	0.498
216.000	179.258	80.007	19.994	103.839	19.916	2.815	0.482
224.000	183.123	80.005	19.993	103.824	19.914	2.948	0.477
232.000	187.071	80.004	19.993	103.824	19.910	3.251	0.463
240.000	191.026	80.006	19.994	103.815	19.907	3.512	0.518
248.000	194.867	80.004	19.993	103.825	19.912	3.100	0.471
256.000	198.778	80.004	19.995	103.829	19.912	3.100	0.504
264.000	202.701	80.004	19.995	103.830	19.910	3.286	0.538
272.000	206.667	80.005	19.993	103.818	19.911	3.171	0.463
280.000	210.616	80.005	19.993	103.820	19.913	3.031	0.531
288.000	214.548	80.006	19.992	103.810	19.911	3.194	0.525
296.000	218.398	80.007	19.993	103.794	19.914	2.924	0.380
304.000	222.400	80.006	19.994	103.794	19.922	2.356	0.601
312.000	226.443	80.006	19.993	103.792	19.919	2.566	0.627
320.000	230.237	80.004	19.993	103.794	19.915	2.883	0.550
328.000	234.147	80.007	19.995	103.794	19.918	2.639	0.369
336.000	238.360	80.004	19.994	103.788	19.921	2.371	0.334
344.000	242.149	80.004	19.993	103.794	19.919	2.555	0.399
352.000	246.485	80.006	19.994	103.790	19.923	2.248	0.652
360.000	250.167	80.006	19.995	103.796	19.925	2.053	0.575
368.000	254.445	80.005	19.994	103.790	19.921	2.413	0.570
376.000	258.621	80.007	19.993	103.790	19.924	2.184	0.629
384.000	262.700	80.007	19.995	103.786	19.925	2.109	0.499
392.000	266.814	80.006	19.994	103.779	19.929	1.762	0.477
400.000	271.027	80.006	19.993	103.773	19.924	2.173	0.562
408.000	275.206	80.004	19.993	103.765	19.921	2.413	0.564
416.000	278.973	80.005	19.994	103.756	19.926	1.973	0.537
424.000	283.237	80.004	19.993	103.753	19.926	2.027	0.406
432.000	286.757	80.008	19.994	103.752	19.930	1.674	0.442
440.000	290.914	80.005	19.993	103.750	19.928	1.823	0.476
448.000	294.970	80.006	19.994	103.750	19.932	1.560	0.569
456.000	298.915	80.007	19.993	103.753	19.931	1.633	0.419
464.000	302.832	80.006	19.992	103.753	19.927	1.909	0.473
472.000	306.741	80.005	19.993	103.756	19.923	2.282	0.463
480.000	310.777	80.006	19.993	103.751	19.922	2.333	0.449
488.001	314.685	80.005	19.993	103.750	19.925	2.113	0.455
496.000	318.557	80.006	19.995	103.752	19.924	2.175	0.408
504.000	322.620	80.004	19.994	103.756	19.923	2.256	0.458
512.000	326.609	80.007	19.994	103.754	19.927	1.958	0.487
520.000	330.593	80.006	19.993	103.750	19.927	1.907	0.465
528.000	334.752	80.005	19.993	103.755	19.927	1.941	0.528
536.000	338.861	80.006	19.994	103.754	19.924	2.162	0.553
544.000	342.915	80.006	19.994	103.747	19.922	2.331	0.510
552.000	346.964	80.005	19.992	103.747	19.923	2.228	0.518
560.000	351.006	80.004	19.993	103.750	19.922	2.293	0.494
568.000	355.035	80.005	19.994	103.746	19.920	2.492	0.490
576.000	359.177	80.005	19.993	103.736	19.916	2.809	0.517
584.000	363.160	80.005	19.993	103.744	19.908	3.396	0.505
592.000	367.183	80.007	19.992	103.736	19.903	3.799	0.521
600.000	371.186	80.006	19.993	103.744	19.896	4.401	0.521
608.000	375.238	80.006	19.993	103.749	19.879	5.714	0.494
616.000	379.254	80.007	19.993	103.748	19.861	7.201	0.480
624.000	383.393	80.007	19.993	103.749	19.828	9.800	0.547
632.000	387.524	80.005	19.994	103.783	19.801	11.918	0.498
640.000	391.799	80.004	19.994	103.778	19.778	13.781	0.546
648.000	396.060	80.006	19.992	103.792	19.739	16.828	0.543
656.000	400.287	80.005	19.993	103.810	19.698	20.085	0.535
664.000	404.612	80.005	19.994	103.813	19.642	24.605	0.538
672.000	408.792	80.007	19.992	103.865	19.568	30.462	0.507
680.000	413.020	80.007	19.992	103.860	19.473	37.978	0.524
688.000	417.038	80.007	19.993	103.934	19.366	46.570	0.513
696.000	421.125	80.008	19.993	103.982	19.201	59.737	0.518
704.000	425.151	80.008	19.993	103.997	18.997	76.075	0.470
712.001	429.056	80.005	19.993	104.113	18.793	92.229	0.477
720.000	432.923	80.004	19.995	104.267	18.390	124.606	0.490
728.000	436.812	80.004	19.994	104.456	18.002	155.572	0.472
736.000	440.705	80.006	19.993	104.411	17.761	175.039	0.492
744.000	444.668	80.004	19.993	104.637	17.645	184.412	0.501
752.000	448.538	80.008	19.993	104.528	17.638	184.866	0.494
760.000	452.542	80.008	19.994	104.529	17.708	179.199	0.515
768.000	456.642	80.006	19.992	104.477	17.890	164.399	0.518
776.000	460.816	80.007	19.993	104.381	18.197	139.797	0.565
784.000	464.883	80.007	19.992	104.244	18.585	108.757	0.523
792.000	468.987	80.006	19.995	104.116	19.006	75.141	0.544
800.000	473.117	80.005	19.993	104.016	19.334	49.058	0.493
808.000	477.359	80.006	19.994	103.913	19.542	32.520	0.537
816.000	481.665	80.005	19.994	103.861	19.670	22.356	0.525
824.000	485.886	80.004	19.995	103.815	19.748	16.102	0.536
832.000	490.149	80.007	19.993	103.800	19.805	11.603	0.525
840.000	494.335	80.007	19.994	103.783	19.834	9.334	0.521
848.000	498.564	80.006	19.993	103.767	19.862	7.119	0.531
856.000	502.734	80.008	19.993	103.745	19.877	5.898	0.531
864.000	506.849	80.008	19.992	103.741	19.883	5.431	0.539
872.000	510.872	80.007	19.993	103.731	19.893	4.655	0.543
880.000	514.912	80.006	19.993	103.712	19.890	4.886	0.489
888.000	518.973	80.007	19.995	103.710	19.892	4.699	0.529
896.000	522.986	80.005	19.994	103.712	19.894	4.577	0.523
904.000	527.005	80.004	19.995	103.715	19.895	4.470	0.499
912.000	531.099	80.006	19.994	103.713	19.896	4.391	0.528
920.000	535.235	80.007	19.994	103.714	19.902	3.872	0.539
928.000	539.190	80.007	19.994	103.715	19.898	4.209	0.341
936.000	543.321	80.006	19.992	103.712	19.892	4.691	0.318
944.000	547.777	80.009	19.993	103.718	19.894	4.543	0.526
952.000	551.567	80.006	19.992	103.706	19.893	4.601	0.475
960.000	555.623	80.005	19.993	103.715	19.897	4.279	0.505
968.000	559.441	80.006	19.994	103.713	19.895	4.436	0.461
976.000	563.347	80.005	19.994	103.714	19.901	4.027	0.457
984.000	567.136	80.006	19.994	103.717	19.896	4.376	0.461
992.000	570.989	80.006	19.993	103.712	19.895	4.425	0.461
1000.000	574.934	80.007	19.995	103.712	19.890	4.872	0.496
1008.000	578.907	80.007	19.995	103.717	19.888	4.980	0.500
1016.000	582.995	80.007	19.992	103.719	19.891	4.766	0.510
1024.000	587.213	80.007	19.993	103.721	19.885	5.246	0.532
1032.000	591.356	80.004	19.994	103.719	19.882	5.475	0.510
1040.000	595.611	80.005	19.993	103.716	19.886	5.216	0.522
1048.000	599.771	80.006	19.993	103.729	19.882	5.483	0.491
1056.000	604.015	80.005	19.992	103.714	19.884	5.299	0.536
1064.000	608.057	80.004	19.994	103.718	19.877	5.885	0.480
1072.000	612.307	80.006	19.993	103.709	19.885	5.247	0.532
1080.000	616.353	80.008	19.993	103.716	19.877	5.877	0.480
1088.000	620.492	80.008	19.994	103.724	19.878	5.777	0.531
1096.000	624.473	80.006	19.994	103.713	19.878	5.799	0.494
1104.000	628.526	80.008	19.994	103.722	19.876	5.931	0.494
1112.000	632.620	80.006	19.993	103.724	19.879	5.727	0.498
1120.000	636.792	80.007	19.994	103.717	19.880	5.618	0.529
1128.000	640.882	80.006	19.994	103.712	19.881	5.539	0.503
1136.000	644.863	80.006	19.994	103.713	19.876	5.972	0.488
1144.000	648.890	80.006	19.993	103.715	19.883	5.423	0.462
1152.000	653.078	80.006	19.995	103.719	19.879	5.693	0.534
1160.000	657.158	80.006	19.993	103.714	19.880	5.629	0.490
1168.000	661.293	80.008	19.993	103.723	19.878	5.773	0.515
1176.000	665.533	80.006	19.993	103.716	19.884	5.318	0.567
1184.000	669.859	80.008	19.994	103.719	19.882	5.472	0.565
1192.000	674.222	80.007	19.994	103.716	19.880	5.665	0.556
1200.000	678.532	80.008	19.994	103.727	19.877	5.865	0.530
1208.000	682.751	80.007	19.994	103.735	19.880	5.681	0.508
1216.000	686.969	80.006	19.993	103.719	19.881	5.543	0.499
1224.000	691.120	80.006	19.994	103.721	19.884	5.349	0.507
1232.000	695.421	80.007	19.993	103.725	19.883	5.389	0.554
1240.000	699.328	80.008	19.993	103.717	19.882	5.519	0.469
1248.000	703.358	80.008	19.993	103.718	19.887	5.108	0.516
1256.000	707.339	80.008	19.994	103.715	19.879	5.719	0.504
1264.000	711.253	80.009	19.993	103.705	19.882	5.483	0.500
1272.000	715.236	80.009	19.993	103.713	19.883	5.422	0.519
1280.000	719.302	80.006	19.995	103.710	19.878	5.826	0.530
1288.000	723.408	80.005	19.994	103.716	19.880	5.669	0.490
1296.000	727.504	80.007	19.994	103.713	19.875	6.040	0.533
1304.000	731.679	80.008	19.993	103.714	19.877	5.886	0.505
1312.000	735.813	80.006	19.994	103.710	19.876	6.003	0.510
1320.000	739.967	80.006	19.994	103.711	19.872	6.325	0.495
1326.500	743.347	80.008	19.992	103.717	19.876	5.948	0.509