Folder: fsri_materials_database/01_Data/Feather_PillowA_Cover/STA/N2/10K_min

Note: 01_Data/README.md
# Materials and Products Database
## 01_Data

Raw data generated from each apparatus are included here in plain-text format. The data is organized first by material, next by the short name of test apparatus used, and where applicable additional filtering by test settings.

### material.json

Each material directory contains a json file of the same name as the material. This file links the data stored in the repository as well as data and graphs produced by the accompanying scripts (__02_Scripts__) to the respective landing page for the material on the front-end website.

File: Feather_Pillow_Cover_STA_N2_10KData_22315_R1.csv
##Temp./Â°C,Time/min,Mass loss(subtr.2)/mg,DSC(subtr.2)/(mW/mg),Sensit./(uV/mW)
49.684,10.00917,-0.01065,0.02052309,1.07018
52.784,11.30919,-0.01108995,0.129,1.06933
55.884,11.7523,-0.006586646,0.18205,1.06846
58.984,12.12997,-0.00922748,0.21578,1.06759
62.084,12.4826,-0.01049235,0.24074,1.0667
65.184,12.82387,-0.01185977,0.2604,1.06581
68.284,13.1592,-0.0131691,0.27826,1.0649
71.384,13.48949,-0.01417725,0.29444,1.06399
74.484,13.81584,-0.01546,0.30759,1.06306
77.584,14.1395,-0.01680031,0.31851,1.06213
80.684,14.4594,-0.01944314,0.3288,1.06118
83.784,14.77733,-0.02040732,0.3341,1.06022
86.884,15.09119,-0.02173361,0.33888,1.05926
89.984,15.40255,-0.02371192,0.3404,1.05828
93.084,15.7119,-0.02502937,0.33641,1.0573
96.184,16.01974,-0.02634954,0.33288,1.0563
99.284,16.32571,-0.02621009,0.32631,1.05529
102.384,16.6306,-0.02997936,0.32332,1.05428
105.484,16.93531,-0.02832753,0.31477,1.05325
108.584,17.23842,-0.03030007,0.31003,1.05221
111.684,17.54036,-0.02998562,0.30648,1.05117
114.784,17.84274,-0.02997,0.3021,1.05011
117.884,18.1445,-0.02996375,0.30186,1.04904
120.984,18.44601,-0.02997009,0.29972,1.04796
124.084,18.7478,-0.02998,0.30092,1.04687
127.184,19.0486,-0.02997,0.30268,1.04577
130.284,19.34796,-0.02897079,0.30622,1.04466
133.384,19.64706,-0.02974997,0.30809,1.04354
136.484,19.9461,-0.03096429,0.30969,1.04241
139.584,20.24598,-0.03096,0.31249,1.04127
142.684,20.54402,-0.03029905,0.31472,1.04012
145.784,20.84261,-0.03029999,0.31975,1.03895
148.884,21.1405,-0.0285501,0.32146,1.03778
151.984,21.43806,-0.03082163,0.32486,1.03659
155.084,21.73463,-0.0314428,0.33171,1.0354
158.184,22.03131,-0.03016868,0.33388,1.03419
161.284,22.3281,-0.03151,0.33845,1.03298
164.384,22.62425,-0.03216359,0.34147,1.03175
167.484,22.92066,-0.03151128,0.34503,1.03051
170.584,23.21696,-0.03184108,0.34762,1.02926
173.684,23.5128,-0.03184,0.35261,1.028
176.784,23.8088,-0.03184209,0.35293,1.02673
179.884,24.10442,-0.03150974,0.35564,1.02545
182.984,24.39992,-0.03283,0.35915,1.02416
186.084,24.69568,-0.03286857,0.36065,1.02285
189.184,24.99115,-0.03323484,0.36422,1.02154
192.284,25.28653,-0.03546637,0.36558,1.02021
195.384,25.58159,-0.03359009,0.36773,1.01887
198.484,25.877,-0.03393,0.37086,1.01753
201.584,26.17114,-0.03492,0.37398,1.01617
204.684,26.46612,-0.03492,0.37523,1.0148
207.784,26.761,-0.03565456,0.37946,1.01342
210.884,27.05613,-0.03558151,0.38175,1.01202
213.984,27.3512,-0.03719884,0.38528,1.01062
217.084,27.64633,-0.03721823,0.38809,1.0092
220.184,27.9411,-0.03983013,0.38955,1.00778
223.284,28.23619,-0.03951187,0.39044,1.00634
226.384,28.5303,-0.04085103,0.39596,1.00489
229.484,28.82565,-0.04084,0.39783,1.00343
232.584,29.1204,-0.04216,0.40091,1.00196
235.684,29.4155,-0.04314535,0.40429,1.00048
238.784,29.7104,-0.04544894,0.40499,0.99898
241.884,30.0061,-0.04676998,0.40732,0.99748
244.984,30.3014,-0.04939978,0.41194,0.99596
248.084,30.59625,-0.0520419,0.41459,0.99443
251.184,30.8915,-0.05522938,0.41536,0.99289
254.284,31.18696,-0.05862602,0.41635,0.99134
257.384,31.4817,-0.06147562,0.4211,0.98977
260.484,31.77688,-0.06488416,0.42371,0.9882
263.584,32.07255,-0.0687729,0.42769,0.98661
266.684,32.3681,-0.07336438,0.43439,0.98501
269.784,32.6638,-0.07805822,0.43823,0.9834
272.884,32.95988,-0.08334931,0.43999,0.98178
275.984,33.25543,-0.08788715,0.43766,0.98015
279.084,33.55148,-0.09518608,0.43894,0.97851
282.184,33.84704,-0.10085,0.44409,0.97685
285.284,34.14288,-0.10968,0.44685,0.97518
288.384,34.439,-0.11813,0.45201,0.9735
291.484,34.73444,-0.12615,0.45737,0.97181
294.584,35.0302,-0.13752,0.46563,0.97011
297.684,35.32577,-0.14735,0.47441,0.96839
300.784,35.62202,-0.16359,0.48692,0.96667
303.884,35.9178,-0.1784,0.49653,0.96493
306.984,36.21416,-0.19581,0.50897,0.96318
310.084,36.51092,-0.21481,0.52429,0.96142
313.184,36.80699,-0.23624,0.54016,0.95965
316.284,37.1038,-0.25952,0.56093,0.95786
319.384,37.4011,-0.2885,0.58487,0.95607
322.484,37.69937,-0.32114,0.61154,0.95426
325.584,37.99688,-0.35909,0.65019,0.95244
328.684,38.2948,-0.40334,0.69262,0.95061
331.784,38.5944,-0.4562,0.74747,0.94876
334.884,38.8928,-0.51779,0.81595,0.94691
337.984,39.19256,-0.59066,0.90708,0.94504
341.084,39.49178,-0.68244,1.01226,0.94316
344.184,39.7915,-0.78846,1.14908,0.94127
347.284,40.0922,-0.91926,1.31563,0.93937
350.384,40.3932,-1.07437,1.50443,0.93745
353.484,40.6952,-1.2675,1.71343,0.93553
356.584,40.99807,-1.48614,1.9207,0.93359
359.684,41.2997,-1.73823,2.09227,0.93164
362.784,41.6021,-2.01114,2.17801,0.92968
365.884,41.90299,-2.28614,2.1313,0.92771
368.984,42.20256,-2.54472,1.93948,0.92573
372.084,42.50116,-2.76775,1.61993,0.92373
375.184,42.79785,-2.94079,1.20632,0.92172
378.284,43.0936,-3.05709,0.7626,0.9197
381.384,43.38912,-3.11959,0.41343,0.91767
384.484,43.68574,-3.1455,0.22921,0.91563
387.584,43.98301,-3.1588,0.15545,0.91358
390.684,44.28159,-3.16391,0.13184,0.91151
393.784,44.58096,-3.17022,0.1253,0.90943
396.884,44.88095,-3.17424,0.11986,0.90734
399.984,45.18205,-3.17809,0.11969,0.90524
403.084,45.4831,-3.18209,0.11852,0.90313
406.184,45.78433,-3.18498,0.11745,0.90101
409.284,46.08582,-3.1892,0.11938,0.89888
412.384,46.38767,-3.19119,0.11676,0.89673
415.484,46.68864,-3.19448,0.11737,0.89457
418.584,46.9904,-3.19886,0.1166,0.8924
421.684,47.2915,-3.20106,0.11839,0.89022
424.784,47.59321,-3.20504,0.11612,0.88803
427.884,47.89521,-3.20765,0.11564,0.88583
430.984,48.19753,-3.2116,0.11773,0.88362
434.084,48.4994,-3.21423,0.12026,0.88139
437.184,48.80283,-3.21683,0.11759,0.87915
440.284,49.10593,-3.21855,0.11971,0.87691
443.384,49.40905,-3.22248,0.1194,0.87465
446.484,49.71321,-3.2248,0.11788,0.87238
449.584,50.01686,-3.22873,0.11876,0.8701
452.684,50.3209,-3.23244,0.11819,0.86781
455.784,50.62468,-3.23334,0.11685,0.8655
458.884,50.92811,-3.23829,0.11719,0.86319
461.984,51.23235,-3.2392,0.11644,0.86087
465.084,51.5364,-3.24193,0.11583,0.85853
468.184,51.8412,-3.24355,0.11505,0.85619
471.284,52.1455,-3.24749,0.11768,0.85383
474.384,52.4503,-3.24882,0.11769,0.85146
477.484,52.75525,-3.25023,0.11715,0.84909
480.584,53.0598,-3.25475,0.11977,0.8467
483.684,53.3646,-3.25402,0.11912,0.8443
486.784,53.6696,-3.25448,0.11806,0.84189
489.884,53.97495,-3.25992,0.11931,0.83947
492.984,54.2803,-3.26177,0.1264,0.83704
496.084,54.58568,-3.26276,0.1284,0.8346
499.184,54.89124,-3.26561,0.12814,0.83215
502.284,55.198,-3.26817,0.13176,0.82969
505.384,55.5039,-3.26794,0.12983,0.82722
508.484,55.80999,-3.27056,0.12748,0.82474
511.584,56.11565,-3.27287,0.12512,0.82225
514.684,56.42267,-3.27451,0.11549,0.81975
517.784,56.72863,-3.27515,0.10638,0.81724
520.884,57.03604,-3.27713,0.10148,0.81472
523.984,57.34264,-3.27773,0.09340168,0.81219
527.084,57.64864,-3.28044,0.09018946,0.80965
530.184,57.9555,-3.28311,0.08832732,0.8071
533.284,58.26243,-3.2834,0.08197494,0.80454
536.384,58.5696,-3.28472,0.07989994,0.80197
539.484,58.8769,-3.28603,0.07491316,0.79939
542.584,59.1844,-3.28777,0.07087872,0.79681
545.684,59.4926,-3.28672,0.07314268,0.79421
548.784,59.79954,-3.28864,0.07078656,0.79161
551.884,60.10819,-3.29098,0.07093113,0.78899
554.984,60.41607,-3.29109,0.07575313,0.78637
558.084,60.72425,-3.29515,0.07640922,0.78374
561.184,61.03298,-3.29411,0.07463689,0.7811
564.284,61.34176,-3.2966,0.07215052,0.77845
567.384,61.6502,-3.298,0.07598847,0.77579
570.484,61.9592,-3.29833,0.07899699,0.77312
573.584,62.2685,-3.29921,0.07224929,0.77045
576.684,62.57809,-3.2979,0.07391427,0.76776
579.784,62.88756,-3.30118,0.07612129,0.76507
582.884,63.1972,-3.30121,0.07387635,0.76237
585.984,63.5068,-3.30119,0.07563619,0.75966
589.084,63.8163,-3.30284,0.07677096,0.75695
592.184,64.12557,-3.30382,0.07799719,0.75422
595.284,64.4352,-3.30382,0.0751187,0.75149
598.384,64.74489,-3.30538,0.08183729,0.74875
601.484,65.05421,-3.30652,0.07934843,0.74601
604.584,65.36443,-3.30908,0.0790944,0.74325
607.684,65.67455,-3.30876,0.08147038,0.74049
610.784,65.9853,-3.31008,0.0857956,0.73772
613.884,66.29698,-3.30942,0.08649724,0.73494
616.984,66.6071,-3.31008,0.09326494,0.73216
620.084,66.917,-3.31073,0.09762546,0.72937
623.184,67.22755,-3.31405,0.096424,0.72657
626.284,67.5377,-3.31185,0.09352034,0.72376
629.384,67.84819,-3.31436,0.09052579,0.72095
632.484,68.15827,-3.31432,0.09309707,0.71813
635.584,68.46944,-3.31568,0.09399486,0.71531
638.684,68.78073,-3.3148,0.09372579,0.71248
641.784,69.0923,-3.316,0.09310294,0.70964
644.884,69.40285,-3.31833,0.09241562,0.7068
647.984,69.71463,-3.317,0.09516821,0.70395
651.084,70.02623,-3.31831,0.09395411,0.70109
654.184,70.33689,-3.31799,0.09462569,0.69823
657.284,70.64811,-3.31897,0.09422728,0.69536
660.384,70.95955,-3.32097,0.09712661,0.69249
663.484,71.27125,-3.31963,0.09910036,0.68961
666.584,71.5827,-3.32094,0.10126,0.68672
669.684,71.89451,-3.32094,0.10299,0.68383
672.784,72.2059,-3.32084,0.10339,0.68094
675.884,72.51652,-3.32293,0.10367,0.67804
678.984,72.82814,-3.32293,0.10749,0.67514
682.084,73.1407,-3.32293,0.10463,0.67223
685.184,73.4526,-3.32292,0.10648,0.66931
688.284,73.76366,-3.32358,0.10376,0.66639
691.384,74.0762,-3.32493,0.11068,0.66347
694.484,74.38905,-3.32359,0.10238,0.66054
697.584,74.7012,-3.32522,0.10143,0.65761
700.684,75.01309,-3.32555,0.09727009,0.65467
703.784,75.32534,-3.32622,0.09686307,0.65173
706.884,75.63767,-3.32641,0.09177793,0.64879
709.984,75.94972,-3.32786,0.09015355,0.64584
713.084,76.26195,-3.32651,0.08711979,0.64288
716.184,76.574,-3.32788,0.08648933,0.63993
719.284,76.887,-3.32787,0.09077503,0.63697
722.384,77.1999,-3.32919,0.09070599,0.63401
725.484,77.51354,-3.33017,0.09241643,0.63104
728.584,77.82741,-3.3292,0.0915202,0.62807
731.684,78.14113,-3.3305,0.09225971,0.6251
734.784,78.45506,-3.33086,0.08484475,0.62213
737.884,78.7684,-3.33083,0.07376872,0.61915
740.984,79.08211,-3.33181,0.06972419,0.61617
744.084,79.39461,-3.33214,0.06291057,0.61319
747.184,79.70841,-3.33314,0.06124601,0.6102
749.984,79.99056,-3.33255,0.05478938,0.60751

File: Feather_Pillow_Cover_STA_N2_10KData_22315_R2.csv
##Temp./Â°C,Time/min,Mass loss(subtr.2)/mg,DSC(subtr.2)/(mW/mg),Sensit./(uV/mW)
49.649,10.01,-0.04018,0.02370262,1.07019
52.749,11.31105,-0.04246847,0.12014,1.06934
55.849,11.75414,-0.04530115,0.16722,1.06847
58.949,12.13183,-0.04563441,0.19844,1.0676
62.049,12.48358,-0.04843896,0.22017,1.06671
65.149,12.82508,-0.04841903,0.23542,1.06582
68.249,13.158,-0.04975086,0.24817,1.06491
71.349,13.49027,-0.05302569,0.26096,1.064
74.449,13.8169,-0.05304333,0.27443,1.06307
77.549,14.1407,-0.05698012,0.28372,1.06214
80.649,14.4609,-0.0582838,0.29351,1.06119
83.749,14.7782,-0.0620977,0.29813,1.06024
86.849,15.09175,-0.06422866,0.2994,1.05927
89.949,15.4031,-0.06685988,0.29842,1.05829
93.049,15.71202,-0.0686718,0.29494,1.05731
96.149,16.0188,-0.0708098,0.28798,1.05631
99.249,16.3243,-0.07213,0.28128,1.05531
102.349,16.62904,-0.0714347,0.27484,1.05429
105.449,16.93212,-0.0732537,0.26688,1.05326
108.549,17.235,-0.07696,0.26323,1.05223
111.649,17.53819,-0.077281,0.25444,1.05118
114.749,17.83987,-0.07827,0.25009,1.05012
117.849,18.14166,-0.07761998,0.24412,1.04905
120.949,18.44345,-0.07872,0.24273,1.04797
124.049,18.74434,-0.0793703,0.24021,1.04688
127.149,19.04492,-0.0793026,0.24034,1.04578
130.249,19.3446,-0.07740803,0.24026,1.04467
133.349,19.6448,-0.07938007,0.24167,1.04355
136.449,19.94377,-0.07905695,0.24464,1.04242
139.549,20.2425,-0.07937,0.24782,1.04128
142.649,20.54062,-0.08070001,0.24728,1.04013
145.749,20.83866,-0.08033815,0.25152,1.03897
148.849,21.13675,-0.0797,0.25216,1.03779
151.949,21.43362,-0.08035797,0.25154,1.03661
155.049,21.73124,-0.07937456,0.25574,1.03541
158.149,22.02832,-0.0807,0.25772,1.03421
161.249,22.326,-0.08071098,0.2591,1.03299
164.349,22.62294,-0.08201001,0.26161,1.03176
167.449,22.91854,-0.08201001,0.26607,1.03053
170.549,23.2155,-0.08101986,0.26886,1.02928
173.649,23.51235,-0.08169677,0.26882,1.02802
176.749,23.80818,-0.08292787,0.27204,1.02675
179.849,24.10405,-0.08432132,0.27177,1.02546
182.949,24.39971,-0.08366,0.27511,1.02417
186.049,24.69473,-0.08233468,0.27779,1.02287
189.149,24.98996,-0.08596,0.27906,1.02155
192.249,25.2854,-0.08464935,0.28195,1.02023
195.349,25.58013,-0.08595986,0.28421,1.01889
198.449,25.8761,-0.08893039,0.2872,1.01754
201.549,26.17148,-0.08926005,0.2906,1.01618
204.649,26.4664,-0.08893,0.29415,1.01481
207.749,26.7621,-0.08875701,0.29852,1.01343
210.849,27.0564,-0.09053244,0.29911,1.01204
213.949,27.35169,-0.0928801,0.30507,1.01064
217.049,27.6465,-0.09418236,0.30901,1.00922
220.149,27.9417,-0.09519005,0.31278,1.00779
223.249,28.23694,-0.09782,0.3136,1.00636
226.349,28.5324,-0.10188,0.31282,1.00491
229.449,28.8278,-0.10451,0.31694,1.00345
232.549,29.1224,-0.10566,0.32207,1.00198
235.649,29.4186,-0.10848,0.32812,1.00049
238.749,29.71343,-0.11288,0.33154,0.999
241.849,30.00885,-0.11802,0.33711,0.99749
244.949,30.3041,-0.12134,0.34508,0.99598
248.049,30.59923,-0.12622,0.35356,0.99445
251.149,30.8944,-0.13285,0.36325,0.99291
254.249,31.18907,-0.13746,0.3708,0.99135
257.349,31.48422,-0.14349,0.37891,0.98979
260.449,31.779,-0.15062,0.38438,0.98822
263.549,32.07448,-0.15581,0.38271,0.98663
266.649,32.3699,-0.1582,0.38351,0.98503
269.749,32.66512,-0.16414,0.3861,0.98342
272.849,32.96115,-0.16794,0.39159,0.9818
275.949,33.2569,-0.17456,0.39728,0.98017
279.049,33.55276,-0.1785,0.40063,0.97852
282.149,33.84884,-0.18636,0.40473,0.97687
285.249,34.14484,-0.19398,0.41145,0.9752
288.349,34.44007,-0.20102,0.4185,0.97352
291.449,34.73642,-0.21044,0.4263,0.97183
294.549,35.03244,-0.22152,0.43337,0.97013
297.649,35.329,-0.23352,0.44322,0.96841
300.749,35.6256,-0.24937,0.45328,0.96669
303.849,35.92183,-0.26241,0.46567,0.96495
306.949,36.21798,-0.27793,0.47788,0.9632
310.049,36.51556,-0.2976,0.49409,0.96144
313.149,36.81252,-0.31965,0.5104,0.95967
316.249,37.10945,-0.34532,0.53629,0.95788
319.349,37.4066,-0.37289,0.55835,0.95609
322.449,37.705,-0.40671,0.58879,0.95428
325.549,38.00315,-0.44498,0.62565,0.95246
328.649,38.30157,-0.48954,0.67218,0.95063
331.749,38.6002,-0.54106,0.73444,0.94878
334.849,38.89947,-0.60721,0.80978,0.94693
337.949,39.19878,-0.68291,0.90388,0.94506
341.049,39.49819,-0.77516,1.01982,0.94318
344.149,39.79869,-0.88544,1.15854,0.94129
347.249,40.0989,-1.01883,1.33191,0.93939
350.349,40.4,-1.1805,1.53336,0.93748
353.449,40.70179,-1.37629,1.7514,0.93555
356.549,41.00378,-1.60405,1.96952,0.93361
359.649,41.30545,-1.86625,2.14121,0.93166
362.749,41.60725,-2.14394,2.20925,0.9297
365.849,41.9076,-2.42276,2.13177,0.92773
368.949,42.20747,-2.67851,1.91867,0.92575
372.049,42.506,-2.90134,1.5929,0.92375
375.149,42.8029,-3.06875,1.16111,0.92174
378.249,43.0995,-3.18082,0.70827,0.91973
381.349,43.39504,-3.23759,0.37404,0.9177
384.449,43.6918,-3.26295,0.2011,0.91565
387.549,43.98993,-3.27549,0.13947,0.9136
390.649,44.2888,-3.28075,0.12212,0.91153
393.749,44.58846,-3.28474,0.11472,0.90946
396.849,44.88865,-3.28868,0.11047,0.90737
399.949,45.18877,-3.29164,0.11069,0.90527
403.049,45.48881,-3.2969,0.10915,0.90316
406.149,45.78909,-3.29954,0.10991,0.90103
409.249,46.08999,-3.30349,0.1055,0.8989
412.349,46.39197,-3.30744,0.10456,0.89675
415.449,46.69426,-3.31055,0.10595,0.8946
418.549,46.99654,-3.31305,0.10282,0.89243
421.649,47.29871,-3.317,0.10882,0.89025
424.749,47.6011,-3.31896,0.11049,0.88806
427.849,47.90475,-3.32293,0.11019,0.88585
430.949,48.20735,-3.32819,0.10783,0.88364
434.049,48.51099,-3.32853,0.10713,0.88142
437.149,48.8136,-3.33381,0.10925,0.87918
440.249,49.11636,-3.33643,0.10825,0.87693
443.349,49.41845,-3.33873,0.10579,0.87467
446.449,49.72228,-3.34335,0.1049,0.8724
449.549,50.0261,-3.34447,0.10328,0.87012
452.649,50.32888,-3.34862,0.10283,0.86783
455.749,50.63285,-3.34993,0.09828546,0.86553
458.849,50.93643,-3.35322,0.09735084,0.86322
461.949,51.2403,-3.35652,0.0965429,0.86089
465.049,51.545,-3.35915,0.0930378,0.85856
468.149,51.8487,-3.36047,0.09345428,0.85621
471.249,52.1531,-3.36315,0.09300948,0.85386
474.349,52.4581,-3.36707,0.09021687,0.85149
477.449,52.7633,-3.36842,0.09031618,0.84911
480.549,53.06814,-3.37068,0.08658633,0.84672
483.649,53.37319,-3.37133,0.08648882,0.84433
486.749,53.67821,-3.3775,0.08671392,0.84192
489.849,53.984,-3.37648,0.08467137,0.8395
492.949,54.2905,-3.37848,0.08413722,0.83707
496.049,54.5954,-3.38111,0.08819523,0.83463
499.149,54.90133,-3.38315,0.08819026,0.83218
502.249,55.20669,-3.38507,0.09383057,0.82972
505.349,55.5128,-3.38605,0.09436994,0.82725
508.449,55.81887,-3.38737,0.09423971,0.82477
511.549,56.12601,-3.38969,0.09331493,0.82227
514.649,56.43206,-3.39002,0.08772242,0.81977
517.749,56.73961,-3.39242,0.07235007,0.81726
520.849,57.0475,-3.39471,0.05879786,0.81474
523.949,57.3552,-3.39598,0.04853759,0.81221
527.049,57.66195,-3.39637,0.04287087,0.80967
530.149,57.9691,-3.39768,0.03814328,0.80713
533.249,58.2755,-3.39895,0.03343798,0.80457
536.349,58.5824,-3.40098,0.03274733,0.802
539.449,58.88915,-3.40098,0.02802604,0.79942
542.549,59.19701,-3.40197,0.0240432,0.79684
545.649,59.50445,-3.40461,0.02470316,0.79424
548.749,59.81219,-3.40592,0.01962873,0.79163
551.849,60.12101,-3.40592,0.01803433,0.78902
554.949,60.4296,-3.40724,0.01713084,0.7864
558.049,60.73791,-3.40922,0.02058213,0.78377
561.149,61.0463,-3.4102,0.01675953,0.78113
564.249,61.35442,-3.41152,0.01966583,0.77848
567.349,61.6631,-3.41254,0.02382045,0.77582
570.449,61.97121,-3.41439,0.02689679,0.77315
573.549,62.27985,-3.41546,0.02811893,0.77048
576.649,62.58863,-3.41654,0.03010372,0.76779
579.749,62.89819,-3.41646,0.02643327,0.7651
582.849,63.2076,-3.41582,0.02797465,0.7624
585.949,63.518,-3.41903,0.0301196,0.75969
589.049,63.8269,-3.4191,0.03297808,0.75698
592.149,64.13611,-3.42171,0.03363965,0.75425
595.249,64.44556,-3.42276,0.03289741,0.75152
598.349,64.75554,-3.42272,0.03518281,0.74878
601.449,65.06509,-3.4214,0.03795385,0.74604
604.549,65.37559,-3.42404,0.04444898,0.74328
607.649,65.68593,-3.42403,0.04183597,0.74052
610.749,65.99643,-3.42498,0.04445074,0.73775
613.849,66.3081,-3.42469,0.0476962,0.73497
616.949,66.61806,-3.42666,0.05317071,0.73219
620.049,66.92828,-3.42766,0.05763281,0.7294
623.149,67.2375,-3.42799,0.05849585,0.7266
626.249,67.54724,-3.427,0.06451302,0.7238
629.349,67.85725,-3.42799,0.06368816,0.72098
632.449,68.16752,-3.42921,0.05901559,0.71817
635.549,68.47844,-3.43168,0.05464138,0.71534
638.649,68.78896,-3.43029,0.05356885,0.71251
641.749,69.10044,-3.43161,0.04973,0.70967
644.849,69.41168,-3.43161,0.04523109,0.70683
647.949,69.72235,-3.43194,0.04424351,0.70398
651.049,70.03376,-3.43227,0.03989864,0.70112
654.149,70.34486,-3.43254,0.04374374,0.69826
657.249,70.65606,-3.43327,0.04508616,0.69539
660.349,70.96655,-3.43552,0.05221145,0.69252
663.449,71.27769,-3.43392,0.0538712,0.68964
666.549,71.58899,-3.43523,0.05264708,0.68676
669.649,71.90012,-3.43457,0.05307057,0.68387
672.749,72.21109,-3.43457,0.05229742,0.68097
675.849,72.52341,-3.43459,0.05141123,0.67807
678.949,72.8355,-3.4347,0.04299363,0.67517
682.049,73.14712,-3.43457,0.04518518,0.67226
685.149,73.45911,-3.43654,0.04020044,0.66934
688.249,73.7705,-3.43523,0.03454753,0.66642
691.349,74.08243,-3.43543,0.02921927,0.6635
694.449,74.39344,-3.43949,0.02776959,0.66057
697.549,74.70551,-3.43546,0.02596989,0.65764
700.649,75.0175,-3.43809,0.01884396,0.6547
703.749,75.3292,-3.43739,0.01617675,0.65176
706.849,75.64231,-3.43809,0.0163596,0.64882
709.949,75.9547,-3.441,0.01807755,0.64587
713.049,76.26776,-3.43875,0.01490013,0.64292
716.149,76.5802,-3.43876,0.008276061,0.63996
719.249,76.89305,-3.43974,0.006504864,0.637
722.349,77.20562,-3.43699,0.006803475,0.63404
725.449,77.5188,-3.44226,0.003815931,0.63108
728.549,77.83113,-3.43832,0.0002753783,0.62811
731.649,78.14365,-3.44028,0.0007004553,0.62514
734.749,78.4567,-3.44296,-0.0006442427,0.62216
737.849,78.76979,-3.4416,-0.002812808,0.61918
740.949,79.0836,-3.44171,-0.004013003,0.6162
744.049,79.39755,-3.44293,-0.002314261,0.61322
747.149,79.71202,-3.44292,-0.007397309,0.61024
749.949,79.99499,-3.44291,-0.00680226,0.60754