Folder: fsri_materials_database/01_Data/Feather_PillowA_Cover/STA/N2/30K_min

Note: 01_Data/README.md
# Materials and Products Database
## 01_Data

Raw data generated from each apparatus are included here in plain-text format. The data is organized first by material, next by the short name of test apparatus used, and where applicable additional filtering by test settings.

### material.json

Each material directory contains a json file of the same name as the material. This file links the data stored in the repository as well as data and graphs produced by the accompanying scripts (__02_Scripts__) to the respective landing page for the material on the front-end website.

File: Feather_Pillow_Cover_STA_N2_30KData_2216_R2.csv
##Temp./Â°C,Time/min,Mass loss(subtr.2)/mg,DSC(subtr.2)/(mW/mg),Sensit./(uV/mW)
48.488,10.00917,-0.05797,0.03353084,1.05402
51.688,10.88395,-0.06125692,0.22883,1.05336
54.888,11.11867,-0.06116913,0.37056,1.05269
58.088,11.29852,-0.061572,0.48968,1.052
61.288,11.45417,-0.06227118,0.58752,1.05128
64.488,11.59503,-0.06214232,0.67187,1.05056
67.688,11.72687,-0.06033683,0.74891,1.04981
70.888,11.853,-0.06545654,0.81909,1.04904
74.088,11.97447,-0.06631405,0.88134,1.04826
77.288,12.0931,-0.06644152,0.93937,1.04745
80.488,12.20882,-0.06880581,0.99159,1.04663
83.688,12.3229,-0.07249404,1.04513,1.04579
86.888,12.43505,-0.07236568,1.08894,1.04493
90.088,12.54583,-0.07212588,1.13001,1.04406
93.288,12.65558,-0.0735524,1.16732,1.04316
96.488,12.76432,-0.07742167,1.19968,1.04225
99.688,12.87237,-0.08013457,1.22393,1.04133
102.888,12.97987,-0.0825057,1.24159,1.04038
106.088,13.0874,-0.08460266,1.25128,1.03942
109.288,13.19426,-0.08673343,1.25723,1.03843
112.488,13.30124,-0.08935167,1.25392,1.03744
115.688,13.4076,-0.09070902,1.2479,1.03642
118.888,13.51348,-0.09067958,1.23976,1.03539
122.088,13.619,-0.092,1.22957,1.03434
125.288,13.72391,-0.09199998,1.21961,1.03327
128.488,13.82869,-0.09331821,1.20935,1.03218
131.688,13.9325,-0.09364538,1.20398,1.03108
134.888,14.03604,-0.09497,1.1993,1.02997
138.088,14.1389,-0.09497002,1.20067,1.02883
141.288,14.2413,-0.09627918,1.20098,1.02768
144.488,14.34356,-0.09763054,1.2069,1.02651
147.688,14.44501,-0.09622808,1.21681,1.02533
150.888,14.5461,-0.09630516,1.22469,1.02413
154.088,14.6473,-0.09759479,1.23534,1.02291
157.288,14.74784,-0.09692363,1.24659,1.02168
160.488,14.8485,-0.09760003,1.25944,1.02043
163.688,14.94869,-0.09890981,1.27046,1.01916
166.888,15.0488,-0.09957,1.28518,1.01788
170.088,15.1485,-0.09956997,1.30017,1.01659
173.288,15.2479,-0.09892607,1.31285,1.01527
176.488,15.3472,-0.10056,1.32631,1.01395
179.688,15.44612,-0.10008,1.33942,1.0126
182.888,15.54466,-0.09853494,1.35143,1.01124
186.088,15.6426,-0.09858968,1.36341,1.00987
189.288,15.74073,-0.1012,1.3756,1.00848
192.488,15.8384,-0.10122,1.39022,1.00707
195.688,15.9359,-0.10122,1.40078,1.00565
198.888,16.0334,-0.10221,1.41091,1.00422
202.088,16.13056,-0.10221,1.42311,1.00277
205.288,16.22774,-0.10221,1.43354,1.0013
208.488,16.32484,-0.10221,1.44316,0.99983
211.688,16.42136,-0.10221,1.45167,0.99833
214.888,16.5187,-0.10254,1.4603,0.99682
218.088,16.6155,-0.10287,1.47032,0.9953
221.288,16.7123,-0.10485,1.47793,0.99376
224.488,16.80893,-0.10561,1.48551,0.99221
227.688,16.90571,-0.10429,1.49693,0.99065
230.888,17.00238,-0.10563,1.5026,0.98907
234.088,17.09871,-0.10759,1.5109,0.98747
237.288,17.19502,-0.1087,1.51906,0.98587
240.488,17.2914,-0.10891,1.52687,0.98424
243.688,17.3876,-0.11016,1.53568,0.98261
246.888,17.48377,-0.11023,1.54461,0.98096
250.088,17.58012,-0.11327,1.5514,0.9793
253.288,17.67632,-0.11549,1.56145,0.97762
256.488,17.7725,-0.11681,1.56891,0.97594
259.688,17.86869,-0.11814,1.58026,0.97423
262.888,17.96473,-0.12219,1.58605,0.97252
266.088,18.06093,-0.1248,1.58561,0.97079
269.288,18.15715,-0.12883,1.59185,0.96905
272.488,18.2536,-0.13049,1.59991,0.9673
275.688,18.3497,-0.13414,1.6085,0.96553
278.888,18.44613,-0.13581,1.61933,0.96375
282.088,18.54239,-0.14148,1.63129,0.96196
285.288,18.63871,-0.1475,1.64384,0.96016
288.488,18.7353,-0.15264,1.65531,0.95834
291.688,18.83176,-0.15662,1.66867,0.95652
294.888,18.9281,-0.16258,1.68077,0.95468
298.088,19.0247,-0.16941,1.69626,0.95282
301.288,19.12141,-0.17476,1.71004,0.95096
304.488,19.21796,-0.18302,1.72347,0.94908
307.688,19.31478,-0.19242,1.74248,0.9472
310.888,19.4113,-0.20162,1.75673,0.9453
314.088,19.50805,-0.21212,1.77855,0.94339
317.288,19.6049,-0.22255,1.80254,0.94147
320.488,19.70172,-0.23611,1.82893,0.93953
323.688,19.79872,-0.25076,1.85824,0.93759
326.888,19.89561,-0.26752,1.89403,0.93563
330.088,19.99265,-0.28671,1.93201,0.93367
333.288,20.0898,-0.30717,1.98222,0.93169
336.488,20.18694,-0.33237,2.03817,0.9297
339.688,20.28399,-0.36265,2.10799,0.9277
342.888,20.3819,-0.39486,2.19565,0.92569
346.088,20.47937,-0.43262,2.3037,0.92367
349.288,20.57711,-0.47783,2.44198,0.92164
352.488,20.67492,-0.5348,2.61508,0.9196
355.688,20.77284,-0.59904,2.82857,0.91755
358.888,20.8713,-0.67717,3.09353,0.91549
362.088,20.96945,-0.77071,3.41506,0.91342
365.288,21.0683,-0.88528,3.79836,0.91134
368.488,21.16723,-1.02303,4.24454,0.90925
371.688,21.26616,-1.18319,4.74476,0.90715
374.888,21.36552,-1.37661,5.28295,0.90504
378.088,21.46542,-1.59616,5.81256,0.90292
381.288,21.56537,-1.86403,6.27083,0.90079
384.488,21.66552,-2.13441,6.56878,0.89865
387.688,21.76494,-2.40948,6.61375,0.8965
390.888,21.86543,-2.68218,6.34441,0.89434
394.088,21.96467,-2.92652,5.73958,0.89218
397.288,22.06354,-3.12892,4.7908,0.89
400.488,22.16171,-3.2807,3.58595,0.88782
403.688,22.25935,-3.37936,2.40573,0.88563
406.888,22.35644,-3.42585,1.54644,0.88342
410.088,22.4534,-3.44332,1.06216,0.88121
413.288,22.55095,-3.45254,0.82689,0.879
416.488,22.6489,-3.45838,0.71321,0.87677
419.688,22.74737,-3.46371,0.66276,0.87454
422.888,22.84579,-3.46739,0.63771,0.87229
426.088,22.94475,-3.47166,0.62192,0.87004
429.288,23.04385,-3.47572,0.61195,0.86778
432.488,23.14331,-3.4787,0.60079,0.86551
435.688,23.24278,-3.48146,0.58887,0.86324
438.888,23.3426,-3.48526,0.57565,0.86096
442.088,23.4423,-3.48807,0.56892,0.85867
445.288,23.54233,-3.49209,0.56189,0.85637
448.488,23.64262,-3.49328,0.55495,0.85406
451.688,23.74297,-3.49587,0.5511,0.85175
454.888,23.84326,-3.50001,0.55251,0.84943
458.088,23.94395,-3.50401,0.55042,0.8471
461.288,24.04479,-3.50676,0.54964,0.84477
464.488,24.14549,-3.51017,0.54825,0.84243
467.688,24.24624,-3.51218,0.5465,0.84008
470.888,24.3473,-3.51543,0.5437,0.83773
474.088,24.449,-3.5179,0.54487,0.83537
477.288,24.55044,-3.52052,0.54181,0.833
480.488,24.65184,-3.52314,0.54185,0.83062
483.688,24.75347,-3.52448,0.53973,0.82824
486.888,24.85531,-3.52713,0.53791,0.82586
490.088,24.95699,-3.52999,0.53331,0.82346
493.288,25.05878,-3.53239,0.53154,0.82106
496.488,25.16081,-3.53514,0.52804,0.81866
499.688,25.2627,-3.5378,0.52332,0.81625
502.888,25.3646,-3.54042,0.51904,0.81383
506.088,25.46661,-3.54246,0.51828,0.81141
509.288,25.56885,-3.54434,0.51615,0.80898
512.488,25.6711,-3.5462,0.5135,0.80654
515.688,25.77359,-3.54831,0.51715,0.8041
518.888,25.87575,-3.55102,0.5172,0.80166
522.088,25.97854,-3.55122,0.51331,0.79921
525.288,26.081,-3.55358,0.51261,0.79675
528.488,26.18398,-3.55491,0.51232,0.79429
531.688,26.2867,-3.55669,0.51043,0.79183
534.888,26.3895,-3.56016,0.5086,0.78936
538.088,26.4927,-3.56016,0.50228,0.78688
541.288,26.59569,-3.56148,0.50457,0.7844
544.488,26.6987,-3.56279,0.50776,0.78191
547.688,26.8017,-3.56412,0.51467,0.77942
550.888,26.9051,-3.56577,0.51396,0.77693
554.088,27.0083,-3.56949,0.51447,0.77443
557.288,27.11153,-3.5692,0.51744,0.77193
560.488,27.21482,-3.57021,0.51799,0.76942
563.688,27.31878,-3.57191,0.5162,0.76691
566.888,27.4224,-3.57389,0.50916,0.76439
570.088,27.5262,-3.57508,0.50322,0.76187
573.288,27.63027,-3.57653,0.49036,0.75935
576.488,27.73442,-3.5775,0.48258,0.75682
579.688,27.83855,-3.57883,0.47512,0.75429
582.888,27.94247,-3.57781,0.46688,0.75176
586.088,28.04702,-3.58164,0.46032,0.74922
589.288,28.15148,-3.58181,0.45728,0.74668
592.488,28.2557,-3.58301,0.45166,0.74413
595.688,28.36038,-3.58575,0.4489,0.74158
598.888,28.4649,-3.58706,0.44337,0.73903
602.088,28.5695,-3.58739,0.43921,0.73648
605.288,28.6742,-3.58739,0.4365,0.73392
608.488,28.7789,-3.58739,0.43563,0.73136
611.688,28.8837,-3.59002,0.43409,0.72879
614.888,28.98852,-3.59002,0.4318,0.72623
618.088,29.0936,-3.59002,0.43136,0.72366
621.288,29.1985,-3.59131,0.43433,0.72108
624.488,29.30364,-3.59402,0.43454,0.71851
627.688,29.4085,-3.59529,0.43365,0.71593
630.888,29.51355,-3.59302,0.43419,0.71335
634.088,29.6184,-3.59574,0.43339,0.71077
637.288,29.72372,-3.59705,0.4371,0.70819
640.488,29.82897,-3.59945,0.44072,0.7056
643.688,29.9339,-3.5998,0.44619,0.70301
646.888,30.03902,-3.59915,0.44558,0.70042
650.088,30.14394,-3.60109,0.45035,0.69783
653.288,30.2491,-3.59935,0.4516,0.69523
656.488,30.35427,-3.60022,0.44576,0.69264
659.688,30.4597,-3.6027,0.44526,0.69004
662.888,30.5649,-3.60331,0.44217,0.68744
666.088,30.6702,-3.60463,0.4388,0.68484
669.288,30.77532,-3.60463,0.44125,0.68223
672.488,30.88105,-3.6046,0.44399,0.67963
675.688,30.98637,-3.60397,0.44357,0.67703
678.888,31.09197,-3.60539,0.45081,0.67442
682.088,31.19776,-3.60895,0.44968,0.67181
685.288,31.3034,-3.60627,0.44954,0.6692
688.488,31.40895,-3.60627,0.45105,0.66659
691.688,31.51466,-3.60758,0.45243,0.66398
694.888,31.6204,-3.60894,0.4514,0.66137
698.088,31.72605,-3.61022,0.45016,0.65876
701.288,31.83195,-3.60889,0.45374,0.65615
704.488,31.9379,-3.60814,0.45541,0.65353
707.688,32.0439,-3.60903,0.45752,0.65092
710.888,32.14993,-3.60891,0.45971,0.6483
714.088,32.256,-3.60904,0.4632,0.64569
717.288,32.36235,-3.61024,0.46609,0.64307
720.488,32.46863,-3.61156,0.46485,0.64046
723.688,32.57493,-3.61385,0.4618,0.63784
726.888,32.68105,-3.61253,0.46286,0.63523
730.088,32.78771,-3.61439,0.4671,0.63261
733.288,32.89413,-3.61681,0.46308,0.62999
736.488,33.0006,-3.61685,0.46585,0.62738
739.688,33.1072,-3.6168,0.46121,0.62476
742.888,33.21382,-3.6155,0.46542,0.62215
746.088,33.32049,-3.61419,0.46036,0.61953
749.288,33.4271,-3.6168,0.46324,0.61692
752.488,33.53371,-3.61549,0.46157,0.6143
755.688,33.64052,-3.61547,0.46407,0.61169
758.888,33.74709,-3.61681,0.46009,0.60908
762.088,33.85392,-3.61817,0.45987,0.60647
765.288,33.9607,-3.61813,0.46335,0.60385
768.488,34.0674,-3.61878,0.46562,0.60124
771.688,34.17415,-3.6201,0.4682,0.59863
774.888,34.28098,-3.61943,0.46604,0.59602
778.088,34.38762,-3.61813,0.46549,0.59342
781.288,34.49459,-3.61948,0.46788,0.59081
784.488,34.60137,-3.62076,0.46644,0.58821
787.688,34.7085,-3.61943,0.4698,0.5856
790.888,34.8155,-3.62076,0.47149,0.583
794.088,34.9226,-3.62208,0.46946,0.5804
796.288,34.9963,-3.62348,0.47284,0.57861

File: Feather_Pillow_Cover_STA_N2_30KData_2226_R3.csv
##Temp./Â°C,Time/min,Mass loss(subtr.2)/mg,DSC(subtr.2)/(mW/mg),Sensit./(uV/mW)
48.525,10.00917,-0.00658,0.02358389,1.05401
51.725,10.88296,-0.004318535,0.19033,1.05336
54.925,11.1174,-0.003531238,0.30862,1.05268
58.125,11.2976,-0.00266682,0.40559,1.05199
61.325,11.45299,-0.002895778,0.48703,1.05128
64.525,11.5937,-0.00461777,0.55756,1.05055
67.725,11.72558,-0.004539655,0.62355,1.0498
70.925,11.85175,-0.005842825,0.68222,1.04903
74.125,11.97304,-0.005472104,0.73802,1.04825
77.325,12.09189,-0.006965138,0.78956,1.04744
80.525,12.20795,-0.007812895,0.8367,1.04662
83.725,12.32189,-0.009553824,0.88175,1.04578
86.925,12.43417,-0.01026909,0.92497,1.04492
90.125,12.54429,-0.01143146,0.96485,1.04405
93.325,12.65435,-0.01284393,0.99773,1.04315
96.525,12.76324,-0.01522641,1.02893,1.04224
99.725,12.87134,-0.01548007,1.05048,1.04131
102.925,12.97913,-0.0184372,1.0649,1.04037
106.125,13.08636,-0.01940238,1.07377,1.0394
109.325,13.1929,-0.01975193,1.07417,1.03842
112.525,13.2998,-0.0227765,1.0725,1.03742
115.725,13.4065,-0.02337997,1.06737,1.03641
118.925,13.5124,-0.02470049,1.05693,1.03537
122.125,13.61781,-0.02601188,1.04637,1.03432
125.325,13.7231,-0.02601971,1.03518,1.03326
128.525,13.8274,-0.02733247,1.02405,1.03217
131.725,13.9316,-0.02602171,1.01385,1.03107
134.925,14.03465,-0.02731837,1.00823,1.02995
138.125,14.13807,-0.02774226,1.00623,1.02882
141.325,14.2407,-0.02733003,1.00574,1.02767
144.525,14.3427,-0.02733,1.01089,1.0265
147.725,14.4442,-0.02733608,1.01765,1.02531
150.925,14.54551,-0.02732991,1.0243,1.02411
154.125,14.64644,-0.02733038,1.0346,1.0229
157.325,14.74699,-0.02699955,1.04649,1.02166
160.525,14.8474,-0.02699477,1.05639,1.02041
163.725,14.9477,-0.02700052,1.06785,1.01915
166.925,15.04754,-0.027,1.08172,1.01787
170.125,15.147,-0.027,1.09351,1.01657
173.325,15.24651,-0.02699999,1.10647,1.01526
176.525,15.34579,-0.02881756,1.11701,1.01393
179.725,15.4445,-0.02798605,1.13047,1.01259
182.925,15.54284,-0.02799,1.14336,1.01123
186.125,15.641,-0.02799,1.15532,1.00985
189.325,15.739,-0.02799668,1.16777,1.00846
192.525,15.83668,-0.02700001,1.17519,1.00706
195.725,15.9341,-0.02832651,1.18561,1.00564
198.925,16.03181,-0.02820533,1.19501,1.0042
202.125,16.129,-0.027,1.20403,1.00275
205.325,16.2263,-0.0274242,1.21637,1.00129
208.525,16.32329,-0.02832001,1.22405,0.99981
211.725,16.42024,-0.02964368,1.23328,0.99831
214.925,16.5172,-0.02828189,1.24182,0.99681
218.125,16.61409,-0.02942016,1.25063,0.99528
221.325,16.71088,-0.03040989,1.25664,0.99375
224.525,16.80753,-0.0304099,1.26602,0.99219
227.725,16.9043,-0.03124029,1.27268,0.99063
230.925,17.00076,-0.03269064,1.28188,0.98905
234.125,17.09733,-0.03303997,1.29114,0.98745
237.325,17.19369,-0.03161365,1.29629,0.98585
240.525,17.2901,-0.03325217,1.30422,0.98423
243.725,17.38641,-0.03458178,1.31214,0.98259
246.925,17.48283,-0.03589144,1.32472,0.98094
250.125,17.57904,-0.03764162,1.33147,0.97928
253.325,17.67512,-0.03904726,1.34299,0.9776
256.525,17.77133,-0.03913217,1.35054,0.97592
259.725,17.8675,-0.04242741,1.35943,0.97421
262.925,17.96366,-0.04525388,1.36743,0.9725
266.125,18.05961,-0.04620621,1.3715,0.97077
269.325,18.15594,-0.04811669,1.37608,0.96903
272.525,18.25209,-0.05112278,1.38028,0.96728
275.725,18.34816,-0.0527421,1.38813,0.96551
278.925,18.44443,-0.05802632,1.3975,0.96373
282.125,18.5408,-0.06221035,1.407,0.96194
285.325,18.63707,-0.06546493,1.41667,0.96014
288.525,18.73331,-0.06952383,1.42828,0.95832
291.725,18.82969,-0.07427196,1.44055,0.95649
294.925,18.92612,-0.08009622,1.45053,0.95465
298.125,19.0225,-0.08589575,1.46227,0.9528
301.325,19.11916,-0.09275963,1.47732,0.95094
304.525,19.21564,-0.09911394,1.49346,0.94906
307.725,19.31219,-0.10664,1.50739,0.94717
310.925,19.4088,-0.11589,1.52282,0.94528
314.125,19.50546,-0.1254,1.54151,0.94337
317.325,19.60217,-0.13704,1.56291,0.94144
320.525,19.6991,-0.14984,1.5889,0.93951
323.725,19.796,-0.16291,1.61648,0.93757
326.925,19.893,-0.17756,1.65108,0.93561
330.125,19.99012,-0.19576,1.68629,0.93364
333.325,20.08717,-0.21387,1.73533,0.93167
336.525,20.18444,-0.24144,1.79105,0.92968
339.725,20.28169,-0.26868,1.86069,0.92768
342.925,20.37894,-0.30127,1.95101,0.92567
346.125,20.47661,-0.33926,2.05697,0.92365
349.325,20.57424,-0.38273,2.19391,0.92162
352.525,20.67205,-0.43529,2.36342,0.91958
355.725,20.77032,-0.49833,2.5808,0.91753
358.925,20.8683,-0.57343,2.84532,0.91547
362.125,20.96679,-0.66593,3.16704,0.91339
365.325,21.0653,-0.77562,3.54963,0.91131
368.525,21.1641,-0.91085,3.99831,0.90922
371.725,21.26285,-1.06517,4.49751,0.90712
374.925,21.3625,-1.25722,5.0389,0.90501
378.125,21.4621,-1.47107,5.56642,0.90289
381.325,21.56179,-1.72756,6.01739,0.90076
384.525,21.66181,-1.99474,6.29671,0.89862
387.725,21.76166,-2.26299,6.3174,0.89648
390.925,21.86115,-2.52363,6.02175,0.89432
394.125,21.9604,-2.76376,5.37759,0.89215
397.325,22.0591,-2.95337,4.36566,0.88998
400.525,22.1569,-3.09846,3.11969,0.88779
403.725,22.25437,-3.18474,1.95303,0.8856
406.925,22.35146,-3.22494,1.15457,0.8834
410.125,22.4485,-3.241,0.72097,0.88119
413.325,22.5461,-3.24726,0.51089,0.87897
416.525,22.64408,-3.25346,0.4119,0.87674
419.725,22.74232,-3.25769,0.36361,0.87451
422.925,22.84091,-3.26226,0.34168,0.87227
426.125,22.93984,-3.26573,0.32963,0.87001
429.325,23.03908,-3.26955,0.31973,0.86776
432.525,23.13816,-3.27164,0.31403,0.86549
435.725,23.23761,-3.27428,0.30864,0.86321
438.925,23.3379,-3.27877,0.30245,0.86093
442.125,23.4377,-3.28141,0.30132,0.85864
445.325,23.53787,-3.28404,0.29445,0.85634
448.525,23.6381,-3.2869,0.29045,0.85404
451.725,23.73842,-3.29084,0.28633,0.85172
454.925,23.83899,-3.29217,0.28409,0.8494
458.125,23.93975,-3.29481,0.28303,0.84708
461.325,24.04024,-3.29864,0.27689,0.84474
464.525,24.14124,-3.30154,0.27612,0.8424
467.725,24.24249,-3.30457,0.27147,0.84006
470.925,24.34347,-3.30679,0.2685,0.8377
474.125,24.4448,-3.30975,0.26257,0.83534
477.325,24.54622,-3.31158,0.25988,0.83297
480.525,24.6477,-3.31465,0.25788,0.8306
483.725,24.74917,-3.31644,0.25581,0.82822
486.925,24.8508,-3.31908,0.2533,0.82583
490.125,24.95251,-3.32159,0.25354,0.82344
493.325,25.05436,-3.32301,0.2477,0.82104
496.525,25.1563,-3.32566,0.245,0.81863
499.725,25.25832,-3.3283,0.24315,0.81622
502.925,25.3604,-3.33099,0.24378,0.8138
506.125,25.4622,-3.33118,0.24207,0.81138
509.325,25.56464,-3.33386,0.24104,0.80895
512.525,25.66705,-3.33622,0.23943,0.80652
515.725,25.76942,-3.33751,0.2421,0.80408
518.925,25.87181,-3.33942,0.24459,0.80163
522.125,25.97423,-3.34147,0.24829,0.79918
525.325,26.07686,-3.34277,0.24624,0.79672
528.525,26.17944,-3.3441,0.24843,0.79426
531.725,26.2822,-3.34605,0.24701,0.7918
534.925,26.3849,-3.34675,0.24606,0.78933
538.125,26.4879,-3.34905,0.24496,0.78685
541.325,26.5908,-3.34988,0.25109,0.78437
544.525,26.6938,-3.35028,0.26489,0.78189
547.725,26.7966,-3.35168,0.27233,0.7794
550.925,26.9,-3.353,0.28215,0.7769
554.125,27.00317,-3.35529,0.28228,0.7744
557.325,27.1066,-3.35565,0.29154,0.7719
560.525,27.21005,-3.35961,0.29691,0.76939
563.725,27.31353,-3.361,0.30133,0.76688
566.925,27.41713,-3.36221,0.30494,0.76436
570.125,27.52088,-3.3609,0.30684,0.76184
573.325,27.62469,-3.36224,0.30405,0.75932
576.525,27.7285,-3.36354,0.29738,0.75679
579.725,27.8327,-3.36491,0.29111,0.75426
582.925,27.9368,-3.36485,0.28393,0.75173
586.125,28.041,-3.36485,0.27762,0.74919
589.325,28.1453,-3.36748,0.27213,0.74665
592.525,28.24963,-3.36749,0.26339,0.7441
595.725,28.35408,-3.3689,0.25873,0.74155
598.925,28.45852,-3.36881,0.2516,0.739
602.125,28.5633,-3.37031,0.24462,0.73645
605.325,28.6681,-3.37012,0.24206,0.73389
608.525,28.7727,-3.37009,0.23717,0.73133
611.725,28.8776,-3.37312,0.23572,0.72876
614.925,28.9825,-3.3719,0.22882,0.7262
618.125,29.0876,-3.37308,0.22512,0.72363
621.325,29.19251,-3.37441,0.22273,0.72105
624.525,29.2973,-3.37571,0.22082,0.71848
627.725,29.40264,-3.37601,0.21896,0.7159
630.925,29.5076,-3.37705,0.21213,0.71332
634.125,29.6128,-3.3777,0.21296,0.71074
637.325,29.71807,-3.37734,0.21216,0.70816
640.525,29.8231,-3.37967,0.21653,0.70557
643.725,29.9283,-3.37965,0.21549,0.70298
646.925,30.03384,-3.381,0.22036,0.70039
650.125,30.13904,-3.381,0.22114,0.6978
653.325,30.24445,-3.38101,0.2202,0.6952
656.525,30.34965,-3.38334,0.21804,0.69261
659.725,30.45478,-3.38297,0.21578,0.69001
662.925,30.5602,-3.38429,0.20672,0.68741
666.125,30.66573,-3.38429,0.20229,0.68481
669.325,30.77105,-3.38495,0.19878,0.6822
672.525,30.8767,-3.38495,0.19887,0.6796
675.725,30.982,-3.38475,0.20118,0.677
678.925,31.08778,-3.38627,0.20144,0.67439
682.125,31.1933,-3.38626,0.20111,0.67178
685.325,31.29887,-3.38626,0.20287,0.66917
688.525,31.40468,-3.38758,0.20456,0.66656
691.725,31.51052,-3.38856,0.20445,0.66395
694.925,31.6163,-3.38825,0.21076,0.66134
698.125,31.72208,-3.38819,0.21418,0.65873
701.325,31.82807,-3.38889,0.21656,0.65612
704.525,31.93388,-3.3889,0.21902,0.6535
707.725,32.03976,-3.39021,0.21861,0.65089
710.925,32.14597,-3.39088,0.21853,0.64827
714.125,32.25169,-3.39216,0.22196,0.64566
717.325,32.35823,-3.39153,0.22092,0.64304
720.525,32.46438,-3.39021,0.2187,0.64043
723.725,32.57079,-3.39285,0.21915,0.63781
726.925,32.67722,-3.39258,0.21601,0.6352
730.125,32.78355,-3.39285,0.22439,0.63258
733.325,32.8902,-3.39292,0.22262,0.62996
736.525,32.99643,-3.39417,0.22143,0.62735
739.725,33.10309,-3.39417,0.21974,0.62473
742.925,33.20943,-3.39416,0.22191,0.62212
746.125,33.31615,-3.39548,0.2212,0.6195
749.325,33.42269,-3.39416,0.21993,0.61689
752.525,33.5294,-3.39416,0.22039,0.61427
755.725,33.63615,-3.39548,0.22209,0.61166
758.925,33.74304,-3.39548,0.21701,0.60905
762.125,33.84977,-3.39549,0.21437,0.60644
765.325,33.95681,-3.39549,0.21351,0.60382
768.525,34.06366,-3.39585,0.2102,0.60121
771.725,34.17064,-3.39548,0.21003,0.5986
774.925,34.27767,-3.3968,0.21065,0.59599
778.125,34.38467,-3.39745,0.2072,0.59339
781.325,34.49173,-3.39682,0.20842,0.59078
784.525,34.5987,-3.39812,0.20549,0.58818
787.725,34.70562,-3.39582,0.20621,0.58557
790.925,34.8132,-3.39788,0.20787,0.58297
794.125,34.92033,-3.39845,0.20275,0.58037
796.425,34.99725,-3.39977,0.20509,0.5785