Folder: fsri_materials_database/01_Data/Polyester_Bed_Skirt/STA/N2/10K_min (part 2)

File: Polyester_Bed_Skirt_STA_N2_10KData_220525_R3.csv
##Temp./Â°C,Time/min,Mass loss(subtr.2)/mg,DSC(subtr.2)/(mW/mg),Sensit./(uV/mW)
49.844,10.01,0.0122,-0.008512657,1.07014
52.744,11.278,0.01200566,0.08892028,1.06934
55.644,11.70346,0.01222648,0.13259,1.06853
58.544,12.06165,0.01258989,0.15719,1.06771
61.444,12.39516,0.01445623,0.17167,1.06689
64.344,12.7171,0.01372849,0.18437,1.06605
67.244,13.03081,0.01240717,0.19262,1.06521
70.144,13.34167,0.01371549,0.20162,1.06435
73.044,13.649,0.01241,0.19981,1.06349
75.944,13.95309,0.01464109,0.19438,1.06262
78.844,14.2546,0.01454393,0.18445,1.06174
81.744,14.5534,0.0150399,0.17944,1.06085
84.644,14.84917,0.01370105,0.17792,1.05996
87.544,15.14243,0.01505209,0.1753,1.05905
90.444,15.43304,0.01525392,0.17211,1.05814
93.344,15.7229,0.01485099,0.17,1.05721
96.244,16.01095,0.01428058,0.17249,1.05628
99.144,16.29738,0.01539605,0.17526,1.05534
102.044,16.58236,0.01699433,0.18074,1.05439
104.944,16.86636,0.01561991,0.18724,1.05343
107.844,17.15096,0.01559876,0.19353,1.05246
110.744,17.43425,0.01427012,0.20151,1.05148
113.644,17.7177,0.0156,0.21008,1.0505
116.544,18.0,0.0156,0.21483,1.0495
119.444,18.28346,0.01559026,0.22189,1.0485
122.344,18.56549,0.01493043,0.22805,1.04748
125.244,18.84739,0.01625903,0.23813,1.04646
128.144,19.1289,0.01624963,0.24423,1.04543
131.044,19.40943,0.01624993,0.25098,1.04439
133.944,19.69015,0.01624947,0.25629,1.04334
136.844,19.97006,0.01626358,0.25839,1.04228
139.744,20.2501,0.0162503,0.26431,1.04121
142.644,20.52875,0.01393831,0.26726,1.04013
145.544,20.808,0.01527,0.26956,1.03904
148.444,21.08608,0.01526815,0.27381,1.03795
151.344,21.36447,0.01483622,0.27553,1.03684
154.244,21.64295,0.0161411,0.27887,1.03572
157.144,21.9202,0.01350997,0.28195,1.0346
160.044,22.1985,0.01516086,0.28518,1.03346
162.944,22.47622,0.0148354,0.28801,1.03232
165.844,22.75367,0.01451745,0.29202,1.03117
168.744,23.0305,0.01581,0.29615,1.03
171.644,23.30763,0.01446127,0.29763,1.02883
174.544,23.584,0.015809,0.30152,1.02765
177.444,23.86024,0.01450026,0.30136,1.02646
180.344,24.13703,0.01476282,0.30458,1.02526
183.244,24.41412,0.01602001,0.30697,1.02405
186.144,24.69097,0.01581539,0.3089,1.02283
189.044,24.9674,0.01483508,0.30837,1.0216
191.944,25.2436,0.01614,0.31326,1.02036
194.844,25.51908,0.01449999,0.31474,1.01911
197.744,25.79567,0.01549,0.32162,1.01785
200.644,26.0718,0.01549066,0.32406,1.01658
203.544,26.3475,0.01548,0.3281,1.0153
206.444,26.62335,0.01548,0.32948,1.01401
209.344,26.89943,0.01581043,0.33468,1.01272
212.244,27.1751,0.01716308,0.33741,1.01141
215.144,27.45213,0.01581959,0.34029,1.01009
218.044,27.7282,0.01582,0.34397,1.00876
220.944,28.00402,0.0158195,0.34991,1.00743
223.844,28.2794,0.01583124,0.35352,1.00608
226.744,28.5553,0.01713669,0.3608,1.00472
229.644,28.8311,0.0148354,0.36642,1.00335
232.544,29.10695,0.01481717,0.37711,1.00198
235.444,29.38297,0.01547632,0.38912,1.00059
238.344,29.6594,0.01420934,0.40457,0.99919
241.244,29.9356,0.01417017,0.42934,0.99779
244.144,30.21152,0.01427672,0.46174,0.99637
247.044,30.4878,0.01516,0.51393,0.99494
249.944,30.764,0.0161512,0.60054,0.99351
252.844,31.04082,0.01451426,0.76732,0.99206
255.744,31.31915,0.01514526,1.06674,0.9906
258.644,31.5981,0.01516145,1.20993,0.98913
261.544,31.8758,0.01449307,0.9079,0.98766
264.444,32.15061,0.01350999,0.60513,0.98617
267.344,32.4249,0.01351,0.46375,0.98467
270.244,32.69986,0.01383116,0.40792,0.98316
273.144,32.97448,0.01350133,0.38913,0.98165
276.044,33.2507,0.01285213,0.37877,0.98012
278.944,33.52642,0.01384,0.37552,0.97858
281.844,33.8028,0.01220994,0.37348,0.97703
284.744,34.07942,0.01285,0.37395,0.97547
287.644,34.3554,0.01152985,0.37459,0.97391
290.544,34.63223,0.01018722,0.3744,0.97233
293.444,34.90892,0.01054323,0.37496,0.97074
296.344,35.18582,0.01183845,0.37745,0.96914
299.244,35.46334,0.01053395,0.37626,0.96753
302.144,35.7408,0.009220036,0.3759,0.96591
305.044,36.01827,0.01119778,0.375,0.96428
307.944,36.2955,0.008901021,0.37805,0.96264
310.844,36.5732,0.008900009,0.37747,0.96099
313.744,36.85037,0.0085699,0.37782,0.95933
316.644,37.12755,0.00839936,0.37877,0.95765
319.544,37.40463,0.007903766,0.37983,0.95597
322.444,37.68255,0.009230109,0.3806,0.95428
325.344,37.96031,0.00758,0.38312,0.95258
328.244,38.23888,0.005267706,0.38193,0.95087
331.144,38.51791,0.00725,0.38013,0.94914
334.044,38.79633,0.00725,0.3816,0.94741
336.944,39.0753,0.00724999,0.38269,0.94567
339.844,39.35417,0.0072988,0.38393,0.94391
342.744,39.63234,0.00558481,0.38852,0.94215
345.644,39.91198,0.003300001,0.39173,0.94038
348.544,40.1918,0.002979207,0.39365,0.93859
351.444,40.4713,0.00259816,0.39868,0.9368
354.344,40.75094,0.002648962,0.40188,0.93499
357.244,41.03035,0.001980018,0.40673,0.93318
360.144,41.31094,-0.0003202718,0.41183,0.93135
363.044,41.59036,-0.00163949,0.41689,0.92952
365.944,41.87053,-0.004272071,0.42365,0.92767
368.844,42.15098,-0.00691333,0.43149,0.92582
371.744,42.43135,-0.008206817,0.43933,0.92395
374.644,42.7123,-0.01218008,0.44373,0.92207
377.544,42.99366,-0.0161662,0.45065,0.92019
380.444,43.27458,-0.02272581,0.45627,0.91829
383.344,43.5554,-0.0303339,0.46097,0.91638
386.244,43.8361,-0.03928649,0.4671,0.91446
389.144,44.11745,-0.05123836,0.47602,0.91254
392.044,44.39909,-0.0708605,0.48934,0.9106
394.944,44.6814,-0.09000445,0.49929,0.90865
397.844,44.96318,-0.11533,0.51067,0.9067
400.744,45.24575,-0.14708,0.52883,0.90473
403.644,45.52756,-0.18589,0.54521,0.90275
406.544,45.80963,-0.23025,0.55559,0.90076
409.444,46.09247,-0.2851,0.58306,0.89876
412.344,46.37484,-0.35152,0.61764,0.89676
415.244,46.6573,-0.4304,0.67843,0.89474
418.144,46.94014,-0.52799,0.68522,0.89271
421.044,47.22357,-0.64013,0.75462,0.89067
423.944,47.50731,-0.77234,0.80439,0.88863
426.844,47.7913,-0.93305,0.88805,0.88657
429.744,48.07454,-1.11331,0.88532,0.8845
432.644,48.3591,-1.31419,0.89104,0.88243
435.544,48.64215,-1.52936,0.90227,0.88034
438.444,48.9257,-1.75729,0.89569,0.87824
441.344,49.20888,-1.98932,0.87098,0.87614
444.244,49.49134,-2.21588,0.81612,0.87402
447.144,49.7751,-2.42476,0.73715,0.87189
450.044,50.05831,-2.60041,0.63366,0.86976
452.944,50.3418,-2.73435,0.52389,0.86761
455.844,50.62481,-2.83022,0.42712,0.86546
458.744,50.90815,-2.89917,0.35245,0.8633
461.644,51.19167,-2.95099,0.29509,0.86112
464.544,51.47574,-2.99036,0.24443,0.85894
467.444,51.75982,-3.02209,0.20116,0.85675
470.344,52.04449,-3.04658,0.16072,0.85455
473.244,52.32886,-3.0662,0.12702,0.85233
476.144,52.61394,-3.08389,0.09982087,0.85011
479.044,52.89926,-3.0959,0.07063024,0.84788
481.944,53.1846,-3.10655,0.05617127,0.84565
484.844,53.46985,-3.11717,0.04051272,0.8434
487.744,53.75519,-3.1254,0.03068099,0.84114
490.644,54.04002,-3.13332,0.02375466,0.83887
493.544,54.3255,-3.13743,0.01968867,0.8366
496.444,54.6111,-3.14331,0.02215314,0.83432
499.344,54.89629,-3.14858,0.03020029,0.83202
502.244,55.18179,-3.15249,0.03138226,0.82972
505.144,55.4678,-3.1578,0.02692833,0.82741
508.044,55.754,-3.16143,0.02053483,0.82509
510.944,56.0406,-3.1667,0.01591788,0.82276
513.844,56.32731,-3.16931,0.01275735,0.82042
516.744,56.6142,-3.17196,0.01118766,0.81808
519.644,56.90119,-3.17591,0.00794514,0.81572
522.544,57.18821,-3.17855,0.005711314,0.81336
525.444,57.47529,-3.17987,0.004635758,0.81099
528.344,57.7622,-3.18251,-0.001168877,0.80861
531.244,58.0494,-3.18514,-0.0002279691,0.80622
534.144,58.33668,-3.18874,-0.002317701,0.80383
537.044,58.62385,-3.1904,-0.005024289,0.80142
539.944,58.9117,-3.1904,-0.00622056,0.79901
542.844,59.19954,-3.19436,-0.01046101,0.79659
545.744,59.4871,-3.19519,-0.01263095,0.79416
548.644,59.77508,-3.19568,-0.01472028,0.79172
551.544,60.06349,-3.19708,-0.01546364,0.78928
554.444,60.3518,-3.19997,-0.01808198,0.78683
557.344,60.6404,-3.19996,-0.02106527,0.78437
560.244,60.92941,-3.20259,-0.02197824,0.7819
563.144,61.2183,-3.20387,-0.02427693,0.77942
566.044,61.5085,-3.20655,-0.02614253,0.77694
568.944,61.7982,-3.20918,-0.02734968,0.77445
571.844,62.08685,-3.21116,-0.02414965,0.77195
574.744,62.3765,-3.21334,-0.02778093,0.76944
577.644,62.66548,-3.21436,-0.03182104,0.76693
580.544,62.9549,-3.21576,-0.03170732,0.76441
583.444,63.24448,-3.2184,-0.03270609,0.76188
586.344,63.534,-3.22103,-0.0350331,0.75935
589.244,63.82323,-3.22107,-0.03692524,0.75681
592.144,64.1131,-3.22369,-0.0390267,0.75426
595.044,64.40212,-3.22664,-0.04078258,0.7517
597.944,64.69203,-3.22928,-0.04121836,0.74914
600.844,64.98124,-3.23102,-0.04419539,0.74657
603.744,65.2718,-3.23289,-0.04580352,0.744
606.644,65.56166,-3.23302,-0.04508269,0.74142
609.544,65.85128,-3.23652,-0.04862866,0.73883
612.444,66.1409,-3.23915,-0.04219012,0.73623
615.344,66.43064,-3.2418,-0.04320915,0.73363
618.244,66.7204,-3.24211,-0.0425311,0.73102
621.144,67.0108,-3.24376,-0.04318257,0.72841
624.044,67.3011,-3.2454,-0.04176902,0.72579
626.944,67.5912,-3.24672,-0.0410303,0.72317
629.844,67.88124,-3.24904,-0.04303295,0.72053
632.744,68.17267,-3.252,-0.04170142,0.7179
635.644,68.46342,-3.25332,-0.0434173,0.71525
638.544,68.75417,-3.25332,-0.04282987,0.71261
641.444,69.04491,-3.25529,-0.04122309,0.70995
644.344,69.33596,-3.25661,-0.04360127,0.70729
647.244,69.6267,-3.25792,-0.04523165,0.70463
650.144,69.91753,-3.25825,-0.04741837,0.70196
653.044,70.2088,-3.26051,-0.04360791,0.69928
655.944,70.4996,-3.26154,-0.04357034,0.6966
658.844,70.79037,-3.26121,-0.0456691,0.69392
661.744,71.08103,-3.26385,-0.04178565,0.69123
664.644,71.37172,-3.26386,-0.04102606,0.68853
667.544,71.66296,-3.26508,-0.04250933,0.68583
670.444,71.95394,-3.26517,-0.04612032,0.68313
673.344,72.24481,-3.2655,-0.04944788,0.68042
676.244,72.5359,-3.26682,-0.0535712,0.6777
679.144,72.82812,-3.26809,-0.05503797,0.67499
682.044,73.11918,-3.26813,-0.05783257,0.67226
684.944,73.41109,-3.26945,-0.06062123,0.66954
687.844,73.70212,-3.27077,-0.06303276,0.66681
690.744,73.99218,-3.27078,-0.0692308,0.66407
693.644,74.28341,-3.27077,-0.0691399,0.66133
696.544,74.57463,-3.27209,-0.07358691,0.65859
699.444,74.867,-3.2734,-0.07961447,0.65585
700.744,74.99775,-3.27341,-0.07748717,0.65461