Folder: fsri_materials_database/01_Data/Polyester_Bed_Skirt/STA/N2/10K_min

Note: 01_Data/README.md
# Materials and Products Database
## 01_Data

Raw data generated from each apparatus are included here in plain-text format. The data is organized first by material, next by the short name of test apparatus used, and where applicable additional filtering by test settings.

### material.json

Each material directory contains a json file of the same name as the material. This file links the data stored in the repository as well as data and graphs produced by the accompanying scripts (__02_Scripts__) to the respective landing page for the material on the front-end website.

File: Polyester_Bed_Skirt_STA_N2_10KData_220524_R1.csv
##Temp./Â°C,Time/min,Mass loss(subtr.2)/mg,DSC(subtr.2)/(mW/mg),Sensit./(uV/mW)
49.835,10.01,0.02767,-0.01033758,1.07014
52.635,11.26239,0.03071187,0.08612792,1.06937
55.435,11.67783,0.03286735,0.13337,1.06859
58.235,12.0268,0.0313499,0.16122,1.0678
61.035,12.35004,0.03370329,0.17644,1.067
63.835,12.66072,0.0343132,0.18895,1.0662
66.635,12.96578,0.03305402,0.19634,1.06538
69.435,13.26687,0.03445457,0.20525,1.06456
72.235,13.5633,0.03449464,0.2064,1.06373
75.035,13.8587,0.03567378,0.20176,1.0629
77.835,14.14995,0.03567914,0.1945,1.06205
80.635,14.439,0.03627178,0.19029,1.0612
83.435,14.72548,0.03567998,0.1892,1.06033
86.235,15.00963,0.03568012,0.1865,1.05946
89.035,15.29066,0.0382599,0.18464,1.05858
91.835,15.56981,0.03700154,0.18161,1.0577
94.635,15.8485,0.03832742,0.18185,1.0568
97.435,16.12455,0.03893279,0.1835,1.0559
100.235,16.4004,0.04029046,0.18408,1.05498
103.035,16.6757,0.03965971,0.19115,1.05406
105.835,16.94974,0.03963027,0.1949,1.05313
108.635,17.22371,0.04095277,0.20356,1.0522
111.435,17.4967,0.04097524,0.21155,1.05125
114.235,17.7695,0.0399683,0.21686,1.0503
117.035,18.04299,0.04095765,0.22312,1.04933
119.835,18.31577,0.0406293,0.2298,1.04836
122.635,18.58814,0.04225918,0.23561,1.04738
125.435,18.85925,0.04157907,0.24176,1.04639
128.235,19.1314,0.04259999,0.2484,1.0454
131.035,19.4018,0.0435901,0.25402,1.04439
133.835,19.67298,0.04357998,0.25699,1.04338
136.635,19.94339,0.04358,0.26042,1.04235
139.435,20.2138,0.04359,0.26393,1.04132
142.235,20.48274,0.04359,0.26606,1.04028
145.035,20.75225,0.04489947,0.27109,1.03923
147.835,21.0208,0.04495585,0.27658,1.03818
150.635,21.2904,0.04489477,0.2779,1.03711
153.435,21.5589,0.04484569,0.28125,1.03604
156.235,21.8274,0.04391189,0.28593,1.03495
159.035,22.09605,0.04268878,0.2883,1.03386
161.835,22.36373,0.04457075,0.29038,1.03276
164.635,22.63233,0.04393252,0.29427,1.03165
167.435,22.8999,0.04391958,0.29447,1.03053
170.235,23.16762,0.04392197,0.29845,1.0294
173.035,23.43533,0.04426573,0.30155,1.02827
175.835,23.70257,0.04523108,0.30275,1.02712
178.635,23.97019,0.04489694,0.30508,1.02597
181.435,24.2373,0.04496253,0.30909,1.0248
184.235,24.50408,0.04491,0.30965,1.02363
187.035,24.77159,0.04615813,0.31209,1.02245
189.835,25.03814,0.04555324,0.31268,1.02126
192.635,25.3052,0.04489976,0.31678,1.02006
195.435,25.57222,0.04622124,0.31888,1.01885
198.235,25.83933,0.04616817,0.32074,1.01764
201.035,26.10575,0.04359001,0.32483,1.01641
203.835,26.37248,0.04489995,0.32815,1.01517
206.635,26.63917,0.04556217,0.33218,1.01393
209.435,26.9047,0.04359746,0.33653,1.01268
212.235,27.17025,0.04358008,0.33963,1.01141
215.035,27.4357,0.04490022,0.34292,1.01014
217.835,27.702,0.04588136,0.34968,1.00886
220.635,27.96793,0.04588571,0.35296,1.00757
223.435,28.23306,0.04456688,0.35885,1.00627
226.235,28.5,0.04523,0.36478,1.00496
229.035,28.7664,0.04391,0.37124,1.00364
231.835,29.03264,0.04523,0.38022,1.00232
234.635,29.29944,0.04457001,0.39135,1.00098
237.435,29.566,0.04592169,0.40486,0.99963
240.235,29.83206,0.0442364,0.42429,0.99828
243.035,30.0992,0.04425,0.45111,0.99691
245.835,30.36595,0.04523,0.49105,0.99554
248.635,30.634,0.04523,0.55909,0.99416
251.435,30.90124,0.04391,0.67817,0.99276
254.235,31.16912,0.04555999,0.90096,0.99136
257.035,31.43875,0.04427045,1.18487,0.98995
259.835,31.70825,0.04423997,1.11789,0.98853
262.635,31.97455,0.04424,0.77894,0.9871
265.435,32.24007,0.04292001,0.54915,0.98566
268.235,32.50415,0.04279506,0.44932,0.98421
271.035,32.76915,0.04424004,0.409,0.98275
273.835,33.034,0.04348298,0.39463,0.98128
276.635,33.2992,0.04392098,0.38616,0.97981
279.435,33.56476,0.04357969,0.38586,0.97832
282.235,33.83171,0.04355438,0.38614,0.97682
285.035,34.098,0.0449,0.38637,0.97532
287.835,34.36476,0.04424991,0.38787,0.9738
290.635,34.63176,0.04424954,0.38639,0.97228
293.435,34.89866,0.04359,0.38521,0.97074
296.235,35.16643,0.04359,0.38833,0.9692
299.035,35.43391,0.04457498,0.38824,0.96764
301.835,35.70133,0.04326008,0.39066,0.96608
304.635,35.96882,0.04227004,0.38974,0.96451
307.435,36.23646,0.04128001,0.38936,0.96293
310.235,36.50496,0.04154619,0.39106,0.96133
313.035,36.77312,0.04227,0.39079,0.95973
315.835,37.04116,0.04095039,0.3936,0.95812
318.635,37.30958,0.04094878,0.39364,0.9565
321.435,37.57738,0.04194,0.396,0.95487
324.235,37.8465,0.04061999,0.39656,0.95323
327.035,38.11508,0.03962995,0.39647,0.95158
329.835,38.38354,0.03995928,0.39754,0.94992
332.635,38.6527,0.03897,0.39948,0.94825
335.435,38.92106,0.03864001,0.40177,0.94658
338.235,39.19082,0.03764999,0.4025,0.94489
341.035,39.46048,0.03799135,0.40367,0.94319
343.835,39.72961,0.03567996,0.40498,0.94148
346.635,39.99944,0.03436002,0.40816,0.93977
349.435,40.26907,0.03428747,0.41054,0.93804
352.235,40.53911,0.03370022,0.41334,0.93631
355.035,40.80932,0.03270669,0.41612,0.93456
357.835,41.07962,0.03107077,0.42104,0.93281
360.635,41.3495,0.0314,0.42445,0.93104
363.435,41.6197,0.02875849,0.43182,0.92927
366.235,41.89051,0.02612768,0.43894,0.92749
369.035,42.1614,0.02210938,0.44707,0.92569
371.835,42.43222,0.01954001,0.45595,0.92389
374.635,42.70268,0.01682047,0.46212,0.92208
377.435,42.9732,0.01149561,0.46987,0.92026
380.235,43.2447,0.007224373,0.4751,0.91843
383.035,43.51587,-0.0005646157,0.48034,0.91659
385.835,43.78751,-0.00919767,0.48851,0.91474
388.635,44.05963,-0.02126438,0.50043,0.91288
391.435,44.33162,-0.03835648,0.51333,0.91101
394.235,44.60355,-0.05722519,0.52278,0.90913
397.035,44.87624,-0.07853394,0.534,0.90724
399.835,45.14799,-0.1102,0.55206,0.90535
402.635,45.41957,-0.14472,0.56329,0.90344
405.435,45.69182,-0.18554,0.58856,0.90152
408.235,45.96474,-0.23542,0.60104,0.8996
411.035,46.2374,-0.29699,0.63502,0.89766
413.835,46.5105,-0.3664,0.67416,0.89572
416.635,46.78399,-0.45332,0.7073,0.89377
419.435,47.05775,-0.55306,0.7428,0.89181
422.235,47.33132,-0.66922,0.78668,0.88983
425.035,47.6055,-0.80243,0.81881,0.88785
427.835,47.87962,-0.95739,0.87391,0.88586
430.635,48.1537,-1.12903,0.92857,0.88386
433.435,48.4277,-1.32633,0.97196,0.88186
436.235,48.7012,-1.53811,0.96327,0.87984
439.035,48.9754,-1.76087,0.94858,0.87781
441.835,49.24815,-1.98659,0.92235,0.87578
444.635,49.52225,-2.20667,0.87087,0.87373
447.435,49.79439,-2.40441,0.79471,0.87168
450.235,50.06889,-2.57418,0.69656,0.86962
453.035,50.34243,-2.70537,0.5922,0.86755
455.835,50.6153,-2.79883,0.50053,0.86547
458.635,50.8896,-2.86879,0.4261,0.86338
461.435,51.16338,-2.92068,0.3722,0.86128
464.235,51.43828,-2.9582,0.32653,0.85917
467.035,51.71278,-2.99016,0.28288,0.85706
469.835,51.98686,-3.0123,0.24635,0.85493
472.635,52.26108,-3.03294,0.21615,0.8528
475.435,52.53598,-3.04864,0.1854,0.85066
478.235,52.81129,-3.06176,0.16146,0.84851
481.035,53.0868,-3.07531,0.14227,0.84635
483.835,53.3628,-3.08426,0.12812,0.84418
486.635,53.63885,-3.0926,0.11719,0.84201
489.435,53.9145,-3.09952,0.10786,0.83982
492.235,54.1909,-3.10682,0.10398,0.83763
495.035,54.4663,-3.11261,0.10107,0.83543
497.835,54.7423,-3.11892,0.09818212,0.83322
500.635,55.0184,-3.12156,0.09935187,0.831
503.435,55.2943,-3.1264,0.09525269,0.82877
506.235,55.5703,-3.13102,0.09139388,0.82654
509.035,55.84649,-3.13271,0.08919738,0.8243
511.835,56.1233,-3.13761,0.08783908,0.82204
514.635,56.3994,-3.14022,0.08773978,0.81979
517.435,56.6762,-3.14298,0.08593888,0.81752
520.235,56.9527,-3.14709,0.0869487,0.81524
523.035,57.2297,-3.14913,0.08636867,0.81296
525.835,57.50603,-3.15036,0.08529795,0.81067
528.635,57.78371,-3.15341,0.08631353,0.80837
531.435,58.0609,-3.15839,0.0836484,0.80607
534.235,58.3387,-3.15968,0.0835374,0.80375
537.035,58.61675,-3.16231,0.0852859,0.80143
539.835,58.8948,-3.16329,0.08245661,0.7991
542.635,59.17244,-3.16594,0.08043834,0.79676
545.435,59.45025,-3.16694,0.08285992,0.79442
548.235,59.72824,-3.17124,0.08177738,0.79207
551.035,60.00707,-3.16989,0.07892565,0.78971
553.835,60.2862,-3.17247,0.07972545,0.78734
556.635,60.5643,-3.17384,0.07670368,0.78497
559.435,60.84378,-3.17581,0.07342049,0.78259
562.235,61.12146,-3.17779,0.07531099,0.7802
565.035,61.3996,-3.18042,0.07209219,0.7778
567.835,61.678,-3.18034,0.07179909,0.7754
570.635,61.9573,-3.18305,0.07155625,0.77299
573.435,62.2361,-3.18471,0.06923217,0.77058
576.235,62.5159,-3.1879,0.06689009,0.76815
579.035,62.7955,-3.18998,0.06917538,0.76572
581.835,63.0742,-3.18964,0.06714932,0.76329
584.635,63.35402,-3.19456,0.06406193,0.76084
587.435,63.63313,-3.1952,0.06613341,0.75839
590.235,63.91301,-3.1973,0.06158194,0.75594
593.035,64.19334,-3.19931,0.05890043,0.75347
595.835,64.47349,-3.20062,0.06040359,0.75101
598.635,64.75279,-3.20255,0.05876799,0.74853
601.435,65.03195,-3.20323,0.06199047,0.74605
604.235,65.3115,-3.20655,0.06497008,0.74356
607.035,65.59188,-3.20689,0.06620276,0.74107
609.835,65.87131,-3.20919,0.06662792,0.73857
612.635,66.15212,-3.21188,0.06683124,0.73606
615.435,66.43235,-3.21213,0.06800671,0.73355
618.235,66.71252,-3.21611,0.06840561,0.73103
621.035,66.99249,-3.21629,0.05666736,0.72851
623.835,67.27303,-3.21756,0.07221016,0.72598
626.635,67.55237,-3.2194,0.07185276,0.72345
629.435,67.83274,-3.22269,0.07356916,0.72091
632.235,68.11329,-3.22401,0.07244371,0.71836
635.035,68.39372,-3.22401,0.07785388,0.71581
637.835,68.67349,-3.22533,0.08346025,0.71325
640.635,68.95355,-3.22796,0.08748079,0.71069
643.435,69.23343,-3.22796,0.08870533,0.70813
646.235,69.51406,-3.2306,0.0911501,0.70556
649.035,69.79486,-3.23092,0.09294518,0.70298
651.835,70.07566,-3.23228,0.09446581,0.7004
654.635,70.35674,-3.23129,0.09396189,0.69781
657.435,70.63789,-3.23323,0.09769811,0.69522
660.235,70.91965,-3.23422,0.10356,0.69263
663.035,71.20091,-3.23553,0.10315,0.69003
665.835,71.48209,-3.23606,0.09924403,0.68742
668.635,71.76307,-3.23686,0.103,0.68481
671.435,72.0448,-3.23817,0.10012,0.6822
674.235,72.32607,-3.23817,0.10156,0.67958
677.035,72.60705,-3.23817,0.09779404,0.67696
679.835,72.88845,-3.23947,0.10002,0.67434
682.635,73.16929,-3.23952,0.09599749,0.67171
685.435,73.45009,-3.2408,0.0915068,0.66907
688.235,73.73185,-3.24146,0.09161115,0.66644
691.035,74.01382,-3.24245,0.09108832,0.6638
693.835,74.29609,-3.24392,0.09695594,0.66115
696.635,74.5783,-3.24476,0.09084464,0.65851
699.435,74.86019,-3.24608,0.08754905,0.65585
700.735,74.99127,-3.24608,0.08699743,0.65462

File: Polyester_Bed_Skirt_STA_N2_10KData_220524_R2.csv
##Temp./Â°C,Time/min,Mass loss(subtr.2)/mg,DSC(subtr.2)/(mW/mg),Sensit./(uV/mW)
49.772,10.01,0.02788,0.002364291,1.07016
52.572,11.26308,0.03020795,0.09021476,1.06939
55.372,11.6792,0.03122067,0.13217,1.06861
58.172,12.02938,0.03206794,0.1571,1.06782
60.972,12.35228,0.03380016,0.17456,1.06702
63.772,12.66433,0.0345934,0.18209,1.06622
66.572,12.96818,0.03380059,0.19219,1.0654
69.372,13.26816,0.03513267,0.19765,1.06458
72.172,13.5666,0.03395137,0.20104,1.06375
74.972,13.86064,0.03775981,0.1963,1.06291
77.772,14.15221,0.03512677,0.18821,1.06207
80.572,14.4413,0.03644302,0.18179,1.06121
83.372,14.7278,0.03655309,0.17892,1.06035
86.172,15.01184,0.03658235,0.17857,1.05948
88.972,15.2922,0.03783044,0.17387,1.0586
91.772,15.57269,0.03786339,0.17139,1.05772
94.572,15.8507,0.03786762,0.17093,1.05682
97.372,16.12699,0.03957603,0.17219,1.05592
100.172,16.40278,0.04075816,0.17344,1.055
102.972,16.67807,0.03944612,0.1784,1.05408
105.772,16.9529,0.03953973,0.18552,1.05315
108.572,17.22707,0.04076086,0.19141,1.05222
111.372,17.5002,0.04071236,0.19938,1.05127
114.172,17.77277,0.03940972,0.20598,1.05032
116.972,18.04615,0.04093092,0.21106,1.04936
119.772,18.31941,0.0413723,0.2131,1.04838
122.572,18.5917,0.03942195,0.22016,1.0474
125.372,18.86393,0.04176041,0.22852,1.04642
128.172,19.13545,0.04172044,0.23218,1.04542
130.972,19.407,0.04117062,0.2374,1.04441
133.772,19.67786,0.04115977,0.24206,1.0434
136.572,19.94851,0.04110514,0.24631,1.04238
139.372,20.2178,0.04249003,0.24832,1.04135
142.172,20.48832,0.04248,0.25239,1.04031
144.972,20.75776,0.04118219,0.25505,1.03926
147.772,21.02626,0.04116195,0.25944,1.0382
150.572,21.29547,0.04216008,0.26137,1.03714
153.372,21.56341,0.04281025,0.26403,1.03606
156.172,21.83229,0.04261793,0.26645,1.03498
158.972,22.10089,0.0421383,0.2707,1.03389
161.772,22.3687,0.04215161,0.26982,1.03278
164.572,22.63747,0.04302331,0.27337,1.03167
167.372,22.90503,0.04315568,0.27615,1.03056
170.172,23.17309,0.04314005,0.27926,1.02943
172.972,23.4408,0.04314115,0.28183,1.02829
175.772,23.70784,0.04215001,0.28435,1.02715
178.572,23.97551,0.04328507,0.28737,1.02599
181.372,24.2428,0.04348,0.28874,1.02483
184.172,24.5094,0.04314005,0.2933,1.02366
186.972,24.77649,0.04183953,0.29435,1.02248
189.772,25.04252,0.04184111,0.29635,1.02129
192.572,25.30874,0.04182,0.29663,1.02009
195.372,25.57499,0.04263022,0.29948,1.01888
198.172,25.8412,0.04577288,0.30222,1.01766
200.972,26.10783,0.04205428,0.30714,1.01644
203.772,26.37394,0.04271,0.30877,1.0152
206.572,26.6408,0.0420463,0.30964,1.01396
209.372,26.9074,0.04337392,0.31419,1.0127
212.172,27.1731,0.0407189,0.31734,1.01144
214.972,27.43883,0.04336011,0.32059,1.01017
217.772,27.7054,0.04138,0.32274,1.00889
220.572,27.97225,0.04072234,0.32777,1.0076
223.372,28.23879,0.04271021,0.33518,1.0063
226.172,28.5055,0.04073012,0.34014,1.00499
228.972,28.77205,0.04203999,0.34658,1.00367
231.772,29.03831,0.04065514,0.35414,1.00235
234.572,29.30504,0.04063096,0.36436,1.00101
237.372,29.571,0.04334281,0.37969,0.99966
240.172,29.83805,0.04138,0.39866,0.99831
242.972,30.10489,0.04277272,0.42468,0.99694
245.772,30.3718,0.04066685,0.46577,0.99557
248.572,30.63898,0.0400665,0.53264,0.99419
251.372,30.9063,0.04007003,0.64618,0.99279
254.172,31.174,0.03940707,0.86659,0.99139
256.972,31.4434,0.03940742,1.13769,0.98998
259.772,31.71244,0.03940999,1.06209,0.98856
262.572,31.9785,0.03940892,0.73022,0.98713
265.372,32.24281,0.04073,0.51648,0.98569
268.172,32.508,0.03941003,0.42067,0.98424
270.972,32.77335,0.04007,0.38078,0.98278
273.772,33.03924,0.0407227,0.36429,0.98132
276.572,33.30511,0.03841515,0.36055,0.97984
279.372,33.57168,0.0382195,0.35933,0.97835
282.172,33.83747,0.03810064,0.35917,0.97686
284.972,34.10433,0.03846941,0.35897,0.97535
287.772,34.37105,0.03842,0.35766,0.97384
290.572,34.6386,0.03842,0.3583,0.97231
293.372,34.90632,0.03709489,0.3592,0.97078
296.172,35.17386,0.03842,0.35856,0.96923
298.972,35.44102,0.03711,0.35893,0.96768
301.772,35.70864,0.0371,0.36091,0.96612
304.572,35.97575,0.03742572,0.36335,0.96454
307.372,36.24346,0.03705247,0.36367,0.96296
310.172,36.5115,0.0367683,0.36047,0.96137
312.972,36.77915,0.0367603,0.36278,0.95977
315.772,37.04735,0.03601236,0.36439,0.95816
318.572,37.3163,0.03490342,0.36371,0.95654
321.372,37.58528,0.03603422,0.36208,0.95491
324.172,37.85439,0.03613899,0.36251,0.95327
326.972,38.1234,0.03513505,0.36374,0.95162
329.772,38.39224,0.0336386,0.36054,0.94996
332.572,38.66064,0.03382207,0.35652,0.94829
335.372,38.9296,0.03381001,0.35178,0.94661
338.172,39.19849,0.03249008,0.33696,0.94493
340.972,39.46768,0.03187458,0.3119,0.94323
343.772,39.73637,0.03051742,0.29083,0.94152
346.572,40.00607,0.02977795,0.28321,0.93981
349.372,40.27572,0.02860013,0.28208,0.93808
352.172,40.54566,0.02546,0.28288,0.93635
354.972,40.81564,0.02480978,0.28456,0.9346
357.772,41.08578,0.02315959,0.28114,0.93285
360.572,41.35683,0.02053635,0.28328,0.93108
363.372,41.62791,0.01784442,0.29968,0.92931
366.172,41.89883,0.01789388,0.33913,0.92753
368.972,42.16944,0.01397515,0.37604,0.92573
371.772,42.43978,0.01097096,0.39644,0.92393
374.572,42.71133,0.008916307,0.40572,0.92212
377.372,42.98222,0.00163445,0.42006,0.9203
380.172,43.2538,-0.00293395,0.42826,0.91847
382.972,43.52512,-0.01005991,0.43777,0.91663
385.772,43.79618,-0.01969452,0.45151,0.91478
388.572,44.0676,-0.03059373,0.4629,0.91292
391.372,44.33943,-0.04619542,0.47826,0.91105
394.172,44.6115,-0.06421909,0.49518,0.90917
396.972,44.88371,-0.0901597,0.51329,0.90728
399.772,45.15591,-0.11592,0.53121,0.90539
402.572,45.42811,-0.15433,0.5461,0.90348
405.372,45.70063,-0.19439,0.57192,0.90157
408.172,45.97345,-0.24803,0.61348,0.89964
410.972,46.24595,-0.31216,0.65198,0.89771
413.772,46.51893,-0.38653,0.68613,0.89576
416.572,46.79116,-0.4749,0.73324,0.89381
419.372,47.06505,-0.57864,0.77102,0.89185
422.172,47.33889,-0.7009,0.81436,0.88988
424.972,47.61213,-0.84213,0.84682,0.8879
427.772,47.8856,-0.99971,0.87573,0.88591
430.572,48.15964,-1.17631,0.90956,0.88391
433.372,48.43345,-1.37031,0.92993,0.8819
436.172,48.7068,-1.57555,0.93742,0.87989
438.972,48.9816,-1.79273,0.92562,0.87786
441.772,49.2553,-2.00985,0.89612,0.87582
444.572,49.5287,-2.21598,0.84463,0.87378
447.372,49.8025,-2.40206,0.77369,0.87173
450.172,50.07631,-2.55344,0.68757,0.86966
452.972,50.34926,-2.6711,0.59487,0.86759
455.772,50.62259,-2.74943,0.51615,0.86551
458.572,50.89631,-2.81147,0.45294,0.86342
461.372,51.1697,-2.85796,0.4005,0.86133
464.172,51.44375,-2.89278,0.35409,0.85922
466.972,51.7181,-2.92032,0.31002,0.8571
469.772,51.99256,-2.94525,0.27081,0.85498
472.572,52.26708,-2.96722,0.23695,0.85285
475.372,52.54215,-2.9796,0.20848,0.85071
478.172,52.81678,-2.99202,0.18549,0.84856
480.972,53.09206,-3.00451,0.16557,0.8464
483.772,53.36806,-3.01537,0.15155,0.84423
486.572,53.6439,-3.02381,0.13967,0.84205
489.372,53.9196,-3.0312,0.12953,0.83987
492.172,54.19535,-3.03718,0.12364,0.83768
494.972,54.4713,-3.0439,0.11985,0.83548
497.772,54.747,-3.04889,0.11811,0.83327
500.572,55.0236,-3.05458,0.11403,0.83105
503.372,55.3,-3.05757,0.10708,0.82882
506.172,55.5763,-3.06204,0.10509,0.82659
508.972,55.853,-3.06745,0.10221,0.82435
511.772,56.12922,-3.07009,0.10179,0.8221
514.572,56.4064,-3.07339,0.10338,0.81984
517.372,56.68345,-3.0757,0.10225,0.81757
520.172,56.96066,-3.076,0.10747,0.8153
522.972,57.2385,-3.08316,0.11395,0.81301
525.772,57.51511,-3.08448,0.11994,0.81072
528.572,57.7919,-3.08546,0.12921,0.80842
531.372,58.069,-3.08807,0.14196,0.80612
534.172,58.3467,-3.09112,0.15043,0.8038
536.972,58.62389,-3.09106,0.16281,0.80148
539.772,58.9015,-3.09339,0.1729,0.79915
542.572,59.1794,-3.09531,0.18173,0.79682
545.372,59.4576,-3.09734,0.18407,0.79447
548.172,59.7354,-3.09995,0.18896,0.79212
550.972,60.01324,-3.09989,0.19648,0.78976
553.772,60.29186,-3.10226,0.20117,0.7874
556.572,60.57062,-3.10259,0.20654,0.78502
559.372,60.8497,-3.10522,0.21461,0.78264
562.172,61.1281,-3.10523,0.21927,0.78025
564.972,61.40727,-3.10753,0.22186,0.77786
567.772,61.6859,-3.11089,0.23006,0.77546
570.572,61.965,-3.11157,0.23488,0.77305
573.372,62.2438,-3.11412,0.24033,0.77063
576.172,62.5226,-3.11609,0.24608,0.76821
578.972,62.80118,-3.11742,0.25084,0.76578
581.772,63.08,-3.11873,0.25675,0.76334
584.572,63.3587,-3.12201,0.25999,0.7609
587.372,63.63856,-3.12235,0.27125,0.75845
590.172,63.91815,-3.12469,0.273,0.75599
592.972,64.19781,-3.1226,0.28334,0.75353
595.772,64.47651,-3.12967,0.29091,0.75106
598.572,64.75663,-3.1327,0.29374,0.74859
601.372,65.03652,-3.13395,0.29736,0.7461
604.172,65.31655,-3.12959,0.29827,0.74362
606.972,65.59691,-3.13684,0.30955,0.74112
609.772,65.87684,-3.13947,0.3171,0.73862
612.572,66.15709,-3.13653,0.32555,0.73612
615.372,66.43688,-3.13869,0.33059,0.73361
618.172,66.7158,-3.142,0.34251,0.73109
620.972,66.99595,-3.142,0.35487,0.72857
623.772,67.2761,-3.14502,0.36922,0.72604
626.572,67.55627,-3.14628,0.38413,0.7235
629.372,67.83706,-3.14869,0.4085,0.72096
632.172,68.11752,-3.14837,0.43433,0.71842
634.972,68.3986,-3.14968,0.45121,0.71587
637.772,68.67936,-3.14969,0.46431,0.71331
640.572,68.95995,-3.15265,0.4773,0.71075
643.372,69.23982,-3.15232,0.49297,0.70818
646.172,69.52104,-3.15364,0.50046,0.70561
648.972,69.80179,-3.15631,0.50822,0.70304
651.772,70.08259,-3.15825,0.51608,0.70046
654.572,70.36423,-3.16232,0.52623,0.69787
657.372,70.64559,-3.16187,0.53678,0.69528
660.172,70.9269,-3.15841,0.5482,0.69268
662.972,71.20841,-3.15878,0.55491,0.69008
665.772,71.49056,-3.16014,0.57018,0.68748
668.572,71.7723,-3.16277,0.58609,0.68487
671.372,72.05286,-3.16549,0.60389,0.68226
674.172,72.33444,-3.16539,0.62208,0.67964
676.972,72.61456,-3.16805,0.63588,0.67702
679.772,72.8964,-3.16505,0.64451,0.6744
682.572,73.17834,-3.16647,0.6522,0.67177
685.372,73.45994,-3.16802,0.6623,0.66913
688.172,73.7406,-3.16934,0.6763,0.6665
690.972,74.02162,-3.16934,0.68684,0.66386
693.772,74.3026,-3.16861,0.69344,0.66121
696.572,74.58405,-3.17004,0.70339,0.65856
699.372,74.86593,-3.17005,0.71058,0.65591
700.672,74.9966,-3.16871,0.71459,0.65468