Folder: fsri_materials_database/01_Data/Polyester_Bed_Skirt/STA/N2/30K_min (part 2)

File: Polyester_Bed_Skirt_STA_N2_30KData_220525_R3.csv
##Temp./Â°C,Time/min,Mass loss(subtr.2)/mg,DSC(subtr.2)/(mW/mg),Sensit./(uV/mW)
48.539,10.00667,-0.00625,0.002674309,1.05401
51.439,10.85918,-0.00304419,0.14323,1.05341
54.339,11.08301,-0.004610778,0.24127,1.05281
57.239,11.2552,-0.00556588,0.31826,1.05218
60.139,11.40174,-0.003765159,0.37758,1.05154
63.039,11.5337,-0.00297235,0.43128,1.05089
65.939,11.657,-0.004264734,0.47916,1.05022
68.839,11.77391,-0.003597629,0.52259,1.04953
71.739,11.88681,-0.004074275,0.55991,1.04883
74.639,11.9962,-0.001145736,0.59219,1.04812
77.539,12.10332,-0.006715781,0.60542,1.04739
80.439,12.20845,-0.006195391,0.59812,1.04664
83.339,12.31185,-0.005587007,0.5891,1.04588
86.239,12.41363,-0.00558705,0.58401,1.04511
89.139,12.5141,-0.00404704,0.58073,1.04432
92.039,12.61368,-0.003813187,0.57804,1.04352
94.939,12.71252,-0.003868185,0.57518,1.0427
97.839,12.81072,-0.003972149,0.57546,1.04186
100.739,12.90802,-0.005162997,0.58121,1.04102
103.639,13.00563,-0.005160098,0.59066,1.04015
106.539,13.1026,-0.00515139,0.60575,1.03928
109.439,13.1994,-0.007074052,0.62316,1.03839
112.339,13.2964,-0.00637773,0.63914,1.03748
115.239,13.3929,-0.005153015,0.65995,1.03656
118.139,13.48911,-0.005145565,0.67945,1.03563
121.039,13.5851,-0.006471104,0.69992,1.03468
123.939,13.68046,-0.00515883,0.71816,1.03372
126.839,13.7759,-0.005160027,0.73801,1.03275
129.739,13.8707,-0.003838938,0.75896,1.03176
132.639,13.9649,-0.0038389,0.77467,1.03075
135.539,14.0589,-0.00285071,0.79668,1.02974
138.439,14.15211,-0.004180366,0.8165,1.02871
141.339,14.2452,-0.00550971,0.83322,1.02766
144.239,14.33785,-0.006457005,0.85056,1.0266
147.139,14.4303,-0.003933395,0.86671,1.02553
150.039,14.52225,-0.003841273,0.8821,1.02445
152.939,14.6139,-0.004500004,0.89489,1.02335
155.839,14.7054,-0.004540146,0.91116,1.02224
158.739,14.7966,-0.00318,0.92149,1.02111
161.639,14.8876,-0.00320718,0.93603,1.01998
164.539,14.9785,-0.00384011,0.94792,1.01882
167.439,15.069,-0.003180848,0.96239,1.01766
170.339,15.15955,-0.005489889,0.97263,1.01648
173.239,15.24988,-0.006152795,0.98633,1.01529
176.139,15.3399,-0.00417006,0.99768,1.01409
179.039,15.4299,-0.004431465,1.01046,1.01288
181.939,15.5192,-0.004490015,1.02135,1.01165
184.839,15.60805,-0.005809979,1.03107,1.01041
187.739,15.6975,-0.00581,1.04418,1.00915
190.639,15.78612,-0.00581,1.05525,1.00789
193.539,15.87473,-0.00548004,1.06675,1.00661
196.439,15.96311,-0.005244185,1.07642,1.00532
199.339,16.05153,-0.004169908,1.09292,1.00402
202.239,16.13994,-0.005480704,1.10684,1.0027
205.139,16.22815,-0.00624137,1.11652,1.00137
208.039,16.31622,-0.00417,1.13118,1.00003
210.939,16.4043,-0.00417,1.14952,0.99868
213.839,16.49223,-0.00600095,1.16495,0.99732
216.739,16.5802,-0.006134059,1.18156,0.99594
219.639,16.66796,-0.005490002,1.19844,0.99456
222.539,16.7557,-0.006803625,1.22114,0.99316
225.439,16.8434,-0.00679907,1.24103,0.99175
228.339,16.9312,-0.00549501,1.26448,0.99033
231.239,17.01882,-0.00483004,1.29403,0.98889
234.139,17.1064,-0.005159995,1.33336,0.98745
237.039,17.19399,-0.005797148,1.3806,0.98599
239.939,17.28154,-0.00647,1.44547,0.98452
242.839,17.36908,-0.00647019,1.53572,0.98304
245.739,17.4566,-0.005159891,1.67018,0.98155
248.639,17.5441,-0.006469981,1.87377,0.98005
251.539,17.63196,-0.00647153,2.20416,0.97854
254.439,17.71985,-0.005149063,2.6692,0.97702
257.339,17.80801,-0.00515,3.07051,0.97548
260.239,17.8964,-0.003836348,3.00454,0.97394
263.139,17.98409,-0.0038401,2.51074,0.97238
266.039,18.07147,-0.00336708,2.05256,0.97082
268.939,18.1584,-0.00351,1.75281,0.96924
271.839,18.24515,-0.00351,1.57175,0.96765
274.739,18.33235,-0.002194574,1.47337,0.96606
277.639,18.4187,-0.0022,1.41509,0.96445
280.539,18.50619,-0.0022,1.38524,0.96283
283.439,18.5932,-0.0008843955,1.3691,0.9612
286.339,18.68021,-0.00219367,1.36025,0.95956
289.239,18.76737,-0.002200515,1.35706,0.95792
292.139,18.8547,-0.002199998,1.3577,0.95626
295.039,18.94162,-0.000880889,1.35707,0.95459
297.939,19.02925,-0.000965257,1.35925,0.95291
300.839,19.11656,-0.00351,1.35965,0.95122
303.739,19.20417,-0.002161005,1.35943,0.94952
306.639,19.29149,-0.00213662,1.36095,0.94782
309.539,19.3791,-0.004490433,1.36293,0.9461
312.439,19.46645,-0.005452546,1.36366,0.94437
315.339,19.554,-0.004810371,1.36598,0.94264
318.239,19.64167,-0.004838863,1.3673,0.94089
321.139,19.7292,-0.00351,1.37108,0.93914
324.039,19.81694,-0.003510192,1.37192,0.93737
326.939,19.9047,-0.000880031,1.37017,0.9356
329.839,19.9924,-0.002451772,1.37423,0.93382
332.739,20.08,-0.002849758,1.37526,0.93203
335.639,20.16828,-0.002189413,1.37793,0.93023
338.539,20.25648,-0.00256939,1.38145,0.92842
341.439,20.34457,-0.00246897,1.38273,0.9266
344.339,20.43287,-0.00384,1.38681,0.92478
347.239,20.52119,-0.005204083,1.3871,0.92294
350.139,20.6096,-0.006480001,1.3896,0.9211
353.039,20.69794,-0.005157666,1.39474,0.91925
355.939,20.78632,-0.00516,1.39705,0.91739
358.839,20.87531,-0.00516,1.39843,0.91552
361.739,20.96384,-0.005108164,1.40252,0.91364
364.639,21.05251,-0.005150085,1.40519,0.91176
367.539,21.14132,-0.003621169,1.41038,0.90987
370.439,21.22994,-0.005164789,1.41747,0.90797
373.339,21.31935,-0.00647,1.42349,0.90606
376.239,21.4083,-0.007793336,1.43167,0.90414
379.139,21.4974,-0.00773734,1.44131,0.90222
382.039,21.58625,-0.009428499,1.44753,0.90029
384.939,21.6757,-0.01075135,1.45848,0.89835
387.839,21.7652,-0.01174043,1.46227,0.8964
390.739,21.85452,-0.01206244,1.47943,0.89444
393.639,21.94405,-0.01470916,1.48982,0.89248
396.539,22.03354,-0.01602983,1.51069,0.89051
399.439,22.1234,-0.02420608,1.53032,0.88854
402.339,22.2131,-0.03203628,1.55463,0.88655
405.239,22.3032,-0.03990524,1.57963,0.88456
408.139,22.39309,-0.04672974,1.60792,0.88256
411.039,22.48317,-0.06044862,1.64115,0.88056
413.939,22.57314,-0.07473612,1.67451,0.87854
416.839,22.66339,-0.095356,1.71133,0.87653
419.739,22.75371,-0.12131,1.74471,0.8745
422.639,22.84415,-0.15255,1.79549,0.87247
425.539,22.93467,-0.19177,1.84583,0.87043
428.439,23.02512,-0.23636,1.8438,0.86838
431.339,23.11586,-0.29149,1.80697,0.86633
434.239,23.2068,-0.35753,1.8097,0.86427
437.139,23.29767,-0.42982,1.84699,0.86221
440.039,23.38865,-0.51527,1.92912,0.86013
442.939,23.47956,-0.61732,2.03507,0.85806
445.839,23.57111,-0.7358,2.16427,0.85597
448.739,23.66235,-0.87568,2.289,0.85388
451.639,23.75423,-1.03858,2.39911,0.85179
454.539,23.846,-1.22021,2.44331,0.84969
457.439,23.9377,-1.41972,2.47489,0.84758
460.339,24.0293,-1.63342,2.48496,0.84546
463.239,24.12107,-1.87495,2.45884,0.84334
466.139,24.2128,-2.10375,2.36736,0.84122
469.039,24.30445,-2.32444,2.19906,0.83909
471.939,24.39599,-2.51337,1.9599,0.83695
474.839,24.48712,-2.67989,1.67486,0.83481
477.739,24.57839,-2.80576,1.37652,0.83266
480.639,24.6697,-2.89729,1.1206,0.83051
483.539,24.76087,-2.96336,0.91089,0.82835
486.439,24.85213,-3.01287,0.74827,0.82619
489.339,24.9435,-3.05122,0.5885,0.82402
492.239,25.03515,-3.07934,0.44008,0.82185
495.139,25.12679,-3.10547,0.31074,0.81967
498.039,25.21856,-3.1271,0.19673,0.81749
500.939,25.3104,-3.14199,0.1082,0.8153
503.839,25.40219,-3.15484,0.03740888,0.81311
506.739,25.49459,-3.16595,-0.01125977,0.81091
509.639,25.58676,-3.17396,-0.04419678,0.80871
512.539,25.67935,-3.18167,-0.07008847,0.80651
515.439,25.77166,-3.18715,-0.08700347,0.80429
518.339,25.86443,-3.19345,-0.10028,0.80208
521.239,25.95725,-3.19875,-0.11187,0.79986
524.139,26.05,-3.20423,-0.12046,0.79764
527.039,26.14259,-3.20688,-0.12761,0.79541
529.939,26.2358,-3.20968,-0.13432,0.79317
532.839,26.3288,-3.21258,-0.14006,0.79094
535.739,26.422,-3.21652,-0.14378,0.7887
538.639,26.51543,-3.21977,-0.14975,0.78645
541.539,26.6085,-3.22116,-0.15242,0.7842
544.439,26.70185,-3.22147,-0.15777,0.78195
547.339,26.7953,-3.2241,-0.16063,0.7797
550.239,26.88865,-3.22642,-0.16417,0.77744
553.139,26.98214,-3.22703,-0.16961,0.77517
556.039,27.0757,-3.22926,-0.17255,0.77291
558.939,27.1692,-3.23059,-0.17466,0.77064
561.839,27.26268,-3.23323,-0.18016,0.76836
564.739,27.3565,-3.2352,-0.18384,0.76608
567.639,27.4501,-3.23794,-0.18726,0.7638
570.539,27.5438,-3.2379,-0.19171,0.76152
573.439,27.6378,-3.23927,-0.19601,0.75923
576.339,27.7319,-3.23927,-0.2001,0.75694
579.239,27.82592,-3.24318,-0.20699,0.75465
582.139,27.92018,-3.24453,-0.21005,0.75235
585.039,28.01424,-3.24609,-0.21611,0.75005
587.939,28.10848,-3.24892,-0.22068,0.74775
590.839,28.2028,-3.25158,-0.22284,0.74544
593.739,28.2972,-3.25052,-0.2277,0.74314
596.639,28.39172,-3.25323,-0.23532,0.74082
599.539,28.4862,-3.25452,-0.24122,0.73851
602.439,28.58077,-3.2566,-0.24613,0.7362
605.339,28.6755,-3.2582,-0.24989,0.73388
608.239,28.77027,-3.26078,-0.25557,0.73156
611.139,28.8651,-3.26341,-0.25866,0.72923
614.039,28.9598,-3.26473,-0.2665,0.72691
616.939,29.055,-3.26736,-0.26959,0.72458
619.839,29.14985,-3.26906,-0.2708,0.72225
622.739,29.2449,-3.27,-0.27741,0.71992
625.639,29.33979,-3.27406,-0.28654,0.71758
628.539,29.43495,-3.27538,-0.29238,0.71525
631.439,29.53006,-3.27536,-0.29461,0.71291
634.339,29.62537,-3.27755,-0.2971,0.71057
637.239,29.7207,-3.27737,-0.30143,0.70822
640.139,29.81571,-3.27953,-0.30486,0.70588
643.039,29.91099,-3.28067,-0.30645,0.70354
645.939,30.0065,-3.28372,-0.30981,0.70119
648.839,30.10179,-3.28503,-0.31441,0.69884
651.739,30.1972,-3.28777,-0.31655,0.69649
654.639,30.29243,-3.28812,-0.3342,0.69414
657.539,30.3879,-3.28945,-0.33137,0.69178
660.439,30.48337,-3.29141,-0.33007,0.68943
663.339,30.5789,-3.29339,-0.33119,0.68707
666.239,30.6744,-3.29475,-0.33767,0.68471
669.139,30.7698,-3.29602,-0.34049,0.68236
672.039,30.8654,-3.29734,-0.21694,0.68
674.939,30.96091,-3.29833,-0.26757,0.67764
677.839,31.05648,-3.30119,-0.29367,0.67527
680.739,31.1521,-3.29964,-0.3056,0.67291
683.639,31.24765,-3.29966,-0.31653,0.67055
686.539,31.34315,-3.30228,-0.32567,0.66818
689.439,31.4386,-3.30224,-0.3293,0.66582
692.339,31.53442,-3.30294,-0.33956,0.66345
695.239,31.63014,-3.30163,-0.35009,0.66108
696.339,31.66634,-3.30305,-0.35545,0.66019