Folder: fsri_materials_database/01_Data/Polyester_Bed_Skirt/STA/N2/30K_min

Note: 01_Data/README.md
# Materials and Products Database
## 01_Data

Raw data generated from each apparatus are included here in plain-text format. The data is organized first by material, next by the short name of test apparatus used, and where applicable additional filtering by test settings.

### material.json

Each material directory contains a json file of the same name as the material. This file links the data stored in the repository as well as data and graphs produced by the accompanying scripts (__02_Scripts__) to the respective landing page for the material on the front-end website.

File: Polyester_Bed_Skirt_STA_N2_30KData_220524_R1.csv
##Temp./Â°C,Time/min,Mass loss(subtr.2)/mg,DSC(subtr.2)/(mW/mg),Sensit./(uV/mW)
48.569,10.00667,-0.00823,-0.0007184639,1.054
51.369,10.85104,-0.006607114,0.12466,1.05343
54.169,11.0716,-0.00858403,0.2158,1.05284
56.969,11.23915,-0.007439477,0.28287,1.05224
59.769,11.3825,-0.009846657,0.33729,1.05162
62.569,11.512,-0.008405797,0.38586,1.05099
65.369,11.63241,-0.007927736,0.42972,1.05035
68.169,11.74643,-0.006809694,0.46758,1.04969
70.969,11.85642,-0.0083458,0.50678,1.04902
73.769,11.9627,-0.007389929,0.53249,1.04833
76.569,12.0669,-0.006621458,0.54971,1.04763
79.369,12.169,-0.007752796,0.54423,1.04692
82.169,12.2692,-0.007988623,0.53313,1.04619
84.969,12.36796,-0.007677287,0.52146,1.04545
87.769,12.46542,-0.007283647,0.51048,1.04469
90.569,12.56206,-0.006243089,0.50525,1.04393
93.369,12.6572,-0.009594744,0.49799,1.04314
96.169,12.75298,-0.009446134,0.49314,1.04235
98.969,12.84727,-0.009434585,0.492,1.04154
101.769,12.94156,-0.00812006,0.49354,1.04071
104.569,13.03536,-0.00813533,0.50308,1.03987
107.369,13.129,-0.00949126,0.51347,1.03902
110.169,13.22269,-0.009456154,0.52734,1.03816
112.969,13.3159,-0.00943892,0.5432,1.03728
115.769,13.40903,-0.009452496,0.56087,1.03639
118.569,13.5019,-0.008130561,0.57783,1.03549
121.369,13.5946,-0.009440001,0.59212,1.03457
124.169,13.6866,-0.00845444,0.60935,1.03364
126.969,13.7785,-0.009234622,0.62522,1.0327
129.769,13.86995,-0.00844999,0.64323,1.03175
132.569,13.96076,-0.00942063,0.65795,1.03078
135.369,14.0515,-0.01074629,0.67464,1.0298
138.169,14.1419,-0.009454052,0.68951,1.0288
140.969,14.2317,-0.008786599,0.70228,1.0278
143.769,14.3211,-0.0094304,0.71611,1.02678
146.569,14.41061,-0.008120001,0.73095,1.02574
149.369,14.49957,-0.008119531,0.74146,1.0247
152.169,14.58791,-0.00945901,0.75087,1.02364
154.969,14.67663,-0.008133025,0.76399,1.02257
157.769,14.76494,-0.00944,0.77643,1.02149
160.569,14.8529,-0.00944,0.78454,1.0204
163.369,14.94077,-0.01079213,0.79308,1.01929
166.169,15.02844,-0.008448734,0.80257,1.01817
168.969,15.11602,-0.008454002,0.81149,1.01704
171.769,15.20292,-0.009770001,0.82315,1.0159
174.569,15.2904,-0.00977,0.82921,1.01474
177.369,15.3772,-0.009449854,0.84189,1.01358
180.169,15.4639,-0.01043741,0.84936,1.0124
182.969,15.5501,-0.009076109,0.85658,1.01121
185.769,15.6361,-0.00944,0.86397,1.01001
188.569,15.72189,-0.009440041,0.87259,1.00879
191.369,15.80751,-0.01075952,0.88297,1.00757
194.169,15.89298,-0.01142001,0.89187,1.00633
196.969,15.97845,-0.01009987,0.90133,1.00508
199.769,16.06372,-0.01109009,0.91238,1.00382
202.569,16.1489,-0.01139645,0.91923,1.00255
205.369,16.23402,-0.01075343,0.93264,1.00127
208.169,16.3186,-0.01109,0.94362,0.99997
210.969,16.4039,-0.01109,0.95517,0.99867
213.769,16.48884,-0.01109,0.96727,0.99735
216.569,16.57359,-0.01109,0.98025,0.99602
219.369,16.65843,-0.01108385,0.99893,0.99469
222.169,16.74307,-0.01043,1.01724,0.99334
224.969,16.82765,-0.01043143,1.03863,0.99198
227.769,16.91238,-0.01175066,1.05842,0.99061
230.569,16.99699,-0.01306094,1.08266,0.98922
233.369,17.0813,-0.01306992,1.11428,0.98783
236.169,17.16609,-0.01306999,1.15719,0.98643
238.969,17.2505,-0.01438022,1.21143,0.98502
241.769,17.33517,-0.01438,1.28721,0.98359
244.569,17.41951,-0.01438168,1.39856,0.98216
247.369,17.50416,-0.01339,1.55793,0.98071
250.169,17.5889,-0.01339,1.81674,0.97926
252.969,17.67362,-0.01306016,2.20616,0.97779
255.769,17.75844,-0.01306,2.66466,0.97632
258.569,17.84371,-0.01306026,2.92919,0.97483
261.369,17.92882,-0.01174998,2.70195,0.97334
264.169,18.01342,-0.01273014,2.17371,0.97183
266.969,18.09749,-0.01273004,1.75855,0.97031
269.769,18.18157,-0.01338997,1.49689,0.96879
272.569,18.26525,-0.01339,1.33629,0.96725
275.369,18.34891,-0.01339,1.24411,0.96571
278.169,18.43295,-0.01339292,1.19091,0.96415
280.969,18.51672,-0.01505732,1.16208,0.96259
283.769,18.60079,-0.01504,1.14952,0.96102
286.569,18.6848,-0.01504,1.13864,0.95943
289.369,18.76905,-0.0150399,1.1389,0.95784
292.169,18.8533,-0.0157,1.13462,0.95624
294.969,18.9375,-0.0157,1.13435,0.95463
297.769,19.02184,-0.0143621,1.13653,0.95301
300.569,19.10613,-0.01437996,1.13807,0.95138
303.369,19.19063,-0.01569998,1.13784,0.94974
306.169,19.27494,-0.01458712,1.13763,0.94809
308.969,19.35942,-0.01438224,1.14035,0.94644
311.769,19.44398,-0.01564755,1.14421,0.94477
314.569,19.52836,-0.01701,1.14461,0.9431
317.369,19.61335,-0.01701,1.14926,0.94142
320.169,19.69797,-0.01680345,1.14831,0.93973
322.969,19.78269,-0.01768027,1.15062,0.93803
325.769,19.86759,-0.01768,1.1496,0.93632
328.569,19.95252,-0.01705013,1.15049,0.9346
331.369,20.0374,-0.01570007,1.15286,0.93288
334.169,20.12257,-0.01701993,1.15462,0.93114
336.969,20.20748,-0.01701969,1.15498,0.9294
339.769,20.2923,-0.01833026,1.1577,0.92765
342.569,20.3774,-0.01965,1.15916,0.92589
345.369,20.46301,-0.0196488,1.16118,0.92413
348.169,20.5483,-0.02097,1.16351,0.92235
350.969,20.63363,-0.02097,1.16502,0.92057
353.769,20.7189,-0.02097001,1.16721,0.91878
356.569,20.80388,-0.0206451,1.16872,0.91698
359.369,20.8898,-0.02195877,1.16882,0.91518
362.169,20.97543,-0.02328,1.16942,0.91337
364.969,21.06101,-0.02327927,1.17119,0.91154
367.769,21.14688,-0.02361002,1.17493,0.90972
370.569,21.23242,-0.02491999,1.1796,0.90788
373.369,21.31844,-0.02515258,1.18652,0.90604
376.169,21.40425,-0.02692565,1.19809,0.90419
378.969,21.4903,-0.02822008,1.20762,0.90233
381.769,21.57626,-0.02830894,1.22325,0.90047
384.569,21.66251,-0.03084864,1.23752,0.89859
387.369,21.74878,-0.03350863,1.25386,0.89671
390.169,21.83515,-0.0360035,1.2701,0.89483
392.969,21.92141,-0.03775433,1.29056,0.89294
395.769,22.00796,-0.04079396,1.31609,0.89104
398.569,22.0945,-0.04642149,1.34175,0.88913
401.369,22.1811,-0.05151341,1.36815,0.88722
404.169,22.2678,-0.05855977,1.39946,0.8853
406.969,22.35435,-0.06708313,1.43567,0.88337
409.769,22.44146,-0.07874425,1.4714,0.88144
412.569,22.52846,-0.0909514,1.50848,0.8795
415.369,22.61544,-0.10884,1.54787,0.87755
418.169,22.7025,-0.12955,1.58803,0.8756
420.969,22.78971,-0.15706,1.60603,0.87364
423.769,22.87676,-0.18655,1.60622,0.87167
426.569,22.96438,-0.22241,1.64439,0.8697
429.369,23.05167,-0.26626,1.69027,0.86772
432.169,23.13926,-0.31759,1.74122,0.86574
434.969,23.22653,-0.37864,1.81675,0.86375
437.769,23.31439,-0.4507,1.8977,0.86176
440.569,23.40217,-0.53532,2.00223,0.85975
443.369,23.4899,-0.63292,2.11549,0.85775
446.169,23.57793,-0.74813,2.24106,0.85574
448.969,23.66581,-0.87816,2.34964,0.85372
451.769,23.75422,-1.02781,2.44877,0.85169
454.569,23.84242,-1.19829,2.55958,0.84966
457.369,23.93092,-1.38682,2.59869,0.84763
460.169,24.01931,-1.59045,2.62084,0.84559
462.969,24.10752,-1.82103,2.59474,0.84354
465.769,24.19611,-2.04443,2.54625,0.84149
468.569,24.28446,-2.26322,2.43445,0.83943
471.369,24.3728,-2.46375,2.25304,0.83737
474.169,24.46126,-2.63381,2.01046,0.83531
476.969,24.54932,-2.78134,1.72876,0.83324
479.769,24.6375,-2.89012,1.44754,0.83116
482.569,24.72573,-2.96682,1.19933,0.82908
485.369,24.81387,-3.02522,1.00655,0.82699
488.169,24.9023,-3.06617,0.84901,0.8249
490.969,24.9906,-3.0974,0.7207,0.8228
493.769,25.0793,-3.1238,0.60936,0.8207
496.569,25.1675,-3.14494,0.51395,0.8186
499.369,25.25674,-3.15936,0.43171,0.81649
502.169,25.34569,-3.17145,0.35995,0.81437
504.969,25.43477,-3.18192,0.30337,0.81226
507.769,25.5239,-3.19315,0.25775,0.81013
510.569,25.61319,-3.20192,0.22429,0.808
513.369,25.7022,-3.20996,0.20055,0.80587
516.169,25.79212,-3.21643,0.18377,0.80374
518.969,25.88162,-3.21997,0.16875,0.8016
521.769,25.9713,-3.22499,0.1588,0.79945
524.569,26.06105,-3.22856,0.15314,0.79731
527.369,26.15089,-3.23371,0.1486,0.79515
530.169,26.2409,-3.23576,0.14568,0.793
532.969,26.33083,-3.24146,0.14163,0.79084
535.769,26.42098,-3.24291,0.14053,0.78867
538.569,26.5111,-3.24706,0.14908,0.78651
541.369,26.60117,-3.2512,0.15115,0.78434
544.169,26.6915,-3.25272,0.14792,0.78216
546.969,26.78156,-3.25673,0.14648,0.77998
549.769,26.8721,-3.25876,0.14566,0.7778
552.569,26.9625,-3.26089,0.14622,0.77562
555.369,27.053,-3.26221,0.14732,0.77343
558.169,27.1435,-3.2629,0.1458,0.77124
560.969,27.2342,-3.26616,0.15384,0.76904
563.769,27.3247,-3.26753,0.15218,0.76685
566.569,27.4154,-3.26748,0.1523,0.76464
569.369,27.5061,-3.27023,0.15511,0.76244
572.169,27.597,-3.27154,0.15315,0.76023
574.969,27.6878,-3.27394,0.15125,0.75802
577.769,27.77872,-3.27545,0.1494,0.75581
580.569,27.8698,-3.27691,0.15161,0.75359
583.369,27.9608,-3.27708,0.15021,0.75138
586.169,28.0518,-3.27813,0.14806,0.74915
588.969,28.14306,-3.27972,0.14839,0.74693
591.769,28.23443,-3.28077,0.14361,0.7447
594.569,28.32576,-3.28341,0.14221,0.74247
597.369,28.4171,-3.28604,0.14235,0.74024
600.169,28.5086,-3.28867,0.14249,0.73801
602.969,28.5999,-3.2913,0.13765,0.73577
605.769,28.6917,-3.29346,0.1351,0.73353
608.569,28.78343,-3.29521,0.13391,0.73129
611.369,28.87507,-3.29769,0.13334,0.72905
614.169,28.96684,-3.29789,0.13415,0.7268
616.969,29.0586,-3.29983,0.13352,0.72455
619.769,29.15039,-3.30015,0.13371,0.7223
622.569,29.24217,-3.30276,0.13451,0.72005
625.369,29.33405,-3.3039,0.13682,0.7178
628.169,29.4257,-3.30696,0.13431,0.71554
630.969,29.5177,-3.30947,0.13544,0.71329
633.769,29.60949,-3.31095,0.1386,0.71103
636.569,29.70123,-3.31308,0.1405,0.70877
639.369,29.79278,-3.3149,0.13819,0.7065
642.169,29.8849,-3.31622,0.14145,0.70424
644.969,29.97675,-3.31753,0.1443,0.70197
647.769,30.0686,-3.31755,0.14646,0.69971
650.569,30.16038,-3.31888,0.1557,0.69744
653.369,30.2523,-3.32281,0.15773,0.69517
656.169,30.3441,-3.32548,0.16176,0.69289
658.969,30.4359,-3.32744,0.16802,0.69062
661.769,30.5282,-3.32723,0.1731,0.68835
664.569,30.61996,-3.32907,0.17577,0.68607
667.369,30.71195,-3.32988,0.17822,0.6838
670.169,30.8039,-3.32938,0.18212,0.68152
672.969,30.89595,-3.3308,0.18255,0.67924
675.769,30.988,-3.33335,0.1846,0.67696
678.569,31.0801,-3.33467,0.18603,0.67468
681.369,31.1723,-3.33463,0.18799,0.6724
684.169,31.26438,-3.335,0.1882,0.67011
686.969,31.3567,-3.33643,0.19249,0.66783
689.769,31.4489,-3.33763,0.16959,0.66555
692.569,31.5411,-3.3389,0.06685137,0.66326
695.369,31.63335,-3.33862,0.02806252,0.66098
696.369,31.66627,-3.33862,0.02034521,0.66016

File: Polyester_Bed_Skirt_STA_N2_30KData_220524_R2.csv
##Temp./Â°C,Time/min,Mass loss(subtr.2)/mg,DSC(subtr.2)/(mW/mg),Sensit./(uV/mW)
48.64,10.00583,-0.00242,0.006446605,1.05399
51.44,10.84943,-0.001332555,0.13581,1.05341
54.24,11.06903,-0.002381357,0.22506,1.05283
57.04,11.23702,-0.002487755,0.29708,1.05223
59.84,11.38072,-0.00292566,0.35791,1.05161
62.64,11.51022,-0.002324363,0.40744,1.05098
65.44,11.63067,-0.001549021,0.45185,1.05033
68.24,11.74506,-0.002664182,0.49077,1.04968
71.04,11.85472,-0.002774277,0.53234,1.049
73.84,11.96163,-0.002766,0.56291,1.04832
76.64,12.06588,-0.00285981,0.58021,1.04762
79.44,12.16736,-0.002753416,0.57607,1.0469
82.24,12.26821,-0.00287477,0.56654,1.04617
85.04,12.36714,-0.002795109,0.55804,1.04543
87.84,12.46469,-0.002823323,0.55104,1.04467
90.64,12.56121,-0.003183175,0.54497,1.04391
93.44,12.65691,-0.003303222,0.53815,1.04312
96.24,12.75223,-0.001625734,0.53624,1.04233
99.04,12.84666,-0.001972437,0.53784,1.04151
101.84,12.9409,-0.00179384,0.5423,1.04069
104.64,13.03483,-0.003227667,0.54947,1.03985
107.44,13.1288,-0.001354674,0.56247,1.039
110.24,13.2225,-0.0006420592,0.57881,1.03814
113.04,13.31591,-0.0006414131,0.5945,1.03726
115.84,13.40916,-0.001965783,0.61426,1.03637
118.64,13.5018,-0.00197999,0.6331,1.03547
121.44,13.59455,-0.002709605,0.6498,1.03455
124.24,13.6866,-0.001979942,0.66798,1.03362
127.04,13.77837,-0.002382436,0.6852,1.03268
129.84,13.8697,-0.001979913,0.70652,1.03172
132.64,13.96076,-0.001976537,0.72027,1.03075
135.44,14.05136,-0.0006708652,0.736,1.02977
138.24,14.1416,-0.002959973,0.75457,1.02878
141.04,14.23138,-0.0042861,0.77122,1.02777
143.84,14.3207,-0.00297006,0.78525,1.02675
146.64,14.4101,-0.00297,0.79958,1.02572
149.44,14.4989,-0.002613929,0.81557,1.02467
152.24,14.58745,-0.00297,0.82511,1.02362
155.04,14.67598,-0.002855254,0.83828,1.02255
157.84,14.7641,-0.001848255,0.84686,1.02146
160.64,14.8521,-0.003627718,0.86048,1.02037
163.44,14.93989,-0.002272619,0.86914,1.01926
166.24,15.0277,-0.0023,0.87825,1.01814
169.04,15.11524,-0.003614772,0.88887,1.01701
171.84,15.202,-0.003015709,0.90211,1.01587
174.64,15.2896,-0.002300001,0.90986,1.01471
177.44,15.37662,-0.0009967537,0.92074,1.01355
180.24,15.4634,-0.002993778,0.93123,1.01237
183.04,15.54943,-0.002969763,0.93953,1.01118
185.84,15.63594,-0.00297,0.94983,1.00998
188.64,15.722,-0.00297,0.96044,1.00876
191.44,15.80766,-0.00297,0.96748,1.00754
194.24,15.8927,-0.004293515,0.9817,1.0063
197.04,15.9785,-0.004290009,0.99089,1.00505
199.84,16.064,-0.002969856,1.00172,1.00379
202.64,16.1492,-0.00297,1.01571,1.00252
205.44,16.23378,-0.002999322,1.02625,1.00123
208.24,16.31949,-0.00429,1.03786,0.99994
211.04,16.4043,-0.004289977,1.05153,0.99864
213.84,16.48955,-0.002969916,1.06597,0.99732
216.64,16.57442,-0.004276407,1.08321,0.99599
219.44,16.65908,-0.004619804,1.09786,0.99465
222.24,16.74394,-0.003308029,1.11588,0.9933
225.04,16.82874,-0.0033,1.139,0.99194
227.84,16.91299,-0.0033,1.15992,0.99057
230.64,16.9981,-0.004615762,1.18392,0.98919
233.44,17.08266,-0.00461,1.21613,0.9878
236.24,17.16739,-0.00461,1.26138,0.98639
239.04,17.25194,-0.00461,1.3157,0.98498
241.84,17.33624,-0.004738106,1.39482,0.98356
244.64,17.4211,-0.007253635,1.50634,0.98212
247.44,17.50572,-0.00593,1.66953,0.98068
250.24,17.59025,-0.005155978,1.92952,0.97922
253.04,17.67527,-0.00547306,2.33091,0.97775
255.84,17.76031,-0.0056,2.81691,0.97628
258.64,17.84551,-0.005599511,3.03809,0.97479
261.44,17.93072,-0.00494995,2.71208,0.9733
264.24,18.01555,-0.00359537,2.19461,0.97179
267.04,18.09939,-0.004940056,1.8139,0.97028
269.84,18.1835,-0.00625999,1.57206,0.96875
272.64,18.2675,-0.00758024,1.42559,0.96721
275.44,18.3512,-0.00758002,1.34222,0.96567
278.24,18.43509,-0.00658992,1.2961,0.96411
281.04,18.51911,-0.00659,1.27063,0.96255
283.84,18.60324,-0.00659,1.25718,0.96098
286.64,18.68705,-0.006590001,1.25264,0.95939
289.44,18.77145,-0.006919795,1.24938,0.9578
292.24,18.85575,-0.00692,1.25016,0.9562
295.04,18.93985,-0.00692,1.25023,0.95459
297.84,19.02421,-0.006919392,1.25215,0.95297
300.64,19.10835,-0.006589999,1.25527,0.95134
303.44,19.19298,-0.007619683,1.25736,0.9497
306.24,19.27717,-0.00791,1.26027,0.94805
309.04,19.3617,-0.007910917,1.26321,0.9464
311.84,19.4461,-0.00692,1.26723,0.94473
314.64,19.53079,-0.00692029,1.26816,0.94306
317.44,19.61514,-0.00791,1.27061,0.94137
320.24,19.69973,-0.00856978,1.27281,0.93968
323.04,19.78441,-0.008240021,1.2764,0.93798
325.84,19.86925,-0.00824,1.27713,0.93627
328.64,19.954,-0.008239957,1.27707,0.93456
331.44,20.03884,-0.01021016,1.27805,0.93283
334.24,20.12357,-0.01021,1.28166,0.9311
337.04,20.2083,-0.010095,1.2842,0.92936
339.84,20.29374,-0.00988,1.28875,0.92761
342.64,20.37867,-0.009545315,1.29098,0.92585
345.44,20.4639,-0.00955,1.29322,0.92408
348.24,20.54906,-0.00953286,1.29807,0.92231
351.04,20.63421,-0.01087,1.3018,0.92053
353.84,20.71964,-0.01219132,1.30644,0.91874
356.64,20.80518,-0.01285,1.3062,0.91694
359.44,20.89059,-0.01285,1.3086,0.91513
362.24,20.9761,-0.01286594,1.31387,0.91332
365.04,21.06172,-0.01318864,1.31905,0.9115
367.84,21.14752,-0.0135119,1.3251,0.90967
370.64,21.23329,-0.01614026,1.33091,0.90783
373.44,21.31906,-0.01515001,1.33793,0.90599
376.24,21.40502,-0.01646998,1.34627,0.90414
379.04,21.49098,-0.01906779,1.35749,0.90228
381.84,21.5771,-0.01911897,1.36737,0.90042
384.64,21.66321,-0.02115531,1.38222,0.89855
387.44,21.74932,-0.0229876,1.39645,0.89667
390.24,21.83575,-0.0253164,1.40868,0.89478
393.04,21.9219,-0.02733488,1.42643,0.89289
395.84,22.00848,-0.03000926,1.44919,0.89099
398.64,22.0951,-0.03378788,1.47386,0.88908
401.44,22.1818,-0.04095068,1.49915,0.88717
404.24,22.26844,-0.04705597,1.52782,0.88525
407.04,22.35512,-0.05464582,1.56116,0.88332
409.84,22.44196,-0.06679801,1.60059,0.88139
412.64,22.52872,-0.08081551,1.63709,0.87945
415.44,22.61605,-0.0960722,1.67641,0.8775
418.24,22.70307,-0.11693,1.71724,0.87555
421.04,22.79005,-0.14364,1.73048,0.87359
423.84,22.8774,-0.1745,1.70621,0.87162
426.64,22.96475,-0.21089,1.65804,0.86965
429.44,23.05217,-0.2494,1.62606,0.86767
432.24,23.13956,-0.29531,1.59036,0.86569
435.04,23.22703,-0.343,1.57226,0.8637
437.84,23.31448,-0.39653,1.59537,0.86171
440.64,23.4023,-0.46129,1.67749,0.8597
443.44,23.49002,-0.54196,1.80482,0.8577
446.24,23.57829,-0.64216,1.95488,0.85568
449.04,23.66637,-0.74931,2.11365,0.85367
451.84,23.7547,-0.89264,2.27082,0.85164
454.64,23.84337,-1.05267,2.4066,0.84961
457.44,23.93184,-1.22018,2.49368,0.84758
460.24,24.02044,-1.41665,2.54082,0.84554
463.04,24.10915,-1.62342,2.56092,0.84349
465.84,24.19772,-1.85912,2.52557,0.84144
468.64,24.28634,-2.07934,2.41672,0.83938
471.44,24.37499,-2.29033,2.23328,0.83732
474.24,24.46348,-2.46745,1.98401,0.83525
477.04,24.5517,-2.62252,1.70368,0.83318
479.84,24.64002,-2.74517,1.40946,0.83111
482.64,24.72813,-2.83359,1.14239,0.82902
485.44,24.8162,-2.89995,0.92615,0.82694
488.24,24.9045,-2.94658,0.7464,0.82485
491.04,24.99297,-2.98366,0.59836,0.82275
493.84,25.08135,-3.01363,0.47282,0.82065
496.64,25.17003,-3.03615,0.36626,0.81854
499.44,25.25864,-3.05301,0.27546,0.81643
502.24,25.34746,-3.06924,0.20254,0.81432
505.04,25.43637,-3.08219,0.14473,0.8122
507.84,25.52516,-3.09296,0.10182,0.81008
510.64,25.61439,-3.10167,0.06581631,0.80795
513.44,25.70364,-3.10796,0.04212304,0.80582
516.24,25.7931,-3.11493,0.02643643,0.80368
519.04,25.88267,-3.11848,0.01716096,0.80154
521.84,25.97229,-3.12312,0.01044028,0.7994
524.64,26.0619,-3.12764,0.002939416,0.79725
527.44,26.15152,-3.13341,0.002088376,0.7951
530.24,26.2415,-3.13618,-0.000916054,0.79294
533.04,26.33138,-3.13906,-0.001878795,0.79078
535.84,26.4214,-3.14168,-0.00476048,0.78862
538.64,26.5115,-3.14442,-0.003539328,0.78645
541.44,26.60165,-3.1463,-0.00194976,0.78428
544.24,26.69182,-3.14804,0.0006264146,0.78211
547.04,26.7823,-3.15068,0.00250956,0.77993
549.84,26.8726,-3.15331,0.007994567,0.77775
552.64,26.96305,-3.15535,0.01383397,0.77556
555.44,27.05315,-3.15627,0.01692397,0.77337
558.24,27.1438,-3.15726,0.0173481,0.77118
561.04,27.23436,-3.15995,0.0226959,0.76899
563.84,27.32508,-3.16018,0.02404382,0.76679
566.64,27.41558,-3.16277,0.02721241,0.76459
569.44,27.5063,-3.16385,0.03239397,0.76238
572.24,27.59722,-3.16535,0.03591883,0.76018
575.04,27.68808,-3.1678,0.03564768,0.75797
577.84,27.7788,-3.16912,0.03878323,0.75575
580.64,27.8699,-3.17044,0.04159084,0.75354
583.44,27.961,-3.17044,0.04331929,0.75132
586.24,28.05201,-3.17367,0.0453193,0.7491
589.04,28.1431,-3.17519,0.04618454,0.74687
591.84,28.23433,-3.17618,0.04551231,0.74465
594.64,28.3255,-3.17768,0.0593251,0.74242
597.44,28.4168,-3.18108,0.06220829,0.74019
600.24,28.50808,-3.18164,0.06674256,0.73795
603.04,28.59951,-3.18365,0.06465314,0.73571
605.84,28.691,-3.18559,0.07962073,0.73348
608.64,28.7824,-3.18943,0.08208088,0.73123
611.44,28.87373,-3.19086,0.08108953,0.72899
614.24,28.96538,-3.19118,0.08359288,0.72675
617.04,29.05704,-3.19517,0.08586688,0.7245
619.84,29.1485,-3.19515,0.09044613,0.72225
622.64,29.23997,-3.19646,0.09701946,0.72
625.44,29.3319,-3.19908,0.10025,0.71774
628.24,29.4235,-3.20053,0.10269,0.71549
631.04,29.5151,-3.20315,0.10853,0.71323
633.84,29.60695,-3.20447,0.10546,0.71097
636.64,29.69864,-3.20578,0.09727696,0.70871
639.44,29.7905,-3.20842,0.09611932,0.70645
642.24,29.88215,-3.20962,0.09422118,0.70418
645.04,29.97399,-3.21058,0.09949688,0.70192
647.84,30.0655,-3.21237,0.11185,0.69965
650.64,30.1577,-3.21369,0.11847,0.69738
653.44,30.2496,-3.21501,0.11865,0.69511
656.24,30.3416,-3.21728,0.12895,0.69284
659.04,30.43357,-3.21896,0.1349,0.69056
661.84,30.52562,-3.22028,0.13991,0.68829
664.64,30.6173,-3.22162,0.14479,0.68601
667.44,30.7097,-3.22229,0.15033,0.68374
670.24,30.802,-3.22323,0.15779,0.68146
673.04,30.8943,-3.22456,0.16404,0.67918
675.84,30.98654,-3.22587,0.16735,0.6769
678.64,31.07858,-3.22719,0.17686,0.67462
681.44,31.17137,-3.22715,0.18762,0.67234
684.24,31.2637,-3.22852,0.1879,0.67006
687.04,31.35623,-3.22984,0.18838,0.66777
689.84,31.4488,-3.23081,0.199,0.66549
692.64,31.5413,-3.23076,0.20893,0.66321
695.44,31.63387,-3.23213,0.21366,0.66092
696.34,31.6638,-3.23214,0.2156,0.66019