Folder: fsri_materials_database/01_Data/Polyester_Bed_Skirt/STA/N2/3K_min

Note: 01_Data/README.md
# Materials and Products Database
## 01_Data

Raw data generated from each apparatus are included here in plain-text format. The data is organized first by material, next by the short name of test apparatus used, and where applicable additional filtering by test settings.

### material.json

Each material directory contains a json file of the same name as the material. This file links the data stored in the repository as well as data and graphs produced by the accompanying scripts (__02_Scripts__) to the respective landing page for the material on the front-end website.

File: Polyester_Bed_Skirt_STA_N2_3KData_220525_R1.csv
##Temp./Â°C,Time/min,DSC(subtr.2)/(mW/mg),Mass loss(subtr.2)/mg,Sensit./(uV/mW)
50.201,10.01667,0.00895743,-0.01482,1.05675
53.101,12.1881,0.05620431,-0.0194901,1.05642
56.001,13.28861,0.06404547,-0.02033079,1.05608
58.901,14.3365,0.06619064,-0.02152,1.05573
61.801,15.351,0.06833776,-0.02283593,1.05537
64.701,16.3443,0.07334862,-0.02295067,1.05499
67.601,17.32836,0.07403797,-0.02563284,1.0546
70.501,18.302,0.07399756,-0.02358362,1.05419
73.401,19.27319,0.07017152,-0.02525,1.05377
76.301,20.24693,0.07037738,-0.02575334,1.05334
79.201,21.216,0.06793841,-0.02623788,1.05289
82.101,22.18286,0.06437022,-0.02624001,1.05243
85.001,23.14692,0.06512926,-0.02656944,1.05196
87.901,24.1122,0.06278625,-0.02844201,1.05147
90.801,25.07854,0.06258747,-0.02973832,1.05097
93.701,26.0454,0.06449028,-0.03012869,1.05045
96.601,27.00631,0.06518371,-0.02978843,1.04992
99.501,27.9641,0.06672098,-0.02972123,1.04938
102.401,28.92183,0.06776444,-0.0297522,1.04882
105.301,29.8805,0.07250699,-0.02971292,1.04825
108.201,30.83633,0.07464518,-0.03054719,1.04766
111.101,31.7926,0.07632213,-0.0294227,1.04706
114.001,32.74873,0.07793356,-0.02976475,1.04645
116.901,33.70219,0.08041755,-0.03020289,1.04582
119.801,34.65837,0.08639578,-0.03270284,1.04518
122.701,35.61619,0.08681527,-0.03273779,1.04452
125.601,36.5715,0.09007414,-0.03402866,1.04385
128.501,37.52335,0.09196761,-0.03369255,1.04316
131.401,38.4743,0.0928201,-0.03241432,1.04246
134.301,39.43076,0.09645151,-0.03172775,1.04174
137.201,40.37976,0.09866471,-0.03304007,1.04101
140.101,41.33269,0.10024,-0.03578997,1.04027
143.001,42.2802,0.09926207,-0.03551058,1.03951
145.901,43.23025,0.10109,-0.03414004,1.03873
148.801,44.17923,0.09991419,-0.03657004,1.03794
151.701,45.12599,0.1051,-0.03677842,1.03714
154.601,46.0736,0.10569,-0.03708906,1.03632
157.501,47.0231,0.10765,-0.03743847,1.03549
160.401,47.9715,0.10975,-0.03719393,1.03464
163.301,48.92003,0.10873,-0.03579008,1.03378
166.201,49.86331,0.11076,-0.036117,1.0329
169.101,50.80818,0.11002,-0.03763105,1.032
172.001,51.7504,0.11145,-0.03743478,1.03109
174.901,52.6937,0.11233,-0.03843002,1.03017
177.801,53.6375,0.11342,-0.03851216,1.02923
180.701,54.57739,0.11552,-0.03908,1.02828
183.601,55.5199,0.11841,-0.04029368,1.02731
186.501,56.4671,0.11934,-0.04205054,1.02632
189.401,57.4103,0.11732,-0.04128177,1.02532
192.301,58.35329,0.1208,-0.03951253,1.0243
195.201,59.2934,0.122,-0.04160973,1.02327
198.101,60.23494,0.12117,-0.04193984,1.02223
201.001,61.17199,0.12473,-0.04326716,1.02116
203.901,62.11481,0.12514,-0.0445835,1.02009
206.801,63.05829,0.12531,-0.04253408,1.01899
209.701,63.99722,0.13068,-0.0452326,1.01789
212.601,64.93273,0.13127,-0.0439086,1.01676
215.501,65.87246,0.13074,-0.0434422,1.01562
218.401,66.815,0.13182,-0.04555903,1.01447
221.301,67.7556,0.13369,-0.04522053,1.0133
224.201,68.69315,0.13783,-0.04617105,1.01211
227.101,69.63162,0.13807,-0.04599814,1.01091
230.001,70.5748,0.13961,-0.04798088,1.00969
232.901,71.5116,0.14457,-0.04633095,1.00846
235.801,72.4504,0.14871,-0.04928994,1.00721
238.701,73.39063,0.1513,-0.04667062,1.00595
241.601,74.3305,0.15927,-0.04667061,1.00467
244.501,75.26993,0.16616,-0.04765025,1.00337
247.401,76.21093,0.17978,-0.04669926,1.00206
250.301,77.15417,0.20681,-0.0483116,1.00073
253.201,78.09375,0.25867,-0.0497273,0.99939
256.101,79.03524,0.38876,-0.0475634,0.99803
259.001,79.98174,0.40021,-0.04963071,0.99665
261.901,80.9199,0.30443,-0.04930507,0.99526
264.801,81.8542,0.20945,-0.04928287,0.99386
267.701,82.79406,0.16769,-0.04797947,0.99244
270.601,83.73268,0.15511,-0.04995928,0.991
273.501,84.66999,0.15115,-0.05083266,0.98954
276.401,85.60643,0.14605,-0.04929192,0.98807
279.301,86.54697,0.14174,-0.04962,0.98659
282.201,87.48951,0.14366,-0.05059036,0.98509
285.101,88.43171,0.14517,-0.0522692,0.98357
288.001,89.37143,0.14903,-0.05146439,0.98204
290.901,90.31266,0.14578,-0.05324983,0.98049
293.801,91.2581,0.14491,-0.05199747,0.97893
296.701,92.20142,0.14738,-0.0545699,0.97735
299.601,93.14248,0.14995,-0.05489933,0.97575
302.501,94.0844,0.15062,-0.05490005,0.97414
305.401,95.0274,0.15217,-0.05526529,0.97251
308.301,95.97545,0.15276,-0.05792392,0.97087
311.201,96.92098,0.15213,-0.05781471,0.96921
314.101,97.8636,0.15403,-0.05829053,0.96754
317.001,98.807,0.15495,-0.05878051,0.96585
319.901,99.75211,0.15707,-0.05852453,0.96414
322.801,100.6943,0.1557,-0.05962045,0.96242
325.701,101.638,0.15668,-0.06133413,0.96068
328.601,102.582,0.15688,-0.06327483,0.95893
331.501,103.528,0.15826,-0.06389195,0.95716
334.401,104.473,0.15836,-0.06499236,0.95538
337.301,105.416,0.15724,-0.06850819,0.95358
340.201,106.365,0.15823,-0.06982925,0.95176
343.101,107.315,0.16349,-0.07247069,0.94993
346.001,108.263,0.16979,-0.07608283,0.94809
348.901,109.209,0.17382,-0.07922843,0.94623
351.801,110.157,0.1771,-0.08134831,0.94435
354.701,111.1043,0.1824,-0.08856301,0.94246
357.601,112.0537,0.19172,-0.09434496,0.94055
360.501,113.002,0.19035,-0.10374,0.93863
363.401,113.949,0.19467,-0.11427,0.93669
366.301,114.897,0.19085,-0.1278,0.93474
369.201,115.848,0.19448,-0.14291,0.93277
372.101,116.796,0.20468,-0.16387,0.93078
375.001,117.744,0.20719,-0.18972,0.92879
377.901,118.696,0.21557,-0.22078,0.92677
380.801,119.65,0.22048,-0.26118,0.92474
383.701,120.604,0.23751,-0.30727,0.9227
386.601,121.554,0.25042,-0.36639,0.92064
389.501,122.505,0.2587,-0.4395,0.91857
392.401,123.457,0.27254,-0.52378,0.91648
395.301,124.41,0.29561,-0.62479,0.91438
398.201,125.37,0.31448,-0.74953,0.91226
401.101,126.321,0.32664,-0.89286,0.91013
404.001,127.2713,0.33347,-1.05791,0.90798
406.901,128.227,0.3427,-1.2437,0.90582
409.801,129.178,0.35114,-1.4509,0.90365
412.701,130.1317,0.35463,-1.67655,0.90146
415.601,131.086,0.35193,-1.91399,0.89925
418.501,132.043,0.33878,-2.15242,0.89703
421.401,132.999,0.32025,-2.37862,0.8948
424.301,133.948,0.29454,-2.5742,0.89255
427.201,134.899,0.26279,-2.73153,0.89029
430.101,135.853,0.23197,-2.84771,0.88802
433.001,136.811,0.20231,-2.93062,0.88573
435.901,137.765,0.18131,-2.991,0.88342
438.801,138.722,0.16565,-3.03781,0.88111
441.701,139.679,0.14897,-3.07535,0.87878
444.601,140.635,0.13211,-3.10606,0.87643
447.501,141.594,0.11698,-3.12813,0.87408
450.401,142.556,0.10131,-3.1458,0.8717
453.301,143.513,0.09694628,-3.1627,0.86932
456.201,144.464,0.09293682,-3.17419,0.86692
459.101,145.421,0.10324,-3.1867,0.86451
462.001,146.379,0.07313827,-3.19493,0.86209
464.901,147.342,0.05916574,-3.20382,0.85965
467.801,148.302,0.04443961,-3.21077,0.8572
470.701,149.259,0.03828797,-3.21863,0.85473
473.601,150.22,0.03391592,-3.22207,0.85226
476.501,151.184,0.02990256,-3.22753,0.84977
479.401,152.145,0.02678543,-3.2314,0.84727
482.301,153.108,0.0262119,-3.23709,0.84475
485.201,154.069,0.02761083,-3.23971,0.84223
488.101,155.029,0.02822257,-3.24265,0.83969
491.001,155.988,0.02891425,-3.24794,0.83714
493.901,156.956,0.02615637,-3.25123,0.83457
496.801,157.921,0.03098506,-3.25486,0.832
499.701,158.879,0.03301623,-3.25716,0.82941
502.601,159.842,0.03312241,-3.26013,0.82681
505.501,160.805,0.0344139,-3.2621,0.8242
508.401,161.769,0.03715828,-3.26441,0.82158
511.301,162.734,0.03811061,-3.26474,0.81894
514.201,163.695,0.03997746,-3.26845,0.81629
517.101,164.6565,0.04099276,-3.26951,0.81364
520.001,165.627,0.03884015,-3.27061,0.81097
522.901,166.592,0.03789263,-3.27396,0.80829
525.801,167.554,0.03785678,-3.27464,0.8056
528.701,168.516,0.03920199,-3.27626,0.8029
531.601,169.482,0.03835553,-3.27758,0.80018
534.501,170.449,0.0395663,-3.27956,0.79746
537.401,171.417,0.03910258,-3.2812,0.79473
540.301,172.383,0.03706945,-3.28252,0.79198
543.201,173.348,0.03704522,-3.2845,0.78923
546.101,174.318,0.03596317,-3.28713,0.78646
549.001,175.282,0.03651925,-3.28977,0.78369
551.901,176.25,0.03684288,-3.28942,0.7809
554.801,177.215,0.04094514,-3.29369,0.77811
557.701,178.182,0.04349673,-3.29669,0.7753
560.601,179.15,0.04215235,-3.29933,0.77249
563.501,180.118,0.04203264,-3.29996,0.76967
566.401,181.085,0.04392297,-3.30207,0.76683
569.301,182.0585,0.04269104,-3.30204,0.76399
572.201,183.0241,0.04461052,-3.30558,0.76114
575.101,183.993,0.04334738,-3.3092,0.75828
578.001,184.964,0.05628932,-3.30855,0.75541
580.901,185.929,0.05800581,-3.31085,0.75253
583.801,186.898,0.06623572,-3.31348,0.74964
586.701,187.87,0.06399991,-3.31594,0.74675
589.601,188.838,0.06404768,-3.31708,0.74384
592.501,189.809,0.06924663,-3.31743,0.74093
595.401,190.7813,0.07041012,-3.31941,0.73801
598.301,191.754,0.0737881,-3.32173,0.73508
601.201,192.728,0.07738437,-3.32304,0.73215
604.101,193.697,0.07297609,-3.32436,0.7292
607.001,194.668,0.08004474,-3.327,0.72625
609.901,195.637,0.08141467,-3.32698,0.72329
612.801,196.612,0.08909292,-3.33097,0.72033
615.701,197.586,0.09425733,-3.32952,0.71735
618.601,198.557,0.09699473,-3.33028,0.71437
621.501,199.525,0.10101,-3.33292,0.71139
624.401,200.501,0.1047,-3.33292,0.70839
627.301,201.475,0.10609,-3.33278,0.70539
630.201,202.444,0.10482,-3.33423,0.70238
633.101,203.4124,0.11178,-3.33622,0.69937
636.001,204.387,0.11267,-3.33587,0.69635
638.901,205.365,0.11872,-3.33686,0.69333
641.801,206.339,0.11837,-3.3372,0.69029
644.701,207.319,0.119,-3.33917,0.68726
647.601,208.287,0.12057,-3.33934,0.68421
650.501,209.259,0.12373,-3.33924,0.68117
653.401,210.237,0.12841,-3.34081,0.67811
656.301,211.213,0.13312,-3.3428,0.67505
659.201,212.189,0.13409,-3.34115,0.67199
662.101,213.165,0.13239,-3.34311,0.66892
665.001,214.139,0.13223,-3.34378,0.66585
667.901,215.118,0.13529,-3.34378,0.66277
670.801,216.094,0.13246,-3.34641,0.65969
673.701,217.073,0.13499,-3.34641,0.6566
676.601,218.044,0.13417,-3.34466,0.65351
679.501,219.016,0.13389,-3.34707,0.65041
682.401,219.997,0.13537,-3.34773,0.64731
685.301,220.977,0.13618,-3.34973,0.64421
688.201,221.957,0.13769,-3.35081,0.6411
691.101,222.934,0.1377,-3.35004,0.63799
694.001,223.909,0.13956,-3.35193,0.63488
696.901,224.882,0.13879,-3.35171,0.63176
699.801,225.859,0.13892,-3.35037,0.62864
702.101,226.635,0.12877,-3.35136,0.62617