Folder: fsri_materials_database/01_Data/Polystyrene_81C/MCC

Note: 01_Data/README.md
# Materials and Products Database
## 01_Data

Raw data generated from each apparatus are included here in plain-text format. The data is organized first by material, next by the short name of test apparatus used, and where applicable additional filtering by test settings.

### material.json

Each material directory contains a json file of the same name as the material. This file links the data stored in the repository as well as data and graphs produced by the accompanying scripts (__02_Scripts__) to the respective landing page for the material on the front-end website.

File: Polystyrene_81C_MCC_30K_min_220301_R2.txt
Sample ID:	C:\MCC\MCC Cal\Test\Polystyrene_81C_MCC_30K_min_220301_R2.txt
Sample Weight (mg):	4.4
Heating Rate (C/s):	0.5
Combustor Temp (C):	900
N2 Flow Rate (cc/min):	80
O2 Flow Rate (cc/min):	20
Calibration File:	C:\MCC\MCC Cal\Coeff1 JN10440_30_210304.txt.txt
T Correction Coefficients:	0	1.024463	0
Time Shift (s):	14
*
Time (s)	Temperature (C)	N2 flow rate (cc/min)	O2 flow rate (cc/min)	Flow Rate (cc/min)	Oxygen (%)	HRR (W/g)	Heating rate (C/s)
0.000	115.455	80.009	19.994	103.743	19.990	0.594	0.039
7.500	115.354	80.009	19.993	103.774	19.979	1.401	-0.014
14.999	115.460	80.009	19.994	103.798	19.971	1.986	0.029
22.499	115.729	80.006	19.994	103.833	19.970	2.082	0.025
29.999	116.335	80.008	19.994	103.909	19.956	3.076	0.157
37.499	117.380	80.009	19.993	103.943	19.951	3.444	0.123
45.000	118.788	80.009	19.993	103.978	19.946	3.867	0.218
52.499	120.584	80.010	19.994	103.971	19.944	3.975	0.259
59.999	122.775	80.010	19.994	103.960	19.941	4.195	0.313
67.499	125.058	80.009	19.994	103.946	19.939	4.329	0.329
75.000	127.551	80.007	19.996	103.956	19.945	3.889	0.361
82.499	130.174	80.008	19.995	103.975	19.943	4.036	0.356
89.999	133.024	80.009	19.993	103.980	19.942	4.115	0.375
97.499	135.989	80.008	19.994	103.982	19.940	4.260	0.350
104.999	139.090	80.008	19.994	103.984	19.939	4.323	0.419
112.499	142.357	80.008	19.994	103.984	19.943	4.073	0.425
119.999	145.695	80.010	19.994	103.979	19.942	4.097	0.446
127.499	149.169	80.010	19.993	103.981	19.937	4.462	0.493
135.000	152.626	80.009	19.993	103.980	19.939	4.375	0.479
142.500	156.174	80.010	19.993	103.978	19.939	4.355	0.459
150.000	159.840	80.009	19.993	103.980	19.939	4.337	0.508
157.500	163.497	80.008	19.994	103.983	19.938	4.421	0.464
165.000	167.251	80.008	19.995	103.977	19.939	4.332	0.484
172.500	171.100	80.008	19.995	103.972	19.937	4.485	0.527
180.000	174.856	80.007	19.996	103.951	19.941	4.224	0.510
187.500	178.670	80.009	19.993	103.943	19.940	4.303	0.522
195.000	182.517	80.009	19.994	103.943	19.942	4.117	0.502
202.500	186.359	80.009	19.993	103.941	19.942	4.105	0.496
210.000	190.157	80.009	19.993	103.937	19.942	4.089	0.543
217.500	193.950	80.011	19.993	103.934	19.940	4.270	0.499
225.000	197.628	80.011	19.992	103.926	19.941	4.167	0.518
232.500	201.307	80.010	19.993	103.942	19.941	4.210	0.489
240.000	205.084	80.007	19.994	103.927	19.942	4.117	0.507
247.500	208.782	80.009	19.993	103.927	19.943	4.036	0.518
255.000	212.508	80.008	19.993	103.924	19.941	4.191	0.508
262.500	216.195	80.010	19.994	103.906	19.938	4.382	0.466
270.000	219.897	80.007	19.996	103.912	19.937	4.501	0.482
277.500	223.553	80.009	19.994	103.907	19.939	4.364	0.469
285.000	227.255	80.011	19.994	103.919	19.938	4.451	0.473
292.500	231.080	80.010	19.993	103.926	19.937	4.463	0.498
300.000	234.835	80.008	19.993	103.907	19.936	4.543	0.519
307.500	238.536	80.011	19.993	103.905	19.937	4.485	0.474
315.000	242.231	80.009	19.993	103.901	19.938	4.446	0.517
322.500	245.975	80.008	19.994	103.902	19.935	4.666	0.475
330.000	249.806	80.009	19.993	103.899	19.937	4.474	0.551
337.500	253.588	80.009	19.994	103.897	19.937	4.503	0.513
345.000	257.385	80.009	19.994	103.904	19.932	4.879	0.534
352.500	261.098	80.010	19.995	103.903	19.930	4.974	0.467
360.000	264.858	80.008	19.994	103.899	19.928	5.169	0.495
367.500	268.525	80.009	19.994	103.890	19.928	5.125	0.488
375.000	272.322	80.009	19.995	103.899	19.926	5.316	0.478
382.500	276.085	80.011	19.993	103.892	19.925	5.411	0.506
390.000	279.821	80.011	19.994	103.887	19.916	6.015	0.473
397.500	283.619	80.011	19.993	103.884	19.911	6.390	0.490
405.000	287.366	80.010	19.995	103.885	19.906	6.775	0.492
412.500	291.143	80.009	19.993	103.880	19.898	7.336	0.504
420.000	294.939	80.009	19.993	103.879	19.895	7.569	0.474
427.500	298.741	80.008	19.994	103.875	19.888	8.065	0.549
435.000	302.547	80.007	19.994	103.877	19.883	8.433	0.518
442.500	306.380	80.010	19.995	103.887	19.878	8.845	0.523
450.000	310.169	80.010	19.995	103.866	19.873	9.170	0.487
457.500	314.026	80.010	19.994	103.863	19.861	10.070	0.498
465.000	317.818	80.010	19.994	103.869	19.853	10.687	0.526
472.500	321.576	80.011	19.993	103.864	19.843	11.387	0.504
480.000	325.350	80.010	19.993	103.869	19.819	13.192	0.489
487.500	329.169	80.008	19.993	103.869	19.794	15.027	0.515
495.000	332.997	80.008	19.996	103.871	19.774	16.491	0.519
502.500	336.869	80.008	19.993	103.870	19.759	17.624	0.507
510.000	340.612	80.009	19.994	103.867	19.737	19.250	0.463
517.500	344.409	80.010	19.994	103.865	19.718	20.651	0.491
525.000	348.182	80.009	19.994	103.865	19.689	22.736	0.514
532.500	351.927	80.011	19.993	103.865	19.661	24.810	0.487
540.000	355.725	80.009	19.993	103.870	19.623	27.641	0.500
547.500	359.561	80.010	19.993	103.869	19.572	31.356	0.516
555.000	363.265	80.009	19.996	103.871	19.510	35.914	0.473
562.500	367.033	80.008	19.993	103.868	19.434	41.518	0.486
570.000	370.862	80.008	19.993	103.889	19.341	48.390	0.458
577.500	374.691	80.010	19.995	103.896	19.202	58.651	0.499
585.000	378.477	80.009	19.994	103.898	19.069	68.450	0.517
592.500	382.267	80.009	19.994	103.905	18.937	78.170	0.496
600.000	386.080	80.009	19.995	103.943	18.704	95.372	0.513
607.500	389.799	80.010	19.993	103.912	18.363	120.506	0.489
615.000	393.575	80.011	19.993	103.928	17.986	148.417	0.534
622.500	397.298	80.009	19.994	103.989	17.609	176.193	0.482
630.000	401.119	80.011	19.993	103.996	17.178	207.630	0.498
637.500	404.807	80.013	19.994	104.111	16.358	268.746	0.479
645.000	408.575	80.010	19.994	104.056	15.799	310.021	0.500
652.500	412.275	80.009	19.994	104.042	15.358	340.938	0.501
660.000	415.926	80.009	19.994	104.554	14.090	437.807	0.472
667.500	419.588	80.008	19.993	103.659	13.976	445.048	0.534
675.000	423.245	80.010	19.994	104.074	13.968	444.831	0.477
682.500	427.025	80.007	19.993	104.072	14.166	430.353	0.480
690.000	430.927	80.009	19.993	104.280	14.714	390.364	0.494
697.500	434.794	80.011	19.993	104.147	15.739	314.346	0.517
705.000	438.780	80.011	19.994	104.096	16.840	232.965	0.545
712.500	442.744	80.011	19.994	104.063	17.850	158.362	0.502
720.000	446.668	80.012	19.995	104.008	18.633	100.609	0.494
727.500	450.541	80.010	19.993	103.952	19.142	63.046	0.493
735.000	454.488	80.008	19.993	103.905	19.448	40.468	0.527
742.500	458.309	80.009	19.995	103.856	19.622	27.677	0.504
750.000	462.187	80.007	19.995	103.820	19.725	20.124	0.512
757.500	466.031	80.009	19.994	103.826	19.793	15.083	0.494
765.000	469.831	80.009	19.993	103.830	19.846	11.182	0.498
772.500	473.598	80.010	19.994	103.837	19.889	8.043	0.499
780.000	477.420	80.011	19.993	103.834	19.920	5.732	0.514
787.500	481.230	80.009	19.995	103.825	19.935	4.657	0.509
795.000	484.967	80.010	19.994	103.825	19.936	4.572	0.518
802.500	488.833	80.011	19.993	103.826	19.938	4.445	0.484
810.000	492.667	80.008	19.993	103.825	19.940	4.248	0.548
817.500	496.468	80.008	19.994	103.829	19.936	4.538	0.552
825.000	500.324	80.008	19.993	103.827	19.941	4.183	0.481
832.500	504.223	80.009	19.995	103.829	19.940	4.270	0.611
840.000	507.955	80.008	19.995	103.822	19.942	4.127	0.419
847.500	511.775	80.007	19.995	103.823	19.938	4.447	0.587
855.000	515.707	80.010	19.993	103.823	19.940	4.260	0.505
862.500	519.596	80.010	19.993	103.824	19.944	3.982	0.515
870.000	523.568	80.008	19.994	103.826	19.944	4.010	0.545
877.500	527.411	80.010	19.994	103.824	19.941	4.194	0.517
885.000	531.166	80.012	19.993	103.820	19.944	4.006	0.477
892.500	535.077	80.010	19.993	103.824	19.940	4.304	0.518
900.000	538.858	80.009	19.994	103.822	19.945	3.936	0.510
907.500	542.671	80.009	19.993	103.816	19.942	4.155	0.509
915.000	546.498	80.009	19.993	103.817	19.937	4.475	0.486
922.500	550.312	80.009	19.994	103.802	19.939	4.346	0.471
930.000	554.184	80.008	19.994	103.812	19.939	4.360	0.544
937.500	558.008	80.008	19.995	103.814	19.937	4.457	0.532
945.000	561.819	80.010	19.994	103.821	19.940	4.232	0.495
952.500	565.631	80.009	19.994	103.826	19.938	4.407	0.514
960.000	569.592	80.011	19.992	103.821	19.939	4.318	0.534
967.500	573.616	80.012	19.994	103.823	19.939	4.364	0.557
975.000	577.538	80.009	19.993	103.812	19.940	4.262	0.512
982.500	581.492	80.010	19.993	103.820	19.938	4.419	0.522
990.000	585.397	80.010	19.994	103.822	19.942	4.129	0.548
997.500	589.282	80.009	19.994	103.815	19.936	4.558	0.516
1005.000	593.174	80.008	19.994	103.817	19.936	4.539	0.510
1012.500	596.956	80.009	19.994	103.825	19.940	4.288	0.486
1020.000	600.778	80.010	19.995	103.818	19.938	4.382	0.528
1027.499	604.565	80.011	19.994	103.809	19.940	4.233	0.491
1034.999	608.360	80.010	19.994	103.811	19.940	4.251	0.520
1042.500	612.236	80.013	19.993	103.796	19.938	4.407	0.522
1050.000	616.097	80.012	19.993	103.812	19.941	4.221	0.512
1057.499	620.026	80.011	19.994	103.810	19.940	4.243	0.495
1065.000	623.866	80.010	19.993	103.824	19.939	4.372	0.504
1072.499	627.731	80.010	19.995	103.821	19.939	4.324	0.531
1080.000	631.560	80.009	19.993	103.817	19.943	4.054	0.499
1087.499	635.449	80.010	19.994	103.811	19.936	4.546	0.534
1095.000	639.240	80.009	19.996	103.812	19.935	4.670	0.511
1102.499	643.008	80.010	19.995	103.807	19.939	4.319	0.489
1109.999	646.665	80.010	19.994	103.805	19.939	4.368	0.470
1117.499	650.426	80.011	19.995	103.807	19.940	4.239	0.530
1124.999	654.168	80.011	19.994	103.813	19.938	4.425	0.517
1132.499	658.034	80.012	19.995	103.823	19.938	4.380	0.495
1139.999	661.826	80.010	19.993	103.818	19.941	4.203	0.506
1147.499	665.687	80.009	19.994	103.816	19.942	4.133	0.544
1155.000	669.547	80.009	19.994	103.822	19.938	4.415	0.517
1162.499	673.510	80.010	19.994	103.821	19.938	4.411	0.520
1170.000	677.496	80.010	19.994	103.822	19.939	4.326	0.542
1177.500	681.445	80.008	19.993	103.822	19.937	4.461	0.526
1185.000	685.343	80.010	19.994	103.821	19.936	4.560	0.568
1192.499	689.225	80.010	19.994	103.823	19.938	4.395	0.541
1200.000	693.049	80.009	19.994	103.822	19.937	4.523	0.527
1207.499	696.982	80.010	19.994	103.822	19.935	4.626	0.531
1214.999	700.805	80.012	19.995	103.818	19.933	4.797	0.512
1222.499	704.561	80.009	19.995	103.803	19.937	4.501	0.483
1229.999	708.373	80.008	19.994	103.815	19.936	4.563	0.509
1237.499	712.202	80.008	19.994	103.815	19.937	4.525	0.479
1245.000	716.093	80.009	19.994	103.816	19.938	4.442	0.541
1252.500	719.851	80.009	19.993	103.824	19.931	4.920	0.523
1259.999	723.602	80.009	19.993	103.827	19.932	4.837	0.459
1267.499	727.377	80.010	19.994	103.819	19.930	4.982	0.523
1274.999	731.146	80.010	19.992	103.822	19.931	4.962	0.486
1282.499	734.949	80.010	19.994	103.818	19.931	4.944	0.486
1289.999	738.679	80.011	19.993	103.821	19.927	5.211	0.491
1297.499	742.538	80.013	19.994	103.818	19.925	5.382	0.564
1299.499	743.491	80.010	19.993	103.810	19.926	5.286	0.517

File: Polystyrene_81C_MCC_30K_min_220302_R3.txt
Sample ID:	C:\MCC\MCC Cal\Test\Polystyrene_81C_MCC_30K_min_220302_R3.txt
Sample Weight (mg):	4.47
Heating Rate (C/s):	0.5
Combustor Temp (C):	900
N2 Flow Rate (cc/min):	80
O2 Flow Rate (cc/min):	20
Calibration File:	C:\MCC\MCC Cal\Coeff1 JN10440_30_210304.txt.txt
T Correction Coefficients:	0	1.024463	0
Time Shift (s):	14
*
Time (s)	Temperature (C)	N2 flow rate (cc/min)	O2 flow rate (cc/min)	Flow Rate (cc/min)	Oxygen (%)	HRR (W/g)	Heating rate (C/s)
0.000	112.714	80.005	19.989	103.629	19.969	0.049	0.008
8.000	112.708	80.011	19.993	103.628	19.964	0.372	0.023
16.000	112.732	80.004	19.993	103.661	19.963	0.467	0.005
24.000	112.855	80.005	19.996	103.735	19.953	1.210	0.009
32.000	113.353	80.008	19.991	103.719	19.941	2.075	0.098
40.000	114.268	80.009	19.991	103.839	19.929	2.899	0.164
48.000	115.574	80.002	20.001	103.871	19.922	3.431	0.176
56.001	117.360	80.006	19.994	103.882	19.918	3.702	0.253
64.001	119.605	80.009	19.997	103.888	19.917	3.806	0.306
72.001	122.183	80.006	19.995	103.877	19.918	3.705	0.334
80.000	125.021	80.007	19.996	103.876	19.919	3.689	0.350
88.000	128.024	80.006	19.998	103.908	19.911	4.239	0.379
96.000	131.266	80.006	19.995	103.914	19.915	3.971	0.388
104.001	134.689	80.005	19.992	103.912	19.911	4.245	0.426
112.000	138.331	80.005	19.992	103.908	19.911	4.223	0.482
120.000	142.029	80.002	20.000	103.907	19.918	3.737	0.474
128.000	145.904	80.007	19.996	103.895	19.914	4.024	0.476
136.000	149.831	80.004	19.999	103.903	19.910	4.345	0.450
144.000	153.796	80.007	19.990	103.953	19.915	3.957	0.466
152.000	157.804	80.003	19.995	103.867	19.912	4.178	0.513
160.000	161.833	80.006	19.992	103.877	19.915	3.981	0.483
168.000	165.898	80.005	19.998	103.869	19.916	3.883	0.502
176.000	169.911	80.003	20.001	103.860	19.913	4.104	0.466
184.000	173.955	80.003	19.993	103.870	19.914	4.013	0.506
192.000	177.978	80.006	19.994	103.862	19.914	3.991	0.477
200.000	182.023	80.006	19.994	103.843	19.919	3.683	0.525
208.000	186.023	80.002	19.998	103.849	19.916	3.852	0.504
216.000	190.115	80.006	19.990	103.855	19.915	3.922	0.501
224.000	194.052	80.005	19.997	103.837	19.919	3.675	0.491
232.000	197.981	80.005	19.996	103.847	19.918	3.762	0.495
240.000	201.926	80.011	19.992	103.828	19.912	4.174	0.480
248.000	205.807	80.008	19.997	103.825	19.914	3.990	0.447
256.000	209.802	80.006	19.995	103.826	19.917	3.831	0.498
264.000	213.716	80.003	19.996	103.820	19.918	3.730	0.518
272.000	217.712	80.007	19.993	103.826	19.918	3.719	0.525
280.000	221.643	80.005	19.995	103.811	19.917	3.770	0.477
288.000	225.654	80.008	19.998	103.810	19.921	3.544	0.522
296.000	229.629	80.004	19.995	103.812	19.920	3.573	0.488
304.000	233.618	80.007	19.993	103.804	19.918	3.725	0.537
312.000	237.578	80.009	19.995	103.815	19.915	3.958	0.483
320.000	241.540	80.007	19.995	103.796	19.913	4.058	0.498
328.000	245.602	80.007	19.990	103.793	19.919	3.666	0.495
336.000	249.661	80.007	19.995	103.792	19.914	4.043	0.541
344.000	253.675	80.008	19.995	103.797	19.914	3.983	0.449
352.000	257.677	80.005	19.995	103.798	19.918	3.709	0.477
360.000	261.667	80.006	19.996	103.799	19.909	4.399	0.499
368.000	265.717	80.008	19.994	103.793	19.911	4.257	0.482
376.000	269.655	80.005	19.995	103.759	19.902	4.904	0.516
384.000	273.722	80.006	19.997	103.792	19.905	4.637	0.504
392.000	277.682	80.007	19.995	103.790	19.901	4.963	0.512
400.000	281.657	80.008	19.993	103.797	19.899	5.070	0.492
408.000	285.717	80.011	19.993	103.794	19.892	5.589	0.506
416.000	289.756	80.007	19.995	103.791	19.891	5.666	0.520
424.000	293.672	80.008	19.995	103.785	19.884	6.196	0.475
432.000	297.637	80.008	19.993	103.766	19.884	6.165	0.481
440.000	301.550	80.008	19.993	103.781	19.874	6.896	0.489
448.000	305.409	80.005	19.995	103.762	19.870	7.181	0.465
456.000	309.311	80.007	19.996	103.775	19.865	7.567	0.461
464.000	313.328	80.008	19.994	103.781	19.856	8.196	0.464
472.000	317.329	80.002	19.999	103.784	19.850	8.669	0.480
480.000	321.428	80.009	19.993	103.774	19.837	9.576	0.514
488.000	325.527	80.014	19.993	103.789	19.822	10.698	0.546
496.000	329.723	80.008	19.994	103.783	19.808	11.670	0.537
504.000	333.982	80.008	19.995	103.778	19.788	13.154	0.586
512.000	338.165	80.007	19.994	103.776	19.770	14.463	0.560
520.000	342.338	80.006	19.996	103.771	19.742	16.439	0.488
528.000	346.501	80.005	19.994	103.776	19.714	18.524	0.517
536.000	350.721	80.006	19.995	103.781	19.681	20.902	0.510
544.000	354.737	80.006	19.996	103.766	19.638	23.992	0.483
552.000	358.814	80.007	19.994	103.783	19.589	27.532	0.458
560.000	362.806	80.008	19.995	103.782	19.530	31.828	0.420
568.000	366.866	80.009	19.996	103.789	19.454	37.367	0.508
576.000	370.850	80.009	19.996	103.774	19.362	44.006	0.505
584.000	374.869	80.010	19.995	103.789	19.242	52.735	0.533
592.000	378.872	80.008	19.995	103.810	19.092	63.580	0.515
600.000	382.915	80.006	19.993	103.813	18.879	79.016	0.529
608.000	387.074	80.005	19.996	103.812	18.688	92.982	0.510
616.000	391.117	80.005	19.994	103.799	18.413	112.857	0.502
624.000	395.263	80.008	19.994	103.831	18.019	141.307	0.508
632.000	399.367	80.007	19.995	103.889	17.481	180.412	0.485
640.000	403.486	80.009	19.994	103.957	16.962	218.204	0.496
648.000	407.528	80.010	19.994	103.946	16.459	255.334	0.530
656.000	411.531	80.010	19.993	104.093	15.762	302.791	0.482
664.000	415.515	80.007	19.995	103.734	14.238	416.907	0.501
672.000	419.615	80.007	19.992	104.461	14.099	426.156	0.502
680.000	423.635	80.008	19.992	103.960	13.914	440.720	0.494
688.000	427.726	80.007	19.992	104.244	13.603	462.347	0.532
696.000	431.846	80.005	19.997	103.430	14.221	417.620	0.530
704.000	436.071	80.013	19.993	104.226	15.384	332.950	0.507
712.000	440.301	80.010	19.997	104.065	16.599	244.542	0.537
720.000	444.592	80.007	19.994	103.986	17.731	162.308	0.530
728.000	448.774	80.013	19.997	103.920	18.586	100.261	0.569
736.000	452.986	80.006	19.996	103.870	19.132	60.689	0.510
744.000	457.139	80.007	19.996	103.826	19.438	38.464	0.503
752.000	461.215	80.006	19.995	103.756	19.612	25.855	0.495
760.000	465.271	80.008	19.995	103.729	19.724	17.737	0.498
768.000	469.385	80.008	19.994	103.732	19.807	11.785	0.546
776.000	473.429	80.006	19.994	103.721	19.881	6.415	0.488
784.000	477.550	80.009	19.994	103.716	19.911	4.258	0.511
792.000	481.611	80.009	19.994	103.705	19.922	3.404	0.508
800.000	485.650	80.008	19.994	103.696	19.926	3.153	0.498
808.000	489.793	80.009	19.995	103.726	19.930	2.873	0.515
816.000	493.923	80.008	19.994	103.732	19.926	3.139	0.524
824.000	498.027	80.006	19.992	103.723	19.927	3.075	0.524
832.000	502.056	80.004	20.000	103.729	19.931	2.747	0.498
840.000	506.105	80.008	19.994	103.717	19.931	2.808	0.508
848.000	510.163	80.010	19.994	103.735	19.930	2.836	0.508
856.000	514.154	80.006	19.995	103.730	19.932	2.711	0.522
864.000	518.194	80.007	19.993	103.718	19.933	2.672	0.492
872.000	522.148	80.008	19.994	103.722	19.932	2.689	0.492
880.000	526.256	80.008	19.993	103.781	19.929	2.913	0.529
888.000	530.478	80.009	19.993	103.720	19.928	2.964	0.557
896.000	534.688	80.011	19.994	103.715	19.929	2.940	0.541
904.000	538.873	80.009	19.994	103.730	19.930	2.849	0.522
912.000	543.094	80.006	19.996	103.725	19.934	2.544	0.531
920.000	547.206	80.009	19.996	103.715	19.936	2.427	0.585
928.000	551.358	80.008	19.995	103.714	19.937	2.341	0.463
936.000	555.549	80.006	19.996	103.720	19.939	2.180	0.497
944.001	559.652	80.007	19.995	103.719	19.936	2.437	0.519
952.000	563.742	80.010	19.994	103.714	19.939	2.216	0.506
960.000	567.802	80.009	19.992	103.715	19.938	2.249	0.519
968.000	571.913	80.012	19.994	103.719	19.937	2.372	0.517
976.000	576.061	80.009	19.994	103.711	19.936	2.410	0.498
984.000	580.108	80.007	19.996	103.715	19.937	2.325	0.515
992.000	584.193	80.007	19.995	103.718	19.937	2.378	0.494
1000.000	588.227	80.006	19.994	103.709	19.936	2.441	0.496
1008.000	592.281	80.007	19.995	103.717	19.937	2.312	0.515
1016.000	596.383	80.006	19.995	103.712	19.935	2.526	0.533
1024.000	600.403	80.007	19.995	103.716	19.943	1.938	0.506
1032.000	604.477	80.008	19.994	103.716	19.938	2.287	0.495
1040.000	608.470	80.006	19.995	103.713	19.937	2.338	0.476
1048.000	612.514	80.008	19.996	103.716	19.941	2.031	0.497
1056.000	616.563	80.009	19.994	103.717	19.937	2.344	0.506
1064.000	620.650	80.006	19.989	103.718	19.940	2.164	0.523
1072.000	624.663	80.008	19.993	103.714	19.937	2.368	0.463
1080.001	628.668	80.008	19.994	103.712	19.938	2.243	0.521
1088.000	632.727	80.007	19.994	103.714	19.939	2.208	0.504
1096.000	636.774	80.008	19.994	103.716	19.944	1.859	0.497
1104.000	640.764	80.007	19.996	103.712	19.941	2.026	0.496
1112.000	644.819	80.008	19.995	103.710	19.938	2.251	0.508
1120.000	648.782	80.009	19.994	103.715	19.954	1.135	0.496
1128.000	652.792	80.008	19.993	103.718	19.939	2.212	0.520
1136.000	656.821	80.004	19.995	103.716	19.939	2.178	0.502
1144.001	660.900	80.007	19.994	103.709	19.942	2.022	0.490
1152.000	665.005	80.008	19.995	103.704	19.937	2.376	0.528
1160.000	669.078	80.006	19.995	103.712	19.937	2.322	0.815
1168.000	673.110	80.007	19.997	103.711	19.940	2.166	0.538
1176.000	677.168	80.005	19.996	103.712	19.938	2.245	0.563
1184.000	681.377	80.008	19.994	103.716	19.937	2.354	0.548
1192.000	685.545	80.005	19.998	103.710	19.935	2.497	0.519
1200.000	689.745	80.004	19.996	103.704	19.937	2.317	0.500
1208.000	693.977	80.009	19.994	103.715	19.940	2.134	0.516
1216.000	698.321	80.011	19.994	103.708	19.937	2.324	0.546
1224.000	702.545	80.007	19.995	103.710	19.937	2.328	0.488
1232.000	706.784	80.004	19.995	103.713	19.938	2.295	0.513
1240.000	710.995	80.006	19.994	103.714	19.938	2.263	0.547
1248.000	715.276	80.004	19.997	103.714	19.935	2.527	0.528
1256.000	719.453	80.008	19.994	103.719	19.937	2.340	0.531
1264.000	723.652	80.007	19.995	103.717	19.936	2.419	0.513
1272.001	727.808	80.009	19.993	103.715	19.936	2.414	0.523
1280.000	731.935	80.008	19.994	103.713	19.938	2.295	0.518
1288.000	736.176	80.005	19.997	103.713	19.934	2.574	0.538
1296.000	740.402	80.011	19.999	103.717	19.932	2.697	0.517
1304.000	744.563	80.008	19.996	103.713	19.934	2.596	0.503
1305.001	745.112	80.010	19.993	103.714	19.936	2.416	0.550