Folder: fsri_materials_database/01_Data/PlasticC/STA/N2/10K_min (part 2)

File: PlasticC_STA_N2_10KData_211026_R3.csv
##Temp./Â°C,Time/min,Mass loss(subtr.2)/mg,DSC(subtr.2)/(mW/mg),Sensit./(uV/mW)
49.991,10.00833,-0.0091,-0.003114747,1.03583
52.591,12.36968,-0.01660065,0.03337304,1.0357
55.191,13.06723,-0.01709424,0.047077,1.03553
57.791,13.6218,-0.02370202,0.05340313,1.03533
60.391,14.10801,-0.02261469,0.0650704,1.03511
62.991,14.54824,-0.009126147,0.07244478,1.03485
65.591,14.95759,-0.02653329,0.08168442,1.03457
68.191,15.34269,-0.01270649,0.08916489,1.03426
70.791,15.70762,-0.02784303,0.09384402,1.03392
73.391,16.05584,-0.009475876,0.10112,1.03355
75.991,16.39085,-0.01171265,0.10581,1.03315
78.591,16.71581,-0.01864075,0.11588,1.03273
81.191,17.03005,-0.01601541,0.11445,1.03227
83.791,17.33595,-0.01687105,0.10527,1.0318
86.391,17.63498,-0.00282713,0.10876,1.03129
88.991,17.92663,-0.009364026,0.11651,1.03075
91.591,18.2129,-0.01288132,0.12321,1.03019
94.191,18.49353,-0.01752719,0.13177,1.0296
96.791,18.77125,-0.02286372,0.14009,1.02899
99.391,19.04341,-0.0254705,0.15498,1.02835
101.991,19.31281,-0.008197771,0.17296,1.02768
104.591,19.57921,-0.0321032,0.17597,1.02699
107.191,19.8444,-0.00905299,0.18251,1.02627
109.791,20.10673,-0.009935184,0.18658,1.02552
112.391,20.36761,-0.0193191,0.18613,1.02475
114.991,20.62544,-0.02014058,0.19047,1.02396
117.591,20.88202,-0.0149162,0.19318,1.02314
120.191,21.13711,-0.01622913,0.19266,1.02229
122.791,21.38927,-0.01225886,0.19982,1.02142
125.391,21.63934,-0.008304673,0.19985,1.02053
127.991,21.88935,-0.02126452,0.20135,1.01961
130.591,22.1371,-0.01882785,0.20488,1.01866
133.191,22.38286,-0.01072511,0.20933,1.0177
135.791,22.62728,-0.01232808,0.21299,1.01671
138.391,22.86979,-0.008320455,0.21872,1.01569
140.991,23.11165,-0.01588606,0.21768,1.01465
143.591,23.35224,-0.0221177,0.2203,1.01359
146.191,23.59205,-0.02507948,0.22041,1.01251
148.791,23.83077,0.001625251,0.22755,1.01141
151.391,24.0696,-0.01959652,0.23114,1.01028
153.991,24.30722,-0.01974591,0.23097,1.00913
156.591,24.5441,-0.00631237,0.23249,1.00796
159.191,24.78069,-0.0252374,0.23636,1.00676
161.791,25.01801,-4.61281e-07,0.24051,1.00555
164.391,25.25366,-0.02435045,0.24055,1.00431
166.991,25.48955,-0.008975169,0.24408,1.00305
169.591,25.72597,-0.01757631,0.2459,1.00177
172.191,25.96109,-0.02477952,0.24822,1.00047
174.791,26.19596,-0.004454245,0.24814,0.99915
177.391,26.4307,-0.02312654,0.25426,0.99781
179.991,26.66433,-0.01657999,0.25515,0.99645
182.591,26.8978,-0.01480812,0.25819,0.99507
185.191,27.13072,-0.02136019,0.26112,0.99367
187.791,27.3634,-0.02883766,0.26578,0.99226
190.391,27.5955,-0.01855599,0.26762,0.99082
192.991,27.8274,-0.0251363,0.26994,0.98936
195.591,28.0592,-0.01118423,0.27052,0.98789
198.191,28.2907,-0.004889277,0.27329,0.98639
200.791,28.5225,-0.01654566,0.27624,0.98488
203.391,28.75258,-0.01544058,0.282,0.98335
205.991,28.98423,-0.0112569,0.28143,0.98181
208.591,29.2174,-0.01647876,0.28309,0.98024
211.191,29.44867,-0.03326549,0.29027,0.97866
213.791,29.6802,-0.02015676,0.28936,0.97706
216.391,29.91232,-0.01992876,0.29371,0.97545
218.991,30.1442,-0.01294057,0.29303,0.97381
221.591,30.37613,-0.03167201,0.29464,0.97217
224.191,30.609,-0.01382917,0.29401,0.9705
226.791,30.8401,-0.02535432,0.29628,0.96882
229.391,31.07283,-0.02448976,0.30071,0.96713
231.991,31.3059,-0.03086505,0.30381,0.96542
234.591,31.53862,-0.03407112,0.30345,0.96369
237.191,31.77099,-0.03101585,0.30659,0.96195
239.791,32.00359,-0.0224814,0.30656,0.96019
242.391,32.23644,-0.03672829,0.31049,0.95842
244.991,32.4694,-0.0249375,0.30984,0.95664
247.591,32.7023,-0.04043629,0.31765,0.95484
250.191,32.93533,-0.0356867,0.31725,0.95303
252.791,33.1689,-0.02614544,0.31533,0.9512
255.391,33.40205,-0.0328117,0.31772,0.94936
257.991,33.63472,-0.04922731,0.32611,0.94751
260.591,33.86828,-0.03532857,0.31931,0.94565
263.191,34.10174,-0.04229209,0.32275,0.94377
265.791,34.33522,-0.04529317,0.32833,0.94188
268.391,34.56876,-0.02928026,0.3217,0.93998
270.991,34.8025,-0.05026327,0.32909,0.93807
273.591,35.03649,-0.04891968,0.32618,0.93614
276.191,35.2708,-0.04479601,0.32507,0.9342
278.791,35.5045,-0.0524029,0.32638,0.93226
281.391,35.73939,-0.0587742,0.32683,0.9303
283.991,35.97495,-0.0472375,0.31968,0.92833
286.591,36.20874,-0.07136942,0.32963,0.92635
289.191,36.4441,-0.06352163,0.32028,0.92436
291.791,36.67926,-0.06389246,0.32175,0.92236
294.391,36.91512,-0.07198463,0.31796,0.92035
296.991,37.1508,-0.0682412,0.31937,0.91833
299.591,37.38705,-0.07354971,0.32452,0.9163
302.191,37.62365,-0.06811921,0.32266,0.91426
304.791,37.86015,-0.07486923,0.32374,0.91222
307.391,38.09684,-0.08217056,0.32626,0.91016
309.991,38.33409,-0.08367131,0.32684,0.9081
312.591,38.57145,-0.0784602,0.31694,0.90603
315.191,38.8089,-0.08310423,0.31969,0.90395
317.791,39.04596,-0.07910468,0.30744,0.90186
320.391,39.28345,-0.10037,0.31597,0.89977
322.991,39.52098,-0.09504095,0.30768,0.89766
325.591,39.75853,-0.0931073,0.302,0.89555
328.191,39.996,-0.10006,0.30207,0.89344
330.791,40.23426,-0.10416,0.29765,0.89131
333.391,40.47305,-0.10614,0.28894,0.88919
335.991,40.71178,-0.10987,0.28807,0.88705
338.591,40.95094,-0.12405,0.2925,0.88491
341.191,41.19076,-0.11683,0.28079,0.88276
343.791,41.4304,-0.11582,0.27381,0.88061
346.391,41.67017,-0.12881,0.27329,0.87845
348.991,41.91091,-0.12892,0.26823,0.87629
351.591,42.15117,-0.13369,0.26559,0.87412
354.191,42.3921,-0.11841,0.2542,0.87195
356.791,42.63231,-0.13568,0.24989,0.86977
359.391,42.8738,-0.14285,0.2505,0.86759
361.991,43.1151,-0.13662,0.24043,0.8654
364.591,43.35607,-0.14782,0.24382,0.86321
367.191,43.59677,-0.14736,0.24272,0.86102
369.791,43.8388,-0.15736,0.2418,0.85882
372.391,44.0809,-0.16102,0.24389,0.85663
374.991,44.323,-0.16598,0.25204,0.85442
377.591,44.5663,-0.1637,0.26099,0.85222
380.191,44.80881,-0.17968,0.28128,0.85001
382.791,45.05085,-0.18643,0.29856,0.8478
385.391,45.2935,-0.18809,0.32684,0.84559
387.991,45.53792,-0.19364,0.34917,0.84337
390.591,45.7821,-0.22217,0.39461,0.84115
393.191,46.0268,-0.22524,0.43959,0.83894
395.791,46.2718,-0.22642,0.48772,0.83672
398.391,46.51598,-0.24368,0.55746,0.8345
400.991,46.76025,-0.2933,0.64991,0.83227
403.591,47.0066,-0.30343,0.7418,0.83005
406.191,47.25197,-0.32789,0.87103,0.82783
408.791,47.49869,-0.36127,1.03244,0.8256
411.391,47.74445,-0.41811,1.24254,0.82338
413.991,47.9917,-0.4929,1.4979,0.82115
416.591,48.23979,-0.58511,1.82265,0.81893
419.191,48.48789,-0.69512,2.20025,0.8167
421.791,48.73707,-0.81959,2.63443,0.81448
424.391,48.98652,-0.99789,3.06474,0.81226
426.991,49.23662,-1.19269,3.48286,0.81003
429.591,49.4872,-1.40881,3.85053,0.80781
432.191,49.73661,-1.67858,4.10192,0.80559
434.791,49.98676,-1.94605,4.13958,0.80337
437.391,50.23505,-2.20125,4.02509,0.80116
439.991,50.48307,-2.46007,3.76794,0.79894
442.591,50.72997,-2.68849,3.38413,0.79672
445.191,50.97648,-2.87966,2.93358,0.79451
447.791,51.22161,-3.06422,2.47318,0.7923
450.391,51.467,-3.21616,2.02959,0.79009
452.991,51.71359,-3.32568,1.62526,0.78789
455.591,51.95957,-3.42156,1.28449,0.78568
458.191,52.20718,-3.50916,1.01323,0.78348
460.791,52.4533,-3.59275,0.83118,0.78129
463.391,52.70215,-3.62279,0.67993,0.77909
465.991,52.95065,-3.66932,0.57154,0.7769
468.591,53.1986,-3.7178,0.48635,0.77471
471.191,53.44863,-3.74104,0.4006,0.77253
473.791,53.69814,-3.77262,0.32226,0.77035
476.391,53.9475,-3.80165,0.25218,0.76817
478.991,54.19713,-3.81694,0.18488,0.766
481.591,54.447,-3.83517,0.12747,0.76383
484.191,54.69845,-3.82311,0.07024156,0.76166
486.791,54.94905,-3.84317,0.03926588,0.7595
489.391,55.1994,-3.85353,0.02437297,0.75735
491.991,55.45077,-3.8379,0.00328878,0.75519
494.591,55.70221,-3.84549,-0.0001775189,0.75305
497.191,55.9532,-3.85105,-0.0008139536,0.75091
499.791,56.2048,-3.85019,-0.00947921,0.74877
502.391,56.4562,-3.85104,-0.02106647,0.74664
504.991,56.7087,-3.84157,-0.02806452,0.74451
507.591,56.9596,-3.8413,-0.0389726,0.74239
510.191,57.2122,-3.85719,-0.02916958,0.74027
512.791,57.4653,-3.84875,-0.02671818,0.73816
515.391,57.71917,-3.85389,-0.01681773,0.73606
517.991,57.9732,-3.84662,-0.01532061,0.73396
520.591,58.22674,-3.84982,-0.00690487,0.73187
523.191,58.48124,-3.84705,-0.008012089,0.72978
525.791,58.7348,-3.85366,-0.00620264,0.7277
528.391,58.98826,-3.85502,-0.00156423,0.72563
530.991,59.24267,-3.85206,0.001793976,0.72356
533.591,59.4965,-3.84899,0.002506483,0.7215
536.191,59.7514,-3.85426,0.001159606,0.71945
538.791,60.0053,-3.84897,0.00192439,0.7174
541.391,60.26036,-3.85323,0.00375334,0.71536
543.991,60.5153,-3.83935,-0.00315935,0.71332
546.591,60.7703,-3.84729,0.001370229,0.7113
549.191,61.02528,-3.85116,0.00945307,0.70928
551.791,61.2808,-3.84296,-0.00123803,0.70726
554.391,61.53617,-3.85734,0.00601764,0.70526
556.991,61.792,-3.85511,-0.001515466,0.70326
559.591,62.0474,-3.8387,-0.00255175,0.70127
562.191,62.30336,-3.85027,-0.002286221,0.69929
564.791,62.5601,-3.85419,0.002297894,0.69731
567.391,62.81654,-3.86739,0.009559918,0.69534
569.991,63.07339,-3.85721,0.008072155,0.69338
572.591,63.3307,-3.84225,-0.00140089,0.69143
575.191,63.58758,-3.85427,0.003449377,0.68949
577.791,63.8459,-3.85423,0.001225228,0.68755
580.391,64.10308,-3.85449,0.00551309,0.68562
582.991,64.36035,-3.8574,0.0066759,0.6837
585.591,64.6185,-3.84955,-0.005829277,0.68179
588.191,64.87559,-3.84324,-0.01234905,0.67989
590.791,65.13243,-3.86551,0.002721995,0.67799
593.391,65.38982,-3.85099,-0.004950884,0.67611
595.991,65.64737,-3.85066,-0.00497418,0.67423
598.591,65.90565,-3.85136,7.452384e-05,0.67236
601.191,66.16416,-3.85517,0.002974695,0.6705
603.791,66.42265,-3.8419,-0.003861377,0.66865
606.391,66.68005,-3.86158,0.006957975,0.6668
608.991,66.93982,-3.84985,-0.00288108,0.66497
611.591,67.1981,-3.84737,0.0009107106,0.66314
614.191,67.4568,-3.84769,0.002969543,0.66132
616.791,67.7165,-3.84961,0.001927782,0.65951
619.391,67.97515,-3.85829,0.007888002,0.65771
621.991,68.2344,-3.85261,-0.00100987,0.65592
624.591,68.4928,-3.86282,0.01453358,0.65414
627.191,68.75165,-3.8531,0.006395325,0.65237
629.791,69.01086,-3.85078,0.006944271,0.6506
632.391,69.27001,-3.85776,0.01330676,0.64885
634.991,69.52954,-3.85441,0.01398802,0.6471
637.591,69.78992,-3.85564,0.0133468,0.64537
639.591,69.9893,-3.85097,0.007492331,0.64404