Folder: fsri_materials_database/01_Data/PlasticC/STA/N2/10K_min

Note: 01_Data/README.md
# Materials and Products Database
## 01_Data

Raw data generated from each apparatus are included here in plain-text format. The data is organized first by material, next by the short name of test apparatus used, and where applicable additional filtering by test settings.

### material.json

Each material directory contains a json file of the same name as the material. This file links the data stored in the repository as well as data and graphs produced by the accompanying scripts (__02_Scripts__) to the respective landing page for the material on the front-end website.

File: PlasticC_STA_N2_10KData_211026_R1.csv
##Temp./Â°C,Time/min,Mass loss(subtr.2)/mg,DSC(subtr.2)/(mW/mg),Sensit./(uV/mW)
49.81,10.00917,0.03477,-0.06240915,1.03584
52.41,12.37151,0.04355112,-0.02115117,1.03571
55.01,13.0698,0.04459437,-0.00353836,1.03554
57.61,13.62655,0.04610253,0.008922371,1.03535
60.21,14.113,0.04562143,0.02101956,1.03512
62.81,14.55465,0.04841611,0.02877226,1.03487
65.41,14.96415,0.04586194,0.03783242,1.03459
68.01,15.3491,0.04661658,0.04578522,1.03428
70.61,15.7132,0.0488095,0.05198511,1.03394
73.21,16.06214,0.05092022,0.05725657,1.03357
75.81,16.3979,0.05013466,0.0620689,1.03318
78.41,16.72211,0.05177572,0.06689887,1.03276
81.01,17.0377,0.05639998,0.06531242,1.03231
83.61,17.34403,0.0550512,0.057865,1.03183
86.21,17.64346,0.05127085,0.05705796,1.03132
88.81,17.93561,0.05264009,0.06581925,1.03079
91.41,18.22185,0.05166138,0.06827467,1.03023
94.01,18.5024,0.05450804,0.0780079,1.02965
96.61,18.77881,0.05285965,0.08790406,1.02903
99.21,19.05199,0.05358242,0.09879819,1.02839
101.81,19.32123,0.05352148,0.11169,1.02773
104.41,19.58781,0.05648237,0.11881,1.02704
107.01,19.85193,0.05581557,0.12142,1.02632
109.61,20.11427,0.05604993,0.12043,1.02558
112.21,20.37432,0.05533461,0.1229,1.02481
114.81,20.63308,0.05762222,0.1231,1.02401
117.41,20.88929,0.05736025,0.12123,1.02319
120.01,21.144,0.05604181,0.12146,1.02235
122.61,21.39625,0.05685474,0.1226,1.02148
125.21,21.64775,0.05516965,0.11839,1.02059
127.81,21.8976,0.05790526,0.11938,1.01967
130.41,22.14525,0.05647996,0.12007,1.01873
133.01,22.39163,0.05802909,0.11951,1.01776
135.61,22.63619,0.05814004,0.12041,1.01678
138.21,22.87975,0.05835001,0.12344,1.01576
140.81,23.1215,0.05702878,0.12128,1.01473
143.41,23.36224,0.0571506,0.12124,1.01367
146.01,23.60192,0.05852605,0.12118,1.01259
148.61,23.8413,0.05855661,0.12386,1.01148
151.21,24.0793,0.05823081,0.12699,1.01036
153.81,24.31658,0.05637651,0.12431,1.00921
156.41,24.55371,0.05889068,0.12802,1.00804
159.01,24.79028,0.05989034,0.12485,1.00684
161.61,25.027,0.05854889,0.1277,1.00563
164.21,25.26306,0.05726001,0.12673,1.0044
166.81,25.49855,0.05868058,0.12411,1.00314
169.41,25.73414,0.05987979,0.12721,1.00186
172.01,25.96951,0.06009999,0.13037,1.00056
174.61,26.2039,0.06075911,0.13049,0.99925
177.21,26.4383,0.05879,0.1325,0.99791
179.81,26.67217,0.06157158,0.12984,0.99655
182.41,26.90591,0.06060924,0.13071,0.99517
185.01,27.1387,0.05956877,0.12979,0.99377
187.61,27.37146,0.05956,0.13569,0.99236
190.21,27.60377,0.06120428,0.13613,0.99092
192.81,27.83591,0.0605388,0.13881,0.98946
195.41,28.0672,0.05911929,0.13844,0.98799
198.01,28.2992,0.05780339,0.14031,0.9865
200.61,28.53074,0.06156825,0.14311,0.98499
203.21,28.76142,0.05862346,0.14302,0.98346
205.81,28.9921,0.05889011,0.14331,0.98191
208.41,29.22488,0.05922988,0.14445,0.98035
211.01,29.45635,0.06030799,0.14585,0.97877
213.61,29.6879,0.05911956,0.14612,0.97717
216.21,29.91897,0.05778743,0.14725,0.97556
218.81,30.15052,0.05782176,0.15001,0.97393
221.41,30.38232,0.05769017,0.14858,0.97228
224.01,30.6138,0.05496361,0.15148,0.97062
226.61,30.8457,0.0548331,0.15038,0.96894
229.21,31.0777,0.05488852,0.15107,0.96724
231.81,31.3096,0.05494922,0.15017,0.96553
234.41,31.54205,0.05368553,0.15042,0.96381
237.01,31.77358,0.05330316,0.15344,0.96207
239.61,32.00486,0.05275658,0.15164,0.96031
242.21,32.23829,0.04938071,0.15202,0.95855
244.81,32.47125,0.05065785,0.15402,0.95676
247.41,32.7048,0.04944246,0.15128,0.95497
250.01,32.9377,0.04824346,0.15183,0.95315
252.61,33.17173,0.04636428,0.15123,0.95133
255.21,33.40485,0.04508395,0.15097,0.94949
257.81,33.638,0.04508016,0.148,0.94764
260.41,33.87129,0.0422229,0.15263,0.94578
263.01,34.10471,0.04125867,0.15201,0.9439
265.61,34.33788,0.03907864,0.15052,0.94201
268.21,34.57131,0.03838213,0.14849,0.94011
270.81,34.80546,0.0346678,0.14608,0.9382
273.41,35.03924,0.03433,0.14637,0.93627
276.01,35.2736,0.03300574,0.14447,0.93434
278.61,35.50804,0.03136273,0.14111,0.93239
281.21,35.74256,0.02633395,0.14222,0.93043
283.81,35.97719,0.023276,0.1405,0.92847
286.41,36.2125,0.02433491,0.1365,0.92649
289.01,36.44784,0.02199725,0.13293,0.9245
291.61,36.6837,0.01987324,0.13336,0.9225
294.21,36.91891,0.01734845,0.1299,0.92049
296.81,37.15488,0.01601082,0.12682,0.91847
299.41,37.39112,0.01244908,0.12813,0.91644
302.01,37.627,0.01008882,0.12496,0.91441
304.61,37.86315,0.006360011,0.1233,0.91236
307.21,38.09897,0.006364396,0.119,0.91031
309.81,38.33513,0.002787785,0.11875,0.90824
312.41,38.57161,-0.00318553,0.11307,0.90617
315.01,38.8078,-0.004940115,0.11041,0.90409
317.61,39.04523,-0.008019179,0.10817,0.90201
320.21,39.28277,-0.009650023,0.10421,0.89991
322.81,39.52016,-0.01096864,0.09784827,0.89781
325.41,39.75781,-0.01614632,0.09078045,0.8957
328.01,39.9959,-0.01678666,0.08073758,0.89358
330.61,40.23385,-0.02005181,0.07783065,0.89146
333.21,40.4725,-0.0242401,0.07430571,0.88933
335.81,40.71076,-0.02687856,0.06675074,0.8872
338.41,40.94952,-0.03114991,0.05811339,0.88506
341.01,41.18872,-0.03184671,0.05241405,0.88291
343.61,41.42844,-0.0337956,0.04398265,0.88076
346.21,41.66898,-0.0321401,0.0357979,0.8786
348.81,41.91025,-0.03749293,0.03104849,0.87644
351.41,42.1512,-0.03519262,0.01874208,0.87427
354.01,42.3919,-0.05024424,0.01206043,0.8721
356.61,42.63423,-0.04812382,0.006391976,0.86992
359.21,42.87511,-0.0530235,-0.005378126,0.86774
361.81,43.1167,-0.05826204,-0.0115615,0.86556
364.41,43.3574,-0.05974267,-0.0202687,0.86337
367.01,43.5996,-0.0634,-0.0218689,0.86117
369.61,43.84097,-0.06787585,-0.02561532,0.85898
372.21,44.08272,-0.07248158,-0.02197204,0.85678
374.81,44.32495,-0.07612645,-0.01678102,0.85458
377.41,44.56738,-0.08377732,-0.0057988,0.85237
380.01,44.81021,-0.08969428,0.001668719,0.85016
382.61,45.05305,-0.09630348,0.01919176,0.84795
385.21,45.2962,-0.1034,0.04041303,0.84574
387.81,45.53893,-0.11153,0.0699608,0.84353
390.41,45.78236,-0.12445,0.10673,0.84131
393.01,46.0257,-0.14001,0.14747,0.83909
395.61,46.26943,-0.14951,0.19977,0.83687
398.21,46.51324,-0.17376,0.26808,0.83465
400.81,46.75828,-0.19056,0.34483,0.83243
403.41,47.00347,-0.21378,0.44721,0.83021
406.01,47.24827,-0.24741,0.58029,0.82798
408.61,47.49387,-0.28725,0.74255,0.82576
411.21,47.73973,-0.33679,0.94812,0.82353
413.81,47.98701,-0.40346,1.20277,0.82131
416.41,48.23434,-0.48286,1.51989,0.81908
419.01,48.48186,-0.5894,1.89681,0.81686
421.61,48.7305,-0.71897,2.32906,0.81464
424.21,48.9798,-0.87948,2.78821,0.81241
426.81,49.22972,-1.07016,3.21494,0.81019
429.41,49.4796,-1.28918,3.58912,0.80797
432.01,49.72869,-1.53688,3.83041,0.80575
434.61,49.97722,-1.79084,3.91133,0.80353
437.21,50.2256,-2.05304,3.81488,0.80131
439.81,50.4741,-2.3032,3.55284,0.79909
442.41,50.72175,-2.53109,3.16861,0.79688
445.01,50.96859,-2.73679,2.7168,0.79467
447.61,51.21547,-2.91035,2.2413,0.79246
450.21,51.46188,-3.06261,1.77761,0.79025
452.81,51.70783,-3.18535,1.35615,0.78804
455.41,51.9535,-3.2844,0.98352,0.78584
458.01,52.19915,-3.35847,0.68946,0.78364
460.61,52.447,-3.42536,0.47443,0.78144
463.21,52.69446,-3.47372,0.31634,0.77924
465.81,52.94214,-3.52208,0.20067,0.77705
468.41,53.19061,-3.56357,0.10414,0.77486
471.01,53.4391,-3.59376,0.01030819,0.77268
473.61,53.68815,-3.62536,-0.06728758,0.7705
476.21,53.93736,-3.64677,-0.14325,0.76832
478.81,54.18761,-3.66429,-0.21815,0.76615
481.41,54.43766,-3.67526,-0.28706,0.76398
484.01,54.6885,-3.68466,-0.34008,0.76181
486.61,54.94002,-3.68849,-0.38549,0.75965
489.21,55.1912,-3.69193,-0.41465,0.7575
491.81,55.44249,-3.69617,-0.43104,0.75534
494.41,55.6937,-3.69573,-0.44021,0.7532
497.01,55.94534,-3.69379,-0.45373,0.75105
499.61,56.19686,-3.69642,-0.47856,0.74892
502.21,56.4485,-3.6961,-0.48602,0.74679
504.81,56.7002,-3.69136,-0.49162,0.74466
507.41,56.95378,-3.69954,-0.48666,0.74254
510.01,57.2075,-3.6949,-0.49335,0.74042
512.61,57.462,-3.69467,-0.49614,0.73831
515.21,57.71495,-3.69453,-0.49979,0.73621
517.81,57.96826,-3.69697,-0.4978,0.73411
520.41,58.2211,-3.70457,-0.49759,0.73201
523.01,58.47415,-3.69469,-0.50442,0.72993
525.61,58.72699,-3.69731,-0.50357,0.72785
528.21,58.9818,-3.69538,-0.5096,0.72577
530.81,59.2363,-3.69511,-0.51277,0.7237
533.41,59.4915,-3.69465,-0.51177,0.72164
536.01,59.74612,-3.69696,-0.51288,0.71959
538.61,60.0006,-3.70174,-0.51834,0.71754
541.21,60.25551,-3.69583,-0.52465,0.7155
543.81,60.5104,-3.69587,-0.53095,0.71346
546.41,60.76492,-3.69314,-0.53228,0.71144
549.01,61.02098,-3.69803,-0.533,0.70942
551.61,61.27624,-3.69357,-0.54016,0.7074
554.21,61.53116,-3.69839,-0.54093,0.7054
556.81,61.7865,-3.69525,-0.53646,0.7034
559.41,62.04172,-3.69994,-0.54167,0.70141
562.01,62.29758,-3.69748,-0.55001,0.69943
564.61,62.5536,-3.69332,-0.5545,0.69745
567.21,62.81,-3.6951,-0.55782,0.69548
569.81,63.0663,-3.69559,-0.5661,0.69352
572.41,63.32345,-3.69048,-0.56613,0.69157
575.01,63.58024,-3.69549,-0.56781,0.68962
577.61,63.8369,-3.69444,-0.57514,0.68769
580.21,64.0933,-3.69372,-0.57957,0.68576
582.81,64.34992,-3.69703,-0.58081,0.68384
585.41,64.6068,-3.69297,-0.59007,0.68192
588.01,64.86381,-3.70204,-0.588,0.68002
590.61,65.12141,-3.6928,-0.596,0.67813
593.21,65.37825,-3.6963,-0.59327,0.67624
595.81,65.6362,-3.69369,-0.59528,0.67436
598.41,65.89356,-3.69796,-0.59665,0.67249
601.01,66.15115,-3.6962,-0.59965,0.67063
603.61,66.40884,-3.69687,-0.60288,0.66877
606.21,66.66753,-3.69675,-0.60729,0.66693
608.81,66.92591,-3.69512,-0.60941,0.66509
611.41,67.18474,-3.69741,-0.61374,0.66327
614.01,67.44239,-3.69707,-0.62186,0.66145
616.61,67.69967,-3.6975,-0.62921,0.65964
619.21,67.95721,-3.69687,-0.628,0.65784
621.81,68.2158,-3.6984,-0.63189,0.65605
624.41,68.47502,-3.69972,-0.63348,0.65426
627.01,68.73501,-3.69427,-0.63712,0.65249
629.61,68.99355,-3.6971,-0.63893,0.65073
632.21,69.25401,-3.70195,-0.64052,0.64897
634.81,69.5125,-3.70013,-0.63658,0.64723
637.41,69.77192,-3.69331,-0.65145,0.64549
639.61,69.99132,-3.69533,-0.64307,0.64403

File: PlasticC_STA_N2_10KData_211026_R2.csv
##Temp./Â°C,Time/min,Mass loss(subtr.2)/mg,DSC(subtr.2)/(mW/mg),Sensit./(uV/mW)
49.845,10.01,-0.025,0.02263429,1.03584
52.445,12.37379,-0.03033965,0.10353,1.03571
55.045,13.07306,-0.02512624,0.14454,1.03554
57.645,13.6287,-0.02400997,0.16765,1.03534
60.245,14.11641,-0.02312528,0.18672,1.03512
62.845,14.5571,-0.02095309,0.2084,1.03487
65.445,14.96619,-0.02088518,0.22688,1.03459
68.045,15.34874,-0.01767939,0.24024,1.03428
70.645,15.7146,-0.02139176,0.25301,1.03394
73.245,16.0641,-0.02221739,0.26914,1.03357
75.845,16.39984,-0.03201889,0.2805,1.03317
78.445,16.72395,-0.02160119,0.29669,1.03275
81.045,17.03924,-0.02369803,0.29905,1.0323
83.645,17.34609,-0.02427465,0.29934,1.03182
86.245,17.64444,-0.02502477,0.30445,1.03132
88.845,17.93664,-0.02232888,0.31631,1.03078
91.445,18.22214,-0.03509624,0.32577,1.03022
94.045,18.5031,-0.01089477,0.34451,1.02964
96.645,18.77927,-0.03911006,0.35569,1.02902
99.245,19.05229,-0.0286563,0.37348,1.02839
101.845,19.32123,-0.02707905,0.39099,1.02772
104.445,19.58759,-0.02016648,0.40497,1.02703
107.045,19.8518,-0.05638328,0.4092,1.02631
109.645,20.11338,-0.0066105,0.41803,1.02557
112.245,20.37305,-0.03474759,0.42224,1.0248
114.845,20.6315,-0.02194768,0.4288,1.024
117.445,20.88781,-0.02171169,0.43379,1.02318
120.045,21.143,-0.0335453,0.43908,1.02234
122.645,21.39517,-0.03316242,0.44267,1.02147
125.245,21.64692,-0.01438645,0.44915,1.02058
127.845,21.89604,-0.02661563,0.45427,1.01966
130.445,22.14401,-0.02716238,0.45767,1.01872
133.045,22.3901,-0.01194292,0.46432,1.01775
135.645,22.6346,-0.01961033,0.46783,1.01676
138.245,22.87769,-0.02430465,0.47189,1.01575
140.845,23.11944,-0.0195083,0.47533,1.01471
143.445,23.36,-0.02829002,0.48117,1.01365
146.045,23.59939,-0.02369765,0.48598,1.01257
148.645,23.83814,-0.02611016,0.4872,1.01147
151.245,24.07649,-0.02827754,0.49378,1.01034
153.845,24.3138,-0.02468964,0.49813,1.00919
156.445,24.55058,-0.0250637,0.50192,1.00802
159.045,24.78761,-0.02904868,0.50418,1.00683
161.645,25.02371,-0.02324045,0.50848,1.00561
164.245,25.26003,-0.02171062,0.50973,1.00438
166.845,25.49531,-0.02579747,0.51366,1.00312
169.445,25.73047,-0.0248733,0.5134,1.00184
172.045,25.96538,-0.03094061,0.51878,1.00055
174.645,26.20032,-0.03213255,0.52005,0.99923
177.245,26.43457,-0.02691292,0.52697,0.99789
179.845,26.66835,-0.02530694,0.52882,0.99653
182.445,26.9018,-0.03305981,0.53059,0.99515
185.045,27.13471,-0.03020249,0.53508,0.99375
187.645,27.36729,-0.02668554,0.53465,0.99234
190.245,27.5993,-0.03094199,0.53902,0.9909
192.845,27.8314,-0.02633925,0.54263,0.98944
195.445,28.0641,-0.02205977,0.54424,0.98797
198.045,28.2958,-0.03134567,0.54985,0.98648
200.645,28.52692,-0.03118356,0.55095,0.98497
203.245,28.7583,-0.0283677,0.55128,0.98344
205.845,28.9904,-0.01158552,0.55094,0.98189
208.445,29.22172,-0.03486126,0.55828,0.98033
211.045,29.45366,-0.04221676,0.55926,0.97875
213.645,29.6848,-0.03900051,0.56103,0.97715
216.245,29.91713,-0.03394922,0.5618,0.97554
218.845,30.149,-0.03017479,0.56322,0.97391
221.445,30.3805,-0.04009213,0.56591,0.97226
224.045,30.61236,-0.03605229,0.56626,0.9706
226.645,30.84457,-0.01523257,0.5645,0.96892
229.245,31.0767,-0.03815505,0.56802,0.96722
231.845,31.30883,-0.03250214,0.56931,0.96551
234.445,31.54162,-0.03762581,0.57422,0.96379
237.045,31.7744,-0.03969103,0.56971,0.96205
239.645,32.00477,-0.06106583,0.57809,0.96029
242.245,32.23853,-0.04027731,0.57383,0.95852
244.845,32.4711,-0.02789555,0.57311,0.95674
247.445,32.7031,-0.03645687,0.57871,0.95494
250.045,32.93557,-0.03615525,0.57856,0.95313
252.645,33.16875,-0.04023327,0.57965,0.9513
255.245,33.40152,-0.03882061,0.57959,0.94947
257.845,33.6344,-0.04481771,0.58041,0.94762
260.445,33.8677,-0.04522759,0.5812,0.94575
263.045,34.1013,-0.05056726,0.58197,0.94388
265.645,34.3344,-0.05438896,0.58269,0.94199
268.245,34.5685,-0.04805691,0.58063,0.94009
270.845,34.80117,-0.04985592,0.58321,0.93817
273.445,35.03606,-0.05255802,0.5799,0.93625
276.045,35.26958,-0.06780128,0.58609,0.93431
278.645,35.5043,-0.05322978,0.578,0.93237
281.245,35.73892,-0.05915574,0.58112,0.93041
283.845,35.9731,-0.05960258,0.57629,0.92844
286.445,36.2082,-0.05702883,0.57118,0.92646
289.045,36.4435,-0.05964645,0.57079,0.92447
291.645,36.6783,-0.06895421,0.5729,0.92247
294.245,36.914,-0.05996784,0.56308,0.92046
296.845,37.14904,-0.08051135,0.57445,0.91844
299.445,37.38463,-0.07290406,0.56997,0.91642
302.045,37.62059,-0.07085861,0.56554,0.91438
304.645,37.85682,-0.08129439,0.56575,0.91233
307.245,38.0929,-0.08895482,0.5736,0.91028
309.845,38.33007,-0.08192036,0.56496,0.90821
312.445,38.5674,-0.09618996,0.56628,0.90614
315.045,38.80533,-0.08987554,0.5544,0.90406
317.645,39.04204,-0.10102,0.55995,0.90198
320.245,39.28031,-0.09365565,0.54904,0.89988
322.845,39.5182,-0.08807176,0.53869,0.89778
325.445,39.7567,-0.10928,0.54367,0.89567
328.045,39.99442,-0.10764,0.54036,0.89356
330.645,40.23381,-0.09335682,0.52412,0.89143
333.245,40.47229,-0.10359,0.52603,0.88931
335.845,40.71059,-0.1144,0.52207,0.88717
338.445,40.94995,-0.12185,0.52093,0.88503
341.045,41.18949,-0.12795,0.51377,0.88288
343.645,41.4292,-0.12079,0.49912,0.88073
346.245,41.66884,-0.12705,0.49686,0.87857
348.845,41.90935,-0.12698,0.48747,0.87641
351.445,42.14975,-0.1358,0.48715,0.87424
354.045,42.39055,-0.13722,0.47862,0.87207
356.645,42.63127,-0.14675,0.4754,0.86989
359.245,42.87213,-0.14499,0.46633,0.86771
361.845,43.1135,-0.14474,0.4583,0.86553
364.445,43.35487,-0.14415,0.44772,0.86334
367.045,43.59565,-0.1548,0.44813,0.86114
369.645,43.83805,-0.1562,0.45024,0.85895
372.245,44.0799,-0.1699,0.45513,0.85675
374.845,44.3217,-0.17004,0.45883,0.85455
377.445,44.56436,-0.18216,0.47099,0.85234
380.045,44.80742,-0.17799,0.47937,0.85013
382.645,45.04979,-0.19581,0.50178,0.84792
385.245,45.29357,-0.1999,0.52535,0.84571
387.845,45.53787,-0.21127,0.55744,0.8435
390.445,45.7816,-0.21915,0.5887,0.84128
393.045,46.0255,-0.22437,0.6386,0.83906
395.645,46.26962,-0.23767,0.68768,0.83684
398.245,46.51405,-0.2628,0.75885,0.83462
400.845,46.75868,-0.2832,0.84416,0.8324
403.445,47.00345,-0.2955,0.93955,0.83018
406.045,47.24977,-0.31761,1.06384,0.82795
408.645,47.49411,-0.39365,1.24074,0.82573
411.245,47.74054,-0.41893,1.44117,0.8235
413.845,47.98741,-0.49696,1.70937,0.82128
416.445,48.2351,-0.55927,2.02709,0.81905
419.045,48.48363,-0.65882,2.4158,0.81683
421.645,48.73135,-0.79796,2.84633,0.81461
424.245,48.98141,-0.97668,3.32827,0.81238
426.845,49.22974,-1.14761,3.74981,0.81016
429.445,49.48086,-1.40144,4.14126,0.80794
432.045,49.73076,-1.63942,4.40848,0.80572
434.645,49.98063,-1.90602,4.46732,0.8035
437.245,50.2299,-2.16872,4.34427,0.80128
439.845,50.47703,-2.42825,4.06031,0.79906
442.445,50.7245,-2.65107,3.6586,0.79685
445.045,50.97117,-2.85362,3.19938,0.79464
447.645,51.21765,-3.02649,2.72286,0.79243
450.245,51.46407,-3.17491,2.26087,0.79022
452.845,51.7104,-3.29645,1.84458,0.78801
455.445,51.95486,-3.40148,1.50131,0.78581
458.045,52.20232,-3.46516,1.22255,0.78361
460.645,52.45085,-3.52742,1.02865,0.78141
463.245,52.6989,-3.58851,0.88647,0.77921
465.845,52.9468,-3.63412,0.77342,0.77702
468.445,53.1949,-3.67266,0.67722,0.77483
471.045,53.4439,-3.70251,0.59164,0.77265
473.645,53.6924,-3.74723,0.51264,0.77047
476.245,53.94194,-3.74896,0.42927,0.76829
478.845,54.19163,-3.76761,0.36324,0.76612
481.445,54.4415,-3.78518,0.29932,0.76395
484.045,54.69216,-3.78446,0.24818,0.76178
486.645,54.94246,-3.81291,0.22294,0.75962
489.245,55.1934,-3.79752,0.20085,0.75747
491.845,55.44562,-3.78945,0.18384,0.75531
494.445,55.6966,-3.80408,0.1821,0.75317
497.045,55.9486,-3.79537,0.17366,0.75103
499.645,56.2003,-3.80306,0.17143,0.74889
502.245,56.45176,-3.81319,0.16024,0.74676
504.845,56.70381,-3.80251,0.15,0.74463
507.445,56.9568,-3.8157,0.1514,0.74251
510.045,57.21,-3.79557,0.1412,0.74039
512.645,57.4627,-3.80881,0.15037,0.73828
515.245,57.71462,-3.81228,0.15691,0.73618
517.845,57.9681,-3.81561,0.15909,0.73408
520.445,58.22175,-3.80827,0.16245,0.73199
523.045,58.47576,-3.795,0.16336,0.7299
525.645,58.72936,-3.80892,0.16941,0.72782
528.245,58.9839,-3.81145,0.17583,0.72574
530.845,59.23882,-3.80388,0.17312,0.72368
533.445,59.4931,-3.80955,0.17872,0.72162
536.045,59.7465,-3.80376,0.17775,0.71956
538.645,60.0009,-3.80318,0.1724,0.71751
541.245,60.25487,-3.79994,0.16934,0.71547
543.845,60.50911,-3.82037,0.18364,0.71344
546.445,60.76461,-3.80094,0.18494,0.71141
549.045,61.01951,-3.80418,0.18165,0.70939
551.645,61.2751,-3.80838,0.18219,0.70738
554.245,61.53162,-3.8016,0.17739,0.70537
556.845,61.78702,-3.81824,0.18737,0.70337
559.445,62.0432,-3.79735,0.18027,0.70138
562.045,62.2991,-3.81827,0.18703,0.6994
564.645,62.5548,-3.79974,0.18657,0.69742
567.245,62.8121,-3.79311,0.18035,0.69545
569.845,63.0693,-3.7883,0.17806,0.69349
572.445,63.3262,-3.80485,0.19246,0.69154
575.045,63.58311,-3.80344,0.19252,0.6896
577.645,63.83945,-3.81598,0.2006,0.68766
580.245,64.09682,-3.82041,0.20198,0.68573
582.845,64.35489,-3.78259,0.18382,0.68381
585.445,64.6119,-3.80076,0.19164,0.6819
588.045,64.8696,-3.80669,0.20092,0.68
590.645,65.1288,-3.81368,0.20906,0.6781
593.245,65.3861,-3.81771,0.2087,0.67621
595.845,65.64319,-3.81755,0.21522,0.67433
598.445,65.90006,-3.80874,0.20548,0.67246
601.045,66.15788,-3.81098,0.21079,0.6706
603.645,66.4153,-3.80225,0.20759,0.66875
606.245,66.6742,-3.80383,0.20945,0.6669
608.845,66.93205,-3.80628,0.21244,0.66507
611.445,67.19051,-3.81553,0.22068,0.66324
614.045,67.44934,-3.79684,0.21118,0.66142
616.645,67.70825,-3.81473,0.22354,0.65961
619.245,67.9665,-3.8178,0.22364,0.65781
621.845,68.22463,-3.81814,0.23246,0.65602
624.445,68.4843,-3.81517,0.22882,0.65424
627.045,68.74445,-3.80113,0.22882,0.65247
629.645,69.00399,-3.81347,0.23437,0.6507
632.245,69.26357,-3.79153,0.22927,0.64895
634.845,69.5231,-3.81055,0.23359,0.6472
637.445,69.78278,-3.80795,0.23325,0.64547
639.545,69.99242,-3.80645,0.23467,0.64407