Folder: fsri_materials_database/01_Data/PlasticC/STA/N2/30K_min

Note: 01_Data/README.md
# Materials and Products Database
## 01_Data

Raw data generated from each apparatus are included here in plain-text format. The data is organized first by material, next by the short name of test apparatus used, and where applicable additional filtering by test settings.

### material.json

Each material directory contains a json file of the same name as the material. This file links the data stored in the repository as well as data and graphs produced by the accompanying scripts (__02_Scripts__) to the respective landing page for the material on the front-end website.

File: PlasticC_STA_N2_30KData_211027_R1.csv
,Time/min,DSC/mW,Mass loss/mg,Sensit./(uV/mW)
50.0,10.9628,-0.00394683,0.0801025,1.05402
52.4,11.6012,0.32611,0.0831861,1.05406
54.8,11.9162,0.574741,0.0841385,1.05406
57.2,12.1555,0.776133,0.0892908,1.05404
59.6,12.3583,0.942012,0.084264,1.05399
62,12.5407,1.08153,0.0903299,1.05391
64.4,12.7094,1.19903,0.082997,1.0538
66.8,12.8679,1.29965,0.0824663,1.05367
69.2,13.019,1.4215,0.0898524,1.05351
71.6,13.1638,1.53393,0.0867219,1.05332
74,13.3037,1.61298,0.0933071,1.0531
76.4,13.4385,1.68908,0.0865232,1.05286
78.8,13.5694,1.76282,0.0885302,1.05259
81.2,13.6973,1.8647,0.0934184,1.05229
83.6,13.8205,1.94059,0.0989801,1.05197
86,13.9402,1.94631,0.0981089,1.05161
88.4,14.0566,1.94398,0.0949561,1.05124
90.8,14.1697,1.97732,0.0890003,1.05083
93.2,14.2801,2.06178,0.0908669,1.0504
95.6,14.3875,2.16489,0.0942283,1.04996
98,14.4929,2.28387,0.0976232,1.04948
100.4,14.5959,2.42596,0.0908394,1.04896
102.8,14.6968,2.57121,0.100576,1.04843
105.2,14.7957,2.69809,0.0994896,1.04788
107.6,14.8928,2.78695,0.0916003,1.0473
110,14.9884,2.85468,0.0955312,1.04669
112.4,15.0826,2.92586,0.0981501,1.04606
114.8,15.1757,2.98667,0.0978982,1.0454
117.2,15.2675,3.05579,0.0988529,1.04472
119.6,15.358,3.12871,0.10058,1.04402
122,15.447,3.21081,0.0982892,1.04329
124.4,15.5353,3.26232,0.0980996,1.04254
126.8,15.6221,3.33363,0.10008,1.04176
129.2,15.7082,3.39813,0.10135,1.04096
131.6,15.7933,3.45972,0.104097,1.04013
134,15.8773,3.50638,0.0948405,1.03929
136.4,15.9603,3.56417,0.101598,1.03841
138.8,16.0428,3.60392,0.0956401,1.03752
141.2,16.1243,3.65925,0.0995527,1.03661
143.6,16.205,3.71752,0.0980766,1.03567
146,16.2847,3.761,0.0971807,1.03471
148.4,16.3643,3.81799,0.100309,1.03372
150.8,16.443,3.86645,0.100136,1.03272
153.2,16.5212,3.91823,0.10146,1.03169
155.6,16.5989,3.96643,0.103002,1.03064
158,16.6758,4.01857,0.106365,1.02957
160.4,16.7523,4.07114,0.11012,1.02848
162.8,16.8284,4.12574,0.106711,1.02737
165.2,16.9041,4.16957,0.10398,1.02624
167.6,16.9794,4.20658,0.0958959,1.02508
170,17.0542,4.24778,0.096208,1.02391
172.4,17.1286,4.3001,0.103581,1.02272
174.8,17.2025,4.3527,0.114725,1.0215
177.2,17.2758,4.39819,0.104787,1.02027
179.6,17.3489,4.42676,0.0974576,1.01902
182,17.4214,4.47057,0.104845,1.01775
184.4,17.4936,4.5187,0.106156,1.01646
186.8,17.5652,4.55668,0.106844,1.01515
189.2,17.6366,4.59973,0.104422,1.01382
191.6,17.7076,4.63237,0.101688,1.01247
194,17.7783,4.67601,0.105659,1.0111
196.4,17.8486,4.72858,0.112708,1.00972
198.8,17.9187,4.76511,0.109188,1.00832
201.2,17.9885,4.80049,0.105001,1.0069
203.6,18.058,4.8424,0.10162,1.00546
206,18.1273,4.87421,0.102883,1.00401
208.4,18.1965,4.92387,0.104083,1.00253
210.8,18.2653,4.95811,0.1042,1.00104
213.2,18.3341,5.00332,0.10694,0.999535
215.6,18.4025,5.04857,0.10694,0.998017
218,18.4705,5.07464,0.105502,0.996477
220.4,18.539,5.11945,0.10551,0.994918
222.8,18.6068,5.17167,0.107483,0.993348
225.2,18.6746,5.19086,0.113263,0.991767
227.6,18.7422,5.23,0.102266,0.990158
230,18.8095,5.26112,0.10747,0.988547
232.4,18.8769,5.30645,0.104523,0.986917
234.8,18.9441,5.33028,0.1031,0.985269
237.2,19.0112,5.35515,0.1031,0.983609
239.6,19.078,5.39096,0.101769,0.981929
242,19.1448,5.42261,0.0989658,0.980239
244.4,19.2114,5.44321,0.110501,0.978539
246.8,19.278,5.46748,0.106172,0.976819
249.2,19.3443,5.50034,0.103458,0.975089
251.6,19.4107,5.51311,0.101372,0.97335
254,19.4769,5.55076,0.111077,0.971589
256.4,19.5431,5.57118,0.105432,0.969819
258.8,19.609,5.5917,0.10409,0.96804
261.2,19.6751,5.61234,0.102216,0.966243
263.6,19.7409,5.63099,0.0992595,0.964431
266,19.8068,5.65386,0.102051,0.96261
268.4,19.8725,5.66927,0.10485,0.96078
270.8,19.9381,5.68581,0.104859,0.958942
273.2,20.0036,5.7023,0.103404,0.957089
275.6,20.0692,5.7248,0.10343,0.955221
278,20.1346,5.73482,0.101584,0.953341
280.4,20.2,5.75123,0.0992601,0.951461
282.8,20.2654,5.74966,0.099253,0.949562
285.2,20.3309,5.76664,0.0987782,0.947652
287.6,20.3961,5.77017,0.0996983,0.945742
290,20.4615,5.77207,0.09948,0.943812
292.4,20.5268,5.78543,0.0964346,0.941872
294.8,20.5922,5.79289,0.0947902,0.939924
297.2,20.6575,5.78562,0.094,0.937972
299.6,20.7228,5.79352,0.0924602,0.936004
302,20.7879,5.79269,0.0901538,0.934031
304.4,20.8532,5.78769,0.08884,0.932051
306.8,20.9185,5.79176,0.0888156,0.930061
309.2,20.9837,5.79297,0.0902114,0.928061
311.6,21.0491,5.80034,0.0872798,0.926054
314,21.1144,5.79748,0.0844047,0.924044
316.4,21.1796,5.8041,0.0834339,0.922021
318.8,21.2448,5.82626,0.0825223,0.919994
321.2,21.3101,5.84216,0.0810864,0.917963
323.6,21.3754,5.84239,0.0754852,0.915914
326,21.4407,5.84598,0.0732301,0.913864
328.4,21.5061,5.83473,0.0754097,0.911812
330.8,21.5715,5.83592,0.0717552,0.909752
333.2,21.6369,5.82899,0.0675668,0.907682
335.6,21.7024,5.81774,0.0672641,0.905603
338,21.7678,5.80146,0.0634478,0.903523
340.4,21.8333,5.76988,0.0614339,0.901445
342.8,21.8988,5.73303,0.0621265,0.899355
345.2,21.9643,5.71412,0.0602087,0.897253
347.6,22.03,5.67532,0.0588751,0.895153
350,22.0957,5.6264,0.0589013,0.893055
352.4,22.1615,5.59416,0.0558548,0.890944
354.8,22.2273,5.54258,0.0480229,0.888832
357.2,22.2931,5.49109,0.0416434,0.886715
359.6,22.3589,5.43094,0.0424451,0.884595
362,22.4249,5.37017,0.0394336,0.882464
364.4,22.4911,5.29537,0.0386,0.880333
366.8,22.5572,5.21457,0.0368105,0.878204
369.2,22.6235,5.1524,0.033897,0.876074
371.6,22.6897,5.08818,0.0271284,0.873934
374,22.7559,4.99305,0.027783,0.871794
376.4,22.8224,4.89936,0.0351648,0.869654
378.8,22.8888,4.8354,0.026672,0.867504
381.2,22.9554,4.77889,0.0196146,0.865353
383.6,23.022,4.7323,0.00203118,0.863215
386,23.0887,4.67613,0.0218525,0.861053
388.4,23.1555,4.66984,-0.000106212,0.858904
390.8,23.2224,4.659,0.000362644,0.856754
393.2,23.2894,4.64058,0.00842181,0.854594
395.6,23.3564,4.69089,-0.00785309,0.852444
398,23.4234,4.77945,-0.0174823,0.850284
400.4,23.4907,4.90257,-0.0245891,0.848124
402.8,23.5581,5.05451,-0.0272664,0.845974
405.2,23.6254,5.28366,-0.0373047,0.843814
407.6,23.693,5.55243,-0.0496726,0.841654
410,23.7607,5.89847,-0.0575165,0.839494
412.4,23.8284,6.30999,-0.0682693,0.837334
414.8,23.8964,6.78895,-0.0717835,0.835174
417.2,23.9642,7.39908,-0.0864973,0.833024
419.6,24.0324,8.15638,-0.108686,0.830864
422,24.1007,9.03424,-0.118265,0.828704
424.4,24.1689,10.135,-0.14137,0.826554
426.8,24.2374,11.4257,-0.176079,0.824404
429.2,24.306,12.9706,-0.216003,0.822244
431.6,24.3749,14.9119,-0.254822,0.820094
434,24.4439,17.3419,-0.307519,0.817945
436.4,24.5131,19.988,-0.370208,0.815804
438.8,24.5826,23.1001,-0.440059,0.813654
441.2,24.6522,26.6476,-0.5301,0.811514
443.6,24.7222,30.5581,-0.641687,0.809374
446,24.7923,34.4411,-0.786532,0.807234
448.4,24.8629,38.4129,-0.942333,0.805093
450.8,24.9337,41.9962,-1.11286,0.802964
453.2,25.0044,45.1486,-1.32715,0.800834
455.6,25.0754,47.2616,-1.55097,0.798712
458,25.1462,48.1133,-1.78475,0.796584
460.4,25.217,47.7248,-2.01789,0.794464
462.8,25.2876,45.7582,-2.23766,0.792343
465.2,25.3579,42.5296,-2.45036,0.790235
467.6,25.4279,38.4947,-2.63971,0.788125
470,25.4977,34.0063,-2.79737,0.786022
472.4,25.5674,29.3848,-2.94158,0.783913
474.8,25.6367,24.9547,-3.06718,0.781822
477.2,25.7059,20.9176,-3.17725,0.779723
479.6,25.7753,17.3375,-3.25927,0.777633
482,25.8447,14.2778,-3.32866,0.775555
484.4,25.9142,11.7655,-3.38877,0.773475
486.8,25.9841,9.73033,-3.44189,0.771402
489.2,26.0539,8.11545,-3.49813,0.769332
491.6,26.124,6.72094,-3.51348,0.767264
494,26.1945,5.55585,-3.55035,0.765204
496.4,26.2651,4.52342,-3.5718,0.763152
498.8,26.3358,3.61422,-3.59275,0.761102
501.2,26.4064,2.81197,-3.61108,0.759062
503.6,26.4774,2.09569,-3.63501,0.757022
506,26.5485,1.47614,-3.62217,0.754993
508.4,26.6198,1.00152,-3.64454,0.752962
510.8,26.6911,0.615226,-3.64998,0.750942
513.2,26.7626,0.343209,-3.64957,0.748924
515.6,26.8341,0.174245,-3.65162,0.746923
518,26.9058,0.0493211,-3.6513,0.744914
520.4,26.9777,-0.0291839,-3.64753,0.742921
522.8,27.0496,-0.102204,-3.6418,0.740931
525.2,27.1217,-0.149855,-3.64844,0.738953
527.6,27.194,-0.168257,-3.64802,0.736971
530,27.2662,-0.19353,-3.65108,0.735001
532.4,27.3385,-0.237429,-3.65531,0.733042
534.8,27.4109,-0.302784,-3.66183,0.731084
537.2,27.4836,-0.352855,-3.64941,0.729143
539.6,27.5563,-0.39388,-3.64908,0.727191
542,27.629,-0.41384,-3.65259,0.725262
544.4,27.7019,-0.435253,-3.65038,0.723332
546.8,27.7749,-0.460693,-3.64572,0.721412
549.2,27.8478,-0.474548,-3.64928,0.719502
551.6,27.9209,-0.48005,-3.65154,0.717601
554,27.9942,-0.505383,-3.64843,0.715702
556.4,28.0676,-0.523973,-3.64416,0.713812
558.8,28.141,-0.53713,-3.64152,0.711931
561.2,28.2146,-0.564584,-3.63671,0.710051
563.6,28.2882,-0.561,-3.64147,0.708192
566,28.362,-0.567381,-3.63556,0.706332
568.4,28.4351,-0.537822,-3.65838,0.704482
570.8,28.5089,-0.523888,-3.66785,0.702642
573.2,28.5829,-0.518666,-3.65312,0.700809
575.6,28.6568,-0.544018,-3.63904,0.698983
578,28.7309,-0.554025,-3.64465,0.697161
580.4,28.8051,-0.573214,-3.64497,0.695351
582.8,28.8793,-0.581626,-3.64245,0.693551
585.2,28.9534,-0.583866,-3.64268,0.691758
587.6,29.0277,-0.606557,-3.64713,0.68998
590,29.1023,-0.611727,-3.64949,0.688198
592.4,29.1767,-0.656081,-3.64432,0.686431
594.8,29.2512,-0.683188,-3.63201,0.68468
597.2,29.3261,-0.686809,-3.63172,0.68293
599.6,29.4005,-0.669243,-3.64992,0.68119
602,29.4753,-0.706303,-3.62817,0.679451
604.4,29.5506,-0.721042,-3.6484,0.677729
606.8,29.6256,-0.732824,-3.64162,0.67602
609.2,29.7006,-0.735827,-3.6398,0.674309
611.6,29.7757,-0.731488,-3.6425,0.672609
614,29.8508,-0.748852,-3.65204,0.670929
616.4,29.9261,-0.774192,-3.63617,0.669249
618.8,,,,
621.2,,,,
623.6,,,,
626,,,,
628.4,,,,
630.8,,,,
633.2,,,,
635.6,,,,
638,,,,
640.4,,,,
642.8,,,,
645.2,,,,
647.6,,,,
650,,,,
652.4,,,,
654.8,,,,
657.2,,,,
659.6,,,,
662,,,,
664.4,,,,
666.8,,,,
669.2,,,,
671.6,,,,
674,,,,
676.4,,,,
678.8,,,,
681.2,,,,
683.6,,,,
686,,,,
688.4,,,,
690.8,,,,
693.2,,,,
695.6,,,,
698,,,,
700.4,,,,
702.8,,,,
705.2,,,,
707.6,,,,
710,,,,
712.4,,,,
714.8,,,,
717.2,,,,
719.6,,,,
722,,,,
724.4,,,,
726.8,,,,
729.2,,,,
731.6,,,,
734,,,,
736.4,,,,
738.8,,,,
741.2,,,,
743.6,,,,
746,,,,
748.4,,,,
750,,,,

File: PlasticC_STA_N2_30KData_211028_R2.csv
Temp/C,Time/min,DSC/mW,Mass loss/mg,Sensit./(uV/mW)
50,10.9602,-0.0314842,0.04793034,1.05402
52.5,11.6114,0.24457,0.0501191,1.05406
55,11.9304,0.451483,0.05136,1.05406
57.5,12.174,0.607066,0.0534493,1.05403
60,12.3805,0.741745,0.0540997,1.05398
62.5,12.566,0.855853,0.0557488,1.05389
65,12.7379,0.943419,0.0557909,1.05377
67.5,12.8998,1.04196,0.0547026,1.05362
70,13.0541,1.11507,0.0563302,1.05345
72.5,13.2024,1.18977,0.0557462,1.05324
75,13.3457,1.25485,0.0565395,1.053
77.5,13.4839,1.31481,0.057303,1.05274
80,13.6184,1.37148,0.0553412,1.05244
82.5,13.7485,1.45398,0.05748199,1.05212
85,13.8746,1.45395,0.0573121,1.05177
87.5,13.9972,1.42873,0.0586645,1.05139
90,14.1158,1.43515,0.0585798,1.05098
92.5,14.2316,1.4924,0.0597719,1.05054
95,14.3442,1.56784,0.0591961,1.05007
97.5,14.4541,1.65544,0.0599822,1.04958
100,14.5614,1.78396,0.0593959,1.04905
102.5,14.6665,1.91092,0.060979,1.0485
105,14.7703,2.03351,0.0595493,1.04793
107.5,14.8718,2.11895,0.0596887,1.04732
110,14.9714,2.18004,0.0583691,1.04669
112.5,15.0696,2.23635,0.059422,1.04603
115,15.1664,2.27507,0.0592325,1.04535
117.5,15.2614,2.33058,0.0592225,1.04463
120,15.3555,2.37582,0.0606758,1.0439
122.5,15.4483,2.42844,0.0607109,1.04313
125,15.5396,2.47285,0.0599886,1.04234
127.5,15.6299,2.50876,0.0620847,1.04152
130,15.7188,2.554,0.06135765,1.04068
132.5,15.807,2.59935,0.060934,1.03982
135,15.8941,2.63516,0.0618528,1.03892
137.5,15.9802,2.67536,0.0623247,1.03801
140,16.0655,2.70719,0.0619468,1.03706
142.5,16.1496,2.73703,0.06198,1.0361
145,16.2333,2.76858,0.0617404,1.03511
147.5,16.316,2.81308,0.0601873,1.03409
150,16.3982,2.84621,0.0640389,1.03305
152.5,16.4797,2.88145,0.0621096,1.03199
155,16.5607,2.91713,0.06210953,1.03091
157.5,16.6409,2.94077,0.0634,1.0298
160,16.721,2.98234,0.0633998,1.02867
162.5,16.8003,3.01013,0.0633408,1.02751
165,16.8791,3.05098,0.06204653,1.02633
167.5,16.9574,3.07536,0.0634,1.02513
170,17.0354,3.11596,0.0633999,1.02391
172.5,17.1127,3.14462,0.0634,1.022672
175,17.1896,3.18242,0.0647095,1.0214
177.5,17.266,3.20504,0.06341,1.02012
180,17.3419,3.24158,0.0643052,1.01881
182.5,17.4177,3.26396,0.0632057,1.01748
185,17.4925,3.29994,0.0640752,1.01613
187.5,17.5671,3.33018,0.0631723,1.01476
190,17.6414,3.36857,0.0621818,1.01337
192.5,17.7151,3.39824,0.0621891,1.01196
195,17.7887,3.43049,0.06219,1.01053
197.5,17.8619,3.46561,0.0633209,1.00908
200,17.9347,3.49303,0.0648387,1.00761
202.5,18.0073,3.53304,0.0635175,1.00612
205,18.0797,3.56981,0.06352002,1.00461
207.5,18.1516,3.5911,0.06352,1.00308
210,18.2235,3.62313,0.06352,1.00154
212.5,18.2952,3.68055,0.06352,0.999973
215,18.3665,3.70039,0.06352,0.998393
217.5,18.438,3.73059,0.063362,0.996793
220,18.5089,3.76288,0.06318,0.995183
222.5,18.5794,3.79678,0.06351,0.993543
225,18.6504,3.82468,0.0622,0.991893
227.5,18.721,3.8666,0.0622,0.990233
230,18.791,3.89551,0.06317,0.988543
232.5,18.8611,3.92924,0.06219,0.986843
235,18.9311,3.95799,0.06180792,0.985133
237.5,19.0008,3.98956,0.0593498,0.983393
240,19.0704,4.01463,0.0653814,0.9816528
242.5,19.14,4.03605,0.0626628,0.979883
245,19.2092,4.06439,0.06165,0.978113
247.5,19.2783,4.09774,0.0616815,0.976313
250,19.3476,4.12656,0.06034,0.974513
252.5,19.4166,4.15454,0.0616507,0.972683
255,19.4855,4.16869,0.0596703,0.970853
257.5,19.5544,4.19551,0.05902,0.969003
260,19.623,4.2239,0.0584015,0.967143
262.5,19.6916,4.24331,0.0577,0.965263
265,19.7604,4.27497,0.0577,0.963373
267.5,19.8288,4.29529,0.05639,0.961473
270,19.8971,4.31808,0.0595067,0.959553
272.5,19.9655,4.33053,0.0520092,0.957633
275,20.0337,4.35056,0.05211,0.955693
277.5,20.102,4.35808,0.0534296,0.953733
280,20.1702,4.37458,0.0514219,0.951773
282.5,20.2383,4.40057,0.05079,0.949803
285,20.3066,4.40782,0.0518246,0.9478132
287.5,20.3747,4.42043,0.0508,0.9458132
290,20.4429,4.41593,0.0481785,0.943813
292.5,20.511,4.43059,0.04684,0.941793
295,20.579,4.43667,0.0468198,0.939763
297.5,20.647,4.44435,0.0455288,0.937723
300,20.715,4.45291,0.0442197,0.935683
302.5,20.783,4.4522,0.0426712,0.933623
305,20.8511,4.46646,0.04159,0.931553
307.5,20.9191,4.46398,0.0389506,0.929483
310,20.9871,4.47557,0.0389361,0.927393
312.5,21.0552,4.48077,0.0361,0.925303
315,21.1233,4.4832,0.0360905,0.923203
317.5,21.1912,4.47992,0.0346067,0.921093
320,21.2592,4.49635,0.0321626,0.918973
322.5,21.3271,4.49869,0.02927549,0.916853
325,21.3952,4.50823,0.0278236,0.914723
327.5,21.4632,4.51542,0.0263012,0.912583
330,21.5313,4.50305,0.02390967,0.910433
332.5,21.5993,4.48551,0.0211019,0.908284
335,21.6674,4.48154,0.0195225,0.906123
337.5,21.7352,4.46623,0.0170297,0.903963
340,21.8036,4.42823,0.0155001,0.901793
342.5,21.872,4.41325,0.0141705,0.899614
345,21.9403,4.38374,0.009083638,0.897434
347.5,22.0085,4.34662,0.008256761,0.895244
350,22.0771,4.29478,0.005389968,0.893054
352.5,22.1456,4.25594,0.002772981,0.890854
355,22.2141,4.20269,0.00235034,0.888654
357.5,22.28275,4.1496,-0.001075471,0.886443
360,22.3514,4.09665,-0.005511972,0.884233
362.5,22.42,4.0306,-0.0054812,0.882024
365,22.4888,3.96278,-0.008191301,0.879804
367.5,22.5578,3.89037,-0.011677,0.877584
370,22.6267,3.81023,-0.0126663,0.875363
372.5,22.6957,3.74082,-0.0165685,0.873134
375,22.7648,3.66141,-0.0200292,0.870904
377.5,22.8341,3.57947,-0.023268,0.868663
380,22.9031,3.51832,-0.026223,0.8664336
382.5,22.9726,3.44738,-0.0320454,0.8641936
385,23.042,3.40418,-0.0355298,0.8619536
387.5,23.1116,3.36657,-0.0373115,0.8597136
390,23.1813,3.35671,-0.0423808,0.8574736
392.5,23.2509,3.3723,-0.0495094,0.8552236
395,23.3206,3.42423,-0.0548083,0.8529836
397.5,23.3904,3.51258,-0.0613552,0.8507336
400,23.4604,3.61693,-0.067836,0.8484836
402.5,23.5306,3.78481,-0.0774033,0.8462436
405,23.6007,4.00164,-0.0854993,0.8439936
407.5,23.6711,4.30411,-0.0916761,0.8417436
410,23.7416,4.67847,-0.10169,0.8394936
412.5,23.8122,5.08732,-0.113142,0.8372436
415,23.8829,5.63564,-0.125702,0.834994
417.5,23.9538,6.2551,-0.145421,0.8327536
420,24.0244,7.03856,-0.162162,0.8305036
422.5,24.0959,8.03687,-0.182814,0.828264
425,24.167,9.19451,-0.209279,0.8260136
427.5,24.2386,10.6424,-0.238466,0.8237736
430,24.3103,12.3187,-0.274837,0.8215336
432.5,24.3819,14.555,-0.318383,0.8192936
435,24.4538,17.2017,-0.378783,0.8170536
437.5,24.5259,20.3192,-0.451367,0.814814
440,24.5984,23.5448,-0.549383,0.8125836
442.5,24.6712,27.2782,-0.654331,0.8103536
445,24.7442,31.2519,-0.783569,0.808124
447.5,24.8174,35.1768,-0.932937,0.805903
450,24.891,39.1215,-1.10799,0.803674
452.5,24.9646,42.5651,-1.32676,0.801454
455,25.0386,45.2107,-1.54959,0.799244
457.5,25.1124,46.6803,-1.78155,0.797023
460,25.1861,46.8451,-2.02078,0.794813
462.5,25.2599,45.4367,-2.2593,0.792614
465,25.3334,42.6193,-2.48254,0.790414
467.5,25.4065,38.7415,-2.68664,0.788214
470,25.4793,34.0756,-2.87071,0.786023
472.5,25.5521,29.1355,-3.02301,0.783833
475,25.6244,24.4039,-3.15514,0.781643
477.5,25.6968,20.0624,-3.26689,0.779463
480,25.7691,16.3151,-3.35699,0.777293
482.5,25.8415,13.1718,-3.434426,0.775123
485,25.9139,10.6116,-3.50328,0.772953
487.5,25.9867,8.51161,-3.54087,0.770793
490,26.0598,6.84439,-3.58937,0.768643
492.5,26.1328,5.45877,-3.62401,0.766493
495,26.2062,4.2878,-3.6562,0.764353
497.5,26.2799,3.27061,-3.68145,0.762213
500,26.3536,2.34376,-3.7002,0.760083
502.5,26.4276,1.55126,-3.71552,0.757953
505,26.5017,0.850913,-3.72796,0.755833
507.5,26.5759,0.284323,-3.73472,0.753723
510,26.6503,-0.154416,-3.73996,0.751613
512.5,26.7247,-0.469958,-3.74272,0.749513
515,26.7992,-0.682162,-3.74554,0.747423
517.5,26.8738,-0.816683,-3.747,0.745333
520,26.9486,-0.905839,-3.74558,0.743253
522.5,27.0235,-0.979993,-3.75592,0.741183
525,27.0985,-1.02612,-3.74165,0.739113
527.5,27.1737,-1.05204,-3.74775,0.737053
530,27.2488,-1.09012,-3.74545,0.735003
532.5,27.3241,-1.11851,-3.74642,0.732963
535,27.3999,-1.18734,-3.74073,0.730923
537.5,27.4753,-1.26091,-3.75285,0.728893
540,27.5511,-1.29988,-3.74917,0.7268732
542.5,27.6267,-1.33754,-3.7485,0.724863
545,27.7024,-1.36231,-3.74836,0.7228532
547.5,27.7787,-1.39682,-3.74709,0.7208532
550,27.8548,-1.43074,-3.74709,0.718863
552.5,27.9312,-1.45346,-3.74619,0.716883
555,28.0075,-1.47616,-3.7471,0.714913
557.5,28.0841,-1.49163,-3.74588,0.712953
560,28.1605,-1.52223,-3.74579,0.710993
562.5,28.237,-1.52511,-3.74611,0.709043
565,28.3137,-1.54144,-3.74744,0.707103
567.5,28.3906,-1.58528,-3.74611,0.705173
570,28.4675,-1.61839,-3.74479,0.703253
572.5,28.5443,-1.64439,-3.74742,0.701343
575,28.6215,-1.6429,-3.74741,0.699433
577.5,28.6987,-1.65812,-3.7471,0.697543
580,28.7759,-1.68752,-3.7461,0.695653
582.5,28.8533,-1.69206,-3.7461,0.693773
585,28.9306,-1.70648,-3.74468,0.691913
587.5,29.0082,-1.71787,-3.74402,0.690053
590,29.0857,-1.72936,-3.74512,0.688203
592.5,29.1634,-1.73436,-3.74643,0.686363
595,29.2412,-1.73492,-3.74564,0.684533
597.5,29.319,-1.7515,-3.74512,0.682713
600,29.3968,-1.75759,-3.7464,0.680893
602.5,29.475,-1.75375,-3.74369,0.679093
605,29.553,-1.75896,-3.74501,0.677303
607.5,29.6313,-1.75448,-3.74499,0.675513
610,29.7097,-1.74699,-3.74364,0.6737428
612.5,29.7881,-1.73795,-3.74633,0.671983
615,29.8663,-1.75985,-3.74501,0.6702228
617.5,29.9448,-1.7677,-3.74774,0.6684828
620,,,,
622.5,,,,
625,,,,
627.5,,,,
630,,,,
632.5,,,,
635,,,,
637.5,,,,
640,,,,
642.5,,,,
645,,,,
647.5,,,,
650,,,,
652.5,,,,
655,,,,
657.5,,,,
660,,,,
662.5,,,,
665,,,,
667.5,,,,
670,,,,
672.5,,,,
675,,,,
677.5,,,,
680,,,,
682.5,,,,
685,,,,
687.5,,,,
690,,,,
692.5,,,,
695,,,,
697.5,,,,
700,,,,
702.5,,,,
705,,,,
707.5,,,,
710,,,,
712.5,,,,
715,,,,
717.5,,,,
720,,,,
722.5,,,,
725,,,,
727.5,,,,
730,,,,
732.5,,,,
735,,,,
737.5,,,,
740,,,,
742.5,,,,
745,,,,
747.5,,,,
750,,,,