Folder: fsri_materials_database/01_Data/PlasticC/STA/N2/30K_min (part 2)

File: PlasticC_STA_N2_30KData_211028_R3.csv
Temp/C,Time/min,DSC/mW,Mass loss/mg,Sensit./(uV/mW)
50,10.9429,0.0682081,-0.0173493,1.05402
52.5,11.6099,0.329369,-0.0167245,1.05406
55,11.9323,0.500519,-0.0176532,1.05406
57.5,12.1756,0.634036,-0.015939,1.054029
60,12.3836,0.753234,-0.0156059,1.05398
62.5,12.5696,0.843767,-0.0172547,1.05389
65,12.7423,0.934309,-0.02692458,1.05377
67.5,12.9045,1.01446,-0.0191656,1.05363
70,13.059,1.08466,-0.0173308,1.05344
72.5,13.2075,1.14367,-0.0159334,1.05325
75,13.351,1.20605,-0.0158451,1.053005
77.5,13.4897,1.25218,-0.0173895,1.05273
80,13.6234,1.31683,-0.0159893,1.05244
82.5,13.7542,1.38275,-0.0158965,1.05212
85,13.8796,1.37409,-0.0157671,1.05176
87.5,14.0031,1.34521,-0.0169452,1.05139
90,14.1218,1.34796,-0.0172307,1.05097
92.5,14.2377,1.39826,-0.01626724,1.05054
95,14.3503,1.46449,-0.0159379,1.05007
97.5,14.4605,1.55344,-0.0169857,1.04958
100,14.568,1.66696,-0.0170706,1.04905
102.5,14.6732,1.78755,-0.0161364,1.048505
105,14.7765,1.90386,-0.0158125,1.04793
107.5,14.8781,1.97621,-0.0173559,1.04732
110,14.9778,2.03665,-0.0155754,1.04669
112.5,15.0761,2.09392,-0.0154223,1.04604
115,15.1727,2.15326,-0.01648323,1.04535
117.5,15.2681,2.18623,-0.00969062,1.04463
120,15.362,2.21952,-0.0170002,1.043895
122.5,15.4548,2.25405,-0.015558,1.04313
125,15.5461,2.29213,-0.0164075,1.04235
127.5,15.6364,2.32535,-0.0164502,1.04152
130,15.7253,2.36506,-0.016334,1.04069
132.5,15.8135,2.39274,-0.0171095,1.03982
135,15.9007,2.42657,-0.01737712,1.038925
137.5,15.9868,2.46038,-0.017441,1.03801
140,16.072,2.49099,-0.0161099,1.03707
142.5,16.1565,2.51637,-0.0157392,1.0361
145,16.2401,2.53832,-0.0172101,1.03511
147.5,16.3228,2.57679,-0.0172246,1.034095
150,16.4051,2.60085,-0.017102,1.03306
152.5,16.4866,2.6358,-0.0171098,1.032
155,16.5677,2.67005,-0.0158177,1.03091
157.5,16.648,2.69586,-0.0170063,1.0298
160,16.7275,2.72504,-0.0159055,1.02866
162.5,16.8072,2.74933,-0.0171894,1.02752
165,16.886,2.76865,-0.01721022,1.026335
167.5,16.9646,2.79688,-0.0172103,1.02513
170,17.0425,2.81594,-0.0183673,1.02392
172.5,17.1199,2.83818,-0.0172107,1.02267
175,17.197,2.86308,-0.01721,1.0214
177.5,17.2734,2.88394,-0.0178074,1.02011
180,17.3494,2.90824,-0.01722,1.01881
182.5,17.4249,2.92653,-0.0185265,1.01748
185,17.5,2.94099,-0.0171975,1.01613
187.5,17.5749,2.95466,-0.0172765,1.01476
190,17.649,2.97656,-0.01732,1.01337
192.5,17.7229,2.99684,-0.01864,1.01196
195,17.7962,3.02106,-0.01864,1.01053
197.5,17.8695,3.04155,-0.0186704,1.00908
200,17.9424,3.06416,-0.0186399,1.00761
202.5,18.0148,3.08094,-0.0186399,1.00612
205,18.0872,3.10998,-0.0199677,1.00461
207.5,18.1596,3.1285,-0.0186926,1.003085
210,18.2313,3.15213,-0.01995,1.00154
212.5,18.3031,3.17576,-0.019967,0.999981
215,18.3745,3.19352,-0.01863,0.998395
217.5,18.4456,3.21932,-0.0199465,0.996795
220,18.5167,3.23276,-0.0202679,0.99518
222.5,18.5874,3.25898,-0.0177835,0.993544
225,18.6581,3.26985,-0.0220936,0.991894
227.5,18.7286,3.28553,-0.0226114,0.99023
230,18.7989,3.30504,-0.0209539,0.988545
232.5,18.8691,3.31474,-0.0206708,0.986845
235,18.9389,3.32613,-0.02283099,0.985124
237.5,19.0088,3.33717,-0.02325,0.983395
240,19.0785,3.35349,-0.0232514,0.981644
242.5,19.1481,3.35809,-0.02061,0.979885
245,19.2175,3.36532,-0.0232502,0.978104
247.5,19.2867,3.3772,-0.023254,0.976315
250,19.3557,3.39114,-0.0245982,0.97451
252.5,19.4249,3.40087,-0.02588,0.972684
255,19.494,3.40102,-0.0245777,0.970856
257.5,19.5628,3.41414,-0.02588,0.969006
260,19.6316,3.41231,-0.02588,0.96714
262.5,19.7002,3.4179,-0.027191,0.965265
265,19.7689,3.41171,-0.02851,0.963375
267.5,19.8374,3.41565,-0.02851,0.961469
270,19.9059,3.41882,-0.0285111,0.959555
272.5,19.9743,3.4276,-0.0308166,0.957631
275,20.0426,3.41256,-0.03213,0.95569
277.5,20.1109,3.40963,-0.0321301,0.953741
280,20.179,3.42313,-0.0324599,0.951769
282.5,20.2473,3.4037,-0.0338866,0.9498
285,20.3154,3.38175,-0.0352,0.94781
287.5,20.3835,3.34371,-0.0365205,0.94582
290,20.4517,3.35924,-0.03784,0.94381
292.5,20.5197,3.42577,-0.03915,0.94179
295,20.5876,3.48835,-0.0404665,0.939759
297.5,20.6558,3.50702,-0.0417757,0.937731
300,20.7239,3.5268,-0.04314,0.93568
302.5,20.792,3.53612,-0.0444281,0.933619
305,20.86,3.51696,-0.0457622,0.931555
307.5,20.9279,3.51074,-0.0486722,0.92948
310,20.9958,3.49435,-0.0499011,0.927395
312.5,21.0638,3.49418,-0.05023,0.925305
315,21.1318,3.47672,-0.0517943,0.923199
317.5,21.1999,3.4617,-0.0546216,0.921095
320,21.2679,3.43371,-0.0559206,0.918975
322.5,21.336,3.42572,-0.0587531,0.91685
325,21.4039,3.40266,-0.0606035,0.91472
327.5,21.4719,3.37637,-0.06251017,0.91258
330,21.54,3.35016,-0.0647002,0.910434
332.5,21.6081,3.31505,-0.06678996,0.908286
335,21.6763,3.26525,-0.0680826,0.906124
337.5,21.7444,3.22582,-0.0708652,0.90396
340,21.8127,3.18176,-0.0711219,0.90179
342.5,21.881,3.11642,-0.0738099,0.899616
345,21.9493,3.05867,-0.0768225,0.897436
347.5,22.0176,3.00862,-0.0793611,0.895245
350,22.0859,2.93918,-0.0820191,0.893056
352.5,22.1544,2.85482,-0.0838185,0.890855
355,22.223,2.7896,-0.0867908,0.888655
357.5,22.2915,2.71191,-0.08807,0.886445
360,22.3603,2.628,-0.0909252,0.884235
362.5,22.429,2.54921,-0.09397334,0.882025
365,22.498,2.46209,-0.0982644,0.879805
367.5,22.5669,2.37626,-0.101032,0.877585
370,22.63581,2.28938,-0.104836,0.875354
372.5,22.7049,2.20315,-0.106124,0.873135
375,22.774,2.11382,-0.110549,0.870905
377.5,22.8433,2.02381,-0.113618,0.868665
380,22.9124,1.9489,-0.116842,0.866435
382.5,22.9819,1.86753,-0.120736,0.864195
385,23.0513,1.8234,-0.124973,0.861955
387.5,23.1208,1.78505,-0.1292,0.859715
390,23.1905,1.76495,-0.135632,0.857475
392.5,23.2602,1.77625,-0.140398,0.855225
395,23.3299,1.81714,-0.14681,0.852985
397.5,23.4,1.90819,-0.154333,0.850735
400,23.47,2.02794,-0.161647,0.848485
402.5,23.5402,2.15602,-0.167722,0.846235
405,23.6106,2.34597,-0.175593,0.843995
407.5,23.6811,2.62158,-0.183645,0.841745
410,23.7515,3.02746,-0.197456,0.839495
412.5,23.8222,3.43687,-0.210393,0.837245
415,23.893,3.98848,-0.221957,0.834995
417.5,23.9638,4.61558,-0.238137,0.832755
420,24.0348,5.42928,-0.256761,0.830505
422.5,24.1059,6.38517,-0.279194,0.828255
425,24.1771,7.56215,-0.304481,0.826015
427.5,24.2486,9.02667,-0.333838,0.823775
430,24.3202,10.7684,-0.372033,0.821535
432.5,24.3921,13.1688,-0.418443,0.819295
435,24.4641,15.7562,-0.48564,0.817055
437.5,24.5364,18.7849,-0.560306,0.814815
440,24.6089,22.356,-0.655635,0.812585
442.5,24.6817,26.0682,-0.77324,0.810355
445,24.7549,29.9366,-0.906519,0.808125
447.5,24.8283,33.8054,-1.06656,0.805894
450,24.902,37.6745,-1.24276,0.803675
452.5,24.9757,40.9713,-1.46373,0.801455
455,25.0496,43.3384,-1.69414,0.79924
457.5,25.1236,44.5433,-1.93365,0.797025
460,25.1972,44.1176,-2.17717,0.794814
462.5,25.2709,42.1927,-2.41421,0.792616
465,25.3442,38.9687,-2.63519,0.79041
467.5,25.4173,34.8497,-2.83688,0.788216
470,25.49,30.1567,-3.01619,0.78602
472.5,25.5624,25.3374,-3.15852,0.78383
475,25.6347,20.7414,-3.28929,0.781645
477.5,25.7069,16.5771,-3.39395,0.779464
480,25.7789,12.9888,-3.48286,0.77729
482.5,25.8516,10.0068,-3.55294,0.77512
485,25.9242,7.59347,-3.61589,0.772954
487.5,25.997,5.6436,-3.66467,0.770795
490,26.0698,4.06336,-3.70656,0.76864
492.5,26.143,2.75243,-3.74417,0.76649
495,26.2166,1.61374,-3.77223,0.76435
497.5,26.2902,0.613587,-3.79731,0.76221
500,26.3642,-0.291567,-3.81605,0.76008
502.5,26.4384,-1.09285,-3.83052,0.757955
505,26.5123,-1.77425,-3.83803,0.755835
507.5,26.5866,-2.32115,-3.84694,0.75372
510,26.6608,-2.73894,-3.8525,0.751615
512.5,26.7353,-3.04258,-3.85568,0.749515
515,26.8098,-3.24978,-3.85688,0.74742
517.5,26.8845,-3.38355,-3.85831,0.745329
520,26.9595,-3.47699,-3.85962,0.743249
522.5,27.0345,-3.56434,-3.85962,0.74118
525,27.1096,-3.62284,-3.85928,0.739115
527.5,27.1848,-3.67531,-3.8593,0.737055
530,27.26,-3.72225,-3.8593,0.734999
532.5,27.3353,-3.76381,-3.86062,0.73296
535,27.4109,-3.80611,-3.86062,0.730919
537.5,27.4865,-3.86673,-3.86063,0.728889
540,27.5623,-3.93153,-3.86259,0.72687
542.5,27.6381,-3.99318,-3.86134,0.72486
545,27.714,-4.03302,-3.86127,0.72285
547.5,27.7902,-4.07657,-3.86127,0.72086
550,27.8662,-4.12776,-3.86127,0.71887
552.5,27.9425,-4.17159,-3.86329,0.716891
555,28.019,-4.21625,-3.86325,0.71491
557.5,28.0954,-4.24594,-3.8646,0.71295
560,28.1718,-4.29797,-3.86394,0.71099
562.5,28.248,-4.31574,-3.86325,0.709045
565,28.3252,-4.34426,-3.86349,0.707105
567.5,28.402,-4.38036,-3.8639,0.705175
570,28.4788,-4.40026,-3.86388,0.703249
572.5,28.5557,-4.45621,-3.86127,0.70134
575,28.6327,-4.46996,-3.86125,0.699435
577.5,28.7099,-4.48994,-3.86257,0.69754
580,28.7872,-4.50717,-3.86127,0.695655
582.5,28.8646,-4.5339,-3.86258,0.693775
585,28.9419,-4.55683,-3.86258,0.69191
587.5,29.0194,-4.58981,-3.86258,0.69005
590,29.097,-4.60646,-3.86258,0.6882
592.5,29.1746,-4.64912,-3.86258,0.68636
595,29.2523,-4.65778,-3.86522,0.68453
597.5,29.3299,-4.67863,-3.8652,0.682704
600,29.4078,-4.69997,-3.8639,0.680895
602.5,29.4857,-4.72231,-3.86389,0.679095
605,29.5636,-4.75562,-3.86355,0.6773
607.5,29.6417,-4.77494,-3.86258,0.675515
610,29.7198,-4.78892,-3.86357,0.673745
612.5,29.7981,-4.82386,-3.8649,0.671975
615,29.8766,-4.84971,-3.86489,0.670225
617.5,29.9551,-4.86785,-3.86326,0.668474
620,,,,
622.5,,,,
625,,,,
627.5,,,,
630,,,,
632.5,,,,
635,,,,
637.5,,,,
640,,,,
642.5,,,,
645,,,,
647.5,,,,
650,,,,
652.5,,,,
655,,,,
657.5,,,,
660,,,,
662.5,,,,
665,,,,
667.5,,,,
670,,,,
672.5,,,,
675,,,,
677.5,,,,
680,,,,
682.5,,,,
685,,,,
687.5,,,,
690,,,,
692.5,,,,
695,,,,
697.5,,,,
700,,,,
702.5,,,,
705,,,,
707.5,,,,
710,,,,
712.5,,,,
715,,,,
717.5,,,,
720,,,,
722.5,,,,
725,,,,
727.5,,,,
730,,,,
732.5,,,,
735,,,,
737.5,,,,
740,,,,
742.5,,,,
745,,,,
747.5,,,,
750,,,,