Folder: fsri_materials_database/01_Data/PlasticC/STA/N2/3K_min

Note: 01_Data/README.md
# Materials and Products Database
## 01_Data

Raw data generated from each apparatus are included here in plain-text format. The data is organized first by material, next by the short name of test apparatus used, and where applicable additional filtering by test settings.

### material.json

Each material directory contains a json file of the same name as the material. This file links the data stored in the repository as well as data and graphs produced by the accompanying scripts (__02_Scripts__) to the respective landing page for the material on the front-end website.

File: PlasticC_STA_N2_3KData_211027_R1.csv
##Temp./Â°C,Time/min,Mass loss(subtr.2)/mg,DSC(subtr.2)/(mW/mg),Sensit./(uV/mW)
50.249,10.0158,-0.00571,-0.004475459,0.99788
52.949,14.00736,-0.01295013,0.02721564,0.99993
55.649,15.5805,-0.01516201,0.03615044,1.0019
58.349,16.88736,-0.01445943,0.03997119,1.0038
61.049,18.0553,-0.01609756,0.04764935,1.00561
63.749,19.14679,-0.01575237,0.05098602,1.00735
66.449,20.18265,-0.01809068,0.05697378,1.00901
69.149,21.18199,-0.0204234,0.05618189,1.01059
71.849,22.16218,-0.01925309,0.05726375,1.0121
74.549,23.12125,-0.02172036,0.05732975,1.01352
77.249,24.06905,-0.01986039,0.0560914,1.01488
79.949,25.00214,-0.01927279,0.05653186,1.01615
82.649,25.92788,-0.01776235,0.0588338,1.01735
85.349,26.8496,-0.01962961,0.05771944,1.01848
88.049,27.7626,-0.02257675,0.06006959,1.01953
90.749,28.6624,-0.02083349,0.06148843,1.0205
93.449,29.5661,-0.01799387,0.06721867,1.0214
96.149,30.45813,-0.01753291,0.0696417,1.02223
98.849,31.34774,-0.02363233,0.07183371,1.02299
101.549,32.23142,-0.02166211,0.0745191,1.02367
104.249,33.11391,-0.01915018,0.0765506,1.02428
106.949,33.99326,-0.02714033,0.07570908,1.02482
109.649,34.86974,-0.0271482,0.07725147,1.02529
112.349,35.74503,-0.02293003,0.08070476,1.02569
115.049,36.619,-0.02151348,0.07845607,1.02602
117.749,37.49493,-0.02233014,0.08024244,1.02628
120.449,38.36745,-0.01944776,0.07806271,1.02647
123.149,39.23955,-0.02315817,0.07745756,1.02659
125.849,40.1075,-0.02544809,0.08133928,1.02664
128.549,40.97777,-0.02437515,0.08315492,1.02663
131.249,41.84449,-0.02545865,0.08053302,1.02655
133.949,42.71052,-0.02104658,0.0841404,1.0264
136.649,43.57288,-0.02564821,0.08103381,1.02619
139.349,44.4352,-0.02525035,0.08106904,1.02591
142.049,45.29558,-0.0258092,0.081464,1.02557
144.749,46.15351,-0.02403981,0.08460807,1.02517
147.449,47.01085,-0.02657007,0.08283219,1.0247
150.149,47.8661,-0.02709938,0.0819812,1.02416
152.849,48.72133,-0.02243444,0.07963145,1.02357
155.549,49.57537,-0.02259905,0.08300062,1.02291
158.249,50.43067,-0.02643207,0.08348842,1.0222
160.949,51.28407,-0.02665683,0.08088987,1.02142
163.649,52.1376,-0.02630452,0.08176636,1.02058
166.349,52.99196,-0.02385747,0.0830519,1.01969
169.049,53.84876,-0.03212288,0.08219745,1.01873
171.749,54.70525,-0.02362857,0.08256096,1.01772
174.449,55.5572,-0.02567024,0.08538556,1.01665
177.149,56.4149,-0.02711531,0.08454056,1.01552
179.849,57.2697,-0.02752858,0.08643332,1.01434
182.549,58.12449,-0.02153495,0.08318985,1.0131
185.249,58.98,-0.02667975,0.08365636,1.01181
187.949,59.8321,-0.02569138,0.08635309,1.01046
190.649,60.68518,-0.02401011,0.08489537,1.00906
193.349,61.5315,-0.01999362,0.0859232,1.00761
196.049,62.3854,-0.02841591,0.08504946,1.00611
198.749,63.23774,-0.02865221,0.08623225,1.00455
201.449,64.08906,-0.03159997,0.08770847,1.00295
204.149,64.94322,-0.02756154,0.08591218,1.00129
206.849,65.79701,-0.02992789,0.08421504,0.99958
209.549,66.6487,-0.03653298,0.0835744,0.99783
212.249,67.50032,-0.0360928,0.08697741,0.99603
214.949,68.35231,-0.0373682,0.08443228,0.99418
217.649,69.20524,-0.03769521,0.08433259,0.99229
220.349,70.05895,-0.04173748,0.08312564,0.99035
223.049,70.91418,-0.03761976,0.08617419,0.98836
225.749,71.76934,-0.04148569,0.08406212,0.98633
228.449,72.6239,-0.04233522,0.08846949,0.98426
231.149,73.47824,-0.04637777,0.08696131,0.98214
233.849,74.33247,-0.0502498,0.08791741,0.97999
236.549,75.1851,-0.04800387,0.08662001,0.97779
239.249,76.04006,-0.05079,0.08667633,0.97555
241.949,76.89559,-0.05314746,0.08656632,0.97327
244.649,77.7501,-0.05123158,0.08470356,0.97095
247.349,78.60441,-0.05456047,0.08778183,0.96859
250.049,79.45951,-0.06099681,0.08657358,0.96619
252.749,80.31359,-0.06107151,0.08635456,0.96376
255.449,81.17092,-0.06548988,0.08580267,0.96129
258.149,82.02224,-0.06916155,0.08746396,0.95879
260.849,82.88308,-0.07381185,0.08445916,0.95625
263.549,83.73912,-0.08002127,0.08529129,0.95368
266.249,84.59438,-0.0768525,0.0851886,0.95107
268.949,85.45141,-0.07999789,0.0851112,0.94843
271.649,86.30297,-0.08666001,0.08597756,0.94576
274.349,87.15876,-0.09518412,0.0840313,0.94306
277.049,88.01729,-0.0972936,0.08311047,0.94033
279.749,88.87402,-0.09977732,0.0824332,0.93756
282.449,89.73284,-0.10122,0.08241698,0.93477
285.149,90.59089,-0.10249,0.08039509,0.93195
287.849,91.45059,-0.10794,0.08017473,0.92911
290.549,92.30881,-0.10781,0.0810105,0.92623
293.249,93.17362,-0.11515,0.07913415,0.92333
295.949,94.0349,-0.11581,0.08000696,0.92041
298.649,94.8984,-0.11944,0.076695,0.91746
301.349,95.76006,-0.12344,0.07704318,0.91449
304.049,96.62531,-0.12499,0.07583732,0.91149
306.749,97.49072,-0.12964,0.0787413,0.90847
309.449,98.35631,-0.12807,0.07143475,0.90543
312.149,99.22036,-0.13058,0.07255899,0.90237
314.849,100.082,-0.13196,0.07097303,0.89929
317.549,100.947,-0.14117,0.07097736,0.89619
320.249,101.812,-0.14123,0.06818975,0.89307
322.949,102.677,-0.14706,0.06467049,0.88994
325.649,103.543,-0.15207,0.0643991,0.88678
328.349,104.41,-0.14543,0.05987846,0.88361
331.049,105.278,-0.15538,0.06060221,0.88043
333.749,106.146,-0.15235,0.05375955,0.87723
336.449,107.015,-0.15918,0.05206109,0.87401
339.149,107.885,-0.16683,0.05477569,0.87078
341.849,108.753,-0.16757,0.05402808,0.86754
344.549,109.621,-0.17254,0.052903,0.86428
347.249,110.494,-0.17672,0.05298844,0.86102
349.949,111.365,-0.17754,0.05566877,0.85774
352.649,112.241,-0.17885,0.05360638,0.85445
355.349,113.113,-0.18997,0.05646305,0.85116
358.049,113.984,-0.19044,0.05876911,0.84785
360.749,114.856,-0.19864,0.06515454,0.84454
363.449,115.731,-0.20338,0.07076563,0.84122
366.149,116.606,-0.21336,0.07833899,0.83789
368.849,117.479,-0.22112,0.08592931,0.83455
371.549,118.354,-0.22935,0.09978239,0.83121
374.249,119.229,-0.24264,0.11792,0.82787
376.949,120.104,-0.25713,0.1318,0.82452
379.649,120.981,-0.28078,0.15947,0.82117
382.349,121.861,-0.30637,0.18578,0.81782
385.049,122.741,-0.33432,0.21965,0.81446
387.749,123.623,-0.37237,0.26579,0.8111
390.449,124.505,-0.4277,0.33287,0.80774
393.149,125.386,-0.49303,0.41716,0.80438
395.849,126.267,-0.57963,0.51919,0.80102
398.549,127.148,-0.69643,0.65248,0.79767
401.249,128.029,-0.83022,0.80292,0.79431
403.949,128.916,-1.01371,0.96526,0.79095
406.649,129.806,-1.2323,1.11804,0.7876
409.349,130.691,-1.48243,1.23847,0.78426
412.049,131.5751,-1.7594,1.30772,0.78091
414.749,132.46,-2.03862,1.30783,0.77757
417.449,133.344,-2.32222,1.24727,0.77424
420.149,134.224,-2.58604,1.1418,0.77091
422.849,135.102,-2.82335,1.00357,0.76759
425.549,135.985,-3.03717,0.84921,0.76428
428.249,136.87,-3.21457,0.68407,0.76097
430.949,137.748,-3.36034,0.52008,0.75767
433.649,138.631,-3.47638,0.37983,0.75438
436.349,139.517,-3.56368,0.27375,0.7511
439.049,140.4,-3.63638,0.20096,0.74783
441.749,141.29,-3.69323,0.15146,0.74456
444.449,142.177,-3.74888,0.12056,0.74131
447.149,143.066,-3.78815,0.08420949,0.73808
449.849,143.953,-3.82781,0.05251663,0.73485
452.549,144.839,-3.85662,0.01846911,0.73163
455.249,145.729,-3.88263,-0.009103356,0.72843
457.949,146.618,-3.8985,-0.03545775,0.72524
460.649,147.512,-3.913,-0.05230764,0.72207
463.349,148.407,-3.91993,-0.06948806,0.71891
466.049,149.3,-3.92549,-0.08003469,0.71576
468.749,150.1911,-3.92554,-0.08746606,0.71263
471.449,151.086,-3.92763,-0.09376182,0.70952
474.149,151.98,-3.92908,-0.10108,0.70642
476.849,152.874,-3.92885,-0.11486,0.70334
479.549,153.7679,-3.93111,-0.10993,0.70027
482.249,154.666,-3.93029,-0.11236,0.69723
484.949,155.559,-3.93146,-0.10777,0.6942
487.649,156.453,-3.92863,-0.11231,0.69119
490.349,157.345,-3.93167,-0.11284,0.68819
493.049,158.246,-3.93093,-0.11625,0.68522
495.749,159.145,-3.93393,-0.10944,0.68227
498.449,160.046,-3.92827,-0.1138,0.67934
501.149,160.947,-3.93557,-0.11426,0.67642
503.849,161.848,-3.93352,-0.11264,0.67353
506.549,162.7509,-3.9316,-0.12179,0.67066
509.249,163.651,-3.92996,-0.12645,0.66781
511.949,164.552,-3.93126,-0.12662,0.66499
514.649,165.452,-3.93336,-0.13004,0.66218
517.349,166.348,-3.93025,-0.13031,0.6594
520.049,167.248,-3.92963,-0.13758,0.65664
522.749,168.148,-3.93335,-0.13894,0.65391
525.449,169.054,-3.92968,-0.14151,0.65119
528.149,169.955,-3.93108,-0.1456,0.64851
530.849,170.86,-3.92871,-0.1396,0.64584
533.549,171.762,-3.9279,-0.15019,0.6432
536.249,172.662,-3.93055,-0.14763,0.64059
538.949,173.572,-3.93315,-0.15078,0.638
541.649,174.478,-3.93066,-0.15346,0.63544
544.349,175.384,-3.93373,-0.14857,0.6329
547.049,176.293,-3.92918,-0.1563,0.63039
549.749,177.1989,-3.92787,-0.15413,0.6279
552.449,178.1,-3.92847,-0.15931,0.62544
555.149,179.009,-3.92955,-0.16782,0.62301
557.849,179.916,-3.92852,-0.18562,0.6206
560.549,180.824,-3.92814,-0.17891,0.61822
563.249,181.734,-3.92947,-0.17593,0.61587
565.949,182.64,-3.92929,-0.1782,0.61355
568.649,183.55,-3.92721,-0.17837,0.61125
571.349,184.459,-3.9253,-0.18507,0.60899
574.049,185.369,-3.92656,-0.19001,0.60675
576.749,186.276,-3.92682,-0.18861,0.60454
579.449,187.187,-3.92798,-0.19387,0.60235
582.149,188.099,-3.9283,-0.19656,0.6002
584.849,189.014,-3.92993,-0.19183,0.59807
587.549,189.924,-3.92852,-0.19238,0.59598
590.249,190.842,-3.92912,-0.20048,0.59391
592.949,191.758,-3.92806,-0.19237,0.59188
595.649,192.669,-3.92579,-0.19932,0.58987
598.349,193.579,-3.92609,-0.2005,0.58789
601.049,194.493,-3.92611,-0.20343,0.58594
603.749,195.404,-3.92874,-0.21236,0.58402
606.449,196.314,-3.92938,-0.21893,0.58214
609.149,197.229,-3.92821,-0.20721,0.58028
611.849,198.15,-3.92792,-0.21559,0.57845
614.549,199.071,-3.92926,-0.22183,0.57665
617.249,199.986,-3.92694,-0.22782,0.57488
619.949,200.898,-3.93223,-0.23061,0.57315
622.649,201.815,-3.93181,-0.23549,0.57144
625.349,202.732,-3.92933,-0.23553,0.56976
628.049,203.647,-3.928,-0.24605,0.56812
630.749,204.571,-3.92766,-0.24589,0.5665
633.449,205.49,-3.93303,-0.25109,0.56492
636.149,206.406,-3.92831,-0.25159,0.56336
638.849,207.316,-3.92688,-0.26268,0.56184
641.549,208.235,-3.92927,-0.25279,0.56035
644.249,209.16,-3.9306,-0.25057,0.55889
646.649,209.98,-3.9283,-0.25635,0.55761