Folder: fsri_materials_database/01_Data/PEX_Pipe/MCC (part 2)

File: PEX_Pipe_MCC_30K_min_220131_R3.txt
Sample ID:	C:\MCC\MCC Cal\Test\PEX_Pipe_MCC_30K_min_220131_R3.txt
Sample Weight (mg):	4.86
Heating Rate (C/s):	0.5
Combustor Temp (C):	900
N2 Flow Rate (cc/min):	80
O2 Flow Rate (cc/min):	20
Calibration File:	C:\MCC\MCC Cal\Coeff1 JN10440_30_210304.txt.txt
T Correction Coefficients:	0	1.024463	0
Time Shift (s):	14
*
Time (s)	Temperature (C)	N2 flow rate (cc/min)	O2 flow rate (cc/min)	Flow Rate (cc/min)	Oxygen (%)	HRR (W/g)	Heating rate (C/s)
0.000	114.302	80.000	19.996	103.772	20.116	0.024	-0.020
8.000	114.244	80.007	19.996	103.771	20.112	0.267	-0.007
16.000	114.231	80.006	19.992	103.800	20.105	0.763	-0.014
24.000	114.321	79.999	19.999	103.815	20.101	0.972	0.039
32.000	114.693	80.008	19.990	103.919	20.083	2.196	0.088
40.000	115.372	80.015	19.992	103.949	20.078	2.545	0.100
48.000	116.556	80.007	19.996	103.982	20.073	2.859	0.182
56.001	118.184	80.008	19.992	103.988	20.066	3.319	0.181
64.000	120.190	80.005	19.994	104.003	20.061	3.673	0.283
72.000	122.446	80.006	19.989	104.017	20.058	3.893	0.281
80.000	125.018	80.011	19.995	104.017	20.058	3.886	0.310
88.000	127.889	80.008	19.993	104.020	20.055	4.092	0.354
96.000	130.964	80.003	19.995	104.021	20.054	4.149	0.405
104.000	134.085	80.009	19.993	103.771	20.085	2.071	0.398
112.000	136.414	80.007	19.993	103.706	20.112	0.276	0.260
120.000	137.928	80.004	19.994	103.679	20.118	-0.156	0.183
128.000	138.658	80.007	19.994	103.678	20.121	-0.302	0.070
136.000	138.937	80.006	19.993	103.676	20.119	-0.225	-0.002
144.000	138.839	80.007	19.993	103.668	20.119	-0.216	-0.039
152.000	138.434	80.007	19.994	103.669	20.121	-0.357	-0.039
160.000	137.838	80.007	19.994	103.678	20.121	-0.346	-0.056
168.000	137.120	80.005	19.995	103.673	20.118	-0.154	-0.099
176.000	136.255	80.006	19.993	103.675	20.118	-0.154	-0.135
184.000	135.358	80.006	19.993	103.686	20.118	-0.112	-0.104
192.000	134.413	80.006	19.994	103.676	20.118	-0.157	-0.121
200.000	133.412	80.004	19.994	103.678	20.117	-0.046	-0.129
208.000	132.481	80.006	19.994	103.687	20.116	-0.018	-0.094
216.000	131.543	80.006	19.993	103.697	20.113	0.196	-0.120
224.000	130.592	80.007	19.994	103.696	20.112	0.284	-0.156
232.000	129.685	80.006	19.994	103.693	20.113	0.212	-0.110
240.000	128.842	80.008	19.995	103.876	20.052	4.298	-0.079
248.000	129.996	80.005	19.993	104.627	19.960	10.481	0.302
256.000	134.134	80.004	19.996	104.524	19.954	10.862	0.644
264.000	140.344	80.004	19.995	104.456	19.965	10.095	0.882
272.000	147.915	80.006	19.993	104.367	19.980	9.121	0.992
280.000	156.142	80.004	19.994	104.293	19.993	8.213	1.053
288.000	164.699	80.006	19.994	104.221	20.007	7.299	1.108
296.000	173.213	80.007	19.994	104.176	20.017	6.606	1.050
304.000	181.527	80.007	19.994	104.133	20.025	6.072	1.060
312.000	189.649	80.007	19.993	104.112	20.032	5.614	0.961
320.000	197.509	80.008	19.994	104.101	20.034	5.509	0.971
328.000	205.202	80.007	19.994	104.099	20.032	5.597	0.962
336.000	212.754	80.004	19.994	104.085	20.038	5.228	0.915
344.000	220.076	80.005	19.994	104.060	20.041	5.035	0.891
352.000	227.209	80.006	19.996	104.028	20.043	4.880	0.883
360.000	234.039	80.006	19.995	104.014	20.042	4.971	0.826
368.000	240.540	80.006	19.994	103.988	20.046	4.696	0.837
376.000	246.721	80.007	19.994	103.985	20.049	4.442	0.784
384.000	252.675	80.007	19.994	103.979	20.052	4.251	0.727
392.000	258.290	80.006	19.992	103.975	20.055	4.064	0.700
400.000	263.678	80.007	19.993	103.949	20.054	4.122	0.665
408.000	268.893	80.008	19.994	103.943	20.055	4.048	0.653
416.000	273.880	80.006	19.994	103.944	20.057	3.907	0.617
424.000	278.656	80.007	19.994	103.943	20.057	3.914	0.615
432.000	283.156	80.006	19.995	103.933	20.056	4.000	0.526
440.000	287.636	80.005	19.995	103.930	20.057	3.913	0.570
448.000	291.931	80.006	19.995	103.922	20.059	3.807	0.548
456.000	296.061	80.006	19.995	103.912	20.063	3.530	0.521
464.000	300.133	80.009	19.994	103.910	20.061	3.676	0.520
472.000	304.033	80.007	19.994	103.906	20.060	3.741	0.466
480.000	307.828	80.008	19.993	103.901	20.058	3.885	0.464
488.000	311.612	80.009	19.994	103.904	20.059	3.790	0.493
496.000	315.338	80.007	19.994	103.906	20.059	3.834	0.488
504.000	319.079	80.007	19.992	103.906	20.060	3.713	0.461
512.000	322.862	80.005	19.993	103.907	20.058	3.902	0.450
520.000	326.782	80.004	19.995	103.907	20.057	3.961	0.505
528.000	330.626	80.006	19.994	103.911	20.057	3.959	0.466
536.000	334.659	80.006	19.994	103.904	20.052	4.293	0.532
544.000	338.776	80.008	19.993	103.920	20.053	4.173	0.542
552.000	342.843	80.007	19.994	103.903	20.050	4.428	0.502
560.000	347.016	80.007	19.993	103.905	20.046	4.668	0.518
568.000	351.251	80.008	19.992	103.903	20.043	4.894	0.548
576.000	355.444	80.008	19.992	103.905	20.039	5.158	0.510
584.000	359.609	80.006	19.994	103.908	20.035	5.425	0.519
592.000	363.792	80.007	19.993	103.896	20.028	5.861	0.534
600.000	367.937	80.008	19.994	103.890	20.021	6.331	0.516
608.000	372.024	80.004	19.994	103.886	20.015	6.747	0.499
616.000	376.098	80.007	19.994	103.888	20.006	7.315	0.500
624.000	380.203	80.008	19.995	103.883	19.998	7.864	0.524
632.000	384.268	80.006	19.994	103.885	19.991	8.338	0.515
640.000	388.307	80.006	19.991	103.883	19.985	8.768	0.509
648.000	392.283	80.008	19.993	103.878	19.976	9.362	0.501
656.000	396.318	80.007	19.992	103.874	19.966	9.988	0.512
664.000	400.265	80.007	19.993	103.867	19.959	10.490	0.479
672.000	404.197	80.006	19.994	103.877	19.954	10.818	0.474
680.000	408.219	80.007	19.993	103.867	19.956	10.686	0.507
688.000	412.258	80.005	19.994	103.879	19.956	10.674	0.532
696.000	416.332	80.005	19.995	103.870	19.946	11.314	0.513
704.000	420.506	80.007	19.994	103.873	19.923	12.886	0.525
712.000	424.711	80.007	19.993	103.864	19.883	15.510	0.529
720.000	428.934	80.006	19.995	103.865	19.841	18.327	0.522
728.000	433.108	80.007	19.995	103.862	19.797	21.297	0.508
736.000	437.251	80.008	19.994	103.853	19.755	24.078	0.523
744.000	441.261	80.007	19.993	103.844	19.675	29.388	0.508
752.000	445.233	80.007	19.995	103.822	19.545	38.018	0.508
760.000	449.196	80.005	19.991	103.827	19.346	51.338	0.467
768.000	453.208	80.007	19.994	103.819	19.080	68.973	0.486
776.000	457.144	80.008	19.994	103.736	18.763	90.055	0.500
784.000	461.079	80.007	19.992	103.739	18.360	116.611	0.452
792.000	464.966	80.009	19.994	103.815	17.532	171.942	0.472
800.000	468.936	80.008	19.995	103.521	16.898	213.453	0.493
808.000	472.895	80.009	19.994	103.329	16.217	258.380	0.471
816.000	476.884	80.009	19.996	103.486	15.010	337.118	0.495
824.000	480.860	80.005	19.995	102.907	13.548	432.793	0.483
832.000	485.018	80.005	19.993	102.720	12.091	527.699	0.521
840.000	489.021	80.007	19.993	102.509	10.829	610.214	0.482
848.000	493.110	80.006	19.994	102.358	10.182	653.186	0.513
856.000	497.068	80.007	19.994	102.373	10.607	627.421	0.486
864.000	501.026	80.007	19.994	102.606	12.516	504.603	0.509
872.000	505.033	80.010	19.993	103.156	15.396	314.823	0.531
880.000	509.137	80.007	19.994	103.746	17.896	148.223	0.537
888.000	513.210	80.007	19.995	103.984	19.285	55.406	0.505
896.000	517.321	80.009	19.993	103.944	19.815	20.102	0.532
904.000	521.375	80.006	19.993	103.903	19.980	9.073	0.496
912.000	525.261	80.005	19.993	103.868	20.036	5.355	0.476
920.000	528.799	80.007	19.995	103.852	20.045	4.710	0.201
928.000	533.108	80.007	19.994	103.840	20.056	4.009	0.391
936.000	537.123	80.007	19.994	103.665	20.064	3.460	0.427
944.000	541.155	80.007	19.994	103.804	20.066	3.313	0.534
952.000	545.274	80.010	19.994	103.871	20.067	3.272	0.549
960.000	549.501	80.008	19.993	103.879	20.070	3.087	0.515
968.000	553.822	80.008	19.993	103.873	20.071	3.023	0.531
976.000	558.037	80.008	19.993	103.867	20.073	2.841	0.487
984.000	562.177	80.006	19.994	103.866	20.072	2.940	0.499
992.000	566.309	80.007	19.993	103.863	20.074	2.836	0.503
1000.000	570.472	80.005	19.993	103.864	20.072	2.963	0.511
1008.000	574.653	80.006	19.995	103.842	20.075	2.737	0.527
1016.000	578.882	80.007	19.996	103.863	20.075	2.729	0.519
1024.000	583.218	80.007	19.993	103.875	20.077	2.577	0.543
1032.000	587.689	80.008	19.994	103.867	20.072	2.920	0.555
1040.000	592.123	80.008	19.993	103.869	20.074	2.817	0.542
1048.000	596.564	80.008	19.994	103.871	20.075	2.718	0.521
1056.000	600.920	80.010	19.992	103.866	20.077	2.570	0.535
1064.000	605.142	80.008	19.994	103.853	20.079	2.471	0.530
1072.000	609.260	80.007	19.994	103.864	20.080	2.428	0.468
1080.000	613.290	80.008	19.994	103.854	20.078	2.507	0.509
1088.000	617.236	80.008	19.994	103.858	20.081	2.317	0.478
1096.000	621.047	80.005	19.996	103.866	20.083	2.192	0.480
1104.000	624.888	80.005	19.995	103.863	20.081	2.308	0.488
1112.000	628.807	80.009	19.994	103.864	20.081	2.322	0.493
1120.000	632.810	80.008	19.993	103.863	20.083	2.214	0.523
1128.000	636.786	80.007	19.994	103.864	20.083	2.225	0.470
1136.000	640.849	80.009	19.994	103.871	20.082	2.284	0.521
1144.001	644.878	80.009	19.993	103.865	20.087	1.963	0.491
1152.000	648.966	80.007	19.994	103.867	20.084	2.159	0.545
1160.000	653.074	80.006	19.994	103.868	20.086	1.985	0.517
1168.000	657.248	80.006	19.994	103.873	20.083	2.212	0.540
1176.000	661.395	80.008	19.995	103.867	20.081	2.304	0.455
1184.000	665.486	80.006	19.995	103.855	20.081	2.337	0.484
1192.000	669.543	80.009	19.996	103.863	20.082	2.282	0.505
1200.000	673.640	80.008	19.996	103.870	20.080	2.430	0.506
1208.000	677.770	80.009	19.994	103.869	20.080	2.409	0.506
1216.001	681.931	80.009	19.993	103.867	20.084	2.154	0.542
1224.000	686.103	80.008	19.993	103.868	20.083	2.233	0.513
1232.000	690.301	80.006	19.994	103.866	20.082	2.264	0.500
1240.000	694.505	80.005	19.993	103.869	20.080	2.429	0.522
1248.000	698.601	80.008	19.993	103.867	20.080	2.396	0.540
1256.000	702.747	80.006	19.994	103.864	20.081	2.363	0.524
1264.000	706.853	80.006	19.995	103.863	20.084	2.146	0.498
1272.000	710.870	80.008	19.995	103.864	20.081	2.308	0.467
1280.000	714.951	80.009	19.994	103.864	20.081	2.324	0.502
1288.000	719.009	80.007	19.995	103.865	20.081	2.362	0.499
1296.000	722.948	80.007	19.994	103.855	20.081	2.361	0.512
1304.000	726.885	80.010	19.993	103.865	20.084	2.154	0.486
1312.000	730.887	80.008	19.993	103.861	20.079	2.443	0.541
1320.000	734.948	80.008	19.993	103.861	20.081	2.335	0.525
1328.000	739.161	80.008	19.994	103.858	20.083	2.227	0.528
1336.001	743.371	80.008	19.995	103.867	20.081	2.320	0.494
1336.501	743.642	80.008	19.994	103.866	20.080	2.410	0.505