Folder: fsri_materials_database/01_Data/PEX_Pipe/MCC

Note: 01_Data/README.md
# Materials and Products Database
## 01_Data

Raw data generated from each apparatus are included here in plain-text format. The data is organized first by material, next by the short name of test apparatus used, and where applicable additional filtering by test settings.

### material.json

Each material directory contains a json file of the same name as the material. This file links the data stored in the repository as well as data and graphs produced by the accompanying scripts (__02_Scripts__) to the respective landing page for the material on the front-end website.

File: PEX_Pipe_MCC_30K_min_220128_R1.txt
Sample ID:	C:\MCC\MCC Cal\Test\PEX_Pipe_MCC_30K_min_220128_R1.txt
Sample Weight (mg):	4.27
Heating Rate (C/s):	0.5
Combustor Temp (C):	900
N2 Flow Rate (cc/min):	80
O2 Flow Rate (cc/min):	20
Calibration File:	C:\MCC\MCC Cal\Coeff1 JN10440_30_210304.txt.txt
T Correction Coefficients:	0	1.024463	0
Time Shift (s):	14
*
Time (s)	Temperature (C)	N2 flow rate (cc/min)	O2 flow rate (cc/min)	Flow Rate (cc/min)	Oxygen (%)	HRR (W/g)	Heating rate (C/s)
0.000	110.415	80.017	19.992	103.736	19.969	0.488	0.019
8.000	110.374	80.018	19.991	103.752	19.967	0.617	0.009
16.000	110.559	80.008	19.993	103.826	19.956	1.463	0.041
24.000	111.070	80.012	19.994	103.880	19.942	2.548	0.094
32.000	111.980	80.008	19.994	103.895	19.939	2.782	0.143
39.999	113.282	80.007	19.994	103.897	19.939	2.784	0.177
48.000	114.858	80.004	19.994	103.910	19.937	2.869	0.215
56.000	116.627	80.003	19.995	103.939	19.938	2.858	0.200
64.000	118.761	80.008	19.995	103.941	19.930	3.408	0.278
71.999	121.109	80.011	19.993	103.963	19.926	3.768	0.293
80.000	123.713	80.010	19.994	103.978	19.924	3.884	0.322
88.000	126.625	80.008	19.994	103.975	19.924	3.916	0.376
95.999	129.716	80.008	19.994	103.975	19.926	3.723	0.412
103.999	133.010	80.008	19.993	104.004	19.918	4.337	0.430
111.999	136.562	80.007	19.993	104.016	19.915	4.579	0.442
119.999	140.292	80.007	19.993	104.008	19.914	4.625	0.467
127.999	144.222	80.007	19.994	104.001	19.920	4.226	0.532
136.000	148.207	80.009	19.993	103.994	19.921	4.129	0.498
144.000	152.275	80.009	19.993	103.981	19.920	4.175	0.514
152.000	156.331	80.006	19.994	103.976	19.925	3.849	0.527
160.000	160.425	80.008	19.993	103.975	19.927	3.684	0.521
168.000	164.627	80.010	19.994	103.974	19.927	3.677	0.539
176.000	168.745	80.009	19.993	103.953	19.928	3.570	0.522
184.000	172.818	80.008	19.994	103.952	19.926	3.731	0.521
192.000	176.839	80.007	19.993	103.943	19.926	3.756	0.483
200.000	180.824	80.007	19.991	103.940	19.930	3.418	0.505
208.000	184.814	80.007	19.994	103.935	19.929	3.516	0.485
216.000	188.797	80.006	19.995	103.934	19.925	3.812	0.476
224.000	192.703	80.010	19.993	103.926	19.927	3.649	0.494
231.999	196.552	80.009	19.994	103.938	19.927	3.657	0.492
240.000	200.460	80.008	19.994	103.942	19.929	3.505	0.516
248.000	204.362	80.010	19.993	103.932	19.929	3.478	0.503
256.000	208.333	80.009	19.995	103.939	19.929	3.524	0.510
264.000	212.256	80.007	19.995	103.939	19.924	3.910	0.480
271.999	216.234	80.008	19.993	103.926	19.929	3.477	0.506
279.999	220.167	80.008	19.994	103.926	19.929	3.492	0.497
288.000	224.125	80.007	19.993	103.913	19.929	3.531	0.479
295.999	228.033	80.007	19.993	103.920	19.927	3.678	0.470
303.999	232.039	80.007	19.994	103.917	19.926	3.719	0.496
311.999	236.002	80.009	19.993	103.915	19.928	3.600	0.480
319.999	239.878	80.009	19.991	103.907	19.928	3.606	0.470
327.999	243.749	80.009	19.993	103.904	19.929	3.495	0.462
336.000	247.647	80.009	19.994	103.903	19.927	3.648	0.472
343.999	251.568	80.007	19.995	103.898	19.927	3.673	0.465
351.999	255.433	80.007	19.993	103.899	19.930	3.416	0.517
360.000	259.187	80.008	19.993	103.899	19.929	3.527	0.481
367.999	263.048	80.008	19.994	103.899	19.927	3.661	0.460
375.999	266.921	80.006	19.994	103.906	19.926	3.761	0.462
383.999	270.879	80.008	19.994	103.923	19.925	3.821	0.508
392.000	274.891	80.009	19.993	103.905	19.926	3.754	0.496
400.000	278.932	80.008	19.993	103.898	19.926	3.756	0.482
407.999	282.948	80.011	19.995	103.894	19.928	3.568	0.475
415.999	286.973	80.011	19.993	103.893	19.922	4.011	0.487
424.000	290.955	80.007	19.994	103.889	19.928	3.616	0.509
431.999	294.834	80.006	19.994	103.889	19.925	3.848	0.481
440.000	298.690	80.007	19.995	103.897	19.923	3.961	0.488
447.999	302.562	80.007	19.994	103.899	19.923	3.988	0.473
455.999	306.503	80.007	19.994	103.897	19.921	4.092	0.479
463.999	310.470	80.007	19.995	103.892	19.924	3.906	0.491
471.999	314.488	80.009	19.994	103.884	19.926	3.708	0.500
480.000	318.434	80.009	19.993	103.891	19.918	4.330	0.497
488.000	322.465	80.009	19.994	103.896	19.919	4.282	0.506
496.000	326.437	80.011	19.995	103.894	19.919	4.276	0.501
503.999	330.525	80.007	19.994	103.876	19.920	4.159	0.513
511.999	334.647	80.008	19.993	103.878	19.919	4.304	0.499
520.000	338.791	80.007	19.993	103.888	19.919	4.238	0.542
528.000	342.795	80.007	19.993	103.889	19.916	4.488	0.485
535.999	346.899	80.008	19.994	103.870	19.917	4.448	0.496
543.999	350.968	80.007	19.993	103.860	19.911	4.842	0.501
551.999	355.056	80.008	19.994	103.867	19.910	4.921	0.548
560.000	359.026	80.007	19.994	103.866	19.909	5.051	0.500
568.000	363.084	80.009	19.993	103.876	19.903	5.447	0.511
575.999	367.178	80.010	19.993	103.864	19.894	6.192	0.528
584.000	371.313	80.008	19.993	103.869	19.888	6.632	0.521
591.999	375.530	80.007	19.995	103.872	19.879	7.316	0.520
599.999	379.715	80.007	19.993	103.861	19.874	7.685	0.510
607.999	383.923	80.007	19.993	103.862	19.863	8.482	0.543
615.999	388.236	80.008	19.995	103.862	19.856	9.049	0.525
623.999	392.445	80.006	19.995	103.856	19.845	9.884	0.536
632.000	396.642	80.008	19.994	103.859	19.835	10.622	0.522
639.999	400.823	80.009	19.994	103.848	19.828	11.155	0.490
648.000	404.945	80.007	19.993	103.846	19.819	11.866	0.511
656.000	409.095	80.009	19.994	103.837	19.821	11.727	0.558
663.999	413.035	80.008	19.993	103.834	19.820	11.808	0.491
671.999	416.939	80.006	19.994	103.845	19.808	12.660	0.480
680.000	420.946	80.008	19.994	103.837	19.792	13.927	0.492
688.000	424.837	80.009	19.993	103.835	19.764	16.036	0.473
695.999	428.772	80.007	19.994	103.832	19.728	18.739	0.493
704.000	432.707	80.009	19.993	103.824	19.682	22.215	0.507
711.999	436.719	80.006	19.993	103.823	19.629	26.271	0.512
719.999	440.679	80.009	19.994	103.818	19.568	30.852	0.478
727.999	444.655	80.008	19.995	103.817	19.455	39.456	0.498
736.000	448.620	80.009	19.995	103.780	19.297	51.396	0.512
743.999	452.579	80.009	19.994	103.775	19.098	66.496	0.499
752.000	456.514	80.008	19.995	103.744	18.830	86.788	0.511
759.999	460.514	80.008	19.992	103.731	18.464	114.445	0.492
768.000	464.523	80.009	19.993	103.687	17.982	150.900	0.508
775.999	468.591	80.007	19.994	103.621	17.336	199.256	0.510
783.999	472.641	80.006	19.994	103.609	16.302	277.259	0.489
792.000	476.778	80.008	19.994	103.267	15.410	343.905	0.483
799.999	480.857	80.011	19.993	103.282	14.285	427.328	0.510
807.999	484.944	80.008	19.993	102.878	12.945	527.036	0.466
815.999	489.069	80.008	19.995	102.657	11.803	612.013	0.499
823.999	493.253	80.009	19.994	102.493	11.262	653.090	0.515
831.999	497.371	80.008	19.995	102.522	11.721	620.438	0.482
839.999	501.658	80.006	19.995	102.727	13.396	496.843	0.484
848.000	505.784	80.007	19.993	103.172	15.897	309.348	0.585
855.999	509.961	80.008	19.993	103.685	18.094	142.907	0.460
863.999	514.219	80.007	19.995	103.927	19.287	52.237	0.506
871.999	518.387	80.008	19.994	103.924	19.730	18.643	0.459
879.999	522.495	80.010	19.993	103.865	19.860	8.714	0.522
887.999	526.516	80.009	19.994	103.853	19.898	5.831	0.507
895.999	530.509	80.009	19.993	103.770	19.915	4.583	0.512
904.000	534.547	80.010	19.995	103.708	19.918	4.325	0.535
911.999	538.634	80.009	19.995	103.845	19.920	4.193	0.534
920.000	542.695	80.008	19.995	103.865	19.927	3.630	0.532
927.999	546.761	80.007	19.995	103.866	19.929	3.528	0.505
936.000	550.937	80.008	19.995	103.869	19.933	3.184	0.502
944.000	555.159	80.009	19.993	103.866	19.930	3.408	0.484
951.999	559.288	80.008	19.994	103.859	19.934	3.141	0.494
960.000	563.459	80.010	19.994	103.843	19.934	3.144	0.517
968.000	567.568	80.009	19.994	103.856	19.936	2.996	0.534
976.000	571.631	80.008	19.994	103.867	19.936	3.008	0.505
983.999	575.818	80.010	19.993	103.858	19.937	2.927	0.530
991.999	579.893	80.010	19.994	103.858	19.937	2.937	0.499
999.999	583.924	80.007	19.995	103.863	19.936	2.958	0.495
1007.999	587.979	80.009	19.994	103.857	19.937	2.891	0.474
1015.999	592.049	80.007	19.994	103.859	19.939	2.785	0.491
1023.999	596.187	80.005	19.995	103.850	19.939	2.737	0.517
1031.999	600.232	80.007	19.995	103.862	19.940	2.706	0.502
1039.999	604.220	80.009	19.993	103.844	19.938	2.831	0.491
1048.000	608.156	80.009	19.995	103.855	19.937	2.901	0.479
1056.000	612.099	80.009	19.993	103.842	19.937	2.902	0.474
1064.000	616.046	80.008	19.994	103.853	19.943	2.470	0.490
1072.000	620.051	80.011	19.992	103.853	19.937	2.893	0.509
1080.000	624.118	80.008	19.994	103.856	19.940	2.686	0.481
1088.000	628.238	80.007	19.993	103.859	19.939	2.726	0.549
1096.000	632.398	80.007	19.996	103.848	19.940	2.664	0.535
1104.000	636.638	80.006	19.994	103.863	19.938	2.829	0.542
1112.000	640.786	80.007	19.994	103.853	19.942	2.547	0.521
1120.000	644.894	80.007	19.995	103.858	19.943	2.411	0.499
1128.000	648.968	80.009	19.995	103.856	19.942	2.524	0.534
1136.000	652.998	80.009	19.994	103.858	19.948	2.044	0.533
1144.000	657.072	80.009	19.993	103.849	19.946	2.232	0.510
1152.000	661.348	80.010	19.993	103.861	19.943	2.422	0.507
1160.000	665.678	80.006	19.994	103.861	19.945	2.307	0.492
1168.000	669.932	80.007	19.994	103.860	19.940	2.639	0.535
1176.000	674.116	80.008	19.995	103.856	19.945	2.292	0.494
1184.000	678.251	80.007	19.997	103.857	19.944	2.349	0.467
1192.000	682.489	80.006	19.994	103.860	19.943	2.437	0.515
1200.000	686.902	80.009	19.993	103.861	19.943	2.418	0.542
1208.000	691.366	80.008	19.995	103.855	19.942	2.549	0.562
1216.000	695.857	80.007	19.996	103.856	19.942	2.501	0.548
1224.000	700.230	80.008	19.996	103.857	19.943	2.428	0.471
1232.000	704.698	80.009	19.993	103.860	19.943	2.464	0.563
1240.000	709.141	80.008	19.993	103.852	19.943	2.477	0.576
1248.000	713.453	80.007	19.993	103.847	19.947	2.177	0.523
1256.000	717.702	80.007	19.995	103.833	19.946	2.213	0.505
1264.000	721.767	80.009	19.994	103.831	19.945	2.296	0.499
1272.000	725.638	80.007	19.994	103.847	19.946	2.240	0.473
1280.000	729.478	80.007	19.994	103.830	19.950	1.917	0.483
1288.000	733.183	80.010	19.993	103.843	19.949	1.998	0.439
1296.000	736.821	80.008	19.993	103.830	19.945	2.271	0.468
1304.000	740.423	80.009	19.995	103.838	19.945	2.302	0.432
1312.000	744.061	80.010	19.993	103.844	19.944	2.374	0.438

File: PEX_Pipe_MCC_30K_min_220128_R2.txt
Sample ID:	C:\MCC\MCC Cal\Test\PEX_Pipe_MCC_30K_min_220128_R2.txt
Sample Weight (mg):	4.46
Heating Rate (C/s):	0.5
Combustor Temp (C):	900
N2 Flow Rate (cc/min):	80
O2 Flow Rate (cc/min):	20
Calibration File:	C:\MCC\MCC Cal\Coeff1 JN10440_30_210304.txt.txt
T Correction Coefficients:	0	1.024463	0
Time Shift (s):	14
*
Time (s)	Temperature (C)	N2 flow rate (cc/min)	O2 flow rate (cc/min)	Flow Rate (cc/min)	Oxygen (%)	HRR (W/g)	Heating rate (C/s)
0.000	110.455	80.005	19.991	103.733	19.978	0.473	-0.011
8.000	110.457	80.006	19.995	103.741	19.981	0.323	0.020
16.000	110.462	80.008	19.996	103.786	19.973	0.900	0.001
24.000	110.681	80.009	19.993	103.831	19.968	1.263	0.024
32.000	111.212	80.008	19.993	103.887	19.953	2.341	0.112
40.000	112.122	80.008	19.994	103.923	19.947	2.791	0.134
48.000	113.439	80.008	19.993	103.942	19.943	3.048	0.199
56.001	115.199	80.007	19.995	103.948	19.940	3.243	0.236
64.000	117.221	80.006	19.995	103.969	19.934	3.693	0.268
72.000	119.562	80.009	19.993	103.978	19.935	3.642	0.301
80.000	122.269	80.008	19.994	103.982	19.932	3.852	0.346
88.000	125.179	80.006	19.994	103.994	19.926	4.307	0.389
96.001	128.285	80.007	19.994	103.999	19.926	4.270	0.385
104.001	131.589	80.008	19.994	103.995	19.928	4.155	0.437
112.000	135.002	80.009	19.993	103.980	19.929	4.097	0.451
120.001	138.560	80.008	19.994	103.982	19.928	4.117	0.456
128.000	142.197	80.009	19.994	103.981	19.932	3.871	0.484
136.000	145.897	80.008	19.996	103.983	19.930	4.029	0.494
144.000	149.747	80.007	19.994	103.999	19.929	4.051	0.498
152.000	153.480	80.007	19.994	103.986	19.929	4.063	0.454
160.000	157.384	80.005	19.996	103.982	19.930	3.991	0.508
168.000	161.324	80.007	19.993	103.983	19.934	3.679	0.445
176.000	165.293	80.008	19.993	103.977	19.930	3.995	0.477
184.000	169.306	80.009	19.994	103.977	19.932	3.885	0.517
192.000	173.206	80.008	19.993	103.953	19.933	3.761	0.521
200.000	177.128	80.008	19.994	103.979	19.934	3.684	0.493
208.000	181.122	80.010	19.994	103.974	19.934	3.728	0.497
216.000	185.060	80.009	19.993	103.959	19.932	3.842	0.505
224.000	189.087	80.008	19.994	103.941	19.937	3.502	0.516
232.000	193.032	80.007	19.994	103.940	19.940	3.250	0.496
240.000	197.002	80.008	19.994	103.939	19.938	3.398	0.530
248.000	200.916	80.008	19.995	103.938	19.937	3.520	0.485
256.000	204.808	80.006	19.996	103.947	19.939	3.368	0.469
264.000	208.788	80.008	19.994	103.941	19.938	3.436	0.504
272.000	212.706	80.011	19.992	103.940	19.936	3.588	0.482
280.000	216.661	80.008	19.994	103.940	19.939	3.318	0.515
288.000	220.590	80.008	19.992	103.937	19.945	2.936	0.498
296.000	224.585	80.011	19.994	103.919	19.939	3.344	0.491
304.000	228.509	80.008	19.992	103.935	19.938	3.428	0.486
312.000	232.499	80.006	19.994	103.939	19.936	3.570	0.488
320.000	236.507	80.008	19.994	103.936	19.941	3.232	0.518
328.000	240.526	80.008	19.994	103.938	19.939	3.329	0.502
336.000	244.567	80.006	19.994	103.939	19.935	3.647	0.493
344.000	248.644	80.005	19.994	103.919	19.939	3.355	0.502
352.000	252.755	80.009	19.994	103.908	19.935	3.663	0.513
360.000	256.773	80.009	19.994	103.905	19.941	3.199	0.498
368.000	260.809	80.008	19.993	103.903	19.937	3.510	0.483
376.000	264.810	80.010	19.994	103.909	19.941	3.213	0.508
384.000	268.818	80.008	19.993	103.900	19.939	3.357	0.527
392.000	272.876	80.007	19.992	103.908	19.940	3.251	0.466
400.000	276.857	80.008	19.993	103.903	19.937	3.521	0.490
408.000	280.813	80.006	19.994	103.903	19.936	3.582	0.488
416.000	284.768	80.007	19.996	103.899	19.940	3.287	0.453
424.000	288.750	80.007	19.993	103.900	19.941	3.195	0.517
432.000	292.824	80.008	19.993	103.899	19.935	3.606	0.534
440.000	296.783	80.009	19.995	103.898	19.938	3.413	0.474
448.000	300.766	80.009	19.995	103.898	19.937	3.492	0.469
456.000	304.794	80.011	19.995	103.900	19.936	3.526	0.515
464.000	308.747	80.009	19.993	103.900	19.936	3.547	0.484
472.000	312.832	80.007	19.995	103.904	19.939	3.313	0.540
480.000	316.850	80.006	19.995	103.901	19.937	3.474	0.482
488.000	320.865	80.009	19.994	103.900	19.933	3.764	0.489
496.000	325.023	80.007	19.996	103.899	19.934	3.726	0.557
504.000	328.984	80.006	19.996	103.895	19.932	3.875	0.513
512.000	333.065	80.009	19.994	103.879	19.928	4.110	0.503
520.000	337.108	80.008	19.994	103.892	19.929	4.034	0.511
528.000	341.155	80.008	19.994	103.895	19.926	4.266	0.517
536.000	345.192	80.009	19.995	103.898	19.925	4.393	0.515
544.000	349.281	80.011	19.994	103.899	19.923	4.501	0.498
552.000	353.417	80.009	19.993	103.879	19.920	4.713	0.506
560.000	357.537	80.008	19.993	103.886	19.915	5.055	0.505
568.000	361.687	80.008	19.995	103.883	19.907	5.630	0.511
576.000	365.813	80.008	19.994	103.879	19.900	6.189	0.510
584.000	369.922	80.008	19.994	103.875	19.894	6.610	0.503
592.000	374.058	80.008	19.994	103.866	19.886	7.201	0.516
600.000	378.116	80.008	19.993	103.862	19.878	7.789	0.515
608.001	382.188	80.009	19.994	103.867	19.869	8.391	0.484
616.000	386.310	80.011	19.995	103.861	19.862	8.907	0.515
624.000	390.350	80.010	19.995	103.860	19.853	9.555	0.509
632.000	394.468	80.007	19.996	103.858	19.847	10.030	0.511
640.000	398.540	80.009	19.994	103.859	19.842	10.368	0.501
648.000	402.640	80.009	19.993	103.863	19.834	10.959	0.508
656.000	406.667	80.009	19.993	103.859	19.836	10.810	0.517
664.000	410.684	80.009	19.993	103.863	19.835	10.925	0.483
672.000	414.669	80.008	19.994	103.862	19.824	11.721	0.466
680.000	418.769	80.010	19.995	103.858	19.809	12.777	0.520
688.000	422.878	80.008	19.994	103.859	19.798	13.584	0.503
696.000	426.960	80.007	19.994	103.854	19.769	15.717	0.496
704.000	430.987	80.011	19.995	103.851	19.742	17.660	0.494
712.000	435.056	80.007	19.995	103.850	19.696	21.016	0.509
720.000	439.083	80.007	19.994	103.858	19.640	25.058	0.473
728.000	443.098	80.007	19.994	103.830	19.540	32.300	0.496
736.000	447.125	80.008	19.996	103.819	19.408	41.884	0.501
744.000	451.109	80.008	19.994	103.820	19.225	55.203	0.516
752.000	455.214	80.007	19.995	103.801	18.983	72.773	0.513
760.000	459.309	80.010	19.995	103.752	18.647	96.963	0.551
768.000	463.383	80.011	19.992	103.678	18.117	135.384	0.507
776.000	467.489	80.009	19.994	103.672	17.558	175.857	0.497
784.000	471.544	80.011	19.993	103.608	16.846	227.115	0.458
792.000	475.703	80.009	19.994	103.459	15.898	295.162	0.497
800.000	479.774	80.007	19.993	103.268	14.748	377.119	0.515
808.000	483.874	80.009	19.993	103.041	13.431	470.607	0.485
816.000	487.901	80.008	19.995	102.740	12.056	568.425	0.517
824.000	491.949	80.008	19.994	102.527	11.055	640.335	0.501
832.000	496.007	80.009	19.995	102.429	10.955	648.623	0.489
840.000	499.997	80.009	19.995	102.570	11.990	575.783	0.507
848.000	504.032	80.009	19.993	102.857	14.131	424.027	0.508
856.000	508.073	80.008	19.994	103.343	16.720	237.312	0.551
864.000	512.295	80.010	19.993	103.825	18.616	99.529	0.613
872.000	516.494	80.011	19.994	103.946	19.501	35.195	0.566
880.000	520.537	80.008	19.996	103.908	19.787	14.388	0.485
888.000	524.852	80.008	19.995	103.898	19.872	8.244	0.491
896.000	529.150	80.009	19.994	103.883	19.904	5.902	0.550
904.000	533.462	80.009	19.996	103.841	19.915	5.105	0.515
912.000	537.809	80.008	19.994	103.649	19.917	4.909	0.558
920.000	542.087	80.010	19.995	103.872	19.926	4.300	0.533
928.000	546.361	80.009	19.993	103.905	19.925	4.334	0.545
936.000	550.649	80.009	19.995	103.900	19.928	4.124	0.562
944.000	554.876	80.010	19.994	103.897	19.929	4.056	0.544
952.000	559.023	80.012	19.993	103.891	19.928	4.160	0.513
960.000	563.177	80.008	19.995	103.893	19.926	4.276	0.506
968.000	567.307	80.009	19.996	103.864	19.930	3.996	0.541
976.000	571.351	80.009	19.995	103.868	19.932	3.871	0.527
984.000	575.506	80.008	19.994	103.881	19.931	3.900	0.514
992.001	579.586	80.006	19.995	103.892	19.934	3.700	0.479
1000.000	583.662	80.009	19.994	103.891	19.933	3.790	0.510
1008.000	587.713	80.009	19.995	103.886	19.931	3.942	0.520
1016.000	591.772	80.010	19.993	103.890	19.932	3.848	0.517
1024.000	595.884	80.009	19.994	103.889	19.934	3.698	0.507
1032.001	599.987	80.011	19.995	103.869	19.935	3.664	0.520
1040.001	604.123	80.008	19.993	103.883	19.935	3.610	0.511
1048.000	608.183	80.008	19.994	103.869	19.933	3.770	0.485
1056.001	612.328	80.009	19.995	103.870	19.938	3.438	0.485
1064.000	616.430	80.010	19.994	103.868	19.935	3.595	0.515
1072.001	620.501	80.009	19.995	103.878	19.936	3.535	0.513
1080.000	624.521	80.010	19.995	103.867	19.936	3.583	0.509
1088.000	628.480	80.010	19.996	103.863	19.935	3.633	0.499
1096.000	632.526	80.008	19.999	103.865	19.936	3.535	0.482
1104.000	636.588	80.008	19.995	103.863	19.938	3.382	0.501
1112.001	640.655	80.009	19.995	103.865	19.939	3.328	0.479
1120.000	644.623	80.009	19.993	103.882	19.939	3.308	0.457
1128.000	648.636	80.009	19.994	103.873	19.939	3.304	0.505
1136.001	652.657	80.009	19.994	103.879	19.935	3.650	0.477
1144.000	656.655	80.010	19.993	103.877	19.935	3.613	0.499
1152.000	660.657	80.010	19.996	103.895	19.939	3.361	0.506
1160.000	664.588	80.008	19.996	103.871	19.935	3.616	0.499
1168.000	668.622	80.009	19.995	103.888	19.937	3.464	0.512
1176.000	672.916	80.008	19.994	103.894	19.932	3.842	0.584
1184.000	677.360	80.008	19.995	103.896	19.934	3.699	0.596
1192.000	681.826	80.009	19.996	103.889	19.935	3.644	0.570
1200.000	686.375	80.009	19.993	103.886	19.934	3.670	0.577
1208.001	690.901	80.007	19.993	103.884	19.934	3.728	0.531
1216.000	695.375	80.008	19.994	103.883	19.934	3.702	0.527
1224.000	699.782	80.008	19.993	103.890	19.934	3.677	0.601
1232.000	704.034	80.008	19.994	103.884	19.931	3.887	0.546
1240.001	708.122	80.008	19.994	103.875	19.932	3.825	0.516
1248.000	712.187	80.010	19.994	103.865	19.932	3.819	0.516
1256.001	716.307	80.009	19.993	103.864	19.931	3.955	0.505
1264.000	720.185	80.009	19.994	103.863	19.932	3.817	0.497
1272.000	724.048	80.010	19.993	103.859	19.933	3.793	0.470
1280.000	727.935	80.009	19.995	103.868	19.931	3.923	0.492
1288.000	731.919	80.007	19.995	103.867	19.932	3.855	0.520
1296.001	735.932	80.008	19.994	103.873	19.931	3.893	0.507
1304.000	739.957	80.008	19.993	103.868	19.931	3.891	0.486
1311.000	743.519	80.009	19.994	103.872	19.935	3.640	0.534