Folder: fsri_materials_database/01_Data/LW_GypBoard_Painted_Paper/STA/N2/30K_min

Note: 01_Data/README.md
# Materials and Products Database
## 01_Data

Raw data generated from each apparatus are included here in plain-text format. The data is organized first by material, next by the short name of test apparatus used, and where applicable additional filtering by test settings.

### material.json

Each material directory contains a json file of the same name as the material. This file links the data stored in the repository as well as data and graphs produced by the accompanying scripts (__02_Scripts__) to the respective landing page for the material on the front-end website.

File: Lw_Gypsum_Painted_Paper_STA_N2_30KData_222302_R1.csv
##Temp./Â°C,Time/min,Mass loss(subtr.2)/mg,DSC(subtr.2)/(mW/mg),Sensit./(uV/mW)
48.767,10.01,-0.02402,0.0058675,1.08892
51.967,10.87802,-0.0215879,0.16887,1.08622
55.167,11.11089,-0.02662754,0.2816,1.08354
58.367,11.28989,-0.02391199,0.36921,1.08088
61.567,11.44437,-0.02408469,0.44208,1.07824
64.767,11.58512,-0.03076966,0.50904,1.07562
67.967,11.71705,-0.02350102,0.56516,1.07301
71.167,11.84302,-0.02488278,0.61759,1.07042
74.367,11.96457,-0.02443286,0.66962,1.06785
77.567,12.08332,-0.02768578,0.71186,1.0653
80.767,12.19899,-0.02898524,0.75488,1.06276
83.967,12.3138,-0.03006452,0.79591,1.06024
87.167,12.42639,-0.03136438,0.83135,1.05774
90.367,12.53771,-0.03214228,0.86486,1.05526
93.567,12.64798,-0.03424492,0.89549,1.05279
96.767,12.75741,-0.03467267,0.9211,1.05035
99.967,12.86609,-0.03618023,0.94277,1.04791
103.167,12.97465,-0.03867491,0.95827,1.0455
106.367,13.08264,-0.04066768,0.97093,1.0431
109.567,13.19046,-0.04167975,0.98001,1.04072
112.767,13.29822,-0.04167997,0.98495,1.03836
115.967,13.40541,-0.04299227,0.9921,1.03601
119.167,13.5123,-0.04394934,0.99398,1.03368
122.367,13.61846,-0.04398,1.00132,1.03137
125.567,13.7246,-0.04398175,1.00665,1.02907
128.767,13.83032,-0.04661119,1.0129,1.02679
131.967,13.9352,-0.04792633,1.01446,1.02453
135.167,14.0391,-0.04856463,1.01401,1.02228
138.367,14.14274,-0.04933555,1.02057,1.02005
141.567,14.246,-0.04925,1.02447,1.01784
144.767,14.34876,-0.04924999,1.03367,1.01564
147.967,14.4508,-0.05056151,1.04363,1.01346
151.167,14.553,-0.04920389,1.05193,1.01129
154.367,14.6541,-0.04793001,1.06608,1.00914
157.567,14.75593,-0.04793202,1.07973,1.007
160.767,14.85705,-0.05055985,1.0925,1.00488
163.967,14.958,-0.05154688,1.10623,1.00277
167.167,15.0587,-0.05187995,1.12002,1.00068
170.367,15.15894,-0.0528747,1.13277,0.99861
173.567,15.2591,-0.0532,1.15029,0.99654
176.767,15.3591,-0.05319981,1.16068,0.9945
179.967,15.4588,-0.05582157,1.17795,0.99246
183.167,15.5579,-0.05581839,1.18868,0.99045
186.367,15.6568,-0.05451004,1.20259,0.98844
189.567,15.75562,-0.057087,1.21514,0.98645
192.767,15.85414,-0.05922076,1.22658,0.98447
195.967,15.95245,-0.05997182,1.24165,0.98251
199.167,16.05015,-0.06009935,1.25699,0.98056
202.367,16.14856,-0.06009514,1.26552,0.97862
205.567,16.2464,-0.06286368,1.27915,0.9767
208.767,16.3442,-0.06416849,1.28947,0.97478
211.967,16.44191,-0.06284844,1.30158,0.97289
215.167,16.53937,-0.06548013,1.31477,0.971
218.367,16.63661,-0.06682631,1.32616,0.96912
221.567,16.7339,-0.0681404,1.33547,0.96726
224.767,16.83132,-0.07092235,1.34708,0.96541
227.967,16.92839,-0.07364067,1.35802,0.96357
231.167,17.02541,-0.07642712,1.36758,0.96174
234.367,17.12252,-0.07875489,1.37103,0.95992
237.567,17.21957,-0.08297446,1.37856,0.95812
240.767,17.3165,-0.0862637,1.38513,0.95632
243.967,17.41341,-0.08883772,1.38832,0.95454
247.167,17.51014,-0.09137369,1.39447,0.95276
250.367,17.60705,-0.09788355,1.39987,0.951
253.567,17.7037,-0.10272,1.40812,0.94924
256.767,17.8003,-0.10828,1.41309,0.94749
259.967,17.89695,-0.1119,1.4142,0.94576
263.167,17.99359,-0.11737,1.4201,0.94403
266.367,18.09019,-0.12395,1.42809,0.94231
269.567,18.1869,-0.13007,1.43359,0.9406
272.767,18.28334,-0.13639,1.44288,0.9389
275.967,18.37999,-0.14456,1.45047,0.9372
279.167,18.47665,-0.1542,1.46328,0.93552
282.367,18.57328,-0.16238,1.47182,0.93384
285.567,18.6699,-0.17427,1.48472,0.93217
288.767,18.7668,-0.18514,1.49738,0.9305
291.967,18.8633,-0.19663,1.51672,0.92885
295.167,18.96001,-0.2107,1.53362,0.92719
298.367,19.05692,-0.22698,1.55515,0.92555
301.567,19.15377,-0.24296,1.57876,0.92391
304.767,19.25078,-0.26115,1.60473,0.92228
307.967,19.3476,-0.28182,1.63095,0.92065
311.167,19.4443,-0.30279,1.65984,0.91903
314.367,19.54162,-0.32792,1.6914,0.91742
317.567,19.63873,-0.35565,1.72666,0.9158
320.767,19.736,-0.38487,1.76017,0.9142
323.967,19.83355,-0.41744,1.79483,0.9126
327.167,19.93101,-0.44928,1.82666,0.911
330.367,20.0287,-0.48689,1.86105,0.9094
333.567,20.1268,-0.5244,1.89722,0.90781
336.767,20.225,-0.56556,1.9322,0.90623
339.967,20.3233,-0.60728,1.9727,0.90464
343.167,20.42171,-0.65488,2.01822,0.90306
346.367,20.52037,-0.705,2.07069,0.90148
349.567,20.61869,-0.75696,2.13712,0.8999
352.767,20.71762,-0.81706,2.2132,0.89833
355.967,20.8164,-0.87893,2.3039,0.89676
359.167,20.9153,-0.94868,2.40821,0.89519
362.367,21.01432,-1.02413,2.52399,0.89362
365.567,21.11342,-1.10787,2.6341,0.89205
368.767,21.21259,-1.19529,2.74173,0.89048
371.967,21.31193,-1.29138,2.81923,0.88891
375.167,21.4112,-1.38758,2.85163,0.88735
378.367,21.51056,-1.48746,2.81718,0.88578
381.567,21.60961,-1.58164,2.7069,0.88421
384.767,21.7087,-1.67231,2.51528,0.88264
387.967,21.80796,-1.74832,2.24823,0.88107
391.167,21.90696,-1.8116,1.9342,0.87951
394.367,22.00591,-1.85884,1.62899,0.87793
397.567,22.10476,-1.89657,1.39052,0.87636
400.767,22.2039,-1.92482,1.24556,0.87479
403.967,22.30286,-1.94909,1.18349,0.87321
407.167,22.4022,-1.97429,1.16853,0.87164
410.367,22.50169,-2.00115,1.17816,0.87006
413.567,22.6018,-2.02818,1.19708,0.86847
416.767,22.70138,-2.06018,1.21612,0.86689
419.967,22.8011,-2.09382,1.22195,0.8653
423.167,22.9013,-2.13222,1.20354,0.86371
426.367,23.00125,-2.16814,1.1579,0.86211
429.567,23.10154,-2.20709,1.0773,0.86051
432.767,23.2017,-2.24381,0.96715,0.85891
435.967,23.30176,-2.27205,0.83613,0.8573
439.167,23.4021,-2.29309,0.71266,0.85569
442.367,23.50252,-2.30996,0.62257,0.85407
445.567,23.60289,-2.32057,0.5631,0.85245
448.767,23.70334,-2.33171,0.52464,0.85082
451.967,23.80419,-2.34023,0.50176,0.84919
455.167,23.9049,-2.34856,0.48472,0.84755
458.367,24.00607,-2.35402,0.47826,0.8459
461.567,24.10742,-2.36123,0.4711,0.84425
464.767,24.20867,-2.36698,0.46667,0.8426
467.967,24.31011,-2.3724,0.46189,0.84093
471.167,24.41154,-2.3755,0.4566,0.83926
474.367,24.51325,-2.38027,0.44898,0.83759
477.567,24.61504,-2.38338,0.44601,0.8359
480.767,24.71675,-2.38659,0.43718,0.83421
483.967,24.81861,-2.39255,0.43145,0.83251
487.167,24.92057,-2.3974,0.42258,0.83081
490.367,25.02273,-2.40152,0.41319,0.82909
493.567,25.12487,-2.40397,0.40205,0.82737
496.767,25.22709,-2.40712,0.39395,0.82564
499.967,25.3292,-2.40835,0.38227,0.8239
503.167,25.43196,-2.41261,0.36964,0.82216
506.367,25.53445,-2.41566,0.35758,0.8204
509.567,25.6368,-2.41726,0.34915,0.81864
512.767,25.73943,-2.42097,0.34052,0.81686
515.967,25.84209,-2.42361,0.33134,0.81508
519.167,25.9448,-2.42622,0.3247,0.81329
522.367,26.04757,-2.42756,0.31468,0.81149
525.567,26.15055,-2.42987,0.30227,0.80967
528.767,26.2536,-2.43122,0.30039,0.80785
531.967,26.3566,-2.43381,0.28766,0.80602
535.167,26.45978,-2.43646,0.27766,0.80418
538.367,26.56297,-2.43909,0.27079,0.80233
541.567,26.66633,-2.44041,0.26443,0.80046
544.767,26.76967,-2.4417,0.27247,0.79859
547.967,26.87329,-2.44318,0.27582,0.79671
551.167,26.97703,-2.44435,0.27867,0.79481
554.367,27.08056,-2.4457,0.27517,0.79291
557.567,27.18419,-2.44835,0.27127,0.79099
560.767,27.28835,-2.44994,0.27127,0.78906
563.967,27.39248,-2.45126,0.26418,0.78712
567.167,27.4963,-2.45384,0.25604,0.78517
570.367,27.6007,-2.45523,0.24773,0.78321
573.567,27.7052,-2.45455,0.24088,0.78123
576.767,27.8095,-2.4552,0.22824,0.77925
579.967,27.91406,-2.4576,0.21488,0.77725
583.167,28.01865,-2.46016,0.19746,0.77524
586.367,28.1232,-2.45919,0.183,0.77322
589.567,28.2279,-2.46178,0.1736,0.77118
592.767,28.33275,-2.46314,0.1659,0.76914
595.967,28.43763,-2.46443,0.1533,0.76708
599.167,28.54265,-2.46574,0.14478,0.76501
602.367,28.6477,-2.46494,0.13725,0.76292
605.567,28.7527,-2.46749,0.12502,0.76082
608.767,28.85775,-2.46946,0.11483,0.75872
611.967,28.96303,-2.4701,0.10874,0.75659
615.167,29.06832,-2.47144,0.10077,0.75446
618.367,29.17372,-2.47162,0.09100194,0.75231
621.567,29.27903,-2.47408,0.08503285,0.75015
624.767,29.3842,-2.47662,0.0791303,0.74798
627.967,29.48987,-2.47912,0.07557939,0.74579
631.167,29.59501,-2.47912,0.07724715,0.74359
634.367,29.7005,-2.48044,0.07466453,0.74138
637.567,29.80612,-2.48339,0.08086439,0.73915
640.767,29.91168,-2.48339,0.07816116,0.73691
643.967,30.0175,-2.48471,0.08141302,0.73466
647.167,30.12332,-2.48721,0.0895674,0.73239
650.367,30.2294,-2.48866,0.09578472,0.73011
653.567,30.33555,-2.4915,0.11106,0.72782
656.767,30.44156,-2.4923,0.12468,0.72552
659.967,30.54757,-2.49415,0.13884,0.7232
663.167,30.65363,-2.49688,0.15541,0.72087
666.367,30.7597,-2.49752,0.16938,0.71852
669.567,30.86583,-2.49815,0.18429,0.71616
672.767,30.97196,-2.50092,0.19805,0.71379
675.967,31.0782,-2.50224,0.20996,0.71141
679.167,31.18455,-2.50499,0.2154,0.70901
682.367,31.291,-2.50928,0.21699,0.7066
685.567,31.39718,-2.51332,0.20805,0.70417
688.767,31.50351,-2.51535,0.18936,0.70173
691.967,31.60987,-2.5186,0.1674,0.69928
695.167,31.7161,-2.52058,0.15834,0.69682
698.367,31.8227,-2.52328,0.16451,0.69434
701.567,31.92905,-2.52497,0.1644,0.69185
704.767,32.0355,-2.52874,0.13868,0.68934
707.967,32.14183,-2.53077,0.08257909,0.68683
711.167,32.24803,-2.532,-0.02987898,0.6843
714.367,32.3542,-2.53473,-0.09872675,0.68175
717.567,32.46092,-2.53725,-0.11762,0.6792
720.767,32.567,-2.53858,-0.12431,0.67663
723.967,32.67321,-2.53857,-0.12539,0.67405
727.167,32.7796,-2.53989,-0.13096,0.67145
730.367,32.8864,-2.53986,-0.13311,0.66884
733.567,32.993,-2.53975,-0.13654,0.66622
736.767,33.0995,-2.53989,-0.13765,0.66359
739.967,33.20615,-2.54121,-0.13879,0.66095
743.167,33.3129,-2.54048,-0.14051,0.65829
746.367,33.41935,-2.5412,-0.14026,0.65562
749.567,33.52608,-2.53988,-0.14008,0.65294
752.767,33.63293,-2.5412,-0.14187,0.65024
755.967,33.74003,-2.5412,-0.14453,0.64754
759.167,33.8472,-2.54361,-0.14897,0.64482
762.367,33.9543,-2.54316,-0.15125,0.64209
765.567,34.06151,-2.54316,-0.15531,0.63935
768.767,34.16892,-2.54515,-0.157,0.6366
771.967,34.27608,-2.54778,-0.16256,0.63383
775.167,34.38348,-2.54917,-0.16263,0.63106
778.367,34.49078,-2.54943,-0.16406,0.62827
781.567,34.59818,-2.55068,-0.16147,0.62547
784.767,34.7057,-2.54905,-0.16214,0.62266
787.967,34.81313,-2.54909,-0.16038,0.61984
791.167,34.92047,-2.5491,-0.16574,0.61701
793.467,34.9981,-2.5491,-0.16817,0.61497

File: Lw_Gypsum_Painted_Paper_STA_N2_30KData_222402_R2.csv
##Temp./Â°C,Time/min,Mass loss(subtr.2)/mg,DSC(subtr.2)/(mW/mg),Sensit./(uV/mW)
48.817,10.01,-0.00778,0.0055499,1.08887
52.017,10.87645,-0.01032304,0.14904,1.08618
55.217,11.10869,-0.008712867,0.25138,1.0835
58.417,11.28769,-0.008975875,0.33083,1.08084
61.617,11.44203,-0.007852951,0.3973,1.0782
64.817,11.582,-0.01011553,0.45141,1.07558
68.017,11.71397,-0.009895433,0.49899,1.07297
71.217,11.83961,-0.01078692,0.54057,1.07038
74.417,11.96141,-0.00892278,0.57937,1.06781
77.617,12.0801,-0.009642829,0.61304,1.06526
80.817,12.19629,-0.009588112,0.64297,1.06272
84.017,12.31,-0.01085002,0.67456,1.06021
87.217,12.42261,-0.01236749,0.70169,1.0577
90.417,12.53481,-0.01130908,0.72907,1.05522
93.617,12.6452,-0.01327449,0.74916,1.05276
96.817,12.75464,-0.01375503,0.7709,1.05031
100.017,12.8635,-0.01502339,0.78486,1.04788
103.217,12.97224,-0.01632817,0.79997,1.04546
106.417,13.0802,-0.01731996,0.80915,1.04306
109.617,13.18799,-0.01844724,0.81495,1.04068
112.817,13.2954,-0.01897051,0.81733,1.03832
116.017,13.40269,-0.0200185,0.81911,1.03598
119.217,13.50973,-0.02235897,0.82312,1.03365
122.417,13.616,-0.02300365,0.82696,1.03133
125.617,13.72175,-0.02301234,0.82956,1.02904
128.817,13.82755,-0.02426411,0.82632,1.02676
132.017,13.93259,-0.02566,0.82209,1.0245
135.217,14.03691,-0.02566001,0.81939,1.02225
138.417,14.14069,-0.02697979,0.81806,1.02002
141.617,14.2441,-0.02788723,0.8186,1.0178
144.817,14.347,-0.02697,0.8213,1.0156
148.017,14.44946,-0.02697,0.82681,1.01342
151.217,14.55122,-0.02697,0.83374,1.01125
154.417,14.6533,-0.02697,0.84273,1.0091
157.617,14.7545,-0.02759379,0.85222,1.00697
160.817,14.85578,-0.02829014,0.85916,1.00485
164.017,14.9565,-0.02927856,0.86998,1.00274
167.217,15.0574,-0.02928878,0.87834,1.00065
170.417,15.1578,-0.0287487,0.8895,0.99857
173.617,15.25805,-0.02993017,0.89883,0.99651
176.817,15.35785,-0.02994083,0.90756,0.99446
180.017,15.45744,-0.03120687,0.91839,0.99243
183.217,15.55675,-0.03488643,0.92816,0.99041
186.417,15.6556,-0.03199502,0.93718,0.98841
189.617,15.75433,-0.03207074,0.94655,0.98642
192.817,15.8529,-0.03332998,0.95436,0.98444
196.017,15.9512,-0.03464895,0.96439,0.98248
199.217,16.04942,-0.0359499,0.97223,0.98053
202.417,16.14752,-0.03597001,0.97885,0.97859
205.617,16.24548,-0.03859827,0.98898,0.97667
208.817,16.3431,-0.03997275,0.99413,0.97475
212.017,16.4409,-0.03718255,1.00307,0.97286
215.217,16.5386,-0.04067718,1.01151,0.97097
218.417,16.63629,-0.04402738,1.02019,0.96909
221.617,16.73367,-0.04547197,1.02815,0.96723
224.817,16.83095,-0.04819447,1.03608,0.96538
228.017,16.92792,-0.04994732,1.04248,0.96354
231.217,17.0249,-0.05111474,1.04726,0.96171
234.417,17.12231,-0.05521049,1.05263,0.9599
237.617,17.2198,-0.05780287,1.05709,0.95809
240.817,17.3167,-0.06091684,1.05741,0.95629
244.017,17.4138,-0.0650828,1.0606,0.95451
247.217,17.51071,-0.06923472,1.06323,0.95273
250.417,17.6078,-0.07188772,1.0669,0.95097
253.617,17.70424,-0.07684381,1.07345,0.94921
256.817,17.80118,-0.08217118,1.07651,0.94747
260.017,17.89799,-0.08902262,1.08072,0.94573
263.217,17.99442,-0.09515044,1.08717,0.944
266.417,18.09102,-0.10053,1.09322,0.94228
269.617,18.18705,-0.10703,1.09893,0.94057
272.817,18.2843,-0.11359,1.10388,0.93887
276.017,18.3811,-0.1247,1.11336,0.93718
279.217,18.47769,-0.13122,1.12056,0.93549
282.417,18.57454,-0.13999,1.13221,0.93381
285.617,18.6713,-0.15082,1.14477,0.93214
288.817,18.76822,-0.162,1.15857,0.93048
292.017,18.86499,-0.17398,1.17609,0.92882
295.217,18.96189,-0.18883,1.1956,0.92717
298.417,19.059,-0.2054,1.21494,0.92553
301.617,19.15564,-0.22121,1.24285,0.92389
304.817,19.253,-0.24313,1.27225,0.92225
308.017,19.3501,-0.2637,1.30176,0.92063
311.217,19.44687,-0.28524,1.33275,0.91901
314.417,19.54384,-0.31065,1.36793,0.91739
317.617,19.641,-0.33807,1.39819,0.91578
320.817,19.7382,-0.36829,1.43645,0.91417
324.017,19.83589,-0.40035,1.47213,0.91257
327.217,19.93364,-0.43598,1.51108,0.91097
330.417,20.03133,-0.47181,1.54919,0.90938
333.617,20.1291,-0.51345,1.58976,0.90779
336.817,20.22655,-0.55521,1.6308,0.9062
340.017,20.32455,-0.60246,1.67867,0.90462
343.217,20.4224,-0.64803,1.72883,0.90304
346.417,20.52038,-0.70003,1.78696,0.90146
349.617,20.6185,-0.75534,1.86252,0.89988
352.817,20.71641,-0.81417,1.94778,0.89831
356.017,20.81474,-0.88082,2.04627,0.89673
359.217,20.91346,-0.95119,2.15938,0.89516
362.417,21.01194,-1.0303,2.28293,0.89359
365.617,21.11045,-1.11469,2.40692,0.89202
368.817,21.20916,-1.20835,2.52167,0.89046
372.017,21.308,-1.30429,2.60843,0.88889
375.217,21.40718,-1.40792,2.64651,0.88732
378.417,21.50629,-1.50887,2.61738,0.88575
381.617,21.6053,-1.60948,2.50171,0.88419
384.817,21.70415,-1.69807,2.30431,0.88262
388.017,21.80329,-1.77956,2.02845,0.88105
391.217,21.90205,-1.84223,1.7057,0.87948
394.417,22.00089,-1.89386,1.39543,0.87791
397.617,22.09958,-1.93071,1.15749,0.87634
400.817,22.1985,-1.96109,1.01418,0.87476
404.017,22.29758,-1.98476,0.95671,0.87319
407.217,22.39675,-2.00772,0.94691,0.87161
410.417,22.49616,-2.03537,0.96301,0.87003
413.617,22.5958,-2.06521,0.98514,0.86845
416.817,22.69572,-2.09992,1.00897,0.86686
420.017,22.79569,-2.13434,1.01729,0.86527
423.217,22.89583,-2.17328,1.00043,0.86368
426.417,22.99595,-2.2125,0.95862,0.86208
429.617,23.09616,-2.25276,0.87983,0.86048
432.817,23.19647,-2.28818,0.76518,0.85888
436.017,23.29675,-2.31938,0.63239,0.85727
439.217,23.39712,-2.34259,0.51235,0.85566
442.417,23.49762,-2.35711,0.4196,0.85404
445.617,23.59831,-2.37122,0.36066,0.85242
448.817,23.69913,-2.38064,0.32571,0.85079
452.017,23.7999,-2.38839,0.30581,0.84916
455.217,23.90087,-2.39557,0.2912,0.84752
458.417,24.00218,-2.40187,0.28205,0.84588
461.617,24.10345,-2.40801,0.27926,0.84423
464.817,24.2047,-2.41377,0.27552,0.84257
468.017,24.30621,-2.41901,0.27423,0.84091
471.217,24.40784,-2.42465,0.27428,0.83924
474.417,24.5096,-2.4301,0.27494,0.83756
477.617,24.61125,-2.43473,0.27265,0.83588
480.817,24.71303,-2.43931,0.27058,0.83419
484.017,24.81466,-2.44462,0.26918,0.83249
487.217,24.91665,-2.4479,0.26484,0.83078
490.417,25.01878,-2.45074,0.25859,0.82907
493.617,25.12097,-2.4548,0.25132,0.82734
496.817,25.22319,-2.4576,0.24411,0.82561
500.017,25.3256,-2.46036,0.23891,0.82388
503.217,25.4281,-2.46443,0.23305,0.82213
506.417,25.53049,-2.46728,0.22438,0.82037
509.617,25.633,-2.46999,0.21995,0.81861
512.817,25.73568,-2.47263,0.21604,0.81683
516.017,25.8384,-2.47422,0.21026,0.81505
519.217,25.94118,-2.47825,0.20473,0.81326
522.417,26.04423,-2.48197,0.1993,0.81146
525.617,26.14701,-2.48274,0.19396,0.80965
528.817,26.25,-2.48526,0.18585,0.80782
532.017,26.35315,-2.48794,0.18082,0.80599
535.217,26.4564,-2.49053,0.17557,0.80415
538.417,26.5598,-2.49053,0.17117,0.8023
541.617,26.6632,-2.49448,0.16424,0.80044
544.817,26.76665,-2.49585,0.16042,0.79856
548.017,26.8702,-2.49812,0.15695,0.79668
551.217,26.9735,-2.50073,0.16231,0.79478
554.417,27.0772,-2.50193,0.16846,0.79288
557.617,27.18078,-2.50341,0.16968,0.79096
560.817,27.2847,-2.50469,0.17258,0.78903
564.017,27.3887,-2.5047,0.17435,0.78709
567.217,27.49268,-2.50715,0.17333,0.78514
570.417,27.5968,-2.51081,0.17124,0.78318
573.617,27.7012,-2.51082,0.16441,0.7812
576.817,27.8055,-2.51222,0.16256,0.77922
580.017,27.90977,-2.51476,0.15693,0.77722
583.217,28.0142,-2.51482,0.15115,0.77521
586.417,28.11887,-2.5174,0.14059,0.77319
589.617,28.22366,-2.51871,0.13425,0.77115
592.817,28.3285,-2.51871,0.1232,0.7691
596.017,28.43344,-2.51864,0.11546,0.76704
599.217,28.53831,-2.52135,0.10648,0.76497
602.417,28.64333,-2.52363,0.10356,0.76289
605.617,28.7485,-2.52483,0.09862299,0.76079
608.817,28.8537,-2.52494,0.09432268,0.75868
612.017,28.95887,-2.52661,0.08962073,0.75656
615.217,29.0641,-2.52793,0.08216067,0.75442
618.417,29.1692,-2.52924,0.07742486,0.75228
621.617,29.27432,-2.53061,0.07570165,0.75012
624.817,29.37968,-2.53188,0.07184032,0.74794
628.017,29.4849,-2.53319,0.07375112,0.74576
631.217,29.5904,-2.53451,0.07883489,0.74356
634.417,29.696,-2.53515,0.07859056,0.74134
637.617,29.80126,-2.53693,0.07930941,0.73912
640.817,29.907,-2.53911,0.08493839,0.73688
644.017,30.0122,-2.54041,0.0896121,0.73462
647.217,30.1178,-2.54174,0.09688261,0.73236
650.417,30.2234,-2.54437,0.10509,0.73008
653.617,30.3291,-2.54569,0.11715,0.72779
656.817,30.43478,-2.54767,0.13306,0.72548
660.017,30.54025,-2.55032,0.15383,0.72316
663.217,30.64616,-2.55153,0.17367,0.72083
666.417,30.75205,-2.55424,0.19648,0.71848
669.617,30.8579,-2.55692,0.21833,0.71613
672.817,30.9638,-2.55831,0.23797,0.71375
676.017,31.06966,-2.56124,0.25904,0.71137
679.217,31.1758,-2.56486,0.27168,0.70897
682.417,31.28189,-2.56934,0.28094,0.70656
685.617,31.38785,-2.57084,0.28503,0.70413
688.817,31.49407,-2.57347,0.2695,0.70169
692.017,31.6002,-2.57774,0.25308,0.69924
695.217,31.70647,-2.57906,0.23764,0.69678
698.417,31.8128,-2.58106,0.23421,0.6943
701.617,31.9195,-2.58405,0.24287,0.69181
704.817,32.02585,-2.58708,0.23656,0.6893
708.017,32.1323,-2.58964,0.18699,0.68679
711.217,32.2389,-2.59231,0.07651548,0.68426
714.417,32.34531,-2.59499,-0.025826,0.68171
717.617,32.4519,-2.59568,-0.05952449,0.67916
720.817,32.5585,-2.59692,-0.07164844,0.67659
724.017,32.66493,-2.59552,-0.0720144,0.674
727.217,32.77179,-2.59693,-0.08005446,0.67141
730.417,32.87856,-2.59824,-0.08373207,0.6688
733.617,32.9852,-2.59817,-0.08773949,0.66618
736.817,33.09189,-2.59953,-0.08926549,0.66355
740.017,33.19847,-2.59991,-0.09374617,0.66091
743.217,33.30536,-2.6012,-0.09504143,0.65825
746.417,33.4122,-2.60252,-0.09900686,0.65558
749.617,33.5193,-2.60252,-0.10029,0.6529
752.817,33.62608,-2.60339,-0.10321,0.6502
756.017,33.73357,-2.60235,-0.10536,0.6475
759.217,33.8407,-2.60219,-0.10828,0.64478
762.417,33.94785,-2.60481,-0.11141,0.64205
765.617,34.05523,-2.60482,-0.11314,0.63931
768.817,34.16245,-2.60441,-0.11454,0.63655
772.017,34.26962,-2.60515,-0.12216,0.63379
775.217,34.3771,-2.60717,-0.12256,0.63101
778.417,34.48429,-2.60779,-0.12529,0.62823
781.617,34.59156,-2.6091,-0.12932,0.62543
784.817,34.69885,-2.60873,-0.13514,0.62262
788.017,34.806,-2.60877,-0.13906,0.6198
791.217,34.91357,-2.61008,-0.14402,0.61696
793.717,34.9971,-2.6114,-0.14984,0.61474