Folder: fsri_materials_database/01_Data/LW_GypBoard_Painted_Paper/STA/N2/30K_min (part 2)

File: Lw_Gypsum_Painted_Paper_STA_N2_30KData_222402_R3.csv
##Temp./Â°C,Time/min,Mass loss(subtr.2)/mg,DSC(subtr.2)/(mW/mg),Sensit./(uV/mW)
48.836,10.01,-0.02643,0.01167803,1.08886
52.036,10.8748,-0.02835667,0.16774,1.08616
55.236,11.10748,-0.02696557,0.27683,1.08349
58.436,11.28588,-0.02969651,0.36057,1.08083
61.636,11.43998,-0.02851038,0.43171,1.07819
64.836,11.58071,-0.03017454,0.492,1.07556
68.036,11.71204,-0.02937635,0.54579,1.07296
71.236,11.83798,-0.02964122,0.59295,1.07037
74.436,11.95973,-0.03082985,0.63364,1.0678
77.636,12.07869,-0.03023506,0.67249,1.06524
80.836,12.19506,-0.03146259,0.70766,1.06271
84.036,12.3093,-0.03216104,0.74187,1.06019
87.236,12.422,-0.03397336,0.77402,1.05769
90.436,12.53324,-0.03407059,0.80524,1.05521
93.636,12.64354,-0.03683943,0.83278,1.05274
96.836,12.7531,-0.03685369,0.85753,1.05029
100.036,12.86191,-0.03766837,0.8799,1.04786
103.236,12.9703,-0.0381706,0.89767,1.04545
106.436,13.07828,-0.03968775,0.9142,1.04305
109.636,13.18621,-0.04057737,0.92134,1.04067
112.836,13.29395,-0.04321031,0.92799,1.03831
116.036,13.40125,-0.04452875,0.93481,1.03596
119.236,13.50808,-0.04485951,0.93763,1.03363
122.436,13.6143,-0.04481687,0.94131,1.03132
125.636,13.7203,-0.0461884,0.94773,1.02902
128.836,13.82557,-0.04872722,0.94798,1.02674
132.036,13.9303,-0.04881001,0.94815,1.02448
135.236,14.03481,-0.04985682,0.94798,1.02224
138.436,14.1386,-0.05044822,0.9467,1.02
141.636,14.24206,-0.04960574,0.94916,1.01779
144.836,14.34501,-0.05034424,0.95496,1.01559
148.036,14.4474,-0.05166,0.95994,1.01341
151.236,14.5497,-0.05296058,0.96975,1.01124
154.436,14.6514,-0.0526384,0.97552,1.00909
157.636,14.7531,-0.05262984,0.9862,1.00695
160.836,14.8544,-0.05296322,0.99739,1.00483
164.036,14.95536,-0.05428993,1.01074,1.00273
167.236,15.0563,-0.05464488,1.02002,1.00064
170.436,15.15671,-0.05495,1.02975,0.99856
173.636,15.25711,-0.05611646,1.04043,0.9965
176.836,15.35701,-0.05725005,1.05055,0.99445
180.036,15.457,-0.05725,1.06231,0.99242
183.236,15.5565,-0.05721485,1.07498,0.9904
186.436,15.6556,-0.0587619,1.08748,0.9884
189.636,15.75446,-0.06024217,1.09713,0.98641
192.836,15.8532,-0.0602363,1.10954,0.98443
196.036,15.95165,-0.05923021,1.12058,0.98247
199.236,16.05001,-0.06119999,1.13296,0.98052
202.436,16.1481,-0.06324081,1.14137,0.97858
205.636,16.24618,-0.06356329,1.15119,0.97666
208.836,16.3441,-0.06312154,1.16188,0.97474
212.036,16.44181,-0.0658074,1.16946,0.97284
215.236,16.53956,-0.06845642,1.18224,0.97096
218.436,16.63712,-0.06843381,1.18869,0.96908
221.636,16.7346,-0.07108771,1.19646,0.96722
224.836,16.83182,-0.07303991,1.20691,0.96537
228.036,16.92938,-0.07600966,1.21389,0.96353
231.236,17.02657,-0.07732985,1.22006,0.9617
234.436,17.1237,-0.0809056,1.22636,0.95988
237.636,17.22075,-0.08262542,1.23538,0.95808
240.836,17.31789,-0.0858195,1.23811,0.95628
244.036,17.4149,-0.08961362,1.24098,0.9545
247.236,17.51171,-0.09392822,1.24462,0.95272
250.436,17.60856,-0.09757287,1.24696,0.95096
253.636,17.7053,-0.10242,1.25033,0.9492
256.836,17.80197,-0.10765,1.2559,0.94746
260.036,17.89857,-0.11309,1.26068,0.94572
263.236,17.9952,-0.1193,1.26873,0.94399
266.436,18.0918,-0.12462,1.27384,0.94227
269.636,18.18836,-0.13069,1.28036,0.94056
272.836,18.28499,-0.13823,1.29006,0.93886
276.036,18.3816,-0.14682,1.29692,0.93717
279.236,18.47833,-0.15491,1.30459,0.93548
282.436,18.57475,-0.16437,1.31488,0.9338
285.636,18.6716,-0.1715,1.32647,0.93213
288.836,18.76815,-0.18432,1.33817,0.93047
292.036,18.86508,-0.19651,1.35306,0.92881
295.236,18.96193,-0.21139,1.36932,0.92716
298.436,19.05868,-0.22612,1.39127,0.92552
301.636,19.15558,-0.24137,1.40955,0.92388
304.836,19.25253,-0.25891,1.43523,0.92225
308.036,19.34931,-0.27854,1.46019,0.92062
311.236,19.4463,-0.30125,1.48874,0.919
314.436,19.54322,-0.32541,1.52058,0.91738
317.636,19.64004,-0.35286,1.55094,0.91577
320.836,19.73765,-0.37968,1.58601,0.91416
324.036,19.83482,-0.41012,1.61972,0.91256
327.236,19.9321,-0.44368,1.65232,0.91096
330.436,20.02935,-0.48035,1.688,0.90937
333.636,20.12705,-0.51913,1.72168,0.90778
336.836,20.22472,-0.55818,1.75997,0.90619
340.036,20.32264,-0.6039,1.79998,0.90461
343.236,20.42043,-0.64814,1.84902,0.90303
346.436,20.51833,-0.69623,1.90107,0.90145
349.636,20.6164,-0.74557,1.96397,0.89987
352.836,20.71448,-0.80783,2.04203,0.8983
356.036,20.813,-0.86956,2.13717,0.89672
359.236,20.9114,-0.93854,2.24199,0.89515
362.436,21.00994,-1.01247,2.35803,0.89358
365.636,21.1088,-1.09651,2.47594,0.89201
368.836,21.20755,-1.18393,2.58616,0.89045
372.036,21.30645,-1.27762,2.66891,0.88888
375.236,21.40531,-1.37357,2.705,0.88731
378.436,21.50463,-1.4748,2.67051,0.88574
381.636,21.6038,-1.57126,2.55845,0.88418
384.836,21.7028,-1.65669,2.36296,0.88261
388.036,21.80199,-1.735,2.09447,0.88104
391.236,21.90081,-1.79258,1.77875,0.87947
394.436,21.99983,-1.84639,1.4768,0.8779
397.636,22.0988,-1.88104,1.24129,0.87633
400.836,22.1977,-1.91039,1.0987,0.87475
404.036,22.29691,-1.93154,1.03808,0.87318
407.236,22.39631,-1.95607,1.02791,0.8716
410.436,22.49598,-1.98219,1.04297,0.87002
413.636,22.5956,-2.01017,1.06679,0.86844
416.836,22.69548,-2.04094,1.09104,0.86685
420.036,22.79544,-2.07595,1.10136,0.86526
423.236,22.8954,-2.1123,1.0893,0.86367
426.436,22.9954,-2.15099,1.05077,0.86207
429.636,23.09565,-2.18843,0.98119,0.86047
432.836,23.19595,-2.22434,0.87161,0.85887
436.036,23.2963,-2.25529,0.7496,0.85726
439.236,23.39657,-2.27704,0.62352,0.85565
442.436,23.49703,-2.29316,0.53386,0.85403
445.636,23.59756,-2.305,0.47355,0.85241
448.836,23.6982,-2.31477,0.4344,0.85078
452.036,23.79917,-2.32369,0.413,0.84915
455.236,23.90011,-2.33029,0.39985,0.84751
458.436,24.00141,-2.33724,0.39317,0.84587
461.636,24.10248,-2.34321,0.39181,0.84422
464.836,24.20385,-2.34934,0.39584,0.84256
468.036,24.30521,-2.35515,0.39577,0.8409
471.236,24.40673,-2.35998,0.39921,0.83923
474.436,24.50829,-2.36428,0.39647,0.83755
477.636,24.60984,-2.36866,0.39554,0.83587
480.836,24.71172,-2.37324,0.39048,0.83418
484.036,24.81371,-2.37866,0.39253,0.83248
487.236,24.9157,-2.37963,0.38893,0.83077
490.436,25.01778,-2.38466,0.38478,0.82906
493.636,25.12,-2.38907,0.38191,0.82733
496.836,25.2223,-2.39168,0.37421,0.8256
500.036,25.3246,-2.39453,0.36912,0.82387
503.236,25.42709,-2.39724,0.36611,0.82212
506.436,25.52967,-2.39991,0.3612,0.82036
509.636,25.63237,-2.40261,0.35484,0.8186
512.836,25.73505,-2.40551,0.35128,0.81682
516.036,25.83786,-2.40795,0.34954,0.81504
519.236,25.94075,-2.40971,0.34607,0.81325
522.436,26.04359,-2.41189,0.34205,0.81145
525.636,26.14667,-2.41545,0.33667,0.80963
528.836,26.24977,-2.4177,0.33586,0.80781
532.036,26.353,-2.41769,0.33306,0.80598
535.236,26.45627,-2.4199,0.32585,0.80414
538.436,26.55961,-2.42296,0.32134,0.80229
541.636,26.66292,-2.42545,0.32097,0.80042
544.836,26.7663,-2.42691,0.33157,0.79855
548.036,26.8696,-2.42835,0.34733,0.79667
551.236,26.9732,-2.43237,0.35574,0.79477
554.436,27.07667,-2.43228,0.35714,0.79287
557.636,27.1804,-2.43492,0.36396,0.79095
560.836,27.28425,-2.43491,0.36881,0.78902
564.036,27.38825,-2.43754,0.37017,0.78708
567.236,27.4923,-2.44023,0.37154,0.78513
570.436,27.59633,-2.4415,0.37096,0.78317
573.636,27.70066,-2.44281,0.37191,0.78119
576.836,27.8049,-2.44479,0.36701,0.7792
580.036,27.90946,-2.44541,0.35956,0.77721
583.236,28.014,-2.4472,0.35563,0.7752
586.436,28.11867,-2.44997,0.34938,0.77317
589.636,28.22332,-2.45031,0.33708,0.77114
592.836,28.32805,-2.45174,0.32554,0.76909
596.036,28.43279,-2.45302,0.31517,0.76703
599.236,28.5378,-2.45432,0.30463,0.76496
602.436,28.64283,-2.45533,0.29934,0.76288
605.636,28.7478,-2.45664,0.29024,0.76078
608.836,28.8527,-2.4573,0.28308,0.75867
612.036,28.95792,-2.45929,0.2768,0.75655
615.236,29.0632,-2.46146,0.2706,0.75441
618.436,29.1684,-2.46212,0.26683,0.75226
621.636,29.2736,-2.46281,0.25849,0.7501
624.836,29.37896,-2.46407,0.26042,0.74793
628.036,29.48425,-2.4658,0.25691,0.74574
631.236,29.5897,-2.46673,0.25606,0.74354
634.436,29.6952,-2.46853,0.26174,0.74133
637.636,29.80058,-2.46936,0.26837,0.7391
640.836,29.90585,-2.47068,0.27136,0.73686
644.036,30.01172,-2.472,0.28079,0.73461
647.236,30.1171,-2.47307,0.28555,0.73234
650.436,30.22277,-2.4753,0.29699,0.73007
653.636,30.32827,-2.47789,0.31316,0.72777
656.836,30.43368,-2.47824,0.32853,0.72547
660.036,30.53953,-2.48055,0.34666,0.72315
663.236,30.6453,-2.48195,0.36774,0.72082
666.436,30.7508,-2.4835,0.39433,0.71847
669.636,30.8568,-2.48614,0.41526,0.71611
672.836,30.9627,-2.48871,0.44228,0.71374
676.036,31.06868,-2.49108,0.4609,0.71135
679.236,31.1748,-2.49369,0.48056,0.70896
682.436,31.28081,-2.49634,0.48995,0.70654
685.636,31.38699,-2.49757,0.49829,0.70412
688.836,31.4927,-2.50093,0.49349,0.70168
692.036,31.5991,-2.50391,0.48268,0.69923
695.236,31.7051,-2.50652,0.46789,0.69676
698.436,31.81138,-2.50818,0.4591,0.69428
701.636,31.9176,-2.51097,0.47101,0.69179
704.836,32.024,-2.51507,0.47358,0.68929
708.036,32.13048,-2.51722,0.45043,0.68677
711.236,32.23681,-2.51967,0.39472,0.68424
714.436,32.34339,-2.52109,0.27521,0.6817
717.636,32.44993,-2.52377,0.19832,0.67914
720.836,32.5565,-2.52311,0.18034,0.67657
724.036,32.66336,-2.52376,0.17128,0.67399
727.236,32.77021,-2.52377,0.16209,0.67139
730.436,32.8771,-2.52439,0.15993,0.66879
733.636,32.98402,-2.52575,0.15647,0.66617
736.836,33.0911,-2.52576,0.15391,0.66353
740.036,33.19802,-2.52542,0.1547,0.66089
743.236,33.3049,-2.52706,0.15201,0.65823
746.436,33.41252,-2.52821,0.15402,0.65556
749.636,33.5199,-2.52837,0.15257,0.65288
752.836,33.62728,-2.52939,0.15051,0.65019
756.036,33.73435,-2.52983,0.14835,0.64748
759.236,33.84173,-2.53036,0.14721,0.64476
762.436,33.9492,-2.53096,0.14491,0.64203
765.636,34.0565,-2.53133,0.14716,0.63929
768.836,34.1638,-2.53167,0.15022,0.63654
772.036,34.27107,-2.53297,0.1499,0.63377
775.236,34.37854,-2.53429,0.14793,0.631
778.436,34.48578,-2.53494,0.15009,0.62821
781.636,34.59328,-2.53562,0.1491,0.62541
784.836,34.70069,-2.53562,0.14623,0.6226
788.036,34.80808,-2.53561,0.14405,0.61978
791.236,34.91543,-2.53533,0.1407,0.61695
793.736,34.9993,-2.5366,0.13964,0.61473