Folder: fsri_materials_database/01_Data/Engineered_Wood_Furniture/STA/N2/10K_min

Note: 01_Data/README.md
# Materials and Products Database
## 01_Data

Raw data generated from each apparatus are included here in plain-text format. The data is organized first by material, next by the short name of test apparatus used, and where applicable additional filtering by test settings.

### material.json

Each material directory contains a json file of the same name as the material. This file links the data stored in the repository as well as data and graphs produced by the accompanying scripts (__02_Scripts__) to the respective landing page for the material on the front-end website.

File: Engineered_Wood_Furniture_STA_N2_10KData_2284_R1.csv
##Temp./Â°C,Time/min,Mass loss(subtr.2)/mg,DSC(subtr.2)/(mW/mg),Sensit./(uV/mW)
49.776,10.01,-0.01514,0.02106476,1.0605
52.976,11.32405,-0.01573757,0.13866,1.05984
56.176,11.77619,-0.01502136,0.19082,1.05915
59.376,12.16353,-0.01808086,0.22373,1.05845
62.576,12.52694,-0.01755225,0.24519,1.05773
65.776,12.87885,-0.01876715,0.25962,1.05698
68.976,13.22422,-0.02084435,0.27802,1.05622
72.176,13.565,-0.02092235,0.29425,1.05545
75.376,13.9031,-0.02240906,0.30601,1.05465
78.576,14.23596,-0.02719976,0.31878,1.05383
81.776,14.56642,-0.027212,0.32609,1.053
84.976,14.8934,-0.03098697,0.33114,1.05214
88.176,15.21732,-0.03114992,0.33155,1.05127
91.376,15.5392,-0.0337941,0.33251,1.05038
94.576,15.8587,-0.0351,0.32775,1.04947
97.776,16.17667,-0.03510006,0.32387,1.04855
100.976,16.49229,-0.03681611,0.31836,1.0476
104.176,16.8074,-0.03839,0.32679,1.04664
107.376,17.12187,-0.0384,0.33195,1.04566
110.576,17.4354,-0.04101739,0.33182,1.04466
113.776,17.74783,-0.04102,0.32413,1.04364
116.976,18.0607,-0.04233671,0.3201,1.04261
120.176,18.3725,-0.04367503,0.31548,1.04156
123.376,18.68457,-0.04364626,0.31596,1.04049
126.576,18.99602,-0.0446414,0.31899,1.0394
129.776,19.30633,-0.04366186,0.32184,1.0383
132.976,19.61823,-0.04497996,0.32289,1.03718
136.176,19.92836,-0.04629,0.32597,1.03604
139.376,20.23731,-0.04629026,0.3307,1.03488
142.576,20.54692,-0.04662,0.33222,1.03371
145.776,20.85538,-0.04758738,0.34008,1.03252
148.976,21.16244,-0.04766271,0.34385,1.03132
152.176,21.47017,-0.04926005,0.35213,1.03009
155.376,21.7774,-0.04825155,0.35783,1.02885
158.576,22.08502,-0.05030748,0.36691,1.0276
161.776,22.39197,-0.05124516,0.37586,1.02633
164.976,22.69843,-0.05253998,0.38704,1.02504
168.176,23.00507,-0.05485,0.40387,1.02373
171.376,23.31261,-0.05679583,0.41676,1.02241
174.576,23.61919,-0.05945039,0.43314,1.02108
177.776,23.92557,-0.06141789,0.44882,1.01972
180.976,24.23271,-0.06423982,0.46717,1.01835
184.176,24.5397,-0.06933015,0.48676,1.01697
187.376,24.84581,-0.0746021,0.50665,1.01557
190.576,25.1521,-0.07944924,0.528,1.01415
193.776,25.45786,-0.08569845,0.55145,1.01272
196.976,25.76438,-0.09241015,0.57305,1.01127
200.176,26.07023,-0.10126,0.59504,1.00981
203.376,26.3765,-0.10928,0.61403,1.00834
206.576,26.68181,-0.11979,0.63412,1.00684
209.776,26.98723,-0.12817,0.64597,1.00534
212.976,27.29249,-0.13653,0.6513,1.00381
216.176,27.59757,-0.14873,0.65472,1.00228
219.376,27.90297,-0.15877,0.65005,1.00072
222.576,28.20812,-0.1658,0.64635,0.99916
225.776,28.51274,-0.18062,0.63885,0.99757
228.976,28.81796,-0.19294,0.62951,0.99598
232.176,29.1237,-0.20512,0.61953,0.99437
235.376,29.4292,-0.2174,0.61162,0.99274
238.576,29.7349,-0.22906,0.60318,0.99111
241.776,30.0404,-0.24404,0.59004,0.98945
244.976,30.34542,-0.2563,0.5838,0.98779
248.176,30.65042,-0.27323,0.5789,0.98611
251.376,30.9548,-0.28934,0.56964,0.98441
254.576,31.2593,-0.30693,0.55625,0.9827
257.776,31.5652,-0.32728,0.54485,0.98098
260.976,31.87012,-0.35025,0.5297,0.97925
264.176,32.17532,-0.37149,0.51363,0.9775
267.376,32.48022,-0.39906,0.49612,0.97574
270.576,32.78595,-0.42549,0.48008,0.97396
273.776,33.09178,-0.45538,0.46055,0.97217
276.976,33.39744,-0.48913,0.44301,0.97037
280.176,33.70384,-0.52337,0.42504,0.96856
283.376,34.00974,-0.56179,0.40657,0.96673
286.576,34.3155,-0.60254,0.39249,0.96489
289.776,34.62105,-0.64632,0.37594,0.96304
292.976,34.92742,-0.69152,0.36017,0.96117
296.176,35.23284,-0.73796,0.34552,0.9593
299.376,35.5407,-0.78841,0.33745,0.95741
302.576,35.84708,-0.84108,0.33453,0.95551
305.776,36.15398,-0.89732,0.33634,0.95359
308.976,36.46087,-0.95202,0.3382,0.95167
312.176,36.76801,-1.00724,0.34379,0.94973
315.376,37.07543,-1.06673,0.35374,0.94778
318.576,37.3833,-1.12893,0.36149,0.94582
321.776,37.69148,-1.19332,0.37182,0.94385
324.976,37.9997,-1.26143,0.3865,0.94186
328.176,38.30689,-1.33387,0.40101,0.93987
331.376,38.61446,-1.41005,0.41407,0.93786
334.576,38.92317,-1.48969,0.42887,0.93584
337.776,39.23355,-1.57474,0.44717,0.93381
340.976,39.54274,-1.66833,0.45677,0.93177
344.176,39.85222,-1.76225,0.47092,0.92972
347.376,40.16202,-1.86388,0.47591,0.92766
350.576,40.4711,-1.96919,0.47426,0.92559
353.776,40.78105,-2.07234,0.46425,0.9235
356.976,41.09048,-2.17427,0.44051,0.92141
360.176,41.39935,-2.26505,0.4036,0.9193
363.376,41.70881,-2.34063,0.35784,0.91719
366.576,42.01847,-2.39849,0.31322,0.91506
369.776,42.32959,-2.43654,0.28075,0.91293
372.976,42.63955,-2.46232,0.26159,0.91078
376.176,42.94964,-2.48143,0.24896,0.90863
379.376,43.26056,-2.49689,0.24251,0.90646
382.576,43.57091,-2.50676,0.23646,0.90429
385.776,43.88171,-2.52111,0.23158,0.90211
388.976,44.19225,-2.53317,0.22767,0.89991
392.176,44.50346,-2.54442,0.2229,0.89771
395.376,44.81499,-2.5544,0.22006,0.8955
398.576,45.1272,-2.56697,0.21809,0.89327
401.776,45.43942,-2.57681,0.21444,0.89104
404.976,45.75217,-2.58827,0.21628,0.8888
408.176,46.064,-2.59741,0.21838,0.88655
411.376,46.3757,-2.60593,0.22168,0.8843
414.576,46.6873,-2.61613,0.22036,0.88203
417.776,46.99886,-2.62657,0.22389,0.87975
420.976,47.31071,-2.63526,0.23017,0.87747
424.176,47.62267,-2.64594,0.23108,0.87518
427.376,47.93541,-2.65339,0.23775,0.87288
430.576,48.2487,-2.66277,0.24578,0.87057
433.776,48.56214,-2.67056,0.24939,0.86825
436.976,48.8763,-2.67777,0.254,0.86592
440.176,49.19036,-2.68403,0.25668,0.86359
443.376,49.50396,-2.69446,0.26416,0.86125
446.576,49.8174,-2.70174,0.26964,0.8589
449.776,50.131,-2.70851,0.27396,0.85654
452.976,50.44542,-2.71387,0.27874,0.85418
456.176,50.75999,-2.72175,0.28115,0.85181
459.376,51.0745,-2.72836,0.28872,0.84943
462.576,51.3902,-2.73383,0.29411,0.84704
465.776,51.7057,-2.74046,0.2967,0.84465
468.976,52.02337,-2.74568,0.30036,0.84225
472.176,52.3401,-2.75302,0.30275,0.83984
475.376,52.6569,-2.75699,0.30565,0.83742
478.576,52.973,-2.76355,0.30794,0.835
481.776,53.2883,-2.7662,0.31057,0.83257
484.976,53.6036,-2.77294,0.31791,0.83014
488.176,53.9171,-2.77946,0.32378,0.82769
491.376,54.2318,-2.7834,0.33096,0.82524
494.576,54.5493,-2.78867,0.33634,0.82279
497.776,54.8665,-2.79226,0.33903,0.82033
500.976,55.1852,-2.79688,0.34681,0.81786
504.176,55.5028,-2.80218,0.35038,0.81539
507.376,55.8217,-2.80706,0.35391,0.81291
510.576,56.14133,-2.81004,0.36005,0.81042
513.776,56.45997,-2.814,0.36507,0.80793
516.976,56.7773,-2.8179,0.36434,0.80543
520.176,57.09483,-2.8219,0.35236,0.80293
523.376,57.41231,-2.82627,0.34745,0.80042
526.576,57.73007,-2.83012,0.3445,0.79791
529.776,58.0483,-2.83407,0.34013,0.79539
532.976,58.36685,-2.83661,0.34131,0.79286
536.176,58.6856,-2.83963,0.34018,0.79033
539.376,59.00399,-2.84328,0.33844,0.7878
542.576,59.32266,-2.846,0.33747,0.78526
545.776,59.6411,-2.84986,0.34023,0.78271
548.976,59.95975,-2.85382,0.34005,0.78016
552.176,60.27865,-2.85512,0.33883,0.77761
555.376,60.5986,-2.85645,0.34018,0.77505
558.576,60.91862,-2.86303,0.34411,0.77248
561.776,61.23901,-2.86456,0.34156,0.76992
564.976,61.5594,-2.8672,0.34187,0.76734
568.176,61.87896,-2.86983,0.34396,0.76477
571.376,62.1982,-2.87336,0.34621,0.76218
574.576,62.517,-2.87367,0.34672,0.7596
577.776,62.83614,-2.87796,0.34533,0.75701
580.976,63.15591,-2.87903,0.34565,0.75442
584.176,63.4758,-2.87986,0.34407,0.75182
587.376,63.7956,-2.88516,0.34563,0.74922
590.576,64.11586,-2.88738,0.34725,0.74661
593.776,64.4354,-2.88869,0.34546,0.744
596.976,64.75702,-2.89132,0.34721,0.74139
600.176,65.07755,-2.89559,0.34747,0.73877
603.376,65.3981,-2.89658,0.35032,0.73616
606.576,65.71911,-2.89922,0.3531,0.73353
609.776,66.04081,-2.90122,0.35083,0.73091
612.976,66.3622,-2.90383,0.35581,0.72828
616.176,66.68342,-2.90515,0.36145,0.72565
619.376,67.00491,-2.90911,0.36733,0.72301
622.576,67.32605,-2.90909,0.37331,0.72038
625.776,67.648,-2.91042,0.3754,0.71774
628.976,67.96904,-2.91303,0.37462,0.71509
632.176,68.29127,-2.91535,0.37639,0.71245
635.376,68.613,-2.91773,0.37921,0.7098
638.576,68.9345,-2.92127,0.37269,0.70715
641.776,69.25654,-2.92391,0.37068,0.7045
644.976,69.57814,-2.92621,0.36725,0.70184
648.176,69.8994,-2.92656,0.36553,0.69918
651.376,70.22193,-2.92909,0.36674,0.69652
654.576,70.5441,-2.93316,0.3656,0.69386
657.776,70.86567,-2.93312,0.35842,0.6912
660.976,71.18738,-2.93575,0.34826,0.68853
664.176,71.509,-2.93575,0.34965,0.68587
667.376,71.8306,-2.93806,0.34904,0.6832
670.576,72.15345,-2.94013,0.34999,0.68053
673.776,72.4761,-2.94233,0.35151,0.67786
676.976,72.7993,-2.94234,0.35219,0.67518
680.176,73.12217,-2.94397,0.35178,0.67251
683.376,73.44545,-2.9466,0.3533,0.66983
686.576,73.76899,-2.94628,0.36163,0.66716
689.776,74.0924,-2.94765,0.36364,0.66448
692.976,74.41617,-2.94964,0.36645,0.6618
696.176,74.73962,-2.94957,0.37121,0.65912
699.376,75.06339,-2.95203,0.37799,0.65644
702.576,75.38661,-2.95389,0.3805,0.65376
705.776,75.71105,-2.95385,0.37933,0.65108
708.976,76.03474,-2.95616,0.38369,0.64839
712.176,76.35848,-2.95648,0.38668,0.64571
715.376,76.68179,-2.95787,0.39316,0.64302
718.576,77.00505,-2.95779,0.39534,0.64034
721.776,77.32814,-2.96094,0.4005,0.63766
724.976,77.65119,-2.96305,0.40076,0.63497
728.176,77.97529,-2.96109,0.40763,0.63229
731.376,78.2993,-2.96372,0.40675,0.6296
734.576,78.62261,-2.96502,0.41266,0.62692
737.776,78.9457,-2.96437,0.41278,0.62423
740.976,79.26873,-2.96602,0.41297,0.62155
744.176,79.5925,-2.96865,0.41901,0.61886
747.376,79.91598,-2.9697,0.41873,0.61618
750.576,80.2405,-2.97063,0.42677,0.61349
753.776,80.5656,-2.96997,0.42395,0.61081
756.976,80.89056,-2.97261,0.42505,0.60813
760.176,81.21512,-2.97392,0.41994,0.60544
763.376,81.5394,-2.97521,0.42321,0.60276
766.576,81.86358,-2.97523,0.42452,0.60008
769.776,82.1883,-2.97656,0.42753,0.5974
772.976,82.51236,-2.97721,0.43158,0.59472
776.176,82.83582,-2.97886,0.43159,0.59205
779.376,83.15916,-2.97886,0.43591,0.58937
782.576,83.48348,-2.97919,0.44259,0.58669
785.776,83.8082,-2.98181,0.44954,0.58402
788.976,84.13327,-2.98056,0.45277,0.58134
792.176,84.45841,-2.98314,0.45445,0.57867
795.376,84.78331,-2.98412,0.46188,0.576
797.476,84.99669,-2.98544,0.46449,0.57425

File: Engineered_Wood_Furniture_STA_N2_10KData_2284_R2.csv
##Temp./Â°C,Time/min,Mass loss(subtr.2)/mg,DSC(subtr.2)/(mW/mg),Sensit./(uV/mW)
49.739,10.01,-0.0273,0.012866,1.06051
52.939,11.32312,-0.02836371,0.13693,1.05985
56.139,11.77397,-0.03021844,0.20044,1.05916
59.339,12.16027,-0.03026739,0.23316,1.05846
62.539,12.52249,-0.03026764,0.2562,1.05773
65.739,12.87369,-0.03177414,0.27632,1.05699
68.939,13.2188,-0.03432316,0.29126,1.05623
72.139,13.5591,-0.03575203,0.30352,1.05545
75.339,13.89594,-0.03704559,0.31354,1.05466
78.539,14.23029,-0.0377175,0.32698,1.05384
81.739,14.55975,-0.0397022,0.33819,1.05301
84.939,14.8868,-0.04233034,0.33879,1.05215
88.139,15.21103,-0.04463011,0.34185,1.05128
91.339,15.532,-0.04496001,0.33927,1.05039
94.539,15.8513,-0.04626999,0.33776,1.04948
97.739,16.16795,-0.04891001,0.33368,1.04856
100.939,16.484,-0.05012446,0.34352,1.04761
104.139,16.799,-0.05143881,0.34707,1.04665
107.339,17.11373,-0.05201814,0.34559,1.04567
110.539,17.42744,-0.05472186,0.3398,1.04467
113.739,17.73987,-0.05604971,0.34048,1.04365
116.939,18.05226,-0.05603904,0.33567,1.04262
120.139,18.3636,-0.05713034,0.33848,1.04157
123.339,18.6754,-0.05538086,0.33932,1.0405
126.539,18.98682,-0.05768322,0.34008,1.03941
129.739,19.29699,-0.05866984,0.3403,1.03831
132.939,19.60716,-0.05868196,0.34228,1.03719
136.139,19.9166,-0.05999017,0.3497,1.03605
139.339,20.2264,-0.06064185,0.35366,1.0349
142.539,20.53506,-0.06199381,0.35684,1.03373
145.739,20.84362,-0.06363054,0.36076,1.03254
148.939,21.15237,-0.06464543,0.36667,1.03133
152.139,21.4599,-0.06328996,0.372,1.03011
155.339,21.7675,-0.06525,0.38236,1.02887
158.539,22.07463,-0.06785529,0.39339,1.02761
161.739,22.38171,-0.06984982,0.40304,1.02634
164.939,22.68835,-0.06854309,0.41379,1.02505
168.139,22.99468,-0.07076372,0.42815,1.02375
171.339,23.30157,-0.07458776,0.44165,1.02243
174.539,23.60801,-0.07611,0.46071,1.02109
177.739,23.91385,-0.07896008,0.48289,1.01974
180.939,24.2208,-0.08236023,0.50309,1.01837
184.139,24.5268,-0.09051714,0.52388,1.01699
187.339,24.83245,-0.09334596,0.54441,1.01559
190.539,25.1392,-0.09992036,0.5651,1.01417
193.739,25.4452,-0.10757,0.58792,1.01274
196.939,25.75011,-0.11439,0.6121,1.01129
200.139,26.05655,-0.12103,0.63624,1.00983
203.339,26.3624,-0.13315,0.65436,1.00835
206.539,26.66814,-0.1401,0.67115,1.00686
209.739,26.9731,-0.15169,0.68328,1.00535
212.939,27.2783,-0.16373,0.69257,1.00383
216.139,27.5839,-0.17373,0.69292,1.00229
219.339,27.8887,-0.18364,0.6909,1.00074
222.539,28.19412,-0.19456,0.68349,0.99917
225.739,28.49878,-0.20696,0.6759,0.99759
228.939,28.80398,-0.22016,0.66617,0.996
232.139,29.1088,-0.23519,0.65637,0.99439
235.339,29.4139,-0.24682,0.64638,0.99276
238.539,29.71837,-0.2606,0.63488,0.99112
241.739,30.0236,-0.27499,0.62506,0.98947
244.939,30.32791,-0.29049,0.61261,0.98781
248.139,30.6331,-0.30667,0.60377,0.98613
251.339,30.93753,-0.32587,0.59272,0.98443
254.539,31.24222,-0.34468,0.57663,0.98272
257.739,31.54709,-0.3634,0.56537,0.981
260.939,31.8508,-0.38513,0.54915,0.97927
264.139,32.15579,-0.41085,0.5313,0.97752
267.339,32.4604,-0.43713,0.51144,0.97576
270.539,32.76551,-0.46891,0.49632,0.97398
273.739,33.07152,-0.49923,0.47855,0.97219
276.939,33.3772,-0.53306,0.45926,0.97039
280.139,33.68309,-0.57154,0.44311,0.96858
283.339,33.98921,-0.61102,0.42874,0.96675
286.539,34.2952,-0.65353,0.41232,0.96491
289.739,34.60145,-0.69696,0.39414,0.96306
292.939,34.90759,-0.74644,0.3753,0.9612
296.139,35.21445,-0.79677,0.36259,0.95932
299.339,35.5221,-0.84978,0.3524,0.95743
302.539,35.82868,-0.90246,0.34571,0.95553
305.739,36.1356,-0.95892,0.34303,0.95362
308.939,36.44298,-1.01674,0.3451,0.95169
312.139,36.75049,-1.07753,0.34989,0.94975
315.339,37.058,-1.14152,0.35411,0.9478
318.539,37.36546,-1.20521,0.36826,0.94584
321.739,37.67295,-1.27512,0.37527,0.94387
324.939,37.98053,-1.34498,0.38609,0.94189
328.139,38.28841,-1.41595,0.3949,0.93989
331.339,38.59662,-1.49981,0.41324,0.93788
334.539,38.9057,-1.58513,0.42607,0.93586
337.739,39.2146,-1.67532,0.44171,0.93384
340.939,39.52435,-1.77299,0.4528,0.9318
344.139,39.83393,-1.87314,0.46484,0.92974
347.339,40.14419,-1.97828,0.47012,0.92768
350.539,40.45316,-2.08947,0.47239,0.92561
353.739,40.76338,-2.20054,0.46156,0.92353
356.939,41.07286,-2.30675,0.42724,0.92143
360.139,41.38235,-2.40577,0.37962,0.91933
363.339,41.69242,-2.49048,0.31729,0.91721
366.539,42.00249,-2.55159,0.25052,0.91509
369.739,42.3117,-2.593,0.2009,0.91295
372.939,42.62174,-2.62001,0.17382,0.91081
376.139,42.9319,-2.63642,0.15385,0.90865
379.339,43.24283,-2.65318,0.13912,0.90649
382.539,43.5542,-2.66646,0.13154,0.90431
385.739,43.86586,-2.67919,0.12746,0.90213
388.939,44.17752,-2.69108,0.11885,0.89994
392.139,44.4896,-2.70339,0.11681,0.89773
395.339,44.80167,-2.71407,0.11177,0.89552
398.539,45.11411,-2.72514,0.11019,0.8933
401.739,45.42609,-2.73511,0.10914,0.89107
404.939,45.73811,-2.74676,0.10887,0.88883
408.139,46.05024,-2.75632,0.11059,0.88658
411.339,46.3622,-2.76562,0.11217,0.88432
414.539,46.67453,-2.77571,0.114,0.88206
417.739,46.9875,-2.78727,0.11788,0.87978
420.939,47.3005,-2.79523,0.12374,0.8775
424.139,47.61403,-2.80442,0.12668,0.8752
427.339,47.92832,-2.81313,0.13321,0.8729
430.539,48.24146,-2.82197,0.1394,0.87059
433.739,48.55473,-2.83208,0.14706,0.86828
436.939,48.8688,-2.8392,0.15148,0.86595
440.139,49.1823,-2.84687,0.15859,0.86362
443.339,49.49678,-2.85452,0.1612,0.86128
446.539,49.81159,-2.86412,0.16698,0.85893
449.739,50.12678,-2.8688,0.17426,0.85657
452.939,50.44191,-2.87533,0.17276,0.85421
456.139,50.75654,-2.88068,0.17804,0.85183
459.339,51.07162,-2.88868,0.18237,0.84946
462.539,51.38617,-2.89771,0.18534,0.84707
465.739,51.70115,-2.90315,0.18166,0.84467
468.939,52.01675,-2.91115,0.18634,0.84227
472.139,52.3324,-2.9152,0.19099,0.83987
475.339,52.64799,-2.92045,0.19299,0.83745
478.539,52.96337,-2.92465,0.19717,0.83503
481.739,53.27929,-2.92771,0.20738,0.8326
484.939,53.59352,-2.93732,0.22302,0.83016
488.139,53.9098,-2.94122,0.22983,0.82772
491.339,54.22591,-2.94517,0.23875,0.82527
494.539,54.5417,-2.94972,0.24414,0.82282
497.739,54.8583,-2.95434,0.24689,0.82036
500.939,55.1745,-2.95867,0.24928,0.81789
504.139,55.49114,-2.9636,0.24656,0.81542
507.339,55.80769,-2.96955,0.24381,0.81294
510.539,56.12478,-2.97368,0.24302,0.81045
513.739,56.44271,-2.97573,0.22778,0.80796
516.939,56.7612,-2.97904,0.21905,0.80546
520.139,57.07812,-2.98422,0.21473,0.80296
523.339,57.3972,-2.98719,0.20894,0.80045
526.539,57.7176,-2.98947,0.20363,0.79794
529.739,58.03493,-2.99383,0.20269,0.79542
532.939,58.3527,-2.99738,0.19819,0.79289
536.139,58.6713,-3.0013,0.1956,0.79036
539.339,58.98969,-3.00266,0.19424,0.78783
542.539,59.30797,-3.00664,0.19447,0.78529
545.739,59.6269,-3.00988,0.19321,0.78274
548.939,59.9459,-3.01286,0.19395,0.78019
552.139,60.2646,-3.01517,0.19409,0.77764
555.339,60.5837,-3.01878,0.19109,0.77508
558.539,60.9026,-3.01976,0.18715,0.77251
561.739,61.22124,-3.02239,0.18181,0.76995
564.939,61.5399,-3.02502,0.18156,0.76737
568.139,61.859,-3.02958,0.18401,0.7648
571.339,62.17853,-3.03358,0.18176,0.76221
574.539,62.4978,-3.03489,0.18409,0.75963
577.739,62.81689,-3.03817,0.19325,0.75704
580.939,63.1356,-3.04093,0.20493,0.75445
584.139,63.4561,-3.0429,0.20016,0.75185
587.339,63.777,-3.04422,0.19934,0.74925
590.539,64.09809,-3.04554,0.19527,0.74664
593.739,64.41905,-3.04986,0.19755,0.74403
596.939,64.74054,-3.04981,0.19274,0.74142
600.139,65.0611,-3.0521,0.1951,0.73881
603.339,65.38184,-3.05377,0.19373,0.73619
606.539,65.70257,-3.05705,0.20095,0.73356
609.739,66.02277,-3.05968,0.19976,0.73094
612.939,66.34349,-3.06232,0.21152,0.72831
616.139,66.6647,-3.06362,0.21365,0.72568
619.339,66.98594,-3.06496,0.21306,0.72304
622.539,67.30741,-3.06876,0.21975,0.72041
625.739,67.62872,-3.07143,0.22261,0.71777
628.939,67.94951,-3.07176,0.22429,0.71512
632.139,68.26909,-3.07714,0.22317,0.71248
635.339,68.59087,-3.07712,0.21875,0.70983
638.539,68.9117,-3.07944,0.21625,0.70718
641.739,69.2346,-3.08335,0.22113,0.70453
644.939,69.55637,-3.08514,0.22653,0.70187
648.139,69.87793,-3.08777,0.2261,0.69921
651.339,70.19931,-3.08908,0.21663,0.69655
654.539,70.52093,-3.09171,0.21403,0.69389
657.739,70.84346,-3.09435,0.20576,0.69123
660.939,71.16589,-3.09439,0.19951,0.68857
664.139,71.48813,-3.09611,0.20272,0.6859
667.339,71.8112,-3.09841,0.20015,0.68323
670.539,72.13351,-3.10287,0.20211,0.68056
673.739,72.45576,-3.10251,0.20142,0.67789
676.939,72.77785,-3.10378,0.20168,0.67522
680.139,73.10007,-3.10378,0.20831,0.67254
683.339,73.423,-3.10641,0.20947,0.66987
686.539,73.74596,-3.1051,0.21028,0.66719
689.739,74.06867,-3.10773,0.21276,0.66451
692.939,74.39287,-3.10643,0.20959,0.66183
696.139,74.7157,-3.10894,0.21428,0.65915
699.339,75.03954,-3.11036,0.21321,0.65647
702.539,75.36304,-3.11036,0.21595,0.65379
705.739,75.68645,-3.11069,0.21511,0.65111
708.939,76.01099,-3.1133,0.21187,0.64842
712.139,76.33489,-3.11137,0.21168,0.64574
715.339,76.65811,-3.11972,0.21447,0.64306
718.539,76.9809,-3.11782,0.21058,0.64037
721.739,77.30402,-3.11914,0.20961,0.63769
724.939,77.6277,-3.11911,0.2109,0.635
728.139,77.9513,-3.12045,0.21536,0.63232
731.339,78.2758,-3.12363,0.21196,0.62963
734.539,78.6001,-3.12099,0.21732,0.62695
737.739,78.92438,-3.12326,0.2208,0.62426
740.939,79.2497,-3.12462,0.2263,0.62158
744.139,79.5758,-3.12527,0.22495,0.61889
747.339,79.90154,-3.12659,0.22525,0.61621
750.539,80.22674,-3.12687,0.22618,0.61352
753.739,80.5518,-3.12969,0.2279,0.61084
756.939,80.87569,-3.13132,0.22952,0.60816
760.139,81.19954,-3.13032,0.22609,0.60548
763.339,81.52329,-3.13032,0.23081,0.60279
766.539,81.8478,-3.1323,0.2379,0.60011
769.739,82.1729,-3.13559,0.23455,0.59743
772.939,82.49756,-3.13559,0.2405,0.59475
776.139,82.82281,-3.1356,0.24575,0.59208
779.339,83.14769,-3.13822,0.24654,0.5894
782.539,83.47261,-3.13953,0.24408,0.58672
785.739,83.79728,-3.1397,0.24085,0.58405
788.939,84.12245,-3.13877,0.23951,0.58138
792.139,84.44767,-3.1424,0.24183,0.5787
795.339,84.7727,-3.14164,0.24474,0.57603
797.539,84.99591,-3.14426,0.24888,0.5742