Folder: fsri_materials_database/01_Data/Engineered_Wood_Furniture/STA/N2/10K_min (part 2)

File: Engineered_Wood_Furniture_STA_N2_10KData_2284_R3.csv
##Temp./Â°C,Time/min,Mass loss(subtr.2)/mg,DSC(subtr.2)/(mW/mg),Sensit./(uV/mW)
49.87,10.00917,-0.05562,0.01160367,1.06048
52.97,11.30666,-0.0618136,0.11989,1.05984
56.07,11.74873,-0.06261704,0.17461,1.05918
59.17,12.12556,-0.06357418,0.20972,1.05849
62.27,12.4787,-0.06692196,0.23031,1.0578
65.37,12.82,-0.0682301,0.2482,1.05708
68.47,13.15458,-0.07103928,0.26173,1.05635
71.57,13.48678,-0.07349661,0.2746,1.05559
74.67,13.8141,-0.07435043,0.28857,1.05483
77.77,14.13745,-0.07745016,0.30069,1.05404
80.87,14.45781,-0.07738954,0.30561,1.05323
83.97,14.7748,-0.08142244,0.3115,1.05241
87.07,15.0896,-0.08138651,0.31148,1.05157
90.17,15.4016,-0.08534065,0.31252,1.05072
93.27,15.7118,-0.08698323,0.3112,1.04984
96.37,16.0194,-0.08798009,0.30829,1.04895
99.47,16.32559,-0.09061034,0.31055,1.04805
102.57,16.63182,-0.09390002,0.3166,1.04712
105.67,16.93731,-0.09524483,0.31847,1.04618
108.77,17.24253,-0.09537724,0.31364,1.04522
111.87,17.5467,-0.09542282,0.31017,1.04425
114.97,17.8499,-0.09807711,0.30617,1.04326
118.07,18.1526,-0.0993975,0.30778,1.04225
121.17,18.45479,-0.10037,0.30726,1.04123
124.27,18.75677,-0.10168,0.30792,1.04019
127.37,19.05809,-0.10431,0.30486,1.03913
130.47,19.35882,-0.10563,0.30906,1.03806
133.57,19.6582,-0.10465,0.31132,1.03697
136.67,19.95788,-0.10564,0.31522,1.03586
139.77,20.25691,-0.10662,0.3203,1.03474
142.87,20.55564,-0.10502,0.32664,1.0336
145.97,20.85502,-0.10728,0.32942,1.03245
149.07,21.15202,-0.11012,0.33493,1.03128
152.17,21.45045,-0.11024,0.34168,1.0301
155.27,21.74846,-0.11156,0.34654,1.0289
158.37,22.04738,-0.11109,0.35647,1.02768
161.47,22.3447,-0.1132,0.36562,1.02645
164.57,22.6422,-0.11714,0.37867,1.0252
167.67,22.93962,-0.11783,0.39202,1.02394
170.77,23.2365,-0.1211,0.40635,1.02266
173.87,23.53399,-0.12373,0.41989,1.02137
176.97,23.83155,-0.12751,0.43735,1.02007
180.07,24.12854,-0.12999,0.45644,1.01874
183.17,24.42511,-0.13559,0.47501,1.01741
186.27,24.72147,-0.13954,0.49624,1.01606
189.37,25.01847,-0.14539,0.51646,1.01469
192.47,25.31551,-0.15202,0.53735,1.01331
195.57,25.61231,-0.15764,0.55956,1.01191
198.67,25.90867,-0.16838,0.58223,1.0105
201.77,26.2057,-0.17767,0.60071,1.00908
204.87,26.50249,-0.18522,0.61682,1.00764
207.97,26.7988,-0.19346,0.63096,1.00619
211.07,27.0948,-0.20543,0.64462,1.00472
214.17,27.3894,-0.21621,0.64934,1.00324
217.27,27.6851,-0.22625,0.6473,1.00175
220.37,27.98028,-0.23585,0.64758,1.00024
223.47,28.27566,-0.24907,0.6379,0.99872
226.57,28.571,-0.2597,0.62917,0.99718
229.67,28.8661,-0.27236,0.61963,0.99563
232.77,29.1617,-0.28443,0.61099,0.99407
235.87,29.4562,-0.29742,0.60043,0.99249
238.97,29.75116,-0.31244,0.5901,0.9909
242.07,30.0459,-0.32679,0.57956,0.9893
245.17,30.3408,-0.34208,0.57064,0.98768
248.27,30.636,-0.35922,0.56257,0.98606
251.37,30.93165,-0.37577,0.55336,0.98441
254.47,31.22699,-0.39406,0.5392,0.98276
257.57,31.522,-0.4143,0.52038,0.98109
260.67,31.818,-0.43862,0.50468,0.97941
263.77,32.11368,-0.46103,0.49959,0.97772
266.87,32.40885,-0.48568,0.4858,0.97602
269.97,32.70487,-0.51568,0.46645,0.9743
273.07,33.00076,-0.54632,0.44906,0.97257
276.17,33.29593,-0.57849,0.43206,0.97083
279.27,33.5923,-0.61313,0.41434,0.96907
282.37,33.88876,-0.65325,0.39608,0.96731
285.47,34.18504,-0.69374,0.37629,0.96553
288.57,34.48205,-0.73664,0.36196,0.96374
291.67,34.77945,-0.78276,0.34259,0.96194
294.77,35.07648,-0.83322,0.3281,0.96012
297.87,35.3735,-0.88157,0.31626,0.9583
300.97,35.67053,-0.93336,0.30688,0.95646
304.07,35.96676,-0.9864,0.30317,0.95461
307.17,36.26401,-1.04322,0.30391,0.95276
310.27,36.56071,-1.09955,0.30677,0.95089
313.37,36.8583,-1.15973,0.31226,0.949
316.47,37.15612,-1.22068,0.31911,0.94711
319.57,37.4549,-1.28501,0.32706,0.94521
322.67,37.75332,-1.3526,0.33579,0.94329
325.77,38.0518,-1.42324,0.34482,0.94137
328.87,38.35049,-1.49786,0.36253,0.93943
331.97,38.6493,-1.57712,0.373,0.93749
335.07,38.94832,-1.65964,0.3889,0.93553
338.17,39.24779,-1.74895,0.40231,0.93356
341.27,39.54736,-1.84548,0.41613,0.93158
344.37,39.84724,-1.94586,0.42449,0.9296
347.47,40.1477,-2.05272,0.43147,0.9276
350.57,40.4467,-2.15242,0.42419,0.92559
353.67,40.74774,-2.26814,0.41458,0.92357
356.77,41.0483,-2.37385,0.38668,0.92154
359.87,41.3476,-2.46571,0.34131,0.91951
362.97,41.64691,-2.55093,0.28256,0.91746
366.07,41.94643,-2.61295,0.22212,0.9154
369.17,42.247,-2.65675,0.168,0.91333
372.27,42.5465,-2.68626,0.13979,0.91126
375.37,42.84738,-2.70464,0.11865,0.90917
378.47,43.1486,-2.71605,0.10599,0.90708
381.57,43.44962,-2.73458,0.1002,0.90497
384.67,43.7512,-2.7475,0.08945565,0.90286
387.77,44.05283,-2.76012,0.08464873,0.90074
390.87,44.3541,-2.77066,0.08014209,0.89861
393.97,44.6567,-2.782,0.07445529,0.89647
397.07,44.95811,-2.79046,0.07380462,0.89432
400.17,45.26021,-2.80426,0.07177663,0.89216
403.27,45.56279,-2.8117,0.07010322,0.89
406.37,45.86515,-2.82427,0.06972835,0.88782
409.47,46.1678,-2.83321,0.06929677,0.88564
412.57,46.46946,-2.84504,0.07222509,0.88345
415.67,46.77382,-2.85215,0.07612614,0.88125
418.77,47.07683,-2.86309,0.08272489,0.87905
421.87,47.38012,-2.87389,0.08532684,0.87683
424.97,47.68428,-2.87819,0.09158397,0.87461
428.07,47.98755,-2.8909,0.09666584,0.87238
431.17,48.29187,-2.90107,0.10012,0.87014
434.27,48.59599,-2.90614,0.10549,0.86789
437.37,48.89911,-2.91273,0.11219,0.86564
440.47,49.20292,-2.92248,0.11788,0.86338
443.57,49.5068,-2.93022,0.12232,0.86111
446.67,49.81127,-2.93803,0.12504,0.85883
449.77,50.1162,-2.94616,0.13179,0.85655
452.87,50.4221,-2.95308,0.13368,0.85426
455.97,50.7269,-2.95977,0.13727,0.85196
459.07,51.03247,-2.96651,0.14098,0.84966
462.17,51.33697,-2.97031,0.14369,0.84734
465.27,51.64168,-2.97557,0.14735,0.84503
468.37,51.94569,-2.98592,0.14934,0.8427
471.47,52.25098,-2.99234,0.15357,0.84037
474.57,52.55641,-2.99754,0.15578,0.83803
477.67,52.8619,-3.00164,0.15739,0.83569
480.77,53.16795,-3.00804,0.1653,0.83334
483.87,53.47456,-3.01219,0.1753,0.83098
486.97,53.7812,-3.01761,0.18695,0.82861
490.07,54.08803,-3.02054,0.19209,0.82624
493.17,54.3948,-3.02458,0.19834,0.82387
496.27,54.7009,-3.02984,0.20195,0.82149
499.37,55.0079,-3.03757,0.20292,0.8191
502.47,55.31389,-3.04159,0.20294,0.81671
505.57,55.62095,-3.04424,0.20375,0.81431
508.67,55.9262,-3.04962,0.20307,0.8119
511.77,56.23486,-3.05357,0.20664,0.80949
514.87,56.5421,-3.0562,0.19691,0.80708
517.97,56.84935,-3.05785,0.19078,0.80466
521.07,57.1562,-3.06323,0.18607,0.80223
524.17,57.46516,-3.06811,0.1853,0.7998
527.27,57.77405,-3.06634,0.1857,0.79736
530.37,58.08225,-3.07191,0.18253,0.79492
533.47,58.3909,-3.07584,0.18303,0.79247
536.57,58.69985,-3.08098,0.18173,0.79002
539.67,59.0086,-3.08131,0.17711,0.78756
542.77,59.3172,-3.08449,0.18076,0.7851
545.87,59.62602,-3.08975,0.17726,0.78264
548.97,59.93495,-3.09107,0.17482,0.78017
552.07,60.24426,-3.09677,0.17711,0.77769
555.17,60.553,-3.10018,0.17848,0.77521
558.27,60.8619,-3.10122,0.17881,0.77273
561.37,61.1714,-3.10324,0.18133,0.77024
564.47,61.4806,-3.10719,0.18389,0.76775
567.57,61.79015,-3.10888,0.18483,0.76525
570.67,62.09956,-3.11049,0.20121,0.76275
573.77,62.40964,-3.11312,0.19895,0.76025
576.87,62.7196,-3.11839,0.19719,0.75774
579.97,63.0301,-3.11641,0.19821,0.75523
583.07,63.34,-3.12225,0.1983,0.75272
586.17,63.64991,-3.12299,0.19743,0.7502
589.27,63.96056,-3.12846,0.20082,0.74767
592.37,64.27095,-3.1287,0.19744,0.74515
595.47,64.58168,-3.1302,0.19897,0.74262
598.57,64.89256,-3.13295,0.20008,0.74009
601.67,65.20305,-3.13604,0.20173,0.73755
604.77,65.5141,-3.13867,0.20817,0.73501
607.87,65.82504,-3.13618,0.21204,0.73247
610.97,66.13566,-3.13999,0.21653,0.72993
614.07,66.4466,-3.14275,0.21883,0.72738
617.17,66.75699,-3.14394,0.225,0.72483
620.27,67.0679,-3.1467,0.23152,0.72228
623.37,67.37884,-3.14865,0.23677,0.71972
626.47,67.68985,-3.15069,0.24206,0.71716
629.57,68.00073,-3.15371,0.24744,0.7146
632.67,68.3124,-3.15552,0.24636,0.71204
635.77,68.62398,-3.15926,0.25114,0.70947
638.87,68.9358,-3.16116,0.25261,0.7069
641.97,69.24804,-3.16278,0.25933,0.70433
645.07,69.5603,-3.16379,0.26441,0.70176
648.17,69.87223,-3.16785,0.26399,0.69919
651.27,70.1836,-3.16917,0.25839,0.69661
654.37,70.4945,-3.17156,0.2571,0.69403
657.47,70.80604,-3.17443,0.24431,0.69145
660.57,71.11792,-3.17673,0.23726,0.68887
663.67,71.43021,-3.17707,0.23048,0.68629
666.77,71.74255,-3.17867,0.23086,0.6837
669.87,72.05515,-3.18147,0.23194,0.68112
672.97,72.36715,-3.18017,0.2362,0.67853
676.07,72.6794,-3.18343,0.23812,0.67594
679.17,72.99181,-3.18408,0.23868,0.67335
682.27,73.3043,-3.18507,0.24161,0.67076
685.37,73.6165,-3.18573,0.24543,0.66817
688.47,73.92934,-3.18771,0.25458,0.66557
691.57,74.24165,-3.18639,0.25394,0.66298
694.67,74.55371,-3.18905,0.25386,0.66038
697.77,74.8681,-3.19033,0.25903,0.65778
700.87,75.1817,-3.19297,0.25951,0.65519
703.97,75.49502,-3.19165,0.2597,0.65259
707.07,75.8081,-3.19297,0.26223,0.64999
710.17,76.12142,-3.19494,0.26348,0.64739
713.27,76.4345,-3.19297,0.26196,0.64479
716.37,76.74835,-3.19626,0.26585,0.64219
719.47,77.06227,-3.19857,0.26598,0.63959
722.57,77.37598,-3.19977,0.26972,0.63699
725.67,77.68977,-3.19977,0.27017,0.63439
728.77,78.00312,-3.20113,0.27507,0.63179
731.87,78.31676,-3.20273,0.27638,0.62919
734.97,78.6306,-3.20273,0.27361,0.62659
738.07,78.9443,-3.20413,0.27464,0.62398
741.17,79.25928,-3.20635,0.27454,0.62138
744.27,79.57405,-3.20667,0.27811,0.61878
747.37,79.8883,-3.208,0.28189,0.61618
750.47,80.20325,-3.20898,0.28471,0.61358
753.57,80.5181,-3.20828,0.28243,0.61098
756.67,80.8322,-3.2103,0.28807,0.60838
759.77,81.1465,-3.21234,0.29109,0.60578
762.87,81.4599,-3.21195,0.28855,0.60319
765.97,81.77335,-3.21457,0.29056,0.60059
769.07,82.08763,-3.21721,0.29488,0.59799
772.17,82.40202,-3.21721,0.29755,0.5954
775.27,82.7169,-3.21721,0.30253,0.5928
778.37,83.0317,-3.21853,0.30238,0.59021
781.47,83.34554,-3.21983,0.30598,0.58762
784.57,83.6607,-3.22105,0.31456,0.58503
787.67,83.97585,-3.22247,0.31387,0.58244
790.77,84.29136,-3.22248,0.31448,0.57985
793.87,84.60644,-3.22247,0.3211,0.57726
796.97,84.92148,-3.2252,0.31892,0.57467
797.67,84.9924,-3.22474,0.31999,0.57409