Folder: fsri_materials_database/01_Data/Engineered_Wood_Furniture/STA/N2/30K_min

Note: 01_Data/README.md
# Materials and Products Database
## 01_Data

Raw data generated from each apparatus are included here in plain-text format. The data is organized first by material, next by the short name of test apparatus used, and where applicable additional filtering by test settings.

### material.json

Each material directory contains a json file of the same name as the material. This file links the data stored in the repository as well as data and graphs produced by the accompanying scripts (__02_Scripts__) to the respective landing page for the material on the front-end website.

File: Engineered_Wood_Furniture_STA_N2_30KData_22114_R1.csv
##Temp./Â°C,Time/min,Mass loss(subtr.2)/mg,DSC(subtr.2)/(mW/mg),Sensit./(uV/mW)
48.535,10.01,0.01645,0.006308327,1.07504
51.735,10.8843,0.01962964,0.15886,1.07363
54.935,11.11771,0.01945377,0.26663,1.0722
58.135,11.29797,0.01982827,0.35092,1.07077
61.335,11.45289,0.02084797,0.41973,1.06932
64.535,11.59348,0.02066844,0.47882,1.06786
67.735,11.72578,0.01998159,0.52964,1.06639
70.935,11.85185,0.01945301,0.57464,1.06491
74.135,11.97367,0.01885438,0.61533,1.06342
77.335,12.09252,0.01940247,0.65419,1.06191
80.535,12.20889,0.01833345,0.69034,1.0604
83.735,12.32306,0.01679027,0.72358,1.05888
86.935,12.43561,0.01545134,0.75715,1.05734
90.135,12.54665,0.01529491,0.78865,1.0558
93.335,12.65672,0.01527386,0.81554,1.05424
96.535,12.76603,0.01522969,0.83905,1.05267
99.735,12.87421,0.01250188,0.85578,1.0511
102.935,12.98231,0.01011336,0.86678,1.04951
106.135,13.09,0.0102,0.87043,1.04791
109.335,13.19699,0.00875159,0.87322,1.04631
112.535,13.3047,0.007569125,0.86997,1.04469
115.735,13.4117,0.006250052,0.86684,1.04307
118.935,13.5182,0.006252784,0.87914,1.04143
122.135,13.62432,0.00493998,0.8838,1.03979
125.335,13.7301,0.004939978,0.8837,1.03814
128.535,13.83511,0.003619967,0.87792,1.03647
131.735,13.9397,0.003619829,0.87286,1.0348
134.935,14.0436,0.00230007,0.86932,1.03312
138.135,14.1471,0.002300461,0.86328,1.03143
141.335,14.2501,0.0009899986,0.86311,1.02973
144.535,14.3527,0.00133392,0.86427,1.02802
147.735,14.4547,0.001650435,0.87197,1.02631
150.935,14.5563,0.000330098,0.87738,1.02458
154.135,14.6578,0.00033,0.88625,1.02285
157.335,14.7589,0.0003292491,0.89997,1.02111
160.535,14.8597,-0.0006537524,0.91496,1.01936
163.735,14.96031,-0.0009814736,0.93325,1.0176
166.935,15.0606,-0.001970931,0.94867,1.01584
170.135,15.16058,-0.002299999,0.97169,1.01406
173.335,15.26043,-0.00266873,0.99874,1.01228
176.535,15.36001,-0.004929996,1.02609,1.01049
179.735,15.45907,-0.004930109,1.06025,1.00869
182.935,15.55807,-0.00755296,1.09651,1.00689
186.135,15.65664,-0.007620445,1.13605,1.00507
189.335,15.7549,-0.009776627,1.17954,1.00325
192.535,15.85316,-0.01431261,1.22648,1.00143
195.735,15.9512,-0.01709165,1.27867,0.99959
198.935,16.04903,-0.02126889,1.33048,0.99775
202.135,16.14663,-0.02476663,1.38613,0.9959
205.335,16.2442,-0.03097768,1.44567,0.99404
208.535,16.34197,-0.03918975,1.50659,0.99218
211.735,16.43946,-0.04646,1.57436,0.99031
214.935,16.53709,-0.05279044,1.63909,0.98843
218.135,16.63436,-0.06108714,1.70198,0.98655
221.335,16.73149,-0.07046085,1.75822,0.98466
224.535,16.82873,-0.0739027,1.80335,0.98276
227.735,16.92592,-0.09050828,1.83669,0.98086
230.935,17.02313,-0.10082,1.85613,0.97895
234.135,17.12002,-0.10869,1.85868,0.97703
237.335,17.21699,-0.1198,1.84521,0.97511
240.535,17.31393,-0.13141,1.8222,0.97318
243.735,17.41079,-0.14114,1.79526,0.97124
246.935,17.50745,-0.15198,1.76699,0.9693
250.135,17.60378,-0.16431,1.73037,0.96735
253.335,17.7003,-0.17511,1.69738,0.9654
256.535,17.79682,-0.18946,1.66496,0.96344
259.735,17.89347,-0.20348,1.63257,0.96147
262.935,17.9897,-0.21713,1.60335,0.9595
266.135,18.0865,-0.23218,1.56864,0.95752
269.335,18.18301,-0.24828,1.53183,0.95554
272.535,18.27935,-0.26765,1.48931,0.95355
275.735,18.37588,-0.28708,1.44348,0.95156
278.935,18.47239,-0.30749,1.39268,0.94956
282.135,18.569,-0.32884,1.34032,0.94755
285.335,18.6657,-0.35394,1.28133,0.94554
288.535,18.76237,-0.38141,1.2168,0.94352
291.735,18.85889,-0.4111,1.15119,0.9415
294.935,18.95523,-0.44459,1.07908,0.93948
298.135,19.05206,-0.47823,1.00508,0.93744
301.335,19.14873,-0.51484,0.93002,0.93541
304.535,19.24532,-0.55418,0.85681,0.93337
307.735,19.34217,-0.5951,0.78336,0.93132
310.935,19.43879,-0.63976,0.71637,0.92927
314.135,19.5356,-0.68645,0.65484,0.92721
317.335,19.63239,-0.73446,0.60492,0.92515
320.535,19.72918,-0.78651,0.56454,0.92308
323.735,19.82616,-0.83863,0.53536,0.92101
326.935,19.9233,-0.89465,0.51894,0.91894
330.135,20.02054,-0.94889,0.51677,0.91686
333.335,20.11796,-1.00817,0.5228,0.91477
336.535,20.21501,-1.06628,0.53559,0.91268
339.735,20.3129,-1.1293,0.55345,0.91059
342.935,20.41059,-1.19368,0.57281,0.90849
346.135,20.50839,-1.2612,0.59189,0.90639
349.335,20.60622,-1.33391,0.61701,0.90428
352.535,20.70434,-1.40868,0.64152,0.90217
355.735,20.80236,-1.49163,0.67097,0.90005
358.935,20.90031,-1.57426,0.69304,0.89793
362.135,20.9987,-1.66676,0.71667,0.89581
365.335,21.09714,-1.75975,0.73148,0.89368
368.535,21.19562,-1.86243,0.7378,0.89155
371.735,21.29416,-1.96326,0.7271,0.88941
374.935,21.39286,-2.06841,0.70016,0.88727
378.135,21.49156,-2.17151,0.64895,0.88513
381.335,21.5903,-2.26955,0.56447,0.88298
384.535,21.68909,-2.35709,0.46062,0.88083
387.735,21.78799,-2.42859,0.34891,0.87867
390.935,21.88695,-2.48212,0.25283,0.87651
394.135,21.98613,-2.51732,0.18718,0.87435
397.335,22.0853,-2.54097,0.14216,0.87218
400.535,22.18439,-2.55752,0.108,0.87001
403.735,22.284,-2.57114,0.08147301,0.86783
406.935,22.38371,-2.58454,0.05666776,0.86565
410.135,22.48345,-2.59592,0.0358902,0.86347
413.335,22.58318,-2.60923,0.01890562,0.86129
416.535,22.68311,-2.62059,0.006250394,0.8591
419.735,22.78311,-2.63051,-0.010112,0.8569
422.935,22.88312,-2.63966,-0.01547178,0.85471
426.135,22.98345,-2.65305,-0.0226153,0.85251
429.335,23.08362,-2.65955,-0.03040032,0.8503
432.535,23.1844,-2.67009,-0.02922132,0.8481
435.735,23.28493,-2.68036,-0.02613466,0.84589
438.935,23.38554,-2.68997,-0.02338631,0.84367
442.135,23.48633,-2.69941,-0.016087,0.84145
445.335,23.5872,-2.70828,-0.00520082,0.83923
448.535,23.68806,-2.71754,0.00626113,0.83701
451.735,23.7893,-2.72486,0.01877056,0.83478
454.935,23.8904,-2.73462,0.03457055,0.83255
458.135,23.99152,-2.74307,0.04521302,0.83032
461.335,24.093,-2.7505,0.06243625,0.82808
464.535,24.19426,-2.75794,0.07704955,0.82584
467.735,24.29588,-2.76647,0.0892553,0.8236
470.935,24.3975,-2.77194,0.10081,0.82135
474.135,24.49894,-2.77998,0.11426,0.81911
477.335,24.60067,-2.78727,0.12505,0.81685
480.535,24.7025,-2.79279,0.13009,0.8146
483.735,24.8045,-2.79984,0.14068,0.81234
486.935,24.90622,-2.80538,0.15197,0.81008
490.135,25.00818,-2.81301,0.15727,0.80782
493.335,25.11034,-2.81864,0.16316,0.80555
496.535,25.21247,-2.82412,0.17191,0.80328
499.735,25.31485,-2.82955,0.17317,0.80101
502.935,25.41713,-2.83512,0.1778,0.79873
506.135,25.5195,-2.84102,0.1848,0.79645
509.335,25.62252,-2.84547,0.18171,0.79417
512.535,25.7248,-2.8505,0.19101,0.79189
515.735,25.8278,-2.85486,0.19345,0.7896
518.935,25.93064,-2.8599,0.19425,0.78731
522.135,26.0336,-2.86323,0.19344,0.78502
525.335,26.13649,-2.86932,0.19463,0.78273
528.535,26.2393,-2.87269,0.19165,0.78043
531.735,26.3429,-2.87727,0.19091,0.77813
534.935,26.44623,-2.88195,0.18972,0.77583
538.135,26.5496,-2.88473,0.19505,0.77352
541.335,26.6531,-2.88904,0.19824,0.77122
544.535,26.7567,-2.89061,0.20264,0.76891
547.735,26.8602,-2.89473,0.20596,0.76659
550.935,26.9639,-2.89731,0.21014,0.76428
554.135,27.06777,-2.90122,0.21131,0.76196
557.335,27.17166,-2.90556,0.2141,0.75964
560.535,27.2757,-2.90864,0.21706,0.75732
563.735,27.38,-2.91117,0.21682,0.75499
566.935,27.4841,-2.91422,0.21243,0.75267
570.135,27.5884,-2.91649,0.21394,0.75034
573.335,27.69277,-2.91901,0.20765,0.748
576.535,27.797,-2.92278,0.20617,0.74567
579.735,27.90137,-2.92545,0.19852,0.74333
582.935,28.0055,-2.92854,0.19482,0.741
586.135,28.10991,-2.92927,0.19205,0.73865
589.335,28.21422,-2.9331,0.19017,0.73631
592.535,28.3192,-2.93726,0.185,0.73397
595.735,28.42408,-2.93926,0.18048,0.73162
598.935,28.52876,-2.94201,0.17937,0.72927
602.135,28.6335,-2.94449,0.1787,0.72692
605.335,28.73842,-2.94527,0.17775,0.72456
608.535,28.84318,-2.94735,0.17469,0.72221
611.735,28.9478,-2.95134,0.17436,0.71985
614.935,29.05272,-2.95392,0.1709,0.71749
618.135,29.158,-2.95714,0.16815,0.71513
621.335,29.26315,-2.95766,0.16858,0.71277
624.535,29.3682,-2.96025,0.16355,0.7104
627.735,29.4733,-2.96178,0.16554,0.70803
630.935,29.5786,-2.96427,0.15986,0.70566
634.135,29.68392,-2.96577,0.16191,0.70329
637.335,29.78908,-2.96912,0.16564,0.70092
640.535,29.89443,-2.97094,0.16141,0.69854
643.735,29.99982,-2.97347,0.16721,0.69617
646.935,30.10531,-2.97437,0.16865,0.69379
650.135,30.2106,-2.97691,0.17227,0.69141
653.335,30.31598,-2.9782,0.17634,0.68903
656.535,30.4213,-2.98028,0.17879,0.68664
659.735,30.52695,-2.9816,0.18611,0.68426
662.935,30.6325,-2.98421,0.18855,0.68187
666.135,30.73808,-2.98551,0.19117,0.67948
669.335,30.844,-2.98851,0.19173,0.67709
672.535,30.9497,-2.99081,0.19402,0.6747
675.735,31.0558,-2.99082,0.1963,0.67231
678.935,31.1618,-2.99406,0.19912,0.66991
682.135,31.26748,-2.99663,0.20189,0.66752
685.335,31.3736,-2.99673,0.20856,0.66512
688.535,31.47953,-2.99937,0.20003,0.66272
691.735,31.58575,-3.00201,0.19263,0.66032
694.935,31.6918,-3.00246,0.17224,0.65792
698.135,31.79795,-3.00619,0.13682,0.65552
701.335,31.90417,-3.00648,0.11355,0.65311
704.535,32.01036,-3.00891,0.08915058,0.65071
707.735,32.11683,-3.01035,0.06764998,0.6483
710.935,32.22319,-3.01115,0.0549048,0.6459
714.135,32.3297,-3.01384,0.04255386,0.64349
717.335,32.43645,-3.01387,0.03349822,0.64108
720.535,32.543,-3.01516,0.02974304,0.63867
723.735,32.64974,-3.01648,0.02226291,0.63626
726.935,32.75645,-3.01685,0.01446431,0.63384
730.135,32.86326,-3.0179,0.01359981,0.63143
733.335,32.97018,-3.01911,0.00530972,0.62902
736.535,33.07708,-3.02029,0.002716268,0.6266
739.735,33.18391,-3.02179,-0.004582377,0.62418
742.935,33.29091,-3.02179,-0.01166677,0.62177
746.135,33.398,-3.02305,-0.02404509,0.61935
749.335,33.50526,-3.023,-0.0297092,0.61693
752.535,33.6123,-3.02536,-0.02928431,0.61451
755.735,33.71945,-3.02438,-0.03429562,0.61209
758.935,33.82673,-3.0257,-0.03578476,0.60967
762.135,33.93377,-3.02701,-0.0445037,0.60725
765.335,34.0409,-3.02897,-0.05080413,0.60483
768.535,34.14823,-3.02896,-0.05599637,0.60241
771.735,34.25538,-3.0303,-0.05553912,0.59999
774.935,34.3628,-3.0303,-0.05692919,0.59756
778.135,34.47003,-3.03029,-0.06235458,0.59514
781.335,34.57727,-3.03063,-0.06821892,0.59272
784.535,34.68462,-3.03195,-0.06824601,0.5903
787.735,34.7919,-3.03326,-0.07443265,0.58787
790.935,34.89934,-3.03458,-0.06604775,0.58545
793.835,34.99667,-3.03458,-0.07320936,0.58325

File: Engineered_Wood_Furniture_STA_N2_30KData_22114_R2.csv
##Temp./Â°C,Time/min,Mass loss(subtr.2)/mg,DSC(subtr.2)/(mW/mg),Sensit./(uV/mW)
48.42,10.00917,-0.02961,0.02169874,1.07509
51.52,10.87335,-0.03116807,0.19201,1.07372
54.62,11.10412,-0.03032652,0.31394,1.07234
57.72,11.28079,-0.03070613,0.40815,1.07095
60.82,11.43245,-0.03179533,0.4888,1.06955
63.92,11.57028,-0.03324452,0.55657,1.06814
67.02,11.69945,-0.03159204,0.61369,1.06672
70.12,11.8226,-0.03469403,0.66511,1.06529
73.22,11.9413,-0.03372115,0.71101,1.06384
76.32,12.05717,-0.03300886,0.75455,1.06239
79.42,12.1701,-0.03514366,0.79497,1.06093
82.52,12.28164,-0.03647666,0.83384,1.05946
85.62,12.3911,-0.03844346,0.87249,1.05797
88.72,12.4994,-0.03927519,0.90536,1.05648
91.82,12.60635,-0.04063428,0.93623,1.05498
94.92,12.71228,-0.04093656,0.96736,1.05346
98.02,12.81767,-0.04246306,0.98855,1.05194
101.12,12.92295,-0.04517115,1.00507,1.05041
104.22,13.02725,-0.04639601,1.01819,1.04887
107.32,13.13149,-0.04768614,1.02313,1.04732
110.42,13.2356,-0.04903013,1.02631,1.04576
113.52,13.3392,-0.0503401,1.02584,1.04419
116.62,13.44239,-0.05165547,1.03425,1.04262
119.72,13.5454,-0.05297991,1.04816,1.04103
122.82,13.648,-0.05426025,1.05506,1.03944
125.92,13.75004,-0.05563284,1.05442,1.03783
129.02,13.8516,-0.05693333,1.05085,1.03622
132.12,13.95265,-0.05693,1.04892,1.0346
135.22,14.0532,-0.05692514,1.0469,1.03297
138.32,14.1533,-0.05823996,1.04561,1.03133
141.42,14.25295,-0.05884243,1.04785,1.02969
144.52,14.35237,-0.05824999,1.05335,1.02803
147.62,14.4514,-0.0592566,1.05836,1.02637
150.72,14.5499,-0.06022,1.0681,1.0247
153.82,14.64795,-0.06022044,1.08369,1.02302
156.92,14.7462,-0.06063461,1.09715,1.02134
160.02,14.84379,-0.0607296,1.11805,1.01964
163.12,14.94123,-0.06054897,1.13497,1.01794
166.22,15.03865,-0.06284929,1.15597,1.01623
169.32,15.1355,-0.06339901,1.18097,1.01451
172.42,15.2323,-0.06445761,1.20659,1.01279
175.52,15.32879,-0.06581,1.23482,1.01106
178.62,15.4251,-0.06637846,1.26676,1.00932
181.72,15.5209,-0.06844335,1.30281,1.00757
184.82,15.6167,-0.07050283,1.34173,1.00582
187.92,15.71214,-0.07380569,1.3855,1.00406
191.02,15.8072,-0.07581203,1.43131,1.00229
194.12,15.9023,-0.08055565,1.48037,1.00052
197.22,15.9971,-0.08321068,1.53251,0.99874
200.32,16.09175,-0.08772071,1.59042,0.99695
203.42,16.1863,-0.09291234,1.64796,0.99516
206.52,16.28086,-0.09823928,1.70759,0.99335
209.62,16.37544,-0.10391,1.76961,0.99155
212.72,16.4698,-0.11325,1.83568,0.98973
215.82,16.56425,-0.12095,1.89799,0.98791
218.92,16.6587,-0.12807,1.9631,0.98609
222.02,16.7529,-0.13819,2.01606,0.98425
225.12,16.84731,-0.14692,2.06028,0.98241
228.22,16.9414,-0.15706,2.09306,0.98057
231.32,17.03536,-0.16868,2.10812,0.97872
234.42,17.12944,-0.17858,2.10741,0.97686
237.52,17.22326,-0.18878,2.09698,0.97499
240.62,17.31719,-0.19831,2.07616,0.97312
243.72,17.41079,-0.20787,2.0503,0.97125
246.82,17.5046,-0.21728,2.01915,0.96937
249.92,17.59825,-0.22879,1.98838,0.96748
253.02,17.69152,-0.2409,1.95713,0.96559
256.12,17.7853,-0.25452,1.92857,0.96369
259.22,17.87889,-0.26879,1.89991,0.96179
262.32,17.97222,-0.28186,1.87256,0.95988
265.42,18.06547,-0.29518,1.84405,0.95796
268.52,18.1588,-0.31245,1.80749,0.95604
271.62,18.25212,-0.32813,1.77413,0.95412
274.72,18.34554,-0.3441,1.73433,0.95219
277.82,18.43892,-0.36709,1.69023,0.95025
280.92,18.53214,-0.3877,1.64143,0.94831
284.02,18.62562,-0.41094,1.58867,0.94637
287.12,18.71893,-0.43541,1.53058,0.94442
290.22,18.81234,-0.46258,1.47079,0.94246
293.32,18.90599,-0.49092,1.40669,0.9405
296.42,18.9995,-0.52406,1.34042,0.93853
299.52,19.0931,-0.55714,1.27054,0.93656
302.62,19.1865,-0.59416,1.20172,0.93459
305.72,19.28019,-0.63272,1.1341,0.93261
308.82,19.3735,-0.67127,1.06977,0.93062
311.92,19.4672,-0.71636,1.00989,0.92864
315.02,19.56097,-0.76158,0.95591,0.92664
318.12,19.65474,-0.80684,0.91205,0.92464
321.22,19.74833,-0.8574,0.87427,0.92264
324.32,19.84232,-0.90871,0.8496,0.92063
327.42,19.9362,-0.96042,0.83599,0.91862
330.52,20.03035,-1.01593,0.83618,0.91661
333.62,20.12444,-1.06975,0.8397,0.91459
336.72,20.21905,-1.12738,0.8509,0.91256
339.82,20.3132,-1.18731,0.86824,0.91053
342.92,20.40796,-1.24918,0.89152,0.9085
346.02,20.5025,-1.31615,0.911,0.90646
349.12,20.59732,-1.38354,0.93653,0.90442
352.22,20.6922,-1.45328,0.96252,0.90238
355.32,20.7873,-1.5333,0.99011,0.90033
358.42,20.88232,-1.61188,1.01805,0.89828
361.52,20.97758,-1.69683,1.04542,0.89622
364.62,21.07299,-1.78925,1.06442,0.89416
367.72,21.16848,-1.88346,1.07335,0.89209
370.82,21.26385,-1.98331,1.07184,0.89002
373.92,21.35947,-2.08265,1.0518,0.88795
377.02,21.45536,-2.18125,1.00814,0.88588
380.12,21.55084,-2.28075,0.94141,0.8838
383.22,21.64679,-2.36879,0.8433,0.88171
386.32,21.74271,-2.44496,0.73016,0.87963
389.42,21.8388,-2.5053,0.62266,0.87753
392.52,21.93446,-2.54706,0.53988,0.87544
395.62,22.03089,-2.57594,0.48335,0.87334
398.72,22.127,-2.59575,0.44674,0.87124
401.82,22.223,-2.60965,0.41594,0.86914
404.92,22.31963,-2.623,0.3894,0.86703
408.02,22.41613,-2.6355,0.36738,0.86491
411.12,22.5126,-2.64855,0.34975,0.8628
414.22,22.6093,-2.65759,0.33859,0.86068
417.32,22.70576,-2.66743,0.32353,0.85856
420.42,22.80283,-2.67834,0.3104,0.85643
423.52,22.89966,-2.68923,0.30577,0.8543
426.62,22.9966,-2.70038,0.30037,0.85217
429.72,23.09355,-2.70917,0.29748,0.85004
432.82,23.1909,-2.71902,0.29654,0.8479
435.92,23.28813,-2.7281,0.30038,0.84576
439.02,23.3856,-2.73722,0.30577,0.84361
442.12,23.48301,-2.74564,0.31642,0.84146
445.22,23.58066,-2.75441,0.32404,0.83931
448.32,23.6784,-2.76238,0.33527,0.83716
451.42,23.7763,-2.7705,0.34885,0.835
454.52,23.87422,-2.77948,0.36273,0.83284
457.62,23.9723,-2.78735,0.37738,0.83068
460.72,24.07041,-2.79672,0.39556,0.82851
463.82,24.16845,-2.80339,0.40656,0.82634
466.92,24.2668,-2.81138,0.42528,0.82417
470.02,24.36523,-2.81797,0.43763,0.822
473.12,24.4636,-2.82524,0.44944,0.81982
476.22,24.56234,-2.83475,0.46403,0.81764
479.32,24.66088,-2.84305,0.47569,0.81546
482.42,24.75933,-2.84835,0.48432,0.81327
485.52,24.8579,-2.85266,0.49169,0.81108
488.62,24.9568,-2.86133,0.50083,0.80889
491.72,25.05561,-2.86731,0.50441,0.80669
494.82,25.1547,-2.87223,0.51436,0.8045
497.92,25.2538,-2.87849,0.51657,0.8023
501.02,25.35292,-2.88531,0.5216,0.80009
504.12,25.4522,-2.88969,0.52421,0.79789
507.22,25.5517,-2.8957,0.52967,0.79568
510.32,25.65136,-2.89774,0.53256,0.79347
513.42,25.7507,-2.90219,0.53739,0.79126
516.52,25.8502,-2.90839,0.53917,0.78904
519.62,25.94973,-2.91296,0.54065,0.78682
522.72,26.0496,-2.916,0.542,0.7846
525.82,26.149,-2.92125,0.53943,0.78238
528.92,26.2489,-2.92455,0.53706,0.78015
532.02,26.3488,-2.92864,0.53717,0.77793
535.12,26.44882,-2.93199,0.53731,0.77569
538.22,26.5487,-2.93714,0.54459,0.77346
541.32,26.6488,-2.93882,0.5487,0.77123
544.42,26.74888,-2.94275,0.55995,0.76899
547.52,26.84866,-2.94475,0.56439,0.76675
550.62,26.9494,-2.94882,0.5675,0.76451
553.72,27.04978,-2.95285,0.56847,0.76226
556.82,27.1502,-2.95458,0.57065,0.76001
559.92,27.2508,-2.95825,0.57277,0.75776
563.02,27.35125,-2.95932,0.56908,0.75551
566.12,27.4519,-2.96399,0.56972,0.75326
569.22,27.55286,-2.96829,0.56627,0.751
572.32,27.6538,-2.97128,0.56135,0.74874
575.42,27.7546,-2.97115,0.55991,0.74648
578.52,27.85575,-2.97756,0.55582,0.74422
581.62,27.95692,-2.97888,0.55578,0.74196
584.72,28.05813,-2.98281,0.55217,0.73969
587.82,28.15932,-2.98314,0.54763,0.73742
590.92,28.26088,-2.98688,0.54507,0.73515
594.02,28.36236,-2.9895,0.54479,0.73288
597.12,28.46384,-2.99082,0.54495,0.7306
600.22,28.5655,-2.99312,0.54386,0.72833
603.32,28.66713,-2.99618,0.53834,0.72605
606.42,28.76895,-2.99652,0.53763,0.72377
609.52,28.87071,-3.00167,0.53456,0.72148
612.62,28.9725,-3.00387,0.53322,0.7192
615.72,29.0745,-3.00591,0.53715,0.71691
618.82,29.17663,-3.0089,0.53766,0.71462
621.92,29.27859,-3.01023,0.53735,0.71233
625.02,29.38083,-3.01305,0.53711,0.71004
628.12,29.4829,-3.01559,0.54203,0.70775
631.22,29.5851,-3.01496,0.53755,0.70545
634.32,29.68735,-3.01836,0.54083,0.70315
637.42,29.7897,-3.02049,0.54618,0.70085
640.52,29.89167,-3.02252,0.55357,0.69855
643.62,29.99421,-3.02451,0.55823,0.69625
646.72,30.0961,-3.02593,0.56571,0.69395
649.82,30.1988,-3.02843,0.57196,0.69164
652.92,30.30112,-3.03108,0.57939,0.68933
656.02,30.4035,-3.0323,0.58726,0.68703
659.12,30.5058,-3.03498,0.60103,0.68472
662.22,30.6083,-3.037,0.60539,0.6824
665.32,30.71074,-3.03878,0.6101,0.68009
668.42,30.81314,-3.04091,0.61824,0.67778
671.52,30.91589,-3.04357,0.62357,0.67546
674.62,31.0183,-3.04554,0.63301,0.67314
677.72,31.1208,-3.04833,0.64481,0.67082
680.82,31.2233,-3.04953,0.65505,0.6685
683.92,31.32593,-3.05098,0.66817,0.66618
687.02,31.4285,-3.05355,0.66826,0.66386
690.12,31.53107,-3.05649,0.67033,0.66153
693.22,31.6338,-3.05876,0.65467,0.65921
696.32,31.7364,-3.06118,0.63178,0.65688
699.42,31.839,-3.0643,0.6039,0.65455
702.52,31.94197,-3.06463,0.5614,0.65222
705.62,32.04481,-3.06728,0.53478,0.64989
708.72,32.14784,-3.06858,0.51162,0.64756
711.82,32.2508,-3.06991,0.4999,0.64523
714.92,32.35403,-3.07032,0.48865,0.6429
718.02,32.45714,-3.07102,0.48262,0.64056
721.12,32.56044,-3.07253,0.476,0.63823
724.22,32.66349,-3.07386,0.47327,0.63589
727.32,32.7665,-3.07516,0.47061,0.63355
730.42,32.87021,-3.07549,0.46243,0.63121
733.52,32.9735,-3.07679,0.45721,0.62888
736.62,33.07683,-3.07812,0.45752,0.62654
739.72,33.18032,-3.07943,0.45156,0.6242
742.82,33.28352,-3.08097,0.45087,0.62185
745.92,33.38736,-3.08173,0.44473,0.61951
749.02,33.49095,-3.08174,0.44568,0.61717
752.12,33.5946,-3.08306,0.44126,0.61483
755.22,33.69801,-3.0844,0.43963,0.61248
758.32,33.802,-3.08569,0.43849,0.61014
761.42,33.90573,-3.08569,0.43829,0.60779
764.52,34.00967,-3.08733,0.43545,0.60545
767.62,34.1136,-3.08865,0.4348,0.6031
770.72,34.2177,-3.09019,0.43141,0.60076
773.82,34.3215,-3.09128,0.43418,0.59841
776.92,34.42566,-3.08997,0.42851,0.59606
780.02,34.52964,-3.0903,0.42699,0.59371
783.12,34.63354,-3.09126,0.42855,0.59137
786.22,34.7376,-3.09096,0.42976,0.58902
789.32,34.84174,-3.09228,0.4295,0.58667
792.42,34.9459,-3.09359,0.43036,0.58432
793.92,34.99613,-3.09359,0.43129,0.58319