Folder: fsri_materials_database/01_Data/Engineered_Wood_Furniture/STA/N2/30K_min (part 2)

File: Engineered_Wood_Furniture_STA_N2_30KData_22124_R3.csv
##Temp./Â°C,Time/min,Mass loss(subtr.2)/mg,DSC(subtr.2)/(mW/mg),Sensit./(uV/mW)
48.47,10.01,0.02063,0.007292324,1.07507
51.57,10.87536,0.02421056,0.17147,1.0737
54.67,11.1055,0.02389947,0.28274,1.07232
57.77,11.28236,0.02204497,0.37181,1.07093
60.87,11.43473,0.02358633,0.44362,1.06953
63.97,11.57259,0.02301066,0.50734,1.06812
67.07,11.70161,0.02327107,0.55787,1.0667
70.17,11.82494,0.02507513,0.60761,1.06526
73.27,11.94393,0.02370049,0.65093,1.06382
76.37,12.0596,0.02361901,0.6914,1.06237
79.47,12.1729,0.02208953,0.7308,1.0609
82.57,12.28406,0.02050046,0.76589,1.05943
85.67,12.39307,0.01927652,0.79877,1.05795
88.77,12.5017,0.01896137,0.83093,1.05646
91.87,12.6084,0.01779028,0.85605,1.05495
94.97,12.71424,0.01593081,0.87711,1.05344
98.07,12.8196,0.01491828,0.89603,1.05192
101.17,12.9242,0.01734356,0.90898,1.05039
104.27,13.02877,0.01447287,0.91343,1.04885
107.37,13.13274,0.01412729,0.91826,1.0473
110.47,13.23657,0.01314509,0.92586,1.04574
113.57,13.34025,0.011849,0.94001,1.04417
116.67,13.44351,0.01053955,0.95203,1.04259
119.77,13.5465,0.01184929,0.95334,1.04101
122.87,13.64848,0.01053755,0.95434,1.03941
125.97,13.75099,0.008557277,0.95344,1.03781
129.07,13.8523,0.00823059,0.95405,1.03619
132.17,13.95359,0.00738788,0.95058,1.03457
135.27,14.0542,0.008558161,0.9549,1.03294
138.37,14.15427,0.007562404,0.95825,1.03131
141.47,14.25402,0.007444075,0.96509,1.02966
144.57,14.35341,0.00856027,0.97376,1.02801
147.67,14.45231,0.008559995,0.98394,1.02634
150.77,14.55066,0.00724765,0.99598,1.02467
153.87,14.64909,0.007250016,1.01097,1.02299
156.97,14.7469,0.005931149,1.0284,1.02131
160.07,14.84477,0.006178468,1.04546,1.01961
163.17,14.9422,0.005926806,1.06365,1.01791
166.27,15.03939,0.004630629,1.08721,1.0162
169.37,15.1364,0.004608635,1.11237,1.01449
172.47,15.23337,0.003950122,1.13639,1.01276
175.57,15.32981,0.00262979,1.17006,1.01103
178.67,15.42562,0.00198357,1.2024,1.00929
181.77,15.52179,0.001352887,1.24246,1.00755
184.87,15.6173,-0.001205137,1.28342,1.00579
187.97,15.7128,-0.00275375,1.33045,1.00403
191.07,15.80795,-0.0051814,1.3777,1.00226
194.17,15.90296,-0.009290826,1.43284,1.00049
197.27,15.9979,-0.0133275,1.49156,0.99871
200.37,16.0928,-0.01919338,1.55103,0.99692
203.47,16.18732,-0.02506269,1.61545,0.99513
206.57,16.28204,-0.03084365,1.68126,0.99333
209.67,16.37664,-0.0368073,1.7469,0.99152
212.77,16.47109,-0.04443373,1.817,0.9897
215.87,16.56547,-0.05272375,1.88122,0.98788
218.97,16.6599,-0.06074847,1.94528,0.98606
222.07,16.75388,-0.07038112,1.999,0.98422
225.17,16.8485,-0.0790948,2.0394,0.98238
228.27,16.94255,-0.08945431,2.0653,0.98054
231.37,17.03661,-0.09737478,2.07728,0.97869
234.47,17.1306,-0.10985,2.07663,0.97683
237.57,17.2246,-0.1192,2.06352,0.97496
240.67,17.31835,-0.13021,2.04174,0.97309
243.77,17.41218,-0.14087,2.01162,0.97122
246.87,17.50581,-0.15188,1.98107,0.96934
249.97,17.5994,-0.16409,1.94954,0.96745
253.07,17.69302,-0.17711,1.91875,0.96556
256.17,17.78654,-0.18935,1.88865,0.96366
259.27,17.88014,-0.20237,1.86124,0.96176
262.37,17.97346,-0.2168,1.8319,0.95985
265.47,18.0668,-0.23213,1.80543,0.95793
268.57,18.16014,-0.24748,1.77526,0.95601
271.67,18.25331,-0.26509,1.73628,0.95409
274.77,18.34694,-0.28186,1.69841,0.95216
277.87,18.44039,-0.30219,1.65857,0.95022
280.97,18.53366,-0.32366,1.61508,0.94828
284.07,18.62707,-0.34803,1.57067,0.94634
287.17,18.72072,-0.37277,1.52059,0.94438
290.27,18.81415,-0.40004,1.47102,0.94243
293.37,18.90772,-0.42997,1.41842,0.94047
296.47,19.00119,-0.46176,1.36176,0.9385
299.57,19.09478,-0.49757,1.30317,0.93653
302.67,19.1883,-0.53445,1.24599,0.93456
305.77,19.28191,-0.5725,1.1894,0.93258
308.87,19.37549,-0.61319,1.13524,0.93059
311.97,19.4691,-0.65851,1.08585,0.9286
315.07,19.56287,-0.70253,1.04133,0.92661
318.17,19.65663,-0.75001,1.00094,0.92461
321.27,19.75055,-0.80111,0.97304,0.92261
324.37,19.8445,-0.8513,0.95217,0.9206
327.47,19.9386,-0.90355,0.94203,0.91859
330.57,20.03266,-0.9588,0.94213,0.91657
333.67,20.1268,-1.01372,0.95364,0.91455
336.77,20.2213,-1.07272,0.96762,0.91253
339.87,20.3157,-1.13285,0.98747,0.9105
342.97,20.41041,-1.1942,1.01249,0.90847
346.07,20.50505,-1.26137,1.04255,0.90643
349.17,20.59993,-1.32923,1.07445,0.90439
352.27,20.69482,-1.40116,1.1106,0.90235
355.37,20.7899,-1.47961,1.149,0.9003
358.47,20.88489,-1.56034,1.18801,0.89824
361.57,20.98017,-1.64591,1.22288,0.89619
364.67,21.07552,-1.73829,1.24554,0.89412
367.77,21.17107,-1.83294,1.27,0.89206
370.87,21.2665,-1.93174,1.27626,0.88999
373.97,21.36212,-2.03181,1.25797,0.88792
377.07,21.45775,-2.13282,1.21783,0.88584
380.17,21.55353,-2.23143,1.142,0.88376
383.27,21.649,-2.31686,1.03027,0.88168
386.37,21.745,-2.39728,0.88836,0.87959
389.47,21.8408,-2.45513,0.74137,0.8775
392.57,21.93668,-2.49704,0.61488,0.87541
395.67,22.03259,-2.52652,0.52655,0.87331
398.77,22.1286,-2.54412,0.46838,0.87121
401.87,22.22469,-2.55868,0.42666,0.8691
404.97,22.32084,-2.57024,0.3944,0.86699
408.07,22.41734,-2.58172,0.3714,0.86488
411.17,22.5136,-2.59217,0.35214,0.86277
414.27,22.61011,-2.60264,0.3408,0.86065
417.37,22.70675,-2.613,0.32286,0.85852
420.47,22.80343,-2.62258,0.31482,0.8564
423.57,22.9002,-2.63259,0.30975,0.85427
426.67,22.9972,-2.64208,0.30422,0.85214
429.77,23.09406,-2.65101,0.30404,0.85
432.87,23.19128,-2.65985,0.30941,0.84786
435.97,23.2886,-2.66885,0.30992,0.84572
439.07,23.38597,-2.67715,0.31672,0.84358
442.17,23.4836,-2.68582,0.32734,0.84143
445.27,23.5812,-2.69446,0.33478,0.83928
448.37,23.67908,-2.70263,0.34627,0.83712
451.47,23.77664,-2.70955,0.35892,0.83497
454.57,23.87501,-2.71581,0.37191,0.83281
457.67,23.97304,-2.72465,0.38523,0.83064
460.77,24.07137,-2.73077,0.3989,0.82848
463.87,24.16959,-2.73656,0.41137,0.82631
466.97,24.2678,-2.74338,0.41996,0.82414
470.07,24.36645,-2.75014,0.43573,0.82196
473.17,24.465,-2.75712,0.44602,0.81978
476.27,24.5636,-2.76199,0.45824,0.8176
479.37,24.66225,-2.76798,0.46671,0.81542
482.47,24.7611,-2.77379,0.47992,0.81323
485.57,24.85995,-2.77901,0.48777,0.81104
488.67,24.95864,-2.78474,0.49375,0.80885
491.77,25.05782,-2.78969,0.50197,0.80666
494.87,25.157,-2.79473,0.50684,0.80446
497.97,25.25629,-2.79946,0.51066,0.80226
501.07,25.3551,-2.80348,0.51554,0.80006
504.17,25.4546,-2.80961,0.51581,0.79785
507.27,25.5539,-2.81365,0.52361,0.79565
510.37,25.65324,-2.8195,0.52961,0.79343
513.47,25.7528,-2.82244,0.53635,0.79122
516.57,25.85235,-2.82615,0.53959,0.78901
519.67,25.95194,-2.83067,0.54139,0.78679
522.77,26.05167,-2.83578,0.54549,0.78457
525.87,26.15157,-2.83972,0.54349,0.78234
528.97,26.2514,-2.84238,0.54577,0.78012
532.07,26.35132,-2.84647,0.54442,0.77789
535.17,26.4512,-2.85106,0.54827,0.77566
538.27,26.5514,-2.85507,0.55472,0.77343
541.37,26.6514,-2.85777,0.55474,0.77119
544.47,26.75158,-2.86109,0.56086,0.76895
547.57,26.85192,-2.86325,0.56982,0.76671
550.67,26.9523,-2.86689,0.57283,0.76447
553.77,27.0528,-2.87023,0.57682,0.76222
556.87,27.15356,-2.87189,0.58265,0.75998
559.97,27.2542,-2.87541,0.58429,0.75773
563.07,27.355,-2.87735,0.57993,0.75548
566.17,27.4558,-2.88046,0.58365,0.75322
569.27,27.5564,-2.88393,0.58459,0.75097
572.37,27.6574,-2.88628,0.58576,0.74871
575.47,27.7584,-2.888,0.58916,0.74645
578.57,27.85936,-2.8915,0.5857,0.74419
581.67,27.96053,-2.89323,0.58624,0.74192
584.77,28.0617,-2.89628,0.58587,0.73965
587.87,28.1629,-2.89814,0.5803,0.73738
590.97,28.2644,-2.90097,0.5741,0.73511
594.07,28.3659,-2.90323,0.56941,0.73284
597.17,28.46753,-2.90592,0.56363,0.73057
600.27,28.56894,-2.90719,0.55806,0.72829
603.37,28.6705,-2.91028,0.55534,0.72601
606.47,28.7722,-2.9116,0.55088,0.72373
609.57,28.87373,-2.91417,0.5509,0.72145
612.67,28.97523,-2.91688,0.54624,0.71916
615.77,29.07705,-2.91954,0.53984,0.71687
618.87,29.17882,-2.91951,0.53842,0.71459
621.97,29.28065,-2.92213,0.53187,0.7123
625.07,29.3824,-2.92411,0.53189,0.71
628.17,29.4843,-2.9268,0.52972,0.70771
631.27,29.58638,-2.92936,0.52798,0.70541
634.37,29.6883,-2.9307,0.53331,0.70312
637.47,29.79027,-2.93169,0.53803,0.70082
640.57,29.8922,-2.93329,0.5408,0.69852
643.67,29.99442,-2.93596,0.54859,0.69621
646.77,30.09664,-2.93858,0.55489,0.69391
649.87,30.199,-2.93991,0.56006,0.6916
652.97,30.3012,-2.94286,0.56249,0.6893
656.07,30.4035,-2.94559,0.56729,0.68699
659.17,30.506,-2.94681,0.56804,0.68468
662.27,30.6085,-2.9481,0.56626,0.68237
665.37,30.711,-2.95077,0.56096,0.68005
668.47,30.81353,-2.95016,0.55791,0.67774
671.57,30.91625,-2.95406,0.55219,0.67542
674.67,31.0189,-2.95527,0.54989,0.6731
677.77,31.12162,-2.95791,0.54685,0.67078
680.87,31.2243,-2.96052,0.54104,0.66846
683.97,31.3271,-2.96185,0.52998,0.66614
687.07,31.42985,-2.96414,0.51475,0.66382
690.17,31.53282,-2.96342,0.50526,0.66149
693.27,31.6357,-2.96709,0.48987,0.65917
696.37,31.73858,-2.96575,0.47935,0.65684
699.47,31.8415,-2.96974,0.46809,0.65451
702.57,31.9445,-2.96974,0.45933,0.65219
705.67,32.0476,-2.97089,0.4559,0.64986
708.77,32.15044,-2.97304,0.44939,0.64752
711.87,32.2532,-2.97253,0.44274,0.64519
714.97,32.35682,-2.97361,0.44376,0.64286
718.07,32.45981,-2.97633,0.4359,0.64052
721.17,32.5629,-2.97501,0.42897,0.63819
724.27,32.66598,-2.97744,0.42325,0.63585
727.37,32.76913,-2.97731,0.41662,0.63351
730.47,32.87227,-2.97863,0.41078,0.63118
733.57,32.97542,-2.97995,0.40198,0.62884
736.67,33.0787,-2.97995,0.39681,0.6265
739.77,33.18185,-2.98259,0.38535,0.62416
742.87,33.2854,-2.98276,0.38242,0.62182
745.97,33.3889,-2.9838,0.37892,0.61947
749.07,33.4923,-2.98388,0.37279,0.61713
752.17,33.59572,-2.9851,0.36848,0.61479
755.27,33.6995,-2.98642,0.35765,0.61244
758.37,33.80323,-2.98705,0.3536,0.6101
761.47,33.9069,-2.98708,0.3422,0.60776
764.57,34.01088,-2.98838,0.33368,0.60541
767.67,34.1145,-2.98971,0.321,0.60306
770.77,34.21813,-2.98984,0.31604,0.60072
773.87,34.32206,-2.99036,0.31168,0.59837
776.97,34.42606,-2.99125,0.30661,0.59602
780.07,34.53003,-2.99431,0.30403,0.59368
783.17,34.63389,-2.99465,0.30053,0.59133
786.27,34.7378,-2.99531,0.29948,0.58898
789.37,34.8418,-2.99481,0.29765,0.58663
792.47,34.94579,-2.99563,0.29494,0.58429
794.07,34.9994,-2.99563,0.28764,0.58307