Folder: fsri_materials_database/01_Data/Engineered_Wood_Furniture/STA/N2/3K_min

Note: 01_Data/README.md
# Materials and Products Database
## 01_Data

Raw data generated from each apparatus are included here in plain-text format. The data is organized first by material, next by the short name of test apparatus used, and where applicable additional filtering by test settings.

### material.json

Each material directory contains a json file of the same name as the material. This file links the data stored in the repository as well as data and graphs produced by the accompanying scripts (__02_Scripts__) to the respective landing page for the material on the front-end website.

File: Engineered_Wood_Furniture_STA_N2_3KData_22114_R1.csv
##Temp./Â°C,Time/min,Mass loss(subtr.2)/mg,DSC(subtr.2)/(mW/mg),Sensit./(uV/mW)
50.379,10.01667,-0.01756,0.01820581,1.05029
53.579,12.32168,-0.01852203,0.0759849,1.04971
56.779,13.52979,-0.0188565,0.08649845,1.04912
59.979,14.6692,-0.02039735,0.09383295,1.04852
63.179,15.781,-0.02215999,0.09742832,1.0479
66.379,16.87396,-0.02585821,0.09794963,1.04726
69.579,17.95583,-0.02544532,0.10418,1.04661
72.779,19.03114,-0.02873988,0.10259,1.04594
75.979,20.10855,-0.03104746,0.10058,1.04525
79.179,21.17697,-0.03138053,0.09821123,1.04455
82.379,22.24488,-0.03368013,0.10096,1.04383
85.579,23.3143,-0.03367228,0.10137,1.04309
88.779,24.3811,-0.03631239,0.10423,1.04234
91.979,25.44933,-0.03762257,0.10729,1.04157
95.179,26.50797,-0.04156853,0.10357,1.04079
98.379,27.5674,-0.04092188,0.10153,1.03999
101.579,28.63157,-0.04025952,0.09964144,1.03917
104.779,29.68743,-0.04355214,0.10457,1.03834
107.979,30.74455,-0.04332034,0.10427,1.03749
111.179,31.80247,-0.04234147,0.1045,1.03663
114.379,32.85952,-0.04431,0.10312,1.03575
117.579,33.91366,-0.04333689,0.10636,1.03485
120.779,34.97037,-0.04434897,0.10631,1.03393
123.979,36.02577,-0.04727058,0.11012,1.033
127.179,37.07914,-0.04696862,0.11278,1.03206
130.379,38.1312,-0.04726912,0.1105,1.0311
133.579,39.18403,-0.04793999,0.11585,1.03012
136.779,40.23429,-0.05058871,0.11552,1.02912
139.979,41.28719,-0.05156,0.11878,1.02811
143.179,42.34019,-0.05222781,0.12062,1.02709
146.379,43.38742,-0.05353051,0.12482,1.02604
149.579,44.43867,-0.05541484,0.12416,1.02498
152.779,45.4843,-0.05813023,0.13272,1.02391
155.979,46.52961,-0.06010976,0.13769,1.02282
159.179,47.57282,-0.06274027,0.14467,1.02171
162.379,48.61833,-0.06373056,0.15306,1.02059
165.579,49.667,-0.06998998,0.15865,1.01945
168.779,50.7119,-0.0745896,0.16548,1.01829
171.979,51.75176,-0.07889605,0.16876,1.01712
175.179,52.79869,-0.08412971,0.1799,1.01593
178.379,53.8441,-0.09071911,0.18759,1.01473
181.579,54.885,-0.09861023,0.19539,1.01351
184.779,55.93121,-0.10684,0.20314,1.01228
187.979,56.9744,-0.11375,0.20762,1.01103
191.179,58.0137,-0.12375,0.21261,1.00976
194.379,59.05543,-0.13321,0.21674,1.00848
197.579,60.09718,-0.1424,0.22129,1.00718
200.779,61.13884,-0.15555,0.21924,1.00586
203.979,62.17951,-0.1664,0.21924,1.00453
207.179,63.2175,-0.17629,0.22035,1.00319
210.379,64.25158,-0.18877,0.21917,1.00183
213.579,65.2897,-0.2019,0.21498,1.00045
216.779,66.3279,-0.21513,0.21179,0.99906
219.979,67.37015,-0.22961,0.20723,0.99765
223.179,68.4093,-0.2444,0.21026,0.99623
226.379,69.4487,-0.25879,0.20384,0.99479
229.579,70.49069,-0.27436,0.20015,0.99333
232.779,71.52948,-0.29201,0.19935,0.99186
235.979,72.56303,-0.31028,0.19358,0.99038
239.179,73.6002,-0.33148,0.19298,0.98887
242.379,74.63967,-0.35242,0.18748,0.98736
245.579,75.68274,-0.37642,0.18464,0.98583
248.779,76.7206,-0.40248,0.17855,0.98428
251.979,77.75761,-0.43018,0.17546,0.98272
255.179,78.79514,-0.46409,0.17042,0.98114
258.379,79.8355,-0.4988,0.165,0.97955
261.579,80.87715,-0.5367,0.16183,0.97794
264.779,81.90984,-0.5757,0.15671,0.97631
267.979,82.94722,-0.62174,0.15043,0.97468
271.179,83.98526,-0.6678,0.148,0.97302
274.379,85.0259,-0.71895,0.14525,0.97135
277.579,86.06478,-0.77313,0.14168,0.96967
280.779,87.10786,-0.82655,0.13623,0.96797
283.979,88.14885,-0.885,0.13485,0.96626
287.179,89.18768,-0.94379,0.14099,0.96453
290.379,90.22941,-1.00409,0.14284,0.96279
293.579,91.26621,-1.06842,0.14665,0.96103
296.779,92.30497,-1.13448,0.145,0.95926
299.979,93.34646,-1.20347,0.15394,0.95747
303.179,94.38715,-1.2772,0.15724,0.95567
306.379,95.4305,-1.35336,0.16099,0.95385
309.579,96.4726,-1.43255,0.1692,0.95202
312.779,97.51436,-1.52011,0.1727,0.95018
315.979,98.55896,-1.61237,0.17885,0.94832
319.179,99.60083,-1.71415,0.18486,0.94644
322.379,100.64,-1.81435,0.19033,0.94455
325.579,101.688,-1.92344,0.19469,0.94265
328.779,102.73,-2.03761,0.19541,0.94074
331.979,103.778,-2.15556,0.19292,0.93881
335.179,104.8246,-2.26761,0.18686,0.93686
338.379,105.869,-2.368,0.16537,0.9349
341.579,106.917,-2.45171,0.14574,0.93293
344.779,107.96,-2.51179,0.11988,0.93094
347.979,109.004,-2.55146,0.10742,0.92894
351.179,110.051,-2.57399,0.10378,0.92693
354.379,111.0985,-2.59398,0.10021,0.9249
357.579,112.147,-2.60999,0.09854933,0.92286
360.779,113.2,-2.62425,0.095742,0.92081
363.979,114.244,-2.6366,0.0944395,0.91874
367.179,115.288,-2.64977,0.09263149,0.91666
370.379,116.338,-2.66003,0.09617401,0.91456
373.579,117.3877,-2.67231,0.0935493,0.91245
376.779,118.442,-2.68472,0.09383999,0.91033
379.979,119.491,-2.69634,0.09429181,0.9082
383.179,120.543,-2.70734,0.09741542,0.90605
386.379,121.5951,-2.71855,0.09548947,0.90389
389.579,122.646,-2.72726,0.09480866,0.90172
392.779,123.695,-2.73809,0.09500747,0.89953
395.979,124.751,-2.7483,0.10036,0.89733
399.179,125.803,-2.7562,0.09962803,0.89512
402.379,126.854,-2.76879,0.10329,0.8929
405.579,127.916,-2.77397,0.10427,0.89066
408.779,128.974,-2.78351,0.10698,0.88841
411.979,130.027,-2.79156,0.10898,0.88615
415.179,131.088,-2.79996,0.11129,0.88387
418.379,132.1429,-2.80836,0.11667,0.88159
421.579,133.198,-2.8151,0.11783,0.87929
424.779,134.2552,-2.82233,0.11538,0.87698
427.979,135.312,-2.82966,0.11892,0.87466
431.179,136.372,-2.83493,0.11801,0.87232
434.379,137.434,-2.84274,0.12377,0.86998
437.579,138.491,-2.85065,0.1236,0.86762
440.779,139.55,-2.85689,0.13009,0.86525
443.979,140.606,-2.86384,0.1348,0.86287
447.179,141.666,-2.8704,0.14404,0.86048
450.379,142.724,-2.87536,0.14861,0.85807
453.579,143.788,-2.87935,0.14954,0.85566
456.779,144.8476,-2.88443,0.14705,0.85323
459.979,145.909,-2.88881,0.14556,0.85079
463.179,146.968,-2.89374,0.1505,0.84835
466.379,148.03,-2.90018,0.13761,0.84589
469.579,149.093,-2.90367,0.13226,0.84342
472.779,150.1555,-2.90888,0.1337,0.84094
475.979,151.216,-2.91315,0.13638,0.83845
479.179,152.285,-2.91938,0.1301,0.83594
482.379,153.352,-2.92337,0.12782,0.83343
485.579,154.417,-2.92665,0.12609,0.83091
488.779,155.4799,-2.93241,0.12536,0.82838
491.979,156.541,-2.93564,0.12356,0.82583
495.179,157.6042,-2.93893,0.11858,0.82328
498.379,158.67,-2.94123,0.12037,0.82072
501.579,159.735,-2.94424,0.11502,0.81815
504.779,160.809,-2.94881,0.11261,0.81556
507.979,161.873,-2.9521,0.10566,0.81297
511.179,162.943,-2.95566,0.10099,0.81037
514.379,164.008,-2.95633,0.09972592,0.80776
517.579,165.072,-2.96164,0.09720558,0.80514
520.779,166.1416,-2.9623,0.09721706,0.80251
523.979,167.21,-2.96635,0.09563579,0.79987
527.179,168.277,-2.97052,0.09577965,0.79722
530.379,169.345,-2.97284,0.09493433,0.79457
533.579,170.413,-2.97516,0.09360833,0.7919
536.779,171.483,-2.97612,0.09571908,0.78923
539.979,172.553,-2.98074,0.08920218,0.78655
543.179,173.619,-2.98336,0.08753458,0.78386
546.379,174.689,-2.9847,0.09094895,0.78116
549.579,175.753,-2.9893,0.09374532,0.77845
552.779,176.8327,-2.99092,0.09805772,0.77573
555.979,177.901,-2.99454,0.09706872,0.77301
559.179,178.966,-2.99553,0.10104,0.77028
562.379,180.043,-2.99687,0.10175,0.76754
565.579,181.117,-3.00343,0.10502,0.76479
568.779,182.1813,-3.0047,0.10694,0.76204
571.979,183.255,-3.00639,0.1048,0.75928
575.179,184.3334,-3.00902,0.11323,0.75651
578.379,185.4076,-3.01132,0.11624,0.75373
581.579,186.484,-3.01461,0.11689,0.75095
584.779,187.556,-3.01549,0.12028,0.74816
587.979,188.631,-3.01945,0.11915,0.74536
591.179,189.702,-3.02207,0.12174,0.74256
594.379,190.781,-3.02438,0.12609,0.73975
597.579,191.859,-3.02936,0.13206,0.73693
600.779,192.9298,-3.0299,0.13645,0.73411
603.979,194,-3.03425,0.14171,0.73128
607.179,195.078,-3.03555,0.13505,0.72844
610.379,196.151,-3.04019,0.13732,0.7256
613.579,197.229,-3.03986,0.13954,0.72276
616.779,198.305,-3.04412,0.1411,0.7199
619.979,199.38,-3.04741,0.14432,0.71704
623.179,200.451,-3.0484,0.14239,0.71418
626.379,201.523,-3.04862,0.14429,0.71131
629.579,202.601,-3.05103,0.13863,0.70844
632.779,203.681,-3.05261,0.14024,0.70556
635.979,204.7598,-3.05546,0.14434,0.70267
639.179,205.836,-3.05404,0.14911,0.69978
642.379,206.9153,-3.05431,0.14772,0.69689
645.579,207.9903,-3.05788,0.15213,0.69399
648.779,209.068,-3.05882,0.16061,0.69108
651.979,210.145,-3.0618,0.16021,0.68817
655.179,211.219,-3.0631,0.16395,0.68526
658.379,212.298,-3.06277,0.165,0.68235
661.579,213.377,-3.06406,0.16571,0.67943
664.779,214.449,-3.0631,0.16671,0.6765
667.979,215.531,-3.06507,0.16694,0.67357
671.179,216.608,-3.06804,0.17449,0.67064
674.379,217.69,-3.06836,0.17815,0.6677
677.579,218.768,-3.071,0.17628,0.66477
680.779,219.846,-3.07429,0.18344,0.66182
683.979,220.926,-3.07296,0.19032,0.65888
687.179,222.005,-3.07448,0.1876,0.65593
690.379,223.083,-3.07527,0.18682,0.65298
693.579,224.1627,-3.07854,0.19011,0.65003
696.779,225.24,-3.07856,0.19778,0.64707
699.979,226.319,-3.08504,0.20388,0.64411
703.179,227.4,-3.07692,0.20549,0.64115
706.379,228.479,-3.08515,0.20509,0.63818
709.579,229.561,-3.08086,0.20815,0.63522
712.779,230.649,-3.08415,0.21662,0.63225
715.979,231.725,-3.08885,0.21476,0.62928
719.179,232.804,-3.08744,0.21533,0.62631
722.379,233.891,-3.08994,0.21749,0.62334
725.579,234.975,-3.08908,0.21313,0.62036
728.779,236.057,-3.09333,0.2104,0.61739
731.979,237.134,-3.08284,0.21367,0.61441
735.179,238.222,-3.09068,0.21296,0.61143
738.379,239.303,-3.09754,0.21109,0.60845
741.579,240.384,-3.09852,0.20946,0.60547
744.779,241.466,-3.09951,0.21774,0.60249
747.979,242.553,-3.0982,0.21803,0.59951
751.179,243.636,-3.09458,0.22195,0.59653
754.379,244.718,-3.10249,0.21751,0.59355
757.579,245.804,-3.10435,0.21545,0.59057
760.779,246.89,-3.10412,0.21449,0.58758
763.979,247.972,-3.10879,0.21788,0.5846
767.179,249.0579,-3.10595,0.21737,0.58162
770.379,250.135,-3.10538,0.21653,0.57864
773.579,251.218,-3.10578,0.21615,0.57566
776.779,252.305,-3.11101,0.21055,0.57268
779.979,253.391,-3.10974,0.21988,0.5697
783.179,254.478,-3.1153,0.22427,0.56672
786.379,255.562,-3.11384,0.22651,0.56374
789.579,256.64,-3.11234,0.22624,0.56076
792.779,257.728,-3.11495,0.22623,0.55779
795.979,258.816,-3.11695,0.23121,0.55481
799.179,259.901,-3.1209,0.22968,0.55184
799.379,259.969,-3.1209,0.23157,0.55165