Folder: fsri_materials_database/01_Data/PMMA_R06/MCC

Note: 01_Data/README.md
# Materials and Products Database
## 01_Data

Raw data generated from each apparatus are included here in plain-text format. The data is organized first by material, next by the short name of test apparatus used, and where applicable additional filtering by test settings.

### material.json

Each material directory contains a json file of the same name as the material. This file links the data stored in the repository as well as data and graphs produced by the accompanying scripts (__02_Scripts__) to the respective landing page for the material on the front-end website.

File: PMMA_R06_MCC_30K_min_211015_R1.txt
Sample ID:	C:\MCC\MCC Cal\Test\PMMA_R06_MCC_30K_min_211015_R1.txt
Sample Weight (mg):	4.25
Heating Rate (C/s):	0.5
Combustor Temp (C):	900
N2 Flow Rate (cc/min):	80
O2 Flow Rate (cc/min):	20
Calibration File:	C:\MCC\MCC Cal\Coeff1 JN10440_30_210304.txt.txt
T Correction Coefficients:	0	1.024463	0
Time Shift (s):	14
*
Time (s)	Temperature (C)	N2 flow rate (cc/min)	O2 flow rate (cc/min)	Flow Rate (cc/min)	Oxygen (%)	HRR (W/g)	Heating rate (C/s)
0.000	106.265	79.994	19.996	102.730	20.068	-0.093	0.009
8.000	106.238	79.993	19.996	102.747	20.067	-0.014	-0.019
16.000	106.283	79.991	19.996	102.751	20.064	0.146	0.012
24.000	106.380	79.994	19.996	102.835	20.053	1.015	0.003
32.000	106.875	79.994	19.995	102.816	20.038	2.152	0.068
40.000	107.771	79.992	19.996	102.907	20.031	2.705	0.129
48.001	108.950	79.994	19.996	102.913	20.030	2.753	0.177
56.000	110.460	79.995	19.995	102.940	20.021	3.399	0.179
64.000	112.276	79.992	19.995	102.950	20.021	3.409	0.241
72.000	114.336	79.992	19.996	102.957	20.020	3.523	0.278
80.000	116.667	79.994	19.995	102.984	20.015	3.893	0.283
88.000	119.336	79.993	19.995	102.994	20.013	4.057	0.353
96.000	122.209	79.991	19.996	103.001	20.015	3.909	0.413
104.000	125.305	79.993	19.996	102.992	20.011	4.172	0.404
112.001	128.599	79.994	19.995	102.997	20.013	4.060	0.430
120.001	132.075	79.992	19.996	103.006	20.009	4.355	0.454
128.000	135.639	79.992	19.996	103.002	20.008	4.407	0.453
136.000	139.352	79.995	19.995	102.999	20.011	4.166	0.475
144.000	143.192	79.993	19.994	102.992	20.014	4.000	0.488
152.000	147.170	79.991	19.995	102.989	20.015	3.860	0.513
160.000	151.129	79.992	19.995	102.989	20.016	3.798	0.499
168.000	155.100	79.992	19.995	102.987	20.013	4.014	0.473
176.000	159.074	79.993	19.995	102.990	20.016	3.828	0.476
184.000	163.131	79.995	19.996	102.976	20.016	3.818	0.491
192.000	167.157	79.995	19.996	102.982	20.014	3.985	0.504
200.000	171.157	79.993	19.997	102.954	20.014	3.986	0.480
208.000	175.189	79.994	19.995	102.958	20.018	3.679	0.505
216.000	179.174	79.996	19.996	102.946	20.012	4.077	0.539
224.000	183.140	79.992	19.997	102.947	20.017	3.767	0.517
232.000	187.177	79.993	19.995	102.947	20.016	3.846	0.503
240.000	191.156	79.994	19.995	102.951	20.016	3.794	0.486
248.000	195.103	79.992	19.995	102.949	20.012	4.132	0.503
256.000	199.061	79.990	19.996	102.951	20.015	3.916	0.503
264.000	203.029	79.994	19.996	102.946	20.012	4.105	0.518
272.001	206.974	79.994	19.996	102.944	20.013	4.002	0.502
280.000	210.927	79.993	19.996	102.935	20.012	4.150	0.468
288.000	214.844	79.996	19.996	102.940	20.012	4.123	0.506
296.000	218.738	79.994	19.995	102.919	20.010	4.288	0.475
304.000	222.640	79.991	19.995	102.914	20.011	4.197	0.482
312.000	226.472	79.991	19.995	102.926	20.007	4.455	0.436
320.000	230.356	79.992	19.996	102.914	20.008	4.446	0.466
328.000	234.141	79.991	19.996	102.908	20.007	4.492	0.469
336.000	237.957	79.992	19.995	102.910	20.004	4.694	0.487
344.000	241.691	79.993	19.996	102.908	20.003	4.813	0.469
352.000	245.517	79.994	19.995	102.917	19.997	5.238	0.479
360.000	249.396	79.993	19.995	102.911	19.987	5.970	0.506
368.000	253.264	79.994	19.995	102.915	19.984	6.204	0.480
376.000	257.195	79.992	19.995	102.914	19.969	7.324	0.493
384.000	261.081	79.992	19.996	102.912	19.957	8.303	0.466
392.000	265.061	79.993	19.996	102.908	19.942	9.383	0.495
400.000	269.015	79.993	19.998	102.912	19.919	11.164	0.494
408.000	273.020	79.991	19.995	102.920	19.894	13.068	0.495
416.000	277.014	79.992	19.995	102.915	19.857	15.851	0.513
424.000	280.998	79.995	19.995	102.932	19.822	18.487	0.462
432.000	285.031	79.995	19.995	102.936	19.784	21.355	0.497
440.000	289.127	79.994	19.995	102.939	19.748	24.075	0.507
448.000	293.174	79.996	19.996	102.940	19.719	26.220	0.486
456.000	297.256	79.995	19.994	102.938	19.697	27.919	0.510
464.000	301.301	79.992	19.996	102.911	19.691	28.383	0.487
472.000	305.342	79.992	19.995	102.916	19.685	28.839	0.496
480.000	309.402	79.993	19.996	102.929	19.698	27.819	0.496
488.000	313.462	79.992	19.997	102.922	19.702	27.544	0.511
496.000	317.451	79.992	19.996	102.937	19.702	27.547	0.497
504.000	321.488	79.995	19.994	102.916	19.683	28.990	0.496
512.000	325.518	79.994	19.994	102.930	19.655	31.061	0.513
520.000	329.572	79.993	19.996	102.927	19.600	35.240	0.505
528.000	333.588	79.995	19.994	102.945	19.521	41.259	0.513
536.000	337.624	79.993	19.995	102.945	19.415	49.211	0.482
544.000	341.554	79.993	19.995	102.947	19.104	72.820	0.502
552.000	345.445	79.992	19.995	103.056	18.991	81.404	0.497
560.000	349.404	79.991	19.996	103.003	18.887	89.168	0.512
568.000	353.377	79.990	19.996	103.112	18.588	112.000	0.497
576.000	357.386	79.991	19.995	103.079	18.366	128.672	0.507
584.000	361.407	79.995	19.996	103.267	17.939	161.175	0.521
592.000	365.372	79.994	19.995	103.294	17.344	206.343	0.471
600.000	369.356	79.995	19.996	103.240	16.812	246.266	0.507
608.000	373.328	79.995	19.995	103.082	16.601	262.064	0.507
616.000	377.502	79.993	19.994	103.078	16.879	241.473	0.671
624.000	381.883	79.994	19.994	103.160	17.349	205.646	0.559
632.000	386.068	79.994	19.994	103.103	17.660	181.994	0.504
640.000	390.282	79.993	19.995	103.042	17.946	160.323	0.498
648.000	394.530	79.992	19.997	102.995	18.260	136.484	0.531
656.000	398.715	79.993	19.995	102.962	18.592	111.386	0.539
664.000	402.858	79.994	19.996	102.919	18.911	87.259	0.519
672.000	406.946	79.993	19.997	102.900	19.194	65.909	0.507
680.000	411.089	79.995	19.995	102.874	19.428	48.236	0.530
688.000	415.129	79.996	19.995	102.871	19.611	34.392	0.477
696.000	419.203	79.993	19.995	102.867	19.755	23.526	0.508
704.000	423.255	79.992	19.996	102.863	19.853	16.086	0.525
712.000	427.358	79.994	19.996	102.835	19.924	10.725	0.507
720.000	431.445	79.994	19.995	102.842	19.970	7.255	0.540
728.000	435.489	79.993	19.996	102.852	19.997	5.253	0.478
736.000	439.559	80.010	20.003	102.861	20.010	4.253	0.491
744.000	443.538	80.012	20.002	102.868	20.017	3.736	0.471
752.000	447.570	80.012	20.003	102.869	20.021	3.441	0.492
760.000	451.624	80.011	20.004	102.871	20.022	3.357	0.507
768.000	455.597	80.013	20.003	102.868	20.021	3.420	0.497
776.000	459.622	80.011	20.003	102.869	20.022	3.362	0.514
784.000	463.674	80.011	20.003	102.868	20.026	3.089	0.530
792.000	467.700	80.012	20.003	102.870	20.026	3.060	0.501
800.000	471.764	80.012	20.003	102.878	20.025	3.155	0.496
808.000	475.862	80.012	20.003	102.877	20.028	2.895	0.495
816.000	479.899	80.011	20.004	102.874	20.026	3.054	0.516
824.000	483.913	80.013	20.003	102.873	20.026	3.045	0.462
832.000	487.990	80.013	20.002	102.871	20.027	2.996	0.503
840.000	492.066	80.011	20.003	102.873	20.027	2.979	0.520
848.000	496.114	80.014	20.004	102.866	20.028	2.895	0.497
856.000	500.199	80.011	20.004	102.864	20.028	2.915	0.518
864.000	504.285	80.011	20.002	102.866	20.022	3.334	0.507
872.000	508.330	80.010	20.002	102.868	20.025	3.161	0.494
880.000	512.381	80.011	20.003	102.866	20.026	3.060	0.498
888.000	516.474	80.010	20.002	102.868	20.030	2.761	0.491
896.000	520.540	80.012	20.002	102.872	20.031	2.664	0.523
904.000	524.674	80.012	20.004	102.869	20.028	2.886	0.554
912.000	528.637	80.013	20.003	102.862	20.029	2.851	0.502
920.000	532.682	80.013	20.004	102.858	20.027	2.946	0.512
928.000	536.728	80.015	20.002	102.861	20.031	2.695	0.516
936.000	540.655	80.011	20.004	102.860	20.030	2.740	0.481
944.000	544.616	80.011	20.005	102.849	20.030	2.742	0.481
952.000	548.537	80.011	20.003	102.859	20.033	2.501	0.491
960.000	552.463	80.011	20.002	102.865	20.030	2.736	0.495
968.000	556.418	80.012	20.003	102.852	20.031	2.688	0.479
976.000	560.353	79.994	19.997	102.844	20.024	3.195	0.511
984.000	564.282	79.995	19.997	102.828	20.024	3.193	0.488
992.000	568.232	79.996	19.995	102.833	20.020	3.500	0.509
1000.000	572.309	80.012	20.003	102.856	20.024	3.224	0.520
1008.000	576.555	79.994	19.995	102.846	20.021	3.427	0.511
1016.000	580.767	79.993	19.996	102.853	20.026	3.018	0.535
1024.001	584.962	79.991	19.995	102.847	20.023	3.310	0.540
1032.000	589.172	79.993	19.996	102.829	20.025	3.152	0.508
1040.000	593.307	79.992	19.997	102.835	20.020	3.487	0.541
1048.000	597.490	79.994	19.996	102.827	20.023	3.245	0.497
1056.001	601.602	79.991	19.999	102.835	20.026	3.028	0.486
1064.000	605.794	79.993	19.996	102.835	20.024	3.238	0.480
1072.000	610.054	79.992	19.995	102.838	20.021	3.399	0.529
1080.000	614.329	79.993	19.996	102.835	20.021	3.418	0.533
1088.000	618.623	79.995	19.995	102.835	20.024	3.166	0.527
1096.000	622.909	79.994	19.996	102.839	20.023	3.256	0.539
1104.000	627.186	79.991	19.996	102.840	20.024	3.213	0.528
1112.000	631.399	79.992	19.996	102.827	20.024	3.184	0.525
1120.000	635.589	79.992	19.997	102.828	20.021	3.411	0.512
1128.000	639.682	79.991	19.996	102.835	20.024	3.201	0.497
1136.000	643.663	79.992	19.996	102.830	20.019	3.572	0.486
1144.000	647.665	79.993	19.994	102.831	20.022	3.361	0.495
1152.000	651.726	79.992	19.994	102.833	20.019	3.553	0.515
1160.000	655.747	79.992	19.996	102.835	20.022	3.380	0.541
1168.001	659.770	79.993	19.995	102.828	20.021	3.448	0.517
1176.000	663.852	79.995	19.995	102.826	20.020	3.520	0.505
1184.000	667.889	79.993	19.996	102.832	20.020	3.520	0.487
1192.000	671.929	79.992	19.996	102.827	20.017	3.695	0.509
1200.000	676.060	79.993	19.995	102.834	20.017	3.707	0.518
1208.000	680.090	79.992	19.996	102.838	20.016	3.773	0.498
1216.000	684.196	79.991	19.997	102.843	20.018	3.676	0.498
1224.001	688.326	79.995	19.996	102.830	20.014	3.938	0.527
1232.000	692.341	79.993	19.996	102.827	20.012	4.107	0.522
1240.000	696.370	79.994	19.995	102.831	20.013	4.002	0.532
1248.000	700.390	79.996	19.994	102.834	20.011	4.185	0.514
1256.000	704.383	79.994	19.994	102.827	20.015	3.909	0.485
1264.000	708.350	79.993	19.995	102.827	20.017	3.724	0.539
1272.000	712.327	79.993	19.994	102.831	20.012	4.115	0.512
1280.000	716.436	79.993	19.996	102.833	20.011	4.158	0.528
1288.000	720.606	79.994	19.996	102.830	20.013	4.062	0.517
1296.000	724.800	79.992	19.996	102.836	20.008	4.434	0.532
1304.000	728.964	79.993	19.996	102.828	20.008	4.375	0.526
1312.000	733.231	79.993	19.996	102.827	20.011	4.181	0.571
1320.000	737.430	79.994	19.995	102.826	20.010	4.241	0.567
1328.001	741.581	79.995	19.994	102.828	20.007	4.511	0.505
1331.500	743.384	79.994	19.994	102.830	20.006	4.575	0.549

File: PMMA_R06_MCC_30K_min_211015_R2.txt
Sample ID:	C:\MCC\MCC Cal\Test\PMMA_R06_MCC_30K_min_211015_R2.txt
Sample Weight (mg):	4.09
Heating Rate (C/s):	0.5
Combustor Temp (C):	900
N2 Flow Rate (cc/min):	80
O2 Flow Rate (cc/min):	20
Calibration File:	C:\MCC\MCC Cal\Coeff1 JN10440_30_210304.txt.txt
T Correction Coefficients:	0	1.024463	0
Time Shift (s):	14
*
Time (s)	Temperature (C)	N2 flow rate (cc/min)	O2 flow rate (cc/min)	Flow Rate (cc/min)	Oxygen (%)	HRR (W/g)	Heating rate (C/s)
0.000	106.657	79.996	19.995	102.724	20.024	-0.073	0.023
8.000	106.638	79.995	19.996	102.746	20.019	0.325	0.007
16.000	106.703	79.993	19.995	102.811	20.009	1.120	0.025
24.000	107.044	79.996	19.995	102.861	19.998	1.977	0.051
32.000	107.772	79.995	19.995	102.897	19.993	2.372	0.100
39.999	108.915	79.993	19.995	102.925	19.984	3.060	0.162
48.000	110.373	79.992	19.997	102.937	19.984	3.036	0.198
56.000	112.110	79.994	19.996	102.937	19.982	3.236	0.212
63.999	114.141	79.994	19.995	102.945	19.979	3.454	0.299
71.999	116.299	79.993	19.996	102.960	19.978	3.566	0.286
79.999	118.794	79.996	19.995	102.961	19.976	3.661	0.326
87.999	121.434	79.996	19.995	102.980	19.977	3.618	0.362
95.999	124.295	79.992	19.994	102.981	19.971	4.073	0.376
103.999	127.448	79.993	19.995	102.996	19.966	4.454	0.408
111.999	130.664	79.992	19.996	102.992	19.968	4.307	0.387
120.000	134.147	79.994	19.995	103.007	19.969	4.262	0.436
127.999	137.697	79.994	19.995	103.011	19.970	4.167	0.448
136.000	141.430	79.992	19.996	103.004	19.969	4.225	0.461
144.000	145.331	79.994	19.996	102.989	19.965	4.565	0.476
152.000	149.222	79.993	19.995	102.990	19.971	4.092	0.481
160.000	153.159	79.996	19.995	102.980	19.967	4.385	0.515
168.000	157.152	79.995	19.995	102.976	19.967	4.420	0.523
176.000	161.097	79.992	19.995	102.984	19.968	4.334	0.490
184.000	165.170	79.993	19.996	102.973	19.970	4.180	0.522
192.000	169.169	79.994	19.995	102.963	19.972	4.043	0.503
200.000	173.110	79.994	19.996	102.942	19.972	3.996	0.500
208.000	177.019	79.993	19.996	102.941	19.970	4.127	0.517
216.000	180.939	79.993	19.995	102.953	19.970	4.161	0.473
224.000	184.854	79.994	19.997	102.967	19.967	4.373	0.502
232.000	188.845	79.993	19.997	102.952	19.971	4.092	0.487
240.000	192.828	79.994	19.996	102.955	19.970	4.161	0.488
248.000	196.787	79.997	19.995	102.944	19.968	4.305	0.476
256.000	200.814	79.993	19.996	102.944	19.968	4.325	0.496
264.000	204.849	79.993	19.995	102.941	19.969	4.219	0.502
272.000	208.863	79.994	19.996	102.920	19.970	4.185	0.531
280.000	212.746	79.994	19.995	102.935	19.966	4.470	0.457
288.000	216.632	79.992	19.996	102.915	19.968	4.352	0.465
296.000	220.519	79.993	19.996	102.932	19.967	4.420	0.483
304.000	224.412	79.995	19.995	102.923	19.972	4.008	0.481
312.000	228.274	79.994	19.995	102.906	19.966	4.467	0.526
320.000	232.184	79.994	19.996	102.917	19.967	4.422	0.503
328.000	236.031	79.995	19.996	102.934	19.961	4.853	0.458
336.000	239.983	79.993	19.996	102.923	19.962	4.814	0.481
344.000	244.086	79.994	19.995	102.939	19.956	5.244	0.511
352.000	248.160	79.994	19.995	102.930	19.950	5.707	0.484
360.000	252.370	79.995	19.996	102.935	19.945	6.141	0.492
368.000	256.471	79.993	19.996	102.911	19.935	6.884	0.485
376.000	260.559	79.993	19.994	102.911	19.922	7.936	0.513
384.000	264.642	79.994	19.995	102.910	19.905	9.262	0.510
392.000	268.662	79.993	19.995	102.918	19.888	10.594	0.505
400.000	272.685	79.995	19.996	102.906	19.864	12.498	0.486
408.000	276.619	79.996	19.996	102.905	19.836	14.671	0.464
416.000	280.587	79.994	19.996	102.925	19.802	17.355	0.506
424.000	284.460	79.994	19.996	102.913	19.767	20.120	0.467
432.000	288.322	79.994	19.996	102.940	19.697	25.599	0.484
440.000	292.259	79.995	19.995	102.857	19.661	28.437	0.471
448.000	296.173	79.993	19.996	102.946	19.663	28.236	0.510
456.000	300.135	79.994	19.995	102.927	19.660	28.495	0.494
464.000	304.186	79.996	19.993	102.922	19.669	27.769	0.486
472.000	308.211	79.995	19.994	102.927	19.673	27.493	0.510
480.000	312.382	79.996	19.996	102.926	19.669	27.816	0.543
488.000	316.479	79.996	19.995	102.935	19.650	29.235	0.506
496.000	320.599	79.995	19.995	102.914	19.582	34.622	0.508
504.000	324.644	79.992	19.997	102.982	19.545	37.517	0.454
512.000	328.788	79.992	19.997	102.960	19.499	41.122	0.532
520.000	332.843	79.994	19.997	102.949	19.417	47.610	0.518
528.000	336.828	79.994	19.995	102.958	19.331	54.391	0.506
536.000	340.811	79.994	19.996	102.976	19.203	64.444	0.475
544.000	344.790	79.995	19.996	103.010	19.059	75.902	0.515
552.000	348.721	79.995	19.995	103.081	18.693	104.699	0.515
560.000	352.682	79.995	19.995	102.836	18.497	120.020	0.506
568.000	356.712	79.994	19.995	103.058	18.150	147.136	0.485
576.000	361.153	79.994	19.995	103.027	17.851	170.852	0.469
584.000	365.247	79.993	19.996	103.571	17.396	207.098	0.636
592.000	369.309	79.993	19.995	103.102	17.134	227.003	0.541
600.000	373.587	79.993	19.995	103.031	17.053	233.788	0.538
608.000	378.005	79.994	19.998	103.065	17.351	210.119	0.553
616.000	382.447	79.994	19.995	103.151	17.566	193.129	0.528
624.000	386.771	79.994	19.994	103.093	17.730	180.243	0.560
632.000	391.027	79.994	19.994	103.037	17.948	163.032	0.540
640.000	395.288	79.994	19.994	103.011	18.235	140.462	0.521
648.000	399.518	79.996	19.995	102.982	18.559	114.994	0.540
656.000	403.690	79.994	19.995	102.941	18.868	90.686	0.523
664.000	407.780	79.992	19.996	102.911	19.157	67.934	0.506
672.000	411.841	79.995	19.993	102.896	19.396	49.186	0.500
680.000	415.896	79.994	19.996	102.882	19.588	34.102	0.486
688.000	419.930	79.993	19.995	102.885	19.732	22.817	0.506
696.000	423.948	79.993	19.998	102.867	19.825	15.507	0.497
704.000	427.964	79.994	19.994	102.868	19.894	10.103	0.491
712.000	431.977	79.995	19.995	102.859	19.936	6.825	0.515
720.000	436.004	79.995	19.996	102.859	19.960	4.933	0.491
728.000	440.034	79.997	19.995	102.855	19.967	4.432	0.475
736.000	444.050	79.996	19.994	102.861	19.977	3.642	0.465
744.000	448.033	79.995	19.996	102.865	19.982	3.237	0.517
752.000	452.134	79.994	19.995	102.866	19.980	3.389	0.524
760.000	456.278	79.993	19.996	102.865	19.980	3.413	0.518
768.000	460.367	79.993	19.995	102.867	19.977	3.612	0.521
776.000	464.412	79.995	19.995	102.867	19.980	3.363	0.495
784.000	468.458	79.996	19.996	102.862	19.983	3.166	0.494
792.000	472.508	79.996	19.996	102.861	19.984	3.034	0.509
800.000	476.570	79.996	19.994	102.857	19.983	3.139	0.524
808.000	480.614	79.995	19.994	102.852	19.981	3.282	0.506
816.000	484.595	79.996	19.994	102.861	19.979	3.436	0.477
824.000	488.645	79.995	19.993	102.864	19.981	3.282	0.500
832.000	492.720	80.001	19.992	102.859	19.986	2.916	0.516
840.000	496.871	79.995	19.995	102.860	19.989	2.655	0.539
848.000	500.940	79.995	19.995	102.858	19.989	2.631	0.523
856.000	504.994	79.990	20.000	102.856	19.983	3.173	0.524
864.000	509.142	79.994	19.996	102.863	19.979	3.425	0.506
872.000	513.245	79.993	19.997	102.860	19.977	3.633	0.532
880.000	517.450	79.993	19.995	102.855	19.983	3.111	0.539
888.000	521.636	79.994	19.997	102.863	19.986	2.918	0.533
896.000	525.858	79.993	19.993	102.861	19.981	3.306	0.506
904.000	530.074	79.994	19.995	102.849	19.980	3.378	0.530
912.000	534.302	79.993	19.994	102.861	19.984	3.072	0.543
920.000	538.464	79.990	19.995	102.847	19.981	3.308	0.486
928.000	542.643	79.995	19.997	102.850	19.983	3.126	0.525
936.000	546.730	79.990	19.993	102.860	19.985	2.986	0.484
944.000	550.858	79.995	19.991	102.852	19.985	2.995	0.511
952.000	554.872	79.995	19.995	102.851	19.981	3.288	0.497
960.000	558.828	79.993	20.000	102.837	19.986	2.873	0.472
968.000	562.824	79.992	19.993	102.857	19.985	2.978	0.513
976.000	566.807	79.995	19.993	102.848	19.984	3.059	0.518
984.000	570.886	79.991	20.003	102.834	19.981	3.333	0.544
992.000	575.085	79.996	19.996	102.852	19.979	3.468	0.519
1000.000	579.228	79.990	19.996	102.848	19.980	3.378	0.563
1008.000	583.439	79.993	19.997	102.843	19.982	3.249	0.521
1016.000	587.658	79.991	19.995	102.849	19.981	3.316	0.533
1024.000	591.786	79.994	19.994	102.847	19.981	3.290	0.543
1031.999	595.978	79.995	20.002	102.845	19.985	2.992	0.508
1039.999	600.097	79.998	19.994	102.834	19.982	3.250	0.493
1047.999	604.171	79.993	19.996	102.838	19.980	3.395	0.499
1055.999	608.253	79.995	19.998	102.840	19.980	3.362	0.516
1063.999	612.410	79.991	19.997	102.841	19.977	3.609	0.503
1072.000	616.459	79.993	19.994	102.840	19.984	3.046	0.530
1079.999	620.590	79.994	19.994	102.845	19.982	3.198	0.497
1087.999	624.694	79.994	19.994	102.853	19.983	3.170	0.502
1095.999	628.780	79.992	19.996	102.854	19.985	3.012	0.542
1103.999	632.881	79.997	19.996	102.844	19.980	3.335	0.478
1111.999	636.971	79.994	19.995	102.840	19.982	3.204	0.477
1119.999	640.983	79.994	19.995	102.835	19.980	3.391	0.521
1127.999	644.989	79.993	19.996	102.828	19.980	3.362	0.482
1135.999	649.013	79.994	19.993	102.838	19.982	3.178	0.509
1143.999	653.076	79.992	19.998	102.833	19.983	3.127	0.500
1151.999	657.186	79.988	19.999	102.832	19.981	3.257	0.539
1159.999	661.278	79.993	19.995	102.836	19.980	3.337	0.495
1168.000	665.299	79.991	19.997	102.829	19.984	3.033	0.480
1176.000	669.328	79.994	19.995	102.828	19.982	3.225	0.527
1183.999	673.369	79.995	19.996	102.829	19.984	3.058	0.498
1191.999	677.446	79.996	19.995	102.835	19.979	3.422	0.527
1199.999	681.466	79.996	19.998	102.827	19.977	3.645	0.507
1207.999	685.463	79.993	19.997	102.832	19.977	3.645	0.536
1215.999	689.328	79.993	20.001	102.825	19.981	3.262	0.472
1223.999	693.203	79.995	19.997	102.826	19.979	3.476	0.505
1231.999	697.068	79.994	19.995	102.826	19.983	3.129	0.465
1240.000	701.053	79.993	19.998	102.827	19.980	3.345	0.493
1247.999	705.210	79.992	19.996	102.828	19.980	3.365	0.521
1256.000	709.412	79.993	19.996	102.833	19.978	3.497	0.516
1264.000	713.701	79.993	19.995	102.836	19.980	3.345	0.509
1271.999	717.978	79.995	19.994	102.839	19.978	3.528	0.545
1279.999	722.259	79.996	19.994	102.828	19.976	3.653	0.525
1287.999	726.372	79.995	19.995	102.830	19.975	3.782	0.507
1295.999	730.542	79.996	19.994	102.830	19.973	3.953	0.521
1303.999	734.680	79.994	19.997	102.835	19.975	3.748	0.492
1311.999	738.753	79.996	19.997	102.825	19.975	3.780	0.527
1319.999	742.869	79.995	19.995	102.827	19.975	3.786	0.491
1321.499	743.604	79.993	19.996	102.826	19.977	3.606	0.504