Folder: fsri_materials_database/01_Data/PMMA_R06/MCC (part 2)

File: PMMA_R06_MCC_30K_min_211015_R3.txt
Sample ID:	C:\MCC\MCC Cal\Test\PMMA_R06_MCC_30K_min_211015_R3.txt
Sample Weight (mg):	4.86
Heating Rate (C/s):	0.5
Combustor Temp (C):	900
N2 Flow Rate (cc/min):	80
O2 Flow Rate (cc/min):	20
Calibration File:	C:\MCC\MCC Cal\Coeff1 JN10440_30_210304.txt.txt
T Correction Coefficients:	0	1.024463	0
Time Shift (s):	14
*
Time (s)	Temperature (C)	N2 flow rate (cc/min)	O2 flow rate (cc/min)	Flow Rate (cc/min)	Oxygen (%)	HRR (W/g)	Heating rate (C/s)
0.000	108.474	79.990	19.999	102.709	20.015	0.076	0.015
8.000	108.395	79.994	19.995	102.721	20.013	0.203	-0.030
16.000	108.496	79.996	19.995	102.762	20.009	0.475	0.044
24.000	108.649	79.997	19.994	102.748	20.008	0.528	0.033
32.000	109.008	79.996	19.997	102.846	19.996	1.321	0.055
40.000	109.719	79.998	19.990	102.894	19.988	1.881	0.120
48.000	110.870	79.996	19.995	102.915	19.982	2.268	0.167
56.000	112.378	79.996	19.996	102.942	19.979	2.481	0.234
64.000	114.238	79.994	19.995	102.943	19.977	2.571	0.229
72.000	116.464	79.995	19.996	102.950	19.974	2.813	0.297
80.001	118.910	79.997	19.994	102.955	19.971	2.997	0.329
88.000	121.608	79.994	19.995	102.961	19.967	3.261	0.354
96.000	124.491	79.996	19.997	102.968	19.967	3.256	0.372
104.000	127.602	79.998	19.994	102.975	19.972	2.908	0.383
112.000	130.867	79.995	19.993	102.977	19.970	3.039	0.428
120.001	134.326	79.994	19.996	102.965	19.970	3.033	0.451
128.000	137.788	79.996	19.997	102.965	19.970	3.084	0.456
136.000	141.314	79.993	19.997	102.978	19.971	2.976	0.450
144.000	145.043	79.995	19.996	102.975	19.972	2.917	0.477
152.000	148.807	79.996	19.995	102.971	19.969	3.095	0.467
160.000	152.697	79.997	19.994	102.960	19.963	3.519	0.509
168.000	156.490	79.998	19.995	102.967	19.971	2.986	0.477
176.000	160.417	79.997	19.995	102.953	19.972	2.918	0.485
184.000	164.445	79.998	19.995	102.954	19.972	2.943	0.512
192.000	168.395	79.994	19.994	102.951	19.969	3.114	0.485
200.000	172.370	79.994	19.995	102.950	19.966	3.303	0.487
208.000	176.462	79.994	19.996	102.947	19.965	3.399	0.499
216.000	180.505	79.995	19.996	102.947	19.969	3.146	0.498
224.000	184.629	79.994	19.994	102.944	19.966	3.325	0.543
232.000	188.757	79.996	19.995	102.937	19.966	3.339	0.521
240.000	192.893	79.996	19.995	102.939	19.965	3.373	0.505
248.000	196.915	79.996	19.994	102.938	19.965	3.409	0.480
256.000	200.940	79.998	19.994	102.930	19.966	3.331	0.503
264.000	204.972	80.001	19.993	102.909	19.964	3.457	0.523
272.000	208.955	79.994	19.999	102.907	19.964	3.426	0.493
280.000	212.889	79.995	19.994	102.899	19.966	3.340	0.491
288.000	216.763	79.995	19.995	102.909	19.959	3.767	0.486
296.000	220.631	79.993	19.994	102.902	19.955	4.029	0.487
304.000	224.472	79.993	19.998	102.906	19.954	4.124	0.495
312.000	228.347	79.994	19.995	102.908	19.955	4.050	0.479
320.000	232.264	79.995	19.995	102.903	19.952	4.260	0.484
328.000	236.222	79.994	19.996	102.896	19.954	4.131	0.497
336.000	240.137	79.997	19.994	102.903	19.946	4.627	0.487
344.000	244.066	79.993	20.001	102.898	19.941	4.968	0.507
352.000	248.033	79.997	19.995	102.902	19.934	5.447	0.473
360.000	252.058	80.001	19.992	102.899	19.923	6.189	0.508
368.000	256.065	79.996	19.995	102.899	19.912	6.914	0.503
376.000	259.959	79.993	19.994	102.903	19.884	8.759	0.522
384.000	263.889	79.993	19.996	102.904	19.855	10.635	0.494
392.000	267.823	79.994	19.996	102.909	19.822	12.862	0.519
400.000	271.822	79.995	19.995	102.900	19.781	15.545	0.506
408.000	275.763	79.994	19.995	102.918	19.735	18.574	0.486
416.000	279.670	79.997	19.996	102.926	19.680	22.219	0.503
424.000	283.615	79.996	19.994	102.937	19.632	25.401	0.527
432.000	287.635	79.995	19.993	102.940	19.587	28.385	0.516
440.000	291.678	79.994	19.996	102.939	19.549	30.862	0.542
448.000	295.710	79.994	19.995	102.942	19.531	32.049	0.506
456.000	299.700	79.993	19.995	102.935	19.530	32.110	0.493
464.000	303.714	79.991	19.999	102.909	19.554	30.566	0.524
472.000	307.812	79.995	19.996	102.927	19.584	28.529	0.512
480.000	311.973	79.994	19.996	102.909	19.610	26.812	0.525
488.000	316.111	79.993	19.998	102.913	19.615	26.501	0.514
496.000	320.264	79.995	19.996	102.925	19.595	27.849	0.529
504.000	324.377	79.996	19.995	102.932	19.558	30.269	0.502
512.000	328.459	79.994	19.989	102.964	19.461	36.672	0.502
520.000	332.568	79.995	19.995	102.951	19.392	41.228	0.536
528.000	336.639	79.995	19.995	102.973	19.296	47.629	0.480
536.000	340.684	79.998	19.992	102.978	19.173	55.737	0.474
544.000	344.668	79.995	19.994	102.975	19.027	65.395	0.526
552.000	348.631	79.994	19.995	102.971	18.887	74.693	0.481
560.000	352.565	79.997	19.996	103.121	18.572	95.858	0.498
568.000	356.536	79.993	19.999	103.218	18.029	131.897	0.516
576.000	360.413	79.996	19.996	102.970	17.463	169.517	0.483
584.000	364.278	79.995	20.000	102.793	17.085	193.822	0.469
592.000	368.234	79.994	19.997	102.904	16.752	215.916	0.500
600.000	372.299	79.998	19.991	103.159	16.661	222.108	0.548
608.000	376.399	79.993	19.996	103.145	16.748	216.300	0.528
616.000	380.683	79.995	19.995	103.130	16.982	200.883	0.555
624.000	385.023	79.992	19.994	103.154	17.259	182.558	0.560
632.000	389.362	79.990	20.002	103.028	17.527	164.627	0.561
640.000	393.631	79.995	19.996	103.020	17.841	143.793	0.500
648.000	397.811	79.994	19.996	102.995	18.205	119.675	0.500
656.000	402.172	79.995	19.990	102.939	18.583	94.693	0.616
664.000	406.268	79.997	19.995	102.914	18.937	71.276	0.534
672.000	410.449	79.995	19.996	102.890	19.235	51.576	0.503
680.000	414.528	79.996	19.994	102.933	19.479	35.455	0.500
688.000	418.518	79.995	19.994	102.868	19.665	23.176	0.469
696.000	422.582	79.994	19.994	102.859	19.788	15.048	0.509
704.000	426.676	79.993	19.994	102.911	19.879	9.047	0.524
712.000	430.661	79.996	19.995	102.842	19.929	5.740	0.500
720.000	434.753	79.995	19.997	102.821	19.959	3.754	0.530
728.000	438.619	79.996	19.996	102.822	19.982	2.282	0.464
736.000	442.645	79.996	19.996	102.819	19.990	1.762	0.514
744.000	446.623	79.994	19.996	102.822	19.992	1.628	0.510
752.000	450.662	79.996	19.994	102.819	19.997	1.266	0.519
760.000	454.668	79.997	19.995	102.836	19.997	1.290	0.499
768.000	458.714	79.994	19.995	102.826	19.995	1.399	0.514
776.000	462.684	79.993	19.996	102.820	20.000	1.091	0.492
784.000	466.714	79.995	19.996	102.826	19.998	1.207	0.508
792.000	470.846	79.999	19.993	102.827	20.001	1.027	0.468
800.000	475.048	79.996	19.992	102.821	20.006	0.692	0.537
808.000	479.128	79.996	19.996	102.823	20.006	0.641	0.492
816.000	483.248	79.997	19.996	102.834	20.006	0.670	0.526
824.000	487.438	79.994	19.996	102.833	20.006	0.670	0.517
832.000	491.654	79.993	19.996	102.835	20.003	0.865	0.558
840.000	495.860	79.995	19.997	102.824	20.006	0.693	0.486
848.000	500.046	79.995	19.996	102.829	20.007	0.589	0.508
856.000	504.270	79.995	19.995	102.830	20.005	0.708	0.539
864.000	508.413	79.995	19.994	102.821	20.008	0.566	0.525
872.000	512.612	79.998	19.995	102.826	20.011	0.322	0.514
880.000	516.877	79.996	19.995	102.827	20.009	0.494	0.563
888.000	521.009	79.995	19.996	102.826	20.012	0.301	0.532
896.000	525.146	79.998	19.996	102.835	20.013	0.196	0.480
904.000	529.316	79.994	19.995	102.819	20.010	0.418	0.506
912.000	533.388	79.995	19.996	102.831	20.011	0.331	0.543
920.000	537.435	79.994	19.996	102.822	20.010	0.439	0.478
928.000	541.574	79.994	19.996	102.821	20.011	0.371	0.512
936.000	545.622	79.992	19.995	102.823	20.007	0.585	0.493
944.000	549.723	79.996	19.996	102.827	20.006	0.652	0.516
952.000	553.778	79.996	19.996	102.824	20.009	0.477	0.504
960.000	557.893	79.996	19.996	102.830	20.009	0.481	0.549
968.000	561.885	79.998	19.995	102.820	20.011	0.337	0.482
976.000	565.943	79.998	19.996	102.821	20.009	0.502	0.489
984.000	570.012	79.995	19.996	102.821	20.008	0.571	0.503
992.000	574.083	79.994	19.997	102.822	20.006	0.666	0.539
1000.000	578.158	79.994	19.996	102.825	20.003	0.850	0.494
1008.000	582.155	79.991	19.996	102.823	20.006	0.672	0.482
1016.000	586.202	79.994	19.997	102.827	20.004	0.773	0.530
1024.000	590.240	79.996	19.996	102.824	20.007	0.618	0.494
1032.000	594.324	79.996	19.995	102.825	20.007	0.620	0.500
1040.000	598.375	79.996	19.996	102.823	20.006	0.692	0.500
1048.000	602.475	80.000	19.994	102.810	20.008	0.522	0.498
1056.000	606.519	79.996	19.995	102.810	20.007	0.578	0.507
1064.000	610.500	79.995	19.997	102.822	20.003	0.841	0.493
1072.000	614.582	79.995	19.996	102.824	20.007	0.594	0.514
1080.001	618.562	79.993	19.997	102.821	20.010	0.385	0.530
1088.000	622.595	79.995	19.995	102.822	20.008	0.519	0.513
1096.000	626.609	79.993	19.997	102.820	20.006	0.704	0.481
1104.000	630.685	79.994	19.997	102.818	20.008	0.511	0.517
1112.000	634.756	79.995	19.996	102.808	20.004	0.774	0.521
1120.000	638.843	79.995	19.995	102.806	20.006	0.666	0.496
1128.000	642.892	79.997	19.995	102.822	20.008	0.513	0.501
1136.000	647.017	79.995	19.997	102.820	20.008	0.537	0.518
1144.000	651.063	79.996	19.996	102.817	20.007	0.636	0.470
1152.000	655.118	79.995	19.996	102.818	20.007	0.619	0.487
1160.000	659.169	79.996	19.996	102.818	20.005	0.742	0.536
1168.000	663.117	79.994	19.996	102.820	20.008	0.560	0.464
1176.000	667.165	79.994	19.996	102.818	20.008	0.562	0.511
1184.000	671.097	79.995	19.996	102.799	20.002	0.960	0.492
1192.000	674.995	79.995	19.996	102.813	20.004	0.794	0.524
1200.000	678.976	79.996	19.995	102.825	20.005	0.724	0.530
1208.001	683.040	79.996	19.994	102.826	20.002	0.906	0.509
1216.000	687.222	79.996	19.996	102.817	20.003	0.868	0.534
1224.000	691.560	79.994	19.995	102.822	20.006	0.706	0.532
1232.000	695.914	79.996	19.995	102.819	20.002	0.909	0.547
1240.000	700.236	79.996	19.994	102.818	20.007	0.614	0.527
1248.000	704.518	79.994	19.996	102.813	20.004	0.828	0.533
1256.000	708.804	79.995	19.993	102.819	20.006	0.670	0.524
1264.000	712.999	79.996	19.995	102.802	20.008	0.517	0.511
1272.000	717.234	79.998	19.995	102.801	20.003	0.854	0.514
1280.000	721.414	79.997	19.996	102.793	20.008	0.535	0.504
1288.000	725.464	79.998	19.994	102.808	20.003	0.888	0.487
1296.000	729.517	79.996	19.995	102.805	20.008	0.513	0.489
1304.000	733.548	79.996	19.995	102.812	20.004	0.825	0.493
1312.000	737.621	79.996	19.996	102.823	20.010	0.385	0.501
1320.000	741.655	79.996	19.994	102.819	20.008	0.510	0.491
1324.000	743.693	79.993	19.994	102.814	20.007	0.605	0.507