Folder: fsri_materials_database/01_Data/Polyurethane_Foam/Cone

Note: 01_Data/README.md
# Materials and Products Database
## 01_Data

Raw data generated from each apparatus are included here in plain-text format. The data is organized first by material, next by the short name of test apparatus used, and where applicable additional filtering by test settings.

### material.json

Each material directory contains a json file of the same name as the material. This file links the data stored in the repository as well as data and graphs produced by the accompanying scripts (__02_Scripts__) to the respective landing page for the material on the front-end website.

File: Polyurethane_Foam_Cone_HF25Scalar_210324_R1.csv
LABORATORY,FSRI
TEST IDENT,PUF-HF25-1
OPERATOR,Morrissey
MATERIAL,1'' PUF
ORIENTATION,Horizontal
HEAT FLUX,25
SURF AREA,0.01
C FACTOR,0.0386052
SPEC HOLDER DIFF,-97.4
SPECIMEN MASS,7.7
SCAN TIME,0.25
O2 DELAY TIME,11
CO DELAY TIME,11
CO2 DELAY TIME,8
FLOW FACTOR,1
SCAN COUNT,836
TIME TO IGN,5.5
END OF TEST SCAN,356
END OF TEST TIME,89
TEST STATUS,1
PRE TEST CMT,test w/o retainer grid or frame

File: Polyurethane_Foam_Cone_HF25Scalar_210324_R2.csv
LABORATORY,FSRI
TEST IDENT,PUF-HF25-2
OPERATOR,Morrissey
MATERIAL,1'' PUF
ORIENTATION,Horizontal
HEAT FLUX,25
SURF AREA,0.01
C FACTOR,0.0386052
SPEC HOLDER DIFF,-90.39
SPECIMEN MASS,7.8
SCAN TIME,0.25
O2 DELAY TIME,11
CO DELAY TIME,11
CO2 DELAY TIME,8
FLOW FACTOR,1
SCAN COUNT,903
TIME TO IGN,5.25
END OF TEST SCAN,423
END OF TEST TIME,105.75
TEST STATUS,1
PRE TEST CMT,test w/o retainer grid or frame
POST TEST CMT,Corner of foil lifted and remained raise for duration of the test.

File: Polyurethane_Foam_Cone_HF25Scan_210324_R1.csv
Names,Time,Stack TC,Smoke TC,Exh Press,Smoke Comp,Smoke Meas,CO Meter,CO2 Meter,O2 Meter,Sample Mass,Ext Coeff,Start Test,Flame Verif
Chan Gain,,500,500,1,1,1,1,1,1,1,1,1.0,1.0
Offset,,0,0,0.194005,0,0,0,0,0,0,0,0.0,0.0
Gain,,1,1,25.011,13.5067,16.616,1,1,1,1.00091,1.04608,1.0,1.0
Units,sec,C,C,Pa,%,%,%,%,%,g,/m,,
Baseline,,16.1463,17.502,169.282,100.327,99.717,0.000408938,0.0666547,20.9096,-1.17916,0.0559596,,
9,2,14.1528,15.3221,167.688,101.945,101.377,0.000535235,0.0804785,20.8846,476.274,0.0512634,0.0,0.0
18,4.25,14.8418,15.6328,167.338,101.944,100.061,0.000735566,0.0826879,20.8846,476.224,0.171,0.0,0.0
27,6.5,14.7672,16.4111,155.87,101.95,97.3597,0.00129189,0.0895469,20.8282,476.043,0.422723,0.0,1.0
36,8.75,17.2349,20.1335,157.58,101.933,93.2731,0.00234469,0.11949,20.7211,475.853,0.814675,0.0,1.0
45,11,18.36,22.3566,154.746,101.906,92.3371,0.00382833,0.155085,20.6517,475.643,0.904854,0.0,0.0
54,13.25,20.244,24.5168,153.436,101.896,89.7287,0.00528444,0.193242,20.6014,475.453,1.16684,0.0,0.0
63,15.5,21.6453,26.5767,160.897,101.861,91.87,0.00639362,0.230072,20.5602,475.283,0.947262,0.0,0.0
72,17.75,22.2539,29.1248,150.348,101.822,87.2992,0.0077504,0.261754,20.5295,475.062,1.41206,0.0,0.0
81,20,23.9919,30.3614,154.717,101.774,86.4205,0.00958766,0.289992,20.4919,474.822,1.50055,0.0,0.0
90,22.25,25.0555,31.8805,158.619,101.721,84.9266,0.0113915,0.319746,20.4411,474.522,1.65576,0.0,0.0
99,24.5,26.4972,33.9059,155.081,101.669,86.9894,0.0123629,0.350232,20.4103,474.302,1.43085,0.0,0.0
108,26.75,27.5499,35.4785,150.91,101.626,84.0139,0.012555,0.374751,20.385,474.021,1.74639,0.0,0.0
117,29,29.4874,38.564,152.58,101.579,90.1881,0.011877,0.407137,20.3144,473.781,1.09138,0.0,0.0
126,31.25,31.4709,41.6134,145.701,101.516,94.7634,0.0104767,0.440484,20.2596,473.461,0.631591,0.0,0.0
135,33.5,33.5921,45.3027,138.956,101.465,95.6488,0.00879993,0.470409,20.217,473.101,0.541711,0.0,0.0
144,35.75,36.2788,48.814,140.594,101.408,94.4972,0.00762346,0.500788,20.16,472.84,0.647676,0.0,0.0
153,38,39.1111,53.6335,142.03,101.368,97.6193,0.00697683,0.534984,20.0936,472.54,0.345789,0.0,0.0
162,40.25,42.5654,58.095,142.108,101.327,94.9992,0.00659076,0.571926,20.0196,472.13,0.591707,0.0,0.0
171,42.5,45.6169,63.6052,132.059,101.269,98.9423,0.00630513,0.614089,19.9397,471.829,0.213269,0.0,0.0
180,44.75,48.9465,67.6357,132.771,101.23,99.6765,0.00605453,0.657482,19.8835,471.469,0.141876,0.0,0.0
189,47,51.5545,72.1273,132.801,101.216,99.8819,0.00586681,0.69331,19.8588,471.079,0.121756,0.0,0.0
198,49.25,53.9566,75.3494,141.104,101.175,99.7029,0.00590516,0.719582,19.8494,470.829,0.134516,0.0,0.0
207,51.5,55.3587,77.3904,139.934,101.139,98.3252,0.00594759,0.736821,19.8655,470.508,0.258946,0.0,0.0
216,53.75,56.3456,78.9695,133.436,101.153,100.747,0.00571191,0.743699,19.8873,470.158,0.0369413,0.0,0.0
225,56,56.9078,79.6276,138.184,101.244,98.7019,0.00526898,0.743048,19.9252,469.838,0.233308,0.0,0.0
234,58.25,56.5965,78.9744,142.875,101.323,100.078,0.00503636,0.733728,19.9656,469.617,0.113465,0.0,0.0
243,60.5,57.4456,79.0809,132.752,101.374,98.4347,0.00499524,0.720966,19.9927,469.297,0.269948,0.0,0.0
252,62.75,56.6615,78.1577,141.181,101.433,97.3997,0.00508274,0.704511,20.0308,469.107,0.372344,0.0,0.0
261,65,56.3542,76.3172,145.556,101.49,97.56,0.00514911,0.682518,20.0983,468.897,0.362368,0.0,0.0
270,67.25,55.1517,73.4584,156.167,101.52,98.1634,0.00504886,0.648826,20.1978,468.757,0.308544,0.0,0.0
279,69.5,53.0949,69.2903,150.853,101.573,100.045,0.0045717,0.600202,20.3084,468.707,0.139082,0.0,0.0
288,71.75,50.4481,65.7876,154.095,101.601,99.4134,0.00400005,0.542015,20.4133,468.597,0.199701,0.0,0.0
297,74,49.4489,61.9597,163.002,101.64,98.9448,0.00350932,0.490043,20.4852,468.557,0.246625,0.0,0.0
306,76.25,46.1225,59.7778,158.035,101.647,100.197,0.00310276,0.44011,20.5595,468.496,0.13184,0.0,0.0
315,78.5,44.1773,56.4131,163.828,101.674,100.255,0.00284818,0.390399,20.64,468.476,0.12904,0.0,0.0
324,80.75,41.7177,52.4037,164.549,101.692,101.027,0.00260825,0.345297,20.7019,468.456,0.0602245,0.0,0.0
333,83,40.4049,47.93,163.003,101.698,101.286,0.0023103,0.301467,20.753,468.456,0.0372409,0.0,0.0
342,85.25,37.6375,45.1054,164.569,101.705,101.49,0.00208107,0.261504,20.8003,468.436,0.0194613,0.0,0.0
351,87.5,36.6652,41.4587,160.985,101.727,101.491,0.00188368,0.226622,20.8331,468.436,0.0212939,0.0,0.0
360,89.75,33.6422,38.9809,163.332,101.735,101.376,0.00158281,0.19658,20.8551,468.436,0.0324134,0.0,0.0
369,92,32.6374,36.6101,163.113,101.715,101.629,0.00123448,0.171392,20.8717,468.436,0.00776325,0.0,0.0
378,94.25,31.2207,35.6549,166.166,101.72,101.298,0.000976181,0.150581,20.8813,468.436,0.0381919,0.0,0.0
387,96.5,29.5402,33.0949,161.142,101.721,101.354,0.000877512,0.134987,20.888,468.436,0.0331317,0.0,0.0
396,98.75,29.4553,31.1311,165.009,101.718,101.226,0.000869423,0.121062,20.8936,468.476,0.0444851,0.0,0.0
405,101,28.1952,30.6501,167.433,101.696,101.61,0.00084554,0.110192,20.898,468.466,0.00778402,0.0,0.0
414,103.25,27.5641,28.9796,164.556,101.69,101.227,0.000888302,0.102348,20.9002,468.456,0.0418644,0.0,0.0
423,105.5,27.6245,28.2646,165.698,101.686,101.293,0.000940501,0.0961514,20.9011,468.456,0.0355194,0.0,0.0
432,107.75,26.4476,27.8043,168.197,101.682,101.444,0.000857523,0.0908435,20.9025,468.446,0.0214685,0.0,0.0
441,110,25.5254,26.7446,170.236,101.666,101.208,0.000631861,0.0868316,20.9034,468.456,0.0414082,0.0,0.0
450,112.25,25.8754,26.0218,165.765,101.647,101.136,0.000433885,0.0834843,20.9037,468.436,0.0462353,0.0,0.0
459,114.5,24.6467,25.9439,164.446,101.643,101.229,0.000295626,0.0811226,20.9038,468.466,0.0374479,0.0,0.0
468,116.75,25.4065,25.2948,162.249,101.619,101.37,0.000200306,0.0788711,20.9052,468.426,0.0224746,0.0,0.0
477,119,24.0394,25.0262,162.39,101.623,101.223,9.5222e-05,0.0770656,20.9047,468.416,0.0362135,0.0,0.0
486,121.25,24.1038,24.0191,163.503,101.607,101.171,0.00015163,0.0755683,20.9033,468.466,0.0394054,0.0,0.0
495,123.5,23.9546,23.9395,166.048,101.568,101.173,0.00034833,0.074097,20.9041,468.396,0.0357678,0.0,0.0
504,125.75,23.4968,23.9474,166.456,101.55,101.23,0.000484069,0.0729445,20.9059,468.446,0.0289334,0.0,0.0
513,128,23.9542,23.4824,164.229,101.541,101.118,0.00047002,0.0719222,20.9066,468.486,0.038278,0.0,0.0
522,130.25,23.7647,23.7572,162.768,101.523,101.169,0.000373277,0.071475,20.9069,468.476,0.0319926,0.0,0.0
531,132.5,23.5156,23.2206,170.371,101.502,101.102,0.000293218,0.0711474,20.9068,468.446,0.0362484,0.0,0.0
540,134.75,23.4841,22.8079,170.47,101.493,101.165,0.000281624,0.070863,20.9064,468.436,0.0297152,0.0,0.0
549,137,23.1026,23.3069,167.972,101.476,100.857,0.000393043,0.0705579,20.9074,468.486,0.0562028,0.0,0.0
558,139.25,22.8878,22.9272,168.281,101.447,100.961,0.000494558,0.0699971,20.9081,468.436,0.0440942,0.0,0.0
567,141.5,22.794,22.7744,164.67,101.419,101.026,0.000512919,0.0694253,20.9102,468.446,0.0355783,0.0,0.0
576,143.75,22.6812,22.1619,167.506,101.397,100.948,0.000446745,0.0688568,20.9121,468.466,0.0406971,0.0,0.0
585,146,22.6578,22.2596,164.796,101.37,100.888,0.000389423,0.0682331,20.9125,468.466,0.0437578,0.0,0.0
594,148.25,22.2991,22.0296,166.781,101.328,101.039,0.000373712,0.0678658,20.9132,468.456,0.0262189,0.0,0.0
603,150.5,22.2406,22.5813,168.828,101.285,100.765,0.000328239,0.0677433,20.9136,468.466,0.0472464,0.0,0.0
612,152.75,21.7727,21.7484,166.66,101.235,100.935,0.000302043,0.067431,20.9137,468.456,0.0272616,0.0,0.0
621,155,22.5235,21.9647,170.811,101.198,100.727,0.000461306,0.0672285,20.9138,468.426,0.0428183,0.0,0.0
630,157.25,21.7867,21.6837,168.958,101.146,100.688,0.000651467,0.0670189,20.9138,468.446,0.0416652,0.0,0.0
639,159.5,21.1568,21.7083,166.476,101.108,100.793,0.000701069,0.0667654,20.9138,468.426,0.0285888,0.0,0.0
648,161.75,21.5255,21.4619,172.857,101.071,100.526,0.000626228,0.0664852,20.9138,468.436,0.0495728,0.0,0.0
657,164,21.3961,21.4249,169.443,101.042,100.55,0.000582829,0.0664013,20.9138,468.436,0.0447866,0.0,0.0
666,166.25,21.4811,21.5978,166.366,101.006,100.691,0.000477541,0.0664624,20.914,468.436,0.0286651,0.0,0.0
675,168.5,21.4577,21.2607,166.164,100.967,100.486,0.000344152,0.066611,20.9141,468.426,0.0438787,0.0,0.0
684,170.75,21.1716,21.0701,171.545,100.935,100.438,0.000341921,0.0667827,20.912,468.426,0.0453189,0.0,0.0
693,173,21.5772,20.9906,169.407,100.897,100.318,0.000439874,0.0671834,20.9107,468.446,0.0528025,0.0,0.0
702,175.25,21.5453,21.1164,167.291,100.857,100.395,0.000321938,0.0679432,20.9099,468.426,0.0421726,0.0,0.0
711,177.5,21.0749,21.4144,168.597,100.822,100.276,8.86409e-05,0.06841,20.9093,468.426,0.0497904,0.0,0.0
720,179.75,21.4528,21.0148,162.052,100.793,100.277,-2.05753e-05,0.0689893,20.9091,468.426,0.0470712,0.0,0.0
729,182,20.8238,20.9723,165.747,100.796,100.428,3.7267e-05,0.0691499,20.909,468.426,0.033572,0.0,0.0
738,184.25,21.052,21.4385,168.469,100.815,100.379,0.000105908,0.0691456,20.909,468.446,0.0397833,0.0,0.0
747,186.5,20.8555,21.2011,166.915,100.806,100.377,7.05373e-05,0.069144,20.9089,468.446,0.0391069,0.0,0.0
756,188.75,20.8814,21.3013,168.717,100.8,100.266,9.73466e-05,0.0690409,20.9088,468.426,0.0486915,0.0,0.0
765,191,20.6492,20.5203,165.776,100.813,100.272,0.000241045,0.0689298,20.9089,468.436,0.0492986,0.0,0.0
774,193.25,20.3565,20.2488,160.538,100.813,100.454,0.000333774,0.0686259,20.909,468.446,0.0326543,0.0,0.0
783,195.5,20.4401,20.9663,170.42,100.814,100.284,0.00030392,0.0683918,20.9096,468.436,0.0483433,0.0,0.0
792,197.75,20.2415,20.6647,171.173,100.817,100.315,0.000259097,0.0680951,20.9112,468.426,0.0457771,0.0,0.0
801,200,20.4775,20.8339,167.707,100.841,100.315,,0.0677249,,468.416,0.0479896,0.0,0.0
810,202.25,20.1521,20.5085,164.592,100.838,100.335,,,,468.446,0.0459186,0.0,0.0
819,204.5,19.7114,20.1621,162.849,100.829,100.377,,,,468.426,0.0412819,0.0,0.0
828,206.75,19.722,20.071,163.351,100.846,100.364,,,,468.446,0.0439418,0.0,0.0
836,208.75,19.2539,20.4846,165.166,100.861,100.278,,,,468.446,0.0532136,0.0,0.0

File: Polyurethane_Foam_Cone_HF50Scan_210326_R2.csv
Names,Time,Stack TC,Smoke TC,Exh Press,Smoke Comp,Smoke Meas,CO Meter,CO2 Meter,O2 Meter,Sample Mass,Ext Coeff,Start Test,Flame Verif
Chan Gain,,500,500,1,1,1,1,1,1,1,1,1.0,1.0
Offset,,0,0,0.138348,0,0,0,0,0,0,0,0.0,0.0
Gain,,1,1,25.011,13.5067,16.616,1,1,1,1.00091,1.04608,1.0,1.0
Units,sec,C,C,Pa,%,%,%,%,%,g,/m,,
Baseline,,34.2771,36.1044,159.204,101.725,97.8462,-0.00108697,0.0656053,20.9235,-0.14142,0.356757,,
8,1.75,31.1696,33.3468,159.285,101.72,97.1133,-0.000613311,0.0677537,20.9117,484.251,0.425292,0.0,1.0
16,3.75,33.212,36.012,142.864,101.717,85.2765,0.000997879,0.0787672,20.8249,483.951,1.6177,0.0,1.0
24,5.75,34.5416,38.7008,143.927,101.712,81.1514,0.00303352,0.107568,20.6519,483.72,2.07222,0.0,1.0
32,7.75,35.622,41.237,143.685,101.716,80.6418,0.00499802,0.146393,20.5328,483.45,2.13044,0.0,0.0
40,9.75,37.7839,44.2295,145.396,101.716,82.8085,0.00659189,0.187636,20.4518,483.19,1.8871,0.0,0.0
48,11.75,39.8992,47.8078,133.843,101.719,76.4625,0.0083219,0.234178,20.364,482.85,2.61903,0.0,0.0
56,13.75,42.2876,51.3484,143.291,101.721,79.1682,0.0100581,0.27714,20.2884,482.669,2.30011,0.0,0.0
64,15.75,44.3858,54.2397,141.996,101.731,77.2748,0.0115602,0.324765,20.2402,482.169,2.52309,0.0,0.0
72,17.75,45.8251,55.8495,143.931,101.719,79.8619,0.0125785,0.365229,20.2106,481.949,2.2198,0.0,0.0
80,19.75,46.7878,59.6851,126.248,101.725,80.1814,0.0130587,0.407969,20.0627,481.568,2.18376,0.0,0.0
88,21.75,52.2839,69.6992,109.068,101.727,89.2621,0.012957,0.475062,19.7128,481.008,1.19947,0.0,0.0
96,23.75,60.5134,82.7732,125.373,101.728,92.7478,0.0124849,0.579397,19.4243,480.467,0.84808,0.0,0.0
104,25.75,69.6837,98.4179,98.3446,101.734,95.7664,0.0121148,0.710272,19.028,479.767,0.554705,0.0,0.0
112,27.75,77.8502,113.533,97.7691,101.723,96.4662,0.0119751,0.874468,18.6861,479.156,0.486931,0.0,0.0
120,29.75,84.2839,123.806,111.549,101.725,96.4906,0.0118658,1.0505,18.5212,478.516,0.484766,0.0,0.0
128,31.75,90.8426,133.463,100.529,101.736,97.2973,0.0113795,1.18747,18.4688,477.935,0.409365,0.0,0.0
136,33.75,94.9476,138.46,113.284,101.734,95.8968,0.0102106,1.28959,18.588,477.595,0.542226,0.0,0.0
144,35.75,96.3839,139.29,116.47,101.727,94.7619,0.00883435,1.33319,18.8198,477.174,0.650794,0.0,0.0
152,37.75,95.5069,136.497,129.818,101.723,94.0414,0.00748999,1.32441,19.1402,476.974,0.720538,0.0,0.0
160,39.75,92.0782,130.255,139.582,101.727,96.52,0.00611513,1.26719,19.5554,476.804,0.482117,0.0,0.0
168,41.75,88.4487,123.366,144.864,101.726,96.3394,0.00507047,1.16609,19.8917,476.744,0.499221,0.0,0.0
176,43.75,85.2415,116.84,150.38,101.729,96.8704,0.00451279,1.05502,20.1138,476.764,0.449052,0.0,0.0
184,45.75,81.7682,109.491,144.676,101.731,97.3359,0.00417362,0.950759,20.2965,476.694,0.405286,0.0,0.0
192,47.75,78.274,103.582,151.311,101.732,98.0787,0.00368517,0.845553,20.4342,476.644,0.335593,0.0,0.0
200,49.75,73.994,97.3027,153.911,101.739,97.9849,0.00297443,0.745555,20.5234,476.604,0.345006,0.0,0.0
208,51.75,71.2041,91.997,148.7,101.721,98.1112,0.0024103,0.661038,20.5962,476.574,0.331554,0.0,0.0
216,53.75,68.9851,87.1691,153.942,101.74,98.4971,0.00219679,0.58585,20.663,476.594,0.297244,0.0,0.0
224,55.75,64.8315,81.7741,151.368,101.724,98.4732,0.00219291,0.517292,20.7153,476.604,0.298014,0.0,0.0
232,57.75,62.1588,77.0126,154.068,101.727,98.7516,0.00213045,0.459954,20.7539,476.574,0.272407,0.0,0.0
240,59.75,60.1173,73.0848,158.073,101.723,98.2881,0.0019995,0.416034,20.788,476.584,0.31524,0.0,0.0
248,61.75,58.1526,69.9722,156.886,101.723,98.5219,0.00180383,0.370279,20.8112,476.634,0.293367,0.0,0.0
256,63.75,56.4916,66.6901,155.886,101.725,98.2232,0.00152474,0.327867,20.8281,476.594,0.321451,0.0,0.0
264,65.75,54.6865,63.4969,154.493,101.717,98.5381,0.00117442,0.29526,20.84,476.584,0.291373,0.0,0.0
272,67.75,53.4831,61.7502,155.312,101.715,98.209,0.000878022,0.267073,20.8491,476.564,0.321885,0.0,0.0
280,69.75,52.314,59.3088,154.36,101.715,98.3759,0.000624363,0.241641,20.8582,476.564,0.30631,0.0,0.0
288,71.75,51.368,57.1888,156.36,101.719,98.459,0.000381903,0.219792,20.8663,476.584,0.298853,0.0,0.0
296,73.75,49.8752,56.1916,153.558,101.713,98.4636,0.000259832,0.20283,20.8749,476.624,0.297908,0.0,0.0
304,75.75,48.8174,54.5334,154.787,101.707,98.3809,0.000186507,0.186051,20.8816,476.644,0.30513,0.0,0.0
312,77.75,48.3552,52.9233,151.046,101.701,98.3972,-2.60777e-05,0.172342,20.8859,476.614,0.303059,0.0,0.0
320,79.75,47.3192,51.9496,160.864,101.723,98.2532,-0.000275034,0.160301,20.8895,476.624,0.318433,0.0,0.0
328,81.75,46.7647,50.0945,156.27,101.711,98.279,-0.00039682,0.149464,20.8934,476.614,0.31494,0.0,0.0
336,83.75,45.5188,49.8726,150.702,101.712,98.2425,-0.000393655,0.139858,20.8977,476.604,0.318423,0.0,0.0
344,85.75,44.8741,48.6735,155.358,101.708,98.6735,-0.000471736,0.131591,20.8996,476.574,0.277956,0.0,0.0
352,87.75,44.4953,48.1447,152.686,101.706,98.1974,-0.000538106,0.124946,20.9012,476.584,0.322119,0.0,0.0
360,89.75,44.3027,46.45,160.43,101.702,97.9753,-0.000538889,0.118274,20.9037,476.564,0.342526,0.0,0.0
368,91.75,44.0549,45.9134,158.82,101.707,98.5173,-0.000526978,0.112597,20.9053,476.594,0.292417,0.0,0.0
376,93.75,43.0601,45.5879,153.42,101.708,98.1938,-0.000562276,0.107799,20.9069,476.574,0.322637,0.0,0.0
384,95.75,42.8011,45.2478,152.22,101.709,98.3023,-0.000646112,0.103684,20.9095,476.614,0.312576,0.0,0.0
392,97.75,42.5703,44.765,156.84,101.711,98.2248,-0.000675062,0.0999893,20.911,476.594,0.320045,0.0,0.0
400,99.75,41.9557,43.9971,152.67,101.709,98.0539,-0.000707602,0.0964444,20.9127,476.544,0.335799,0.0,0.0
408,101.75,41.7066,43.6741,158.678,101.711,98.1279,-0.000714385,0.0931317,20.9141,476.574,0.329097,0.0,0.0
416,103.75,41.4848,43.518,159.308,101.706,98.3424,-0.000728765,0.0903264,20.9153,476.584,0.308577,0.0,0.0
424,105.75,41.6876,42.7587,152.925,101.713,98.3044,-0.000731615,0.0879996,20.9159,476.554,0.312796,0.0,0.0
432,107.75,41.0978,42.3436,155.581,101.711,98.2106,-0.000708324,0.085674,20.917,476.564,0.321334,0.0,0.0
440,109.75,40.1223,42.082,157.496,101.715,98.2993,-0.000699897,0.0836259,20.918,476.554,0.313455,0.0,0.0
448,111.75,40.3806,41.846,157.495,101.716,98.3607,-0.000628413,0.0818189,20.9198,476.554,0.307804,0.0,0.0
456,113.75,40.6109,41.6681,155.822,101.728,98.3728,-0.000513545,0.0802546,20.9205,476.564,0.307746,0.0,0.0
464,115.75,39.8438,41.6105,156.609,101.717,98.2146,-0.000618476,0.0788991,20.9218,476.564,0.32155,0.0,0.0
472,117.75,39.8342,41.2987,155.612,101.702,97.921,-0.000852014,0.0776765,20.9231,476.544,0.347646,0.0,0.0
480,119.75,39.6439,40.985,156.86,101.707,98.2608,-0.00107639,0.0763869,20.924,476.584,0.316273,0.0,0.0
488,121.75,39.4895,40.5672,153.187,101.703,98.4773,-0.0010768,0.0751265,20.9244,476.554,0.29574,0.0,0.0
496,123.75,39.3329,40.8815,152.791,101.701,98.3683,-0.00100198,0.0742368,20.9246,476.564,0.305755,0.0,0.0
504,125.75,38.9438,40.4095,157.363,101.692,98.0818,-0.0009592,0.0734281,20.9247,476.544,0.331664,0.0,0.0
512,127.75,39.0796,40.3529,156.579,101.696,97.9844,-0.000890468,0.072667,20.9259,476.594,0.34115,0.0,0.0
520,129.75,39.1154,40.0995,156.915,101.684,98.0899,-0.000886032,0.071953,20.9264,476.554,0.330199,0.0,0.0
528,131.75,38.7475,39.9391,152.875,101.682,98.2055,-0.000933513,0.0715295,20.9254,476.554,0.319204,0.0,0.0
536,133.75,38.6636,40.0983,154.201,101.674,98.0047,-0.000934235,0.0711201,20.925,476.514,0.337241,0.0,0.0
544,135.75,38.6673,39.5742,157.117,101.657,98.3921,-0.000913519,0.0705223,20.926,476.534,0.299552,0.0,0.0
552,137.75,38.5337,39.144,153.401,101.643,97.9611,-0.000938598,0.0700146,20.9266,476.554,0.33861,0.0,0.0
560,139.75,38.2825,39.2912,159.397,101.648,97.9844,-0.00100406,0.0695615,20.9269,476.574,0.336835,0.0,0.0
568,141.75,37.8655,39.3654,158.163,101.635,98.1472,-0.00107308,0.0690951,20.9263,476.544,0.32045,0.0,0.0
576,143.75,38.1566,39.0968,155.791,101.613,97.9753,-0.00108,0.0687436,20.9256,476.564,0.334526,0.0,0.0
584,145.75,38.0542,38.99,152.327,101.625,97.994,-0.00105589,0.068387,20.9253,476.524,0.333849,0.0,0.0
592,147.75,37.7364,39.5258,153.075,101.594,97.9104,-0.00109912,0.0682142,20.9252,476.554,0.338856,0.0,0.0
600,149.75,37.3651,38.8746,162.921,101.58,98.0904,-0.00121692,0.0680368,20.9251,476.554,0.320774,0.0,0.0
608,151.75,37.0526,38.4864,155.664,101.572,98.0782,-0.00130687,0.0678229,20.9246,476.544,0.321168,0.0,0.0
616,153.75,37.4554,38.6067,161.735,101.558,98.0417,-0.001266,0.0676095,20.9231,476.544,0.323355,0.0,0.0
624,155.75,37.9113,38.9681,157.162,101.541,98.025,-0.0011909,0.0674737,20.9224,476.564,0.323394,0.0,0.0
632,157.75,37.4474,38.8181,157.543,101.546,97.9205,-0.0011043,0.0673538,20.9221,476.514,0.333587,0.0,0.0
640,159.75,37.058,38.6635,153.918,101.542,98.0366,-0.00099247,0.0671097,20.922,476.524,0.32234,0.0,0.0
648,161.75,37.8388,38.3345,154.709,101.52,98.2937,-0.000931307,0.0670306,20.9219,476.534,0.29637,0.0,0.0
656,163.75,37.0149,38.613,157.591,101.523,98.0153,-0.00094778,0.0668982,20.9219,476.534,0.322619,0.0,0.0
664,165.75,37.147,38.5181,158.493,101.494,98.0473,,0.0667315,,476.554,0.317058,0.0,0.0
672,167.75,37.0051,37.8701,155.158,101.495,97.955,,,,476.524,0.325737,0.0,0.0
680,169.75,36.6219,38.234,157.967,101.492,97.921,,,,476.514,0.328659,0.0,0.0
688,171.75,36.6336,38.0411,157.767,101.474,97.884,,,,476.514,0.330525,0.0,0.0
696,173.75,36.6697,38.0398,159.897,101.468,97.7065,,,,476.524,0.34662,0.0,0.0
703,175.5,36.4791,37.9779,152.024,101.448,98.1066,,,,476.544,0.307333,0.0,0.0

File: Polyurethane_Foam_Cone_HF75Scalar_210325_R1.csv
LABORATORY,FSRI
TEST IDENT,PUF_HF75_1
OPERATOR,Morrissey
MATERIAL,1'' inch PUF
ORIENTATION,Horizontal
HEAT FLUX,75
SURF AREA,0.01
C FACTOR,0.0386052
SPEC HOLDER DIFF,-89.86
SPECIMEN MASS,7.87
SCAN TIME,0.25
O2 DELAY TIME,11
CO DELAY TIME,11
CO2 DELAY TIME,8
FLOW FACTOR,1
SCAN COUNT,639
TIME TO IGN,1.5
END OF TEST SCAN,159
END OF TEST TIME,39.75
TEST STATUS,1
PRE TEST CMT,test w/o frame or grid

File: Polyurethane_Foam_Cone_HF75Scalar_210325_R3.csv
LABORATORY,FSRI
TEST IDENT,PUF_HF75_3
OPERATOR,Morrissey
MATERIAL,1'' inch PUF
ORIENTATION,Horizontal
HEAT FLUX,75
SURF AREA,0.01
C FACTOR,0.0386052
SPEC HOLDER DIFF,-99
SPECIMEN MASS,7.76
SCAN TIME,0.25
O2 DELAY TIME,11
CO DELAY TIME,11
CO2 DELAY TIME,8
FLOW FACTOR,1
SCAN COUNT,631
TIME TO IGN,1
END OF TEST SCAN,151
END OF TEST TIME,37.75
TEST STATUS,1
PRE TEST CMT,test w/o frame or grid