Folder: fsri_materials_database/01_Data/Polyurethane_Foam/MCC

Note: 01_Data/README.md
# Materials and Products Database
## 01_Data

Raw data generated from each apparatus are included here in plain-text format. The data is organized first by material, next by the short name of test apparatus used, and where applicable additional filtering by test settings.

### material.json

Each material directory contains a json file of the same name as the material. This file links the data stored in the repository as well as data and graphs produced by the accompanying scripts (__02_Scripts__) to the respective landing page for the material on the front-end website.

File: Polyurethane_Foam_MCC_30K_min_210308_R1.txt
Sample ID:	C:\MCC\MCC Cal\Test\PUF_30_1.txt.txt
Sample Weight (mg):	3.67
Heating Rate (C/s):	0.5
Combustor Temp (C):	900
N2 Flow Rate (cc/min):	80
O2 Flow Rate (cc/min):	20
Calibration File:	C:\MCC\MCC Cal\Coeff1 JN10440_30_210304.txt.txt
T Correction Coefficients:	0	1.024463	0
Time Shift (s):	14
*
Time (s)	Temperature (C)	N2 flow rate (cc/min)	O2 flow rate (cc/min)	Flow Rate (cc/min)	Oxygen (%)	HRR (W/g)	Heating rate (C/s)
0.000	106.147	80.006	19.995	99.580	20.126	-0.123	0.007
7.000	106.173	80.006	19.996	99.605	20.126	-0.107	0.018
14.000	106.133	80.008	19.995	99.637	20.120	0.429	0.000
21.000	106.297	80.004	19.995	99.690	20.107	1.526	0.044
28.000	106.712	80.004	19.996	99.831	20.093	2.658	0.097
34.999	107.416	80.005	19.995	99.773	20.088	3.142	0.123
41.999	108.461	80.005	19.995	99.805	20.082	3.627	0.201
49.001	109.842	80.005	19.997	99.845	20.077	4.083	0.221
55.999	111.534	80.004	19.995	99.840	20.078	3.958	0.234
62.999	113.424	80.006	19.994	99.837	20.068	4.777	0.272
69.999	115.526	80.006	19.995	99.847	20.068	4.795	0.284
76.999	117.851	80.006	19.995	99.848	20.071	4.529	0.314
83.999	120.437	80.005	19.994	99.851	20.072	4.518	0.359
90.999	123.171	80.008	19.994	99.879	20.073	4.419	0.396
97.999	126.032	80.006	19.994	99.867	20.068	4.857	0.399
104.999	128.962	80.004	19.996	99.858	20.070	4.608	0.429
111.999	131.954	80.005	19.996	99.886	20.070	4.657	0.454
118.999	135.049	80.004	19.997	99.881	20.071	4.533	0.457
126.000	138.250	80.004	19.998	99.871	20.074	4.344	0.479
133.000	141.436	80.005	19.997	99.859	20.070	4.661	0.459
140.000	144.813	80.004	19.998	99.856	20.074	4.336	0.462
147.000	148.166	79.988	19.995	99.856	20.071	4.602	0.483
154.000	151.586	80.005	19.996	99.901	20.070	4.683	0.467
161.000	155.054	80.004	19.995	99.885	20.069	4.717	0.475
168.000	158.486	80.008	19.994	99.886	20.068	4.815	0.495
175.000	162.000	80.005	19.993	99.877	20.072	4.515	0.505
182.000	165.505	80.004	19.995	99.874	20.073	4.410	0.520
189.000	169.023	80.004	19.996	99.852	20.072	4.476	0.531
196.000	172.534	80.004	19.997	99.843	20.074	4.278	0.499
203.000	176.014	80.005	19.995	99.843	20.074	4.293	0.509
210.000	179.554	80.006	19.996	99.846	20.074	4.298	0.490
217.000	183.030	80.003	19.997	99.849	20.078	3.947	0.484
224.000	186.592	80.006	19.997	99.857	20.077	4.032	0.487
231.000	190.103	80.004	19.994	99.860	20.076	4.096	0.505
238.000	193.601	80.006	19.997	99.845	20.078	3.997	0.510
245.000	197.051	80.008	19.996	99.845	20.077	4.081	0.472
252.000	200.523	80.008	19.995	99.843	20.075	4.180	0.483
259.000	203.971	80.005	19.995	99.829	20.068	4.792	0.504
266.000	207.452	80.004	19.996	99.908	20.068	4.797	0.536
273.000	210.952	80.005	19.995	99.846	20.061	5.420	0.499
280.000	214.411	80.005	19.996	99.841	20.056	5.836	0.494
287.000	217.845	80.004	19.996	99.842	20.048	6.501	0.475
294.000	221.340	80.001	19.994	99.846	20.044	6.812	0.472
301.000	224.835	79.986	19.996	99.838	20.028	8.229	0.510
308.000	228.364	79.986	19.996	99.839	20.017	9.159	0.532
315.000	231.849	79.987	19.995	99.839	20.003	10.341	0.494
322.000	235.336	79.988	19.995	99.842	19.986	11.794	0.519
329.000	238.812	79.988	19.995	99.864	19.965	13.551	0.493
336.000	242.287	79.987	19.995	99.873	19.941	15.560	0.518
343.000	245.784	79.999	19.995	99.877	19.913	17.991	0.499
350.000	249.313	80.003	19.995	99.862	19.880	20.789	0.499
357.000	252.841	80.007	19.995	99.889	19.835	24.607	0.508
364.000	256.345	80.004	19.996	99.885	19.791	28.313	0.496
371.000	259.786	80.004	19.997	99.906	19.735	33.117	0.505
378.000	263.307	80.006	19.996	99.914	19.680	37.739	0.488
385.000	266.800	80.008	19.997	99.914	19.616	43.251	0.528
392.000	270.361	80.005	19.997	99.921	19.539	49.801	0.504
399.000	273.891	80.004	19.995	99.952	19.469	55.749	0.510
406.000	277.310	80.008	19.994	99.961	19.398	61.769	0.494
413.000	280.843	80.006	19.997	99.978	19.335	67.122	0.486
420.000	284.356	80.005	19.996	99.984	19.283	71.562	0.513
427.000	287.940	80.005	19.996	99.978	19.256	73.830	0.504
434.000	291.480	80.005	19.996	99.963	19.286	71.229	0.494
441.000	295.047	80.006	19.997	99.940	19.402	61.426	0.507
448.000	298.605	80.004	19.995	99.947	19.544	49.371	0.513
455.000	302.113	80.006	19.996	99.941	19.607	44.009	0.507
462.000	305.715	80.006	19.996	99.920	19.616	43.186	0.533
469.000	309.291	80.004	19.997	99.908	19.643	40.938	0.515
476.000	312.894	80.005	19.995	99.902	19.709	35.255	0.485
483.000	316.505	80.007	19.994	99.884	19.793	28.166	0.517
490.000	320.034	80.007	19.995	99.908	19.868	21.752	0.496
497.000	323.622	80.005	19.996	99.788	19.916	17.724	0.508
504.000	327.122	80.004	19.996	99.830	19.943	15.393	0.502
511.000	330.626	80.005	19.997	99.821	19.950	14.841	0.488
518.000	334.179	80.004	19.995	99.832	19.946	15.168	0.502
525.000	337.709	80.004	19.996	99.822	19.941	15.615	0.514
532.000	341.187	80.003	19.996	99.819	19.921	17.272	0.494
539.000	344.726	80.004	19.995	99.844	19.899	19.148	0.542
546.000	348.225	80.005	19.994	99.816	19.855	22.855	0.521
553.000	351.794	80.003	19.996	99.810	19.797	27.786	0.525
560.000	355.325	80.008	19.997	99.837	19.715	34.774	0.495
567.000	358.841	80.007	19.994	99.833	19.608	43.894	0.519
574.000	362.416	80.005	19.994	99.834	19.461	56.359	0.522
581.000	365.940	80.005	19.995	99.866	19.274	72.223	0.518
588.000	369.440	80.003	19.995	99.882	19.029	93.040	0.479
595.000	373.023	80.006	20.001	99.899	18.729	118.502	0.516
602.000	376.574	80.002	19.996	99.893	18.357	150.083	0.513
609.000	380.056	80.004	19.996	99.924	17.927	186.467	0.492
616.000	383.599	80.007	19.996	99.933	17.423	229.171	0.520
623.000	387.130	80.007	19.996	99.751	17.052	260.330	0.505
630.000	390.653	80.006	19.995	99.673	16.938	269.928	0.479
637.000	394.212	80.006	19.996	99.667	17.068	258.744	0.516
644.000	397.750	80.006	19.996	99.647	17.386	232.062	0.509
651.000	401.249	80.005	19.995	99.574	17.914	187.315	0.498
658.000	404.831	80.004	19.995	99.638	18.433	143.316	0.512
665.000	408.404	80.003	19.996	99.661	18.895	104.286	0.520
672.000	411.957	80.004	19.994	99.763	19.255	73.704	0.496
679.000	415.494	80.006	19.995	99.723	19.529	50.557	0.507
686.000	419.022	80.004	19.994	99.739	19.730	33.476	0.479
693.000	422.620	80.005	19.994	99.766	19.861	22.396	0.514
700.000	426.139	80.007	19.997	99.799	19.940	15.646	0.513
707.000	429.760	80.005	19.997	99.766	19.994	11.078	0.505
714.000	433.311	80.006	19.996	99.790	20.028	8.237	0.481
721.000	436.962	80.007	19.996	99.819	20.056	5.814	0.493
728.000	440.624	80.005	19.998	99.799	20.076	4.143	0.502
735.000	444.190	80.005	19.995	99.776	20.080	3.809	0.500
742.000	447.784	80.004	19.996	99.798	20.086	3.294	0.497
749.000	451.368	79.995	19.995	99.771	20.085	3.357	0.503
756.000	454.922	80.002	19.997	99.763	20.084	3.417	0.515
763.000	458.464	80.003	19.995	99.785	20.088	3.118	0.530
770.000	462.029	80.001	19.996	99.804	20.093	2.676	0.491
777.000	465.571	80.006	19.997	99.772	20.091	2.833	0.541
784.000	469.221	80.005	19.996	99.798	20.095	2.499	0.514
791.000	472.877	80.005	19.994	99.777	20.096	2.455	0.539
798.000	476.447	80.008	19.995	99.778	20.094	2.582	0.495
805.000	480.062	80.006	19.995	99.763	20.099	2.183	0.511
812.000	483.637	80.003	19.997	99.775	20.094	2.648	0.520
819.000	487.231	80.005	19.995	99.762	20.095	2.506	0.511
826.000	490.742	79.995	19.997	99.786	20.096	2.469	0.500
833.000	494.381	79.986	19.996	99.766	20.099	2.151	0.545
840.000	497.947	79.984	19.995	99.761	20.095	2.553	0.472
847.000	501.483	79.986	19.997	99.770	20.099	2.176	0.519
854.000	505.064	79.988	19.996	99.780	20.101	1.981	0.524
861.000	508.738	80.000	19.996	99.783	20.098	2.248	0.546
868.000	512.305	79.991	19.997	99.771	20.098	2.260	0.477
875.000	515.962	79.993	19.997	99.800	20.100	2.083	0.487
882.000	519.664	79.991	19.996	99.783	20.097	2.329	0.519
889.000	523.303	79.993	19.998	99.781	20.100	2.121	0.493
896.000	526.967	79.990	19.995	99.777	20.099	2.174	0.513
903.000	530.643	80.003	19.996	99.780	20.102	1.904	0.530
910.000	534.306	80.004	19.996	99.788	20.098	2.239	0.522
917.000	537.967	80.004	19.996	99.773	20.099	2.169	0.528
924.000	541.559	80.006	19.997	99.778	20.097	2.380	0.518
931.000	545.066	80.005	19.996	99.765	20.099	2.185	0.479
938.000	548.723	80.008	19.995	99.764	20.093	2.664	0.528
945.000	552.320	80.006	19.997	99.774	20.096	2.459	0.489
952.000	555.961	80.008	19.997	99.765	20.097	2.366	0.523
959.000	559.558	80.008	19.995	99.773	20.102	1.902	0.505
966.000	563.214	80.003	19.994	99.776	20.106	1.621	0.501
973.000	566.741	80.003	19.995	99.767	20.096	2.455	0.464
980.000	570.341	80.006	19.997	99.764	20.097	2.371	0.498
987.000	573.895	80.006	19.995	99.789	20.096	2.460	0.519
994.000	577.451	80.003	19.994	99.786	20.097	2.329	0.505
1001.000	581.048	80.004	19.994	99.772	20.099	2.176	0.485
1008.000	584.641	80.007	19.995	99.773	20.098	2.225	0.522
1015.000	588.210	80.008	19.994	99.765	20.098	2.255	0.502
1022.000	591.801	80.006	19.995	99.788	20.100	2.107	0.514
1028.999	595.438	80.006	19.996	99.787	20.097	2.311	0.523
1035.999	599.013	80.007	19.995	99.762	20.099	2.167	0.498
1042.999	602.540	80.005	19.994	99.759	20.100	2.058	0.483
1049.999	606.202	80.005	19.995	99.752	20.095	2.550	0.536
1056.999	609.739	80.005	19.998	99.790	20.094	2.603	0.524
1063.999	613.347	80.005	19.996	99.771	20.102	1.960	0.502
1070.999	616.950	80.005	19.994	99.770	20.101	1.979	0.528
1077.999	620.553	80.002	19.996	99.768	20.096	2.452	0.497
1084.999	624.247	80.007	19.996	99.766	20.096	2.448	0.528
1091.999	627.856	80.006	19.995	99.767	20.100	2.116	0.541
1098.999	631.407	80.006	19.995	99.769	20.100	2.116	0.527
1106.001	635.060	80.007	19.994	99.765	20.099	2.178	0.548
1113.000	638.649	80.006	19.994	99.737	20.098	2.267	0.520
1120.000	642.207	80.003	19.999	99.762	20.095	2.527	0.503
1127.000	645.719	80.004	19.996	99.768	20.102	1.907	0.498
1134.000	649.298	80.005	19.997	99.763	20.100	2.092	0.508
1141.000	652.968	80.001	19.996	99.765	20.100	2.081	0.529
1148.000	656.588	80.002	19.999	99.767	20.096	2.466	0.503
1155.000	660.238	80.006	19.996	99.769	20.106	1.575	0.512
1162.000	663.863	80.006	19.995	99.768	20.104	1.719	0.509
1169.000	667.498	80.007	19.995	99.762	20.101	2.011	0.525
1176.000	671.097	80.006	19.996	99.765	20.095	2.529	0.515
1183.000	674.721	80.007	19.994	99.767	20.100	2.071	0.496
1190.000	678.329	80.008	19.995	99.756	20.100	2.088	0.496
1197.000	681.984	79.998	19.995	99.772	20.100	2.099	0.530
1204.000	685.682	79.985	19.995	99.767	20.104	1.779	0.505
1211.000	689.176	80.002	19.996	99.759	20.105	1.647	0.492
1218.000	692.751	79.986	19.994	99.766	20.107	1.514	0.482
1219.500	693.499	79.990	19.996	99.759	20.108	1.407	0.493

File: Polyurethane_Foam_MCC_30K_min_210308_R3.txt
Sample ID:	C:\MCC\MCC Cal\Test\PUF_30_3.txt
Sample Weight (mg):	5
Heating Rate (C/s):	0.5
Combustor Temp (C):	900
N2 Flow Rate (cc/min):	80
O2 Flow Rate (cc/min):	20
Calibration File:	C:\MCC\MCC Cal\Coeff1 JN10440_30_210304.txt.txt
T Correction Coefficients:	0	1.024463	0
Time Shift (s):	14
*
Time (s)	Temperature (C)	N2 flow rate (cc/min)	O2 flow rate (cc/min)	Flow Rate (cc/min)	Oxygen (%)	HRR (W/g)	Heating rate (C/s)
0.000	107.944	79.987	19.995	99.717	20.109	-0.232	-0.028
5.500	107.991	79.987	19.994	99.646	20.115	-0.574	-0.001
11.000	107.954	79.988	19.993	99.644	20.110	-0.281	0.021
16.500	107.926	79.988	19.994	99.652	20.107	-0.111	0.007
22.000	107.966	79.988	19.994	99.686	20.100	0.343	-0.010
27.500	108.085	79.989	19.994	99.788	20.092	0.852	0.038
33.000	108.444	79.991	19.995	99.850	20.076	1.831	0.076
38.500	109.046	79.990	19.993	99.892	20.071	2.124	0.120
44.000	109.930	79.990	19.996	99.879	20.063	2.649	0.152
49.501	111.017	79.990	19.993	99.913	20.060	2.832	0.192
55.001	112.289	79.989	19.994	99.907	20.054	3.182	0.279
60.501	113.738	79.988	19.993	99.919	20.051	3.408	0.262
66.000	115.417	79.986	19.992	99.951	20.049	3.528	0.299
71.500	117.256	79.987	19.992	99.942	20.046	3.692	0.348
77.000	119.247	79.988	19.994	99.934	20.052	3.316	0.346
82.500	121.408	79.992	19.995	99.949	20.049	3.503	0.367
88.000	123.625	79.996	19.994	99.928	20.045	3.752	0.401
93.500	125.979	80.006	19.994	99.956	20.051	3.388	0.428
99.001	128.358	80.007	19.992	99.948	20.048	3.544	0.444
104.500	130.843	80.000	19.993	99.957	20.050	3.478	0.457
110.000	133.417	79.997	19.995	99.909	20.048	3.602	0.460
115.500	136.031	80.009	19.993	99.925	20.050	3.436	0.485
121.000	138.737	79.998	19.993	99.923	20.045	3.760	0.503
126.500	141.441	79.988	19.992	99.963	20.047	3.655	0.504
132.000	144.182	79.989	19.992	99.933	20.050	3.479	0.497
137.500	146.906	79.990	19.993	99.959	20.053	3.255	0.501
143.000	149.749	79.985	19.992	99.920	20.046	3.689	0.507
148.500	152.577	79.987	19.994	99.962	20.049	3.540	0.501
154.000	155.353	79.987	19.993	99.923	20.053	3.275	0.515
159.500	158.140	79.988	19.993	99.944	20.050	3.423	0.521
165.000	160.927	79.988	19.993	99.889	20.052	3.328	0.515
170.500	163.708	79.988	19.996	99.979	20.053	3.266	0.516
176.000	166.517	79.986	19.996	99.944	20.059	2.885	0.514
181.500	169.312	79.987	19.992	99.886	20.059	2.903	0.525
187.000	172.013	79.988	19.992	99.901	20.060	2.833	0.487
192.500	174.814	79.989	19.992	99.881	20.057	3.010	0.535
198.000	177.540	79.988	19.991	99.897	20.058	2.966	0.502
203.500	180.218	79.986	19.994	99.927	20.054	3.200	0.490
209.000	182.910	79.989	19.994	99.867	20.053	3.243	0.424
214.500	185.645	79.992	19.994	99.876	20.056	3.043	0.500
220.000	188.302	79.990	19.992	99.896	20.054	3.176	0.511
225.500	191.051	79.989	19.993	99.877	20.053	3.251	0.516
231.000	193.763	79.986	19.993	99.887	20.053	3.246	0.483
236.500	196.450	79.987	19.994	99.882	20.048	3.563	0.480
242.000	199.206	79.988	19.993	99.882	20.052	3.312	0.508
247.500	201.910	79.987	19.992	99.882	20.044	3.827	0.477
253.000	204.643	79.987	19.994	99.863	20.042	3.966	0.487
258.500	207.364	79.986	19.995	99.896	20.039	4.103	0.492
264.000	210.059	79.989	19.995	99.878	20.029	4.743	0.473
269.500	212.801	79.991	19.992	99.882	20.029	4.747	0.489
275.000	215.510	79.989	19.993	99.883	20.028	4.790	0.507
280.500	218.221	79.988	19.993	99.879	20.021	5.228	0.492
286.000	220.923	79.988	19.993	99.874	20.006	6.186	0.489
291.500	223.706	79.991	19.992	99.891	19.995	6.891	0.445
297.000	226.436	79.992	19.994	99.884	19.989	7.258	0.530
302.500	229.193	79.988	19.993	99.879	19.974	8.166	0.535
308.000	231.878	79.987	19.994	99.910	19.961	9.004	0.503
313.500	234.622	79.986	19.992	99.898	19.945	9.987	0.475
319.000	237.412	79.989	19.993	99.868	19.928	11.045	0.546
324.500	240.089	79.989	19.992	99.915	19.900	12.771	0.470
330.000	242.837	79.986	19.992	99.926	19.879	14.110	0.489
335.500	245.574	79.986	19.993	99.925	19.842	16.425	0.491
341.000	248.329	79.987	19.994	99.896	19.812	18.260	0.492
346.500	251.140	79.990	19.992	99.911	19.770	20.929	0.523
352.000	253.856	79.989	19.994	99.844	19.735	23.097	0.493
357.500	256.662	79.988	19.993	99.954	19.681	26.464	0.478
363.000	259.458	79.992	19.994	99.898	19.626	29.907	0.513
368.500	262.283	79.991	19.993	99.942	19.573	33.223	0.504
374.000	265.092	79.990	19.991	100.001	19.506	37.420	0.504
379.500	267.921	79.990	19.993	100.004	19.436	41.749	0.512
385.000	270.723	79.988	19.992	100.006	19.362	46.424	0.514
390.500	273.540	79.987	19.993	100.024	19.285	51.199	0.523
396.000	276.368	79.988	19.993	100.066	19.210	55.924	0.476
401.500	279.180	79.993	19.994	100.046	19.136	60.528	0.500
407.001	281.982	79.988	19.993	100.094	19.067	64.815	0.496
412.500	284.792	79.987	19.992	100.076	19.012	68.261	0.517
418.000	287.613	79.987	19.993	100.000	18.978	70.364	0.531
423.500	290.417	79.987	19.994	100.075	18.968	71.009	0.505
429.000	293.229	79.990	19.995	100.059	19.014	68.084	0.515
434.500	296.007	79.989	19.993	100.038	19.128	61.023	0.519
440.000	298.835	79.988	19.993	100.008	19.278	51.649	0.501
445.500	301.615	79.988	19.992	100.093	19.388	44.762	0.498
451.000	304.465	79.990	19.994	100.015	19.439	41.585	0.542
456.500	307.309	79.992	19.993	99.998	19.470	39.676	0.508
462.000	310.099	79.987	19.992	100.029	19.504	37.511	0.485
467.500	312.937	79.988	19.993	100.021	19.551	34.550	0.497
473.000	315.787	79.989	19.992	99.958	19.614	30.633	0.487
478.500	318.592	79.988	19.994	99.958	19.676	26.756	0.536
484.000	321.407	79.989	19.995	99.926	19.743	22.560	0.521
489.500	324.169	79.989	19.992	99.917	19.799	19.120	0.502
495.000	326.937	79.986	19.995	99.887	19.838	16.670	0.520
500.500	329.700	79.988	19.993	99.882	19.864	15.049	0.500
506.000	332.480	79.988	19.992	99.924	19.884	13.814	0.518
511.500	335.235	79.989	19.994	99.820	19.888	13.570	0.509
517.000	337.947	79.988	19.992	99.879	19.897	12.990	0.496
522.500	340.669	79.989	19.993	99.902	19.895	13.112	0.499
528.000	343.424	79.991	19.994	99.882	19.885	13.717	0.508
533.500	346.189	79.991	19.993	99.876	19.869	14.706	0.522
539.000	348.945	79.990	19.990	99.879	19.846	16.132	0.508
544.500	351.726	79.988	19.993	99.898	19.805	18.700	0.554
550.000	354.489	79.989	19.993	99.884	19.745	22.435	0.502
555.500	357.256	79.988	19.993	99.842	19.666	27.390	0.481
561.000	360.028	80.005	19.994	99.914	19.560	33.994	0.514
566.500	362.788	79.998	19.994	99.926	19.411	43.291	0.501
572.000	365.533	80.003	19.993	99.945	19.209	55.958	0.516
577.500	368.329	79.999	19.995	99.968	18.941	72.683	0.514
583.000	371.087	79.996	19.993	100.007	18.592	94.499	0.500
588.500	373.877	79.996	19.994	100.033	18.159	121.532	0.520
594.000	376.644	79.995	19.995	100.059	17.631	154.352	0.517
599.500	379.373	79.992	19.995	100.081	17.017	192.582	0.512
605.000	382.153	79.987	19.993	99.984	16.406	230.288	0.524
610.500	384.846	79.991	19.992	99.946	15.856	264.384	0.439
616.000	387.610	79.992	19.993	99.769	15.491	286.789	0.449
621.500	390.398	79.992	19.991	99.707	15.348	295.731	0.507
627.000	393.280	79.989	19.993	99.596	15.469	288.174	0.493
632.500	396.055	79.989	19.993	99.613	15.844	265.047	0.505
638.000	398.896	79.991	19.994	99.616	16.375	231.365	0.527
643.501	401.714	80.001	19.994	99.668	17.014	192.273	0.524
649.000	404.528	79.991	19.992	99.409	17.663	151.924	0.496
654.500	407.333	79.988	19.993	99.669	18.217	117.508	0.497
660.000	410.097	79.987	19.994	99.706	18.670	89.269	0.500
665.500	412.908	79.988	19.994	99.713	19.024	67.275	0.508
671.000	415.646	79.993	19.995	99.696	19.295	50.468	0.522
676.500	418.336	79.995	19.994	99.729	19.510	37.060	0.476
682.000	421.143	79.999	19.994	99.757	19.669	27.175	0.511
687.500	423.898	80.006	19.995	99.795	19.784	19.989	0.502
693.000	426.665	80.002	19.994	99.807	19.865	14.966	0.490
698.500	429.524	80.009	19.995	99.813	19.916	11.804	0.520
704.000	432.287	80.005	19.995	99.835	19.954	9.428	0.515
709.500	435.092	79.994	19.994	99.824	19.982	7.700	0.520
715.000	437.974	79.993	19.994	99.825	20.011	5.872	0.499
720.500	440.747	80.000	19.993	99.813	20.030	4.675	0.511
726.000	443.575	80.009	19.993	99.825	20.037	4.231	0.489
731.500	446.432	80.009	19.992	99.829	20.042	3.945	0.521
737.000	449.278	80.010	19.993	99.806	20.048	3.599	0.536
742.500	452.095	80.010	19.994	99.770	20.051	3.362	0.534
748.000	454.856	80.009	19.993	99.831	20.053	3.246	0.496
753.500	457.690	80.010	19.995	99.835	20.049	3.507	0.530
759.000	460.448	80.011	19.994	99.833	20.050	3.437	0.495
764.500	463.178	80.009	19.993	99.831	20.048	3.561	0.480
770.000	465.954	80.009	19.994	99.835	20.050	3.432	0.529
775.500	468.755	80.011	19.994	99.829	20.051	3.377	0.511
781.000	471.546	80.008	19.995	99.838	20.058	2.953	0.494
786.500	474.374	80.008	19.994	99.830	20.050	3.457	0.474
792.000	477.221	80.009	19.993	99.835	20.051	3.371	0.488
797.500	480.001	80.009	19.994	99.824	20.057	3.014	0.466
803.000	482.850	80.008	19.993	99.809	20.054	3.171	0.521
808.500	485.657	80.008	19.993	99.833	20.055	3.115	0.546
814.000	488.521	80.007	19.992	99.901	20.060	2.850	0.524
819.500	491.351	80.009	19.993	99.835	20.061	2.786	0.525
825.000	494.226	80.007	19.991	99.823	20.057	2.996	0.541
830.500	497.113	80.010	19.993	99.838	20.060	2.802	0.521
836.000	499.958	80.007	19.993	99.803	20.058	2.973	0.512
841.500	502.731	80.005	19.994	99.821	20.058	2.969	0.508
847.000	505.548	80.009	19.993	99.832	20.056	3.049	0.539
852.500	508.362	80.011	19.995	99.827	20.062	2.695	0.479
858.000	511.211	80.010	19.993	99.808	20.056	3.099	0.497
863.500	514.039	80.009	19.995	99.826	20.055	3.140	0.528
869.000	516.879	80.007	19.994	99.832	20.056	3.076	0.507
874.500	519.698	80.001	19.994	99.838	20.053	3.246	0.507
880.000	522.516	79.998	19.993	99.838	20.058	2.939	0.505
885.500	525.359	80.000	19.993	99.843	20.061	2.788	0.514
891.000	528.245	79.989	19.993	99.833	20.061	2.777	0.521
896.500	531.124	79.987	19.993	99.815	20.059	2.891	0.523
902.000	533.970	79.989	19.993	99.835	20.058	2.956	0.534
907.500	536.822	79.998	19.992	99.835	20.059	2.862	0.509
913.000	539.666	79.997	19.993	99.838	20.056	3.061	0.530
918.500	542.446	79.999	19.992	99.827	20.059	2.889	0.487
920.500	543.458	79.997	19.994	99.832	20.054	3.201	0.481