Folder: fsri_materials_database/01_Data/Overstuffed_Chair_Polyurethane_Foam/STA/N2/10K_min

Note: 01_Data/README.md
# Materials and Products Database
## 01_Data

Raw data generated from each apparatus are included here in plain-text format. The data is organized first by material, next by the short name of test apparatus used, and where applicable additional filtering by test settings.

### material.json

Each material directory contains a json file of the same name as the material. This file links the data stored in the repository as well as data and graphs produced by the accompanying scripts (__02_Scripts__) to the respective landing page for the material on the front-end website.

File: Overstuffed_Chair_Polyurethane_Foam_STA_N2_10KData_220128_R1.csv
##Temp./Â°C,Time/min,DSC(subtr.)/(mW/mg),Mass(subtr.2)/%,Sensit./(uV/mW)
49.349,10.01,-0.001757585,99.97574,1.07447
51.949,11.21945,0.07720388,99.96294,1.07428
54.549,11.61709,0.1176,99.96035,1.07408
57.149,11.94857,0.14055,99.94185,1.07386
59.749,12.25408,0.14983,99.9678,1.07363
62.349,12.54771,0.1619,99.95396,1.07338
64.949,12.83206,0.16376,99.9488,1.07312
67.549,13.1136,0.16588,99.95011,1.07284
70.149,13.39163,0.16998,99.94853,1.07254
72.749,13.6675,0.17076,99.94864,1.07223
75.349,13.9414,0.17201,99.9485,1.0719
77.949,14.2121,0.17286,99.93607,1.07156
80.549,14.4807,0.17363,99.9158,1.0712
83.149,14.74794,0.17562,99.90724,1.07082
85.749,15.01176,0.17668,99.9085,1.07043
88.349,15.27511,0.17772,99.9143,1.07003
90.949,15.53551,0.17882,99.91508,1.06961
93.549,15.7956,0.17887,99.90064,1.06917
96.149,16.05363,0.17872,99.93128,1.06872
98.749,16.31062,0.17786,99.89975,1.06825
101.349,16.5657,0.1788,99.9109,1.06777
103.949,16.82079,0.17976,99.89976,1.06727
106.549,17.07509,0.17713,99.8995,1.06675
109.149,17.3286,0.1788,99.93047,1.06623
111.749,17.582,0.17892,99.93209,1.06568
114.349,17.83606,0.17935,99.93117,1.06512
116.949,18.08985,0.17953,99.89976,1.06455
119.549,18.3434,0.1772,99.93218,1.06396
122.149,18.59681,0.17717,99.89976,1.06335
124.749,18.84863,0.17614,99.8995,1.06273
127.349,19.10184,0.17802,99.8995,1.06209
129.949,19.3541,0.17735,99.8637,1.06144
132.549,19.60596,0.17805,99.89975,1.06078
135.149,19.8585,0.17543,99.8784,1.0601
137.749,20.11099,0.17336,99.88316,1.0594
140.349,20.36221,0.17484,99.91363,1.05869
142.949,20.61267,0.17478,99.88269,1.05797
145.549,20.86308,0.17412,99.87335,1.05722
148.149,21.11252,0.17621,99.86708,1.05647
150.749,21.36225,0.17501,99.89975,1.0557
153.349,21.61269,0.17237,99.8805,1.05492
155.949,21.86257,0.1716,99.8918,1.05412
158.549,22.11221,0.17504,99.8916,1.0533
161.149,22.36189,0.17252,99.92433,1.05247
163.749,22.6116,0.17072,99.92387,1.05163
166.349,22.86146,0.17208,99.89116,1.05077
168.949,23.11133,0.17161,99.87522,1.0499
171.549,23.36062,0.17518,99.85891,1.04902
174.149,23.60996,0.17441,99.89141,1.04812
176.749,23.85831,0.1758,99.87522,1.0472
179.349,24.10744,0.17622,99.88339,1.04627
181.949,24.35632,0.17503,99.9079,1.04533
184.549,24.60524,0.17824,99.8754,1.04437
187.149,24.85446,0.17801,99.84166,1.0434
189.749,25.10418,0.17808,99.84801,1.04242
192.349,25.35373,0.17744,99.83915,1.04142
194.949,25.603,0.18132,99.8652,1.0404
197.549,25.85204,0.18554,99.84798,1.03938
200.149,26.10056,0.18679,99.79926,1.03834
202.749,26.34882,0.1892,99.81559,1.03728
205.349,26.59723,0.19033,99.77224,1.03621
207.949,26.845,0.1962,99.73375,1.03513
210.549,27.0929,0.2004,99.78272,1.03404
213.149,27.34027,0.20575,99.6939,1.03293
215.749,27.58783,0.21399,99.65268,1.0318
218.349,27.835,0.22,99.62822,1.03067
220.949,28.08199,0.22898,99.62005,1.02952
223.549,28.3291,0.23615,99.5228,1.02835
226.149,28.5767,0.2388,99.51411,1.02718
228.749,28.82385,0.24902,99.43381,1.02599
231.349,29.071,0.25963,99.38306,1.02479
233.949,29.3181,0.27038,99.25376,1.02357
236.549,29.56515,0.2821,99.15564,1.02234
239.149,29.81275,0.29808,99.02521,1.0211
241.749,30.06053,0.31463,98.89152,1.01985
244.349,30.30824,0.33289,98.74297,1.01858
246.949,30.5557,0.35813,98.49985,1.0173
249.549,30.8041,0.38516,98.2415,1.01601
252.149,31.0525,0.41359,98.0047,1.0147
254.749,31.3012,0.4492,97.65255,1.01338
257.349,31.5502,0.48683,97.27688,1.01205
259.949,31.799,0.53258,96.84483,1.01071
262.549,32.0477,0.58122,96.3412,1.00935
265.149,32.29657,0.63577,95.75731,1.00799
267.749,32.54657,0.69633,95.07299,1.0066
270.349,32.7961,0.7598,94.3244,1.00521
272.949,33.0462,0.8294,93.5029,1.00381
275.549,33.29623,0.90312,92.54912,1.00239
278.149,33.54631,0.97662,91.48116,1.00096
280.749,33.79677,1.05139,90.3477,0.99952
283.349,34.04735,1.12307,89.02702,0.99807
285.949,34.29833,1.19121,87.61371,0.9966
288.549,34.54886,1.24802,86.12597,0.99513
291.149,34.79915,1.29117,84.50737,0.99364
293.749,35.0497,1.3122,82.8955,0.99214
296.349,35.29994,1.2967,81.218,0.99063
298.949,35.5496,1.19494,79.5856,0.98911
301.549,35.7978,1.02096,78.25018,0.98757
304.149,36.04554,0.87764,77.05346,0.98603
306.749,36.29315,0.72265,75.9831,0.98447
309.349,36.54115,0.54979,75.1448,0.9829
311.949,36.78853,0.412,74.50855,0.98133
314.549,37.03663,0.3253,74.0259,0.97974
317.149,37.2848,0.27338,73.6385,0.97813
319.749,37.53366,0.24233,73.31165,0.97652
322.349,37.78302,0.22055,72.99661,0.9749
324.949,38.03218,0.20608,72.72322,0.97327
327.549,38.28255,0.19525,72.43986,0.97162
330.149,38.53252,0.19019,72.17572,0.96997
332.749,38.7838,0.18721,71.90656,0.9683
335.349,39.0354,0.19142,71.5857,0.96663
337.949,39.287,0.19535,71.28241,0.96494
340.549,39.53792,0.2091,70.91806,0.96324
343.149,39.7892,0.22976,70.46299,0.96154
345.749,40.03989,0.25598,69.96709,0.95982
348.349,40.29144,0.28742,69.30025,0.95809
350.949,40.54253,0.32869,68.52793,0.95635
353.549,40.79422,0.37675,67.56411,0.95461
356.149,41.04549,0.43266,66.35565,0.95285
358.749,41.29788,0.49906,64.84093,0.95108
361.349,41.5506,0.57096,62.9773,0.94931
363.949,41.80403,0.65025,60.7497,0.94752
366.549,42.05686,0.73576,57.9291,0.94572
369.149,42.3113,0.82141,54.67123,0.94392
371.749,42.56498,0.89752,50.79668,0.9421
374.349,42.81847,0.9619,46.39201,0.94028
376.949,43.07197,1.00104,41.53685,0.93845
379.549,43.32535,1.00631,36.3236,0.9366
382.149,43.57857,0.97429,30.882,0.93475
384.749,43.83148,0.9024,25.6787,0.93289
387.349,44.08384,0.78952,20.773,0.93102
389.949,44.3355,0.64671,16.39423,0.92914
392.549,44.58718,0.50411,12.8011,0.92725
395.149,44.8384,0.37348,9.99709,0.92536
397.749,45.09016,0.26598,7.79985,0.92345
400.349,45.3423,0.18188,6.16506,0.92154
402.949,45.59495,0.1248,5.00199,0.91962
405.549,45.8474,0.0789752,4.16126,0.91768
408.149,46.10065,0.04844154,3.5981,0.91575
410.749,46.3537,0.02448574,3.14522,0.9138
413.349,46.60717,0.007977446,2.91366,0.91184
415.949,46.8608,7.587055e-05,2.66455,0.90988
418.549,47.1143,-0.00877578,2.56655,0.90791
421.149,47.36847,-0.01380243,2.46838,0.90593
423.749,47.62316,-0.0123886,2.33862,0.90394
426.349,47.8769,-0.01074632,2.26599,0.90194
428.949,48.13069,-0.0009776347,2.20075,0.89994
431.549,48.38511,0.007832191,2.13519,0.89793
434.149,48.6391,0.01108908,2.15123,0.89591
436.749,48.89375,0.01517792,2.08486,0.89389
439.349,49.14824,0.007286904,2.0701,0.89185
441.949,49.40276,-0.00149243,2.0453,0.88981
444.549,49.65967,-0.01151855,2.0453,0.88776
447.149,49.9156,-0.01749686,2.03738,0.88571
449.749,50.17138,-0.02580667,2.02921,0.88365
452.349,50.42671,-0.02668252,1.99642,0.88158
454.949,50.68327,-0.02796575,2.01284,0.8795
457.549,50.93953,-0.03497619,1.95617,0.87742
460.149,51.19591,-0.03495012,1.94777,0.87533
462.749,51.45262,-0.03689183,1.91896,0.87323
465.349,51.70805,-0.03825011,1.94777,0.87113
467.949,51.96396,-0.03827877,1.9151,0.86902
470.549,52.21985,-0.04179417,1.9151,0.8669
473.149,52.4761,-0.04527585,1.88272,0.86478
475.749,52.73265,-0.0476471,1.88272,0.86265
478.349,52.9893,-0.04806783,1.89901,0.86052
480.949,53.2461,-0.05255587,1.85,0.85837
483.549,53.50255,-0.05401041,1.8473,0.85623
486.149,53.76002,-0.05638708,1.85812,0.85407
488.749,54.0163,-0.06033646,1.8094,0.85191
491.349,54.27406,-0.06384524,1.7913,0.84975
493.949,54.53085,-0.06708212,1.79307,0.84758
496.549,54.78764,-0.06929315,1.76857,0.8454
499.149,55.0441,-0.07392935,1.76061,0.84322
501.749,55.30066,-0.08253189,1.72782,0.84103
504.349,55.5568,-0.09222321,1.72797,0.83884
506.949,55.8137,-0.09933467,1.73349,0.83664
509.549,56.07102,-0.10221,1.71955,0.83444
512.149,56.3288,-0.10941,1.71955,0.83223
514.749,56.5868,-0.11164,1.71955,0.83001
517.349,56.8452,-0.11145,1.69775,0.82779
519.949,57.10341,-0.11522,1.66265,0.82557
522.549,57.36153,-0.11687,1.67826,0.82334
525.149,57.6202,-0.12166,1.71161,0.82111
527.749,57.87924,-0.12308,1.67896,0.81887
530.349,58.13775,-0.12588,1.67079,0.81662
532.949,58.39686,-0.12565,1.68713,0.81438
535.549,58.65591,-0.12592,1.64486,0.81212
538.149,58.9153,-0.12741,1.67896,0.80987
540.749,59.17475,-0.12604,1.63875,0.80761
543.349,59.434,-0.13078,1.65446,0.80534
545.949,59.6931,-0.13047,1.64819,0.80307
548.549,59.95222,-0.12927,1.6547,0.8008
551.149,60.21128,-0.12985,1.63232,0.79852
553.749,60.4702,-0.13046,1.61386,0.79624
556.349,60.72956,-0.12975,1.62179,0.79395
558.949,60.98959,-0.13099,1.62257,0.79166
561.549,61.24905,-0.13013,1.62203,0.78937
564.149,61.50909,-0.12927,1.60538,0.78707
566.749,61.7686,-0.12646,1.60529,0.78477
569.349,62.02769,-0.12498,1.57302,0.78247
571.949,62.28679,-0.12453,1.57302,0.78016
574.549,62.5463,-0.1214,1.57302,0.77785
577.149,62.8054,-0.12205,1.54059,0.77554
579.749,63.0653,-0.12016,1.54059,0.77322
582.349,63.3256,-0.11889,1.58116,0.7709
584.949,63.58549,-0.11736,1.54917,0.76858
587.549,63.84619,-0.11543,1.53245,0.76625
590.149,64.107,-0.10941,1.53242,0.76392
592.749,64.36896,-0.10952,1.53254,0.76159
595.349,64.62975,-0.10567,1.55696,0.75925
597.949,64.8917,-0.09721314,1.33051,0.75692
600.549,65.15148,-0.09887966,1.47834,0.75458
603.149,65.41072,-0.09991486,1.59754,0.75223
605.749,65.6701,-0.09844073,1.50002,0.74989
608.349,65.93009,-0.0972564,1.51606,0.74754
610.949,66.1896,-0.09679789,1.40228,0.74519
613.549,66.44906,-0.0911091,1.43017,0.74284
616.149,66.70883,-0.09717771,1.62206,0.74049
618.749,66.96858,-0.09113707,1.66194,0.73813
621.349,67.22883,-0.09192614,1.54074,0.73577
623.949,67.48918,-0.08839696,1.49353,0.73341
626.549,67.7498,-0.08701746,1.48341,0.73105
629.149,68.01109,-0.08366124,1.47525,0.72869
631.749,68.27348,-0.08814073,1.45891,0.72632
634.349,68.5359,-0.09124695,1.49159,0.72395
636.949,68.79791,-0.09108095,1.42565,0.72159
639.549,69.06007,-0.08848838,1.44258,0.71922
642.149,69.32162,-0.08812008,1.42649,0.71684
644.749,69.5833,-0.08864079,1.41831,0.71447
647.349,69.8444,-0.08497206,1.44286,0.7121
648.849,69.99563,-0.08607338,1.44282,0.71073

File: Overstuffed_Chair_Polyurethane_Foam_STA_N2_10KData_220203_R3.csv
##Temp./Â°C,Time/min,DSC(subtr.2)/(mW/mg),Mass(subtr.2)/%,Sensit./(uV/mW)
49.367,10.01,0.00815125,99.30332,1.07447
51.867,11.19965,0.10376,99.22516,1.07429
54.367,11.58721,0.15996,99.19957,1.07409
56.867,11.90824,0.19261,99.20254,1.07389
59.367,12.20455,0.21152,99.16591,1.07367
61.867,12.4873,0.22292,99.18029,1.07343
64.367,12.76409,0.22823,99.1669,1.07318
66.867,13.03664,0.23736,99.16717,1.07291
69.367,13.30675,0.24053,99.1142,1.07263
71.867,13.573,0.24436,99.1211,1.07234
74.367,13.8362,0.24819,99.09652,1.07203
76.867,14.09666,0.25286,99.13189,1.0717
79.367,14.3564,0.2545,99.09984,1.07136
81.867,14.6136,0.25654,99.0655,1.07101
84.367,14.869,0.26051,99.03195,1.07064
86.867,15.12274,0.26341,99.0486,1.07026
89.367,15.37475,0.26703,99.03165,1.06987
91.867,15.625,0.2684,99.01018,1.06945
94.367,15.8746,0.26858,99.03125,1.06903
96.867,16.12228,0.26892,99.03197,1.06859
99.367,16.3696,0.27096,99.01504,1.06814
101.867,16.61618,0.27407,98.97899,1.06767
104.367,16.86225,0.27551,98.99837,1.06719
106.867,17.1073,0.27698,98.96504,1.06669
109.367,17.35199,0.2789,98.96536,1.06618
111.867,17.59724,0.28063,98.9648,1.06566
114.367,17.8417,0.28204,98.9648,1.06512
116.867,18.08597,0.28184,98.95559,1.06456
119.367,18.3303,0.28462,98.9311,1.064
121.867,18.57486,0.28343,98.9311,1.06342
124.367,18.81889,0.28153,98.93082,1.06282
126.867,19.06263,0.28357,98.89754,1.06221
129.367,19.3057,0.28743,98.88834,1.06159
131.867,19.5481,0.28772,98.90533,1.06095
134.367,19.79048,0.28891,98.8977,1.0603
136.867,20.03276,0.28785,98.88088,1.05964
139.367,20.27494,0.28959,98.91368,1.05896
141.867,20.51628,0.29328,98.88087,1.05827
144.367,20.7575,0.29372,98.88087,1.05756
146.867,20.9983,0.29427,98.84719,1.05684
149.367,21.2381,0.29605,98.8472,1.05611
151.867,21.4786,0.29535,98.85381,1.05536
154.367,21.71823,0.29531,98.85561,1.0546
156.867,21.95775,0.29545,98.85559,1.05383
159.367,22.1968,0.29997,98.85561,1.05304
161.867,22.43571,0.30088,98.83069,1.05224
164.367,22.67543,0.3015,98.83044,1.05143
166.867,22.9146,0.2996,98.8387,1.0506
169.367,23.15431,0.30096,98.84785,1.04976
171.867,23.39402,0.30257,98.8138,1.04891
174.367,23.63274,0.30417,98.80533,1.04804
176.867,23.87295,0.30539,98.79765,1.04716
179.367,24.11281,0.30463,98.79682,1.04627
181.867,24.35171,0.30324,98.82724,1.04536
184.367,24.59085,0.30455,98.79694,1.04444
186.867,24.82922,0.30679,98.7967,1.04351
189.367,25.06762,0.30757,98.79809,1.04256
191.867,25.3061,0.30859,98.73801,1.0416
194.367,25.54419,0.31019,98.7464,1.04063
196.867,25.78286,0.31121,98.74629,1.03965
199.367,26.02184,0.31374,98.72145,1.03865
201.867,26.2608,0.31447,98.72144,1.03764
204.367,26.4993,0.31585,98.68776,1.03662
206.867,26.7382,0.31851,98.66252,1.03558
209.367,26.9772,0.32108,98.67934,1.03453
211.867,27.2156,0.32354,98.64439,1.03347
214.367,27.4535,0.32859,98.63749,1.0324
216.867,27.69153,0.33788,98.57039,1.03132
219.367,27.92902,0.34261,98.62049,1.03022
221.867,28.16715,0.34385,98.52793,1.02911
224.367,28.4063,0.34972,98.51148,1.02799
226.867,28.645,0.35465,98.4563,1.02685
229.367,28.8842,0.3632,98.40545,1.0257
231.867,29.1232,0.37106,98.31047,1.02455
234.367,29.3617,0.38082,98.20912,1.02337
236.867,29.60122,0.38922,98.19795,1.02219
239.367,29.8409,0.40536,98.07287,1.021
241.867,30.0803,0.41681,97.9484,1.01979
244.367,30.3192,0.43592,97.8315,1.01857
246.867,30.558,0.45812,97.69434,1.01734
249.367,30.7964,0.48493,97.4871,1.0161
251.867,31.03449,0.50886,97.31249,1.01484
254.367,31.27301,0.5356,97.05389,1.01358
256.867,31.5116,0.56516,96.74651,1.0123
259.367,31.74966,0.59943,96.44449,1.01101
261.867,31.9879,0.63542,96.10915,1.00971
264.367,32.22588,0.67727,95.64854,1.0084
266.867,32.46522,0.72686,95.17791,1.00707
269.367,32.70373,0.77773,94.5846,1.00574
271.867,32.9433,0.83459,93.96,1.00439
274.367,33.18249,0.89901,93.2118,1.00304
276.867,33.4217,0.96364,92.42792,1.00167
279.367,33.66174,1.02963,91.53984,1.00029
281.867,33.90148,1.09598,90.55982,0.9989
284.367,34.142,1.16712,89.42324,0.9975
286.867,34.38214,1.23857,88.271,0.99608
289.367,34.62324,1.3071,86.88991,0.99466
291.867,34.86404,1.36532,85.50211,0.99323
294.367,35.10464,1.41897,83.9837,0.99178
296.867,35.3454,1.45558,82.43574,0.99033
299.367,35.58615,1.45497,80.86659,0.98886
301.867,35.8258,1.36841,79.2754,0.98739
304.367,36.06504,1.19394,77.9402,0.9859
306.867,36.3035,1.02609,76.70476,0.9844
309.367,36.5418,0.86466,75.7083,0.98289
311.867,36.78028,0.71868,74.85211,0.98138
314.367,37.019,0.59568,74.16149,0.97985
316.867,37.25772,0.5111,73.5642,0.97831
319.367,37.4972,0.45352,73.04585,0.97676
321.867,37.73661,0.41563,72.6392,0.9752
324.367,37.9769,0.38442,72.2889,0.97363
326.867,38.21654,0.36715,71.91905,0.97205
329.367,38.45733,0.35256,71.64067,0.97047
331.867,38.69744,0.34552,71.29486,0.96887
334.367,38.9383,0.33648,70.9996,0.96726
336.867,39.17928,0.33722,70.7057,0.96564
339.367,39.42038,0.34167,70.32288,0.96402
341.867,39.6617,0.35416,69.97318,0.96238
344.367,39.90344,0.37139,69.50444,0.96073
346.867,40.14535,0.39743,68.90485,0.95908
349.367,40.38749,0.42725,68.19346,0.95741
351.867,40.6301,0.46288,67.35422,0.95574
354.367,40.87272,0.50963,66.31243,0.95406
356.867,41.11593,0.55972,65.07778,0.95236
359.367,41.35879,0.61701,63.54515,0.95066
361.867,41.60192,0.67884,61.6551,0.94895
364.367,41.84576,0.74287,59.42485,0.94723
366.867,42.0897,0.81626,56.74748,0.9455
369.367,42.33338,0.87988,53.64161,0.94377
371.867,42.5769,0.94531,50.04865,0.94202
374.367,42.82009,0.99544,46.06726,0.94027
376.867,43.06357,1.02845,41.59292,0.9385
379.367,43.30639,1.03516,36.86889,0.93673
381.867,43.54919,1.00724,32.07,0.93495
384.367,43.79197,0.94724,27.21862,0.93316
386.867,44.03451,0.85932,22.69645,0.93137
389.367,44.27623,0.74746,18.50092,0.92956
391.867,44.51872,0.62181,14.8499,0.92775
394.367,44.76047,0.49836,11.80763,0.92593
396.867,45.0024,0.38924,9.35557,0.9241
399.367,45.24474,0.29729,7.41561,0.92226
401.867,45.48688,0.22875,5.89436,0.92042
404.367,45.72984,0.17253,4.72475,0.91856
406.867,45.97327,0.1304,3.80807,0.9167
409.367,46.217,0.09883155,3.18733,0.91483
411.867,46.4609,0.07402827,2.69727,0.91296
414.367,46.70517,0.05691987,2.39379,0.91107
416.867,46.9497,0.04585914,2.16161,0.90918
419.367,47.19313,0.04121377,1.94646,0.90729
421.867,47.43649,0.03550112,1.84424,0.90538
424.367,47.68144,0.03696415,1.75954,0.90347
426.867,47.92565,0.03676093,1.70225,0.90155
429.367,48.17008,0.04500578,1.6352,0.89962
431.867,48.41387,0.05228905,1.57004,0.89768
434.367,48.6588,0.0592814,1.53441,0.89574
436.867,48.9039,0.05109956,1.48402,0.89379
439.367,49.14966,0.04218801,1.42489,0.89184
441.867,49.39567,0.03203137,1.4252,0.88988
444.367,49.64188,0.01899029,1.40842,0.88791
446.867,49.8884,0.01019456,1.39184,0.88593
449.367,50.13447,0.008185484,1.37495,0.88395
451.867,50.3802,0.003982256,1.37474,0.88196
454.367,50.62632,-0.00528166,1.34975,0.87997
456.867,50.87222,-0.00676387,1.29399,0.87796
459.367,51.11912,-0.01165234,1.30798,0.87596
461.867,51.36542,-0.01607357,1.30766,0.87394
464.367,51.61176,-0.01763369,1.27424,0.87192
466.867,51.85774,-0.01961577,1.25821,0.8699
469.367,52.10413,-0.02024226,1.25712,0.86786
471.867,52.3504,-0.02339675,1.27398,0.86583
474.367,52.5968,-0.02782075,1.2751,0.86378
476.867,52.84287,-0.03145653,1.20689,0.86173
479.367,53.0905,-0.03266113,1.1806,0.85968
481.867,53.33795,-0.0371801,1.15771,0.85762
484.367,53.58531,-0.04129983,1.15663,0.85555
486.867,53.832,-0.04319173,1.15394,0.85348
489.367,54.0784,-0.04659216,1.13133,0.8514
491.867,54.3252,-0.0512541,1.13156,0.84932
494.367,54.5722,-0.05574455,1.0977,0.84723
496.867,54.8191,-0.05557175,1.08957,0.84513
499.367,55.0662,-0.06197133,1.10634,0.84304
501.867,55.3141,-0.06670414,1.06429,0.84093
504.367,55.5625,-0.07254741,1.06429,0.83882
506.867,55.8116,-0.07665879,1.05587,0.83671
509.367,56.05981,-0.0797369,1.02274,0.83459
511.867,56.308,-0.08511386,1.02245,0.83247
514.367,56.55596,-0.08958463,1.06429,0.83034
516.867,56.80415,-0.09092215,1.031,0.8282
519.367,57.05239,-0.09780925,1.07259,0.82607
521.867,57.30105,-0.09789433,1.02244,0.82392
524.367,57.5494,-0.10368,1.02302,0.82178
526.867,57.79825,-0.10472,0.99694,0.81963
529.367,58.04674,-0.10368,0.99694,0.81747
531.867,58.29563,-0.10811,0.98076,0.81531
534.367,58.5446,-0.10851,0.9465,0.81315
536.867,58.7934,-0.10955,0.98035,0.81098
539.367,59.04241,-0.11044,0.96353,0.80881
541.867,59.2908,-0.10998,0.99697,0.80663
544.367,59.5393,-0.11113,0.96352,0.80445
546.867,59.7873,-0.10751,0.93852,0.80227
549.367,60.03617,-0.10714,0.93852,0.80008
551.867,60.2852,-0.10627,0.96377,0.79789
554.367,60.53397,-0.10714,0.93004,0.79569
556.867,60.78366,-0.10953,0.9301,0.7935
559.367,61.033,-0.11139,0.92782,0.79129
561.867,61.2826,-0.1125,0.90489,0.78909
564.367,61.53199,-0.11097,0.86994,0.78688
566.867,61.781,-0.11455,0.90492,0.78467
569.367,62.03,-0.11467,0.88801,0.78245
571.867,62.2799,-0.11549,0.92143,0.78023
574.367,62.5303,-0.11505,0.86275,0.77801
576.867,62.7803,-0.11331,0.88829,0.77579
579.367,63.03147,-0.11663,0.86276,0.77356
581.867,63.2815,-0.11872,0.90715,0.77133
584.367,63.53171,-0.11633,0.83635,0.7691
586.867,63.7815,-0.1172,0.90478,0.76686
589.367,64.03164,-0.11313,0.86297,0.76462
591.867,64.28233,-0.11678,0.87899,0.76238
594.367,64.53274,-0.11425,0.89644,0.76014
596.867,64.7829,-0.11386,0.90485,0.75789
599.367,65.03296,-0.11287,0.88803,0.75564
601.867,65.28385,-0.11153,0.86277,0.75339
604.367,65.535,-0.11519,0.88829,0.75114
606.867,65.78574,-0.11122,0.82954,0.74888
609.367,66.03679,-0.10959,0.86547,0.74662
611.867,66.28742,-0.10839,0.86301,0.74436
614.367,66.5385,-0.10737,0.83776,0.7421
616.867,66.7898,-0.10387,0.82877,0.73984
619.367,67.04114,-0.1083,0.82934,0.73757
621.867,67.29268,-0.10123,0.82927,0.7353
624.367,67.54385,-0.10344,0.82992,0.73303
626.867,67.7949,-0.10056,0.81843,0.73076
629.367,68.04609,-0.10063,0.82092,0.72849
631.867,68.297,-0.09783791,0.85459,0.72621
634.367,68.54745,-0.09694848,0.82092,0.72394
636.867,68.79887,-0.0977582,0.82088,0.72166
639.367,69.0502,-0.09764683,0.82092,0.71938
641.867,69.30135,-0.09903206,0.82066,0.7171
644.367,69.55218,-0.09631936,0.80408,0.71482
646.867,69.80409,-0.10078,0.80408,0.71254
648.767,69.99509,-0.10284,0.80408,0.7108