Folder: fsri_materials_database/01_Data/Overstuffed_Chair_Polyester_Batting/FTIR/ATR

Note: 01_Data/README.md
# Materials and Products Database
## 01_Data

Raw data generated from each apparatus are included here in plain-text format. The data is organized first by material, next by the short name of test apparatus used, and where applicable additional filtering by test settings.

### material.json

Each material directory contains a json file of the same name as the material. This file links the data stored in the repository as well as data and graphs produced by the accompanying scripts (__02_Scripts__) to the respective landing page for the material on the front-end website.

File: Overstuffed_Chair_Polyester_Batting_ATR_210608_R1.tst
4497.79,-0.00622
4484.29,-0.00628
4470.79,-0.00607
4457.29,-0.00593
4443.79,-0.00577
4430.28,-0.00552
4416.78,-0.00574
4403.28,-0.00570
4389.78,-0.00537
4376.28,-0.00527
4362.78,-0.00546
4349.28,-0.00543
4335.78,-0.00514
4322.28,-0.00518
4308.77,-0.00528
4295.27,-0.00510
4281.77,-0.00502
4268.27,-0.00512
4254.77,-0.00498
4241.27,-0.00502
4227.77,-0.00480
4214.27,-0.00476
4200.77,-0.00475
4187.26,-0.00469
4173.76,-0.00436
4160.26,-0.00458
4146.76,-0.00471
4133.26,-0.00435
4119.76,-0.00415
4106.26,-0.00390
4092.76,-0.00397
4079.26,-0.00393
4065.75,-0.00426
4052.25,-0.00416
4038.75,-0.00386
4025.25,-0.00348
4011.75,-0.00365
3998.25,-0.00370
3984.75,-0.00337
3971.25,-0.00264
3957.75,-0.00238
3944.25,-0.00122
3930.74,0.00001
3917.24,-0.00039
3903.74,0.00403
3890.24,-0.00001
3876.74,-0.00098
3863.24,0.00267
3849.74,0.00077
3836.24,0.00300
3822.74,0.00253
3809.23,-0.00092
3795.73,-0.00059
3782.23,-0.00083
3768.73,0.00099
3755.23,0.00297
3741.73,0.00387
3728.23,0.00181
3714.73,0.00117
3701.23,-0.00032
3687.72,0.00188
3674.22,0.00380
3660.72,-0.00093
3647.22,0.00414
3633.72,0.00138
3620.22,0.00356
3606.72,0.00111
3593.22,0.00089
3579.72,-0.00022
3566.21,0.00528
3552.71,0.00040
3539.21,-0.00137
3525.71,0.00211
3512.21,-0.00115
3498.71,-0.00116
3485.21,-0.00136
3471.71,-0.00230
3458.21,-0.00201
3444.7,-0.00096
3431.2,-0.00177
3417.7,-0.00200
3404.2,-0.00251
3390.7,-0.00230
3377.2,-0.00258
3363.7,-0.00210
3350.2,-0.00271
3336.7,-0.00194
3323.2,-0.00228
3309.69,-0.00176
3296.19,-0.00205
3282.69,-0.00172
3269.19,-0.00192
3255.69,-0.00157
3242.19,-0.00153
3228.69,-0.00138
3215.19,-0.00133
3201.69,-0.00114
3188.18,-0.00119
3174.68,-0.00107
3161.18,-0.00121
3147.68,-0.00085
3134.18,-0.00052
3120.68,-0.00010
3107.18,-0.00015
3093.68,-0.00004
3080.18,0.00037
3066.67,0.00051
3053.17,0.00049
3039.67,0.00006
3026.17,0.00034
3012.67,0.00113
2999.17,0.00117
2985.67,0.00182
2972.17,0.00338
2958.67,0.00337
2945.16,0.00226
2931.66,0.00204
2918.16,0.00232
2904.66,0.00255
2891.16,0.00211
2877.66,0.00192
2864.16,0.00190
2850.66,0.00201
2837.16,0.00146
2823.66,0.00128
2810.15,0.00131
2796.65,0.00129
2783.15,0.00138
2769.65,0.00137
2756.15,0.00140
2742.65,0.00143
2729.15,0.00144
2715.65,0.00148
2702.15,0.00148
2688.64,0.00150
2675.14,0.00155
2661.64,0.00163
2648.14,0.00161
2634.64,0.00148
2621.14,0.00141
2607.64,0.00132
2594.14,0.00158
2580.64,0.00175
2567.13,0.00162
2553.63,0.00148
2540.13,0.00175
2526.63,0.00156
2513.13,0.00159
2499.63,0.00158
2486.13,0.00178
2472.63,0.00176
2459.13,0.00168
2445.62,0.00159
2432.12,0.00198
2418.62,0.00194
2405.12,0.00211
2391.62,0.00225
2378.12,0.00269
2364.62,-0.00350
2351.12,0.00054
2337.62,-0.00252
2324.12,0.00076
2310.61,0.00339
2297.11,0.00272
2283.61,0.00253
2270.11,0.00190
2256.61,0.00226
2243.11,0.00218
2229.61,0.00203
2216.11,0.00186
2202.61,0.00134
2189.1,0.00115
2175.6,0.00081
2162.1,0.00044
2148.6,0.00155
2135.1,0.00209
2121.6,0.00176
2108.1,0.00174
2094.6,0.00245
2081.1,0.00247
2067.59,0.00287
2054.09,0.00229
2040.59,0.00258
2027.09,0.00241
2013.59,0.00278
2000.09,0.00298
1986.59,0.00359
1973.09,0.00300
1959.59,0.00350
1946.08,0.00474
1932.58,0.00353
1919.08,0.00475
1905.58,0.00369
1892.08,0.00410
1878.58,0.00325
1865.08,0.00478
1851.58,0.00384
1838.08,0.00492
1824.57,0.00624
1811.07,0.00621
1797.57,0.00730
1784.07,0.00589
1770.57,0.00880
1757.07,0.00775
1743.57,0.01819
1730.07,0.04191
1716.57,0.07083
1703.07,0.06028
1689.56,0.03491
1676.06,0.02589
1662.56,0.01828
1649.06,0.01874
1635.56,0.01527
1622.06,0.01318
1608.56,0.01158
1595.06,0.00911
1581.56,0.01025
1568.05,0.01150
1554.55,0.01459
1541.05,0.02124
1527.55,0.01527
1514.05,0.01525
1500.55,0.01601
1487.05,0.01288
1473.55,0.01918
1460.05,0.01545
1446.54,0.01392
1433.04,0.01284
1419.54,0.01463
1406.04,0.02605
1392.54,0.01541
1379.04,0.01421
1365.54,0.01349
1352.04,0.01112
1338.54,0.02975
1325.03,0.01112
1311.53,0.01547
1298.03,0.02199
1284.53,0.03451
1271.03,0.04807
1257.53,0.05975
1244.03,0.06855
1230.53,0.06178
1217.03,0.04738
1203.53,0.03494
1190.02,0.02550
1176.52,0.02291
1163.02,0.01836
1149.52,0.01992
1136.02,0.03353
1122.52,0.05239
1109.02,0.05682
1095.52,0.06867
1082.02,0.06298
1068.51,0.04736
1055.01,0.03856
1041.51,0.03779
1028.01,0.03335
1014.51,0.05270
1001.01,0.03593
987.508,0.03291
974.007,0.03567
960.506,0.03386
947.005,0.02956
933.503,0.02824
920.002,0.02621
906.501,0.02616
893,0.02723
879.499,0.03131
865.998,0.03680
852.497,0.03470
838.996,0.03380
825.495,0.02929
811.994,0.02751
798.493,0.02729
784.992,0.02624
771.49,0.02295
757.989,0.01867
744.488,0.01616
730.987,0.05486
717.486,0.07982
703.985,0.05613
690.484,0.04329
676.983,0.03881
663.482,0.03572
649.981,0.03370
636.48,0.03363
622.979,0.03042
609.477,0.02441
599.834,0.03163

File: Overstuffed_Chair_Polyester_Batting_ATR_210608_R2.tst
4497.79,-0.00534
4484.29,-0.00516
4470.79,-0.00492
4457.29,-0.00499
4443.79,-0.00476
4430.28,-0.00505
4416.78,-0.00475
4403.28,-0.00459
4389.78,-0.00438
4376.28,-0.00450
4362.78,-0.00450
4349.28,-0.00441
4335.78,-0.00421
4322.28,-0.00418
4308.77,-0.00429
4295.27,-0.00433
4281.77,-0.00404
4268.27,-0.00384
4254.77,-0.00391
4241.27,-0.00399
4227.77,-0.00396
4214.27,-0.00373
4200.77,-0.00365
4187.26,-0.00374
4173.76,-0.00343
4160.26,-0.00359
4146.76,-0.00358
4133.26,-0.00330
4119.76,-0.00340
4106.26,-0.00294
4092.76,-0.00325
4079.26,-0.00294
4065.75,-0.00309
4052.25,-0.00318
4038.75,-0.00305
4025.25,-0.00264
4011.75,-0.00281
3998.25,-0.00259
3984.75,-0.00244
3971.25,-0.00166
3957.75,-0.00123
3944.25,-0.00026
3930.74,0.00085
3917.24,0.00076
3903.74,0.00508
3890.24,0.00122
3876.74,0.00006
3863.24,0.00393
3849.74,0.00166
3836.24,0.00397
3822.74,0.00357
3809.23,-0.00003
3795.73,0.00051
3782.23,0.00006
3768.73,0.00189
3755.23,0.00413
3741.73,0.00539
3728.23,0.00321
3714.73,0.00227
3701.23,0.00073
3687.72,0.00286
3674.22,0.00488
3660.72,-0.00013
3647.22,0.00545
3633.72,0.00194
3620.22,0.00426
3606.72,0.00215
3593.22,0.00157
3579.72,0.00058
3566.21,0.00620
3552.71,0.00122
3539.21,-0.00044
3525.71,0.00294
3512.21,-0.00030
3498.71,-0.00042
3485.21,-0.00054
3471.71,-0.00150
3458.21,-0.00110
3444.7,-0.00011
3431.2,-0.00096
3417.7,-0.00112
3404.2,-0.00169
3390.7,-0.00138
3377.2,-0.00160
3363.7,-0.00114
3350.2,-0.00171
3336.7,-0.00089
3323.2,-0.00117
3309.69,-0.00076
3296.19,-0.00100
3282.69,-0.00084
3269.19,-0.00082
3255.69,-0.00055
3242.19,-0.00041
3228.69,-0.00038
3215.19,-0.00037
3201.69,-0.00021
3188.18,-0.00034
3174.68,-0.00012
3161.18,-0.00019
3147.68,0.00013
3134.18,0.00045
3120.68,0.00085
3107.18,0.00078
3093.68,0.00088
3080.18,0.00141
3066.67,0.00149
3053.17,0.00148
3039.67,0.00101
3026.17,0.00125
3012.67,0.00215
2999.17,0.00203
2985.67,0.00266
2972.17,0.00393
2958.67,0.00397
2945.16,0.00316
2931.66,0.00300
2918.16,0.00326
2904.66,0.00348
2891.16,0.00296
2877.66,0.00282
2864.16,0.00287
2850.66,0.00312
2837.16,0.00252
2823.66,0.00228
2810.15,0.00239
2796.65,0.00236
2783.15,0.00247
2769.65,0.00254
2756.15,0.00251
2742.65,0.00258
2729.15,0.00255
2715.65,0.00255
2702.15,0.00261
2688.64,0.00266
2675.14,0.00270
2661.64,0.00280
2648.14,0.00264
2634.64,0.00267
2621.14,0.00260
2607.64,0.00248
2594.14,0.00264
2580.64,0.00270
2567.13,0.00266
2553.63,0.00268
2540.13,0.00277
2526.63,0.00265
2513.13,0.00261
2499.63,0.00269
2486.13,0.00283
2472.63,0.00284
2459.13,0.00286
2445.62,0.00272
2432.12,0.00305
2418.62,0.00314
2405.12,0.00322
2391.62,0.00341
2378.12,0.00367
2364.62,-0.00276
2351.12,0.00147
2337.62,-0.00188
2324.12,0.00195
2310.61,0.00438
2297.11,0.00390
2283.61,0.00347
2270.11,0.00302
2256.61,0.00303
2243.11,0.00321
2229.61,0.00307
2216.11,0.00301
2202.61,0.00236
2189.1,0.00204
2175.6,0.00190
2162.1,0.00104
2148.6,0.00292
2135.1,0.00292
2121.6,0.00292
2108.1,0.00264
2094.6,0.00345
2081.1,0.00338
2067.59,0.00393
2054.09,0.00335
2040.59,0.00413
2027.09,0.00302
2013.59,0.00370
2000.09,0.00374
1986.59,0.00433
1973.09,0.00385
1959.59,0.00478
1946.08,0.00556
1932.58,0.00464
1919.08,0.00589
1905.58,0.00479
1892.08,0.00527
1878.58,0.00416
1865.08,0.00573
1851.58,0.00482
1838.08,0.00579
1824.57,0.00695
1811.07,0.00698
1797.57,0.00811
1784.07,0.00650
1770.57,0.00909
1757.07,0.00807
1743.57,0.01767
1730.07,0.03971
1716.57,0.06799
1703.07,0.05835
1689.56,0.03519
1676.06,0.02680
1662.56,0.01970
1649.06,0.02042
1635.56,0.01696
1622.06,0.01467
1608.56,0.01308
1595.06,0.01072
1581.56,0.01153
1568.05,0.01291
1554.55,0.01607
1541.05,0.02297
1527.55,0.01648
1514.05,0.01642
1500.55,0.01707
1487.05,0.01394
1473.55,0.01962
1460.05,0.01610
1446.54,0.01470
1433.04,0.01376
1419.54,0.01516
1406.04,0.02576
1392.54,0.01591
1379.04,0.01467
1365.54,0.01404
1352.04,0.01138
1338.54,0.02938
1325.03,0.01134
1311.53,0.01537
1298.03,0.02121
1284.53,0.03290
1271.03,0.04621
1257.53,0.05779
1244.03,0.06713
1230.53,0.06228
1217.03,0.04939
1203.53,0.03702
1190.02,0.02752
1176.52,0.02433
1163.02,0.01961
1149.52,0.02025
1136.02,0.03270
1122.52,0.05115
1109.02,0.05559
1095.52,0.06778
1082.02,0.06338
1068.51,0.04948
1055.01,0.04060
1041.51,0.03961
1028.01,0.03472
1014.51,0.05426
1001.01,0.03834
987.508,0.03502
974.007,0.03704
960.506,0.03588
947.005,0.03185
933.503,0.03052
920.002,0.02849
906.501,0.02810
893,0.02939
879.499,0.03232
865.998,0.03873
852.497,0.03639
838.996,0.03653
825.495,0.03155
811.994,0.02990
798.493,0.02956
784.992,0.02840
771.49,0.02552
757.989,0.02055
744.488,0.01778
730.987,0.05451
717.486,0.08009
703.985,0.05770
690.484,0.04591
676.983,0.04041
663.482,0.03783
649.981,0.03654
636.48,0.03614
622.979,0.03112
609.477,0.03178
599.834,0.03405

File: Overstuffed_Chair_Polyester_Batting_ATR_210608_R3.tst
4497.79,-0.00641
4484.29,-0.00624
4470.79,-0.00606
4457.29,-0.00614
4443.79,-0.00581
4430.28,-0.00597
4416.78,-0.00581
4403.28,-0.00549
4389.78,-0.00546
4376.28,-0.00549
4362.78,-0.00542
4349.28,-0.00564
4335.78,-0.00546
4322.28,-0.00514
4308.77,-0.00520
4295.27,-0.00533
4281.77,-0.00525
4268.27,-0.00513
4254.77,-0.00493
4241.27,-0.00503
4227.77,-0.00485
4214.27,-0.00488
4200.77,-0.00479
4187.26,-0.00484
4173.76,-0.00456
4160.26,-0.00447
4146.76,-0.00455
4133.26,-0.00442
4119.76,-0.00439
4106.26,-0.00389
4092.76,-0.00413
4079.26,-0.00379
4065.75,-0.00406
4052.25,-0.00388
4038.75,-0.00392
4025.25,-0.00347
4011.75,-0.00350
3998.25,-0.00352
3984.75,-0.00331
3971.25,-0.00243
3957.75,-0.00225
3944.25,-0.00115
3930.74,0.00000
3917.24,-0.00023
3903.74,0.00442
3890.24,0.00010
3876.74,-0.00072
3863.24,0.00301
3849.74,0.00122
3836.24,0.00358
3822.74,0.00292
3809.23,-0.00084
3795.73,-0.00055
3782.23,-0.00079
3768.73,0.00102
3755.23,0.00324
3741.73,0.00465
3728.23,0.00247
3714.73,0.00138
3701.23,-0.00015
3687.72,0.00233
3674.22,0.00449
3660.72,-0.00093
3647.22,0.00493
3633.72,0.00121
3620.22,0.00393
3606.72,0.00141
3593.22,0.00099
3579.72,-0.00014
3566.21,0.00540
3552.71,0.00038
3539.21,-0.00127
3525.71,0.00230
3512.21,-0.00113
3498.71,-0.00118
3485.21,-0.00115
3471.71,-0.00222
3458.21,-0.00180
3444.7,-0.00092
3431.2,-0.00167
3417.7,-0.00193
3404.2,-0.00242
3390.7,-0.00219
3377.2,-0.00241
3363.7,-0.00196
3350.2,-0.00245
3336.7,-0.00174
3323.2,-0.00213
3309.69,-0.00160
3296.19,-0.00196
3282.69,-0.00164
3269.19,-0.00159
3255.69,-0.00144
3242.19,-0.00135
3228.69,-0.00134
3215.19,-0.00132
3201.69,-0.00113
3188.18,-0.00101
3174.68,-0.00092
3161.18,-0.00105
3147.68,-0.00080
3134.18,-0.00057
3120.68,-0.00004
3107.18,-0.00000
3093.68,0.00001
3080.18,0.00064
3066.67,0.00068
3053.17,0.00063
3039.67,0.00022
3026.17,0.00050
3012.67,0.00127
2999.17,0.00126
2985.67,0.00181
2972.17,0.00323
2958.67,0.00337
2945.16,0.00241
2931.66,0.00234
2918.16,0.00273
2904.66,0.00266
2891.16,0.00223
2877.66,0.00209
2864.16,0.00209
2850.66,0.00238
2837.16,0.00168
2823.66,0.00147
2810.15,0.00157
2796.65,0.00154
2783.15,0.00157
2769.65,0.00158
2756.15,0.00165
2742.65,0.00166
2729.15,0.00173
2715.65,0.00166
2702.15,0.00173
2688.64,0.00183
2675.14,0.00181
2661.64,0.00197
2648.14,0.00183
2634.64,0.00184
2621.14,0.00163
2607.64,0.00162
2594.14,0.00176
2580.64,0.00185
2567.13,0.00189
2553.63,0.00173
2540.13,0.00185
2526.63,0.00187
2513.13,0.00179
2499.63,0.00181
2486.13,0.00189
2472.63,0.00202
2459.13,0.00206
2445.62,0.00194
2432.12,0.00237
2418.62,0.00236
2405.12,0.00246
2391.62,0.00259
2378.12,0.00302
2364.62,-0.00380
2351.12,0.00077
2337.62,-0.00247
2324.12,0.00117
2310.61,0.00368
2297.11,0.00318
2283.61,0.00295
2270.11,0.00240
2256.61,0.00254
2243.11,0.00266
2229.61,0.00235
2216.11,0.00239
2202.61,0.00199
2189.1,0.00150
2175.6,0.00113
2162.1,0.00084
2148.6,0.00218
2135.1,0.00249
2121.6,0.00250
2108.1,0.00237
2094.6,0.00292
2081.1,0.00281
2067.59,0.00330
2054.09,0.00293
2040.59,0.00352
2027.09,0.00295
2013.59,0.00334
2000.09,0.00318
1986.59,0.00400
1973.09,0.00361
1959.59,0.00445
1946.08,0.00545
1932.58,0.00414
1919.08,0.00548
1905.58,0.00416
1892.08,0.00490
1878.58,0.00382
1865.08,0.00532
1851.58,0.00420
1838.08,0.00529
1824.57,0.00664
1811.07,0.00662
1797.57,0.00774
1784.07,0.00618
1770.57,0.00905
1757.07,0.00802
1743.57,0.01839
1730.07,0.04135
1716.57,0.06936
1703.07,0.05825
1689.56,0.03381
1676.06,0.02540
1662.56,0.01821
1649.06,0.01922
1635.56,0.01576
1622.06,0.01360
1608.56,0.01238
1595.06,0.00982
1581.56,0.01061
1568.05,0.01196
1554.55,0.01535
1541.05,0.02235
1527.55,0.01580
1514.05,0.01568
1500.55,0.01613
1487.05,0.01343
1473.55,0.01895
1460.05,0.01541
1446.54,0.01425
1433.04,0.01353
1419.54,0.01464
1406.04,0.02484
1392.54,0.01528
1379.04,0.01413
1365.54,0.01372
1352.04,0.01099
1338.54,0.02840
1325.03,0.01108
1311.53,0.01613
1298.03,0.02201
1284.53,0.03335
1271.03,0.04650
1257.53,0.05755
1244.03,0.06614
1230.53,0.06141
1217.03,0.04939
1203.53,0.03533
1190.02,0.02598
1176.52,0.02321
1163.02,0.01918
1149.52,0.02047
1136.02,0.03286
1122.52,0.05064
1109.02,0.05439
1095.52,0.06676
1082.02,0.06152
1068.51,0.04728
1055.01,0.03837
1041.51,0.03791
1028.01,0.03396
1014.51,0.05178
1001.01,0.03575
987.508,0.03230
974.007,0.03417
960.506,0.03282
947.005,0.02932
933.503,0.02821
920.002,0.02659
906.501,0.02661
893,0.02711
879.499,0.03100
865.998,0.03605
852.497,0.03417
838.996,0.03383
825.495,0.02946
811.994,0.02785
798.493,0.02791
784.992,0.02640
771.49,0.02427
757.989,0.01900
744.488,0.01579
730.987,0.05390
717.486,0.07682
703.985,0.05408
690.484,0.04218
676.983,0.03742
663.482,0.03457
649.981,0.03348
636.48,0.03328
622.979,0.02853
609.477,0.02640
599.834,0.03142

File: Overstuffed_Chair_Polyester_Batting_ATR_210608_R4.tst
4497.79,-0.00583
4484.29,-0.00573
4470.79,-0.00561
4457.29,-0.00560
4443.79,-0.00537
4430.28,-0.00546
4416.78,-0.00537
4403.28,-0.00512
4389.78,-0.00517
4376.28,-0.00505
4362.78,-0.00493
4349.28,-0.00497
4335.78,-0.00472
4322.28,-0.00452
4308.77,-0.00493
4295.27,-0.00475
4281.77,-0.00468
4268.27,-0.00464
4254.77,-0.00487
4241.27,-0.00449
4227.77,-0.00445
4214.27,-0.00438
4200.77,-0.00428
4187.26,-0.00436
4173.76,-0.00409
4160.26,-0.00408
4146.76,-0.00406
4133.26,-0.00387
4119.76,-0.00393
4106.26,-0.00357
4092.76,-0.00391
4079.26,-0.00345
4065.75,-0.00373
4052.25,-0.00364
4038.75,-0.00360
4025.25,-0.00332
4011.75,-0.00305
3998.25,-0.00320
3984.75,-0.00292
3971.25,-0.00203
3957.75,-0.00186
3944.25,-0.00058
3930.74,0.00063
3917.24,0.00036
3903.74,0.00502
3890.24,0.00062
3876.74,-0.00049
3863.24,0.00383
3849.74,0.00170
3836.24,0.00397
3822.74,0.00328
3809.23,-0.00033
3795.73,0.00024
3782.23,-0.00026
3768.73,0.00163
3755.23,0.00388
3741.73,0.00544
3728.23,0.00298
3714.73,0.00177
3701.23,0.00043
3687.72,0.00307
3674.22,0.00506
3660.72,-0.00041
3647.22,0.00581
3633.72,0.00168
3620.22,0.00464
3606.72,0.00214
3593.22,0.00154
3579.72,0.00032
3566.21,0.00628
3552.71,0.00101
3539.21,-0.00080
3525.71,0.00275
3512.21,-0.00058
3498.71,-0.00065
3485.21,-0.00081
3471.71,-0.00175
3458.21,-0.00139
3444.7,-0.00048
3431.2,-0.00125
3417.7,-0.00148
3404.2,-0.00210
3390.7,-0.00167
3377.2,-0.00195
3363.7,-0.00149
3350.2,-0.00213
3336.7,-0.00132
3323.2,-0.00168
3309.69,-0.00109
3296.19,-0.00150
3282.69,-0.00121
3269.19,-0.00115
3255.69,-0.00104
3242.19,-0.00094
3228.69,-0.00075
3215.19,-0.00086
3201.69,-0.00058
3188.18,-0.00074
3174.68,-0.00058
3161.18,-0.00070
3147.68,-0.00044
3134.18,-0.00016
3120.68,0.00031
3107.18,0.00023
3093.68,0.00036
3080.18,0.00091
3066.67,0.00101
3053.17,0.00086
3039.67,0.00055
3026.17,0.00084
3012.67,0.00157
2999.17,0.00157
2985.67,0.00207
2972.17,0.00354
2958.67,0.00392
2945.16,0.00297
2931.66,0.00327
2918.16,0.00360
2904.66,0.00340
2891.16,0.00274
2877.66,0.00254
2864.16,0.00271
2850.66,0.00318
2837.16,0.00215
2823.66,0.00178
2810.15,0.00180
2796.65,0.00172
2783.15,0.00185
2769.65,0.00178
2756.15,0.00187
2742.65,0.00190
2729.15,0.00184
2715.65,0.00194
2702.15,0.00196
2688.64,0.00196
2675.14,0.00202
2661.64,0.00214
2648.14,0.00203
2634.64,0.00200
2621.14,0.00192
2607.64,0.00188
2594.14,0.00207
2580.64,0.00208
2567.13,0.00206
2553.63,0.00204
2540.13,0.00221
2526.63,0.00218
2513.13,0.00211
2499.63,0.00215
2486.13,0.00220
2472.63,0.00238
2459.13,0.00231
2445.62,0.00218
2432.12,0.00265
2418.62,0.00258
2405.12,0.00280
2391.62,0.00281
2378.12,0.00345
2364.62,-0.00187
2351.12,0.00155
2337.62,-0.00152
2324.12,0.00213
2310.61,0.00422
2297.11,0.00359
2283.61,0.00333
2270.11,0.00283
2256.61,0.00314
2243.11,0.00337
2229.61,0.00313
2216.11,0.00311
2202.61,0.00325
2189.1,0.00266
2175.6,0.00251
2162.1,0.00268
2148.6,0.00331
2135.1,0.00331
2121.6,0.00289
2108.1,0.00294
2094.6,0.00346
2081.1,0.00353
2067.59,0.00421
2054.09,0.00365
2040.59,0.00450
2027.09,0.00430
2013.59,0.00453
2000.09,0.00447
1986.59,0.00483
1973.09,0.00471
1959.59,0.00492
1946.08,0.00594
1932.58,0.00479
1919.08,0.00619
1905.58,0.00463
1892.08,0.00525
1878.58,0.00422
1865.08,0.00579
1851.58,0.00465
1838.08,0.00563
1824.57,0.00691
1811.07,0.00689
1797.57,0.00815
1784.07,0.00656
1770.57,0.00952
1757.07,0.00835
1743.57,0.01863
1730.07,0.04118
1716.57,0.06976
1703.07,0.05863
1689.56,0.03441
1676.06,0.02601
1662.56,0.01902
1649.06,0.02014
1635.56,0.01653
1622.06,0.01422
1608.56,0.01319
1595.06,0.01038
1581.56,0.01120
1568.05,0.01259
1554.55,0.01598
1541.05,0.02364
1527.55,0.01663
1514.05,0.01646
1500.55,0.01652
1487.05,0.01371
1473.55,0.01933
1460.05,0.01614
1446.54,0.01510
1433.04,0.01426
1419.54,0.01521
1406.04,0.02493
1392.54,0.01566
1379.04,0.01454
1365.54,0.01426
1352.04,0.01117
1338.54,0.02708
1325.03,0.01137
1311.53,0.01711
1298.03,0.02311
1284.53,0.03460
1271.03,0.04781
1257.53,0.05817
1244.03,0.06637
1230.53,0.06265
1217.03,0.05106
1203.53,0.03595
1190.02,0.02612
1176.52,0.02356
1163.02,0.01989
1149.52,0.02129
1136.02,0.03384
1122.52,0.05078
1109.02,0.05481
1095.52,0.06799
1082.02,0.06277
1068.51,0.04862
1055.01,0.03881
1041.51,0.03902
1028.01,0.03535
1014.51,0.05245
1001.01,0.03620
987.508,0.03258
974.007,0.03450
960.506,0.03239
947.005,0.02934
933.503,0.02889
920.002,0.02699
906.501,0.02669
893,0.02799
879.499,0.03146
865.998,0.03690
852.497,0.03430
838.996,0.03397
825.495,0.03037
811.994,0.02890
798.493,0.02846
784.992,0.02728
771.49,0.02479
757.989,0.01963
744.488,0.01694
730.987,0.05573
717.486,0.07949
703.985,0.05687
690.484,0.04449
676.983,0.03975
663.482,0.03667
649.981,0.03529
636.48,0.03551
622.979,0.03589
609.477,0.03659
599.834,0.03604