Folder: fsri_materials_database/01_Data/PlasticC/Cone

Note: 01_Data/README.md
# Materials and Products Database
## 01_Data

Raw data generated from each apparatus are included here in plain-text format. The data is organized first by material, next by the short name of test apparatus used, and where applicable additional filtering by test settings.

### material.json

Each material directory contains a json file of the same name as the material. This file links the data stored in the repository as well as data and graphs produced by the accompanying scripts (__02_Scripts__) to the respective landing page for the material on the front-end website.

File: PlasticC_Cone_HF25Scalar_220218_R1.csv
LABORATORY,FSRI
TEST IDENT,PlasticC_HF25_1
OPERATOR,Dow
MATERIAL,Plastic C
ORIENTATION,Horizontal
HEAT FLUX,25
SURF AREA,0.01
C FACTOR,0.0385692
SPEC HOLDER DIFF,299.35
SPECIMEN MASS,31.5
SCAN TIME,0.25
O2 DELAY TIME,11
CO DELAY TIME,11
CO2 DELAY TIME,8
FLOW FACTOR,1
SCAN COUNT,1722
TIME TO IGN,141.75
END OF TEST SCAN,1242
END OF TEST TIME,310.5
TEST STATUS,1
PRE TEST CMT,Dimensions: 99.72 x 99.88 x 2.86 mm

File: PlasticC_Cone_HF25Scalar_220218_R2.csv
LABORATORY,FSRI
TEST IDENT,PlasticC_HF25_2
OPERATOR,Dow
MATERIAL,Plastic C
ORIENTATION,Horizontal
HEAT FLUX,25
SURF AREA,0.01
C FACTOR,0.0385692
SPEC HOLDER DIFF,299.7
SPECIMEN MASS,31.2
SCAN TIME,0.25
O2 DELAY TIME,11
CO DELAY TIME,11
CO2 DELAY TIME,8
FLOW FACTOR,1
SCAN COUNT,1634
TIME TO IGN,137
END OF TEST SCAN,1154
END OF TEST TIME,288.5
TEST STATUS,1
PRE TEST CMT,Dimensions: 99.99 x 99.60 x 2.89 mm

File: PlasticC_Cone_HF25Scalar_220218_R3.csv
LABORATORY,FSRI
TEST IDENT,PlasticC_HF25_3
OPERATOR,Dow
MATERIAL,Plastic C
ORIENTATION,Horizontal
HEAT FLUX,25
SURF AREA,0.01
C FACTOR,0.0385692
SPEC HOLDER DIFF,299.21
SPECIMEN MASS,31.1
SCAN TIME,0.25
O2 DELAY TIME,11
CO DELAY TIME,11
CO2 DELAY TIME,8
FLOW FACTOR,1
SCAN COUNT,1814
TIME TO IGN,147.25
END OF TEST SCAN,1334
END OF TEST TIME,333.5
TEST STATUS,1
PRE TEST CMT,Dimensions: 99.98 x 99.84 x 2.85 mm

File: PlasticC_Cone_HF25Scan_220218_R1.csv
Names,Time,Stack TC,Smoke TC,Exh Press,Smoke Comp,Smoke Meas,CO Meter,CO2 Meter,O2 Meter,Sample Mass,Ext Coeff,Start Test,Flame Verif
Chan Gain,,500,500,1,1,1,1,1,1,1,1,1.0,1.0
Offset,,0,0,0.134285,0,0,0,0,0,0,0,0.0,0.0
Gain,,1,1,25.011,13.3843,12.7012,1,1,1,1.00088,1.02252,1.0,1.0
Units,sec,C,C,Pa,%,%,%,%,%,g,/m,,
Baseline,,16.0543,16.5979,167.956,99.6696,96.2318,5.94084e-05,0.0417873,21.0251,-0.916219,0.314846,,
18,4.25,13.5243,13.5014,166.183,98.8672,95.4946,-0.00024293,0.0422704,21.027,896.565,0.311316,0.0,0.0
36,8.75,13.3431,13.6953,167.533,98.9918,95.5291,-0.000240881,0.042322,21.0269,896.865,0.319372,0.0,0.0
54,13.25,13.763,14.3041,165.759,99.3758,96.0117,-0.000452641,0.043326,21.0251,897.025,0.308898,0.0,0.0
72,17.75,14.0629,14.0721,169.039,99.562,96.1318,-0.000629021,0.0445598,21.0239,897.065,0.314475,0.0,0.0
90,22.25,14.1356,14.7908,173.227,99.6662,96.269,-0.000387593,0.045085,21.0244,897.206,0.311059,0.0,0.0
108,26.75,14.3519,14.8152,165.847,99.6805,96.1671,-0.00038767,0.0444955,21.0251,897.055,0.321849,0.0,0.0
126,31.25,14.8353,15.0242,163.606,99.6298,95.9155,-0.000322846,0.0448973,21.0238,897.015,0.340784,0.0,0.0
144,35.75,14.9683,15.4618,166.63,99.52,95.9613,-0.000209848,0.0454839,21.0232,896.455,0.32661,0.0,0.0
162,40.25,14.682,15.2867,166.383,99.3513,95.7558,-0.000148609,0.0452958,21.0221,896.675,0.330616,0.0,0.0
180,44.75,15.1728,15.1424,169.309,99.1033,95.7806,-0.000159766,0.0453589,21.022,896.995,0.305882,0.0,0.0
198,49.25,14.6125,15.5554,168.72,99.1912,95.5981,-0.000222746,0.0452795,21.0219,896.625,0.330938,0.0,0.0
216,53.75,14.6855,15.47,171.279,99.2892,95.6679,-0.00045691,0.0448966,21.0219,896.205,0.333255,0.0,0.0
234,58.25,14.9754,15.437,164.954,99.3582,95.4907,-0.000573047,0.0443477,21.0238,897.025,0.356112,0.0,0.0
252,62.75,14.9929,15.797,168.467,99.4272,95.7151,-0.000493306,0.0437071,21.0224,897.025,0.341285,0.0,0.0
270,67.25,14.8193,15.9051,170.507,99.4812,95.5376,-0.000478977,0.043558,21.0228,896.955,0.3628,0.0,0.0
288,71.75,15.5838,15.6843,168.064,99.5396,95.5717,-0.000427352,0.0440261,21.0203,897.005,0.364863,0.0,0.0
306,76.25,15.7409,16.3468,169.88,99.569,95.4306,-0.000157636,0.0451671,21.0184,896.645,0.380763,0.0,0.0
324,80.75,15.575,16.3833,164.473,99.6066,95.3857,-0.00028748,0.0453158,21.0181,896.915,0.388374,0.0,0.0
342,85.25,15.4635,16.5473,171.925,99.6458,96.0481,2.32568e-05,0.0448436,21.0207,896.705,0.329831,0.0,0.0
360,89.75,15.1736,16.3521,165.684,99.6752,94.8283,-0.000180432,0.0439943,21.0217,897.015,0.447118,0.0,0.0
378,94.25,15.7841,16.3945,164.919,99.6911,95.0523,-0.000494866,0.0439983,21.0219,897.045,0.427385,0.0,0.0
396,98.75,15.6102,17.0453,169.425,99.6833,95.1279,-0.000277619,0.0439398,21.0219,896.475,0.419558,0.0,0.0
414,103.25,16.0605,16.7666,170.853,99.6813,94.988,-0.000224091,0.0441438,21.0222,896.765,0.432578,0.0,0.0
432,107.75,15.8203,16.4094,163.461,99.6695,94.9426,-0.000358669,0.0444033,21.0223,896.845,0.435795,0.0,0.0
450,112.25,15.5004,16.0713,166.41,99.6482,94.7279,-0.000199423,0.0444669,21.024,897.005,0.454194,0.0,0.0
468,116.75,15.6134,16.7273,166.645,99.5927,94.5349,7.01279e-05,0.0440987,21.0241,896.875,0.467487,0.0,0.0
486,121.25,16.4973,16.9522,165.417,99.5665,94.526,4.62881e-05,0.0446427,21.0227,896.975,0.465979,0.0,0.0
504,125.75,16.6034,17.4233,169.558,99.5196,94.9484,-4.27414e-05,0.0446601,21.0241,896.695,0.421746,0.0,0.0
522,130.25,16.2495,17.1304,170.333,99.4669,94.2984,-9.7136e-05,0.0444477,21.0227,896.855,0.478611,0.0,0.0
540,134.75,15.9312,16.4912,168.773,99.4513,94.2849,9.80478e-05,0.0449814,21.02,896.685,0.478503,0.0,0.0
558,139.25,15.3571,17.1863,165.74,99.4309,93.0414,0.000260139,0.0462765,21.0163,895.764,0.595739,0.0,0.0
576,143.75,16.4671,16.7759,163.372,99.3942,86.9118,0.00201032,0.0700252,20.9473,894.783,1.20371,0.0,1.0
594,148.25,16.8944,17.829,139.47,99.3586,52.3773,0.0121229,0.207171,20.5819,895.264,5.74283,0.0,0.0
612,152.75,21.9271,24.1047,145.895,99.3186,47.6783,0.0235381,0.467527,20.1928,895.874,6.58231,0.0,0.0
630,157.25,27.5239,31.6644,137.452,99.3018,50.4075,0.0280455,0.610967,20.0387,895.124,6.08154,0.0,0.0
648,161.75,32.8571,37.7548,140.545,99.2655,44.0282,0.0319427,0.713798,19.89,894.463,7.29191,0.0,0.0
666,166.25,37.4858,43.8401,136.449,99.1715,46.0341,0.034496,0.781916,19.8144,893.712,6.88381,0.0,0.0
684,170.75,41.9734,49.2542,130.636,99.0568,41.037,0.0385243,0.860431,19.6842,892.672,7.90408,0.0,0.0
702,175.25,46.1492,54.9921,119.155,98.9771,38.4036,0.043708,0.947424,19.5647,892.391,8.49175,0.0,0.0
720,179.75,51.8558,61.5802,131.124,98.8517,35.2159,0.0470803,1.03624,19.4372,891.43,9.25762,0.0,0.0
738,184.25,56.2521,67.4073,124.372,98.768,34.0104,0.0500026,1.10011,19.318,890.299,9.56243,0.0,0.0
756,188.75,62.0526,74.8926,124.463,98.7374,31.4731,0.0562784,1.23764,19.0933,889.539,10.2551,0.0,0.0
774,193.25,68.0167,82.3199,120.577,98.7071,33.8185,0.0584884,1.31284,19.0317,887.077,9.60765,0.0,0.0
792,197.75,72.4409,88.0126,112.266,98.663,28.1622,0.0642788,1.41916,18.8351,887.487,11.2453,0.0,0.0
810,202.25,79.062,96.2621,111.996,98.6463,28.0467,0.0695018,1.52139,18.7225,886.426,11.2807,0.0,0.0
828,206.75,83.6518,102.682,112.558,98.683,27.3342,0.0728081,1.58207,18.6366,885.255,11.5148,0.0,0.0
846,211.25,88.3434,108.455,107.248,98.7243,28.4048,0.0740787,1.6207,18.6061,884.104,11.1739,0.0,0.0
864,215.75,92.5118,113.573,125.764,98.7741,25.1865,0.0703076,1.59704,18.6906,882.973,12.2571,0.0,0.0
882,220.25,94.6571,116.28,116.324,98.8546,23.6496,0.0726506,1.60502,18.6216,881.792,12.8291,0.0,0.0
900,224.75,97.5822,119.398,117.605,98.9171,27.3835,0.0752577,1.67689,18.5135,880.821,11.5199,0.0,0.0
918,229.25,100.802,123.02,120.74,99.0698,22.6298,0.0805802,1.73699,18.4107,879.36,13.244,0.0,0.0
936,233.75,105.191,128.644,103.247,99.2132,27.2067,0.0858856,1.82838,18.3041,878.119,11.6048,0.0,0.0
954,238.25,108.762,132.796,105.137,99.292,27.4466,0.0825006,1.80209,18.4126,877.418,11.5332,0.0,0.0
972,242.75,110.774,134.85,116.843,99.4027,28.5036,0.0778931,1.69897,18.5652,875.537,11.2042,0.0,0.0
990,247.25,112.1,136.463,99.0561,99.5073,24.9152,0.0834768,1.75453,18.4419,874.816,12.4205,0.0,0.0
1008,251.75,114.813,139.506,106.769,99.6106,28.8726,0.0814339,1.76504,18.4676,873.665,11.1076,0.0,0.0
1026,256.25,116.606,141.601,106.631,99.6564,29.4742,0.0776183,1.71417,18.565,872.974,10.9267,0.0,0.0
1044,260.75,117.887,142.937,104.71,99.6727,26.8807,0.0717263,1.60985,18.7276,871.753,11.7544,0.0,0.0
1062,265.25,117.446,141.963,109.144,99.6744,25.7039,0.0695968,1.52531,18.807,870.612,12.156,0.0,0.0
1080,269.75,117.968,142.158,119.228,99.6192,33.693,0.0648208,1.48958,18.8839,869.932,9.72352,0.0,0.0
1098,274.25,116.769,140.646,119.307,99.5461,31.4991,0.0564544,1.34981,19.1495,869.001,10.3208,0.0,0.0
1116,278.75,114.975,137.318,129.718,99.4808,40.6633,0.048019,1.19936,19.422,867.65,8.02444,0.0,0.0
1134,283.25,111.231,132.4375,135.615,99.4097,39.728,0.0389756,1.00443,19.7165,867.209,8.22674,0.0,0.0
1152,287.75,107.226,126.627,144.292,99.3112,45.9182,0.0309147,0.818197,20.0005,866.629,6.91904,0.0,0.0
1170,292.25,100.995,118.584,158.031,99.1948,76.3141,0.0199511,0.601163,20.3666,867.159,2.35205,0.0,0.0
1188,296.75,94.021,109.008,161.137,99.0935,84.9795,0.010968,0.378809,20.7036,867.089,1.3782,0.0,0.0
1206,301.25,88.2696,101.684,162.809,99.3051,91.9487,0.00560851,0.244283,20.8681,866.989,0.690344,0.0,0.0
1224,305.75,82.6188,93.7224,156.837,99.5224,93.9422,0.00323681,0.167091,20.9476,866.749,0.517566,0.0,0.0
1242,310.25,77.7604,86.5942,156.762,99.6396,94.3159,0.00198244,0.121733,20.9846,867.209,0.49252,0.0,0.0
1260,314.75,72.5016,79.8696,162.336,99.6012,94.9775,0.0012473,0.0980804,20.9996,867.019,0.426359,0.0,0.0
1278,319.25,68.5154,74.8023,160.823,99.4187,94.1066,0.000923542,0.0829535,21.0078,866.859,0.492533,0.0,0.0
1296,323.75,64.358,69.4245,162.599,99.0825,94.3732,0.000795096,0.074375,21.0117,866.949,0.436772,0.0,0.0
1314,328.25,60.3137,65.1949,161.295,98.7721,93.8306,0.000563312,0.0674883,21.0138,866.879,0.46035,0.0,0.0
1332,332.75,56.9423,60.8152,160.817,98.877,94.0007,0.00051516,0.0623844,21.0161,866.899,0.453626,0.0,0.0
1350,337.25,55.0378,57.5128,163.532,98.9845,94.1345,0.000446617,0.0586111,21.0162,866.339,0.450616,0.0,0.0
1368,341.75,52.8365,54.5289,163.167,99.0796,94.7752,0.000374611,0.0557154,21.0173,865.338,0.398392,0.0,0.0
1386,346.25,49.8682,51.441,160.452,99.2075,94.1659,0.000319986,0.0532329,21.0192,866.369,0.467811,0.0,0.0
1404,350.75,48.0602,48.8662,157.931,99.3047,94.6647,0.000170379,0.0514323,21.0212,867.079,0.429204,0.0,0.0
1422,355.25,46.2496,46.6746,162.171,99.3701,94.9112,0.00033704,0.050083,21.021,867.109,0.411778,0.0,0.0
1440,359.75,44.5532,45.1968,156.76,99.404,94.393,0.000386617,0.0490024,21.0204,866.889,0.463946,0.0,0.0
1458,364.25,43.4304,43.2923,161.984,99.4477,94.4124,0.000243897,0.0480827,21.021,867.049,0.466048,0.0,0.0
1476,368.75,41.9763,41.7088,160.629,99.4673,94.2558,9.77998e-05,0.0474829,21.0228,866.899,0.482705,0.0,0.0
1494,373.25,40.9789,40.4864,159.622,99.473,94.4802,-0.000212683,0.0468186,21.0231,866.909,0.461889,0.0,0.0
1512,377.75,39.3316,39.4478,162.395,99.4387,95.0132,-0.000107105,0.0462273,21.0232,866.669,0.40834,0.0,0.0
1530,382.25,38.6299,37.552,160.242,99.3999,95.1283,-5.29919e-05,0.0457561,21.0218,866.979,0.393979,0.0,0.0
1548,386.75,36.7737,35.9857,161.886,99.3157,95.4434,2.25581e-05,0.0453752,21.0194,866.339,0.356719,0.0,0.0
1566,391.25,36.0614,34.6805,165.427,99.2022,94.7407,1.026e-05,0.0450241,21.0188,866.829,0.412744,0.0,0.0
1584,395.75,34.7108,33.6814,169.938,99.0261,95.5597,-4.93242e-05,0.0446003,21.0205,866.719,0.319606,0.0,0.0
1602,400.25,33.8129,32.5908,157.914,98.8464,94.3791,5.55745e-05,0.0444555,21.0215,865.728,0.414821,0.0,0.0
1620,404.75,33.1099,31.86,160.827,98.605,94.1081,6.97943e-05,0.0442433,21.0216,866.829,0.418677,0.0,0.0
1638,409.25,32.8562,31.174,157.838,98.4147,93.9426,-7.53667e-05,0.044064,21.0216,866.279,0.417135,0.0,0.0
1656,413.75,32.3805,30.9453,164.196,98.2292,94.2337,-0.000357681,0.0439108,21.0216,866.839,0.372467,0.0,0.0
1674,418.25,31.9701,30.6124,159.55,98.0516,93.1472,-0.000321565,0.0436487,21.0216,866.779,0.460243,0.0,0.0
1692,422.75,30.8266,29.474,164.806,97.9294,93.793,,,,866.789,0.387096,0.0,0.0
1710,427.25,31.6978,29.9478,159.972,97.7791,93.636,,,,866.659,0.388344,0.0,0.0
1722,430.25,30.2864,28.9737,162.677,97.6986,93.5104,,,,866.539,0.392996,0.0,0.0

File: PlasticC_Cone_HF25Scan_220218_R2.csv
Names,Time,Stack TC,Smoke TC,Exh Press,Smoke Comp,Smoke Meas,CO Meter,CO2 Meter,O2 Meter,Sample Mass,Ext Coeff,Start Test,Flame Verif
Chan Gain,,500,500,1,1,1,1,1,1,1,1,1.0,1.0
Offset,,0,0,0.134285,0,0,0,0,0,0,0,0.0,0.0
Gain,,1,1,25.011,13.3843,12.7012,1,1,1,1.00088,1.02252,1.0,1.0
Units,sec,C,C,Pa,%,%,%,%,%,g,/m,,
Baseline,,15.4065,16.0338,168.798,99.2083,95.68,-0.000279932,0.0425019,21.0257,-0.279161,0.324816,,
17,4,12.3979,12.5993,171.87,97.5634,94.0438,-0.000534118,0.0430569,21.0239,897.456,0.329563,0.0,0.0
34,8.25,11.9441,13.0975,168.968,97.4805,93.8918,-0.000515905,0.0431672,21.0235,897.716,0.33644,0.0,0.0
51,12.5,12.9061,13.0052,167.775,97.4389,94.0569,-0.000591748,0.0428446,21.0241,897.866,0.316845,0.0,0.0
68,16.75,13.1381,13.3379,165.067,97.4209,93.8965,-0.000285738,0.0427817,21.026,897.696,0.330507,0.0,0.0
85,21,12.6286,12.5081,171.371,97.4336,93.8612,-0.000291485,0.0425676,21.025,897.736,0.335042,0.0,0.0
102,25.25,12.8095,13.6558,169.716,97.5144,94.0794,-0.000266386,0.0423846,21.0246,897.766,0.321655,0.0,0.0
119,29.5,13.1869,13.7404,171.296,97.6125,94.081,-0.000284293,0.0422158,21.0246,897.646,0.330519,0.0,0.0
136,33.75,12.8957,13.4721,165.246,97.7166,94.0818,-0.000214022,0.0423027,21.0249,897.576,0.340011,0.0,0.0
153,38,12.6355,13.5887,171.992,97.8731,94.2314,-0.000368432,0.0422666,21.025,900.448,0.340106,0.0,0.0
170,42.25,13.2897,13.6968,172.191,98.0438,94.4368,-0.000483906,0.0423904,21.025,897.566,0.336207,0.0,0.0
187,46.5,13.4503,13.6698,168.571,98.2231,94.5167,-0.00032901,0.0422483,21.025,897.696,0.345016,0.0,0.0
204,50.75,13.4822,14.3205,169.948,98.4098,94.7085,-0.000253059,0.0422137,21.0255,897.696,0.343856,0.0,0.0
221,55,13.4903,14.004,170.819,98.6148,94.8333,-0.000143945,0.0422107,21.0258,897.566,0.350712,0.0,0.0
238,59.25,13.8432,14.4513,168.342,98.7949,94.9198,-0.000110825,0.0424443,21.0258,897.686,0.358909,0.0,0.0
255,63.5,13.39,14.0897,167.084,98.9689,95.0802,-0.000482063,0.0426262,21.0258,897.796,0.359542,0.0,0.0
272,67.75,13.9543,14.3002,171.717,99.0939,95.2291,-0.000566594,0.0427357,21.0258,897.686,0.356833,0.0,0.0
289,72,13.7518,14.3889,166.008,99.1952,95.3202,-0.00043892,0.0427003,21.0253,897.646,0.357422,0.0,0.0
306,76.25,13.8238,14.5263,168.587,99.2569,94.9078,-0.000303155,0.0426538,21.0254,897.536,0.401888,0.0,0.0
323,80.5,14.3392,14.9989,174.602,99.2908,95.0705,-0.000347971,0.0423786,21.0259,897.626,0.389579,0.0,0.0
340,84.75,14.1225,15.0701,167.865,99.3043,94.7643,-0.000367769,0.0422055,21.0254,897.896,0.419734,0.0,0.0
357,89,14.2301,14.8136,168.324,99.2916,94.5139,-0.000336069,0.0421823,21.0238,897.596,0.442321,0.0,0.0
374,93.25,13.9754,15.182,172.369,99.2655,95.057,-0.000374405,0.0421609,21.0242,897.636,0.388571,0.0,0.0
391,97.5,14.1366,14.9745,171.725,99.2295,94.4314,-0.000499047,0.042097,21.0243,897.456,0.444549,0.0,0.0
408,101.75,13.9534,14.4211,168.589,99.1593,94.2318,-0.000428041,0.0418334,21.024,897.646,0.457177,0.0,0.0
425,106,14.1663,15.0469,168.053,99.0825,94.3748,-0.000364859,0.0419896,21.0244,897.416,0.436625,0.0,0.0
442,110.25,14.0674,14.5337,170.189,99.0098,94.219,-0.000447069,0.0419646,21.0235,897.706,0.444862,0.0,0.0
459,114.5,14.5577,15.1594,174.147,98.9518,94.238,-0.00017329,0.04198,21.024,897.526,0.437799,0.0,0.0
476,118.75,14.737,15.3401,167.488,98.8828,93.5565,-0.000165817,0.042035,21.0242,897.636,0.496631,0.0,0.0
493,123,14.2501,15.5416,166.753,98.8162,93.4395,7.19998e-05,0.0420273,21.0251,897.626,0.50182,0.0,0.0
510,127.25,15.2667,15.4875,165.527,98.6941,93.1581,-3.96965e-05,0.0419218,21.026,897.636,0.517781,0.0,0.0
527,131.5,14.5506,15.752,169.593,98.5911,93.8162,-6.61712e-05,0.0421362,21.0247,897.516,0.445275,0.0,0.0
544,135.75,15.0524,15.596,166.252,98.5147,92.655,0.000330451,0.0476019,21.011,897.316,0.550043,0.0,0.0
561,140,15.1654,15.8031,157.601,98.5576,73.3171,0.00380757,0.113897,20.8713,897.336,2.6536,0.0,1.0
578,144.25,17.2105,18.3053,145.495,98.8382,52.9808,0.0122875,0.267514,20.5718,897.105,5.59297,0.0,0.0
595,148.5,21.5067,23.9861,145.791,99.0249,47.2062,0.0211915,0.467121,20.2107,896.425,6.64501,0.0,0.0
612,152.75,26.763,30.8359,126.087,99.1756,41.2242,0.0280068,0.656288,19.9617,895.484,7.87401,0.0,0.0
629,157,31.9961,37.0689,139.901,99.2688,38.9148,0.0327311,0.742667,19.8514,895.264,8.39952,0.0,0.0
646,161.25,37.0149,43.6454,132.577,99.2855,38.0257,0.0372393,0.851095,19.69,894.523,8.60836,0.0,0.0
663,165.5,41.7581,49.298,130.942,99.2753,34.0658,0.0412397,0.908514,19.6357,893.732,9.59378,0.0,0.0
680,169.75,46.7766,56.3868,125.916,99.23,33.7232,0.0465973,1.01909,19.4563,893.122,9.68035,0.0,0.0
697,174,51.8195,62.2856,125.354,99.1928,31.1851,0.0502134,1.08495,19.374,892.121,10.3788,0.0,0.0
714,178.25,56.8144,68.8931,130.353,99.1099,28.9754,0.0589367,1.20988,19.1462,891.37,11.0305,0.0,0.0
731,182.5,62.5581,76.5227,118.017,99.0339,28.8029,0.0630845,1.30318,19.0231,890.149,11.0772,0.0,0.0
748,186.75,67.6399,82.8897,125.379,98.9036,29.8107,0.0648077,1.37527,18.9368,888.858,10.7569,0.0,0.0
765,191,72.1387,89.0116,111.494,98.7958,27.53,0.0694971,1.4415,18.8109,888.028,11.461,0.0,0.0
782,195.25,77.2394,95.2696,110.484,98.6834,25.1977,0.074536,1.55307,18.6446,887.177,12.2448,0.0,0.0
799,199.5,83.2257,102.825,98.2967,98.7104,21.0518,0.0803629,1.68209,18.4824,886.096,13.8597,0.0,0.0
816,203.75,88.2588,109.064,124.598,98.7312,23.2597,0.0815645,1.7198,18.4616,884.905,12.967,0.0,0.0
833,208,92.2697,114.345,103.445,98.7402,22.6864,0.0852849,1.74795,18.392,883.484,13.1917,0.0,0.0
850,212.25,96.9601,120.083,111.637,98.75,23.2031,0.0872337,1.83554,18.2801,882.723,12.9906,0.0,0.0
867,216.5,101.784,126.248,107.934,98.7467,20.9553,0.0898495,1.8914,18.2089,881.252,13.9042,0.0,0.0
884,220.75,105.974,131.416,104.959,98.7467,25.1225,0.0899266,1.91875,18.2107,879.99,12.2774,0.0,0.0
901,225,108.958,135.265,123.516,98.7423,26.6617,0.0865681,1.86058,18.2744,878.829,11.7436,0.0,0.0
918,229.25,112.802,139.603,106.906,98.7369,21.7422,0.0900905,1.91652,18.1907,878.099,13.5727,0.0,0.0
935,233.5,115.525,143.124,101.821,98.7108,18.6971,0.0890275,1.89961,18.2265,877.058,14.9237,0.0,0.0
952,237.75,117.617,144.989,117.182,98.6928,25.4408,0.0866107,1.84117,18.3147,875.837,12.1596,0.0,0.0
969,242,119.739,147.688,121.925,98.7798,29.5649,0.0827639,1.82361,18.3854,874.356,10.8199,0.0,0.0
986,246.25,120.717,148.913,114.892,98.8501,25.019,0.0779883,1.71549,18.5601,873.164,12.3238,0.0,0.0
1003,250.5,121.934,149.091,109.863,98.9338,24.79,0.0775291,1.65537,18.6174,872.644,12.4139,0.0,0.0
1020,254.75,121.724,148.245,119.101,99.0363,34.986,0.070695,1.55134,18.8136,871.303,9.33309,0.0,0.0
1037,259,120.725,147.46,122.704,99.1258,29.5483,0.0676856,1.50138,18.8899,870.502,10.8564,0.0,0.0
1054,263.25,120.067,145.483,113.703,99.1969,29.7502,0.0613641,1.39822,19.0552,869.902,10.8017,0.0,0.0
1071,267.5,117.772,142.802,134.313,99.2353,40.6095,0.0526937,1.25019,19.3364,869.251,8.01417,0.0,0.0
1088,271.75,114.86,137.961,136.857,99.2643,35.9004,0.0435277,1.05406,19.626,868.62,9.1223,0.0,0.0
1105,276,110.445,131.908,147.931,99.2798,49.1346,0.0324071,0.835449,20.0013,867.74,6.30895,0.0,0.0
1122,280.25,103.88,123.705,156.383,99.2504,70.1286,0.0207957,0.585153,20.3608,867.81,3.11523,0.0,0.0
1139,284.5,98.2683,115.222,157.144,99.2124,87.4649,0.0121728,0.383817,20.6606,868.18,1.13039,0.0,0.0
1156,288.75,90.9324,106.455,161.217,99.1115,93.4953,0.00649457,0.232991,20.8704,867.97,0.523229,0.0,0.0
1173,293,84.8841,98.3142,158.189,99.0351,93.2375,0.00342373,0.150834,20.959,868.04,0.541076,0.0,0.0
1190,297.25,80.074,91.4428,160.027,98.9555,94.3004,0.00187874,0.110707,20.9925,867.55,0.432194,0.0,0.0
1207,301.5,74.6899,85.3957,162.371,98.8599,94.443,0.00104969,0.0893742,21.0049,867.98,0.409969,0.0,0.0
1224,305.75,70.4118,79.2653,164.419,98.8378,94.2504,0.000674065,0.0772119,21.0088,868.09,0.426282,0.0,0.0
1241,310,66.5638,73.8925,161.46,98.699,94.4678,0.000475686,0.0689562,21.0133,867.91,0.393,0.0,0.0
1258,314.25,63.082,69.4416,163.95,98.6299,94.2961,0.000529126,0.063549,21.0146,868.01,0.403042,0.0,0.0
1275,318.5,60.1864,65.3484,165.697,98.5874,94.193,0.00062597,0.0595227,21.0159,867.73,0.408991,0.0,0.0
1292,322.75,57.0058,61.6017,166.611,98.5229,94.6477,0.000230786,0.0567373,21.018,867.87,0.359926,0.0,0.0
1309,327,54.9469,58.1159,165.511,98.5372,94.4132,0.000267703,0.0543637,21.019,867.78,0.383479,0.0,0.0
1326,331.25,51.706,55.0114,163.535,98.4763,94.2186,0.000525391,0.0523802,21.0177,867.99,0.396442,0.0,0.0
1343,335.5,49.5888,52.1282,171.486,98.4425,94.6597,0.000355329,0.0509978,21.0184,867.51,0.35146,0.0,0.0
1360,339.75,47.5537,49.2601,167.027,98.4629,94.4632,0.000364703,0.0495911,21.0203,868.15,0.37196,0.0,0.0
1377,344,45.1618,46.2826,164.996,98.4441,94.393,0.000690559,0.0485474,21.0206,867.93,0.376913,0.0,0.0
1394,348.25,43.7766,44.3222,163.699,98.4629,93.7232,0.000589039,0.0477972,21.0207,867.81,0.442497,0.0,0.0
1411,352.5,42.2459,42.8441,161.03,98.4702,94.2744,0.000481061,0.0473764,21.02,868.03,0.390572,0.0,0.0
1428,356.75,41.2241,41.7577,168.947,98.4862,94.4283,0.00021869,0.0470366,21.0192,868.01,0.377395,0.0,0.0
1445,361,40.2346,40.2778,162.743,98.4866,94.4938,7.55742e-06,0.0467084,21.019,867.82,0.371212,0.0,0.0
1462,365.25,39.0418,39.2488,162.718,98.4955,94.1686,-0.000151678,0.0463871,21.019,868.13,0.402952,0.0,0.0
1479,369.5,37.7852,38.3039,172.229,98.5409,93.8333,1.84921e-05,0.0461759,21.0202,868.07,0.439072,0.0,0.0
1496,373.75,37.3575,36.9069,163.112,98.5466,94.2446,0.000170446,0.045834,21.0198,868.01,0.400367,0.0,0.0
1513,378,36.2216,36.0827,163.898,98.5348,94.2457,0.000157572,0.0456619,21.0208,868.17,0.399179,0.0,0.0
1530,382.25,35.9306,35.5273,164.151,98.5703,94.6023,5.18092e-05,0.0450458,21.0221,867.84,0.368538,0.0,0.0
1547,386.5,35.0507,34.3914,163.764,98.5891,94.1756,4.20847e-05,0.044967,21.0223,867.8,0.410801,0.0,0.0
1564,390.75,34.1603,33.4869,162.216,98.5854,94.7151,-0.00014112,0.0447027,21.0223,867.79,0.359226,0.0,0.0
1581,395,33.1665,32.6064,160.855,98.6095,94.8225,-0.000313638,0.0445894,21.0222,867.92,0.351256,0.0,0.0
1598,399.25,32.6074,31.4503,162.101,98.6479,94.2597,,0.0442929,,867.83,0.408144,0.0,0.0
1615,403.5,32.1276,31.1394,162.879,98.6728,94.7965,,,,867.98,0.35947,0.0,0.0
1632,407.75,31.53,30.6479,161.684,98.6765,94.876,,,,867.82,0.352289,0.0,0.0
1634,408.25,31.7687,30.3586,165.969,98.6892,94.962,,,,868,0.345309,0.0,0.0