Folder: fsri_materials_database/01_Data/PlasticC/Cone (part 5)

File: PlasticC_Cone_HF75Scan_220218_R3.csv
Names,Time,Stack TC,Smoke TC,Exh Press,Smoke Comp,Smoke Meas,CO Meter,CO2 Meter,O2 Meter,Sample Mass,Ext Coeff,Start Test,Flame Verif
Chan Gain,,500,500,1,1,1,1,1,1,1,1,1.0,1.0
Offset,,0,0,0.132436,0,0,0,0,0,0,0,0.0,0.0
Gain,,1,1,25.011,15.4219,15.1528,1,1,1,1.00089,1.02113,1.0,1.0
Units,sec,C,C,Pa,%,%,%,%,%,g,/m,,
Baseline,,43.5019,43.469,155.927,113.597,109.736,-0.00631315,0.0412945,21.0065,-483.47,0.309911,,
10,2.25,38.7535,39.1935,154.225,115.599,111.164,-0.0064199,0.0461049,21.0014,25.0422,0.350452,0.0,0.0
20,4.75,38.9156,39.0752,156.752,115.658,112.131,-0.00644872,0.0454159,21.0024,25.3625,0.277433,0.0,0.0
30,7.25,38.5448,38.7492,159.448,115.702,111.984,-0.00633048,0.0446508,21.0052,25.1423,0.292577,0.0,0.0
40,9.75,38.5378,39.4343,155.938,115.75,111.844,-0.00619628,0.0438348,21.0069,25.5026,0.307543,0.0,0.0
50,12.25,39.055,39.3756,162.177,115.785,110.786,-0.00611169,0.0429065,21.0074,25.7228,0.395376,0.0,0.0
60,14.75,38.6719,39.0941,159.99,115.821,111.847,-0.00582211,0.0439528,21.0019,25.7528,0.312746,0.0,0.0
70,17.25,38.8889,39.4363,157.643,115.853,110.74,-0.0038349,0.059281,20.9649,25.5726,0.404319,0.0,1.0
80,19.75,39.3693,39.5899,128.762,115.885,56.5757,0.00193439,0.164084,20.7643,25.2323,6.42251,0.0,1.0
90,22.25,41.1599,41.8756,136.452,115.9,53.0701,0.00998904,0.347173,20.4591,25.1122,6.99661,0.0,1.0
100,24.75,43.6536,44.7641,126.445,115.906,40.7431,0.0183954,0.518648,20.2216,24.5117,9.36475,0.0,0.0
110,27.25,47.223,49.3766,119.837,115.931,40.1688,0.0282955,0.703838,19.9468,23.1005,9.49381,0.0,0.0
120,29.75,51.3856,53.7664,119.393,115.943,30.7043,0.0382194,0.888505,19.6424,24.0113,11.9015,0.0,0.0
130,32.25,55.5074,59.669,113.834,115.941,30.4708,0.0478083,1.11159,19.318,22.9403,11.9697,0.0,0.0
140,34.75,60.8487,66.6281,120.815,115.916,25.6786,0.0563422,1.27555,19.0902,22.3298,13.5004,0.0,0.0
150,37.25,65.8135,72.1173,112.237,115.912,24.8675,0.0641137,1.40036,18.8747,21.2889,13.7876,0.0,0.0
160,39.75,70.724,78.5153,111.699,115.898,22.9253,0.0711839,1.52536,18.6917,20.9486,14.5149,0.0,0.0
170,42.25,75.7551,85.0097,103.468,115.862,20.1138,0.0769414,1.63624,18.5348,20.5182,15.6841,0.0,0.0
180,44.75,80.9679,91.7835,111.397,115.839,29.5926,0.081561,1.71716,18.4299,18.8167,12.2238,0.0,0.0
190,47.25,85.045,97.2697,88.8432,115.795,18.0985,0.0890525,1.80896,18.3015,18.9468,16.6246,0.0,0.0
200,49.75,91.1011,104.511,98.9772,115.772,20.5202,0.0997251,1.99759,18.0232,17.4455,15.4979,0.0,0.0
210,52.25,96.6366,112.785,96.2897,115.716,16.9794,0.107093,2.15999,17.7975,17.3754,17.1902,0.0,0.0
220,54.75,101.688,118.955,98.8337,115.68,21.9431,0.110476,2.25775,17.6524,15.3436,14.8903,0.0,0.0
230,57.25,107.281,125.775,103.385,115.607,19.5311,0.112884,2.32933,17.536,14.3227,15.9277,0.0,0.0
240,59.75,112.047,131.761,96.2745,115.579,19.6994,0.11865,2.42412,17.3964,13.602,15.8486,0.0,0.0
250,62.25,116.32,137.55,98.1742,115.534,21.581,0.128971,2.54363,17.2338,12.391,15.028,0.0,0.0
260,64.75,120.29,143.032,95.4005,115.497,14.8791,0.142307,2.68998,16.9675,12.6612,18.356,0.0,0.0
270,67.25,125.999,150.376,80.8708,115.44,13.4183,0.158181,2.9994,16.5195,11.6203,19.2772,0.0,0.0
280,69.75,132.732,159.465,94.7006,115.398,13.9709,0.170483,3.26127,16.2214,10.0789,18.9125,0.0,0.0
290,72.25,138.252,167.916,94.6998,115.355,12.3464,0.179559,3.39897,16.0229,9.29823,20.0163,0.0,0.0
300,74.75,143.533,176.1,93.9625,115.321,12.3792,0.191666,3.53456,15.8387,8.68769,19.9899,0.0,0.0
310,77.25,149.53,184.249,82.7103,115.29,11.0599,0.207297,3.7136,15.5616,6.4357,20.9969,0.0,0.0
320,79.75,156.532,194.112,94.5945,115.232,15.2083,0.2143,3.84387,15.4252,5.80514,18.1394,0.0,0.0
330,82.25,160.719,200.991,86.0847,115.229,13.2601,0.213827,3.83866,15.414,4.50399,19.367,0.0,0.0
340,84.75,166.136,207.542,87.7685,115.193,12.7602,0.20957,3.83385,15.4517,3.45306,19.7084,0.0,0.0
350,87.25,169.967,212.95,95.8966,115.197,15.0113,0.20327,3.71936,15.6332,2.75244,18.2534,0.0,0.0
360,89.75,173.06,216.916,87.6639,115.146,16.3852,0.192241,3.59128,15.7999,1.70151,17.465,0.0,0.0
370,92.25,175.683,220.052,98.5666,115.153,15.5857,0.178884,3.40987,16.0766,-0.0600532,17.9137,0.0,0.0
380,94.75,176.772,221.124,91.8772,115.115,14.0657,0.170099,3.2725,16.2033,-0.950842,18.8298,0.0,0.0
390,97.25,178.861,223.928,100.266,115.141,22.4231,0.160716,3.21564,16.3339,-1.00089,14.6547,0.0,0.0
400,99.75,180.086,225.487,94.5914,115.108,18.0236,0.146914,3.02223,16.7098,-2.77246,16.6084,0.0,0.0
410,102.25,179.751,224.853,99.1299,115.111,22.0504,0.126624,2.71374,17.1257,-3.10275,14.8025,0.0,0.0
420,104.75,178.427,222.114,119.766,115.112,28.2247,0.104751,2.34199,17.7154,-3.86342,12.5912,0.0,0.0
430,107.25,175.106,217.541,117.394,115.134,26.9304,0.0837282,1.89282,18.3212,-3.51311,13.0134,0.0,0.0
440,109.75,171.755,212.293,117.48,115.121,38.5114,0.063961,1.53965,18.8214,-4.44394,9.80842,0.0,0.0
450,112.25,167.363,206.317,133.33,115.137,61.1505,0.0440052,1.20899,19.3655,-4.25377,5.66802,0.0,0.0
460,114.75,161.879,198.89,145.76,115.145,98.4624,0.0275136,0.853945,19.9137,-5.0845,1.40194,0.0,0.0
470,117.25,155.398,189.958,146.17,115.172,105.948,0.0163317,0.543522,20.2822,-4.37387,0.747762,0.0,0.0
480,119.75,148.783,181.088,147.176,115.21,106.151,0.0100196,0.337021,20.5822,-4.49398,0.733504,0.0,0.0
490,122.25,143.411,173.293,149.504,115.201,106.72,0.00655239,0.218443,20.7636,-4.97441,0.684904,0.0,0.0
500,124.75,138.235,166.562,145.857,115.222,106.813,0.00454456,0.156148,20.8551,-5.16457,0.678828,0.0,0.0
510,127.25,132.363,159.028,145.292,115.21,106.463,0.00361215,0.120277,20.9054,-5.11453,0.707241,0.0,0.0
520,129.75,127.169,152.729,147.292,115.229,107.226,0.00315275,0.0999371,20.9328,-4.35386,0.644775,0.0,0.0
530,132.25,123.337,147.251,146.786,115.244,106.945,0.00231009,0.0866017,20.9515,-5.06449,0.669427,0.0,0.0
540,134.75,119.234,141.259,147.845,115.213,107.184,0.00130829,0.0764941,20.9639,-4.69416,0.647086,0.0,0.0
550,137.25,115.583,135.77,151.844,115.216,108.229,0.000388853,0.0700578,20.9722,-4.27379,0.560354,0.0,0.0
560,139.75,112.067,131.45,151.169,115.25,106.532,-0.000239549,0.0646636,20.9792,-4.46395,0.70452,0.0,0.0
570,142.25,108.293,126.617,151.348,115.233,107.52,-0.000901975,0.0604405,20.9813,-4.47396,0.62061,0.0,0.0
580,144.75,104.343,122.244,151.042,115.265,106.956,-0.00154678,0.0564987,20.9858,-4.39389,0.670143,0.0,0.0
590,147.25,102.091,118.791,151.097,115.269,108.278,-0.00202288,0.053545,20.9897,-4.92436,0.560396,0.0,0.0
600,149.75,99.0977,114.753,150.751,115.278,108.14,-0.00243835,0.0512173,20.9915,-5.11453,0.572571,0.0,0.0
610,152.25,96.5881,111.598,149.327,115.25,107.624,-0.00295108,0.0492293,20.9934,-4.38388,0.613227,0.0,0.0
620,154.75,93.508,107.676,151.555,115.281,106.551,-0.00351216,0.047711,20.9953,-4.64411,0.705415,0.0,0.0
630,157.25,91.5907,104.411,155.028,115.274,108.623,-0.00408596,0.0463753,20.9976,-4.54402,0.532304,0.0,0.0
640,159.75,89.1188,101.629,152.005,115.261,108.892,-0.00453582,0.0455589,20.9987,-4.65412,0.509115,0.0,0.0
650,162.25,86.6075,98.3968,152.195,115.261,107.76,-0.00493136,0.0447515,21.0006,-4.50399,0.602833,0.0,0.0
660,164.75,85.2249,95.6092,148.658,115.27,106.628,-0.00535266,0.0440493,21.0006,-5.59496,0.698046,0.0,0.0
670,167.25,83.2078,93.1524,151.541,115.285,107.707,-0.00561953,0.0436762,21.0015,-4.80426,0.609008,0.0,0.0
680,169.75,81.2388,90.2408,149.341,115.271,106.967,-0.00575246,0.043465,21.0024,-4.46395,0.669728,0.0,0.0
690,172.25,79.7579,89.0049,149.025,115.284,107.856,-0.00580133,0.0432075,21.0027,-4.09363,0.596597,0.0,0.0
700,174.75,78.3178,86.2237,149.363,115.317,107.01,-0.00588587,0.0428775,21.0028,-4.02356,0.669674,0.0,0.0
710,177.25,76.7325,85.203,151.355,115.36,107.085,-0.00593459,0.0427116,21.0028,-4.83428,0.666731,0.0,0.0
720,179.75,75.6283,82.6387,151.319,115.317,108.084,-0.00586413,0.0424367,21.0034,-4.98441,0.580207,0.0,0.0
730,182.25,74.3817,81.3161,153.678,115.347,107.841,-0.00592476,0.0423086,21.0045,-4.88433,0.602687,0.0,0.0
740,184.75,72.9719,79.8587,154.405,115.343,108.376,-0.00613775,0.0419769,21.0049,-4.58406,0.558066,0.0,0.0
750,187.25,71.9464,78.4911,150.978,115.377,107.011,-0.00619866,0.0417129,21.0051,-4.70417,0.674236,0.0,0.0
760,189.75,71.075,76.4494,158.02,115.372,108.862,-0.00609846,0.0414542,21.0049,-4.95439,0.520255,0.0,0.0
770,192.25,69.5435,74.7686,151.059,115.394,108.128,-0.00618409,0.041279,21.0045,-5.47485,0.582522,0.0,0.0
780,194.75,68.6975,73.6106,156.119,115.409,109.145,-0.00626137,0.0411792,21.0041,-4.95439,0.499922,0.0,0.0
790,197.25,66.8701,72.0818,148.827,115.425,109.972,-0.00613919,0.0412056,21.0039,-5.29469,0.433489,0.0,0.0
800,199.75,66.7074,70.9953,157.521,115.446,110.272,-0.00613867,0.0411769,21.0039,-5.02445,0.410685,0.0,0.0
810,202.25,64.9721,68.8784,150.717,115.468,108.937,-0.00621687,0.0413509,21.0038,-4.46395,0.521506,0.0,0.0
820,204.75,64.3241,68.6592,150.726,115.513,108.82,-0.00616244,0.0413611,21.0038,-4.6241,0.534671,0.0,0.0
830,207.25,63.9814,66.9845,152.414,115.541,108.626,-0.00600086,0.0414565,21.0049,-4.90434,0.552825,0.0,0.0
840,209.75,63.4586,66.7469,152.063,115.592,108.974,-0.00592459,0.0413279,21.0057,-5.1946,0.528097,0.0,0.0
850,212.25,62.6083,65.871,155.361,115.603,109.146,-0.0059964,0.041184,21.006,-4.6241,0.514844,0.0,0.0
860,214.75,62.02,64.4244,147.929,115.641,107.796,-0.00616393,0.0409916,21.0061,-4.70417,0.629266,0.0,0.0
870,217.25,61.3075,63.9693,150.696,115.638,108.564,-0.00630227,0.0410507,21.0061,-4.6241,0.565449,0.0,0.0
880,219.75,60.7063,62.6649,151.286,115.671,108.641,-0.00626134,0.0409794,21.0061,-5.07449,0.561631,0.0,0.0
890,222.25,59.4996,62.3364,152.904,115.695,110.069,-0.00616247,0.0405973,21.0061,-4.7442,0.44656,0.0,0.0
900,224.75,59.3982,62.0369,151.901,115.717,109.83,,0.0404678,,-4.84429,0.467637,0.0,0.0
910,227.25,58.9867,61.1951,150.614,115.718,109.172,,0.0404451,,-4.8543,0.521611,0.0,0.0
920,229.75,58.1318,59.8558,152.519,115.745,109.404,,,,-5.33472,0.504699,0.0,0.0
930,232.25,57.7003,59.5482,147.998,115.759,108.967,,,,-4.69416,0.541605,0.0,0.0
940,234.75,57.2642,58.9197,148.444,115.784,108.918,,,,-4.21373,0.547566,0.0,0.0
943,235.5,56.8352,58.3865,150.079,115.798,109.343,,,,-4.50399,0.513775,0.0,0.0