Folder: fsri_materials_database/01_Data/PlasticC/Cone (part 2)

File: PlasticC_Cone_HF25Scan_220218_R3.csv
Names,Time,Stack TC,Smoke TC,Exh Press,Smoke Comp,Smoke Meas,CO Meter,CO2 Meter,O2 Meter,Sample Mass,Ext Coeff,Start Test,Flame Verif
Chan Gain,,500,500,1,1,1,1,1,1,1,1,1.0,1.0
Offset,,0,0,0.134285,0,0,0,0,0,0,0,0.0,0.0
Gain,,1,1,25.011,13.3843,12.7012,1,1,1,1.00088,1.02252,1.0,1.0
Units,sec,C,C,Pa,%,%,%,%,%,g,/m,,
Baseline,,16.0947,16.058,170.131,99.1743,95.9505,-2.10871e-05,0.0421029,21.0242,-0.300888,0.296423,,
19,4.5,14.6191,14.7166,171.044,99.1793,96.0442,-0.000161912,0.0430333,21.0217,897.145,0.288106,0.0,0.0
38,9.25,14.6832,15.0015,167.775,99.1711,95.9407,-0.000194994,0.0428175,21.0213,897.316,0.297038,0.0,0.0
57,14,14.8535,14.5458,172.666,99.2128,95.9493,-0.000135555,0.0426681,21.0232,897.135,0.300007,0.0,0.0
76,18.75,14.9275,15.1666,167.93,99.2263,95.881,0.000156773,0.0428772,21.0248,897.206,0.307606,0.0,0.0
95,23.5,15.0298,15.3069,168.137,99.2263,95.952,-8.60691e-05,0.0429719,21.025,897.115,0.300973,0.0,0.0
114,28.25,14.6248,14.8076,168.475,99.2385,95.9663,-0.000163234,0.0430585,21.0233,897.195,0.30074,0.0,0.0
133,33,15.6635,15.0545,169.223,99.2165,96.0411,-0.000422782,0.0429824,21.0221,897.156,0.291756,0.0,0.0
152,37.75,15.0364,15.21,170.353,99.2389,95.907,-0.00037152,0.0428772,21.0233,897.206,0.306322,0.0,0.0
171,42.5,15.3999,15.339,170.528,99.243,95.7237,-0.000132701,0.0429431,21.0214,897.256,0.323853,0.0,0.0
190,47.25,15.3954,15.7334,168.636,99.2304,95.7303,-0.000183776,0.0430151,21.0198,897.216,0.322091,0.0,0.0
209,52,15.3913,15.848,173.413,99.2369,95.7279,-0.000205864,0.0436257,21.0196,897.206,0.322899,0.0,0.0
228,56.75,15.2947,15.2977,165.848,99.223,95.4857,-0.000164043,0.0435443,21.0176,897.125,0.344371,0.0,0.0
247,61.5,15.5229,15.6234,170.465,99.2144,95.3814,-0.000348784,0.0435884,21.0201,897.125,0.353396,0.0,0.0
266,66.25,14.6779,15.3767,173.275,99.214,95.6074,-0.000327003,0.0432443,21.0234,897.055,0.332135,0.0,0.0
285,71,15.3682,15.6666,167.899,99.1952,94.812,3.61879e-06,0.0430624,21.0238,897.065,0.405366,0.0,0.0
304,75.75,15.3953,16.3237,171.713,99.1879,94.9419,-0.000246364,0.0426878,21.0238,897.186,0.392425,0.0,0.0
323,80.5,15.6308,16.0143,166.21,99.1777,94.9364,-0.000397835,0.0426378,21.0238,897.156,0.392015,0.0,0.0
342,85.25,15.3951,15.6813,169.78,99.165,95.0178,-0.000243281,0.0425183,21.0253,897.176,0.383182,0.0,0.0
361,90,15.5381,16.118,171.56,99.154,95.2872,-0.000306407,0.0424169,21.0255,896.395,0.356791,0.0,0.0
380,94.75,15.6056,15.5204,168.877,99.1577,94.5949,-0.00029462,0.0424821,21.0238,897.115,0.422526,0.0,0.0
399,99.5,15.3473,15.7827,171.663,99.1593,94.8,-0.000100726,0.0423082,21.0233,897.095,0.403252,0.0,0.0
418,104.25,15.0625,15.4811,163.954,99.1601,94.548,0.000133776,0.0423267,21.0252,897.035,0.427196,0.0,0.0
437,109,15.9038,15.6785,172.891,99.1662,94.705,-0.00020425,0.0424053,21.0234,897.195,0.412869,0.0,0.0
456,113.75,15.5816,16.376,170.615,99.1793,94.9829,-0.000168411,0.0423971,21.0224,896.885,0.387769,0.0,0.0
475,118.5,15.546,15.8108,166.869,99.2116,94.0918,6.46556e-05,0.0430705,21.0222,896.925,0.475235,0.0,0.0
494,123.25,15.5146,16.2223,170.425,99.2279,94.5965,0.000153592,0.0435202,21.0222,896.925,0.428732,0.0,0.0
513,128,15.957,16.2385,168.299,99.2193,93.4895,0.000360436,0.0447443,21.0204,897.055,0.53354,0.0,0.0
532,132.75,15.1246,15.3545,170.648,99.2063,93.8752,0.000337088,0.0446096,21.0197,896.875,0.495433,0.0,0.0
551,137.5,15.435,15.8977,170.753,99.1826,94.2453,0.000326753,0.0449923,21.0174,896.605,0.457992,0.0,0.0
570,142.25,15.583,15.9483,166.892,99.1695,93.5372,0.000270559,0.0467993,21.0144,896.545,0.524461,0.0,0.0
589,147,15.4189,16.4994,167.635,99.1238,94.5132,0.000647585,0.0502926,20.9978,896.545,0.427217,0.0,1.0
608,151.75,16.5587,17.6352,156.038,99.0551,59.4109,0.00755772,0.155881,20.8061,896.195,4.5852,0.0,1.0
627,156.5,20.9006,22.6415,138.249,98.9767,44.4887,0.0219599,0.432368,20.2773,895.634,7.17245,0.0,0.0
646,161.25,27.2865,30.2088,136.443,98.8587,45.6794,0.0302393,0.66018,19.9634,895.214,6.92484,0.0,0.0
665,166,32.2525,37.0946,133.723,98.7492,40.5331,0.0351301,0.78907,19.7863,894.573,7.98701,0.0,0.0
684,170.75,38.4628,45.2405,143.536,98.6299,41.9153,0.0375226,0.874718,19.6893,893.903,7.6754,0.0,0.0
703,175.5,42.7757,51.0442,138.613,98.5241,40.861,0.0405519,0.905403,19.6543,893.192,7.89427,0.0,0.0
722,180.25,49.2401,59.1931,125.718,98.44,33.9906,0.0490069,1.05264,19.3997,892.211,9.53781,0.0,0.0
741,185,54.1724,65.9624,114.93,98.5617,33.3647,0.0536294,1.15564,19.2621,891.15,9.71562,0.0,0.0
760,189.75,60.2567,73.5848,121.642,98.7398,30.8328,0.0567223,1.22832,19.145,890.289,10.4397,0.0,0.0
779,194.5,66.6819,81.7758,126.162,98.8983,31.5658,0.0605951,1.33717,19.0177,889.108,10.2433,0.0,0.0
798,199.25,71.4725,87.2607,116.596,99.0339,27.4873,0.0623318,1.35224,18.9949,888.088,11.4965,0.0,0.0
817,204,75.1881,92.8962,118.468,99.1344,27.0354,0.0684324,1.44758,18.8281,886.917,11.6543,0.0,0.0
836,208.75,82.2409,100.961,111.498,99.1932,28.6153,0.0730309,1.5861,18.6474,885.796,11.1502,0.0,0.0
855,213.5,87.2669,107.294,118.907,99.2365,25.7563,0.0746367,1.61596,18.5994,884.564,12.0983,0.0,0.0
874,218.25,91.7563,113.083,112.7,99.2541,23.9512,0.0778691,1.64866,18.5609,883.293,12.7516,0.0,0.0
893,223,95.9968,118.469,105.458,99.2598,23.9942,0.0816602,1.71171,18.4563,882.323,12.736,0.0,0.0
912,227.75,101.566,124.847,109.856,99.2287,25.6586,0.0821829,1.77243,18.4055,880.901,12.1317,0.0,0.0
931,232.5,104.527,129.042,118.835,99.2099,26.7191,0.0778232,1.70153,18.5399,879.71,11.7667,0.0,0.0
950,237.25,106.785,131.249,105.072,99.203,21.9228,0.0827281,1.75393,18.3934,878.049,13.5407,0.0,0.0
969,242,110.052,135.797,125.881,99.201,30.0758,0.0782685,1.76051,18.4683,877.218,10.7044,0.0,0.0
988,246.75,111.807,136.95,109.424,99.1805,22.7666,0.0810492,1.70862,18.5093,875.777,13.1999,0.0,0.0
1007,251.5,114.722,140.771,110.416,99.1977,23.5066,0.0829197,1.80014,18.408,874.686,12.9146,0.0,0.0
1026,256.25,116.727,142.357,108.925,99.154,24.4806,0.081066,1.77227,18.4258,873.565,12.5464,0.0,0.0
1045,261,118.644,144.934,123.26,99.1581,30.1153,0.0744215,1.69801,18.5778,872.474,10.6888,0.0,0.0
1064,265.75,119.06,144.361,112.636,99.1662,28.1753,0.0664743,1.55948,18.7778,871.523,11.2868,0.0,0.0
1083,270.5,118.274,142.812,123.489,99.1936,31.6762,0.057089,1.40776,19.023,870.342,10.2387,0.0,0.0
1102,275.25,116.476,140.385,133.523,99.2181,33.6852,0.0534553,1.28763,19.2035,869.621,9.68939,0.0,0.0
1121,280,114.286,136.621,125.687,99.2492,42.0235,0.0472119,1.1435,19.4283,868.931,7.70842,0.0,0.0
1140,284.75,110.315,131.969,146.174,99.2553,43.9541,0.0360565,0.938825,19.811,868.601,7.30608,0.0,0.0
1159,289.5,105.671,124.904,149.954,99.2765,52.2614,0.0259212,0.726821,20.105,867.92,5.75528,0.0,0.0
1178,294.25,99.4766,116.826,151.531,99.2639,67.7107,0.017045,0.522023,20.4094,867.85,3.43116,0.0,0.0
1197,299,93.5093,108.282,155.872,99.2475,75.8284,0.0107971,0.357495,20.6564,867.83,2.41408,0.0,0.0
1216,303.75,87.7379,100.409,162.088,99.2001,84.5214,0.00705278,0.258499,20.7905,867.76,1.43633,0.0,0.0
1235,308.5,81.5731,93.2209,161.884,99.1074,86.0889,0.004568,0.192893,20.8692,867.009,1.26312,0.0,0.0
1254,313.25,76.131,85.873,158.775,98.9861,87.9211,0.00292389,0.147802,20.9252,867.55,1.06324,0.0,0.0
1273,318,72.0189,80.195,159.266,98.8366,90.5739,0.00239246,0.120486,20.9494,867.249,0.783054,0.0,0.0
1292,322.75,68.1273,74.6006,159.198,98.654,92.1832,0.0016114,0.0987287,20.9783,867.029,0.608496,0.0,0.0
1311,327.5,63.7477,69.4338,160.117,98.4898,93.3112,0.00104906,0.0811395,20.9974,867.289,0.484471,0.0,0.0
1330,332.25,59.6881,64.6987,159.729,98.5785,94.1337,0.000801115,0.0688704,21.009,867.329,0.413823,0.0,0.0
1349,337,56.5836,60.2662,160.112,98.6871,93.6775,0.000400973,0.0598529,21.0156,867.099,0.46728,0.0,0.0
1368,341.75,53.8611,56.655,164.458,98.8092,93.8077,5.59463e-05,0.0547925,21.0166,867.439,0.465912,0.0,0.0
1387,346.5,50.7322,53.1886,164.894,98.9792,94.1604,0.000215554,0.0516466,21.0187,867.359,0.44766,0.0,0.0
1406,351.25,48.8691,50.1871,164.253,99.0449,93.9329,0.000478569,0.0496708,21.0186,867.46,0.475317,0.0,0.0
1425,356,46.7091,48.0644,165.436,99.1814,94.7899,-2.88656e-05,0.0482746,21.0209,867.389,0.406201,0.0,0.0
1444,360.75,44.8281,45.7513,163.848,99.2259,94.726,-9.29044e-06,0.0472391,21.0208,867.249,0.41628,0.0,0.0
1463,365.5,43.5253,43.0637,164.179,99.2393,93.9779,0.000255571,0.04642,21.0174,867.49,0.488615,0.0,0.0
1482,370.25,41.7296,41.4041,163.057,99.2467,95.293,0.000174874,0.0457131,21.0183,867.279,0.364628,0.0,0.0
1501,375,39.1947,39.2155,166.849,99.2259,94.9938,1.42181e-05,0.045074,21.0204,867.179,0.390954,0.0,0.0
1520,379.75,38.1955,37.5817,161.657,99.1544,94.8372,-0.000201405,0.0448543,21.0214,867.239,0.399289,0.0,0.0
1539,384.5,37.0628,36.8658,162.713,99.0858,94.719,-3.97996e-05,0.044372,21.0212,867.59,0.404267,0.0,0.0
1558,389.25,36.7808,35.4937,164.042,99.0069,94.7981,-0.000287139,0.0440378,21.0218,866.929,0.389643,0.0,0.0
1577,394,35.2746,34.1248,162.877,98.8922,94.6492,-0.000134645,0.043724,21.0224,867.109,0.393333,0.0,0.0
1596,398.75,34.6174,33.0613,164.205,98.7729,94.4787,-5.57764e-05,0.0437928,21.0229,867.099,0.398686,0.0,0.0
1615,403.5,33.3483,32.1187,165.155,98.605,94.1445,-0.000409901,0.0434737,21.0248,867.139,0.415204,0.0,0.0
1634,408.25,33.0404,31.7474,164.011,98.3979,93.541,-0.000380311,0.0433046,21.0232,867.339,0.454031,0.0,0.0
1653,413,32.113,31.218,166.711,98.1863,93.9798,-0.00020398,0.0429626,21.0215,867.399,0.392749,0.0,0.0
1672,417.75,31.4232,30.0982,163.35,98.0046,93.7597,-0.000143117,0.0428431,21.0212,867.379,0.397166,0.0,0.0
1691,422.5,30.7352,30.0387,161.585,97.8665,93.9752,-2.87599e-05,0.0428661,21.0227,867.179,0.363928,0.0,0.0
1710,427.25,30.2659,29.6036,164.097,97.7493,93.7271,6.02806e-05,0.0427192,21.0212,867.259,0.376887,0.0,0.0
1729,432,29.6771,27.9649,163.722,97.6713,93.9023,0.000102417,0.0426506,21.0214,867.46,0.352975,0.0,0.0
1748,436.75,29.5818,27.7746,163.504,97.5814,93.4344,-3.9261e-05,0.0426503,21.0218,867.419,0.389518,0.0,0.0
1767,441.5,28.8836,27.0526,163.983,97.4977,93.71,2.6479e-05,0.042571,21.0218,867.169,0.355401,0.0,0.0
1786,446.25,28.0395,26.3949,162.427,97.4062,93.2841,,,,866.979,0.387845,0.0,0.0
1805,451,27.9187,26.294,162.71,97.3596,93.2779,,,,867.439,0.384153,0.0,0.0
1814,453.25,28.1291,26.2259,169.008,97.3335,93.9504,,,,867.339,0.31731,0.0,0.0

File: PlasticC_Cone_HF50Scalar_220218_R1.csv
LABORATORY,FSRI
TEST IDENT,PlasticC_HF50_1
OPERATOR,Dow
MATERIAL,Plastic C
ORIENTATION,Horizontal
HEAT FLUX,50
SURF AREA,0.01
C FACTOR,0.0385692
SPEC HOLDER DIFF,-89.48
SPECIMEN MASS,31.3
SCAN TIME,0.25
O2 DELAY TIME,11
CO DELAY TIME,11
CO2 DELAY TIME,8
FLOW FACTOR,1
SCAN COUNT,1111
TIME TO IGN,37.75
END OF TEST SCAN,631
END OF TEST TIME,157.75
TEST STATUS,1
PRE TEST CMT,Dimensions: 99.88 x 100.01 x 2.89 mm

File: PlasticC_Cone_HF50Scalar_220218_R2.csv
LABORATORY,FSRI
TEST IDENT,PlasticC_HF50_2
OPERATOR,Dow
MATERIAL,Plastic C
ORIENTATION,Horizontal
HEAT FLUX,50
SURF AREA,0.01
C FACTOR,0.0385692
SPEC HOLDER DIFF,-84.21
SPECIMEN MASS,31.5
SCAN TIME,0.25
O2 DELAY TIME,11
CO DELAY TIME,11
CO2 DELAY TIME,8
FLOW FACTOR,1
SCAN COUNT,1121
TIME TO IGN,37.25
END OF TEST SCAN,641
END OF TEST TIME,160.25
TEST STATUS,1
PRE TEST CMT,Dimensions: 100.14 x 100.08 x 2.91 mm

File: PlasticC_Cone_HF50Scalar_220218_R3.csv
LABORATORY,FSRI
TEST IDENT,PlasticC_HF50_3
OPERATOR,Dow
MATERIAL,Plastic C
ORIENTATION,Horizontal
HEAT FLUX,50
SURF AREA,0.01
C FACTOR,0.0385692
SPEC HOLDER DIFF,-89.41
SPECIMEN MASS,31.6
SCAN TIME,0.25
O2 DELAY TIME,11
CO DELAY TIME,11
CO2 DELAY TIME,8
FLOW FACTOR,1
SCAN COUNT,1102
TIME TO IGN,39
END OF TEST SCAN,622
END OF TEST TIME,155.5
TEST STATUS,1
PRE TEST CMT,Dimensions: 100.02 x 99.95 x 2.88 mm

File: PlasticC_Cone_HF50Scan_220218_R1.csv
Names,Time,Stack TC,Smoke TC,Exh Press,Smoke Comp,Smoke Meas,CO Meter,CO2 Meter,O2 Meter,Sample Mass,Ext Coeff,Start Test,Flame Verif
Chan Gain,,500,500,1,1,1,1,1,1,1,1,1.0,1.0
Offset,,0,0,0.132436,0,0,0,0,0,0,0,0.0,0.0
Gain,,1,1,25.011,15.4219,15.1528,1,1,1,1.00089,1.02113,1.0,1.0
Units,sec,C,C,Pa,%,%,%,%,%,g,/m,,
Baseline,,22.6988,24.1007,165.135,112.264,111.561,-0.0057558,0.0489986,20.9964,-476.494,0.0563086,,
12,2.75,21.7078,22.7464,166.153,111.262,110.389,-0.00584753,0.0498186,20.9989,32.2085,0.0704926,0.0,0.0
24,5.75,21.8098,22.7042,165.851,111.961,111.298,-0.00606439,0.0491828,20.9992,32.0684,0.0532277,0.0,0.0
36,8.75,21.9085,22.9878,167.427,112.766,111.926,-0.00618058,0.0485744,21.0001,32.1184,0.0670234,0.0,0.0
48,11.75,22.088,23.4666,170.1,113.258,112.314,-0.00605184,0.0480114,21.0008,32.1985,0.0749718,0.0,0.0
60,14.75,22.6413,23.608,164.087,113.287,111.987,-0.00598415,0.0478482,21.0017,32.2786,0.103391,0.0,0.0
72,17.75,22.2981,23.2076,164.518,112.907,111.516,-0.00602221,0.0476552,21.0023,32.1785,0.111079,0.0,0.0
84,20.75,22.2682,24.153,162.214,112.789,110.628,-0.00605925,0.0474816,21.0025,32.1084,0.173305,0.0,0.0
96,23.75,22.6117,23.7583,165.19,113.303,111.399,-0.00598352,0.0473257,21.0011,32.1184,0.15179,0.0,0.0
108,26.75,23.0801,24.2837,167.964,113.012,110.602,-0.00585427,0.0473772,21,32.0684,0.193138,0.0,0.0
120,29.75,22.7868,24.29,163.04,112.458,109.555,-0.00582871,0.0476266,20.9996,32.0784,0.234278,0.0,0.0
132,32.75,23.3348,23.9064,162.773,112.89,109.567,-0.00582224,0.0486322,20.9972,32.0884,0.267642,0.0,0.0
144,35.75,22.6512,23.8869,166.047,113.258,110.3,-0.00565654,0.0508722,20.9948,32.0484,0.237113,0.0,0.0
156,38.75,22.9444,24.189,160.807,113.195,104.983,-0.00410283,0.0660011,20.95,31.9583,0.674586,0.0,1.0
168,41.75,23.9589,25.1282,147.208,112.669,63.1713,0.0019867,0.169047,20.7187,31.8482,5.18271,0.0,1.0
180,44.75,25.5854,27.181,131.313,111.871,55.2953,0.0101731,0.362849,20.378,31.3678,6.31177,0.0,0.0
192,47.75,30.0315,32.0142,132.209,111.267,49.4363,0.0179444,0.553127,20.1186,30.8173,7.26652,0.0,0.0
204,50.75,34.7197,37.343,128.2,111.163,42.375,0.0250224,0.706778,19.9082,30.477,8.63872,0.0,0.0
216,53.75,38.7164,42.4795,125.599,111.652,44.1692,0.0311363,0.844063,19.6899,30.2268,8.30655,0.0,0.0
228,56.75,44.1613,48.5356,124.274,112.441,43.896,0.0357863,0.958749,19.5692,29.6262,8.42527,0.0,0.0
240,59.75,49.3231,55.0751,121.746,113.146,38.819,0.040552,1.05954,19.428,28.9456,9.58215,0.0,0.0
252,62.75,54.0589,61.3547,127.043,113.483,36.0019,0.044248,1.1427,19.3125,28.3451,10.2837,0.0,0.0
264,65.75,59.2119,66.7581,124.545,113.409,35.3253,0.0482033,1.20223,19.2196,27.6745,10.4477,0.0,0.0
276,68.75,64.0946,72.3981,115.247,113.043,31.2902,0.0524491,1.30011,19.0663,27.124,11.5053,0.0,0.0
288,71.75,69.4309,79.038,117.969,113.018,35.2129,0.0566661,1.39885,18.9286,26.2533,10.4453,0.0,0.0
300,74.75,74.4404,85.3301,111.013,113.458,26.2192,0.062451,1.50037,18.758,25.6327,13.1218,0.0,0.0
312,77.75,80.0616,92.2445,111.013,113.214,28.1438,0.0690716,1.61577,18.6209,24.7219,12.468,0.0,0.0
324,80.75,84.4041,97.5974,108.647,112.576,27.1001,0.0757318,1.71727,18.4621,24.0013,12.7559,0.0,0.0
336,83.75,90.5505,105.203,104.741,113.038,23.0807,0.0815785,1.84374,18.2884,23.2206,14.2306,0.0,0.0
348,86.75,96.4276,111.67,106.858,113.413,26.3769,0.0868469,1.91485,18.1781,22.2797,13.0646,0.0,0.0
360,89.75,101.19,118.494,99.2497,113.369,22.4134,0.0950145,2.04929,17.9457,21.509,14.5196,0.0,0.0
372,92.75,107.633,126.297,99.2871,112.868,23.9269,0.100904,2.17883,17.787,20.5882,13.8946,0.0,0.0
384,95.75,113.244,132.922,94.3892,112.125,22.9022,0.104412,2.28533,17.6318,19.5673,14.2275,0.0,0.0
396,98.75,119.156,140.442,113.154,111.472,21.416,0.107555,2.38462,17.5237,18.5664,14.7762,0.0,0.0
408,101.75,123.525,146.495,100.362,111.295,20.5628,0.111917,2.47585,17.3952,17.6256,15.1261,0.0,0.0
420,104.75,128.685,152.935,106.248,111.732,18.2673,0.121423,2.55238,17.3026,16.5046,16.2215,0.0,0.0
432,107.75,133.688,159.552,92.2016,112.513,16.4781,0.132723,2.69369,17.0296,15.4137,17.2072,0.0,0.0
444,110.75,139.343,166.846,90.3995,113.241,18.6432,0.136488,2.85919,16.8546,14.3227,16.1592,0.0,0.0
456,113.75,144.474,173.62,86.7442,113.656,19.1269,0.137251,2.90511,16.8121,13.2417,15.9625,0.0,0.0
468,116.75,148.928,179.157,96.1622,113.651,15.9496,0.143832,2.9431,16.7159,12.0907,17.5893,0.0,0.0
480,119.75,153.116,185.477,87.7807,113.343,21.1556,0.14944,3.04859,16.5905,10.9397,15.0349,0.0,0.0
492,122.75,158.865,191.839,90.1125,113.238,19.4701,0.150256,3.09772,16.5633,9.85873,15.7702,0.0,0.0
504,125.75,162.66,197.286,94.4296,113.738,17.5491,0.146951,3.0802,16.5977,8.76777,16.7401,0.0,0.0
516,128.75,165.101,201.149,102.174,113.489,18.3861,0.141263,2.99729,16.7357,7.76688,16.3032,0.0,0.0
528,131.75,167.95,204.293,96.5042,112.795,20.1965,0.133475,2.90337,16.8892,6.56581,15.407,0.0,0.0
540,134.75,168.647,205.672,91.7475,113.181,16.16,0.127875,2.78681,17.0293,5.57494,17.4348,0.0,0.0
552,137.75,170.501,207.293,98.8482,113.544,19.9598,0.120109,2.71597,17.1653,4.88433,15.5719,0.0,0.0
564,140.75,171.017,207.726,104.327,113.597,27.7882,0.102667,2.47466,17.5968,3.96351,12.6122,0.0,0.0
576,143.75,169.139,204.833,122.31,113.196,29.5995,0.0826766,2.09681,18.1791,3.18282,12.0149,0.0,0.0
588,146.75,165.201,199.416,119.13,112.45,36.4851,0.0642183,1.72675,18.6885,2.68238,10.0823,0.0,0.0
600,149.75,160.408,193.442,132.503,111.74,51.2805,0.0467992,1.32641,19.244,2.16191,6.97646,0.0,0.0
612,152.75,153.981,184.444,144.662,111.454,64.739,0.031313,0.957101,19.7707,2.01178,4.86598,0.0,0.0
624,155.75,146.17,175.191,148.042,111.745,95.0169,0.0201843,0.615292,20.3121,2.08184,1.45258,0.0,0.0
636,158.75,137.586,164.197,153.351,112.484,104.025,0.015254,0.361599,20.6533,2.06183,0.700298,0.0,0.0
648,161.75,130.072,155.052,153.99,113.192,105.151,0.0135532,0.217179,20.8177,2.13189,0.66009,0.0,0.0
660,164.75,122.928,146.691,150.47,113.712,106.128,0.0125151,0.145187,20.8934,1.98176,0.6183,0.0,0.0
672,167.75,116.442,138.638,150.42,113.905,106.055,0.0113384,0.109371,20.9301,2.10186,0.639619,0.0,0.0
684,170.75,110.393,131.694,155.661,113.754,105.268,0.00996944,0.0901478,20.9511,1.94172,0.694451,0.0,0.0
696,173.75,105.189,124.71,153.251,113.436,106.026,0.00863589,0.0796076,20.9578,2.00177,0.6051,0.0,0.0
708,176.75,100.655,118.954,153.048,113.764,106.177,0.00673268,0.0730916,20.9655,1.8116,0.618278,0.0,0.0
720,179.75,96.1052,112.971,152.034,114.033,106.724,0.00491779,0.0679608,20.9723,1.89168,0.593343,0.0,0.0
732,182.75,91.8909,107.53,157.256,113.713,106.505,0.00333685,0.0643585,20.9777,1.96174,0.586622,0.0,0.0
744,185.75,88.4836,103.375,154.915,113.092,104.189,0.00180937,0.0616096,20.9825,1.86165,0.734465,0.0,0.0
756,188.75,84.8315,99.4805,153.017,113.373,105.605,0.000219835,0.0595049,20.9862,1.95173,0.635781,0.0,0.0
768,191.75,81.7589,94.6593,160.754,113.725,106.324,-0.00102782,0.0576823,20.9887,1.86165,0.602728,0.0,0.0
780,194.75,78.7894,90.9691,155.347,113.893,107.47,-0.00195884,0.0559503,20.9905,1.86165,0.519933,0.0,0.0
792,197.75,76.0642,87.5203,155.643,113.76,106.169,-0.00287084,0.05444,20.992,1.98176,0.618607,0.0,0.0
804,200.75,73.1244,83.9627,155.663,113.353,106.193,-0.00356521,0.0531554,20.9936,1.90168,0.584391,0.0,0.0
816,203.75,70.8255,80.6548,153.87,112.766,106.46,-0.00413207,0.0521662,20.9958,1.95173,0.515456,0.0,0.0
828,206.75,68.7165,78.1035,153.205,112.214,104.42,-0.00446163,0.0513194,20.9964,1.8016,0.644781,0.0,0.0
840,209.75,66.8731,75.278,156.769,111.767,104.301,-0.0047896,0.0506803,20.9982,1.96174,0.619337,0.0,0.0
852,212.75,65.0142,73.2636,155.563,111.611,105.726,-0.00493224,0.0500053,20.9987,1.88167,0.485201,0.0,0.0
864,215.75,63.0991,70.0307,155.615,111.821,105.065,-0.0048891,0.049635,20.9985,1.90168,0.55823,0.0,0.0
876,218.75,61.8975,68.244,156.403,112.236,105.538,-0.00515624,0.0492761,20.9991,1.76156,0.551181,0.0,0.0
888,221.75,59.5053,65.6859,158.592,112.799,105.77,-0.00535017,0.0489009,20.9992,1.95173,0.576312,0.0,0.0
900,224.75,58.9204,64.5792,159.693,113.308,106.905,-0.00546534,0.0487099,20.9992,1.84163,0.521066,0.0,0.0
912,227.75,57.2342,62.4438,157.984,113.687,106.793,-0.0054287,0.0483805,21.0003,1.84163,0.560348,0.0,0.0
924,230.75,55.8481,61.4602,160.044,113.943,106.486,-0.00535981,0.0481862,21.0018,1.96174,0.606211,0.0,0.0
936,233.75,54.8613,59.6143,161.296,114.067,106.84,-0.005363,0.0481842,21.0022,1.83162,0.586341,0.0,0.0
948,236.75,53.9824,58.3828,157.835,114.061,106.332,-0.00540911,0.0482066,21.0015,2.00177,0.62857,0.0,0.0
960,239.75,53.1413,56.8444,155.516,113.937,106.709,-0.00555141,0.0482284,21.0015,1.9217,0.587039,0.0,0.0
972,242.75,51.9581,56.1096,157.514,113.741,108.1,-0.00532914,0.0481654,21.0011,1.87166,0.455591,0.0,0.0
984,245.75,51.2029,53.8932,153.006,113.584,106.963,-0.0054292,0.0480845,20.9998,1.94172,0.538,0.0,0.0
996,248.75,49.479,53.203,156.603,113.888,107.752,-0.00567135,0.0480296,21.0006,1.90168,0.496046,0.0,0.0
1008,251.75,49.3665,52.5996,158.424,114.178,107.715,-0.00577844,0.0483121,20.9995,1.90168,0.521895,0.0,0.0
1020,254.75,48.6462,51.6902,158.724,114.282,107.852,-0.00587777,0.0483471,20.9993,1.95173,0.51875,0.0,0.0
1032,257.75,48.541,50.6215,156.043,114.188,106.506,-0.00593587,0.048294,21.0004,1.87166,0.623794,0.0,0.0
1044,260.75,46.8846,49.3727,156.14,113.979,107.822,-0.00590104,0.0481553,21.0008,1.8116,0.497459,0.0,0.0
1056,263.75,46.7557,49.3662,157.597,113.589,106.947,-0.00590363,0.0479175,21.0006,1.86165,0.539723,0.0,0.0
1068,266.75,45.9065,48.4757,156.47,113.397,107.751,,0.0479002,,1.87166,0.457471,0.0,0.0
1080,269.75,46.2287,47.9145,155.598,113.56,107.309,,,,1.98176,0.507149,0.0,0.0
1092,272.75,44.9507,46.9074,159.11,113.752,108.877,,,,1.8116,0.392376,0.0,0.0
1104,275.75,44.7787,46.1967,159.6,113.945,108.381,,,,1.88167,0.448435,0.0,0.0
1111,277.5,44.8128,46.1596,155.598,114.03,107.92,,,,1.95173,0.493351,0.0,0.0