Folder: fsri_materials_database/01_Data/PlasticC/MCC (part 2)

File: PlasticC_MCC_30K_min_211022_R3.txt
Sample ID:	C:\MCC\MCC Cal\Test\PlasticC_MCC_30K_min_211022_R3.txt
Sample Weight (mg):	4.6
Heating Rate (C/s):	0.5
Combustor Temp (C):	900
N2 Flow Rate (cc/min):	80
O2 Flow Rate (cc/min):	20
Calibration File:	C:\MCC\MCC Cal\Coeff1 JN10440_30_210304.txt.txt
T Correction Coefficients:	0	1.024463	0
Time Shift (s):	14
*
Time (s)	Temperature (C)	N2 flow rate (cc/min)	O2 flow rate (cc/min)	Flow Rate (cc/min)	Oxygen (%)	HRR (W/g)	Heating rate (C/s)
0.000	107.970	80.003	19.996	103.005	20.054	0.073	-0.018
8.000	107.958	80.002	19.995	103.007	20.050	0.323	0.029
16.000	107.946	80.002	19.994	103.023	20.054	0.052	0.013
24.000	107.944	80.001	19.996	103.033	20.051	0.257	0.001
32.000	108.124	80.002	19.996	103.114	20.035	1.391	0.070
40.000	108.605	80.000	19.995	103.184	20.018	2.569	0.100
48.000	109.509	80.003	19.996	103.217	20.015	2.775	0.131
56.000	110.863	80.005	19.995	103.256	20.011	3.065	0.196
64.000	112.759	80.003	19.996	103.271	20.003	3.629	0.241
72.000	115.084	80.004	19.996	103.295	20.003	3.633	0.295
80.000	117.695	80.005	19.995	103.294	20.004	3.583	0.364
88.000	120.662	80.001	19.993	103.294	20.005	3.488	0.399
96.000	123.856	80.000	19.996	103.276	20.004	3.561	0.447
104.000	127.188	80.003	19.994	103.272	20.006	3.418	0.429
112.000	130.718	80.003	19.996	103.276	20.005	3.483	0.426
120.000	134.414	80.003	19.996	103.277	20.007	3.341	0.457
128.000	138.137	80.002	19.995	103.271	20.012	2.984	0.477
136.000	141.970	80.003	19.995	103.278	20.009	3.199	0.456
144.000	145.909	80.004	19.995	103.274	20.009	3.212	0.488
152.000	149.860	80.005	19.994	103.269	20.013	2.949	0.484
160.000	153.830	80.006	19.996	103.255	20.010	3.110	0.478
168.001	157.805	80.005	19.996	103.253	20.009	3.181	0.484
176.000	161.801	80.003	19.995	103.249	20.009	3.200	0.466
184.000	165.843	80.003	19.996	103.241	20.009	3.217	0.533
192.000	169.876	80.002	19.996	103.240	20.011	3.060	0.547
200.000	173.872	80.003	19.994	103.232	20.008	3.236	0.521
208.000	177.856	80.002	19.995	103.234	20.017	2.655	0.488
216.000	181.856	80.004	19.996	103.233	20.013	2.912	0.522
224.000	185.806	80.003	19.996	103.221	20.014	2.848	0.512
232.000	189.738	80.003	19.997	103.226	20.014	2.827	0.490
240.000	193.691	80.006	19.993	103.214	20.014	2.821	0.502
248.000	197.640	80.032	20.006	103.250	20.015	2.767	0.489
256.000	201.500	80.019	20.005	103.246	20.019	2.494	0.470
264.000	205.426	80.020	20.002	103.238	20.019	2.513	0.508
272.000	209.401	80.021	20.002	103.239	20.013	2.910	0.512
280.000	213.334	80.019	20.002	103.237	20.010	3.117	0.523
288.000	217.212	80.019	20.004	103.234	20.010	3.104	0.482
296.000	221.135	80.020	20.004	103.231	20.012	3.014	0.485
304.000	225.119	80.022	20.001	103.230	20.009	3.213	0.514
312.000	229.044	80.021	20.005	103.233	20.012	2.971	0.511
320.000	233.015	80.022	20.001	103.223	20.007	3.357	0.509
328.000	236.940	80.023	20.003	103.229	20.007	3.336	0.472
336.000	240.887	80.019	20.000	103.232	20.001	3.724	0.496
344.000	244.813	80.019	20.002	103.226	20.004	3.514	0.464
352.000	248.786	80.021	20.004	103.220	20.002	3.658	0.524
360.000	253.066	80.021	20.003	103.216	19.999	3.877	0.524
368.000	256.845	80.019	20.005	103.224	19.994	4.265	0.498
376.000	260.778	80.020	20.004	103.218	19.995	4.163	0.485
384.000	264.791	80.023	20.004	103.221	19.991	4.423	0.470
392.000	268.902	80.022	20.005	103.209	19.992	4.405	0.556
400.000	272.940	80.022	20.002	103.212	19.989	4.577	0.500
408.001	276.974	80.023	20.001	103.216	19.983	4.985	0.512
416.000	280.983	80.020	20.002	103.200	19.988	4.695	0.499
424.000	284.996	80.021	20.002	103.196	19.984	4.939	0.496
432.000	289.037	80.022	20.002	103.191	19.985	4.887	0.501
440.000	293.050	80.021	20.003	103.190	19.979	5.272	0.509
448.000	297.015	80.019	20.004	103.192	19.984	4.927	0.474
456.000	301.040	80.020	20.003	103.184	19.977	5.444	0.535
464.000	305.015	80.022	20.003	103.193	19.979	5.316	0.501
472.000	308.962	80.019	20.005	103.189	19.981	5.185	0.494
480.000	313.027	80.021	20.003	103.169	19.978	5.372	0.544
488.000	317.047	80.023	20.000	103.176	19.976	5.536	0.496
496.000	321.033	80.005	19.995	103.153	19.985	4.877	0.481
504.000	325.006	80.002	19.994	103.149	19.978	5.369	0.482
512.000	329.074	80.003	19.996	103.151	19.980	5.226	0.526
520.000	333.046	80.004	19.995	103.155	19.980	5.245	0.487
528.000	337.044	80.004	19.998	103.162	19.982	5.115	0.514
536.000	341.087	80.001	19.997	103.159	19.980	5.245	0.499
544.000	345.129	80.002	19.998	103.158	19.981	5.147	0.530
552.000	349.184	80.004	19.995	103.153	19.979	5.305	0.496
560.000	353.164	80.002	19.993	103.151	19.970	5.891	0.478
568.000	357.172	80.005	19.997	103.147	19.967	6.099	0.482
576.000	361.180	80.006	19.996	103.142	19.956	6.892	0.529
584.000	365.165	80.005	19.995	103.150	19.952	7.154	0.506
592.000	369.110	80.003	19.996	103.150	19.931	8.631	0.494
600.000	373.115	80.001	19.996	103.130	19.911	10.084	0.504
608.000	377.107	80.004	19.995	103.157	19.892	11.414	0.475
616.000	381.233	80.003	19.996	103.155	19.872	12.759	0.524
624.000	385.458	80.021	20.003	103.194	19.840	15.037	0.552
632.000	389.752	80.003	19.996	103.170	19.756	20.923	0.538
640.000	394.113	80.003	19.995	103.132	19.705	24.498	0.521
648.000	398.431	80.002	19.995	103.175	19.575	33.529	0.510
656.000	402.718	80.004	19.994	103.183	19.386	46.792	0.526
664.000	406.895	80.006	19.995	103.126	19.171	61.796	0.535
672.000	411.039	80.004	19.998	103.190	18.819	86.529	0.479
680.000	415.142	80.002	19.995	103.233	18.321	121.319	0.527
688.000	419.173	80.001	19.995	103.234	17.589	172.726	0.541
696.000	423.132	80.001	19.995	103.239	16.775	229.735	0.473
704.000	427.079	80.003	19.996	103.238	15.893	291.543	0.472
712.000	431.008	80.004	19.995	103.306	14.995	354.319	0.517
720.000	434.992	80.004	19.995	103.201	14.217	408.968	0.505
728.000	438.910	80.005	19.996	103.279	13.773	440.558	0.473
736.000	442.844	80.006	19.995	103.349	13.813	437.947	0.491
744.000	446.854	80.005	19.995	103.427	14.271	405.882	0.502
752.000	450.965	80.002	19.997	103.462	15.051	350.946	0.511
760.000	455.114	79.999	19.996	103.452	15.983	285.439	0.498
768.000	459.244	80.001	19.996	103.368	16.879	222.480	0.509
776.000	463.431	80.003	19.995	103.314	17.644	168.817	0.525
784.000	467.534	80.001	19.996	103.255	18.234	127.458	0.489
792.000	471.671	80.005	19.995	103.229	18.660	97.612	0.497
800.000	475.812	80.004	19.996	103.205	18.978	75.346	0.484
808.000	479.879	80.004	19.995	103.188	19.236	57.247	0.529
816.000	483.901	80.006	19.996	103.158	19.450	42.321	0.485
824.000	487.878	80.003	19.995	103.148	19.637	29.217	0.490
832.000	491.839	80.006	19.995	103.144	19.798	17.980	0.527
840.000	495.805	80.001	19.996	103.126	19.913	9.922	0.504
848.000	499.809	80.001	19.997	103.124	19.991	4.449	0.514
856.000	503.763	80.002	19.997	103.113	20.021	2.336	0.516
864.000	507.769	80.002	19.995	103.085	20.032	1.610	0.484
872.000	511.688	80.002	19.995	103.117	20.033	1.502	0.471
880.000	515.629	80.004	19.995	103.125	20.040	1.034	0.514
888.000	519.723	80.003	19.995	103.134	20.036	1.296	0.526
896.000	523.973	80.004	19.995	103.134	20.036	1.323	0.552
904.000	528.224	80.004	19.994	103.150	20.048	0.460	0.547
912.000	532.606	80.006	19.996	103.131	20.040	1.027	0.543
920.000	537.097	80.003	19.996	103.134	20.039	1.113	0.558
928.000	541.475	80.002	19.997	103.136	20.043	0.845	0.561
936.000	545.809	80.002	19.996	103.144	20.042	0.906	0.554
944.000	550.213	80.001	19.996	103.139	20.042	0.854	0.557
952.000	554.505	80.001	19.996	103.115	20.041	0.933	0.542
960.000	558.656	80.002	19.995	103.132	20.040	1.013	0.502
968.000	562.662	80.003	19.995	103.114	20.041	0.927	0.518
976.000	566.608	80.004	19.996	103.125	20.045	0.689	0.506
984.000	570.451	80.003	19.995	103.126	20.047	0.544	0.489
992.000	574.417	80.005	19.995	103.118	20.046	0.628	0.502
1000.000	578.345	80.003	19.994	103.123	20.049	0.406	0.463
1008.000	582.260	80.002	19.996	103.133	20.048	0.460	0.483
1016.000	586.226	80.003	19.997	103.146	20.048	0.469	0.500
1024.000	590.263	80.004	19.996	103.129	20.047	0.561	0.492
1032.000	594.462	80.001	19.995	103.141	20.045	0.657	0.524
1040.000	598.785	80.001	19.997	103.127	20.047	0.519	0.528
1048.000	603.153	80.002	19.997	103.116	20.047	0.513	0.541
1056.000	607.558	80.004	19.996	103.125	20.043	0.835	0.538
1064.000	611.835	80.002	19.997	103.115	20.045	0.655	0.581
1072.000	616.181	80.003	19.995	103.124	20.045	0.667	0.551
1080.001	620.509	80.003	19.995	103.117	20.043	0.797	0.529
1088.000	624.786	80.003	19.996	103.121	20.043	0.822	0.550
1096.000	629.032	80.003	19.995	103.120	20.047	0.521	0.513
1104.000	633.280	80.003	19.996	103.127	20.045	0.691	0.526
1112.000	637.502	80.002	19.997	103.119	20.046	0.575	0.505
1120.000	641.649	80.003	19.996	103.146	20.051	0.281	0.476
1128.001	645.848	80.003	19.996	103.124	20.046	0.601	0.516
1136.000	649.982	80.004	19.996	103.125	20.047	0.519	0.490
1144.000	654.078	80.002	19.996	103.138	20.046	0.603	0.505
1152.000	658.193	80.006	19.995	103.114	20.043	0.781	0.536
1160.000	662.273	80.004	19.995	103.118	20.046	0.619	0.515
1168.001	666.342	80.003	19.996	103.120	20.046	0.622	0.534
1176.000	670.352	80.004	19.996	103.123	20.047	0.536	0.473
1184.000	674.406	80.003	19.994	103.118	20.051	0.260	0.497
1192.001	678.452	80.003	19.994	103.120	20.047	0.525	0.527
1200.000	682.427	80.002	19.997	103.118	20.044	0.764	0.498
1208.000	686.475	80.003	19.996	103.120	20.043	0.800	0.512
1216.000	690.501	80.024	20.000	103.142	20.046	0.596	0.495
1224.001	694.607	80.003	19.997	103.118	20.044	0.751	0.539
1232.000	698.626	80.004	19.996	103.111	20.046	0.617	0.489
1240.000	702.680	80.006	19.995	103.123	20.045	0.659	0.518
1248.000	706.736	80.002	19.995	103.105	20.044	0.749	0.529
1256.000	710.752	80.001	19.995	103.122	20.039	1.090	0.508
1264.001	714.761	80.002	19.995	103.110	20.041	0.954	0.491
1272.000	718.812	80.002	19.996	103.116	20.044	0.731	0.495
1280.000	722.798	80.003	19.995	103.114	20.039	1.074	0.509
1288.000	726.819	80.003	19.995	103.117	20.044	0.754	0.496
1296.000	730.850	80.004	19.996	103.119	20.038	1.157	0.484
1304.000	734.877	80.003	19.995	103.115	20.040	1.017	0.481
1312.000	738.901	80.005	19.995	103.117	20.040	1.011	0.523
1320.001	742.952	80.005	19.995	103.113	20.040	0.992	0.542
1321.500	743.667	80.005	19.996	103.116	20.038	1.170	0.473