Folder: fsri_materials_database/01_Data/PlasticC/MCC

Note: 01_Data/README.md
# Materials and Products Database
## 01_Data

Raw data generated from each apparatus are included here in plain-text format. The data is organized first by material, next by the short name of test apparatus used, and where applicable additional filtering by test settings.

### material.json

Each material directory contains a json file of the same name as the material. This file links the data stored in the repository as well as data and graphs produced by the accompanying scripts (__02_Scripts__) to the respective landing page for the material on the front-end website.

File: PlasticC_MCC_30K_min_211021_R1.txt
Sample ID:	C:\MCC\MCC Cal\Test\PlasticC_MCC_30K_min_211021_R1.txt
Sample Weight (mg):	4.54
Heating Rate (C/s):	0.5
Combustor Temp (C):	900
N2 Flow Rate (cc/min):	80
O2 Flow Rate (cc/min):	20
Calibration File:	C:\MCC\MCC Cal\Coeff1 JN10440_30_210304.txt.txt
T Correction Coefficients:	0	1.024463	0
Time Shift (s):	14
*
Time (s)	Temperature (C)	N2 flow rate (cc/min)	O2 flow rate (cc/min)	Flow Rate (cc/min)	Oxygen (%)	HRR (W/g)	Heating rate (C/s)
0.000	108.079	80.003	19.997	103.009	20.254	0.122	0.007
7.999	108.044	80.003	19.998	103.013	20.257	-0.147	-0.032
15.999	108.035	80.002	19.995	103.013	20.257	-0.127	-0.002
23.999	108.000	80.003	19.995	103.012	20.252	0.196	-0.025
32.000	108.017	80.001	19.996	103.013	20.253	0.167	-0.007
39.999	107.980	79.999	19.995	103.014	20.257	-0.122	-0.015
48.000	107.992	80.001	19.994	103.008	20.258	-0.212	0.008
55.999	107.959	80.002	19.995	103.002	20.257	-0.134	-0.035
64.000	108.075	80.002	19.997	103.398	20.204	3.670	0.047
72.000	109.381	80.003	19.996	103.388	20.185	4.962	0.224
80.000	111.650	80.004	19.997	103.385	20.186	4.948	0.331
88.000	114.712	80.002	19.996	103.383	20.181	5.290	0.405
95.999	118.303	80.002	19.996	103.426	20.185	4.988	0.459
104.000	122.328	80.003	19.996	103.357	20.184	5.049	0.517
112.001	126.623	80.002	19.994	103.345	20.191	4.560	0.548
120.001	131.142	80.001	19.996	103.317	20.191	4.532	0.601
128.000	135.774	80.001	19.996	103.310	20.198	4.046	0.564
135.999	140.446	80.003	19.996	103.293	20.199	4.010	0.565
143.999	145.131	80.002	19.995	103.273	20.202	3.778	0.575
151.999	149.719	80.001	19.996	103.269	20.209	3.274	0.557
160.000	154.160	80.002	19.995	103.256	20.214	2.929	0.521
168.000	158.503	80.003	19.996	103.264	20.214	2.960	0.522
175.999	162.768	80.001	19.995	103.242	20.212	3.087	0.492
184.000	167.077	80.002	19.997	103.229	20.213	2.991	0.508
191.999	171.212	80.002	19.996	103.228	20.216	2.796	0.511
200.000	175.397	80.001	19.996	103.229	20.218	2.671	0.531
208.000	179.452	80.002	19.997	103.225	20.217	2.684	0.521
216.000	183.487	80.001	19.995	103.210	20.215	2.861	0.492
223.999	187.527	80.000	19.996	103.201	20.217	2.723	0.493
232.000	191.462	80.000	19.996	103.214	20.216	2.803	0.452
240.000	195.384	80.002	19.994	103.196	20.214	2.917	0.489
248.001	199.238	80.002	19.995	103.199	20.212	3.041	0.474
255.999	203.126	80.002	19.996	103.193	20.216	2.784	0.484
264.000	207.031	80.003	19.996	103.199	20.218	2.662	0.522
272.000	210.888	80.003	19.996	103.189	20.215	2.837	0.492
280.000	214.820	80.001	19.997	103.187	20.211	3.104	0.500
288.000	218.641	80.001	19.995	103.196	20.213	3.021	0.489
296.000	222.600	80.000	19.996	103.197	20.210	3.241	0.504
304.000	226.540	80.001	19.995	103.194	20.211	3.151	0.490
312.001	230.516	79.999	19.996	103.192	20.213	2.988	0.507
320.000	234.488	80.001	19.995	103.190	20.209	3.276	0.499
328.000	238.491	80.003	19.995	103.189	20.202	3.771	0.519
336.000	242.446	80.002	19.996	103.186	20.203	3.716	0.508
344.000	246.404	80.003	19.996	103.171	20.201	3.828	0.503
352.001	250.448	80.003	19.996	103.177	20.197	4.147	0.517
360.000	254.438	80.001	19.996	103.179	20.195	4.299	0.500
368.000	258.491	80.000	19.995	103.172	20.192	4.454	0.543
375.999	262.475	80.001	19.996	103.178	20.193	4.410	0.498
383.999	266.473	80.001	19.995	103.179	20.193	4.400	0.467
391.999	270.546	80.000	19.995	103.166	20.191	4.577	0.498
400.000	274.615	80.000	19.995	103.157	20.188	4.761	0.521
408.000	278.594	80.003	19.995	103.153	20.187	4.861	0.496
416.000	282.558	80.002	19.995	103.155	20.184	5.081	0.479
424.000	286.527	80.003	19.994	103.160	20.181	5.240	0.484
431.999	290.484	80.004	19.994	103.154	20.182	5.208	0.511
439.999	294.469	80.003	19.996	103.149	20.185	4.980	0.505
448.000	298.436	80.001	19.995	103.157	20.179	5.389	0.488
456.001	302.412	80.001	19.996	103.154	20.181	5.290	0.506
463.999	306.452	80.001	19.996	103.147	20.180	5.333	0.451
472.000	310.460	80.000	19.996	103.145	20.185	4.953	0.528
480.000	314.548	80.000	19.995	103.149	20.179	5.412	0.515
488.001	318.604	80.002	19.994	103.153	20.187	4.855	0.553
495.999	322.491	80.000	19.994	103.149	20.184	5.054	0.445
504.000	326.526	80.002	19.995	103.140	20.187	4.864	0.521
512.000	330.428	80.002	19.995	103.149	20.186	4.939	0.478
520.000	334.392	80.004	19.995	103.134	20.185	4.969	0.508
528.000	338.312	80.002	19.995	103.138	20.181	5.258	0.486
536.000	342.293	80.000	19.995	103.146	20.191	4.523	0.512
543.999	346.197	80.002	19.997	103.142	20.186	4.902	0.494
552.001	350.200	80.001	19.996	103.150	20.181	5.245	0.479
560.000	354.346	79.999	19.996	103.153	20.176	5.600	0.560
568.000	358.392	80.002	19.996	103.146	20.170	6.069	0.519
575.999	362.428	80.003	19.995	103.142	20.158	6.879	0.491
584.000	366.588	80.002	19.994	103.146	20.149	7.555	0.530
592.001	370.739	80.004	19.996	103.149	20.134	8.621	0.539
600.000	374.944	80.004	19.996	103.145	20.109	10.355	0.519
608.000	379.081	80.002	19.995	103.144	20.100	11.037	0.532
615.999	383.173	80.001	19.997	103.149	20.078	12.533	0.510
624.001	387.206	80.000	19.996	103.141	20.029	16.007	0.514
632.001	391.263	80.001	19.995	103.166	19.988	18.930	0.506
640.001	395.332	80.001	19.996	103.095	19.892	25.740	0.482
648.000	399.405	80.001	19.997	103.162	19.807	31.785	0.525
656.001	403.397	80.003	19.996	103.214	19.665	41.822	0.496
663.999	407.396	80.002	19.995	103.189	19.376	62.338	0.491
672.001	411.457	80.002	19.994	103.178	19.024	87.310	0.515
680.000	415.355	80.003	19.995	103.201	18.547	121.193	0.505
688.000	419.347	80.001	19.996	103.194	17.971	162.088	0.489
695.999	423.303	80.000	19.995	103.277	17.215	215.798	0.500
704.000	427.235	80.001	19.997	103.293	16.343	277.683	0.490
712.001	431.166	80.001	19.996	103.279	15.417	343.296	0.475
720.000	435.165	80.002	19.996	103.225	14.646	398.196	0.520
728.001	439.144	80.000	19.995	103.263	14.146	433.790	0.472
736.000	443.190	80.001	19.995	103.298	14.052	440.733	0.522
744.000	447.262	80.000	19.996	103.393	14.388	417.022	0.466
752.000	451.452	80.001	19.996	103.422	15.101	366.238	0.530
759.999	455.694	80.004	19.995	103.431	16.039	299.356	0.524
768.000	459.954	80.003	19.995	103.349	16.963	233.658	0.539
776.001	464.218	80.002	19.997	103.305	17.752	177.596	0.473
784.001	468.466	80.003	19.996	103.241	18.364	134.153	0.551
792.000	472.705	80.003	19.995	103.201	18.819	101.850	0.555
800.000	476.912	80.002	19.995	103.186	19.158	77.772	0.499
808.000	481.048	79.999	19.996	103.161	19.427	58.734	0.499
816.000	485.067	80.001	19.996	103.149	19.651	42.846	0.488
824.001	489.055	80.002	19.996	103.122	19.837	29.659	0.502
832.001	493.074	80.001	19.997	103.112	19.992	18.645	0.493
840.001	497.102	80.002	19.995	103.110	20.116	9.876	0.512
848.001	501.061	80.005	19.997	103.108	20.190	4.585	0.508
856.000	505.073	80.001	19.995	103.100	20.230	1.773	0.489
863.999	509.057	80.001	19.996	103.074	20.240	1.094	0.502
871.999	513.016	80.001	19.996	103.084	20.245	0.720	0.499
879.999	517.105	80.003	19.995	103.109	20.247	0.616	0.527
888.000	521.104	80.000	19.995	103.105	20.245	0.702	0.502
896.001	525.157	80.003	19.995	103.113	20.248	0.504	0.487
903.999	529.286	80.004	19.996	103.110	20.248	0.506	0.507
911.999	533.419	80.002	19.995	103.111	20.249	0.408	0.529
920.001	537.628	80.004	19.995	103.108	20.256	-0.026	0.546
928.001	541.764	80.003	19.996	103.108	20.250	0.383	0.542
936.000	545.982	80.001	19.997	103.112	20.251	0.304	0.496
943.999	550.276	80.001	19.995	103.115	20.253	0.179	0.549
952.001	554.620	80.002	19.996	103.121	20.246	0.639	0.557
960.000	558.926	80.003	19.995	103.115	20.244	0.824	0.540
968.001	563.134	80.002	19.998	103.105	20.251	0.269	0.539
976.000	567.260	80.001	19.995	103.108	20.250	0.347	0.509
984.000	571.392	80.004	19.996	103.107	20.252	0.224	0.503
992.001	575.505	80.001	19.997	103.089	20.251	0.312	0.479
1000.000	579.492	80.003	19.996	103.110	20.250	0.355	0.495
1008.000	583.558	80.003	19.996	103.112	20.252	0.261	0.518
1016.001	587.794	80.002	19.995	103.113	20.249	0.416	0.576
1023.999	592.077	79.998	19.996	103.113	20.252	0.194	0.536
1031.999	596.510	80.000	19.996	103.106	20.248	0.530	0.557
1040.000	600.925	80.001	19.996	103.108	20.253	0.151	0.534
1048.000	605.287	80.001	19.995	103.108	20.251	0.288	0.581
1055.999	609.688	80.003	19.995	103.105	20.252	0.204	0.536
1064.001	613.969	80.004	19.995	103.108	20.255	0.031	0.543
1071.999	618.261	80.000	19.997	103.112	20.256	-0.027	0.506
1079.999	622.597	80.004	19.996	103.112	20.255	-0.008	0.534
1088.000	626.808	80.001	19.995	103.109	20.257	-0.159	0.537
1096.000	630.942	80.004	19.996	103.108	20.260	-0.345	0.526
1103.999	635.142	80.004	19.996	103.107	20.254	0.071	0.554
1112.001	639.194	80.001	19.996	103.107	20.254	0.082	0.522
1120.000	643.274	80.003	19.997	103.101	20.255	0.014	0.521
1128.000	647.300	80.002	19.995	103.108	20.259	-0.284	0.499
1136.000	651.397	79.999	19.994	103.108	20.255	0.010	0.517
1143.999	655.439	80.002	19.997	103.115	20.254	0.086	0.498
1152.001	659.509	80.002	19.996	103.105	20.256	-0.078	0.508
1159.999	663.540	80.005	19.996	103.101	20.255	0.041	0.498
1168.000	667.539	80.005	19.996	103.093	20.259	-0.261	0.490
1175.999	671.551	80.005	19.995	103.107	20.254	0.059	0.499
1183.999	675.626	80.001	19.996	103.108	20.256	-0.063	0.502
1191.999	679.695	80.002	19.997	103.109	20.251	0.281	0.496
1200.000	683.758	80.003	19.996	103.114	20.254	0.073	0.507
1208.000	687.784	80.001	19.997	103.112	20.254	0.094	0.532
1216.000	691.919	80.001	19.997	103.113	20.252	0.237	0.518
1223.999	695.996	80.002	19.995	103.110	20.252	0.231	0.517
1232.000	700.068	80.003	19.995	103.108	20.245	0.706	0.550
1240.001	704.138	80.004	19.996	103.111	20.251	0.306	0.518
1248.000	708.170	80.005	19.996	103.108	20.249	0.406	0.526
1256.000	712.260	80.006	19.995	103.101	20.249	0.451	0.527
1263.999	716.373	80.002	19.996	103.113	20.247	0.559	0.540
1272.000	720.427	80.001	19.995	103.097	20.250	0.369	0.506
1280.000	724.517	80.001	19.996	103.112	20.240	1.110	0.509
1287.999	728.492	80.003	19.996	103.108	20.242	0.940	0.514
1296.001	732.457	80.002	19.995	103.108	20.242	0.906	0.485
1304.000	736.489	80.001	19.997	103.106	20.240	1.081	0.542
1311.999	740.511	80.003	19.997	103.109	20.246	0.651	0.503
1317.999	743.550	80.003	19.996	103.100	20.244	0.804	0.492

File: PlasticC_MCC_30K_min_211021_R2.txt
Sample ID:	C:\MCC\MCC Cal\Test\PlasticC_MCC_30K_min_211021_R2.txt
Sample Weight (mg):	4.94
Heating Rate (C/s):	0.5
Combustor Temp (C):	900
N2 Flow Rate (cc/min):	80
O2 Flow Rate (cc/min):	20
Calibration File:	C:\MCC\MCC Cal\Coeff1 JN10440_30_210304.txt.txt
T Correction Coefficients:	0	1.024463	0
Time Shift (s):	14
*
Time (s)	Temperature (C)	N2 flow rate (cc/min)	O2 flow rate (cc/min)	Flow Rate (cc/min)	Oxygen (%)	HRR (W/g)	Heating rate (C/s)
-0.001	108.500	80.001	19.997	102.990	20.275	-0.031	-0.015
7.999	108.464	80.001	19.994	103.018	20.270	0.265	0.000
16.000	108.677	80.002	19.995	103.098	20.257	1.091	0.072
24.000	109.140	80.001	19.994	103.119	20.255	1.261	0.092
32.000	109.896	80.001	19.994	103.152	20.244	1.949	0.140
39.999	110.988	80.004	19.995	103.183	20.237	2.390	0.137
47.999	112.443	80.001	19.996	103.219	20.231	2.809	0.220
55.999	114.305	80.000	19.996	103.230	20.225	3.210	0.260
63.999	116.515	80.002	19.996	103.260	20.222	3.387	0.280
71.999	119.146	80.000	19.996	103.261	20.219	3.613	0.334
79.999	122.087	79.999	19.997	103.267	20.220	3.537	0.397
87.999	125.257	80.001	19.997	103.265	20.223	3.358	0.387
95.999	128.680	80.003	19.995	103.268	20.225	3.199	0.423
103.999	132.235	80.002	19.996	103.267	20.220	3.542	0.453
111.999	135.940	80.002	19.996	103.265	20.219	3.560	0.452
119.999	139.782	80.004	19.993	103.259	20.220	3.557	0.492
128.000	143.736	80.004	19.995	103.258	20.222	3.412	0.501
136.000	147.757	80.001	19.995	103.252	20.227	3.070	0.535
144.000	151.811	80.001	19.996	103.242	20.222	3.364	0.497
152.000	155.805	79.999	19.995	103.230	20.222	3.370	0.493
160.000	159.835	80.000	19.996	103.233	20.223	3.352	0.496
168.000	163.869	79.999	19.995	103.226	20.224	3.234	0.494
176.000	167.935	80.002	19.997	103.223	20.226	3.110	0.493
184.000	171.938	80.001	19.994	103.221	20.224	3.232	0.508
192.000	175.932	80.002	19.996	103.222	20.226	3.137	0.481
200.000	179.871	80.002	19.995	103.225	20.224	3.252	0.498
208.000	183.819	80.002	19.994	103.214	20.227	3.089	0.461
216.000	187.766	80.000	19.994	103.218	20.221	3.438	0.432
224.000	191.701	80.000	19.994	103.206	20.222	3.397	0.467
232.000	195.564	80.000	19.995	103.207	20.220	3.520	0.489
240.000	199.450	80.001	19.995	103.198	20.223	3.311	0.459
248.000	203.323	80.000	19.996	103.203	20.221	3.490	0.471
256.000	207.222	80.002	19.996	103.193	20.219	3.566	0.468
264.000	211.061	80.001	19.996	103.196	20.218	3.661	0.471
272.000	214.936	80.001	19.996	103.192	20.218	3.654	0.470
280.000	218.841	80.002	19.995	103.205	20.213	3.984	0.463
288.000	222.781	80.002	19.994	103.222	20.213	4.007	0.514
296.000	226.685	80.002	19.995	103.205	20.209	4.233	0.458
304.000	230.771	80.001	19.994	103.189	20.205	4.510	0.522
312.000	234.717	80.002	19.994	103.191	20.202	4.683	0.517
320.000	238.667	80.001	19.996	103.188	20.201	4.790	0.506
328.000	242.670	80.001	19.996	103.188	20.198	4.987	0.496
336.000	246.604	80.001	19.995	103.190	20.194	5.241	0.479
344.000	250.608	80.003	19.995	103.189	20.191	5.387	0.504
352.000	254.560	80.001	19.996	103.191	20.189	5.570	0.501
360.000	258.453	80.002	19.996	103.183	20.189	5.532	0.510
368.000	262.243	80.003	19.996	103.180	20.183	5.924	0.464
376.000	266.113	80.002	19.996	103.183	20.179	6.206	0.458
384.000	269.995	80.002	19.995	103.185	20.175	6.444	0.503
392.000	273.979	80.002	19.995	103.183	20.178	6.275	0.476
400.000	277.880	80.000	19.994	103.188	20.174	6.500	0.484
408.000	281.836	80.000	19.995	103.177	20.172	6.650	0.497
416.000	285.831	80.002	19.996	103.179	20.172	6.661	0.515
424.000	289.846	80.003	19.995	103.173	20.166	7.029	0.514
432.000	293.822	80.002	19.995	103.161	20.167	6.980	0.520
440.000	297.886	80.002	19.995	103.151	20.169	6.863	0.508
448.000	301.855	80.003	19.997	103.149	20.166	7.030	0.504
456.000	305.866	80.002	19.996	103.156	20.169	6.874	0.486
464.000	309.895	80.000	19.994	103.163	20.169	6.828	0.498
472.000	313.975	80.001	19.995	103.157	20.167	6.981	0.502
480.000	317.938	80.001	19.994	103.151	20.167	6.958	0.524
488.000	321.897	80.000	19.995	103.154	20.169	6.870	0.503
496.000	325.846	80.001	19.995	103.160	20.165	7.095	0.462
504.000	329.902	80.003	19.995	103.151	20.167	6.988	0.483
512.000	334.090	80.003	19.995	103.150	20.168	6.907	0.547
520.000	338.210	80.003	19.995	103.147	20.169	6.869	0.551
528.000	342.312	80.003	19.995	103.149	20.166	7.044	0.533
536.000	346.357	80.001	19.995	103.152	20.162	7.316	0.528
544.000	350.379	80.000	19.995	103.140	20.159	7.486	0.503
552.000	354.388	80.001	19.996	103.146	20.159	7.511	0.530
560.000	358.208	80.001	19.995	103.147	20.156	7.690	0.486
568.000	362.127	80.001	19.996	103.138	20.143	8.541	0.472
576.000	365.888	80.002	19.996	103.135	20.134	9.133	0.386
584.000	369.952	80.003	19.995	103.147	20.110	10.691	0.481
592.000	373.814	80.002	19.994	103.149	20.086	12.245	0.500
600.000	377.757	80.002	19.996	103.132	20.056	14.186	0.476
608.000	381.733	80.003	19.994	103.154	20.038	15.348	0.519
616.000	385.736	80.001	19.995	103.142	19.976	19.408	0.518
624.000	389.817	80.001	19.996	103.161	19.917	23.296	0.526
632.000	393.907	80.000	19.996	103.174	19.856	27.253	0.519
640.000	397.939	80.001	19.996	103.130	19.750	34.156	0.491
648.000	401.984	80.001	19.994	103.174	19.568	46.028	0.524
656.000	406.072	80.000	19.994	103.159	19.300	63.506	0.504
664.000	410.217	80.002	19.995	103.183	18.929	87.686	0.526
672.000	414.289	80.002	19.994	103.226	18.447	119.127	0.495
680.000	418.335	80.003	19.994	103.226	17.816	160.307	0.507
688.000	422.445	80.005	19.993	103.246	17.067	209.080	0.523
696.000	426.414	80.002	19.995	103.312	16.102	272.283	0.493
704.000	430.395	80.000	19.996	103.336	15.189	331.596	0.503
712.000	434.361	80.003	19.996	103.186	14.332	387.732	0.524
720.000	438.216	80.001	19.995	103.261	13.776	424.020	0.451
728.000	442.079	79.999	19.996	103.280	13.602	435.944	0.489
736.000	446.011	80.001	19.996	103.453	13.945	413.631	0.472
744.000	450.068	80.003	19.994	103.466	14.623	369.209	0.521
752.000	454.317	80.003	19.996	103.451	15.549	308.380	0.535
760.000	458.624	80.003	19.996	103.390	16.492	246.697	0.552
768.000	462.850	80.004	19.996	103.302	17.353	190.473	0.532
776.000	466.904	80.002	19.995	103.263	18.033	146.095	0.512
784.000	470.926	80.001	19.995	103.225	18.540	112.988	0.495
792.000	474.965	80.002	19.996	103.180	18.933	87.368	0.520
800.000	478.865	80.001	19.995	103.176	19.236	67.621	0.492
808.000	482.719	80.001	19.994	103.161	19.498	50.580	0.465
816.000	486.508	80.001	19.996	103.182	19.709	36.799	0.455
824.000	490.328	80.003	19.996	103.146	19.881	25.620	0.482
832.000	494.175	80.003	19.995	103.128	20.026	16.190	0.500
840.000	498.042	80.002	19.995	103.131	20.131	9.315	0.460
848.000	501.962	80.003	19.995	103.124	20.185	5.796	0.513
856.000	505.934	80.003	19.996	103.111	20.213	3.952	0.521
864.000	509.846	80.000	19.995	103.113	20.221	3.452	0.466
872.000	513.837	80.001	19.995	103.114	20.217	3.737	0.508
880.000	517.912	80.002	19.996	103.097	20.218	3.629	0.519
888.000	521.939	80.002	19.997	103.110	20.221	3.481	0.496
896.000	526.077	80.001	19.995	103.112	20.221	3.467	0.499
904.000	530.215	80.002	19.995	103.111	20.224	3.270	0.526
912.000	534.441	80.002	19.996	103.116	20.223	3.328	0.562
920.000	538.621	80.002	19.996	103.111	20.226	3.160	0.533
928.000	542.817	80.004	19.994	103.115	20.223	3.341	0.520
936.000	546.970	80.004	19.995	103.114	20.224	3.290	0.540
944.000	551.186	80.001	19.996	103.123	20.223	3.299	0.539
952.000	555.321	80.002	19.996	103.120	20.224	3.270	0.512
960.000	559.428	80.002	19.993	103.121	20.222	3.424	0.501
968.000	563.611	80.001	19.995	103.128	20.221	3.436	0.551
976.000	567.709	80.000	19.996	103.118	20.222	3.363	0.494
984.000	571.844	80.002	19.996	103.116	20.222	3.386	0.504
992.000	575.939	80.004	19.995	103.124	20.223	3.335	0.513
1000.000	580.038	80.002	19.996	103.113	20.221	3.468	0.498
1008.000	584.173	80.004	19.996	103.119	20.223	3.305	0.523
1016.000	588.351	80.004	19.995	103.127	20.224	3.281	0.506
1024.000	592.554	80.002	19.994	103.110	20.223	3.310	0.521
1031.999	596.651	80.003	19.995	103.110	20.225	3.200	0.507
1039.999	600.555	80.001	19.994	103.122	20.224	3.281	0.500
1047.999	604.461	80.001	19.996	103.115	20.224	3.245	0.534
1055.999	608.358	80.000	19.993	103.112	20.230	2.849	0.498
1063.999	612.313	80.002	19.996	103.119	20.222	3.404	0.463
1071.999	616.360	80.003	19.995	103.119	20.226	3.157	0.466
1079.999	620.393	80.002	19.996	103.125	20.225	3.175	0.530
1087.999	624.541	80.004	19.994	103.118	20.218	3.644	0.533
1095.999	628.687	80.004	19.996	103.121	20.225	3.204	0.501
1104.000	632.756	80.000	19.995	103.125	20.224	3.236	0.508
1111.999	636.858	80.001	19.993	103.118	20.220	3.516	0.510
1119.999	640.906	80.002	19.994	103.118	20.217	3.704	0.535
1128.000	644.996	80.002	19.995	103.134	20.218	3.644	0.507
1135.999	649.150	80.001	19.996	103.116	20.214	3.909	0.525
1143.999	653.271	80.003	19.995	103.128	20.217	3.701	0.511
1152.000	657.374	80.003	19.996	103.124	20.218	3.666	0.508
1159.999	661.361	80.001	19.995	103.124	20.216	3.807	0.475
1168.000	665.345	80.003	19.996	103.131	20.213	3.977	0.480
1175.999	669.216	80.003	19.994	103.125	20.213	3.951	0.505
1183.999	673.186	79.999	19.996	103.126	20.211	4.120	0.516
1192.000	677.177	80.000	19.996	103.126	20.210	4.161	0.480
1199.999	681.157	80.002	19.995	103.106	20.211	4.084	0.522
1208.001	685.178	80.001	19.995	103.119	20.211	4.098	0.523
1215.999	689.212	80.001	19.996	103.130	20.210	4.148	0.512
1223.999	693.474	80.002	19.995	103.136	20.209	4.214	0.560
1231.999	697.958	80.004	19.994	103.137	20.205	4.476	0.562
1240.000	702.587	80.002	19.994	103.133	20.210	4.149	0.612
1247.999	707.202	80.002	19.995	103.141	20.212	4.043	0.587
1255.999	711.799	80.004	19.996	103.133	20.203	4.618	0.601
1264.000	716.312	80.005	19.997	103.136	20.200	4.800	0.575
1271.999	720.775	80.002	19.996	103.128	20.202	4.699	0.538
1279.999	725.182	80.002	19.996	103.129	20.206	4.464	0.553
1287.999	729.497	80.002	19.997	103.134	20.202	4.674	0.537
1296.000	733.805	80.003	19.997	103.121	20.205	4.513	0.554
1304.000	737.947	80.002	19.995	103.122	20.201	4.767	0.502
1311.999	742.116	80.003	19.995	103.133	20.202	4.692	0.507
1318.501	745.443	80.002	19.995	103.125	20.199	4.859	0.493