Folder: fsri_materials_database/01_Data/MDF/FTIR/ATR

Note: 01_Data/README.md
# Materials and Products Database
## 01_Data

Raw data generated from each apparatus are included here in plain-text format. The data is organized first by material, next by the short name of test apparatus used, and where applicable additional filtering by test settings.

### material.json

Each material directory contains a json file of the same name as the material. This file links the data stored in the repository as well as data and graphs produced by the accompanying scripts (__02_Scripts__) to the respective landing page for the material on the front-end website.

File: MDF_ATR_210608_R1.tst
4497.79,-0.00469
4484.29,-0.00463
4470.79,-0.00443
4457.29,-0.00442
4443.79,-0.00430
4430.28,-0.00456
4416.78,-0.00436
4403.28,-0.00433
4389.78,-0.00402
4376.28,-0.00391
4362.78,-0.00409
4349.28,-0.00409
4335.78,-0.00413
4322.28,-0.00373
4308.77,-0.00381
4295.27,-0.00391
4281.77,-0.00398
4268.27,-0.00380
4254.77,-0.00383
4241.27,-0.00371
4227.77,-0.00373
4214.27,-0.00361
4200.77,-0.00351
4187.26,-0.00357
4173.76,-0.00351
4160.26,-0.00352
4146.76,-0.00337
4133.26,-0.00332
4119.76,-0.00337
4106.26,-0.00306
4092.76,-0.00341
4079.26,-0.00294
4065.75,-0.00316
4052.25,-0.00297
4038.75,-0.00294
4025.25,-0.00279
4011.75,-0.00267
3998.25,-0.00266
3984.75,-0.00243
3971.25,-0.00191
3957.75,-0.00165
3944.25,-0.00054
3930.74,0.00046
3917.24,0.00011
3903.74,0.00367
3890.24,0.00054
3876.74,-0.00033
3863.24,0.00318
3849.74,0.00124
3836.24,0.00280
3822.74,0.00296
3809.23,-0.00058
3795.73,-0.00019
3782.23,-0.00043
3768.73,0.00102
3755.23,0.00268
3741.73,0.00393
3728.23,0.00194
3714.73,0.00130
3701.23,-0.00004
3687.72,0.00153
3674.22,0.00404
3660.72,-0.00090
3647.22,0.00371
3633.72,0.00091
3620.22,0.00360
3606.72,0.00154
3593.22,0.00130
3579.72,0.00061
3566.21,0.00554
3552.71,0.00151
3539.21,0.00037
3525.71,0.00354
3512.21,0.00100
3498.71,0.00116
3485.21,0.00123
3471.71,0.00062
3458.21,0.00124
3444.7,0.00226
3431.2,0.00157
3417.7,0.00191
3404.2,0.00198
3390.7,0.00230
3377.2,0.00219
3363.7,0.00289
3350.2,0.00255
3336.7,0.00325
3323.2,0.00275
3309.69,0.00313
3296.19,0.00296
3282.69,0.00298
3269.19,0.00289
3255.69,0.00288
3242.19,0.00274
3228.69,0.00259
3215.19,0.00238
3201.69,0.00242
3188.18,0.00208
3174.68,0.00209
3161.18,0.00174
3147.68,0.00170
3134.18,0.00178
3120.68,0.00181
3107.18,0.00157
3093.68,0.00147
3080.18,0.00165
3066.67,0.00161
3053.17,0.00151
3039.67,0.00123
3026.17,0.00125
3012.67,0.00144
2999.17,0.00121
2985.67,0.00133
2972.17,0.00252
2958.67,0.00366
2945.16,0.00260
2931.66,0.00300
2918.16,0.00340
2904.66,0.00333
2891.16,0.00307
2877.66,0.00293
2864.16,0.00291
2850.66,0.00316
2837.16,0.00259
2823.66,0.00221
2810.15,0.00212
2796.65,0.00205
2783.15,0.00203
2769.65,0.00194
2756.15,0.00200
2742.65,0.00201
2729.15,0.00202
2715.65,0.00200
2702.15,0.00201
2688.64,0.00212
2675.14,0.00204
2661.64,0.00204
2648.14,0.00179
2634.64,0.00180
2621.14,0.00170
2607.64,0.00152
2594.14,0.00169
2580.64,0.00187
2567.13,0.00179
2553.63,0.00178
2540.13,0.00175
2526.63,0.00169
2513.13,0.00175
2499.63,0.00175
2486.13,0.00184
2472.63,0.00202
2459.13,0.00178
2445.62,0.00166
2432.12,0.00202
2418.62,0.00200
2405.12,0.00189
2391.62,0.00198
2378.12,0.00232
2364.62,-0.00324
2351.12,0.00032
2337.62,-0.00259
2324.12,0.00030
2310.61,0.00272
2297.11,0.00236
2283.61,0.00200
2270.11,0.00162
2256.61,0.00191
2243.11,0.00205
2229.61,0.00188
2216.11,0.00194
2202.61,0.00151
2189.1,0.00113
2175.6,0.00104
2162.1,0.00072
2148.6,0.00195
2135.1,0.00221
2121.6,0.00135
2108.1,0.00154
2094.6,0.00191
2081.1,0.00197
2067.59,0.00243
2054.09,0.00221
2040.59,0.00279
2027.09,0.00256
2013.59,0.00299
2000.09,0.00234
1986.59,0.00282
1973.09,0.00273
1959.59,0.00279
1946.08,0.00384
1932.58,0.00321
1919.08,0.00422
1905.58,0.00340
1892.08,0.00377
1878.58,0.00308
1865.08,0.00426
1851.58,0.00330
1838.08,0.00408
1824.57,0.00496
1811.07,0.00511
1797.57,0.00625
1784.07,0.00506
1770.57,0.00769
1757.07,0.00689
1743.57,0.01055
1730.07,0.00986
1716.57,0.01415
1703.07,0.01147
1689.56,0.00917
1676.06,0.00888
1662.56,0.00835
1649.06,0.01205
1635.56,0.01055
1622.06,0.00944
1608.56,0.00817
1595.06,0.00800
1581.56,0.00679
1568.05,0.00813
1554.55,0.01164
1541.05,0.01790
1527.55,0.01263
1514.05,0.01445
1500.55,0.01285
1487.05,0.01173
1473.55,0.01478
1460.05,0.01410
1446.54,0.01288
1433.04,0.01431
1419.54,0.01636
1406.04,0.01258
1392.54,0.01211
1379.04,0.01234
1365.54,0.01252
1352.04,0.01071
1338.54,0.01436
1325.03,0.01147
1311.53,0.01244
1298.03,0.01024
1284.53,0.01052
1271.03,0.01372
1257.53,0.01951
1244.03,0.01455
1230.53,0.01429
1217.03,0.01281
1203.53,0.01159
1190.02,0.01055
1176.52,0.01180
1163.02,0.01636
1149.52,0.01698
1136.02,0.01763
1122.52,0.02292
1109.02,0.02855
1095.52,0.03127
1082.02,0.03174
1068.51,0.03465
1055.01,0.04068
1041.51,0.04258
1028.01,0.04682
1014.51,0.04474
1001.01,0.03623
987.508,0.03194
974.007,0.02625
960.506,0.02242
947.005,0.01863
933.503,0.01699
920.002,0.01600
906.501,0.01599
893,0.01759
879.499,0.01777
865.998,0.01684
852.497,0.01578
838.996,0.01644
825.495,0.01905
811.994,0.02283
798.493,0.02749
784.992,0.02022
771.49,0.01952
757.989,0.01782
744.488,0.01822
730.987,0.01922
717.486,0.02130
703.985,0.02293
690.484,0.02361
676.983,0.02466
663.482,0.02826
649.981,0.02793
636.48,0.02988
622.979,0.02979
609.477,0.03176
599.834,0.03766

File: MDF_ATR_210608_R2.tst
4497.79,-0.00646
4484.29,-0.00610
4470.79,-0.00617
4457.29,-0.00592
4443.79,-0.00600
4430.28,-0.00603
4416.78,-0.00589
4403.28,-0.00573
4389.78,-0.00551
4376.28,-0.00569
4362.78,-0.00559
4349.28,-0.00548
4335.78,-0.00533
4322.28,-0.00535
4308.77,-0.00510
4295.27,-0.00526
4281.77,-0.00536
4268.27,-0.00518
4254.77,-0.00514
4241.27,-0.00520
4227.77,-0.00508
4214.27,-0.00525
4200.77,-0.00497
4187.26,-0.00518
4173.76,-0.00496
4160.26,-0.00483
4146.76,-0.00494
4133.26,-0.00457
4119.76,-0.00472
4106.26,-0.00459
4092.76,-0.00488
4079.26,-0.00447
4065.75,-0.00464
4052.25,-0.00463
4038.75,-0.00448
4025.25,-0.00399
4011.75,-0.00415
3998.25,-0.00419
3984.75,-0.00400
3971.25,-0.00340
3957.75,-0.00322
3944.25,-0.00212
3930.74,-0.00139
3917.24,-0.00145
3903.74,0.00201
3890.24,-0.00118
3876.74,-0.00215
3863.24,0.00111
3849.74,-0.00050
3836.24,0.00104
3822.74,0.00050
3809.23,-0.00220
3795.73,-0.00190
3782.23,-0.00210
3768.73,-0.00076
3755.23,0.00085
3741.73,0.00203
3728.23,0.00034
3714.73,-0.00024
3701.23,-0.00177
3687.72,0.00017
3674.22,0.00161
3660.72,-0.00237
3647.22,0.00219
3633.72,-0.00074
3620.22,0.00130
3606.72,-0.00021
3593.22,-0.00070
3579.72,-0.00132
3566.21,0.00312
3552.71,-0.00057
3539.21,-0.00191
3525.71,0.00117
3512.21,-0.00129
3498.71,-0.00118
3485.21,-0.00122
3471.71,-0.00196
3458.21,-0.00140
3444.7,-0.00063
3431.2,-0.00134
3417.7,-0.00110
3404.2,-0.00105
3390.7,-0.00071
3377.2,-0.00082
3363.7,-0.00028
3350.2,-0.00069
3336.7,0.00010
3323.2,-0.00038
3309.69,-0.00005
3296.19,-0.00021
3282.69,-0.00005
3269.19,-0.00021
3255.69,0.00002
3242.19,-0.00017
3228.69,-0.00017
3215.19,-0.00029
3201.69,-0.00036
3188.18,-0.00056
3174.68,-0.00056
3161.18,-0.00078
3147.68,-0.00066
3134.18,-0.00060
3120.68,-0.00039
3107.18,-0.00072
3093.68,-0.00073
3080.18,-0.00046
3066.67,-0.00052
3053.17,-0.00076
3039.67,-0.00084
3026.17,-0.00080
3012.67,-0.00060
2999.17,-0.00085
2985.67,-0.00072
2972.17,0.00005
2958.67,0.00075
2945.16,0.00019
2931.66,0.00064
2918.16,0.00108
2904.66,0.00080
2891.16,0.00064
2877.66,0.00050
2864.16,0.00056
2850.66,0.00096
2837.16,0.00037
2823.66,-0.00001
2810.15,0.00001
2796.65,-0.00009
2783.15,0.00001
2769.65,-0.00002
2756.15,-0.00004
2742.65,0.00008
2729.15,0.00001
2715.65,0.00001
2702.15,0.00007
2688.64,0.00007
2675.14,0.00006
2661.64,0.00011
2648.14,-0.00002
2634.64,-0.00020
2621.14,-0.00023
2607.64,-0.00023
2594.14,-0.00007
2580.64,-0.00015
2567.13,-0.00018
2553.63,-0.00020
2540.13,-0.00011
2526.63,-0.00004
2513.13,-0.00013
2499.63,-0.00019
2486.13,-0.00013
2472.63,-0.00001
2459.13,-0.00014
2445.62,-0.00023
2432.12,0.00010
2418.62,0.00009
2405.12,0.00012
2391.62,0.00014
2378.12,0.00039
2364.62,-0.00674
2351.12,-0.00212
2337.62,-0.00547
2324.12,-0.00179
2310.61,0.00080
2297.11,0.00030
2283.61,0.00001
2270.11,-0.00042
2256.61,-0.00042
2243.11,-0.00021
2229.61,-0.00059
2216.11,-0.00090
2202.61,-0.00080
2189.1,-0.00124
2175.6,-0.00152
2162.1,-0.00244
2148.6,-0.00049
2135.1,-0.00034
2121.6,-0.00059
2108.1,-0.00082
2094.6,-0.00016
2081.1,-0.00002
2067.59,0.00046
2054.09,-0.00016
2040.59,0.00021
2027.09,0.00018
2013.59,0.00008
2000.09,0.00025
1986.59,0.00070
1973.09,-0.00004
1959.59,0.00064
1946.08,0.00187
1932.58,0.00111
1919.08,0.00213
1905.58,0.00140
1892.08,0.00205
1878.58,0.00121
1865.08,0.00260
1851.58,0.00159
1838.08,0.00235
1824.57,0.00326
1811.07,0.00339
1797.57,0.00451
1784.07,0.00332
1770.57,0.00571
1757.07,0.00477
1743.57,0.00762
1730.07,0.00684
1716.57,0.01102
1703.07,0.00887
1689.56,0.00683
1676.06,0.00660
1662.56,0.00614
1649.06,0.00981
1635.56,0.00815
1622.06,0.00694
1608.56,0.00565
1595.06,0.00528
1581.56,0.00429
1568.05,0.00587
1554.55,0.00944
1541.05,0.01527
1527.55,0.01042
1514.05,0.01149
1500.55,0.00947
1487.05,0.00811
1473.55,0.01059
1460.05,0.00910
1446.54,0.00769
1433.04,0.00880
1419.54,0.01066
1406.04,0.00745
1392.54,0.00749
1379.04,0.00763
1365.54,0.00793
1352.04,0.00646
1338.54,0.01017
1325.03,0.00709
1311.53,0.00807
1298.03,0.00639
1284.53,0.00655
1271.03,0.00866
1257.53,0.01171
1244.03,0.00905
1230.53,0.00898
1217.03,0.00806
1203.53,0.00715
1190.02,0.00634
1176.52,0.00696
1163.02,0.00971
1149.52,0.00994
1136.02,0.01019
1122.52,0.01358
1109.02,0.01690
1095.52,0.01832
1082.02,0.01855
1068.51,0.02049
1055.01,0.02425
1041.51,0.02515
1028.01,0.02797
1014.51,0.02646
1001.01,0.02168
987.508,0.01907
974.007,0.01569
960.506,0.01346
947.005,0.01108
933.503,0.01021
920.002,0.00976
906.501,0.00973
893,0.01050
879.499,0.01022
865.998,0.00956
852.497,0.00976
838.996,0.01013
825.495,0.01143
811.994,0.01378
798.493,0.01622
784.992,0.01171
771.49,0.01069
757.989,0.01075
744.488,0.01130
730.987,0.01170
717.486,0.01325
703.985,0.01471
690.484,0.01491
676.983,0.01530
663.482,0.01799
649.981,0.01730
636.48,0.01910
622.979,0.01713
609.477,0.01422
599.834,0.02035

File: MDF_ATR_210608_R3.tst
4497.79,-0.00456
4484.29,-0.00444
4470.79,-0.00458
4457.29,-0.00438
4443.79,-0.00443
4430.28,-0.00435
4416.78,-0.00404
4403.28,-0.00387
4389.78,-0.00398
4376.28,-0.00410
4362.78,-0.00403
4349.28,-0.00379
4335.78,-0.00385
4322.28,-0.00367
4308.77,-0.00381
4295.27,-0.00377
4281.77,-0.00367
4268.27,-0.00361
4254.77,-0.00361
4241.27,-0.00343
4227.77,-0.00347
4214.27,-0.00351
4200.77,-0.00344
4187.26,-0.00337
4173.76,-0.00317
4160.26,-0.00337
4146.76,-0.00315
4133.26,-0.00321
4119.76,-0.00316
4106.26,-0.00291
4092.76,-0.00333
4079.26,-0.00298
4065.75,-0.00303
4052.25,-0.00292
4038.75,-0.00287
4025.25,-0.00255
4011.75,-0.00242
3998.25,-0.00268
3984.75,-0.00235
3971.25,-0.00166
3957.75,-0.00150
3944.25,-0.00053
3930.74,0.00021
3917.24,0.00024
3903.74,0.00378
3890.24,0.00033
3876.74,-0.00053
3863.24,0.00252
3849.74,0.00096
3836.24,0.00247
3822.74,0.00227
3809.23,-0.00069
3795.73,-0.00031
3782.23,-0.00053
3768.73,0.00100
3755.23,0.00287
3741.73,0.00375
3728.23,0.00165
3714.73,0.00126
3701.23,-0.00033
3687.72,0.00161
3674.22,0.00338
3660.72,-0.00071
3647.22,0.00396
3633.72,0.00104
3620.22,0.00347
3606.72,0.00171
3593.22,0.00181
3579.72,0.00105
3566.21,0.00620
3552.71,0.00249
3539.21,0.00145
3525.71,0.00472
3512.21,0.00228
3498.71,0.00266
3485.21,0.00309
3471.71,0.00251
3458.21,0.00305
3444.7,0.00432
3431.2,0.00380
3417.7,0.00426
3404.2,0.00440
3390.7,0.00489
3377.2,0.00489
3363.7,0.00545
3350.2,0.00524
3336.7,0.00601
3323.2,0.00564
3309.69,0.00584
3296.19,0.00550
3282.69,0.00571
3269.19,0.00540
3255.69,0.00524
3242.19,0.00500
3228.69,0.00469
3215.19,0.00441
3201.69,0.00428
3188.18,0.00384
3174.68,0.00376
3161.18,0.00321
3147.68,0.00318
3134.18,0.00318
3120.68,0.00317
3107.18,0.00277
3093.68,0.00251
3080.18,0.00268
3066.67,0.00252
3053.17,0.00223
3039.67,0.00196
3026.17,0.00211
3012.67,0.00219
2999.17,0.00194
2985.67,0.00209
2972.17,0.00276
2958.67,0.00348
2945.16,0.00372
2931.66,0.00491
2918.16,0.00569
2904.66,0.00477
2891.16,0.00444
2877.66,0.00427
2864.16,0.00433
2850.66,0.00496
2837.16,0.00370
2823.66,0.00311
2810.15,0.00284
2796.65,0.00271
2783.15,0.00268
2769.65,0.00258
2756.15,0.00255
2742.65,0.00257
2729.15,0.00252
2715.65,0.00259
2702.15,0.00253
2688.64,0.00255
2675.14,0.00254
2661.64,0.00252
2648.14,0.00233
2634.64,0.00215
2621.14,0.00208
2607.64,0.00192
2594.14,0.00211
2580.64,0.00209
2567.13,0.00202
2553.63,0.00198
2540.13,0.00215
2526.63,0.00197
2513.13,0.00206
2499.63,0.00204
2486.13,0.00200
2472.63,0.00213
2459.13,0.00205
2445.62,0.00185
2432.12,0.00216
2418.62,0.00219
2405.12,0.00223
2391.62,0.00211
2378.12,0.00239
2364.62,-0.00390
2351.12,0.00006
2337.62,-0.00285
2324.12,0.00032
2310.61,0.00289
2297.11,0.00246
2283.61,0.00203
2270.11,0.00170
2256.61,0.00192
2243.11,0.00188
2229.61,0.00177
2216.11,0.00144
2202.61,0.00154
2189.1,0.00088
2175.6,0.00047
2162.1,-0.00002
2148.6,0.00191
2135.1,0.00211
2121.6,0.00158
2108.1,0.00134
2094.6,0.00194
2081.1,0.00179
2067.59,0.00245
2054.09,0.00204
2040.59,0.00258
2027.09,0.00234
2013.59,0.00239
2000.09,0.00233
1986.59,0.00231
1973.09,0.00236
1959.59,0.00260
1946.08,0.00390
1932.58,0.00296
1919.08,0.00421
1905.58,0.00313
1892.08,0.00360
1878.58,0.00303
1865.08,0.00431
1851.58,0.00341
1838.08,0.00406
1824.57,0.00492
1811.07,0.00512
1797.57,0.00612
1784.07,0.00514
1770.57,0.00775
1757.07,0.00741
1743.57,0.01174
1730.07,0.01114
1716.57,0.01528
1703.07,0.01217
1689.56,0.00984
1676.06,0.00983
1662.56,0.00958
1649.06,0.01334
1635.56,0.01187
1622.06,0.01090
1608.56,0.00978
1595.06,0.00996
1581.56,0.00819
1568.05,0.00880
1554.55,0.01203
1541.05,0.01790
1527.55,0.01297
1514.05,0.01522
1500.55,0.01355
1487.05,0.01144
1473.55,0.01463
1460.05,0.01464
1446.54,0.01272
1433.04,0.01413
1419.54,0.01657
1406.04,0.01240
1392.54,0.01231
1379.04,0.01361
1365.54,0.01423
1352.04,0.01209
1338.54,0.01608
1325.03,0.01347
1311.53,0.01420
1298.03,0.01154
1284.53,0.01188
1271.03,0.01464
1257.53,0.01722
1244.03,0.01704
1230.53,0.01741
1217.03,0.01562
1203.53,0.01342
1190.02,0.01169
1176.52,0.01291
1163.02,0.01896
1149.52,0.01975
1136.02,0.01978
1122.52,0.02577
1109.02,0.02968
1095.52,0.03020
1082.02,0.03132
1068.51,0.03576
1055.01,0.04396
1041.51,0.04584
1028.01,0.04971
1014.51,0.04679
1001.01,0.04098
987.508,0.03822
974.007,0.03097
960.506,0.02593
947.005,0.02102
933.503,0.01906
920.002,0.01795
906.501,0.01798
893,0.01917
879.499,0.01784
865.998,0.01673
852.497,0.01656
838.996,0.01712
825.495,0.01800
811.994,0.01900
798.493,0.02055
784.992,0.01812
771.49,0.01977
757.989,0.01923
744.488,0.02028
730.987,0.02101
717.486,0.02372
703.985,0.02545
690.484,0.02603
676.983,0.02753
663.482,0.03135
649.981,0.03136
636.48,0.03375
622.979,0.03299
609.477,0.03454
599.834,0.04007

File: MDF_ATR_210608_R4.tst
4497.79,-0.00362
4484.29,-0.00370
4470.79,-0.00350
4457.29,-0.00350
4443.79,-0.00320
4430.28,-0.00336
4416.78,-0.00301
4403.28,-0.00299
4389.78,-0.00288
4376.28,-0.00293
4362.78,-0.00282
4349.28,-0.00299
4335.78,-0.00267
4322.28,-0.00255
4308.77,-0.00280
4295.27,-0.00277
4281.77,-0.00253
4268.27,-0.00242
4254.77,-0.00246
4241.27,-0.00244
4227.77,-0.00252
4214.27,-0.00233
4200.77,-0.00227
4187.26,-0.00239
4173.76,-0.00214
4160.26,-0.00230
4146.76,-0.00212
4133.26,-0.00203
4119.76,-0.00211
4106.26,-0.00169
4092.76,-0.00189
4079.26,-0.00194
4065.75,-0.00200
4052.25,-0.00169
4038.75,-0.00180
4025.25,-0.00140
4011.75,-0.00127
3998.25,-0.00130
3984.75,-0.00120
3971.25,-0.00053
3957.75,-0.00034
3944.25,0.00059
3930.74,0.00172
3917.24,0.00130
3903.74,0.00487
3890.24,0.00146
3876.74,0.00074
3863.24,0.00401
3849.74,0.00212
3836.24,0.00426
3822.74,0.00370
3809.23,0.00057
3795.73,0.00076
3782.23,0.00075
3768.73,0.00229
3755.23,0.00388
3741.73,0.00517
3728.23,0.00275
3714.73,0.00227
3701.23,0.00093
3687.72,0.00304
3674.22,0.00435
3660.72,0.00044
3647.22,0.00543
3633.72,0.00224
3620.22,0.00478
3606.72,0.00311
3593.22,0.00320
3579.72,0.00256
3566.21,0.00760
3552.71,0.00403
3539.21,0.00282
3525.71,0.00624
3512.21,0.00391
3498.71,0.00417
3485.21,0.00453
3471.71,0.00422
3458.21,0.00493
3444.7,0.00611
3431.2,0.00567
3417.7,0.00630
3404.2,0.00656
3390.7,0.00698
3377.2,0.00698
3363.7,0.00780
3350.2,0.00755
3336.7,0.00842
3323.2,0.00804
3309.69,0.00828
3296.19,0.00809
3282.69,0.00835
3269.19,0.00803
3255.69,0.00790
3242.19,0.00762
3228.69,0.00733
3215.19,0.00696
3201.69,0.00691
3188.18,0.00655
3174.68,0.00622
3161.18,0.00570
3147.68,0.00566
3134.18,0.00553
3120.68,0.00555
3107.18,0.00500
3093.68,0.00491
3080.18,0.00491
3066.67,0.00482
3053.17,0.00451
3039.67,0.00427
3026.17,0.00418
3012.67,0.00424
2999.17,0.00398
2985.67,0.00409
2972.17,0.00487
2958.67,0.00595
2945.16,0.00627
2931.66,0.00795
2918.16,0.00880
2904.66,0.00759
2891.16,0.00696
2877.66,0.00672
2864.16,0.00692
2850.66,0.00765
2837.16,0.00587
2823.66,0.00517
2810.15,0.00492
2796.65,0.00477
2783.15,0.00463
2769.65,0.00457
2756.15,0.00451
2742.65,0.00451
2729.15,0.00449
2715.65,0.00445
2702.15,0.00446
2688.64,0.00443
2675.14,0.00438
2661.64,0.00436
2648.14,0.00415
2634.64,0.00383
2621.14,0.00370
2607.64,0.00358
2594.14,0.00373
2580.64,0.00368
2567.13,0.00372
2553.63,0.00345
2540.13,0.00361
2526.63,0.00366
2513.13,0.00349
2499.63,0.00362
2486.13,0.00355
2472.63,0.00360
2459.13,0.00356
2445.62,0.00336
2432.12,0.00365
2418.62,0.00364
2405.12,0.00374
2391.62,0.00378
2378.12,0.00394
2364.62,-0.00263
2351.12,0.00168
2337.62,-0.00110
2324.12,0.00177
2310.61,0.00444
2297.11,0.00388
2283.61,0.00346
2270.11,0.00320
2256.61,0.00329
2243.11,0.00358
2229.61,0.00335
2216.11,0.00313
2202.61,0.00276
2189.1,0.00236
2175.6,0.00257
2162.1,0.00196
2148.6,0.00305
2135.1,0.00356
2121.6,0.00295
2108.1,0.00287
2094.6,0.00348
2081.1,0.00340
2067.59,0.00387
2054.09,0.00352
2040.59,0.00394
2027.09,0.00389
2013.59,0.00396
2000.09,0.00376
1986.59,0.00416
1973.09,0.00391
1959.59,0.00398
1946.08,0.00525
1932.58,0.00444
1919.08,0.00563
1905.58,0.00467
1892.08,0.00527
1878.58,0.00440
1865.08,0.00572
1851.58,0.00473
1838.08,0.00550
1824.57,0.00637
1811.07,0.00659
1797.57,0.00783
1784.07,0.00669
1770.57,0.00930
1757.07,0.00921
1743.57,0.01419
1730.07,0.01394
1716.57,0.01786
1703.07,0.01469
1689.56,0.01281
1676.06,0.01344
1662.56,0.01407
1649.06,0.01832
1635.56,0.01682
1622.06,0.01589
1608.56,0.01492
1595.06,0.01528
1581.56,0.01357
1568.05,0.01370
1554.55,0.01676
1541.05,0.02341
1527.55,0.01773
1514.05,0.02061
1500.55,0.01873
1487.05,0.01672
1473.55,0.02049
1460.05,0.02139
1446.54,0.01997
1433.04,0.02153
1419.54,0.02423
1406.04,0.01987
1392.54,0.01894
1379.04,0.01970
1365.54,0.01998
1352.04,0.01739
1338.54,0.02111
1325.03,0.01850
1311.53,0.01957
1298.03,0.01683
1284.53,0.01704
1271.03,0.01994
1257.53,0.02301
1244.03,0.02303
1230.53,0.02302
1217.03,0.02097
1203.53,0.01925
1190.02,0.01815
1176.52,0.01996
1163.02,0.02672
1149.52,0.02811
1136.02,0.02826
1122.52,0.03506
1109.02,0.03958
1095.52,0.04146
1082.02,0.04322
1068.51,0.04792
1055.01,0.05586
1041.51,0.05807
1028.01,0.06251
1014.51,0.05970
1001.01,0.05325
987.508,0.04974
974.007,0.04166
960.506,0.03586
947.005,0.02978
933.503,0.02712
920.002,0.02566
906.501,0.02583
893,0.02659
879.499,0.02679
865.998,0.02507
852.497,0.02411
838.996,0.02454
825.495,0.02566
811.994,0.02693
798.493,0.02920
784.992,0.02656
771.49,0.02818
757.989,0.02763
744.488,0.02924
730.987,0.02964
717.486,0.03310
703.985,0.03513
690.484,0.03599
676.983,0.03799
663.482,0.04341
649.981,0.04322
636.48,0.04593
622.979,0.04669
609.477,0.05059
599.834,0.05662

File: MDF_ATR_210608_R5.tst
4497.79,-0.00346
4484.29,-0.00332
4470.79,-0.00321
4457.29,-0.00327
4443.79,-0.00320
4430.28,-0.00311
4416.78,-0.00300
4403.28,-0.00292
4389.78,-0.00280
4376.28,-0.00287
4362.78,-0.00276
4349.28,-0.00279
4335.78,-0.00270
4322.28,-0.00245
4308.77,-0.00284
4295.27,-0.00250
4281.77,-0.00252
4268.27,-0.00256
4254.77,-0.00227
4241.27,-0.00241
4227.77,-0.00256
4214.27,-0.00241
4200.77,-0.00217
4187.26,-0.00226
4173.76,-0.00206
4160.26,-0.00215
4146.76,-0.00218
4133.26,-0.00201
4119.76,-0.00186
4106.26,-0.00172
4092.76,-0.00192
4079.26,-0.00172
4065.75,-0.00204
4052.25,-0.00184
4038.75,-0.00165
4025.25,-0.00139
4011.75,-0.00117
3998.25,-0.00140
3984.75,-0.00122
3971.25,-0.00044
3957.75,-0.00021
3944.25,0.00061
3930.74,0.00170
3917.24,0.00153
3903.74,0.00541
3890.24,0.00170
3876.74,0.00075
3863.24,0.00364
3849.74,0.00246
3836.24,0.00437
3822.74,0.00397
3809.23,0.00076
3795.73,0.00091
3782.23,0.00076
3768.73,0.00229
3755.23,0.00406
3741.73,0.00535
3728.23,0.00301
3714.73,0.00273
3701.23,0.00112
3687.72,0.00315
3674.22,0.00460
3660.72,0.00062
3647.22,0.00565
3633.72,0.00232
3620.22,0.00492
3606.72,0.00343
3593.22,0.00344
3579.72,0.00285
3566.21,0.00829
3552.71,0.00414
3539.21,0.00309
3525.71,0.00679
3512.21,0.00430
3498.71,0.00475
3485.21,0.00509
3471.71,0.00484
3458.21,0.00567
3444.7,0.00685
3431.2,0.00642
3417.7,0.00693
3404.2,0.00724
3390.7,0.00773
3377.2,0.00789
3363.7,0.00852
3350.2,0.00829
3336.7,0.00932
3323.2,0.00874
3309.69,0.00919
3296.19,0.00886
3282.69,0.00905
3269.19,0.00869
3255.69,0.00864
3242.19,0.00821
3228.69,0.00795
3215.19,0.00754
3201.69,0.00755
3188.18,0.00701
3174.68,0.00667
3161.18,0.00609
3147.68,0.00609
3134.18,0.00597
3120.68,0.00578
3107.18,0.00534
3093.68,0.00514
3080.18,0.00522
3066.67,0.00500
3053.17,0.00473
3039.67,0.00433
3026.17,0.00430
3012.67,0.00452
2999.17,0.00415
2985.67,0.00432
2972.17,0.00508
2958.67,0.00598
2945.16,0.00653
2931.66,0.00827
2918.16,0.00930
2904.66,0.00792
2891.16,0.00728
2877.66,0.00693
2864.16,0.00717
2850.66,0.00805
2837.16,0.00621
2823.66,0.00538
2810.15,0.00506
2796.65,0.00487
2783.15,0.00475
2769.65,0.00471
2756.15,0.00461
2742.65,0.00459
2729.15,0.00458
2715.65,0.00454
2702.15,0.00455
2688.64,0.00457
2675.14,0.00442
2661.64,0.00444
2648.14,0.00422
2634.64,0.00397
2621.14,0.00382
2607.64,0.00365
2594.14,0.00382
2580.64,0.00382
2567.13,0.00376
2553.63,0.00363
2540.13,0.00384
2526.63,0.00368
2513.13,0.00365
2499.63,0.00360
2486.13,0.00383
2472.63,0.00378
2459.13,0.00365
2445.62,0.00365
2432.12,0.00380
2418.62,0.00374
2405.12,0.00385
2391.62,0.00386
2378.12,0.00420
2364.62,-0.00203
2351.12,0.00201
2337.62,-0.00090
2324.12,0.00213
2310.61,0.00455
2297.11,0.00417
2283.61,0.00395
2270.11,0.00352
2256.61,0.00361
2243.11,0.00385
2229.61,0.00359
2216.11,0.00359
2202.61,0.00333
2189.1,0.00296
2175.6,0.00289
2162.1,0.00200
2148.6,0.00373
2135.1,0.00391
2121.6,0.00367
2108.1,0.00312
2094.6,0.00371
2081.1,0.00356
2067.59,0.00429
2054.09,0.00364
2040.59,0.00420
2027.09,0.00446
2013.59,0.00431
2000.09,0.00428
1986.59,0.00433
1973.09,0.00406
1959.59,0.00438
1946.08,0.00570
1932.58,0.00472
1919.08,0.00588
1905.58,0.00509
1892.08,0.00543
1878.58,0.00460
1865.08,0.00595
1851.58,0.00492
1838.08,0.00566
1824.57,0.00652
1811.07,0.00663
1797.57,0.00786
1784.07,0.00678
1770.57,0.00945
1757.07,0.00921
1743.57,0.01398
1730.07,0.01371
1716.57,0.01746
1703.07,0.01464
1689.56,0.01269
1676.06,0.01328
1662.56,0.01387
1649.06,0.01798
1635.56,0.01652
1622.06,0.01568
1608.56,0.01474
1595.06,0.01536
1581.56,0.01363
1568.05,0.01368
1554.55,0.01661
1541.05,0.02268
1527.55,0.01745
1514.05,0.01995
1500.55,0.01786
1487.05,0.01559
1473.55,0.01904
1460.05,0.01964
1446.54,0.01777
1433.04,0.01920
1419.54,0.02179
1406.04,0.01749
1392.54,0.01699
1379.04,0.01813
1365.54,0.01874
1352.04,0.01645
1338.54,0.02026
1325.03,0.01772
1311.53,0.01887
1298.03,0.01599
1284.53,0.01613
1271.03,0.01878
1257.53,0.02112
1244.03,0.02174
1230.53,0.02195
1217.03,0.01993
1203.53,0.01800
1190.02,0.01647
1176.52,0.01798
1163.02,0.02459
1149.52,0.02588
1136.02,0.02574
1122.52,0.03261
1109.02,0.03667
1095.52,0.03734
1082.02,0.03858
1068.51,0.04331
1055.01,0.05205
1041.51,0.05416
1028.01,0.05838
1014.51,0.05535
1001.01,0.04976
987.508,0.04697
974.007,0.03936
960.506,0.03365
947.005,0.02835
933.503,0.02616
920.002,0.02441
906.501,0.02448
893,0.02554
879.499,0.02403
865.998,0.02300
852.497,0.02275
838.996,0.02339
825.495,0.02391
811.994,0.02465
798.493,0.02630
784.992,0.02439
771.49,0.02568
757.989,0.02597
744.488,0.02769
730.987,0.02856
717.486,0.03129
703.985,0.03322
690.484,0.03429
676.983,0.03589
663.482,0.04072
649.981,0.04066
636.48,0.04371
622.979,0.04477
609.477,0.04492
599.834,0.05116