Folder: fsri_materials_database/01_Data/MDF/FTIR/IS

Note: 01_Data/README.md
# Materials and Products Database
## 01_Data

Raw data generated from each apparatus are included here in plain-text format. The data is organized first by material, next by the short name of test apparatus used, and where applicable additional filtering by test settings.

### material.json

Each material directory contains a json file of the same name as the material. This file links the data stored in the repository as well as data and graphs produced by the accompanying scripts (__02_Scripts__) to the respective landing page for the material on the front-end website.

File: MDF_IS_REFLECT_MEAS_210623_R1.dpt
5996.41,0.61663
5977.12,0.61962
5957.84,0.61312
5938.55,0.61389
5919.26,0.61295
5899.97,0.60168
5880.69,0.60815
5861.4,0.60406
5842.11,0.60590
5822.82,0.60066
5803.54,0.59793
5784.25,0.59564
5764.96,0.59523
5745.68,0.60767
5726.39,0.61436
5707.1,0.60927
5687.81,0.60308
5668.53,0.60152
5649.24,0.60214
5629.95,0.60740
5610.66,0.60748
5591.38,0.60939
5572.09,0.61883
5552.8,0.61782
5533.52,0.62005
5514.23,0.61588
5494.94,0.61504
5475.65,0.61195
5456.37,0.62663
5437.08,0.64154
5417.79,0.64269
5398.5,0.63770
5379.22,0.64212
5359.93,0.64793
5340.64,0.64456
5321.36,0.63550
5302.07,0.62262
5282.78,0.60006
5263.49,0.55231
5244.21,0.53422
5224.92,0.50971
5205.63,0.50656
5186.34,0.51087
5167.06,0.52572
5147.77,0.53745
5128.48,0.54277
5109.2,0.54791
5089.91,0.55268
5070.62,0.55863
5051.33,0.56513
5032.05,0.56725
5012.76,0.56250
4993.47,0.55798
4974.18,0.54627
4954.9,0.52888
4935.61,0.50568
4916.32,0.48186
4897.04,0.46381
4877.75,0.44946
4858.46,0.43346
4839.17,0.42393
4819.89,0.41029
4800.6,0.40561
4781.31,0.40204
4762.02,0.39766
4742.74,0.39724
4723.45,0.39811
4704.16,0.40112
4684.88,0.40545
4665.59,0.40898
4646.3,0.41514
4627.01,0.42327
4607.73,0.43085
4588.44,0.44010
4569.15,0.44676
4549.87,0.45330
4530.58,0.45879
4511.29,0.45526
4492,0.44833
4472.72,0.42975
4453.43,0.40325
4434.14,0.37801
4414.85,0.35714
4395.57,0.35129
4376.28,0.35523
4356.99,0.35971
4337.71,0.35566
4318.42,0.34816
4299.13,0.34299
4279.84,0.33907
4260.56,0.33981
4241.27,0.34332
4221.98,0.34732
4202.69,0.34916
4183.41,0.35089
4164.12,0.35552
4144.83,0.35249
4125.55,0.34477
4106.26,0.33075
4086.97,0.31257
4067.68,0.29490
4048.4,0.27775
4029.11,0.26787
4009.82,0.26634
3990.53,0.27040
3971.25,0.27567
3951.96,0.28253
3932.67,0.28861
3913.39,0.30350
3894.1,0.31292
3874.81,0.31856
3855.52,0.31924
3836.24,0.34014
3816.95,0.34090
3797.66,0.34584
3778.37,0.33717
3759.09,0.33481
3739.8,0.34714
3720.51,0.31614
3701.23,0.28574
3681.94,0.25535
3662.65,0.19213
3643.36,0.14690
3624.08,0.11598
3604.79,0.08895
3585.5,0.06972
3566.21,0.05422
3546.93,0.04617
3527.64,0.04074
3508.35,0.03671
3489.07,0.03384
3469.78,0.03202
3450.49,0.03019
3431.2,0.03009
3411.92,0.03025
3392.63,0.03095
3373.34,0.03033
3354.05,0.03085
3334.77,0.03236
3315.48,0.03427
3296.19,0.03595
3276.91,0.03812
3257.62,0.04291
3238.33,0.04663
3219.04,0.05230
3199.76,0.05604
3180.47,0.06261
3161.18,0.06900
3141.89,0.07471
3122.61,0.08077
3103.32,0.08619
3084.03,0.09028
3064.75,0.09399
3045.46,0.09736
3026.17,0.09623
3006.88,0.09012
2987.6,0.08227
2968.31,0.06556
2949.02,0.05581
2929.74,0.05085
2910.45,0.04959
2891.16,0.05386
2871.87,0.05807
2852.59,0.06133
2833.3,0.07952
2814.01,0.09754
2794.72,0.10772
2775.44,0.11195
2756.15,0.11541
2736.86,0.11576
2717.58,0.11998
2698.29,0.12606
2679,0.13204
2659.71,0.13570
2640.43,0.13903
2621.14,0.14418
2601.85,0.14789
2582.56,0.15063
2563.28,0.15203
2543.99,0.15379
2524.7,0.15752
2505.42,0.16271
2486.13,0.16879
2466.84,0.17403
2447.55,0.17883
2428.27,0.18587
2408.98,0.19401
2389.69,0.19983
2370.4,0.19605
2351.12,0.19503
2331.83,0.19863
2312.54,0.20258
2293.26,0.19558
2273.97,0.18977
2254.68,0.19613
2235.39,0.20326
2216.11,0.20922
2196.82,0.20891
2177.53,0.19869
2158.24,0.18755
2138.96,0.18239
2119.67,0.18381
2100.38,0.18814
2081.1,0.19042
2061.81,0.18844
2042.52,0.19051
2023.23,0.19792
2003.95,0.20580
1984.66,0.21140
1965.37,0.21053
1946.08,0.21191
1926.8,0.21642
1907.51,0.21578
1888.22,0.21517
1868.94,0.21287
1849.65,0.20725
1830.36,0.19030
1811.07,0.16655
1791.79,0.13440
1772.5,0.09349
1753.21,0.05220
1733.92,0.04438
1714.64,0.05813
1695.35,0.06751
1676.06,0.06219
1656.78,0.05918
1637.49,0.05715
1618.2,0.05191
1598.91,0.04409
1579.63,0.06081
1560.34,0.07249
1541.05,0.06237
1521.76,0.04563
1502.48,0.04351
1483.19,0.04777
1463.9,0.03327
1444.62,0.03510
1425.33,0.03184
1406.04,0.03651
1386.75,0.03246
1367.47,0.03139
1348.18,0.03231
1328.89,0.03049
1309.61,0.03350
1290.32,0.03290
1271.03,0.02898
1251.74,0.02772
1232.46,0.02900
1213.17,0.03320
1193.88,0.03382
1174.59,0.02593
1155.31,0.02688
1136.02,0.02231
1116.73,0.02406
1097.45,0.02647
1078.16,0.02743
1058.87,0.03958
1039.58,0.04264
1020.3,0.04990
1001.01,0.05189
981.722,0.05880
962.434,0.06959
943.147,0.08093
923.86,0.07988
904.573,0.07098
885.285,0.07524
865.998,0.08037
846.711,0.07675
827.424,0.07419
808.136,0.07179
788.849,0.07002
769.562,0.06336
750.274,0.05829
730.987,0.05198
711.7,0.04518
692.413,0.04727
673.125,0.03527
653.838,0.03913
634.551,0.03528
615.264,0.03981
595.976,0.04374
576.689,0.04025
557.402,0.04117
538.115,0.03836
518.827,0.03864
499.54,0.04767
480.253,0.04175
460.966,0.04706
441.678,0.04896
422.391,0.04852
403.104,0.04448
399.246,0.07216

File: MDF_IS_REFLECT_MEAS_210623_R2.dpt
5996.41,0.59289
5977.12,0.58398
5957.84,0.59042
5938.55,0.59342
5919.26,0.58270
5899.97,0.57637
5880.69,0.57663
5861.4,0.58297
5842.11,0.57816
5822.82,0.57105
5803.54,0.56921
5784.25,0.57346
5764.96,0.56904
5745.68,0.58269
5726.39,0.58435
5707.1,0.57728
5687.81,0.57674
5668.53,0.57932
5649.24,0.57284
5629.95,0.57620
5610.66,0.57135
5591.38,0.58288
5572.09,0.58727
5552.8,0.58297
5533.52,0.59005
5514.23,0.58396
5494.94,0.58143
5475.65,0.58591
5456.37,0.59757
5437.08,0.59981
5417.79,0.60579
5398.5,0.60288
5379.22,0.60155
5359.93,0.60923
5340.64,0.59477
5321.36,0.59166
5302.07,0.58185
5282.78,0.54939
5263.49,0.51053
5244.21,0.47889
5224.92,0.45706
5205.63,0.45118
5186.34,0.44661
5167.06,0.46224
5147.77,0.47065
5128.48,0.48519
5109.2,0.49036
5089.91,0.50053
5070.62,0.50833
5051.33,0.51550
5032.05,0.52017
5012.76,0.51865
4993.47,0.51545
4974.18,0.50974
4954.9,0.49266
4935.61,0.47439
4916.32,0.45322
4897.04,0.43879
4877.75,0.41990
4858.46,0.41020
4839.17,0.39734
4819.89,0.38480
4800.6,0.38235
4781.31,0.37774
4762.02,0.37019
4742.74,0.37077
4723.45,0.37314
4704.16,0.37616
4684.88,0.37775
4665.59,0.38046
4646.3,0.38928
4627.01,0.39543
4607.73,0.40351
4588.44,0.41198
4569.15,0.41935
4549.87,0.42477
4530.58,0.42931
4511.29,0.42680
4492,0.41862
4472.72,0.40249
4453.43,0.37749
4434.14,0.35315
4414.85,0.33308
4395.57,0.32823
4376.28,0.33155
4356.99,0.33692
4337.71,0.33073
4318.42,0.32358
4299.13,0.31892
4279.84,0.31496
4260.56,0.31579
4241.27,0.31937
4221.98,0.32154
4202.69,0.32510
4183.41,0.32468
4164.12,0.33158
4144.83,0.32711
4125.55,0.31842
4106.26,0.30521
4086.97,0.28839
4067.68,0.27345
4048.4,0.25779
4029.11,0.24788
4009.82,0.24680
3990.53,0.25037
3971.25,0.25291
3951.96,0.25923
3932.67,0.26744
3913.39,0.27627
3894.1,0.28348
3874.81,0.28858
3855.52,0.29421
3836.24,0.30534
3816.95,0.30647
3797.66,0.30695
3778.37,0.30883
3759.09,0.30154
3739.8,0.29111
3720.51,0.27809
3701.23,0.25329
3681.94,0.21322
3662.65,0.15913
3643.36,0.11784
3624.08,0.09178
3604.79,0.07600
3585.5,0.06340
3566.21,0.05312
3546.93,0.04608
3527.64,0.04255
3508.35,0.03983
3489.07,0.03862
3469.78,0.03518
3450.49,0.03435
3431.2,0.03344
3411.92,0.03273
3392.63,0.03441
3373.34,0.03473
3354.05,0.03467
3334.77,0.03589
3315.48,0.03802
3296.19,0.03940
3276.91,0.04069
3257.62,0.04431
3238.33,0.04760
3219.04,0.05099
3199.76,0.05563
3180.47,0.05949
3161.18,0.06459
3141.89,0.06916
3122.61,0.07401
3103.32,0.07833
3084.03,0.08250
3064.75,0.08515
3045.46,0.08746
3026.17,0.08760
3006.88,0.08321
2987.6,0.07717
2968.31,0.06277
2949.02,0.05535
2929.74,0.05028
2910.45,0.05097
2891.16,0.05531
2871.87,0.05694
2852.59,0.06032
2833.3,0.07696
2814.01,0.09169
2794.72,0.09914
2775.44,0.10443
2756.15,0.10595
2736.86,0.10755
2717.58,0.11021
2698.29,0.11589
2679,0.11961
2659.71,0.12303
2640.43,0.12637
2621.14,0.12972
2601.85,0.13340
2582.56,0.13518
2563.28,0.13618
2543.99,0.13598
2524.7,0.13623
2505.42,0.14138
2486.13,0.15103
2466.84,0.15647
2447.55,0.16134
2428.27,0.16706
2408.98,0.17431
2389.69,0.17896
2370.4,0.17498
2351.12,0.17391
2331.83,0.17794
2312.54,0.18035
2293.26,0.17447
2273.97,0.16919
2254.68,0.17386
2235.39,0.17898
2216.11,0.18349
2196.82,0.18230
2177.53,0.17320
2158.24,0.16414
2138.96,0.15885
2119.67,0.15993
2100.38,0.16353
2081.1,0.16544
2061.81,0.16399
2042.52,0.16550
2023.23,0.17154
2003.95,0.17783
1984.66,0.18211
1965.37,0.18191
1946.08,0.18118
1926.8,0.18632
1907.51,0.18604
1888.22,0.18640
1868.94,0.18660
1849.65,0.17738
1830.36,0.16449
1811.07,0.14131
1791.79,0.11353
1772.5,0.08266
1753.21,0.04602
1733.92,0.04107
1714.64,0.04992
1695.35,0.05599
1676.06,0.05230
1656.78,0.04707
1637.49,0.04740
1618.2,0.04449
1598.91,0.03944
1579.63,0.05162
1560.34,0.06586
1541.05,0.05661
1521.76,0.04563
1502.48,0.04120
1483.19,0.04422
1463.9,0.03685
1444.62,0.03744
1425.33,0.03611
1406.04,0.03901
1386.75,0.03593
1367.47,0.03607
1348.18,0.03833
1328.89,0.03623
1309.61,0.03737
1290.32,0.03717
1271.03,0.03288
1251.74,0.03181
1232.46,0.03295
1213.17,0.03553
1193.88,0.03415
1174.59,0.02725
1155.31,0.02960
1136.02,0.02374
1116.73,0.02620
1097.45,0.02877
1078.16,0.02899
1058.87,0.04001
1039.58,0.04192
1020.3,0.04856
1001.01,0.04791
981.722,0.05537
962.434,0.06152
943.147,0.07031
923.86,0.06908
904.573,0.06199
885.285,0.06203
865.998,0.06722
846.711,0.06529
827.424,0.06071
808.136,0.05998
788.849,0.05889
769.562,0.05263
750.274,0.04840
730.987,0.04445
711.7,0.03874
692.413,0.03899
673.125,0.03495
653.838,0.03559
634.551,0.03351
615.264,0.03307
595.976,0.03873
576.689,0.03753
557.402,0.03777
538.115,0.03697
518.827,0.03614
499.54,0.04194
480.253,0.03535
460.966,0.03425
441.678,0.04050
422.391,0.03853
403.104,0.03666
399.246,0.05678

File: MDF_IS_REFLECT_MEAS_210623_R3.dpt
5996.41,0.59414
5977.12,0.59158
5957.84,0.58794
5938.55,0.58768
5919.26,0.58557
5899.97,0.57508
5880.69,0.58253
5861.4,0.58669
5842.11,0.58868
5822.82,0.58380
5803.54,0.57822
5784.25,0.57452
5764.96,0.57550
5745.68,0.58581
5726.39,0.58777
5707.1,0.58586
5687.81,0.58444
5668.53,0.57826
5649.24,0.58070
5629.95,0.58988
5610.66,0.58195
5591.38,0.59502
5572.09,0.59987
5552.8,0.59408
5533.52,0.59802
5514.23,0.59387
5494.94,0.59240
5475.65,0.59622
5456.37,0.60470
5437.08,0.61029
5417.79,0.61449
5398.5,0.61536
5379.22,0.61462
5359.93,0.62244
5340.64,0.61276
5321.36,0.60955
5302.07,0.60124
5282.78,0.57454
5263.49,0.53972
5244.21,0.51767
5224.92,0.49697
5205.63,0.49156
5186.34,0.49426
5167.06,0.50380
5147.77,0.51596
5128.48,0.52320
5109.2,0.52802
5089.91,0.53102
5070.62,0.54159
5051.33,0.54721
5032.05,0.54457
5012.76,0.54658
4993.47,0.53735
4974.18,0.52607
4954.9,0.51115
4935.61,0.49062
4916.32,0.46328
4897.04,0.45026
4877.75,0.43410
4858.46,0.42107
4839.17,0.40917
4819.89,0.39904
4800.6,0.39261
4781.31,0.39079
4762.02,0.38398
4742.74,0.38257
4723.45,0.38406
4704.16,0.38826
4684.88,0.39023
4665.59,0.39493
4646.3,0.39904
4627.01,0.40806
4607.73,0.41709
4588.44,0.42706
4569.15,0.43495
4549.87,0.44082
4530.58,0.44507
4511.29,0.44143
4492,0.43477
4472.72,0.41664
4453.43,0.38966
4434.14,0.36461
4414.85,0.34715
4395.57,0.33956
4376.28,0.34381
4356.99,0.35068
4337.71,0.34342
4318.42,0.33666
4299.13,0.33347
4279.84,0.32730
4260.56,0.32968
4241.27,0.33344
4221.98,0.33581
4202.69,0.33884
4183.41,0.34044
4164.12,0.34608
4144.83,0.34341
4125.55,0.33404
4106.26,0.32171
4086.97,0.30561
4067.68,0.28766
4048.4,0.27124
4029.11,0.26066
4009.82,0.25977
3990.53,0.26470
3971.25,0.26809
3951.96,0.27452
3932.67,0.28473
3913.39,0.29428
3894.1,0.30064
3874.81,0.30722
3855.52,0.31577
3836.24,0.32867
3816.95,0.33108
3797.66,0.33076
3778.37,0.33254
3759.09,0.32967
3739.8,0.31959
3720.51,0.30709
3701.23,0.28295
3681.94,0.24448
3662.65,0.18624
3643.36,0.13980
3624.08,0.10833
3604.79,0.08648
3585.5,0.06757
3566.21,0.05683
3546.93,0.04666
3527.64,0.04105
3508.35,0.03832
3489.07,0.03457
3469.78,0.03213
3450.49,0.03166
3431.2,0.03085
3411.92,0.03088
3392.63,0.03142
3373.34,0.03150
3354.05,0.03122
3334.77,0.03304
3315.48,0.03543
3296.19,0.03613
3276.91,0.03896
3257.62,0.04282
3238.33,0.04770
3219.04,0.05180
3199.76,0.05782
3180.47,0.06226
3161.18,0.06877
3141.89,0.07399
3122.61,0.07888
3103.32,0.08489
3084.03,0.08987
3064.75,0.09318
3045.46,0.09591
3026.17,0.09642
3006.88,0.08985
2987.6,0.08235
2968.31,0.06541
2949.02,0.05626
2929.74,0.05170
2910.45,0.05158
2891.16,0.05497
2871.87,0.05962
2852.59,0.06229
2833.3,0.07977
2814.01,0.09833
2794.72,0.10813
2775.44,0.11253
2756.15,0.11502
2736.86,0.11593
2717.58,0.11901
2698.29,0.12615
2679,0.13163
2659.71,0.13433
2640.43,0.13805
2621.14,0.14327
2601.85,0.14668
2582.56,0.14933
2563.28,0.15104
2543.99,0.15315
2524.7,0.15538
2505.42,0.16078
2486.13,0.16732
2466.84,0.17221
2447.55,0.17748
2428.27,0.18381
2408.98,0.19188
2389.69,0.19670
2370.4,0.19531
2351.12,0.19185
2331.83,0.19573
2312.54,0.19915
2293.26,0.19189
2273.97,0.18595
2254.68,0.19181
2235.39,0.19941
2216.11,0.20549
2196.82,0.20500
2177.53,0.19512
2158.24,0.18514
2138.96,0.18038
2119.67,0.18120
2100.38,0.18561
2081.1,0.18825
2061.81,0.18575
2042.52,0.18812
2023.23,0.19496
2003.95,0.20281
1984.66,0.20708
1965.37,0.20666
1946.08,0.20682
1926.8,0.21063
1907.51,0.21076
1888.22,0.21142
1868.94,0.21225
1849.65,0.20076
1830.36,0.18870
1811.07,0.16392
1791.79,0.13555
1772.5,0.09604
1753.21,0.05256
1733.92,0.04793
1714.64,0.05800
1695.35,0.06781
1676.06,0.06205
1656.78,0.05762
1637.49,0.05824
1618.2,0.05202
1598.91,0.04459
1579.63,0.05908
1560.34,0.07519
1541.05,0.06430
1521.76,0.04835
1502.48,0.04183
1483.19,0.04812
1463.9,0.03434
1444.62,0.03627
1425.33,0.03355
1406.04,0.03788
1386.75,0.03413
1367.47,0.03265
1348.18,0.03467
1328.89,0.03294
1309.61,0.03526
1290.32,0.03519
1271.03,0.03166
1251.74,0.02976
1232.46,0.03139
1213.17,0.03487
1193.88,0.03490
1174.59,0.02631
1155.31,0.02907
1136.02,0.02343
1116.73,0.02608
1097.45,0.03014
1078.16,0.03165
1058.87,0.04162
1039.58,0.04521
1020.3,0.05278
1001.01,0.05397
981.722,0.06232
962.434,0.07355
943.147,0.08359
923.86,0.08112
904.573,0.07254
885.285,0.07761
865.998,0.08025
846.711,0.07887
827.424,0.07453
808.136,0.07211
788.849,0.07248
769.562,0.06679
750.274,0.05971
730.987,0.05338
711.7,0.04816
692.413,0.04558
673.125,0.03993
653.838,0.04133
634.551,0.03738
615.264,0.03857
595.976,0.03870
576.689,0.04021
557.402,0.04672
538.115,0.04253
518.827,0.04221
499.54,0.04489
480.253,0.04310
460.966,0.05502
441.678,0.03583
422.391,0.04770
403.104,0.04125
399.246,0.01513

File: MDF_IS_REFLECT_MEAS_210623_R4.dpt
5996.41,0.57913
5977.12,0.57037
5957.84,0.57354
5938.55,0.58235
5919.26,0.57522
5899.97,0.56611
5880.69,0.57350
5861.4,0.57866
5842.11,0.57484
5822.82,0.57007
5803.54,0.56411
5784.25,0.55940
5764.96,0.57071
5745.68,0.57526
5726.39,0.57568
5707.1,0.57004
5687.81,0.55875
5668.53,0.56880
5649.24,0.56164
5629.95,0.56735
5610.66,0.56220
5591.38,0.57109
5572.09,0.57835
5552.8,0.57614
5533.52,0.57692
5514.23,0.57355
5494.94,0.57238
5475.65,0.57616
5456.37,0.58977
5437.08,0.59004
5417.79,0.59342
5398.5,0.59354
5379.22,0.58821
5359.93,0.59776
5340.64,0.57723
5321.36,0.57338
5302.07,0.55708
5282.78,0.51694
5263.49,0.46259
5244.21,0.43316
5224.92,0.40130
5205.63,0.39521
5186.34,0.39744
5167.06,0.40606
5147.77,0.41947
5128.48,0.43058
5109.2,0.44091
5089.91,0.45303
5070.62,0.46404
5051.33,0.47449
5032.05,0.47928
5012.76,0.48635
4993.47,0.48741
4974.18,0.48395
4954.9,0.48094
4935.61,0.46649
4916.32,0.44709
4897.04,0.43153
4877.75,0.41838
4858.46,0.40559
4839.17,0.39611
4819.89,0.38459
4800.6,0.38056
4781.31,0.37613
4762.02,0.36989
4742.74,0.36810
4723.45,0.37319
4704.16,0.37589
4684.88,0.37991
4665.59,0.38116
4646.3,0.38878
4627.01,0.39617
4607.73,0.40268
4588.44,0.41169
4569.15,0.41888
4549.87,0.42312
4530.58,0.43035
4511.29,0.42702
4492,0.42247
4472.72,0.40291
4453.43,0.37726
4434.14,0.35393
4414.85,0.33412
4395.57,0.32741
4376.28,0.33360
4356.99,0.33902
4337.71,0.33221
4318.42,0.32261
4299.13,0.32023
4279.84,0.31652
4260.56,0.31812
4241.27,0.32114
4221.98,0.32195
4202.69,0.32391
4183.41,0.32365
4164.12,0.32877
4144.83,0.32342
4125.55,0.31479
4106.26,0.30225
4086.97,0.28671
4067.68,0.26997
4048.4,0.25440
4029.11,0.24540
4009.82,0.24402
3990.53,0.24817
3971.25,0.25003
3951.96,0.25614
3932.67,0.26533
3913.39,0.27310
3894.1,0.27900
3874.81,0.28297
3855.52,0.28738
3836.24,0.29941
3816.95,0.29839
3797.66,0.29872
3778.37,0.29670
3759.09,0.28755
3739.8,0.27430
3720.51,0.25981
3701.23,0.23270
3681.94,0.18775
3662.65,0.13311
3643.36,0.09488
3624.08,0.07406
3604.79,0.06021
3585.5,0.05078
3566.21,0.04352
3546.93,0.03957
3527.64,0.03561
3508.35,0.03260
3489.07,0.03099
3469.78,0.02974
3450.49,0.02891
3431.2,0.02926
3411.92,0.02728
3392.63,0.02910
3373.34,0.02903
3354.05,0.02923
3334.77,0.03023
3315.48,0.03228
3296.19,0.03346
3276.91,0.03496
3257.62,0.03833
3238.33,0.04044
3219.04,0.04354
3199.76,0.04684
3180.47,0.05027
3161.18,0.05420
3141.89,0.05884
3122.61,0.06362
3103.32,0.06744
3084.03,0.07128
3064.75,0.07558
3045.46,0.07934
3026.17,0.08006
3006.88,0.07736
2987.6,0.07262
2968.31,0.05981
2949.02,0.05222
2929.74,0.04853
2910.45,0.04838
2891.16,0.05206
2871.87,0.05590
2852.59,0.05821
2833.3,0.07438
2814.01,0.08895
2794.72,0.09685
2775.44,0.10076
2756.15,0.10368
2736.86,0.10451
2717.58,0.10763
2698.29,0.11397
2679,0.11914
2659.71,0.12280
2640.43,0.12575
2621.14,0.13122
2601.85,0.13448
2582.56,0.13665
2563.28,0.13859
2543.99,0.13951
2524.7,0.14185
2505.42,0.14699
2486.13,0.15405
2466.84,0.15929
2447.55,0.16371
2428.27,0.16976
2408.98,0.17613
2389.69,0.17990
2370.4,0.17634
2351.12,0.17438
2331.83,0.17649
2312.54,0.18048
2293.26,0.17534
2273.97,0.17055
2254.68,0.17395
2235.39,0.17758
2216.11,0.18060
2196.82,0.17864
2177.53,0.16990
2158.24,0.16094
2138.96,0.15664
2119.67,0.15737
2100.38,0.16025
2081.1,0.16190
2061.81,0.16083
2042.52,0.16290
2023.23,0.16884
2003.95,0.17565
1984.66,0.18028
1965.37,0.18124
1946.08,0.18227
1926.8,0.18587
1907.51,0.18746
1888.22,0.18824
1868.94,0.19042
1849.65,0.17911
1830.36,0.16918
1811.07,0.14811
1791.79,0.12390
1772.5,0.09137
1753.21,0.05013
1733.92,0.04445
1714.64,0.05316
1695.35,0.05786
1676.06,0.05060
1656.78,0.04526
1637.49,0.04752
1618.2,0.04488
1598.91,0.04050
1579.63,0.05338
1560.34,0.06630
1541.05,0.06089
1521.76,0.04602
1502.48,0.04013
1483.19,0.04436
1463.9,0.03357
1444.62,0.03516
1425.33,0.03376
1406.04,0.03660
1386.75,0.03305
1367.47,0.03166
1348.18,0.03442
1328.89,0.03206
1309.61,0.03448
1290.32,0.03432
1271.03,0.03040
1251.74,0.02904
1232.46,0.03133
1213.17,0.03389
1193.88,0.03424
1174.59,0.02652
1155.31,0.02695
1136.02,0.02213
1116.73,0.02515
1097.45,0.02760
1078.16,0.02788
1058.87,0.03844
1039.58,0.04279
1020.3,0.04919
1001.01,0.05031
981.722,0.05825
962.434,0.06625
943.147,0.07431
923.86,0.07182
904.573,0.06412
885.285,0.06777
865.998,0.06819
846.711,0.06521
827.424,0.06057
808.136,0.05934
788.849,0.05735
769.562,0.05228
750.274,0.04663
730.987,0.04480
711.7,0.04143
692.413,0.04013
673.125,0.03585
653.838,0.03754
634.551,0.03404
615.264,0.03755
595.976,0.03845
576.689,0.03836
557.402,0.04245
538.115,0.04161
518.827,0.03998
499.54,0.04149
480.253,0.04374
460.966,0.04826
441.678,0.04670
422.391,0.05830
403.104,0.03139
399.246,0.03195

File: MDF_IS_REFLECT_MEAS_210623_R5.dpt
5996.41,0.57977
5977.12,0.57663
5957.84,0.57126
5938.55,0.57529
5919.26,0.57278
5899.97,0.56262
5880.69,0.56391
5861.4,0.56665
5842.11,0.56447
5822.82,0.56214
5803.54,0.55492
5784.25,0.55689
5764.96,0.55775
5745.68,0.56925
5726.39,0.56541
5707.1,0.57030
5687.81,0.56428
5668.53,0.56576
5649.24,0.55802
5629.95,0.56686
5610.66,0.56102
5591.38,0.57342
5572.09,0.57271
5552.8,0.58003
5533.52,0.58150
5514.23,0.57923
5494.94,0.57613
5475.65,0.58038
5456.37,0.58894
5437.08,0.59272
5417.79,0.59261
5398.5,0.59928
5379.22,0.60103
5359.93,0.60208
5340.64,0.59215
5321.36,0.59285
5302.07,0.58564
5282.78,0.56294
5263.49,0.52543
5244.21,0.50295
5224.92,0.48650
5205.63,0.48446
5186.34,0.48478
5167.06,0.49124
5147.77,0.50061
5128.48,0.51115
5109.2,0.51916
5089.91,0.52084
5070.62,0.52939
5051.33,0.53544
5032.05,0.53655
5012.76,0.52901
4993.47,0.52291
4974.18,0.50998
4954.9,0.49439
4935.61,0.47292
4916.32,0.44694
4897.04,0.43256
4877.75,0.41369
4858.46,0.40182
4839.17,0.39203
4819.89,0.37885
4800.6,0.37300
4781.31,0.37065
4762.02,0.36633
4742.74,0.36431
4723.45,0.36726
4704.16,0.37053
4684.88,0.37432
4665.59,0.37798
4646.3,0.38449
4627.01,0.39151
4607.73,0.40028
4588.44,0.40938
4569.15,0.41531
4549.87,0.42147
4530.58,0.42868
4511.29,0.42396
4492,0.41727
4472.72,0.40011
4453.43,0.37327
4434.14,0.34955
4414.85,0.33092
4395.57,0.32218
4376.28,0.32709
4356.99,0.33277
4337.71,0.32563
4318.42,0.32058
4299.13,0.31644
4279.84,0.31253
4260.56,0.31180
4241.27,0.31711
4221.98,0.31998
4202.69,0.32262
4183.41,0.32476
4164.12,0.32871
4144.83,0.32657
4125.55,0.31898
4106.26,0.30491
4086.97,0.28950
4067.68,0.27301
4048.4,0.25701
4029.11,0.24635
4009.82,0.24551
3990.53,0.25001
3971.25,0.25381
3951.96,0.26076
3932.67,0.27002
3913.39,0.27830
3894.1,0.28486
3874.81,0.29242
3855.52,0.30109
3836.24,0.30863
3816.95,0.31255
3797.66,0.31411
3778.37,0.31707
3759.09,0.31361
3739.8,0.30392
3720.51,0.29210
3701.23,0.26954
3681.94,0.23322
3662.65,0.17697
3643.36,0.13343
3624.08,0.10359
3604.79,0.08341
3585.5,0.06793
3566.21,0.05609
3546.93,0.04720
3527.64,0.04232
3508.35,0.03847
3489.07,0.03722
3469.78,0.03478
3450.49,0.03360
3431.2,0.03320
3411.92,0.03240
3392.63,0.03353
3373.34,0.03378
3354.05,0.03433
3334.77,0.03463
3315.48,0.03675
3296.19,0.03866
3276.91,0.04122
3257.62,0.04435
3238.33,0.04739
3219.04,0.05230
3199.76,0.05751
3180.47,0.06244
3161.18,0.06723
3141.89,0.07191
3122.61,0.07761
3103.32,0.08285
3084.03,0.08637
3064.75,0.08975
3045.46,0.09183
3026.17,0.09133
3006.88,0.08691
2987.6,0.07941
2968.31,0.06347
2949.02,0.05571
2929.74,0.05147
2910.45,0.05096
2891.16,0.05500
2871.87,0.05858
2852.59,0.06191
2833.3,0.07680
2814.01,0.09322
2794.72,0.10146
2775.44,0.10614
2756.15,0.10900
2736.86,0.10904
2717.58,0.11207
2698.29,0.11832
2679,0.12325
2659.71,0.12594
2640.43,0.12854
2621.14,0.13299
2601.85,0.13602
2582.56,0.13878
2563.28,0.14033
2543.99,0.14099
2524.7,0.14270
2505.42,0.14733
2486.13,0.15472
2466.84,0.15994
2447.55,0.16514
2428.27,0.17054
2408.98,0.17775
2389.69,0.18310
2370.4,0.18044
2351.12,0.17841
2331.83,0.18051
2312.54,0.18642
2293.26,0.17963
2273.97,0.17491
2254.68,0.17959
2235.39,0.18554
2216.11,0.19062
2196.82,0.19018
2177.53,0.18070
2158.24,0.17072
2138.96,0.16661
2119.67,0.16743
2100.38,0.17156
2081.1,0.17382
2061.81,0.17210
2042.52,0.17354
2023.23,0.17971
2003.95,0.18747
1984.66,0.19155
1965.37,0.19069
1946.08,0.19051
1926.8,0.19496
1907.51,0.19484
1888.22,0.19503
1868.94,0.19659
1849.65,0.18469
1830.36,0.17287
1811.07,0.14942
1791.79,0.12164
1772.5,0.08726
1753.21,0.04872
1733.92,0.04505
1714.64,0.05511
1695.35,0.06027
1676.06,0.05727
1656.78,0.05264
1637.49,0.05422
1618.2,0.04893
1598.91,0.04273
1579.63,0.05558
1560.34,0.07007
1541.05,0.06008
1521.76,0.04744
1502.48,0.04125
1483.19,0.04509
1463.9,0.03558
1444.62,0.03755
1425.33,0.03527
1406.04,0.03870
1386.75,0.03502
1367.47,0.03454
1348.18,0.03614
1328.89,0.03430
1309.61,0.03660
1290.32,0.03582
1271.03,0.03223
1251.74,0.03131
1232.46,0.03187
1213.17,0.03493
1193.88,0.03373
1174.59,0.02735
1155.31,0.02948
1136.02,0.02430
1116.73,0.02742
1097.45,0.03010
1078.16,0.02938
1058.87,0.04325
1039.58,0.04612
1020.3,0.05260
1001.01,0.05263
981.722,0.05930
962.434,0.06758
943.147,0.07601
923.86,0.07269
904.573,0.06693
885.285,0.06802
865.998,0.07100
846.711,0.07105
827.424,0.06489
808.136,0.06388
788.849,0.06304
769.562,0.05922
750.274,0.05359
730.987,0.04864
711.7,0.04233
692.413,0.04267
673.125,0.03730
653.838,0.03661
634.551,0.03723
615.264,0.03744
595.976,0.03930
576.689,0.04480
557.402,0.04050
538.115,0.03933
518.827,0.04051
499.54,0.04299
480.253,0.03938
460.966,0.03422
441.678,0.04068
422.391,0.03583
403.104,0.05955
399.246,0.04566