Folder: fsri_materials_database/01_Data/Rebond_Foam_Carpet_Pad/Cone (part 3)

File: Rebond_Foam_Carpet_Pad_Cone_HF50Scan_220414_R2.csv
Names,Time,Stack TC,Smoke TC,Exh Press,Smoke Comp,Smoke Meas,CO Meter,CO2 Meter,O2 Meter,Sample Mass,Ext Coeff,Start Test,Flame Verif
Chan Gain,,500,500,1,1,1,1,1,1,1,1,1.0,1.0
Offset,,0,0,0.134258,0,0,0,0,0,0,0,0.0,0.0
Gain,,1,1,25.011,13.171,13.8983,1,1,1,1.00092,1.00459,1.0,1.0
Units,sec,C,C,Pa,%,%,%,%,%,g,/m,,
Baseline,,34.5335,35.5237,148.229,100.501,100.349,0.00126309,0.0472457,21.0269,-833.061,0.0134107,,
7,1.5,33.8544,34.6997,134.398,101.579,85.0954,0.00517332,0.123351,20.8983,-352.453,1.5603,0.0,1.0
14,3.25,34.0847,34.979,130.389,101.576,81.2616,0.00893839,0.21556,20.747,-352.663,1.96626,0.0,1.0
21,5,35.7346,35.9924,125.243,101.555,79.7499,0.0128612,0.318811,20.5391,-352.903,2.12996,0.0,1.0
28,6.75,35.738,35.732,124.404,101.56,78.8953,0.0164578,0.43439,20.4049,-353.143,2.22536,0.0,1.0
35,8.5,37.724,38.0287,124.994,101.518,76.224,0.0193131,0.516991,20.3012,-353.413,2.52519,0.0,1.0
42,10.25,39.3398,40.1465,125.987,101.515,76.076,0.0212979,0.570856,20.2393,-353.724,2.54208,0.0,0.0
49,12,41.3025,42.2744,130.134,101.498,77.0723,0.0231859,0.611079,20.1901,-353.974,2.42599,0.0,0.0
56,13.75,43.3129,44.1034,118.28,101.483,72.9399,0.0256147,0.658556,20.1089,-354.264,2.91033,0.0,0.0
63,15.5,45.5711,46.4462,114.117,101.457,71.2043,0.0281972,0.745195,19.9718,-354.634,3.12028,0.0,0.0
70,17.25,47.5301,48.7431,96.9128,101.433,69.5468,0.0314544,0.907334,19.7122,-355.085,3.32575,0.0,0.0
77,19,51.3289,52.6436,95.6259,101.418,68.405,0.0347501,1.13863,19.2833,-355.595,3.4703,0.0,0.0
84,20.75,55.8727,57.3857,90.3959,101.392,70.7984,0.0374669,1.45202,18.7758,-356.186,3.16496,0.0,0.0
91,22.5,62.029,63.989,84.5599,101.364,74.0923,0.0390001,1.82557,18.394,-356.837,2.76182,0.0,0.0
98,24.25,69.0552,72.3599,83.4471,101.331,77.5181,0.0395009,2.14896,17.8536,-357.497,2.3606,0.0,0.0
105,26,77.3983,81.8557,87.197,101.326,81.0024,0.038796,2.54569,17.4059,-358.088,1.9727,0.0,0.0
112,27.75,86.6548,92.502,71.8598,101.292,78.3613,0.0370636,2.71678,17.1622,-358.718,2.26191,0.0,0.0
119,29.5,94.902,102.859,84.0546,101.262,75.1607,0.0346265,2.69544,17.2282,-359.199,2.62674,0.0,0.0
126,31.25,101.527,111.547,102.268,101.222,74.8829,0.0310995,2.44105,17.6261,-359.559,2.65594,0.0,0.0
133,33,105.507,116.894,114.83,101.201,80.7832,0.0272121,2.04393,18.108,-359.779,1.9857,0.0,0.0
140,34.75,106.514,119.302,124.338,101.175,84.4808,0.0220183,1.53767,18.8033,-359.899,1.5891,0.0,0.0
147,36.5,106.154,119.206,136.79,101.145,97.1021,0.0183873,1.13855,19.3852,-359.909,0.35951,0.0,0.0
154,38.25,103.995,117.667,140.716,101.113,102.172,0.0157152,0.767715,19.9395,-359.919,-0.0918133,0.0,0.0
161,40,101.54,114.759,144.572,101.08,101.906,0.0143579,0.520783,20.3344,-359.919,-0.0716832,0.0,0.0
168,41.75,98.8527,111.798,141.638,101.066,102.158,0.0138612,0.358441,20.5863,-359.929,-0.0947404,0.0,0.0
175,43.5,96.3856,108.769,145.077,101.029,102.02,0.0139345,0.260001,20.7281,-359.939,-0.0859935,0.0,0.0
182,45.25,93.6484,106.189,144.45,100.984,101.973,0.0147622,0.200035,20.8162,-359.959,-0.0859272,0.0,0.0
189,47,91.4572,103.615,146.089,100.952,101.784,0.0160287,0.162475,20.8703,-359.959,-0.0723706,0.0,0.0
196,48.75,88.9795,101.093,143.438,100.941,102.864,0.0172814,0.13487,20.9092,-359.969,-0.166319,0.0,0.0
203,50.5,86.494,98.134,143.056,100.91,101.422,0.0178914,0.116754,20.934,-359.969,-0.0445696,0.0,0.0
210,52.25,84.5047,95.8567,148.025,100.88,102.065,0.0177777,0.104872,20.95,-359.969,-0.102966,0.0,0.0
217,54,82.5503,93.5803,146.845,100.844,101.933,0.0171368,0.097068,20.9613,-359.989,-0.094657,0.0,0.0
224,55.75,80.2881,91.3025,140.767,100.822,102.374,0.0163333,0.0913653,20.97,-360.009,-0.134572,0.0,0.0
231,57.5,78.5258,89.5328,144.755,100.807,102.575,0.0155571,0.0861676,20.9748,-359.999,-0.153266,0.0,0.0
238,59.25,77.3675,87.8327,143.471,100.805,102.206,0.0146118,0.0821089,20.9785,-360.009,-0.121648,0.0,0.0
245,61,75.6797,85.8586,146.43,100.855,102.327,0.0136718,0.0777625,20.9849,-360.019,-0.127673,0.0,0.0
252,62.75,74.1727,84.1633,146.782,100.877,101.953,0.0128489,0.0735208,20.9912,-360.039,-0.0935374,0.0,0.0
259,64.5,72.299,82.6124,144.269,100.922,102.291,0.0119956,0.0698011,20.9974,-360.039,-0.118739,0.0,0.0
266,66.25,70.9173,80.699,145.323,100.958,101.805,0.0111101,0.0670888,21.002,-360.049,-0.0736088,0.0,0.0
273,68,69.5329,79.3468,146.577,100.969,101.956,0.010362,0.0644187,21.0054,-360.059,-0.0856853,0.0,0.0
280,69.75,68.0637,77.9367,140.24,100.992,103.054,0.00968315,0.0622307,21.0079,-360.059,-0.178127,0.0,0.0
287,71.5,67.4667,76.4308,143.929,101.022,102.339,0.0091625,0.0605999,21.0094,-360.069,-0.114171,0.0,0.0
294,73.25,65.7678,74.7524,146.272,101.048,101.285,0.00870719,0.0590152,21.0117,-360.09,-0.0206623,0.0,0.0
301,75,64.8149,74.1616,146.098,101.07,102.37,0.00827788,0.0576686,21.0145,-360.099,-0.112665,0.0,0.0
308,76.75,63.7577,72.6221,143.383,101.076,101.576,0.00785732,0.0564406,21.0171,-360.09,-0.0434521,0.0,0.0
315,78.5,62.2689,71.6229,148.063,101.1,102.544,0.00750602,0.0554312,21.0191,-360.09,-0.124922,0.0,0.0
322,80.25,61.7032,70.3983,143.26,101.14,102.355,0.00714921,0.0544816,21.0201,-360.09,-0.105256,0.0,0.0
329,82,60.7487,69.5984,144.929,101.158,102.837,0.00671284,0.0538336,21.0194,-360.11,-0.145029,0.0,0.0
336,83.75,60.1019,68.2078,144.229,101.153,102.218,0.00626307,0.0533615,21.0195,-360.11,-0.0922942,0.0,0.0
343,85.5,58.5757,66.8676,140.421,101.188,101.365,0.00591113,0.0526098,21.0203,-360.11,-0.0154064,0.0,0.0
350,87.25,57.9612,65.9068,144.295,101.194,102.943,0.0056745,0.0520702,21.0211,-360.12,-0.150923,0.0,0.0
357,89,57.1645,65.3239,139.789,101.214,102.088,0.00558372,0.0517015,21.0223,-360.12,-0.075777,0.0,0.0
364,90.75,56.2244,64.3794,144.948,101.228,102.819,0.00554321,0.0513826,21.0228,-360.13,-0.137447,0.0,0.0
371,92.5,55.4841,63.3684,145.082,101.236,101.895,0.00542931,0.0511569,21.0231,-360.13,-0.0571435,0.0,0.0
378,94.25,54.7596,62.2084,142.299,101.276,101.832,0.00526756,0.0507234,21.0232,-360.13,-0.0482848,0.0,0.0
385,96,54.4569,62.02,144.034,101.303,102.023,0.00516672,0.0503465,21.0243,-360.14,-0.06241,0.0,0.0
392,97.75,53.875,60.8035,144.637,101.321,102.762,0.00506701,0.0501639,21.0247,-360.15,-0.12446,0.0,0.0
399,99.5,53.6202,60.3216,146.478,101.328,102.12,0.00483035,0.0499786,21.0248,-360.14,-0.0686611,0.0,0.0
406,101.25,52.5936,59.8266,146.52,101.356,103.258,0.00455737,0.0499993,21.0248,-360.15,-0.163872,0.0,0.0
413,103,51.9052,58.9362,146.348,101.382,102.444,0.00433384,0.0500499,21.0248,-360.16,-0.09179,0.0,0.0
420,104.75,51.6465,57.9441,143.847,101.394,102.242,0.00418994,0.04996,21.0262,-360.16,-0.0733583,0.0,0.0
427,106.5,51.3391,57.2932,150.937,101.419,102.503,0.00412755,0.0497109,21.0268,-360.17,-0.0936834,0.0,0.0
434,108.25,50.0499,56.2861,146.682,101.433,102.944,0.00411841,0.0493492,21.0271,-360.17,-0.130302,0.0,0.0
441,110,49.3573,55.3743,145.631,101.446,102.614,0.00409687,0.0490272,21.0284,-360.17,-0.100857,0.0,0.0
448,111.75,49.5169,54.9333,147.35,101.483,101.588,0.00406051,0.0486652,21.0291,-360.18,-0.00909151,0.0,0.0
455,113.5,48.9583,54.9473,147.369,101.469,101.743,0.00398105,0.0483996,21.0304,-360.18,-0.0238018,0.0,0.0
462,115.25,48.714,54.437,146.207,101.472,103.375,0.00386424,0.0481333,21.0313,-360.18,-0.163725,0.0,0.0
469,117,48.0468,53.7393,145.598,101.475,102.661,0.0037674,0.0479204,21.0317,-360.19,-0.102349,0.0,0.0
476,118.75,47.4165,53.2785,150.805,101.486,102.2,0.0036809,0.0477277,21.0323,-360.19,-0.0618134,0.0,0.0
483,120.5,47.682,52.8687,143.462,101.488,103.128,0.00365589,0.0475056,21.0326,-360.19,-0.141262,0.0,0.0
490,122.25,47.0813,52.2759,142.755,101.481,102.074,0.00361245,0.0474107,21.0326,-360.19,-0.0513993,0.0,0.0
497,124,46.9423,51.7387,145.137,101.486,103.418,0.00351833,0.047186,21.0315,-360.2,-0.166155,0.0,0.0
504,125.75,46.5927,51.9014,147.677,101.483,101.56,0.00342273,0.0471223,21.031,-360.21,-0.00662589,0.0,0.0
511,127.5,45.7588,50.5517,147.165,101.48,102.025,0.00322221,0.0471605,21.0299,-360.21,-0.0471853,0.0,0.0
518,129.25,45.7504,50.2818,144.695,101.469,101.603,0.00301928,0.0470305,21.0296,-360.22,-0.0115636,0.0,0.0
525,131,45.8056,50.1135,143.501,101.456,103.289,0.00287284,0.047015,21.0298,-360.22,-0.157816,0.0,0.0
532,132.75,45.0888,49.8515,145.226,101.453,102.705,0.00279348,0.0469956,21.0298,-360.22,-0.108125,0.0,0.0
539,134.5,44.5265,49.3149,147.129,101.443,101.884,0.00264724,0.0468161,21.0299,-360.23,-0.0382607,0.0,0.0
546,136.25,43.9586,48.7885,149.17,101.43,102.117,0.00249679,0.0465945,21.0299,-360.23,-0.0594588,0.0,0.0
553,138,44.491,48.7394,143.865,101.39,102.883,0.00246387,0.0465522,21.0299,-360.24,-0.128773,0.0,0.0
560,139.75,43.8802,48.1883,145.698,101.382,102.24,0.00255822,0.0465932,21.0299,-360.24,-0.0742238,0.0,0.0
567,141.5,43.765,47.7314,145.111,101.364,102.26,0.00263705,0.0465847,21.0299,-360.24,-0.0775159,0.0,0.0
574,143.25,43.6675,48.0711,144.392,101.34,101.453,0.0026607,0.0465266,21.0299,-360.24,-0.00988759,0.0,0.0
581,145,43.5903,46.9483,142.668,101.296,103.355,0.00264373,0.0466112,21.0299,-360.24,-0.177329,0.0,0.0
588,146.75,43.5531,46.6325,149.59,101.251,102.645,0.00261965,0.0465171,21.0299,-360.25,-0.120465,0.0,0.0
595,148.5,43.138,46.5431,146.334,101.221,102.551,0.00258151,0.0463685,21.0299,-360.25,-0.114965,0.0,0.0
602,150.25,42.8587,46.3031,144.935,101.19,101.919,0.00247909,0.0460621,21.0298,-360.25,-0.0632221,0.0,0.0
609,152,42.8911,45.8357,145.951,101.152,102.448,0.00237944,0.0459674,21.0306,-360.24,-0.112234,0.0,0.0
616,153.75,42.7524,46.2831,143.668,101.09,101.123,0.00232159,0.0459552,21.0314,-360.25,-0.00294662,0.0,0.0
623,155.5,41.9395,45.3405,144.056,101.086,102.136,0.00232051,0.0459899,21.0317,-360.25,-0.0910501,0.0,0.0
630,157.25,41.9094,45.2481,142.216,101.112,101.616,,0.0459303,,-360.24,-0.0437567,0.0,0.0
637,159,41.6995,45.0061,149.393,101.131,101.948,,0.0457046,,-360.25,-0.070971,0.0,0.0
644,160.75,41.8568,45.2773,145.125,101.149,102.021,,,,-360.26,-0.0756615,0.0,0.0
651,162.5,41.66,44.5689,144.782,101.173,101.979,,,,-360.26,-0.0698978,0.0,0.0
658,164.25,41.7102,44.8535,145.691,101.194,102.276,,,,-360.26,-0.0936616,0.0,0.0
665,166,41.2472,44.4348,146.063,101.212,102.953,,,,-360.26,-0.150254,0.0,0.0
671,167.5,41.6636,44.1687,146.575,101.216,103.032,,,,-360.27,-0.156762,0.0,0.0

File: Rebond_Foam_Carpet_Pad_Cone_HF50Scan_220414_R3.csv
Names,Time,Stack TC,Smoke TC,Exh Press,Smoke Comp,Smoke Meas,CO Meter,CO2 Meter,O2 Meter,Sample Mass,Ext Coeff,Start Test,Flame Verif
Chan Gain,,500,500,1,1,1,1,1,1,1,1,1.0,1.0
Offset,,0,0,0.134258,0,0,0,0,0,0,0,0.0,0.0
Gain,,1,1,25.011,13.171,13.8983,1,1,1,1.00092,1.00459,1.0,1.0
Units,sec,C,C,Pa,%,%,%,%,%,g,/m,,
Baseline,,38.0836,38.8625,147.53,101.086,101.331,0.00115364,0.046437,21.0298,-833.5,-0.0212249,,
7,1.5,36.3747,36.9595,137.29,101.322,87.4371,0.00406109,0.0968081,20.9842,-353.674,1.2988,0.0,1.0
14,3.25,36.653,36.8209,129.989,101.352,78.1984,0.00743788,0.181388,20.835,-354.024,2.28542,0.0,1.0
21,5,37.3811,38.1808,124.422,101.367,74.2217,0.0110442,0.28154,20.6511,-354.204,2.74665,0.0,1.0
28,6.75,37.9831,37.7977,131.445,101.389,76.266,0.0140459,0.377467,20.5136,-354.454,2.5092,0.0,1.0
35,8.5,39.1188,39.622,124.859,101.403,73.2143,0.016808,0.458821,20.4066,-354.705,2.87022,0.0,1.0
42,10.25,40.7013,42.0918,127.417,101.43,74.706,0.0193601,0.520211,20.317,-354.975,2.69489,0.0,0.0
49,12,42.4444,43.2541,123.343,101.45,73.8896,0.0222138,0.57062,20.2046,-355.235,2.7934,0.0,0.0
56,13.75,44.6221,45.0486,110.715,101.471,71.3621,0.0243612,0.64987,20.1014,-355.585,3.102,0.0,0.0
63,15.5,46.9855,47.4201,112.653,101.491,67.0961,0.0277452,0.775371,19.8898,-355.946,3.6469,0.0,0.0
70,17.25,50.1817,51.0901,99.9789,101.516,67.5546,0.0315335,0.967567,19.5332,-356.426,3.58902,0.0,0.0
77,19,54.4986,55.3588,89.5838,101.539,68.0024,0.035174,1.2697,18.9958,-357.037,3.53284,0.0,0.0
84,20.75,59.8336,61.524,76.0242,101.564,75.0555,0.0377088,1.66472,18.5576,-357.647,2.66538,0.0,0.0
91,22.5,66.9501,69.4876,72.3437,101.588,78.0703,0.0386475,2.12442,18.0575,-358.298,2.32043,0.0,0.0
98,24.25,76.6957,80.2401,74.6694,101.603,76.7423,0.0381342,2.47904,17.555,-358.988,2.4729,0.0,0.0
105,26,85.3216,91.2324,80.7733,101.63,77.7662,0.0362402,2.65563,17.3584,-359.459,2.35841,0.0,0.0
112,27.75,93.3661,100.844,93.3697,101.652,76.8463,0.0330171,2.57218,17.4594,-359.909,2.46523,0.0,0.0
119,29.5,99.5418,108.194,107.303,101.678,76.5116,0.0287062,2.2484,17.8922,-360.21,2.50589,0.0,0.0
126,31.25,102.594,113.249,113.177,101.687,78.8707,0.023522,1.80235,18.5672,-360.4,2.23912,0.0,0.0
133,33,102.741,114.242,127.764,101.718,91.3473,0.0189044,1.31356,19.2862,-360.47,0.947647,0.0,0.0
140,34.75,101.805,113.333,139.01,101.749,98.9174,0.0154246,0.923533,19.8052,-360.52,0.248694,0.0,0.0
147,36.5,99.5699,111.446,138.476,101.756,102.087,0.013503,0.626506,20.2037,-360.51,-0.0286569,0.0,0.0
154,38.25,97.5289,108.918,142.294,101.762,104.49,0.0130573,0.429646,20.5032,-360.52,-0.233139,0.0,0.0
161,40,94.3097,106.506,144.944,101.779,103.442,0.0133042,0.297952,20.6955,-360.54,-0.142807,0.0,0.0
168,41.75,92.7372,103.596,142.568,101.816,102.973,0.0136697,0.217863,20.8084,-360.54,-0.0995524,0.0,0.0
175,43.5,90.3891,101.246,141.798,101.83,104.229,0.0138826,0.170203,20.8741,-360.54,-0.205198,0.0,0.0
182,45.25,88.8379,99.1541,139.037,101.836,103.088,0.0138642,0.141205,20.9075,-360.55,-0.107682,0.0,0.0
189,47,86.698,96.8593,146.027,101.858,103.963,0.0135866,0.124076,20.9257,-360.55,-0.180216,0.0,0.0
196,48.75,84.8464,94.4255,146.234,101.88,104.176,0.0131737,0.112435,20.9418,-360.58,-0.196366,0.0,0.0
203,50.5,82.0681,92.9894,143.544,101.889,103.674,0.01265,0.101105,20.9558,-360.58,-0.153091,0.0,0.0
210,52.25,79.3802,88.6163,144.18,101.914,104.01,0.0120773,0.0929238,20.9667,-360.59,-0.179407,0.0,0.0
217,54,77.8424,87.4852,143.398,101.928,102.26,0.0116005,0.0864285,20.976,-360.59,-0.0286969,0.0,0.0
224,55.75,76.2812,85.4522,145.398,101.915,103.414,0.0111529,0.0808109,20.983,-360.59,-0.128703,0.0,0.0
231,57.5,74.3721,84.3378,145.369,101.927,103.076,0.0107203,0.0755882,20.9899,-360.59,-0.0987732,0.0,0.0
238,59.25,73.2342,82.4667,144.917,101.942,103.991,0.0102094,0.0709108,20.9964,-360.61,-0.175392,0.0,0.0
245,61,71.8721,80.589,145.343,101.925,103.85,0.00976239,0.06693,21.001,-360.6,-0.164875,0.0,0.0
252,62.75,70.8049,79.4718,142.32,101.936,103.206,0.00912879,0.0636595,21.0046,-360.61,-0.109134,0.0,0.0
259,64.5,68.7032,78.1419,147.071,101.957,103.914,0.00856026,0.0614697,21.0092,-360.62,-0.167529,0.0,0.0
266,66.25,68.0403,76.5291,144.225,101.952,103.191,0.00808522,0.0592161,21.0133,-360.62,-0.106404,0.0,0.0
273,68,66.9851,75.6667,145.333,101.939,103.084,0.00778662,0.0574431,21.0147,-360.63,-0.0984194,0.0,0.0
280,69.75,65.3962,74.0413,146.77,101.942,103.594,0.00741653,0.0561276,21.0153,-360.63,-0.14165,0.0,0.0
287,71.5,65.1935,72.597,143.941,101.952,103.755,0.00698908,0.0550438,21.0168,-360.64,-0.154481,0.0,0.0
294,73.25,63.7932,71.4803,145.768,101.945,102.708,0.00660202,0.0539607,21.0181,-360.65,-0.0656422,0.0,0.0
301,75,62.4124,70.6796,148.419,101.938,103.519,0.00634492,0.0530724,21.0189,-360.65,-0.13554,0.0,0.0
308,76.75,61.7022,69.4368,146.17,101.928,102.936,0.00617378,0.052317,21.0203,-360.65,-0.0866936,0.0,0.0
315,78.5,60.9124,68.4127,143.547,101.929,104.28,0.00600677,0.051743,21.0212,-360.66,-0.200948,0.0,0.0
322,80.25,60.4431,67.6143,145.301,101.929,103.818,0.0057521,0.0513963,21.0216,-360.66,-0.161791,0.0,0.0
329,82,59.024,66.7601,144.301,101.915,103.951,0.00542766,0.0511427,21.0218,-360.66,-0.174307,0.0,0.0
336,83.75,58.5992,65.9124,142.936,101.906,103.597,0.005164,0.0508097,21.0231,-360.67,-0.145102,0.0,0.0
343,85.5,57.6816,64.9329,146.051,101.894,103.457,0.00504661,0.050511,21.0228,-360.68,-0.134161,0.0,0.0
350,87.25,56.5865,63.8078,147.083,101.899,103.147,0.00502,0.0501256,21.0224,-360.69,-0.10726,0.0,0.0
357,89,56.0436,63.2688,146.073,101.881,103.691,0.00494366,0.0498307,21.0222,-360.69,-0.155227,0.0,0.0
364,90.75,55.3552,61.972,144.861,101.861,103.959,0.00476736,0.0496346,21.0232,-360.69,-0.179647,0.0,0.0
371,92.5,54.625,60.9954,145.4,101.856,103.498,0.00452899,0.0493746,21.0248,-360.7,-0.140861,0.0,0.0
378,94.25,54.071,60.9859,143.176,101.841,102.875,0.00431491,0.0491738,21.0256,-360.71,-0.0890088,0.0,0.0
385,96,53.3772,60.1283,144.943,101.839,103.642,0.00422141,0.0489334,21.0259,-360.71,-0.154663,0.0,0.0
392,97.75,53.1434,59.3585,143.222,101.823,102.758,0.00424302,0.0487962,21.0261,-360.71,-0.0805405,0.0,0.0
399,99.5,52.6426,58.7269,143.041,101.814,103.341,0.00425522,0.0486602,21.0262,-360.72,-0.131176,0.0,0.0
406,101.25,52.0105,57.8492,147.489,101.801,102.234,0.00415614,0.0484381,21.0262,-360.73,-0.0374183,0.0,0.0
413,103,51.2533,57.707,141.94,101.801,102.958,0.00396676,0.0480926,21.0262,-360.73,-0.0996406,0.0,0.0
420,104.75,50.7703,56.7192,144.43,101.778,103.123,0.00373827,0.0479117,21.0262,-360.74,-0.1157,0.0,0.0
427,106.5,50.4415,55.7328,144.656,101.761,103.241,0.00361717,0.0479338,21.0262,-360.74,-0.127232,0.0,0.0
434,108.25,49.9825,55.2782,141.606,101.742,102.638,0.00360658,0.0478962,21.0275,-360.75,-0.077305,0.0,0.0
441,110,49.4388,55.2368,144.959,101.738,103.517,0.00359502,0.0478535,21.028,-360.74,-0.152787,0.0,0.0
448,111.75,49.2505,54.3382,141.92,101.726,103.541,0.00348822,0.0476393,21.029,-360.74,-0.155783,0.0,0.0
455,113.5,49.2955,54.1411,147.71,101.704,103.492,0.00332653,0.047454,21.03,-360.76,-0.153616,0.0,0.0
462,115.25,48.5844,53.695,142.564,101.668,103.635,0.00305345,0.0472247,21.0302,-360.75,-0.168914,0.0,0.0
469,117,47.8142,53.1611,143.724,101.659,102.769,0.00284662,0.0471464,21.0302,-360.75,-0.0956892,0.0,0.0
476,118.75,48.2028,52.435,143.573,101.647,102.613,0.00275233,0.0471009,21.0302,-360.76,-0.0833784,0.0,0.0
483,120.5,47.6604,52.1185,142.865,101.627,102.133,0.00275871,0.0471337,21.0303,-360.75,-0.0437899,0.0,0.0
490,122.25,47.6672,51.7842,147.293,101.585,102.409,0.00276285,0.047093,21.0303,-360.77,-0.0711722,0.0,0.0
497,124,46.9949,51.3605,142.888,101.546,102.266,0.00272089,0.0468594,21.0303,-360.76,-0.0622101,0.0,0.0
504,125.75,46.5428,51.1782,147.287,101.533,102.042,0.00259988,0.0467918,21.0303,-360.77,-0.0441146,0.0,0.0
511,127.5,46.5011,50.6349,147.384,101.506,102.186,0.00239438,0.0467481,21.0303,-360.77,-0.0588264,0.0,0.0
518,129.25,45.9561,50.2743,146.468,101.452,103.777,0.0021953,0.0466102,21.0303,-360.77,-0.199645,0.0,0.0
525,131,45.8249,49.8237,146.697,101.418,102.877,0.00206419,0.0466673,21.0303,-360.78,-0.125856,0.0,0.0
532,132.75,45.6024,49.7386,146.375,101.397,102.549,0.00195655,0.0466311,21.0303,-360.78,-0.0995429,0.0,0.0
539,134.5,45.5514,49.5796,149.623,101.372,103.265,0.00189615,0.0465402,21.0307,-360.77,-0.163089,0.0,0.0
546,136.25,45.3524,48.7078,145.588,101.344,103.264,0.0019107,0.0463155,21.0317,-360.77,-0.165389,0.0,0.0
553,138,44.6563,49.0099,148.701,101.281,103.117,0.00202454,0.0461375,21.0326,-360.77,-0.158312,0.0,0.0
560,139.75,44.7044,48.3736,143.853,101.249,102.029,0.00223014,0.0460718,21.0333,-360.79,-0.0676427,0.0,0.0
567,141.5,44.6071,48.059,146.458,101.216,102.386,0.00237337,0.0460584,21.0336,-360.79,-0.101303,0.0,0.0
574,143.25,44.6882,47.9862,137.767,101.176,102.039,0.00239786,0.0460656,21.0338,-360.79,-0.0748208,0.0,0.0
581,145,44.4156,47.3688,143.937,101.121,102.694,0.00241171,0.0460682,21.0339,-360.79,-0.135994,0.0,0.0
588,146.75,44.0919,47.0418,149.584,101.075,102.928,0.00246597,0.0459997,21.0327,-360.79,-0.160054,0.0,0.0
595,148.5,44.0709,47.2058,140.84,101.037,102.169,0.00245635,0.045848,21.0321,-360.77,-0.0982155,0.0,0.0
602,150.25,44.0297,47.2139,140.632,101.004,101.681,0.00239101,0.0458195,21.0318,-360.8,-0.0588481,0.0,0.0
609,152,43.5145,46.4213,143.199,100.95,101.314,0.00235009,0.0456558,21.0317,-360.79,-0.0316927,0.0,0.0
616,153.75,43.2683,46.6435,144.826,100.916,101.8,0.00228957,0.0455095,21.0317,-360.8,-0.0768541,0.0,0.0
623,155.5,43.1094,46.4294,146.081,100.872,102.059,0.00215494,0.0455649,21.0316,-360.78,-0.103121,0.0,0.0
630,157.25,43.0132,46.1651,143.655,100.836,101.744,0.00203308,0.0460276,21.0308,-360.78,-0.0789923,0.0,0.0
637,159,43.1734,45.7649,145.061,100.813,102.377,0.00194838,0.0469507,21.03,-360.79,-0.135671,0.0,0.0
644,160.75,42.4477,45.8252,141.762,100.772,102.148,,0.04812,,-360.79,-0.119517,0.0,0.0
651,162.5,42.9948,45.4768,144.588,100.716,101.17,,,,-360.79,-0.0396941,0.0,0.0
658,164.25,42.4053,45.4568,142.151,100.693,102.78,,,,-360.8,-0.180799,0.0,0.0
665,166,42.4271,44.6429,142.518,100.667,102.372,,,,-360.81,-0.147961,0.0,0.0
672,167.75,42.3471,44.4618,143.57,100.641,101.915,,,,-360.8,-0.110874,0.0,0.0
679,169.5,42.1637,45.3538,145.715,100.603,101.783,,,,-360.81,-0.102768,0.0,0.0
682,170.25,42.2098,44.5268,144.615,100.589,101.419,,,,-360.81,-0.0724394,0.0,0.0

File: Rebond_Foam_Carpet_Pad_Cone_HF75Scalar_220414_R1.csv
LABORATORY,FSRI
TEST IDENT,Rebond_Foam_HF75_1
OPERATOR,Dow
MATERIAL,Rebond Foam Carpet Padding
ORIENTATION,Horizontal
HEAT FLUX,75
SURF AREA,0.01
C FACTOR,0.0401286
SPEC HOLDER DIFF,-566
SPECIMEN MASS,8.54
SCAN TIME,0.25
O2 DELAY TIME,11
CO DELAY TIME,11
CO2 DELAY TIME,8
FLOW FACTOR,1
SCAN COUNT,637
TIME TO IGN,0.75
END OF TEST SCAN,157
END OF TEST TIME,39.25
TEST STATUS,1
PRE TEST CMT,Dimensions: 101.18 x 98.88 x 8.86 mm

File: Rebond_Foam_Carpet_Pad_Cone_HF75Scalar_220414_R2.csv
LABORATORY,FSRI
TEST IDENT,Rebond_Foam_HF75_2
OPERATOR,Dow
MATERIAL,Rebond Foam Carpet Padding
ORIENTATION,Horizontal
HEAT FLUX,75
SURF AREA,0.01
C FACTOR,0.0401286
SPEC HOLDER DIFF,-566
SPECIMEN MASS,8.06
SCAN TIME,0.25
O2 DELAY TIME,11
CO DELAY TIME,11
CO2 DELAY TIME,8
FLOW FACTOR,1
SCAN COUNT,630
TIME TO IGN,0.5
END OF TEST SCAN,150
END OF TEST TIME,37.5
TEST STATUS,1
PRE TEST CMT,Dimensions: 99.78 x 99.07 x 9.07 mm

File: Rebond_Foam_Carpet_Pad_Cone_HF75Scalar_220414_R3.csv
LABORATORY,FSRI
TEST IDENT,Rebond_Foam_HF75_3
OPERATOR,Dow
MATERIAL,Rebond Foam Carpet Padding
ORIENTATION,Horizontal
HEAT FLUX,75
SURF AREA,0.01
C FACTOR,0.0401286
SPEC HOLDER DIFF,-566
SPECIMEN MASS,8.42
SCAN TIME,0.25
O2 DELAY TIME,11
CO DELAY TIME,11
CO2 DELAY TIME,8
FLOW FACTOR,1
SCAN COUNT,622
TIME TO IGN,1
END OF TEST SCAN,142
END OF TEST TIME,35.5
TEST STATUS,1
PRE TEST CMT,Dimensions: 100.60 x 100.12 x 9.21 mm