Folder: fsri_materials_database/01_Data/Rebond_Foam_Carpet_Pad/Cone (part 2)

File: Rebond_Foam_Carpet_Pad_Cone_HF25Scan_220413_R3.csv
Names,Time,Stack TC,Smoke TC,Exh Press,Smoke Comp,Smoke Meas,CO Meter,CO2 Meter,O2 Meter,Sample Mass,Ext Coeff,Start Test,Flame Verif
Chan Gain,,500,500,1,1,1,1,1,1,1,1,1.0,1.0
Offset,,0,0,0.132909,0,0,0,0,0,0,0,0.0,0.0
Gain,,1,1,25.011,13.171,13.8983,1,1,1,1.00092,1.00459,1.0,1.0
Units,sec,C,C,Pa,%,%,%,%,%,g,/m,,
Baseline,,22.8887,23.0155,151.54,100.1,95.2568,0.000619318,0.053875,21.02,-833.968,0.437069,,
8,1.75,21.2972,21.7415,152.328,100.268,95.0102,0.000671437,0.0578775,21.0147,-353.584,0.474682,0.0,0.0
16,3.75,21.16,20.9021,153.862,100.283,93.6962,0.000774043,0.0576865,21.0155,-353.624,0.598713,0.0,0.0
24,5.75,21.6773,21.6879,152.407,100.305,92.3351,0.00101748,0.0587649,21.0125,-353.624,0.729569,0.0,0.0
32,7.75,21.4204,21.895,145.768,100.313,92.1048,0.00180238,0.0772814,20.977,-353.804,0.752319,0.0,1.0
40,9.75,21.7678,21.4797,139.601,100.355,86.3365,0.0032524,0.134317,20.874,-353.864,1.32592,0.0,1.0
48,11.75,22.6708,22.7254,137.608,100.368,84.027,0.0052024,0.211888,20.7633,-354.064,1.56598,0.0,1.0
56,13.75,22.9997,22.5425,136.744,100.387,82.9594,0.00720895,0.277464,20.6798,-354.234,1.68036,0.0,0.0
64,15.75,24.7068,24.403,133.046,100.403,80.3416,0.00897376,0.330074,20.6048,-354.374,1.96425,0.0,0.0
72,17.75,25.9259,25.5364,134.031,100.424,77.7552,0.0103023,0.369561,20.5487,-354.615,2.25444,0.0,0.0
80,19.75,27.2941,26.9729,137.283,100.438,77.9168,0.0112539,0.395535,20.5144,-354.805,2.23738,0.0,0.0
88,21.75,28.5142,28.5623,135.625,100.455,78.257,0.012104,0.410833,20.4935,-354.965,2.20055,0.0,0.0
96,23.75,29.8011,29.7093,130.041,100.472,75.9479,0.0128709,0.422242,20.4776,-355.185,2.46595,0.0,0.0
104,25.75,30.4614,30.6959,130.541,100.495,78.1441,0.0139506,0.439951,20.4492,-355.425,2.21678,0.0,0.0
112,27.75,31.8547,31.9207,128.543,100.509,77.8672,0.0149541,0.468146,20.4063,-355.695,2.24927,0.0,0.0
120,29.75,33.3538,33.754,126.051,100.527,78.3456,0.0156676,0.507703,20.3293,-355.956,2.19688,0.0,0.0
128,31.75,34.8764,35.27,122.49,100.552,82.9654,0.0161116,0.562648,20.2291,-356.186,1.69418,0.0,0.0
136,33.75,37.1705,37.7469,122.299,100.557,79.5154,0.0163937,0.643056,20.1173,-356.516,2.06892,0.0,0.0
144,35.75,39.8893,40.311,105.92,100.58,81.7833,0.0165561,0.73184,19.9842,-356.847,1.82307,0.0,0.0
152,37.75,42.6247,43.4183,118.284,100.591,80.4693,0.0164168,0.82533,19.8184,-357.197,1.96675,0.0,0.0
160,39.75,46.4949,46.8609,102.444,100.611,84.5071,0.0159141,0.936427,19.6411,-357.597,1.5371,0.0,0.0
168,41.75,50.0309,51.4469,99.6477,100.612,85.8733,0.0151775,1.0391,19.5011,-357.998,1.39588,0.0,0.0
176,43.75,53.9489,55.4468,102.385,100.627,87.2174,0.0144095,1.12035,19.3889,-358.398,1.26025,0.0,0.0
184,45.75,57.7371,60.2382,105.278,100.638,89.6494,0.0137854,1.18435,19.3002,-358.838,1.01888,0.0,0.0
192,47.75,61.7204,64.8201,101.217,100.645,88.2468,0.0133404,1.22603,19.2592,-359.269,1.15847,0.0,0.0
200,49.75,65.7679,68.9509,106.354,100.659,88.6777,0.0129545,1.22944,19.2688,-359.579,1.11681,0.0,0.0
208,51.75,68.6127,72.8794,111.103,100.657,89.0315,0.0125954,1.17283,19.3955,-359.929,1.08152,0.0,0.0
216,53.75,70.7007,75.4138,118.988,100.681,86.1405,0.0122751,1.06204,19.5682,-360.17,1.37449,0.0,0.0
224,55.75,71.6917,77.355,125.314,100.684,84.1063,0.0122401,0.925174,19.7546,-360.36,1.58537,0.0,0.0
232,57.75,72.7503,77.5132,128.405,100.701,77.3472,0.0121945,0.788807,19.9666,-360.54,2.32511,0.0,0.0
240,59.75,72.2755,77.7584,138.923,100.71,80.7675,0.0112445,0.651177,20.2005,-360.67,1.94458,0.0,0.0
248,61.75,70.8288,77.1345,140.356,100.717,87.1623,0.00958222,0.514807,20.3916,-360.69,1.27378,0.0,0.0
256,63.75,69.4626,75.3433,142.438,100.716,93.6856,0.00779574,0.388035,20.5648,-360.72,0.637633,0.0,0.0
264,65.75,67.7136,74.1597,143.886,100.732,96.1134,0.00646872,0.286954,20.7114,-360.7,0.413586,0.0,0.0
272,67.75,66.4804,71.6914,148.813,100.723,96.2232,0.00545891,0.213983,20.8155,-360.71,0.402712,0.0,0.0
280,69.75,63.8787,70.9126,153.238,100.72,95.9827,0.00462864,0.167669,20.8749,-360.72,0.424517,0.0,0.0
288,71.75,62.4992,68.0796,152.381,100.699,96.0336,0.0039879,0.135226,20.9129,-360.73,0.418052,0.0,0.0
296,73.75,60.5787,66.8008,147.062,100.705,95.8373,0.00359105,0.112817,20.942,-360.73,0.436618,0.0,0.0
304,75.75,58.9522,64.9938,151.813,100.687,95.9289,0.00331271,0.0966514,20.9633,-360.73,0.426615,0.0,0.0
312,77.75,57.2144,63.0269,148.347,100.682,95.962,0.00299504,0.0849506,20.9801,-360.73,0.423119,0.0,0.0
320,79.75,55.8839,60.9997,149.33,100.649,95.9302,0.00270565,0.0766478,20.9908,-360.73,0.423156,0.0,0.0
328,81.75,53.8437,59.5892,150.948,100.638,95.9174,0.00237793,0.0708892,20.9986,-360.73,0.423374,0.0,0.0
336,83.75,52.3325,57.7881,149.763,100.614,95.7936,0.00209855,0.0671912,21.0031,-360.74,0.432683,0.0,0.0
344,85.75,50.9916,57.2897,150.912,100.596,95.8559,0.00180758,0.0648111,21.0069,-360.72,0.425294,0.0,0.0
352,87.75,49.8416,56.0319,149.055,100.565,95.9123,0.00146423,0.0632235,21.0087,-360.71,0.417434,0.0,0.0
360,89.75,49.1732,54.4549,149.851,100.558,95.8475,0.001165,0.0621834,21.0094,-360.72,0.422799,0.0,0.0
368,91.75,48.0194,52.9539,149.877,100.529,95.6252,0.00103564,0.0616145,21.0108,-360.73,0.440685,0.0,0.0
376,93.75,46.8696,52.3774,147.533,100.513,95.7075,0.00105928,0.0612806,21.0118,-360.72,0.431731,0.0,0.0
384,95.75,45.8676,50.9436,152.811,100.494,95.8033,0.00112267,0.0609737,21.0122,-360.73,0.421253,0.0,0.0
392,97.75,44.7893,49.9321,148.361,100.461,95.6748,0.00117944,0.060584,21.0121,-360.72,0.430122,0.0,0.0
400,99.75,43.8042,48.7048,149.113,100.439,95.643,0.00119394,0.0599526,21.012,-360.72,0.431182,0.0,0.0
408,101.75,42.708,47.7749,145.554,100.418,95.6078,0.00117042,0.0593527,21.012,-360.74,0.432593,0.0,0.0
416,103.75,42.1915,46.7371,150.812,100.391,95.7397,0.00107437,0.0588564,21.0132,-360.74,0.418044,0.0,0.0
424,105.75,41.3288,45.2426,148.102,100.362,95.6142,0.00103353,0.0584128,21.014,-360.74,0.427032,0.0,0.0
432,107.75,40.497,45.25,148.825,100.354,95.6405,0.00105026,0.0578913,21.0146,-360.76,0.423903,0.0,0.0
440,109.75,40.0259,44.5781,148.382,100.319,95.4381,0.0010407,0.0572853,21.0149,-360.75,0.439492,0.0,0.0
448,111.75,39.409,43.834,149.451,100.298,95.4653,0.000951062,0.0567469,21.0164,-360.76,0.435149,0.0,0.0
456,113.75,38.7521,42.7044,149.169,100.277,95.6778,0.000854867,0.0562073,21.017,-360.76,0.413756,0.0,0.0
464,115.75,37.7774,42.0319,149.229,100.25,95.6362,0.000837403,0.0556676,21.0173,-360.75,0.415218,0.0,0.0
472,117.75,37.5415,41.4726,151.114,100.197,95.4895,0.000873257,0.0553433,21.0165,-360.75,0.42405,0.0,0.0
480,119.75,36.4443,40.8087,147.802,100.17,95.3427,0.00087275,0.0550414,21.017,-360.76,0.435198,0.0,0.0
488,121.75,35.796,40.3229,149.753,100.126,95.2757,0.000898934,0.0547096,21.0167,-360.76,0.437575,0.0,0.0
496,123.75,35.3006,39.5792,148.809,100.092,95.2723,0.00090256,0.0545278,21.0159,-360.75,0.434847,0.0,0.0
504,125.75,35.1209,39.2599,151.236,100.046,95.2693,0.000875595,0.0544293,21.0156,-360.75,0.431086,0.0,0.0
512,127.75,34.3915,38.2426,143.326,100.013,95.386,0.000897553,0.0543391,21.0154,-360.75,0.417436,0.0,0.0
520,129.75,33.9876,38.2235,156.152,99.9689,95.1336,0.000973121,0.0542549,21.0153,-360.76,0.436885,0.0,0.0
528,131.75,33.3681,36.9225,146.986,99.9376,95.0895,0.000941098,0.0542018,21.0153,-360.75,0.438208,0.0,0.0
536,133.75,33.1344,36.7643,150.861,99.9086,95.1455,0.00083467,0.0543318,21.0153,-360.75,0.430468,0.0,0.0
544,135.75,32.6311,36.2427,149.158,99.8697,95.1379,0.000817059,0.054363,21.0153,-360.77,0.427736,0.0,0.0
552,137.75,32.2025,35.3146,145.874,99.8407,95.1841,0.000871718,0.0543549,21.0153,-360.75,0.420901,0.0,0.0
560,139.75,32.0083,34.6861,149.006,99.7993,94.9288,0.000924224,0.0543323,21.0165,-360.76,0.440916,0.0,0.0
568,141.75,31.6575,34.8372,147.623,99.7543,95.0827,0.000995436,0.0542443,21.0182,-360.76,0.422659,0.0,0.0
576,143.75,31.9004,35.0527,149.478,99.7342,94.958,0.00103972,0.054136,21.0195,-360.77,0.432448,0.0,0.0
584,145.75,30.8124,34.11,147.371,99.7157,95.0827,0.00103965,0.0539938,21.02,-360.76,0.41925,0.0,0.0
592,147.75,31.2259,33.904,149.778,99.6932,94.9682,0.00110205,0.0539162,21.0197,-360.76,0.42788,0.0,0.0
600,149.75,30.691,33.3863,149.923,99.6502,94.919,0.00114592,0.053902,21.0183,-360.78,0.428645,0.0,0.0
608,151.75,30.1833,32.6119,145.75,99.6152,94.888,0.00113186,0.0539424,21.0177,-360.78,0.428427,0.0,0.0
616,153.75,29.9051,32.4735,146.872,99.5831,94.8261,0.00107519,0.0541469,21.0175,-360.77,0.431334,0.0,0.0
624,155.75,30.0131,32.3893,154.169,99.5364,94.846,0.00103554,0.0543395,21.0174,-360.76,0.425355,0.0,0.0
632,157.75,29.1275,31.6303,151.131,99.5047,94.8138,0.000979159,0.0544136,21.0174,-360.76,0.425539,0.0,0.0
640,159.75,29.1841,31.4062,149.695,99.4725,94.7014,0.000956518,0.0544442,21.0178,-360.77,0.433143,0.0,0.0
648,161.75,28.4844,31.3771,146.997,99.4343,94.7379,0.00103957,0.054351,21.0179,-360.78,0.426366,0.0,0.0
656,163.75,28.6625,31.4116,151.534,99.3982,94.6412,0.00115918,0.0542683,21.0177,-360.77,0.432159,0.0,0.0
664,165.75,28.1193,30.6836,150.046,99.3616,94.5033,0.00122437,0.0542084,21.0176,-360.77,0.441761,0.0,0.0
672,167.75,28.5139,30.481,145.04,99.333,94.5258,0.00120882,0.0540889,21.0175,-360.77,0.437133,0.0,0.0
680,169.75,28.1977,30.4793,151.376,99.2663,94.561,0.00127307,0.053872,21.0166,-360.76,0.427931,0.0,0.0
688,171.75,27.9224,30.2284,147.588,99.235,94.4317,0.001368,0.05372,21.0161,-360.78,0.437211,0.0,0.0
696,173.75,27.9787,29.771,149.642,99.1835,94.4155,0.00129438,0.0536196,21.0159,-360.77,0.434145,0.0,0.0
704,175.75,27.6555,29.9656,145.578,99.1554,94.4613,0.00117714,0.0537415,21.0158,-360.78,0.42737,0.0,0.0
712,177.75,27.9055,29.5595,149.558,99.1148,94.4575,0.00115616,0.0538624,21.0158,-360.76,0.424119,0.0,0.0
720,179.75,27.5662,29.3693,151.699,99.0718,94.4168,0.00129136,0.0538159,21.0159,-360.76,0.424094,0.0,0.0
728,181.75,27.2431,29.0349,148.626,99.0416,94.3405,0.00144985,0.0537448,21.0163,-360.77,0.428539,0.0,0.0
736,183.75,27.1371,28.4428,148.921,99.001,94.293,0.00158891,0.0535112,21.0165,-360.77,0.429365,0.0,0.0
744,185.75,26.7664,28.36,153.762,98.9737,94.301,0.0016528,0.053608,21.0182,-360.78,0.426179,0.0,0.0
752,187.75,26.9109,28.9472,151.035,98.956,94.3392,,0.0536821,,-360.78,0.421038,0.0,0.0
760,189.75,26.7952,28.6255,147.865,98.919,94.2713,,,,-360.78,0.424085,0.0,0.0
768,191.75,26.4401,28.1686,148.914,98.8925,94.1666,,,,-360.78,0.43152,0.0,0.0
776,193.75,26.4359,27.9716,149.5,98.8636,94.2446,,,,-360.78,0.42164,0.0,0.0
784,195.75,26.6163,28.4756,148.565,98.8499,94.1131,,,,-360.77,0.432724,0.0,0.0
788,196.75,25.8421,26.9429,148.184,98.8475,94.1835,,,,-360.77,0.42592,0.0,0.0

File: Rebond_Foam_Carpet_Pad_Cone_HF50Scalar_220414_R1.csv
LABORATORY,FSRI
TEST IDENT,Rebond_Foam_HF50_1
OPERATOR,Dow
MATERIAL,Rebond Foam Carpet Padding
ORIENTATION,Horizontal
HEAT FLUX,50
SURF AREA,0.01
C FACTOR,0.0401286
SPEC HOLDER DIFF,-566
SPECIMEN MASS,7.72
SCAN TIME,0.25
O2 DELAY TIME,11
CO DELAY TIME,11
CO2 DELAY TIME,8
FLOW FACTOR,1
SCAN COUNT,762
TIME TO IGN,2
END OF TEST SCAN,282
END OF TEST TIME,70.5
TEST STATUS,1
PRE TEST CMT,Dimensions: 100.20 x 98.01 x 9.06 mm
POST TEST CMT,As flames extinguished at end of test the foil pan folded in on itself. See post test pictures.

File: Rebond_Foam_Carpet_Pad_Cone_HF50Scalar_220414_R2.csv
LABORATORY,FSRI
TEST IDENT,Rebond_Foam_HF50_2
OPERATOR,Dow
MATERIAL,Rebond Foam Carpet Padding
ORIENTATION,Horizontal
HEAT FLUX,50
SURF AREA,0.01
C FACTOR,0.0401286
SPEC HOLDER DIFF,-566
SPECIMEN MASS,7.92
SCAN TIME,0.25
O2 DELAY TIME,11
CO DELAY TIME,11
CO2 DELAY TIME,8
FLOW FACTOR,1
SCAN COUNT,671
TIME TO IGN,1.25
END OF TEST SCAN,191
END OF TEST TIME,47.75
TEST STATUS,1
PRE TEST CMT,Dimensions: 100.58 x 101.37 x 8.82 mm
POST TEST CMT,As flames extinguished at end of test the corners of the foil pan lifted up.

File: Rebond_Foam_Carpet_Pad_Cone_HF50Scalar_220414_R3.csv
LABORATORY,FSRI
TEST IDENT,Rebond_Foam_HF50_3
OPERATOR,Dow
MATERIAL,Rebond Foam Carpet Padding
ORIENTATION,Horizontal
HEAT FLUX,50
SURF AREA,0.01
C FACTOR,0.0401286
SPEC HOLDER DIFF,-566
SPECIMEN MASS,7.11
SCAN TIME,0.25
O2 DELAY TIME,11
CO DELAY TIME,11
CO2 DELAY TIME,8
FLOW FACTOR,1
SCAN COUNT,682
TIME TO IGN,1.25
END OF TEST SCAN,202
END OF TEST TIME,50.5
TEST STATUS,1
PRE TEST CMT,Dimensions: 98.16 x 100.46 x 8.96 mm
POST TEST CMT,As flames extinguished at end of test the foil pan folded in on itself.

File: Rebond_Foam_Carpet_Pad_Cone_HF50Scan_220414_R1.csv
Names,Time,Stack TC,Smoke TC,Exh Press,Smoke Comp,Smoke Meas,CO Meter,CO2 Meter,O2 Meter,Sample Mass,Ext Coeff,Start Test,Flame Verif
Chan Gain,,500,500,1,1,1,1,1,1,1,1,1.0,1.0
Offset,,0,0,0.134258,0,0,0,0,0,0,0,0.0,0.0
Gain,,1,1,25.011,13.171,13.8983,1,1,1,1.00092,1.00459,1.0,1.0
Units,sec,C,C,Pa,%,%,%,%,%,g,/m,,
Baseline,,29.4139,30.27,150.589,101.544,100.573,0.00142752,0.0475958,21.0264,-832.359,0.0847568,,
8,1.75,27.3933,29.177,144.172,101.548,89.2775,0.00380001,0.114801,20.9097,-350.491,1.13484,0.0,1.0
16,3.75,27.9809,29.1519,134.348,101.553,81.7706,0.0071948,0.193695,20.7774,-350.671,1.90925,0.0,1.0
24,5.75,28.8394,29.6827,132.057,101.549,78.3414,0.0108817,0.283436,20.6398,-350.911,2.28643,0.0,1.0
32,7.75,30.087,30.5261,135.715,101.55,77.1181,0.0139536,0.36953,20.5188,-351.151,2.42522,0.0,1.0
40,9.75,31.818,31.7309,131.83,101.558,82.1133,0.0161582,0.440372,20.4279,-351.432,1.87285,0.0,0.0
48,11.75,34,34.2202,135.512,101.548,82.1463,0.0174361,0.486104,20.3679,-351.682,1.86847,0.0,0.0
56,13.75,35.4436,36.4367,127.764,101.558,79.2702,0.0182799,0.511719,20.3279,-351.972,2.18337,0.0,0.0
64,15.75,36.6556,37.87,130.568,101.552,75.4691,0.0192881,0.536875,20.2752,-352.232,2.61591,0.0,0.0
72,17.75,39.3496,39.9786,120.205,101.554,75.0712,0.0209719,0.596018,20.2003,-352.543,2.66263,0.0,0.0
80,19.75,40.8956,42.2424,111.555,101.548,72.5849,0.0229339,0.716818,20.0647,-352.933,2.9589,0.0,0.0
88,21.75,44.4526,44.9424,106.644,101.544,71.6221,0.0255104,0.890456,19.7557,-353.403,3.07623,0.0,0.0
96,23.75,48.5007,49.6207,94.413,101.54,72.5514,0.0282478,1.17384,19.2865,-353.974,2.96231,0.0,0.0
104,25.75,54.3733,55.392,90.7203,101.531,76.0306,0.0306528,1.51601,18.7757,-354.624,2.54877,0.0,0.0
112,27.75,61.7482,64.1576,85.4522,101.535,78.7719,0.0319564,1.86377,18.2609,-355.295,2.23696,0.0,0.0
120,29.75,70.2574,73.8651,79.4277,101.526,80.6971,0.0319759,2.15418,17.9199,-355.936,2.02337,0.0,0.0
128,31.75,79.4311,84.0749,84.795,101.515,79.4191,0.0304817,2.24177,17.823,-356.526,2.16313,0.0,0.0
136,33.75,86.5183,93.4242,94.7138,101.505,79.1256,0.0275777,2.12638,18.0967,-356.927,2.19489,0.0,0.0
144,35.75,91.4762,100.061,108.01,101.48,79.0747,0.0241486,1.79572,18.6796,-357.227,2.1984,0.0,0.0
152,37.75,93.6928,103.112,118.929,101.475,81.2221,0.0211448,1.39966,19.1521,-357.497,1.96179,0.0,0.0
160,39.75,93.9743,103.789,132.956,101.455,85.4288,0.0173582,1.02961,19.6252,-357.637,1.51513,0.0,0.0
168,41.75,93.2317,103.369,132.492,101.453,90.4897,0.013986,0.788729,19.9908,-357.767,1.00776,0.0,0.0
176,43.75,91.3571,101.077,135.318,101.438,96.3662,0.0109389,0.572492,20.3045,-357.807,0.452041,0.0,0.0
184,45.75,89.0571,98.7663,148.772,101.427,101.756,0.00957723,0.405344,20.538,-357.807,-0.0284999,0.0,0.0
192,47.75,86.7511,96.491,145.298,101.416,102.708,0.0097496,0.282442,20.711,-357.817,-0.111559,0.0,0.0
200,49.75,84.3197,93.9698,144.752,101.392,101.089,0.010575,0.203846,20.818,-357.827,0.0263219,0.0,0.0
208,51.75,81.7478,91.1013,145.711,101.373,101.897,0.0112891,0.155215,20.8814,-357.837,-0.0454407,0.0,0.0
216,53.75,79.6226,89.152,149.252,101.359,101.431,0.0118199,0.127114,20.9197,-357.847,-0.00625952,0.0,0.0
224,55.75,77.637,86.5295,148.486,101.347,101.634,0.0121449,0.109638,20.9441,-357.857,-0.0249405,0.0,0.0
232,57.75,74.737,84.329,147.368,101.33,101.57,0.0121023,0.0982571,20.9613,-357.877,-0.0207808,0.0,0.0
240,59.75,73.1417,81.7757,151.763,101.319,102.984,0.0117453,0.09049,20.9714,-357.877,-0.143636,0.0,0.0
248,61.75,71.2732,80.276,145.824,101.303,101.813,0.0113937,0.0850978,20.9781,-357.887,-0.0442186,0.0,0.0
256,63.75,69.938,78.2426,149.197,101.301,102.074,0.0111647,0.0807917,20.9846,-357.908,-0.0670134,0.0,0.0
264,65.75,68.125,76.338,148.153,101.289,101.509,0.0110028,0.0776264,20.9888,-357.918,-0.0191193,0.0,0.0
272,67.75,66.4663,74.7128,145.825,101.28,102.095,0.0106775,0.0749161,20.9916,-357.918,-0.0706623,0.0,0.0
280,69.75,64.8765,73.1613,148.049,101.28,102.68,0.010415,0.0719036,20.9959,-357.928,-0.120933,0.0,0.0
288,71.75,62.854,70.9078,147.073,101.26,101.474,0.0102506,0.0696284,20.9984,-357.9375,-0.0186509,0.0,0.0
296,73.75,61.7061,69.4909,146.483,101.252,101.857,0.0101312,0.0679274,21,-357.948,-0.0525136,0.0,0.0
304,75.75,60.393,68.0395,143.755,101.236,102.166,0.0100217,0.0664508,21.0017,-357.958,-0.0805516,0.0,0.0
312,77.75,58.8218,66.331,147.321,101.243,102.148,0.00995263,0.064389,21.0057,-357.958,-0.0784554,0.0,0.0
320,79.75,57.4225,64.9532,147.845,101.222,101.889,0.00980035,0.06212,21.0082,-357.958,-0.057853,0.0,0.0
328,81.75,56.411,64.1761,147.509,101.228,101.008,0.00938832,0.0602094,21.0103,-357.978,0.0191948,0.0,0.0
336,83.75,55.1421,62.3167,148.175,101.228,101.06,0.00893201,0.0586597,21.0122,-357.978,0.01468,0.0,0.0
344,85.75,54.4311,61.9192,146.957,101.226,101.646,0.00852126,0.0571847,21.0145,-357.998,-0.0365316,0.0,0.0
352,87.75,53.0018,59.9697,145.775,101.223,102.117,0.00799857,0.0560417,21.0159,-357.998,-0.0774619,0.0,0.0
360,89.75,52.9239,59.6201,152.627,101.216,102.232,0.00742937,0.0550718,21.0169,-357.998,-0.0880782,0.0,0.0
368,91.75,51.8562,58.1003,152.037,101.232,100.989,0.00693053,0.0542124,21.0179,-358.018,0.0211359,0.0,0.0
376,93.75,50.586,57.7527,148.323,101.231,101.614,0.00654181,0.0534084,21.0196,-358.018,-0.0332094,0.0,0.0
384,95.75,50.232,56.4298,147.533,101.24,101.505,0.00630105,0.05282,21.0214,-358.028,-0.0230186,0.0,0.0
392,97.75,49.7924,55.8385,152.412,101.243,101.486,0.00617159,0.0522457,21.0222,-358.038,-0.0211146,0.0,0.0
400,99.75,48.4855,55.0626,147.755,101.244,102.029,0.00595857,0.0519498,21.0235,-358.048,-0.0680624,0.0,0.0
408,101.75,48.0699,54.4395,147.687,101.246,101.69,0.00550764,0.0515594,21.0244,-358.048,-0.0386405,0.0,0.0
416,103.75,46.8966,53.3165,144.495,101.247,101.721,0.00522303,0.0511012,21.0244,-358.058,-0.0411463,0.0,0.0
424,105.75,46.9822,52.4191,146.875,101.262,101.241,0.00514035,0.0507639,21.0244,-358.058,0.00180457,0.0,0.0
432,107.75,46.3653,51.9492,147.826,101.276,101.368,0.00501153,0.0504082,21.025,-358.058,-0.00796638,0.0,0.0
440,109.75,45.49,51.3282,149.768,101.261,101.357,0.0047454,0.0500638,21.0259,-358.078,-0.00841063,0.0,0.0
448,111.75,44.9266,50.1968,144.421,101.291,102.067,0.0045322,0.0499342,21.0263,-358.068,-0.0672669,0.0,0.0
456,113.75,44.5956,49.5004,146.948,101.304,101.171,0.00427369,0.0497114,21.0265,-358.048,0.011571,0.0,0.0
464,115.75,43.7778,49.1437,150.416,101.319,101.748,0.0040992,0.0493477,21.0266,-358.058,-0.0372727,0.0,0.0
472,117.75,43.6488,48.9459,146.013,101.301,101.74,0.00397758,0.0490938,21.0266,-358.068,-0.0380782,0.0,0.0
480,119.75,42.6928,47.9501,146.41,101.319,101.681,0.00389687,0.0488522,21.0266,-358.088,-0.031397,0.0,0.0
488,121.75,42.4573,46.9713,145.74,101.343,101.265,0.00380712,0.0487329,21.0274,-358.088,0.0068361,0.0,0.0
496,123.75,42.5082,46.7984,146.501,101.335,101.29,0.00373935,0.0485425,21.0282,-358.088,0.00392274,0.0,0.0
504,125.75,41.7258,46.401,147.735,101.333,101.24,0.00369534,0.0483295,21.0287,-358.088,0.00806834,0.0,0.0
512,127.75,41.287,45.82,146.13,101.339,101.369,0.003605,0.0481448,21.0288,-358.098,-0.00266079,0.0,0.0
520,129.75,41.2698,45.223,147.384,101.339,100.811,0.00340341,0.0482813,21.0289,-358.108,0.0460688,0.0,0.0
528,131.75,40.8123,44.813,147.192,101.341,102.145,0.00321389,0.04851,21.0289,-358.108,-0.0695955,0.0,0.0
536,133.75,40.2484,45.1679,149.847,101.344,101.403,0.00313736,0.0485141,21.029,-358.108,-0.00518942,0.0,0.0
544,135.75,40.3025,43.9961,146.247,101.353,101.441,0.00308571,0.048259,21.0291,-358.108,-0.0076683,0.0,0.0
552,137.75,40.1946,43.6778,147.998,101.355,100.942,0.00306278,0.0481157,21.0283,-358.118,0.0359461,0.0,0.0
560,139.75,39.423,43.5933,152.995,101.354,101.443,0.00306409,0.0479715,21.0277,-358.118,-0.00767356,0.0,0.0
568,141.75,39.5669,42.7918,150.158,101.366,101.528,0.0029946,0.0478979,21.0275,-358.128,-0.0140259,0.0,0.0
576,143.75,39.1622,42.241,146.316,101.358,101.599,0.0028225,0.0477434,21.0287,-358.128,-0.0209445,0.0,0.0
584,145.75,39.2297,42.8986,152.198,101.376,102.335,0.00262614,0.0476575,21.029,-358.128,-0.0829325,0.0,0.0
592,147.75,38.5193,42.0802,146.362,101.381,101.492,0.00245078,0.0474836,21.0289,-358.138,-0.00964255,0.0,0.0
600,149.75,37.8989,41.3695,145.615,101.389,101.097,0.00240336,0.0473583,21.0288,-358.138,0.0253394,0.0,0.0
608,151.75,37.7885,41.168,144.508,101.405,101.313,0.0024634,0.0472796,21.0288,-358.138,0.00804525,0.0,0.0
616,153.75,38.0424,41.0491,144.957,101.423,101.548,0.00252622,0.0471283,21.0278,-358.138,-0.0109046,0.0,0.0
624,155.75,37.0171,40.4504,147.593,101.449,101.269,0.00255672,0.0470972,21.027,-358.138,0.0156176,0.0,0.0
632,157.75,37.7489,40.7823,149.354,101.45,100.579,0.00256352,0.0469465,21.0267,-358.148,0.0760141,0.0,0.0
640,159.75,36.8199,40.0822,144.49,101.464,102.75,0.00246487,0.0469634,21.0284,-358.158,-0.11104,0.0,0.0
648,161.75,37.0863,40.0276,144.819,101.467,101.989,0.0023025,0.0469033,21.0299,-358.158,-0.0452222,0.0,0.0
656,163.75,36.6893,39.9952,146.613,101.481,102.024,0.00217713,0.0469061,21.0313,-358.148,-0.0470079,0.0,0.0
664,165.75,37.2539,39.6346,150.301,101.504,102.211,0.00214417,0.0468283,21.031,-358.168,-0.0611231,0.0,0.0
672,167.75,37.0201,39.1316,148.367,101.501,102.832,0.00214905,0.0468307,21.0317,-358.168,-0.114775,0.0,0.0
680,169.75,36.7535,39.6376,145.963,101.509,102.592,0.00218417,0.0467704,21.032,-358.168,-0.0935523,0.0,0.0
688,171.75,36.3998,39.2788,150.167,101.518,100.413,0.00227239,0.0467725,21.0322,-358.168,0.0964201,0.0,0.0
696,173.75,36.3132,38.9853,152.174,101.535,101.106,0.00228406,0.0467078,21.0322,-358.168,0.037236,0.0,0.0
704,175.75,36.514,38.7949,144.535,101.522,101.454,0.00221102,0.0465522,21.0323,-358.178,0.00589238,0.0,0.0
712,177.75,35.8131,38.4819,144.837,101.541,101.452,0.00206485,0.0464741,21.0323,-358.178,0.00768,0.0,0.0
720,179.75,36.1156,38.3407,147.042,101.54,101.459,,0.0463124,,-358.178,0.00705758,0.0,0.0
728,181.75,35.7856,38.048,146.091,101.551,102.069,,0.0462656,,-358.178,-0.0448537,0.0,0.0
736,183.75,36.0503,38.004,151.695,101.544,101.192,,,,-358.178,0.0306454,0.0,0.0
744,185.75,35.4913,37.6515,150.052,101.544,101.069,,,,-358.178,0.0412907,0.0,0.0
752,187.75,35.6503,38.1927,151.618,101.549,101.843,,,,-358.188,-0.0254167,0.0,0.0
760,189.75,35.3851,37.4872,145.814,101.535,100.793,,,,-358.208,0.0645974,0.0,0.0
762,190.25,35.706,37.4661,151.872,101.515,101.065,,,,-358.198,0.0391846,0.0,0.0