Folder: fsri_materials_database/01_Data/Rebond_Foam_Carpet_Pad/Cone

Note: 01_Data/README.md
# Materials and Products Database
## 01_Data

Raw data generated from each apparatus are included here in plain-text format. The data is organized first by material, next by the short name of test apparatus used, and where applicable additional filtering by test settings.

### material.json

Each material directory contains a json file of the same name as the material. This file links the data stored in the repository as well as data and graphs produced by the accompanying scripts (__02_Scripts__) to the respective landing page for the material on the front-end website.

File: Rebond_Foam_Carpet_Pad_Cone_HF25Scalar_220413_R1.csv
LABORATORY,FSRI
TEST IDENT,Rebond_Foam_HF25_1
OPERATOR,Dow
MATERIAL,Rebond Foam Carpet Padding
ORIENTATION,Horizontal
HEAT FLUX,25
SURF AREA,0.01
C FACTOR,0.040064
SPEC HOLDER DIFF,-566
SPECIMEN MASS,7.74
SCAN TIME,0.25
O2 DELAY TIME,11
CO DELAY TIME,11
CO2 DELAY TIME,8
FLOW FACTOR,1
SCAN COUNT,802
TIME TO IGN,6.5
END OF TEST SCAN,322
END OF TEST TIME,80.5
TEST STATUS,1
PRE TEST CMT,Dimensions: 99.49 x 99.47 x 9.10 mm
POST TEST CMT,Near end of test the corners of the foil pan lifted up.

File: Rebond_Foam_Carpet_Pad_Cone_HF25Scalar_220413_R2.csv
LABORATORY,FSRI
TEST IDENT,Rebond_Foam_HF25_2
OPERATOR,Dow
MATERIAL,Rebond Foam Carpet Padding
ORIENTATION,Horizontal
HEAT FLUX,25
SURF AREA,0.01
C FACTOR,0.040064
SPEC HOLDER DIFF,-566
SPECIMEN MASS,8.48
SCAN TIME,0.25
O2 DELAY TIME,11
CO DELAY TIME,11
CO2 DELAY TIME,8
FLOW FACTOR,1
SCAN COUNT,758
TIME TO IGN,8
END OF TEST SCAN,278
END OF TEST TIME,69.5
TEST STATUS,1
PRE TEST CMT,Dimensions: 98.23 x 102.78 x 9.23 mm
POST TEST CMT,As flames extinguished at end of test the corners of the foil pan lifted up. See test pictures.

File: Rebond_Foam_Carpet_Pad_Cone_HF25Scalar_220413_R3.csv
LABORATORY,FSRI
TEST IDENT,Rebond_Foam_HF25_3
OPERATOR,Dow
MATERIAL,Rebond Foam Carpet Padding
ORIENTATION,Horizontal
HEAT FLUX,25
SURF AREA,0.01
C FACTOR,0.040064
SPEC HOLDER DIFF,-566
SPECIMEN MASS,7.46
SCAN TIME,0.25
O2 DELAY TIME,11
CO DELAY TIME,11
CO2 DELAY TIME,8
FLOW FACTOR,1
SCAN COUNT,788
TIME TO IGN,7.75
END OF TEST SCAN,308
END OF TEST TIME,77
TEST STATUS,1
PRE TEST CMT,Dimensions: 98.20 x 100.11 x 9.16 mm
POST TEST CMT,As flames extinguished at end of test the corners of the foil pan lifted up.

File: Rebond_Foam_Carpet_Pad_Cone_HF25Scan_220413_R1.csv
Names,Time,Stack TC,Smoke TC,Exh Press,Smoke Comp,Smoke Meas,CO Meter,CO2 Meter,O2 Meter,Sample Mass,Ext Coeff,Start Test,Flame Verif
Chan Gain,,500,500,1,1,1,1,1,1,1,1,1.0,1.0
Offset,,0,0,0.132909,0,0,0,0,0,0,0,0.0,0.0
Gain,,1,1,25.011,13.171,13.8983,1,1,1,1.00092,1.00459,1.0,1.0
Units,sec,C,C,Pa,%,%,%,%,%,g,/m,,
Baseline,,21.9445,22.439,151.154,99.5335,94.859,0.000913108,0.0562125,21.011,-833.836,0.4239,,
9,2,19.8197,20.3919,151.285,100.083,95.0462,0.000674835,0.065151,21.0021,-351.742,0.455074,0.0,0.0
18,4.25,20.5251,20.4522,152.326,100.09,93.5736,0.000917311,0.0633968,21.0015,-351.732,0.593208,0.0,0.0
27,6.5,20.0332,20.5007,145.302,100.091,91.9547,0.0016643,0.0787029,20.9574,-351.852,0.747112,0.0,1.0
36,8.75,20.4644,20.7845,141.317,100.092,85.6867,0.00343036,0.132738,20.8431,-351.962,1.36935,0.0,1.0
45,11,21.329,21.6034,137.859,100.096,83.9778,0.00546043,0.209764,20.7329,-352.172,1.54726,0.0,1.0
54,13.25,22.8678,22.4151,133.124,100.08,82.7987,0.00744635,0.274663,20.6565,-352.342,1.67041,0.0,1.0
63,15.5,23.4964,23.2165,138.801,100.096,83.1121,0.00918947,0.320397,20.604,-352.563,1.6385,0.0,0.0
72,17.75,25.2855,24.6541,140.8,100.096,83.2534,0.0103572,0.35364,20.5699,-352.783,1.62353,0.0,0.0
81,20,26.3479,25.8802,132.306,100.082,80.1482,0.0111557,0.371555,20.5532,-353.023,1.95733,0.0,0.0
90,22.25,27.4981,27.3791,134.987,100.078,81.3545,0.0117827,0.383783,20.5406,-353.203,1.8253,0.0,0.0
99,24.5,28.6529,28.0838,137.471,100.075,79.1375,0.0124809,0.394788,20.521,-353.443,2.06849,0.0,0.0
108,26.75,29.894,30.1962,137.692,100.08,78.7591,0.0132763,0.408244,20.4954,-353.684,2.11118,0.0,0.0
117,29,31.3422,30.9773,129.797,100.045,77.133,0.0145731,0.436973,20.4393,-353.884,2.29196,0.0,0.0
126,31.25,32.7405,33.1034,131.959,100.04,79.2265,0.0157109,0.492155,20.3199,-354.204,2.05553,0.0,0.0
135,33.5,35.0022,35.3568,121.245,100.026,79.1926,0.0163457,0.574328,20.1773,-354.554,2.05811,0.0,0.0
144,35.75,37.8033,38.3391,113.631,100.014,78.564,0.0165132,0.667356,20.0455,-354.905,2.12727,0.0,0.0
153,38,40.7672,41.2302,115.207,99.9967,80.6126,0.0162268,0.76203,19.8883,-355.265,1.89887,0.0,0.0
162,40.25,43.987,44.7204,111.988,99.9822,83.1198,0.0157313,0.863766,19.7643,-355.685,1.6277,0.0,0.0
171,42.5,48.0677,49.8225,105.404,99.9392,84.1848,0.015119,0.95149,19.6306,-356.176,1.51172,0.0,0.0
180,44.75,51.8435,53.7061,109.25,99.9175,86.9795,0.0143955,1.05289,19.4621,-356.596,1.22201,0.0,0.0
189,47,56.7631,58.9756,105.842,99.9046,88.4279,0.0137153,1.14171,19.3685,-357.047,1.07534,0.0,0.0
198,49.25,60.8822,64.2086,105.387,99.8857,88.1628,0.0130754,1.18037,19.3396,-357.487,1.10013,0.0,0.0
207,51.5,64.9705,68.4619,104.261,99.8672,88.6972,0.0124644,1.16171,19.3946,-357.847,1.04524,0.0,0.0
216,53.75,67.6103,72.0167,110.779,99.8548,87.8447,0.0118337,1.08483,19.567,-358.158,1.12925,0.0,0.0
225,56,69.7075,74.5045,124.005,99.8391,83.7725,0.0115954,0.958963,19.7405,-358.418,1.54615,0.0,0.0
234,58.25,70.3442,76.1558,129.673,99.8282,80.3259,0.0116984,0.815016,19.9285,-358.628,1.91541,0.0,0.0
243,60.5,70.4643,75.7977,130.675,99.7973,78.458,0.0113748,0.696142,20.1404,-358.818,2.12002,0.0,0.0
252,62.75,69.5241,75.0132,137.771,99.7816,84.5101,0.010331,0.559603,20.3054,-358.938,1.46383,0.0,0.0
261,65,67.9469,74.0907,138.026,99.7651,86.2813,0.00871231,0.449582,20.4582,-359.029,1.27959,0.0,0.0
270,67.25,66.8746,72.1804,143.287,99.7302,92.3593,0.00770195,0.345229,20.6228,-359.059,0.67662,0.0,0.0
279,69.5,64.8203,70.5853,147.075,99.7065,94.4855,0.00721484,0.258591,20.7502,-359.049,0.473954,0.0,0.0
288,71.75,63.1493,69.1339,148.004,99.6811,94.6395,0.00692927,0.190804,20.8447,-359.049,0.457369,0.0,0.0
297,74,61.4938,66.8056,144.499,99.6695,95.1005,0.00642581,0.144266,20.9018,-359.029,0.413513,0.0,0.0
306,76.25,59.4142,64.9369,147.675,99.6413,95.0734,0.00557167,0.118202,20.9384,-359.019,0.41354,0.0,0.0
315,78.5,58.0173,63.2179,145.614,99.6188,95.0993,0.00453567,0.0999567,20.9589,-359.039,0.409152,0.0,0.0
324,80.75,56.1496,61.4058,149.587,99.6144,95.0577,0.00368729,0.0889431,20.9744,-359.049,0.412613,0.0,0.0
333,83,53.3033,59.5924,148.966,99.6044,94.8885,0.00325603,0.0816302,20.9842,-359.039,0.427427,0.0,0.0
342,85.25,51.6635,57.2453,149.4,99.5827,95.1124,0.00301245,0.0764187,20.9911,-359.039,0.404734,0.0,0.0
351,87.5,51.1158,55.902,151.929,99.5843,94.7913,0.00278776,0.0720262,20.9943,-359.049,0.434675,0.0,0.0
360,89.75,49.433,54.4352,148.379,99.5847,94.835,0.0026018,0.0685344,20.9983,-359.039,0.43065,0.0,0.0
369,92,47.7499,53.3328,148.11,99.5722,94.7154,0.00248665,0.0659185,21.002,-359.039,0.440668,0.0,0.0
378,94.25,46.9437,51.9865,152.021,99.5606,94.8507,0.00237537,0.0632938,21.006,-359.039,0.427057,0.0,0.0
387,96.5,45.6871,50.4765,148.551,99.5654,94.8057,0.0022148,0.0613224,21.0088,-359.049,0.431662,0.0,0.0
396,98.75,44.2092,49.4368,146.611,99.5678,94.768,0.00206067,0.0599173,21.0099,-359.049,0.435384,0.0,0.0
405,101,43.3793,47.8523,150.128,99.6172,94.8185,0.00195597,0.058743,21.0111,-359.049,0.435066,0.0,0.0
414,103.25,42.2927,47.378,150.36,99.6679,95.056,0.00185868,0.0580464,21.0116,-359.049,0.417498,0.0,0.0
423,105.5,41.2702,46.7267,150.918,99.7097,94.9797,0.00188712,0.0573963,21.0126,-359.069,0.428275,0.0,0.0
432,107.75,40.3539,45.4881,146.3,99.7374,95.0895,0.00201973,0.0568663,21.0136,-359.069,0.42054,0.0,0.0
441,110,39.8275,44.3004,151.747,99.7816,95.1027,0.00218396,0.0564455,21.0138,-359.049,0.423226,0.0,0.0
450,112.25,38.4171,43.6082,149.223,99.8447,95.1714,0.00237585,0.0563054,21.0135,-359.059,0.422433,0.0,0.0
459,114.5,38.3241,42.8978,149.765,99.8781,94.986,0.0024359,0.0562725,21.0134,-359.059,0.442556,0.0,0.0
468,116.75,37.3866,41.866,150.675,99.9054,95.3228,0.00247937,0.0563825,21.0133,-359.059,0.413779,0.0,0.0
477,119,37.057,41.0207,151.769,99.94,95.1862,0.00241613,0.0570105,21.0133,-359.069,0.429462,0.0,0.0
486,121.25,36.3828,39.8207,148.895,99.989,95.3491,0.00225471,0.0578551,21.0123,-359.069,0.41872,0.0,0.0
495,123.5,35.3939,39.3429,146.952,100.026,95.2816,0.00201169,0.0582488,21.0115,-359.069,0.428178,0.0,0.0
504,125.75,34.8531,38.7523,149.283,100.059,95.2766,0.00175041,0.0581392,21.0122,-359.049,0.431587,0.0,0.0
513,128,34.0303,38.2247,148.651,100.1,95.4784,0.00160654,0.057857,21.0129,-359.059,0.416544,0.0,0.0
522,130.25,33.7267,37.3518,151.552,100.121,95.2829,0.00156699,0.0573554,21.0131,-359.069,0.436484,0.0,0.0
531,132.5,32.6907,36.6594,151.499,100.137,95.4055,0.0016293,0.0567975,21.0132,-359.079,0.426535,0.0,0.0
540,134.75,33.2222,36.6909,151.323,100.169,95.3665,0.00165468,0.0563085,21.0137,-359.079,0.432969,0.0,0.0
549,137,31.9383,35.4745,149.793,100.204,95.5035,0.00154815,0.0559397,21.0152,-359.069,0.423359,0.0,0.0
558,139.25,31.0796,34.8717,151.723,100.232,95.5459,0.00148825,0.0556283,21.016,-359.079,0.42192,0.0,0.0
567,141.5,30.7757,34.2931,151.184,100.247,95.4174,0.00157215,0.0555005,21.0164,-359.079,0.435124,0.0,0.0
576,143.75,31.4167,34.2784,150.396,100.264,95.6078,0.00159681,0.0554363,21.0151,-359.079,0.419003,0.0,0.0
585,146,30.5212,33.5309,151.28,100.293,95.5416,0.00150372,0.055687,21.0146,-359.089,0.427717,0.0,0.0
594,148.25,30.575,32.7904,151.012,100.319,95.7753,0.00132706,0.0558615,21.0144,-359.089,0.408448,0.0,0.0
603,150.5,30.0909,32.9955,148.13,100.324,95.52,0.00118956,0.0557224,21.0143,-359.089,0.432431,0.0,0.0
612,152.75,29.7616,32.8848,150.116,100.353,95.4284,0.00114502,0.0558604,21.0143,-359.089,0.44343,0.0,0.0
621,155,29.9603,31.8557,149.523,100.383,95.7092,0.00116587,0.055899,21.0143,-359.069,0.420185,0.0,0.0
630,157.25,29.0185,31.7011,149.301,100.385,95.7236,0.00115063,0.0558143,21.0143,-359.089,0.418999,0.0,0.0
639,159.5,29.1264,31.2246,150.161,100.424,95.6099,0.00109062,0.0556627,21.0145,-359.099,0.432926,0.0,0.0
648,161.75,28.4434,30.9202,150.369,100.418,95.6379,0.0011474,0.0554644,21.0145,-359.089,0.429818,0.0,0.0
657,164,28.3877,30.812,152.692,100.428,95.6574,0.0011513,0.0551789,21.0146,-359.089,0.428902,0.0,0.0
666,166.25,28.3668,30.2758,147.771,100.43,95.6337,0.00112813,0.0548282,21.0146,-359.099,0.431231,0.0,0.0
675,168.5,28.4946,30.2426,151.203,100.434,95.7842,0.00113413,0.0548522,21.0146,-359.089,0.417685,0.0,0.0
684,170.75,27.1731,29.5666,149.564,100.437,95.6439,0.00121583,0.054777,21.0146,-359.099,0.430928,0.0,0.0
693,173,26.9362,28.9734,148.761,100.434,95.6888,0.00131217,0.0548765,21.0146,-359.099,0.42654,0.0,0.0
702,175.25,27.1221,29.0945,148.509,100.434,95.5955,0.00127001,0.0549092,21.0146,-359.109,0.435067,0.0,0.0
711,177.5,27.0909,28.8242,148.465,100.436,95.6829,0.00117212,0.0547951,21.0146,-359.099,0.427229,0.0,0.0
720,179.75,26.8339,29.0582,151.235,100.43,95.7953,0.00111206,0.0546863,21.0148,-359.099,0.416354,0.0,0.0
729,182,26.605,28.9567,148.89,100.403,95.5951,0.00103652,0.0546742,21.0159,-359.099,0.432389,0.0,0.0
738,184.25,26.773,28.2317,152.503,100.408,95.6082,0.000949336,0.0546895,21.0166,-359.109,0.431637,0.0,0.0
747,186.5,26.3698,28.1196,146.888,100.389,95.6239,0.000912214,0.0545842,21.0171,-359.109,0.428497,0.0,0.0
756,188.75,26.163,28.0757,150.739,100.35,95.4657,0.00096364,0.0545538,21.0173,-359.099,0.439665,0.0,0.0
765,191,26.4027,27.5335,148.774,100.338,95.59,,0.0545715,,-359.089,0.427214,0.0,0.0
774,193.25,25.9647,27.3805,149.098,100.324,95.534,,,,-359.089,0.431105,0.0,0.0
783,195.5,25.8663,27.2779,149.994,100.299,95.548,,,,-359.119,0.427659,0.0,0.0
792,197.75,25.2858,26.742,150.529,100.261,95.3783,,,,-359.119,0.439966,0.0,0.0
801,200,25.1893,27.1356,150.763,100.223,95.4611,,,,-359.129,0.429006,0.0,0.0
802,200.25,25.5486,26.7178,150.469,100.225,95.4275,,,,-359.129,0.432241,0.0,0.0

File: Rebond_Foam_Carpet_Pad_Cone_HF25Scan_220413_R2.csv
Names,Time,Stack TC,Smoke TC,Exh Press,Smoke Comp,Smoke Meas,CO Meter,CO2 Meter,O2 Meter,Sample Mass,Ext Coeff,Start Test,Flame Verif
Chan Gain,,500,500,1,1,1,1,1,1,1,1,1.0,1.0
Offset,,0,0,0.132909,0,0,0,0,0,0,0,0.0,0.0
Gain,,1,1,25.011,13.171,13.8983,1,1,1,1.00092,1.00459,1.0,1.0
Units,sec,C,C,Pa,%,%,%,%,%,g,/m,,
Baseline,,23.5021,23.7019,151.745,100.601,95.7745,0.000645105,0.0548222,21.0171,-833.907,0.433296,,
8,1.75,21.0955,20.9316,151.042,99.8403,94.7837,0.000437464,0.061979,21.0094,-352.302,0.458011,0.0,0.0
16,3.75,20.8209,20.8467,151.237,99.819,93.1787,0.000367663,0.0609679,21.0117,-352.392,0.606625,0.0,0.0
24,5.75,20.6292,20.7976,149.236,99.8094,92.1553,0.000597311,0.0602101,21.0118,-352.443,0.703101,0.0,0.0
32,7.75,20.7455,20.791,144.379,99.782,92.0073,0.00158687,0.0722211,20.976,-352.543,0.714854,0.0,1.0
40,9.75,20.8758,21.311,141.687,99.7635,84.8193,0.00334577,0.128807,20.8649,-352.713,1.43004,0.0,1.0
48,11.75,21.8111,21.3685,137.878,99.7583,80.5876,0.00538954,0.202796,20.7691,-352.853,1.88058,0.0,1.0
56,13.75,22.5565,22.1083,140.762,99.7426,79.8594,0.00753279,0.26493,20.6841,-352.983,1.95919,0.0,1.0
64,15.75,24.2476,23.8227,137.152,99.7045,78.3973,0.00914707,0.320492,20.611,-353.203,2.11864,0.0,0.0
72,17.75,25.1379,24.7602,134.407,99.6707,78.6086,0.0105531,0.369667,20.543,-353.403,2.09194,0.0,0.0
80,19.75,26.0287,25.327,136.844,99.6598,78.4983,0.0118406,0.401158,20.4944,-353.594,2.10335,0.0,0.0
88,21.75,27.3657,27.2421,130.745,99.6373,75.6438,0.0128699,0.429385,20.4517,-353.834,2.42778,0.0,0.0
96,23.75,28.6641,29.1396,130.995,99.6164,75.8576,0.0136789,0.452441,20.4218,-354.074,2.40106,0.0,0.0
104,25.75,30.2684,30.1196,134.542,99.5895,76.6842,0.0146082,0.468491,20.407,-354.314,2.30317,0.0,0.0
112,27.75,31.5849,31.696,130.428,99.577,74.9431,0.0158349,0.489385,20.3758,-354.534,2.50445,0.0,0.0
120,29.75,33.0227,33.1081,128.696,99.567,76.2156,0.0178026,0.527479,20.2756,-354.825,2.3552,0.0,0.0
128,31.75,35.0481,35.1394,117.549,99.5473,75.0063,0.0196831,0.6182,20.0909,-355.195,2.49439,0.0,0.0
136,33.75,37.5414,38.1564,113.93,99.5244,74.0987,0.0210252,0.750216,19.8948,-355.525,2.59965,0.0,0.0
144,35.75,41.2464,41.3402,114.449,99.497,78.637,0.021631,0.89975,19.6826,-355.936,2.07339,0.0,0.0
152,37.75,45.052,45.9953,106.55,99.4838,77.0702,0.0218015,1.04299,19.4549,-356.446,2.24957,0.0,0.0
160,39.75,49.7468,50.7919,104.43,99.4773,76.7894,0.0218801,1.16334,19.2885,-356.897,2.28116,0.0,0.0
168,41.75,54.0149,55.7351,103.959,99.4741,79.3025,0.0216321,1.25922,19.1838,-357.287,1.9971,0.0,0.0
176,43.75,58.2473,60.9167,94.4437,99.4408,80.9626,0.0207185,1.30851,19.1223,-357.807,1.81158,0.0,0.0
184,45.75,62.7418,65.6801,97.667,99.4287,82.1201,0.0195336,1.33,19.0959,-358.198,1.68541,0.0,0.0
192,47.75,66.5603,70.3748,107.949,99.3994,83.4625,0.0182021,1.33182,19.0972,-358.588,1.53993,0.0,0.0
200,49.75,69.9575,73.813,108.327,99.3732,84.0215,0.0167309,1.32611,19.1151,-358.988,1.47878,0.0,0.0
208,51.75,72.9582,77.6947,105.89,99.3503,82.9297,0.0155336,1.29629,19.189,-359.359,1.592,0.0,0.0
216,53.75,75.5738,81.093,109.951,99.3351,84.7468,0.0145095,1.23081,19.308,-359.739,1.39965,0.0,0.0
224,55.75,77.974,83.6178,118.875,99.3073,84.723,0.013815,1.13622,19.4669,-359.979,1.39966,0.0,0.0
232,57.75,78.9615,85.1833,122.638,99.282,83.7386,0.0133434,1.00809,19.6917,-360.2,1.50041,0.0,0.0
240,59.75,79.0154,85.5165,132.187,99.2599,76.1905,0.0128425,0.838534,19.9573,-360.36,2.33087,0.0,0.0
248,61.75,77.8047,84.9065,138.134,99.245,78.9263,0.0118684,0.667698,20.1915,-360.46,2.01869,0.0,0.0
256,63.75,76.8053,83.42,143.411,99.2129,88.2604,0.0105579,0.510152,20.4277,-360.51,1.03082,0.0,0.0
264,65.75,74.376,81.1827,145.971,99.1892,93.535,0.0095565,0.368534,20.6328,-360.5,0.517214,0.0,0.0
272,67.75,72.2051,79.2838,144.818,99.1606,94.8957,0.00883615,0.261779,20.7763,-360.51,0.387411,0.0,0.0
280,69.75,69.7294,77.3023,150.175,99.1441,94.5148,0.00816657,0.186761,20.8594,-360.51,0.421386,0.0,0.0
288,71.75,67.2794,74.4995,149.503,99.1072,94.3948,0.00697661,0.138939,20.9107,-360.51,0.429297,0.0,0.0
296,73.75,65.6598,72.4502,149.64,99.0802,94.4329,0.00562984,0.110499,20.9498,-360.51,0.423339,0.0,0.0
304,75.75,63.996,70.3263,151.148,99.0561,94.273,0.00447473,0.0922856,20.9721,-360.51,0.436128,0.0,0.0
312,77.75,61.9885,68.3919,151.055,99.0501,94.3485,0.00354854,0.0818682,20.9873,-360.52,0.428538,0.0,0.0
320,79.75,60.106,66.4422,150.021,99.0252,94.3943,0.00284806,0.0750951,20.9956,-360.52,0.422042,0.0,0.0
328,81.75,58.1674,64.7802,147.663,99.0075,94.3837,0.00236985,0.0706589,21.0015,-360.51,0.421458,0.0,0.0
336,83.75,56.6977,63.3669,150.196,98.9894,94.4011,0.00211689,0.0674995,21.0052,-360.51,0.418226,0.0,0.0
344,85.75,55.5317,61.7078,149.819,98.9701,94.2866,0.00192467,0.0651505,21.0089,-360.51,0.427205,0.0,0.0
352,87.75,54.0991,60.4462,151.27,98.95,94.3651,0.00172346,0.0633991,21.0117,-360.51,0.418084,0.0,0.0
360,89.75,52.9707,58.6902,148.704,98.9319,94.3761,0.00156149,0.0618893,21.0134,-360.52,0.415444,0.0,0.0
368,91.75,51.3182,56.9556,150.076,98.9319,94.2391,0.00149236,0.0609365,21.0141,-360.51,0.428245,0.0,0.0
376,93.75,50.1663,56.2123,146.892,98.8977,94.3218,0.00150584,0.0602199,21.0134,-360.51,0.417471,0.0,0.0
384,95.75,48.0735,55.2528,150.232,98.901,94.2747,0.00157709,0.05943,21.0125,-360.52,0.422156,0.0,0.0
392,97.75,47.6348,53.5058,149.623,98.8913,94.1742,0.00162969,0.058804,21.0131,-360.53,0.430699,0.0,0.0
400,99.75,46.4708,52.2305,147.891,98.8837,94.346,0.00164009,0.0584225,21.0136,-360.52,0.413958,0.0,0.0
408,101.75,45.8197,52.038,148.42,98.8507,94.1678,0.00153338,0.0581769,21.0138,-360.51,0.427675,0.0,0.0
416,103.75,44.8257,50.4925,145.711,98.8431,94.0822,0.00132678,0.058253,21.0139,-360.51,0.435015,0.0,0.0
424,105.75,44.1892,49.6485,151.563,98.8443,94.125,0.00119099,0.0583649,21.014,-360.52,0.431112,0.0,0.0
432,107.75,43.2217,48.564,149.673,98.819,94.0762,0.0012505,0.058408,21.014,-360.52,0.433421,0.0,0.0
440,109.75,41.5706,47.5024,150.179,98.8194,94.1674,0.00141476,0.0579609,21.0144,-360.52,0.424919,0.0,0.0
448,111.75,41.752,46.8912,147.833,98.8141,94.2251,0.00146595,0.0574912,21.0155,-360.53,0.419057,0.0,0.0
456,113.75,41.0074,45.7224,148.054,98.8117,94.0669,0.00131552,0.0569682,21.0169,-360.53,0.433651,0.0,0.0
464,115.75,39.6135,44.8795,149.825,98.8077,94.2387,0.00110334,0.0566255,21.0179,-360.52,0.417214,0.0,0.0
472,117.75,39.1627,43.891,150.675,98.8089,94.2081,0.000904238,0.0562751,21.0183,-360.53,0.420177,0.0,0.0
480,119.75,38.4563,43.3743,148.029,98.8025,94.1721,0.000791314,0.0558928,21.0185,-360.51,0.422977,0.0,0.0
488,121.75,38.1624,42.6444,146.998,98.7969,94.0987,0.000843841,0.0555837,21.0186,-360.52,0.429345,0.0,0.0
496,123.75,37.7178,41.9501,148.505,98.8013,94.1555,0.000915363,0.0554529,21.0186,-360.52,0.424417,0.0,0.0
504,125.75,36.4351,40.4258,148.408,98.8105,94.1852,0.00099216,0.0553671,21.0187,-360.52,0.422464,0.0,0.0
512,127.75,36.4577,40.718,148.738,98.8117,94.2268,0.00109444,0.0552536,21.0187,-360.53,0.418683,0.0,0.0
520,129.75,35.657,39.4437,149.286,98.8165,94.4088,0.00116395,0.0551128,21.0187,-360.53,0.402112,0.0,0.0
528,131.75,34.7112,39.3168,150.588,98.837,94.2815,0.00115286,0.0549227,21.0187,-360.53,0.415826,0.0,0.0
536,133.75,34.5773,38.0001,146.278,98.8503,94.1636,0.00120019,0.054901,21.0187,-360.53,0.428036,0.0,0.0
544,135.75,34.7677,38.0591,152.53,98.8455,94.0758,0.00126731,0.0547086,21.0187,-360.53,0.435827,0.0,0.0
552,137.75,33.8715,37.6656,147.958,98.8628,94.346,0.00133231,0.0547044,21.0187,-360.54,0.412096,0.0,0.0
560,139.75,33.9257,37.0867,152.075,98.876,94.0843,0.00138533,0.0546465,21.0187,-360.52,0.437756,0.0,0.0
568,141.75,33.2454,37.0685,151.328,98.8941,94.2785,0.00132825,0.0545999,21.0187,-360.53,0.421191,0.0,0.0
576,143.75,33.1513,36.2021,149.718,98.907,94.2709,0.00118273,0.0545279,21.0187,-360.53,0.423051,0.0,0.0
584,145.75,33.1111,36.3104,153.418,98.9367,94.0979,0.00102618,0.0545705,21.0187,-360.54,0.441892,0.0,0.0
592,147.75,32.1385,35.3328,146.673,98.9608,94.1992,0.000962398,0.0543669,21.0187,-360.54,0.434552,0.0,0.0
600,149.75,31.5234,34.9497,148.845,98.9641,94.2777,0.000980574,0.054237,21.0173,-360.54,0.4275,0.0,0.0
608,151.75,31.3531,34.3775,152.688,98.9898,94.206,0.000942108,0.0541581,21.0168,-360.54,0.436492,0.0,0.0
616,153.75,30.9961,33.6306,146.106,99.0163,94.2989,0.000926516,0.0540967,21.0173,-360.55,0.43017,0.0,0.0
624,155.75,30.9098,33.9046,150.091,99.0344,94.237,0.000937498,0.0541602,21.0181,-360.55,0.437568,0.0,0.0
632,157.75,30.5635,33.1694,149.229,99.0517,94.223,0.000925825,0.0544187,21.018,-360.52,0.440415,0.0,0.0
640,159.75,30.1659,33.2311,150.544,99.0714,94.3137,0.000989849,0.0543345,21.017,-360.54,0.433683,0.0,0.0
648,161.75,29.8084,32.0662,147.446,99.0927,94.5169,0.00108807,0.0544359,21.0166,-360.53,0.416614,0.0,0.0
656,163.75,29.6327,32.6115,150.007,99.1204,94.2938,0.00117802,0.0546057,21.0165,-360.54,0.439906,0.0,0.0
664,165.75,29.5012,32.3334,149.618,99.151,94.4736,0.00126461,0.0547518,21.0159,-360.52,0.425831,0.0,0.0
672,167.75,29.8757,31.6509,151.95,99.1847,94.5233,0.00132075,0.0549199,21.0148,-360.52,0.424203,0.0,0.0
680,169.75,28.7432,31.4168,148.48,99.2145,94.4792,0.00123249,0.0550513,21.0144,-360.54,0.430959,0.0,0.0
688,171.75,28.8387,31.0106,150.157,99.2603,94.5474,0.00101533,0.0552147,21.0142,-360.55,0.428661,0.0,0.0
696,173.75,28.4186,30.4441,148.541,99.2724,94.5801,0.000794711,0.0553424,21.0147,-360.54,0.426687,0.0,0.0
704,175.75,28.8036,30.8014,148.123,99.3069,94.6145,0.000857543,0.0553171,21.0156,-360.55,0.426555,0.0,0.0
712,177.75,28.6727,30.6031,148.171,99.3302,94.6229,0.000955183,0.0551651,21.016,-360.56,0.427833,0.0,0.0
720,179.75,28.2917,30.5772,148.173,99.356,94.7167,,0.0549202,,-360.56,0.42139,0.0,0.0
728,181.75,27.9174,29.6717,150.238,99.3825,94.6119,,,,-360.52,0.433495,0.0,0.0
736,183.75,28.0141,30.1801,145.31,99.4138,94.6857,,,,-360.54,0.429403,0.0,0.0
744,185.75,27.8947,29.4312,150.877,99.448,94.6365,,,,-360.54,0.437011,0.0,0.0
752,187.75,27.4211,28.8406,150.624,99.4918,94.6242,,,,-360.51,0.442038,0.0,0.0
758,189.25,27.6678,29.6316,153.263,99.5047,94.9466,,,,-360.5,0.41321,0.0,0.0