Folder: fsri_materials_database/01_Data/Rebond_Foam_Carpet_Pad/Cone (part 5)

File: Rebond_Foam_Carpet_Pad_Cone_HF75Scan_220414_R3.csv
Names,Time,Stack TC,Smoke TC,Exh Press,Smoke Comp,Smoke Meas,CO Meter,CO2 Meter,O2 Meter,Sample Mass,Ext Coeff,Start Test,Flame Verif
Chan Gain,,500,500,1,1,1,1,1,1,1,1,1.0,1.0
Offset,,0,0,0.134258,0,0,0,0,0,0,0,0.0,0.0
Gain,,1,1,25.011,13.171,13.8983,1,1,1,1.00092,1.00459,1.0,1.0
Units,sec,C,C,Pa,%,%,%,%,%,g,/m,,
Baseline,,51.1232,52.3944,141.103,101.096,102.421,0.00102007,0.0471249,21.0277,-835.581,-0.114603,,
7,1.5,49.1098,49.8452,131.829,101.358,76.9697,0.00595415,0.121017,20.9503,-354.775,2.42558,0.0,1.0
14,3.25,49.3299,50.1035,119.669,101.361,73.7314,0.0111506,0.244221,20.7359,-354.785,2.80461,0.0,1.0
21,5,50.8017,50.701,121.667,101.352,68.953,0.0168218,0.391403,20.4966,-355.185,3.39422,0.0,1.0
28,6.75,50.6474,51.6573,113.784,101.341,67.102,0.0217049,0.546791,20.2673,-355.485,3.6331,0.0,0.0
35,8.5,53.9502,54.6099,116.65,101.34,66.934,0.0260721,0.69044,20.0721,-355.926,3.65511,0.0,0.0
42,10.25,56.8547,57.313,104.309,101.344,68.9139,0.0297276,0.821929,19.8579,-356.226,3.39854,0.0,0.0
49,12,60.2994,61.1084,110.994,101.336,68.142,0.0327428,0.959232,19.6343,-356.626,3.49715,0.0,0.0
56,13.75,63.3995,64.8687,92.7903,101.314,57.9922,0.0367697,1.10813,19.3736,-357.187,4.91646,0.0,0.0
63,15.5,67.4267,69.2831,83.3021,101.327,58.8473,0.0418387,1.38528,18.9918,-357.737,4.7886,0.0,0.0
70,17.25,73.5188,75.0614,76.3074,101.321,63.2313,0.0465193,1.77562,18.3973,-358.508,4.15489,0.0,0.0
77,19,80.3164,83.0214,62.4669,101.323,72.2808,0.0496606,2.41464,17.53,-359.329,2.97642,0.0,0.0
84,20.75,89.1103,94.6427,69.1525,101.269,74.5207,0.0511987,3.08145,16.8054,-360.18,2.70276,0.0,0.0
91,22.5,101.148,108.088,62.0525,101.252,76.5824,0.0511644,3.80214,15.9238,-361.03,2.4608,0.0,0.0
98,24.25,113.326,123.363,70.7408,101.237,68.2349,0.0491084,4.11621,15.4222,-361.701,3.4765,0.0,0.0
105,26,123.243,136.896,83.9089,101.221,65.7295,0.0446536,3.84142,16.0687,-362.181,3.80472,0.0,0.0
112,27.75,129.306,145.095,99.14,101.181,69.4263,0.0379117,3.12842,16.9068,-362.432,3.31907,0.0,0.0
119,29.5,130.807,148.464,119.283,101.147,85.1332,0.0295231,2.23799,17.8505,-362.552,1.5189,0.0,0.0
126,31.25,129.172,147.417,131.688,101.117,99.6825,0.0214242,1.52308,18.9185,-362.542,0.125897,0.0,0.0
133,33,126.359,144.709,132.373,101.09,103.141,0.0155874,0.972135,19.7186,-362.572,-0.176933,0.0,0.0
140,34.75,123.298,140.857,136.394,101.064,103.725,0.0116942,0.617276,20.1914,-362.542,-0.229078,0.0,0.0
147,36.5,119.151,136.689,132.51,101.014,104.053,0.00919397,0.411527,20.4853,-362.552,-0.261235,0.0,0.0
154,38.25,115.885,133.308,133.868,101.014,104.248,0.00761621,0.292633,20.6725,-362.562,-0.277636,0.0,0.0
161,40,113.413,129.821,136.283,101.028,103.747,0.00669946,0.226,20.7784,-362.582,-0.23407,0.0,0.0
168,41.75,110.553,126.736,138.72,101.048,104.16,0.00629014,0.185904,20.8424,-362.602,-0.267302,0.0,0.0
175,43.5,108.061,123.907,138.215,101.066,104.098,0.00608742,0.161964,20.8788,-362.612,-0.260483,0.0,0.0
182,45.25,105.905,121.511,141.399,101.091,103.528,0.0059465,0.145938,20.9006,-362.632,-0.209959,0.0,0.0
189,47,103.507,118.496,136.606,101.097,103.743,0.0058756,0.135215,20.9161,-362.652,-0.227683,0.0,0.0
196,48.75,101.316,116.288,136.203,101.142,103.745,0.00581508,0.126468,20.9273,-362.652,-0.223867,0.0,0.0
203,50.5,99.0482,114.545,136.752,101.149,103.63,0.00576531,0.119784,20.9367,-362.682,-0.21361,0.0,0.0
210,52.25,96.9322,112.018,138.743,101.166,104.248,0.00568755,0.113871,20.9451,-362.692,-0.264533,0.0,0.0
217,54,95.3535,109.75,137.321,101.188,103.649,0.00562608,0.108949,20.9519,-362.702,-0.211765,0.0,0.0
224,55.75,93.3785,107.47,140.77,101.219,104.335,0.00562024,0.104295,20.957,-362.712,-0.267225,0.0,0.0
231,57.5,91.8165,105.057,136.013,101.244,104.187,0.00563453,0.100615,20.9618,-362.712,-0.252543,0.0,0.0
238,59.25,89.7658,103.268,140.771,101.258,104.281,0.00563781,0.0971395,20.9669,-362.752,-0.259243,0.0,0.0
245,61,88.5732,101.242,139.497,101.286,103.433,0.00562355,0.0936,20.9709,-362.762,-0.184855,0.0,0.0
252,62.75,86.784,99.7374,138.597,101.33,104.319,0.00554284,0.0903046,20.9747,-362.772,-0.256139,0.0,0.0
259,64.5,85.1443,98.1431,140.745,101.36,103.244,0.00548425,0.0873723,20.9793,-362.752,-0.162255,0.0,0.0
266,66.25,84.0377,96.2948,135.973,101.385,103.527,0.00545741,0.0842296,20.9829,-362.752,-0.184167,0.0,0.0
273,68,82.7402,94.9409,139.419,101.404,104.554,0.0055268,0.081287,20.9852,-362.792,-0.269573,0.0,0.0
280,69.75,81.5968,93.5768,138.457,101.442,105.246,0.00564389,0.0789076,20.9862,-362.802,-0.324438,0.0,0.0
287,71.5,80.657,91.3379,146.71,101.49,103.232,0.0056626,0.0765288,20.9885,-362.782,-0.149927,0.0,0.0
294,73.25,79.3602,90.5553,136.118,101.513,104.341,0.00560907,0.0741269,20.991,-362.802,-0.242147,0.0,0.0
301,75,78.5374,89.1543,135.267,101.52,103.77,0.00555498,0.0722557,20.9924,-362.802,-0.193171,0.0,0.0
308,76.75,76.9739,87.294,135.099,101.563,104.081,0.0054721,0.0703182,20.9953,-362.802,-0.215836,0.0,0.0
315,78.5,76.1184,86.5104,137.771,101.577,103.557,0.00540291,0.0688176,20.9979,-362.792,-0.170153,0.0,0.0
322,80.25,75.1904,85.0777,139.665,101.609,104.201,0.00536826,0.0671473,20.9994,-362.812,-0.221983,0.0,0.0
329,82,74.1242,84.2304,138.533,101.635,104.947,0.00527559,0.0656928,21.0008,-362.812,-0.282516,0.0,0.0
336,83.75,73.349,83.2094,138.577,101.654,104.187,0.00503261,0.0643057,21.0028,-362.832,-0.216825,0.0,0.0
343,85.5,72.3068,81.6708,137.325,101.671,103.107,0.0047818,0.0630257,21.0038,-362.822,-0.123619,0.0,0.0
350,87.25,71.7125,81.2655,136.463,101.719,104.469,0.00463475,0.0616402,21.005,-362.822,-0.235042,0.0,0.0
357,89,70.8525,79.7717,136.563,101.724,102.666,0.00455652,0.0604788,21.0073,-362.842,-0.0811697,0.0,0.0
364,90.75,70.2214,78.9104,140.403,101.754,104.43,0.00445337,0.0594596,21.0089,-362.842,-0.228826,0.0,0.0
371,92.5,68.7831,78.0811,137.792,101.773,104.243,0.00420564,0.0586601,21.0118,-362.842,-0.211286,0.0,0.0
378,94.25,68.5194,77.2412,138.72,101.804,103.962,0.00390743,0.0577468,21.0137,-362.852,-0.184803,0.0,0.0
385,96,67.7494,75.9452,136.134,101.824,103.845,0.00369682,0.0567523,21.0154,-362.842,-0.17317,0.0,0.0
392,97.75,67.3295,74.8335,137.514,101.83,102.931,0.00356171,0.0557886,21.0162,-362.832,-0.0947414,0.0,0.0
399,99.5,66.2014,74.5291,137.368,101.845,104.606,0.00345366,0.0548414,21.0168,-362.852,-0.235769,0.0,0.0
406,101.25,65.9133,73.6063,138.245,101.862,105.156,0.00333547,0.0541366,21.0181,-362.852,-0.280494,0.0,0.0
413,103,64.8636,72.7691,140.613,101.877,102.855,0.00317225,0.0534626,21.0187,-362.852,-0.0841696,0.0,0.0
420,104.75,65.2982,71.8862,135.711,101.883,105.73,0.00296393,0.0529324,21.0206,-362.862,-0.326575,0.0,0.0
427,106.5,63.9709,71.0519,138.531,101.893,103.617,0.00277595,0.0524896,21.0216,-362.862,-0.147875,0.0,0.0
434,108.25,64.0517,70.8378,136.944,101.919,104.405,0.00265079,0.0520173,21.022,-362.862,-0.212383,0.0,0.0
441,110,63.3427,70.0389,140.326,101.911,104.62,0.00258633,0.0517402,21.0223,-362.872,-0.231139,0.0,0.0
448,111.75,62.1949,69.6016,139.539,101.929,104.301,0.00252644,0.0515512,21.0233,-362.882,-0.202703,0.0,0.0
455,113.5,62.3544,68.6767,139.874,101.92,103.927,0.00240674,0.0512515,21.0241,-362.882,-0.17184,0.0,0.0
462,115.25,61.9167,68.3924,137.895,101.932,104.564,0.00221318,0.0510017,21.024,-362.872,-0.224685,0.0,0.0
469,117,61.5289,67.3317,136.847,101.933,104.678,0.0020646,0.0507186,21.024,-362.872,-0.234157,0.0,0.0
476,118.75,60.6,67.1703,145.321,101.942,104.335,0.00191448,0.0504105,21.024,-362.872,-0.204388,0.0,0.0
483,120.5,60.8014,66.6347,140.787,101.934,104.695,0.00178245,0.0500839,21.0239,-362.872,-0.235445,0.0,0.0
490,122.25,60.4171,66.627,139.504,101.924,103.809,0.00167095,0.0497828,21.0239,-362.872,-0.161488,0.0,0.0
497,124,59.9653,65.5845,139.527,101.92,103.74,0.00159414,0.0496363,21.0239,-362.862,-0.155967,0.0,0.0
504,125.75,59.9412,65.4224,138.744,101.921,104.166,0.001609,0.0495973,21.0239,-362.872,-0.191996,0.0,0.0
511,127.5,59.1639,64.6245,144.108,101.913,103.127,0.0017016,0.0495873,21.0239,-362.872,-0.104376,0.0,0.0
518,129.25,59.1005,64.6376,139.903,101.901,104.306,0.00173341,0.0497607,21.0239,-362.882,-0.205496,0.0,0.0
525,131,58.951,63.9582,133.863,101.87,104.006,0.00165074,0.0500728,21.0239,-362.902,-0.182873,0.0,0.0
532,132.75,58.3085,63.1906,140.5,101.863,104.1,0.00152542,0.0502997,21.0239,-362.892,-0.191437,0.0,0.0
539,134.5,58.1187,63.4139,134.271,101.855,104.537,0.00141795,0.050306,21.0239,-362.892,-0.229073,0.0,0.0
546,136.25,57.6916,62.9261,141.641,101.831,104.002,0.00133441,0.0502431,21.0239,-362.892,-0.185886,0.0,0.0
553,138,57.6279,62.4819,138.374,101.812,103.395,0.00127026,0.0502539,21.0231,-362.892,-0.135943,0.0,0.0
560,139.75,57.3988,62.1019,137.193,101.791,103.938,0.0012341,0.0502752,21.0226,-362.912,-0.184009,0.0,0.0
567,141.5,56.5146,61.8516,138.863,101.773,103.955,0.00121631,0.0499808,21.0231,-362.912,-0.186907,0.0,0.0
574,143.25,56.6072,61.3823,139.687,101.743,103.826,0.00116931,0.0495931,21.0239,-362.912,-0.178616,0.0,0.0
581,145,56.3967,60.9915,137.274,101.715,102.779,,0.049097,,-362.922,-0.0916504,0.0,0.0
588,146.75,55.8667,60.845,135.424,101.701,104.033,,0.0487392,,-362.922,-0.199858,0.0,0.0
595,148.5,56.2008,59.8165,140.775,101.676,104.09,,,,-362.902,-0.206796,0.0,0.0
602,150.25,56.1252,60.0354,139.234,101.669,104.343,,,,-362.912,-0.228798,0.0,0.0
609,152,55.8519,59.5183,138.88,101.62,104.14,,,,-362.912,-0.215876,0.0,0.0
616,153.75,55.8098,59.5014,139.292,101.611,103.995,,,,-362.922,-0.204323,0.0,0.0
622,155.25,55.8286,59.9467,141.072,101.58,104.166,,,,-362.902,-0.221551,0.0,0.0