Folder: fsri_materials_database/01_Data/Rebond_Foam_Carpet_Pad/HFM

Note: 01_Data/README.md
# Materials and Products Database
## 01_Data

Raw data generated from each apparatus are included here in plain-text format. The data is organized first by material, next by the short name of test apparatus used, and where applicable additional filtering by test settings.

### material.json

Each material directory contains a json file of the same name as the material. This file links the data stored in the repository as well as data and graphs produced by the accompanying scripts (__02_Scripts__) to the respective landing page for the material on the front-end website.

File: Rebond_Foam_Carpet_Pad_Density_Dry_R1.csv
,Rebond_Foam_Carpet_Pad_DRY_1
Sample Mass [g],34.0
Sample Volume [cm3],412.0
Sample Density [kg/m3],83

File: Rebond_Foam_Carpet_Pad_Density_Dry_R2.csv
,Rebond_Foam_Carpet_Pad_DRY_2
Sample Mass [g],33.6
Sample Volume [cm3],406.5
Sample Density [kg/m3],83

File: Rebond_Foam_Carpet_Pad_Density_Dry_R3.csv
,Rebond_Foam_Carpet_Pad_DRY_3
Sample Mass [g],21.2
Sample Volume [cm3],240.1
Sample Density [kg/m3],88

File: Rebond_Foam_Carpet_Pad_Density_Wet_R1.csv
,Rebond_Foam_Carpet_Pad_WET_1
Sample Mass [g],34.4
Sample Volume [cm3],412.0
Sample Density [kg/m3],84

File: Rebond_Foam_Carpet_Pad_Density_Wet_R2.csv
,Rebond_Foam_Carpet_Pad_WET_2
Sample Mass [g],34.0
Sample Volume [cm3],406.5
Sample Density [kg/m3],84

File: Rebond_Foam_Carpet_Pad_Density_Wet_R3.csv
,Rebond_Foam_Carpet_Pad_WET_3
Sample Mass [g],21.5
Sample Volume [cm3],240.1
Sample Density [kg/m3],89