Folder: fsri_materials_database/01_Data/Rebond_Foam_Carpet_Pad/MCC (part 2)

File: Rebond_Foam_Carpet_Pad_MCC_30K_min_211102_R3.txt
Sample ID:	C:\MCC\MCC Cal\Test\Rebond_Foam_Carpet_Pad_MCC_30K_min_211102_R3.txt
Sample Weight (mg):	4.91
Heating Rate (C/s):	0.5
Combustor Temp (C):	900
N2 Flow Rate (cc/min):	80
O2 Flow Rate (cc/min):	20
Calibration File:	C:\MCC\MCC Cal\Coeff1 JN10440_30_210304.txt.txt
T Correction Coefficients:	0	1.024463	0
Time Shift (s):	14
*
Time (s)	Temperature (C)	N2 flow rate (cc/min)	O2 flow rate (cc/min)	Flow Rate (cc/min)	Oxygen (%)	HRR (W/g)	Heating rate (C/s)
-0.001	108.983	80.002	19.992	103.065	20.097	0.271	-0.024
8.000	108.944	80.003	19.995	103.053	20.100	0.123	0.006
16.000	108.944	80.005	19.994	103.097	20.092	0.638	0.005
24.000	109.217	80.004	19.996	103.230	20.072	1.958	0.086
32.000	109.896	80.003	19.997	103.243	20.066	2.328	0.120
39.999	110.958	80.004	19.995	103.242	20.062	2.591	0.151
47.999	112.549	80.004	19.995	103.325	20.061	2.634	0.245
55.999	114.417	80.004	19.995	103.265	20.057	2.886	0.271
63.999	116.511	80.006	19.995	103.276	20.053	3.153	0.266
71.999	118.869	80.005	19.994	103.292	20.054	3.135	0.283
79.999	121.457	80.004	19.995	103.297	20.048	3.493	0.300
87.999	124.325	80.003	19.994	103.298	20.052	3.235	0.363
95.999	127.295	80.003	19.995	103.298	20.049	3.472	0.370
103.999	130.472	80.003	19.996	103.297	20.046	3.648	0.397
112.000	133.738	80.003	19.995	103.304	20.046	3.668	0.462
119.999	137.110	80.004	19.995	103.303	20.045	3.704	0.400
128.000	140.689	80.003	19.995	103.324	20.043	3.827	0.443
136.000	144.420	80.004	19.996	103.301	20.043	3.831	0.470
144.000	148.175	80.006	19.994	103.313	20.040	4.029	0.477
152.000	152.055	80.006	19.993	103.317	20.039	4.115	0.482
160.000	155.990	80.005	19.994	103.304	20.038	4.145	0.482
168.000	159.973	80.004	19.995	103.299	20.031	4.630	0.522
176.000	163.993	80.005	19.995	103.299	20.028	4.847	0.499
184.000	168.062	80.004	19.994	103.297	20.026	4.963	0.496
192.000	172.136	80.003	19.995	103.295	20.021	5.255	0.467
200.000	176.200	80.004	19.996	103.292	20.017	5.563	0.517
208.000	180.147	80.007	19.995	103.272	20.010	6.020	0.514
216.000	184.164	80.007	19.995	103.264	20.003	6.484	0.491
224.000	188.184	80.006	19.995	103.261	19.997	6.872	0.499
232.000	192.097	80.006	19.995	103.258	19.987	7.533	0.468
240.000	196.003	80.004	19.994	103.262	19.978	8.125	0.514
248.000	199.928	80.004	19.995	103.262	19.966	8.861	0.476
256.000	203.831	80.005	19.995	103.262	19.957	9.483	0.476
264.000	207.746	80.004	19.994	103.263	19.950	9.942	0.489
272.000	211.618	80.004	19.995	103.260	19.934	11.016	0.471
280.000	215.520	80.005	19.995	103.251	19.923	11.680	0.494
288.000	219.415	80.007	19.996	103.258	19.905	12.868	0.465
296.000	223.281	80.008	19.995	103.245	19.889	13.940	0.490
304.000	227.107	80.005	19.994	103.261	19.871	15.099	0.483
312.000	231.149	80.005	19.995	103.263	19.850	16.516	0.497
320.000	235.181	80.004	19.996	103.254	19.826	18.057	0.488
328.000	239.086	80.003	19.995	103.258	19.803	19.569	0.503
336.000	242.922	80.004	19.994	103.257	19.776	21.354	0.480
344.000	246.682	80.006	19.995	103.260	19.738	23.853	0.473
352.000	250.488	80.005	19.994	103.266	19.706	25.955	0.494
360.000	254.108	80.004	19.996	103.268	19.658	29.083	0.455
368.000	257.787	80.007	19.995	103.288	19.614	31.980	0.463
376.000	261.452	80.005	19.995	103.297	19.573	34.688	0.464
384.000	265.211	80.005	19.995	103.339	19.524	37.912	0.477
392.000	269.180	80.007	19.995	103.345	19.481	40.737	0.492
400.000	273.405	80.006	19.994	103.344	19.433	43.875	0.548
408.000	277.708	80.002	19.996	103.351	19.425	44.398	0.532
416.000	282.108	80.002	19.996	103.336	19.477	41.024	0.529
424.000	286.483	80.004	19.995	103.338	19.552	36.073	0.550
432.000	290.935	80.005	19.995	103.316	19.616	31.866	0.567
440.000	295.352	80.003	19.995	103.305	19.654	29.361	0.524
448.000	299.699	80.005	19.995	103.302	19.663	28.807	0.528
456.000	304.081	80.005	19.994	103.293	19.672	28.201	0.528
464.000	308.307	80.006	19.994	103.296	19.678	27.819	0.523
472.000	312.626	80.008	19.995	103.289	19.681	27.613	0.567
480.000	316.746	80.008	19.995	103.274	19.682	27.543	0.511
488.000	320.884	80.005	19.996	103.286	19.688	27.158	0.489
496.000	325.027	80.005	19.995	103.278	19.693	26.822	0.534
504.000	328.855	80.004	19.996	103.282	19.706	25.967	0.532
512.000	333.160	80.005	19.996	103.281	19.718	25.175	0.422
520.000	337.094	80.003	19.995	103.285	19.731	24.321	0.499
528.000	341.062	80.005	19.996	103.274	19.738	23.832	0.473
536.000	345.020	80.007	19.995	103.263	19.749	23.101	0.513
544.000	348.982	80.005	19.995	103.254	19.741	23.651	0.477
552.000	353.034	80.006	19.996	103.255	19.720	25.021	0.508
560.000	357.088	80.009	19.994	103.253	19.676	27.891	0.509
568.000	361.095	80.003	19.994	103.251	19.611	32.159	0.498
576.000	365.124	80.005	19.995	103.262	19.531	37.451	0.502
584.000	369.156	80.005	19.994	103.257	19.428	44.196	0.512
592.000	373.171	80.005	19.994	103.262	19.295	52.913	0.489
600.000	377.169	80.005	19.995	103.266	19.122	64.305	0.480
608.000	381.180	80.004	19.996	103.286	18.918	77.683	0.476
616.000	385.193	80.007	19.994	103.296	18.674	93.664	0.499
624.000	389.166	80.005	19.994	103.292	18.420	110.342	0.472
632.000	393.239	80.004	19.995	103.271	18.157	127.591	0.521
640.000	397.291	80.008	19.995	103.265	17.956	140.712	0.495
648.000	401.262	80.006	19.993	103.228	17.815	149.928	0.500
656.000	405.279	80.004	19.995	103.208	17.788	151.661	0.486
664.000	409.346	80.003	19.995	103.184	17.880	145.641	0.486
672.000	413.371	80.006	19.995	103.167	18.075	132.852	0.491
680.000	417.392	80.006	19.995	103.161	18.346	115.080	0.508
688.000	421.467	80.003	19.995	103.176	18.646	95.436	0.506
696.000	425.454	80.005	19.996	103.175	18.932	76.649	0.493
704.000	429.546	80.004	19.995	103.181	19.174	60.766	0.537
712.000	433.603	80.003	19.994	103.169	19.375	47.653	0.500
720.000	437.705	80.006	19.995	103.173	19.529	37.500	0.514
728.000	441.770	80.007	19.995	103.177	19.639	30.332	0.521
736.000	445.855	80.006	19.995	103.172	19.721	24.946	0.542
744.000	449.883	80.006	19.994	103.162	19.767	21.956	0.478
752.000	453.992	80.006	19.994	103.171	19.797	19.945	0.513
760.000	458.111	80.003	19.996	103.170	19.804	19.484	0.508
768.000	462.158	80.003	19.995	103.154	19.814	18.856	0.481
776.000	466.208	80.005	19.995	103.150	19.813	18.889	0.489
784.000	470.324	80.006	19.994	103.147	19.823	18.251	0.510
792.000	474.375	80.003	19.996	103.141	19.833	17.578	0.512
800.000	478.438	80.007	19.996	103.145	19.858	15.951	0.510
808.000	482.494	80.008	19.994	103.144	19.885	14.204	0.489
816.000	486.518	80.006	19.995	103.143	19.923	11.697	0.475
824.000	490.660	80.003	19.996	103.175	19.961	9.234	0.534
832.000	494.979	80.005	19.994	103.179	19.991	7.219	0.558
840.000	499.276	80.005	19.993	103.182	20.017	5.542	0.558
848.000	503.682	80.003	19.994	103.186	20.024	5.067	0.572
856.000	508.026	80.005	19.995	103.181	20.025	4.994	0.557
864.000	512.406	80.006	19.997	103.177	20.028	4.826	0.521
872.000	516.800	80.006	19.995	103.179	20.029	4.768	0.556
880.000	521.204	80.007	19.995	103.175	20.026	4.975	0.560
888.000	525.510	80.007	19.995	103.173	20.025	4.997	0.528
896.000	529.792	80.006	19.994	103.181	20.029	4.762	0.543
904.000	534.029	80.002	19.994	103.181	20.026	4.929	0.523
912.000	538.289	80.003	19.993	103.171	20.032	4.554	0.528
920.000	542.525	80.005	19.994	103.178	20.037	4.244	0.552
928.000	546.628	80.004	19.993	103.171	20.035	4.340	0.526
936.000	550.767	80.003	19.994	103.172	20.035	4.335	0.514
944.000	554.830	80.003	19.995	103.173	20.042	3.921	0.520
952.000	558.882	80.005	19.995	103.166	20.039	4.104	0.519
960.000	562.924	80.004	19.994	103.169	20.037	4.249	0.484
968.000	566.991	80.006	19.994	103.167	20.041	3.956	0.510
976.000	571.074	80.006	19.995	103.173	20.050	3.362	0.517
984.000	575.172	80.004	19.995	103.163	20.054	3.105	0.502
992.000	579.288	80.005	19.994	103.165	20.055	3.067	0.505
1000.000	583.352	80.003	19.993	103.173	20.058	2.837	0.511
1008.000	587.443	80.004	19.995	103.181	20.063	2.530	0.511
1016.000	591.581	80.004	19.994	103.168	20.056	3.005	0.520
1024.000	595.621	80.007	19.995	103.171	20.064	2.454	0.505
1031.999	599.667	80.005	19.994	103.180	20.071	1.996	0.488
1039.999	603.725	80.004	19.994	103.162	20.065	2.362	0.498
1048.000	607.714	80.005	19.995	103.182	20.064	2.451	0.503
1056.000	611.760	80.007	19.994	103.152	20.068	2.204	0.518
1064.000	615.847	80.002	19.995	103.171	20.077	1.580	0.518
1071.999	619.902	80.001	19.996	103.153	20.068	2.190	0.512
1079.999	623.905	80.004	19.995	103.148	20.073	1.874	0.521
1088.000	627.928	80.004	19.995	103.156	20.070	2.082	0.492
1095.999	631.971	80.004	19.994	103.155	20.070	2.071	0.504
1103.999	636.043	80.003	19.993	103.154	20.075	1.748	0.539
1111.999	640.127	80.005	19.994	103.159	20.072	1.908	0.513
1120.000	644.210	80.006	19.995	103.160	20.071	2.008	0.500
1127.999	648.192	80.004	19.995	103.151	20.075	1.722	0.496
1135.999	652.257	80.006	19.993	103.146	20.075	1.728	0.466
1144.000	656.216	80.006	19.994	103.141	20.077	1.615	0.501
1151.999	660.089	80.006	19.994	103.148	20.078	1.567	0.472
1160.000	663.876	80.005	19.995	103.145	20.079	1.496	0.488
1167.999	667.633	80.003	19.995	103.145	20.080	1.389	0.502
1175.999	671.402	80.002	19.995	103.146	20.076	1.681	0.470
1183.999	675.231	80.005	19.994	103.149	20.079	1.476	0.480
1191.999	679.052	80.006	19.994	103.143	20.080	1.394	0.493
1200.000	682.876	80.006	19.994	103.143	20.080	1.371	0.491
1208.000	686.738	80.007	19.996	103.146	20.079	1.496	0.473
1215.999	690.681	80.006	19.993	103.144	20.074	1.767	0.502
1224.000	694.575	80.009	19.995	103.140	20.074	1.821	0.483
1231.999	698.604	80.003	19.996	103.145	20.070	2.074	0.556
1239.999	702.573	80.005	19.994	103.147	20.076	1.674	0.513
1247.999	706.522	80.006	19.996	103.145	20.074	1.806	0.521
1256.000	710.594	80.003	19.996	103.149	20.076	1.637	0.502
1263.999	714.580	80.005	19.995	103.146	20.073	1.835	0.513
1271.999	718.640	80.007	19.995	103.147	20.071	2.011	0.493
1279.999	722.736	80.008	19.994	103.143	20.074	1.795	0.509
1287.999	726.768	80.006	19.994	103.145	20.071	2.003	0.499
1295.999	730.708	80.006	19.994	103.145	20.074	1.806	0.486
1303.999	734.671	80.007	19.993	103.147	20.072	1.908	0.514
1311.999	738.633	80.007	19.994	103.140	20.075	1.751	0.508
1320.000	742.444	80.005	19.994	103.138	20.075	1.719	0.442
1323.000	743.939	80.005	19.995	103.138	20.073	1.840	0.519