Folder: fsri_materials_database/01_Data/Lightweight_Gypsum_Wallboard_Gypsum_Core/STA/N2/10K_min

Note: 01_Data/README.md
# Materials and Products Database
## 01_Data

Raw data generated from each apparatus are included here in plain-text format. The data is organized first by material, next by the short name of test apparatus used, and where applicable additional filtering by test settings.

### material.json

Each material directory contains a json file of the same name as the material. This file links the data stored in the repository as well as data and graphs produced by the accompanying scripts (__02_Scripts__) to the respective landing page for the material on the front-end website.

File: Lightweight_Gypsum_Wallboard_Core_STA_N2_10KData_222502_R3.csv
##Temp./Â°C,Time/min,Mass loss(subtr.2)/mg,DSC(subtr.2)/(mW/mg),Sensit./(uV/mW)
49.714,10.01,-0.01975,0.01254367,1.07515
53.314,11.37987,-0.03070913,0.11544,1.07327
56.914,11.8694,-0.03312354,0.16148,1.0714
60.514,12.29562,-0.03203478,0.19106,1.06953
64.114,12.6973,-0.03061919,0.21244,1.06766
67.714,13.08876,-0.03225,0.23204,1.06579
71.314,13.4746,-0.03359317,0.25412,1.06392
74.914,13.85641,-0.03879593,0.27538,1.06206
78.514,14.2328,-0.03883209,0.29879,1.0602
82.114,14.60571,-0.04286448,0.32428,1.05834
85.714,14.97435,-0.04935999,0.35729,1.05648
89.314,15.34019,-0.05396476,0.40776,1.05463
92.914,15.70294,-0.06023389,0.48999,1.05277
96.514,16.06483,-0.06954668,0.6072,1.05092
100.114,16.42351,-0.08284649,0.76637,1.04907
103.714,16.78203,-0.10221,0.92969,1.04723
107.314,17.13974,-0.12359,1.0981,1.04538
110.914,17.4972,-0.15123,1.359,1.04354
114.514,17.85768,-0.1955,2.08364,1.0417
118.114,18.22259,-0.26445,2.84892,1.03986
121.714,18.58853,-0.34917,3.54537,1.03802
125.314,18.95291,-0.44293,3.65389,1.03619
128.914,19.30854,-0.52261,3.07754,1.03435
132.514,19.6587,-0.58952,3.16153,1.03252
136.114,20.01034,-0.66105,3.30631,1.03069
139.714,20.3554,-0.71288,1.81445,1.02886
143.314,20.68713,-0.72321,0.73093,1.02703
146.914,21.0193,-0.72952,0.44138,1.02521
150.514,21.35603,-0.73413,0.34098,1.02338
154.114,21.69481,-0.73739,0.29419,1.02156
157.714,22.03549,-0.74148,0.26857,1.01974
161.314,22.37671,-0.74148,0.24937,1.01792
164.914,22.719,-0.74511,0.23807,1.0161
168.514,23.06239,-0.74626,0.22694,1.01428
172.114,23.40631,-0.74451,0.22362,1.01246
175.714,23.74999,-0.74938,0.2177,1.01065
179.314,24.09375,-0.75266,0.21264,1.00883
182.914,24.43843,-0.75519,0.21175,1.00701
186.514,24.7817,-0.75519,0.20745,1.0052
190.114,25.12568,-0.75925,0.20558,1.00339
193.714,25.46923,-0.75387,0.20253,1.00157
197.314,25.8129,-0.75663,0.19976,0.99976
200.914,26.1548,-0.75551,0.19941,0.99794
204.514,26.49847,-0.75914,0.1981,0.99613
208.114,26.84252,-0.75881,0.1971,0.99432
211.714,27.18625,-0.75848,0.19521,0.9925
215.314,27.536,-0.76014,0.19405,0.99069
218.914,27.88427,-0.76309,0.19194,0.98887
222.514,28.22815,-0.76587,0.19233,0.98706
226.114,28.5714,-0.76321,0.18608,0.98524
229.714,28.9151,-0.76485,0.18606,0.98343
233.314,29.2595,-0.76769,0.18317,0.98161
236.914,29.6031,-0.76638,0.18321,0.97979
240.514,29.94677,-0.76637,0.17983,0.97797
244.114,30.29,-0.76813,0.17606,0.97615
247.714,30.6338,-0.76912,0.17139,0.97433
251.314,30.97659,-0.76911,0.16399,0.9725
254.914,31.3226,-0.77238,0.16229,0.97068
258.514,31.66736,-0.77174,0.15893,0.96885
262.114,32.01201,-0.7757,0.15586,0.96702
265.714,32.35678,-0.77281,0.15297,0.96519
269.314,32.70173,-0.77538,0.15011,0.96335
272.914,33.04654,-0.77409,0.15057,0.96151
276.514,33.3908,-0.77374,0.14936,0.95967
280.114,33.73557,-0.77264,0.14874,0.95783
283.714,34.08067,-0.77804,0.1451,0.95599
287.314,34.42635,-0.77659,0.14252,0.95414
290.914,34.77243,-0.77693,0.14391,0.95229
294.514,35.11741,-0.77537,0.14165,0.95043
298.114,35.46374,-0.77486,0.13964,0.94857
301.714,35.8086,-0.77757,0.14132,0.94671
305.314,36.1539,-0.78119,0.13803,0.94485
308.914,36.50047,-0.78275,0.13429,0.94298
312.514,36.84653,-0.78108,0.13392,0.9411
316.114,37.19275,-0.78042,0.12945,0.93922
319.714,37.53887,-0.78304,0.12919,0.93734
323.314,37.88511,-0.78305,0.12997,0.93545
326.914,38.23196,-0.78601,0.12923,0.93356
330.514,38.57946,-0.78437,0.12836,0.93167
334.114,38.9268,-0.78536,0.13119,0.92976
337.714,39.2743,-0.78535,0.13013,0.92786
341.314,39.6218,-0.78908,0.13053,0.92595
344.914,39.9698,-0.78776,0.13239,0.92403
348.514,40.31803,-0.78941,0.13166,0.9221
352.114,40.6663,-0.79106,0.12866,0.92018
355.714,41.01502,-0.79028,0.12737,0.91824
359.314,41.3645,-0.79151,0.12691,0.9163
362.914,41.7141,-0.79259,0.12306,0.91435
366.514,42.06368,-0.79522,0.12515,0.9124
370.114,42.4138,-0.7939,0.12523,0.91044
373.714,42.76405,-0.79366,0.12491,0.90847
377.314,43.11391,-0.7949,0.12617,0.9065
380.914,43.46347,-0.7949,0.12317,0.90452
384.514,43.81406,-0.79582,0.1191,0.90253
388.114,44.16426,-0.79644,0.11433,0.90053
391.714,44.5163,-0.79885,0.10488,0.89853
395.314,44.86758,-0.79622,0.09447962,0.89652
398.914,45.21802,-0.79501,0.08112696,0.8945
402.514,45.5704,-0.79402,0.06333127,0.89248
406.114,45.9223,-0.79657,0.04592146,0.89044
409.714,46.27317,-0.7973,0.0292594,0.8884
413.314,46.6243,-0.79764,0.01119072,0.88635
416.914,46.97672,-0.79761,-0.00683063,0.88429
420.514,47.32895,-0.795,-0.02164727,0.88222
424.114,47.68196,-0.79632,-0.03172356,0.88015
427.714,48.0351,-0.79637,-0.03774918,0.87806
431.314,48.38821,-0.79797,-0.03562892,0.87597
434.914,48.74151,-0.79929,-0.02277972,0.87387
438.514,49.09463,-0.79829,-0.0085735,0.87175
442.114,49.44641,-0.79928,0.01119704,0.86963
445.714,49.8009,-0.79895,0.03349404,0.8675
449.314,50.15571,-0.79797,0.05266578,0.86536
452.914,50.51228,-0.80002,0.07035233,0.86321
456.514,50.8671,-0.80459,0.08835189,0.86105
460.114,51.2211,-0.80189,0.09586986,0.85888
463.714,51.5756,-0.80222,0.10473,0.8567
467.314,51.93016,-0.80224,0.11339,0.85452
470.914,52.28629,-0.80127,0.11528,0.85232
474.514,52.6428,-0.80126,0.11853,0.85011
478.114,52.99715,-0.80562,0.12622,0.84789
481.714,53.3538,-0.80224,0.1283,0.84565
485.314,53.70867,-0.80347,0.13095,0.84341
488.914,54.0644,-0.80495,0.13329,0.84116
492.514,54.4211,-0.80422,0.13181,0.8389
496.114,54.77746,-0.80427,0.1318,0.83663
499.714,55.1347,-0.80718,0.13304,0.83434
503.314,55.49191,-0.80521,0.13537,0.83204
506.914,55.84978,-0.80521,0.13118,0.82974
510.514,56.2069,-0.80672,0.13097,0.82742
514.114,56.56389,-0.80817,0.13697,0.82509
517.714,56.9204,-0.80576,0.1369,0.82275
521.314,57.27751,-0.81069,0.13774,0.8204
524.914,57.6348,-0.80937,0.1378,0.81804
528.514,57.9932,-0.80805,0.13354,0.81566
532.114,58.35241,-0.80986,0.13339,0.81327
535.714,58.7113,-0.80871,0.13369,0.81088
539.314,59.07062,-0.81036,0.12943,0.80847
542.914,59.42952,-0.81222,0.13664,0.80605
546.514,59.7873,-0.80992,0.14194,0.80361
550.114,60.1459,-0.81091,0.14043,0.80117
553.714,60.505,-0.81065,0.13961,0.79871
557.314,60.8636,-0.81081,0.14041,0.79624
560.914,61.2223,-0.81453,0.14066,0.79376
564.514,61.5823,-0.8109,0.14368,0.79127
568.114,61.9414,-0.81354,0.14552,0.78876
571.714,62.30075,-0.81355,0.1503,0.78625
575.314,62.6613,-0.81386,0.14993,0.78372
578.914,63.02052,-0.81354,0.15222,0.78118
582.514,63.38041,-0.81716,0.15038,0.77863
586.114,63.74069,-0.81453,0.14986,0.77606
589.714,64.1011,-0.81716,0.15208,0.77348
593.314,64.46262,-0.82199,0.16067,0.7709
596.914,64.82326,-0.81762,0.15984,0.76829
600.514,65.18431,-0.82147,0.16274,0.76568
604.114,65.54541,-0.82155,0.16789,0.76306
607.714,65.90772,-0.8222,0.17439,0.76042
611.314,66.26889,-0.82813,0.18313,0.75777
614.914,66.63115,-0.82539,0.19349,0.75511
618.514,66.99164,-0.82495,0.20235,0.75244
622.114,67.35089,-0.82673,0.21641,0.74975
625.714,67.71276,-0.83164,0.22667,0.74705
629.314,68.07415,-0.83449,0.23297,0.74434
632.914,68.4354,-0.83867,0.24181,0.74162
636.514,68.79674,-0.83997,0.24814,0.73889
640.114,69.15847,-0.84518,0.25239,0.73614
643.714,69.51918,-0.8505,0.25794,0.73339
647.314,69.88086,-0.85577,0.25884,0.73062
650.914,70.24237,-0.86061,0.25237,0.72784
654.514,70.604,-0.86027,0.25243,0.72505
658.114,70.96608,-0.86323,0.24676,0.72224
661.714,71.32858,-0.86894,0.24583,0.71943
665.314,71.69066,-0.87288,0.24483,0.7166
668.914,72.05245,-0.88093,0.24379,0.71377
672.514,72.41591,-0.88562,0.24582,0.71092
676.114,72.77768,-0.89317,0.24237,0.70806
679.714,73.13975,-0.89767,0.2339,0.70519
683.314,73.5014,-0.89701,0.22039,0.7023
686.914,73.86326,-0.90122,0.21183,0.69941
690.514,74.2264,-0.90319,0.19997,0.6965
694.114,74.5897,-0.9082,0.17834,0.69359
697.714,74.95543,-0.91443,0.16155,0.69066
701.314,75.32007,-0.9115,0.14177,0.68773
704.914,75.68449,-0.91182,0.1278,0.68478
708.514,76.04868,-0.91676,0.12463,0.68182
712.114,76.4119,-0.91828,0.12585,0.67885
715.714,76.77282,-0.91771,0.12334,0.67587
719.314,77.136,-0.91643,0.11856,0.67289
722.914,77.50041,-0.92049,0.11927,0.66989
726.514,77.86455,-0.92048,0.11827,0.66688
730.114,78.22805,-0.92179,0.11934,0.66386
733.714,78.59388,-0.92167,0.11678,0.66083
737.314,78.95831,-0.92312,0.1199,0.65779
740.914,79.3226,-0.92578,0.12135,0.65475
744.514,79.6876,-0.92444,0.11983,0.65169
748.114,80.05233,-0.92236,0.12069,0.64862
751.714,80.41571,-0.92642,0.1181,0.64555
755.314,80.77977,-0.92784,0.12273,0.64247
758.914,81.14485,-0.92915,0.12184,0.63937
762.514,81.50861,-0.92916,0.11774,0.63627
766.114,81.87308,-0.93185,0.11552,0.63316
769.714,82.23821,-0.92793,0.11696,0.63005
773.314,82.60472,-0.93416,0.1159,0.62692
776.914,82.97064,-0.9308,0.11712,0.62379
780.514,83.33618,-0.93409,0.1136,0.62064
784.114,83.70054,-0.93946,0.11101,0.61749
787.714,84.06334,-0.93908,0.11699,0.61434
791.314,84.42911,-0.93913,0.11493,0.61117
794.914,84.79646,-0.9395,0.13471,0.608
798.514,85.16144,-0.94341,0.14075,0.60482
802.114,85.5273,-0.94802,0.14784,0.60163
805.714,85.89381,-0.94698,0.14997,0.59844
809.314,86.2594,-0.95109,0.15284,0.59524
812.914,86.62509,-0.95241,0.15052,0.59204
816.514,86.99083,-0.95647,0.1566,0.58883
820.114,87.35661,-0.95844,0.16507,0.58561
823.714,87.72304,-0.96107,0.18478,0.58238
827.314,88.0886,-0.9657,0.19432,0.57915
830.914,88.45312,-0.96962,0.20399,0.57592
834.514,88.81945,-0.97369,0.22018,0.57268
838.114,89.18651,-0.975,0.23201,0.56943
841.714,89.554,-0.98499,0.24289,0.56618
845.314,89.92,-0.98366,0.25224,0.56293
848.914,90.28614,-0.98968,0.26535,0.55967
852.514,90.65202,-0.99669,0.27585,0.5564
856.114,91.01814,-1.00198,0.27825,0.55314
859.714,91.3849,-1.00461,0.27662,0.54986
863.314,91.75023,-1.01141,0.25199,0.54659
866.914,92.11654,-1.02118,0.21344,0.54331
870.514,92.48292,-1.01695,0.16837,0.54002
874.114,92.84975,-1.02052,0.1454,0.53674
877.714,93.2173,-1.02448,0.12563,0.53345
881.314,93.5847,-1.02383,0.11619,0.53016
884.914,93.95065,-1.0271,0.10889,0.52686
888.514,94.31661,-1.02897,0.10494,0.52356
892.114,94.6832,-1.03143,0.10546,0.52027
895.214,94.99786,-1.03126,0.10685,0.51742

File: Lightweight_Gypsum_Wallboard_Gypsum_Core_STA_N2_10KData_222402_R1.csv
##Temp./Â°C,Time/min,Mass loss(subtr.2)/mg,DSC(subtr.2)/(mW/mg),Sensit./(uV/mW)
49.816,10.00917,-0.00197,0.01053938,1.07509
53.416,11.37503,-0.004719605,0.10373,1.07322
57.016,11.86614,-0.006013564,0.14522,1.07135
60.616,12.29162,-0.006183007,0.16841,1.06947
64.216,12.69355,-0.00635,0.18796,1.0676
67.816,13.0848,-0.00769435,0.2053,1.06574
71.416,13.46964,-0.01031625,0.22439,1.06387
75.016,13.84844,-0.01129544,0.24514,1.06201
78.616,14.22473,-0.01295,0.2669,1.06015
82.216,14.5962,-0.01690013,0.29483,1.05829
85.816,14.9635,-0.01848791,0.33681,1.05643
89.416,15.32501,-0.02280509,0.39462,1.05458
93.016,15.6868,-0.03202921,0.48152,1.05272
96.616,16.04815,-0.04026643,0.60409,1.05087
100.216,16.40916,-0.05494945,0.76887,1.04902
103.816,16.76667,-0.07431805,0.94223,1.04718
107.416,17.1236,-0.0985744,1.12165,1.04533
111.016,17.4803,-0.13,1.38716,1.04349
114.616,17.84113,-0.17728,2.11917,1.04165
118.216,18.2062,-0.24554,2.86979,1.03981
121.816,18.57287,-0.33345,3.44592,1.03797
125.416,18.93504,-0.42501,3.42725,1.03613
129.016,19.29,-0.50111,3.05062,1.0343
132.616,19.6418,-0.57236,3.25982,1.03247
136.216,19.99355,-0.64537,3.17991,1.03064
139.816,20.3365,-0.68866,1.42995,1.02881
143.416,20.66733,-0.69672,0.6024,1.02698
147.016,20.99983,-0.702,0.37894,1.02516
150.616,21.33621,-0.70661,0.29853,1.02333
154.216,21.67557,-0.70826,0.25941,1.02151
157.816,22.01695,-0.71121,0.23438,1.01969
161.416,22.35783,-0.71155,0.21979,1.01787
165.016,22.70058,-0.71549,0.20811,1.01605
168.616,23.04279,-0.7168,0.20138,1.01423
172.216,23.3866,-0.71812,0.19553,1.01241
175.816,23.73026,-0.71878,0.19161,1.01059
179.416,24.07466,-0.72204,0.18782,1.00878
183.016,24.41935,-0.72272,0.18564,1.00696
186.616,24.76406,-0.72266,0.18135,1.00515
190.216,25.10802,-0.72404,0.18001,1.00333
193.816,25.45182,-0.72468,0.17786,1.00152
197.416,25.79525,-0.72601,0.17969,0.99971
201.016,26.13935,-0.72601,0.17998,0.99789
204.616,26.4826,-0.72667,0.17797,0.99608
208.216,26.82625,-0.72733,0.1778,0.99427
211.816,27.1697,-0.72997,0.17819,0.99245
215.416,27.5124,-0.72931,0.17398,0.99064
219.016,27.85694,-0.7316,0.17351,0.98882
222.616,28.20148,-0.73029,0.16868,0.98701
226.216,28.54662,-0.73227,0.16684,0.98519
229.816,28.8906,-0.73161,0.16414,0.98337
233.416,29.2344,-0.73293,0.16303,0.98156
237.016,29.5785,-0.73392,0.16262,0.97974
240.616,29.922,-0.73392,0.15798,0.97792
244.216,30.2655,-0.73524,0.15609,0.9761
247.816,30.6095,-0.73556,0.15253,0.97427
251.416,30.95451,-0.73622,0.14997,0.97245
255.016,31.29788,-0.73458,0.14744,0.97062
258.616,31.64191,-0.73721,0.14662,0.9688
262.216,31.98599,-0.73688,0.14461,0.96697
265.816,32.3309,-0.73736,0.14197,0.96513
269.416,32.67474,-0.73982,0.14199,0.9633
273.016,33.01853,-0.73918,0.13693,0.96146
276.616,33.3634,-0.73885,0.1382,0.95962
280.216,33.70821,-0.74017,0.13451,0.95778
283.816,34.05308,-0.73953,0.13664,0.95593
287.416,34.3989,-0.7418,0.13576,0.95409
291.016,34.74403,-0.74148,0.13834,0.95223
294.616,35.08937,-0.74214,0.13454,0.95038
298.216,35.43554,-0.74346,0.13441,0.94852
301.816,35.7817,-0.74346,0.13085,0.94666
305.416,36.12786,-0.74478,0.12777,0.94479
309.016,36.4743,-0.74543,0.12215,0.94292
312.616,36.82065,-0.7474,0.12047,0.94105
316.216,37.1678,-0.7474,0.12021,0.93917
319.816,37.5144,-0.74773,0.12037,0.93729
323.416,37.86085,-0.74872,0.12253,0.9354
327.016,38.20697,-0.74806,0.1236,0.93351
330.616,38.55355,-0.7507,0.12447,0.93161
334.216,38.90097,-0.7507,0.12602,0.92971
337.816,39.2496,-0.74938,0.12929,0.9278
341.416,39.59771,-0.75168,0.12761,0.92589
345.016,39.94594,-0.7533,0.12625,0.92397
348.616,40.29401,-0.75201,0.12605,0.92205
352.216,40.64282,-0.75333,0.12451,0.92012
355.816,40.99256,-0.7553,0.12008,0.91819
359.416,41.3416,-0.75695,0.11844,0.91624
363.016,41.69138,-0.75563,0.11609,0.9143
366.616,42.0404,-0.75695,0.11449,0.91234
370.216,42.3904,-0.75661,0.11439,0.91038
373.816,42.7402,-0.75892,0.11692,0.90841
377.416,43.0906,-0.7576,0.11315,0.90644
381.016,43.43967,-0.75826,0.11019,0.90446
384.616,43.78975,-0.76054,0.106,0.90247
388.216,44.14029,-0.76056,0.10088,0.90048
391.816,44.49137,-0.76056,0.0929498,0.89847
395.416,44.842,-0.7629,0.08290746,0.89646
399.016,45.19279,-0.76089,0.07070103,0.89444
402.616,45.54231,-0.76122,0.05632632,0.89242
406.216,45.89373,-0.76088,0.04070015,0.89038
409.816,46.2464,-0.7632,0.01899948,0.88834
413.416,46.5986,-0.76188,-6.814645e-05,0.88629
417.016,46.95062,-0.76155,-0.0197601,0.88423
420.616,47.30279,-0.76221,-0.03340472,0.88216
424.216,47.65576,-0.76346,-0.04653336,0.88009
427.816,48.00888,-0.76385,-0.05151047,0.878
431.416,48.3621,-0.76417,-0.04692651,0.87591
435.016,48.71629,-0.76609,-0.03725908,0.87381
438.616,49.06987,-0.7655,-0.02004849,0.87169
442.216,49.42371,-0.76616,-0.000153979,0.86957
445.816,49.7766,-0.76748,0.01887427,0.86744
449.416,50.1314,-0.76715,0.03780258,0.8653
453.016,50.48558,-0.76847,0.05455428,0.86315
456.616,50.84,-0.76748,0.06491062,0.86099
460.216,51.19532,-0.76879,0.07404932,0.85882
463.816,51.5512,-0.76747,0.08443775,0.85664
467.416,51.90657,-0.76747,0.08792658,0.85445
471.016,52.26076,-0.76749,0.09518882,0.85225
474.616,52.6155,-0.76748,0.10242,0.85004
478.216,52.9703,-0.76773,0.10054,0.84782
481.816,53.3265,-0.76847,0.10475,0.84559
485.416,53.6824,-0.76716,0.10926,0.84335
489.016,54.0386,-0.76945,0.10955,0.8411
492.616,54.39408,-0.76846,0.10873,0.83883
496.216,54.7501,-0.77011,0.10767,0.83656
499.816,55.1059,-0.76879,0.10816,0.83428
503.416,55.46206,-0.76945,0.10465,0.83198
507.016,55.81875,-0.76945,0.10623,0.82967
510.616,56.17565,-0.76912,0.10504,0.82735
514.216,56.5327,-0.76945,0.10449,0.82502
517.816,56.8903,-0.76911,0.10318,0.82268
521.416,57.2476,-0.76978,0.10611,0.82033
525.016,57.60575,-0.77043,0.10467,0.81797
528.616,57.96362,-0.77043,0.1049,0.81559
532.216,58.32102,-0.77143,0.10322,0.81321
535.816,58.6785,-0.77044,0.10342,0.81081
539.416,59.0369,-0.76945,0.10354,0.8084
543.016,59.39507,-0.77076,0.10527,0.80598
546.616,59.7539,-0.76945,0.10364,0.80354
550.216,60.1121,-0.76948,0.10211,0.8011
553.816,60.46994,-0.76945,0.10384,0.79864
557.416,60.82883,-0.77076,0.10937,0.79617
561.016,61.1881,-0.77043,0.11467,0.79369
564.616,61.54826,-0.77176,0.11158,0.7912
568.216,61.90791,-0.77243,0.11447,0.78869
571.816,62.2671,-0.77273,0.1181,0.78618
575.416,62.62624,-0.77419,0.1157,0.78365
579.016,62.9856,-0.77471,0.11845,0.78111
582.616,63.34629,-0.77636,0.12086,0.77855
586.216,63.70685,-0.77801,0.11827,0.77599
589.816,64.06759,-0.77873,0.12021,0.77341
593.416,64.42885,-0.77962,0.12153,0.77082
597.016,64.7895,-0.77998,0.12733,0.76822
600.616,65.1503,-0.78196,0.12842,0.76561
604.216,65.51099,-0.78393,0.13711,0.76298
607.816,65.87127,-0.78532,0.14447,0.76034
611.416,66.2324,-0.78525,0.14835,0.75769
615.016,66.5926,-0.78755,0.15928,0.75503
618.616,66.95477,-0.79018,0.16336,0.75236
622.216,67.31703,-0.79167,0.17233,0.74967
625.816,67.6795,-0.79511,0.18196,0.74698
629.416,68.04037,-0.79634,0.19337,0.74427
633.016,68.40255,-0.80129,0.20393,0.74155
636.616,68.76451,-0.804,0.2063,0.73881
640.216,69.12606,-0.81033,0.21503,0.73607
643.816,69.4871,-0.81182,0.21658,0.73331
647.416,69.849,-0.81717,0.21868,0.73054
651.016,70.21074,-0.82025,0.2193,0.72776
654.616,70.5737,-0.82594,0.2184,0.72497
658.216,70.93658,-0.82923,0.21227,0.72217
661.816,71.29972,-0.83329,0.20813,0.71935
665.416,71.66275,-0.83965,0.20834,0.71652
669.016,72.02565,-0.84349,0.20846,0.71369
672.616,72.38871,-0.85018,0.20882,0.71084
676.216,72.7529,-0.85281,0.2073,0.70798
679.816,73.11522,-0.85807,0.20106,0.7051
683.416,73.47758,-0.86333,0.18916,0.70222
687.016,73.8394,-0.86762,0.1766,0.69933
690.616,74.2025,-0.87028,0.15089,0.69642
694.216,74.56715,-0.87421,0.12667,0.69351
697.816,74.93138,-0.87701,0.10227,0.69058
701.416,75.29651,-0.8816,0.0830533,0.68764
705.016,75.6611,-0.8821,0.0637681,0.6847
708.616,76.0244,-0.88209,0.06357805,0.68174
712.216,76.38856,-0.88473,0.057862,0.67877
715.816,76.75315,-0.88608,0.05589522,0.67579
719.416,77.11747,-0.8864,0.05925472,0.6728
723.016,77.48214,-0.887,0.05441934,0.6698
726.616,77.84648,-0.88894,0.05200955,0.66679
730.216,78.21002,-0.89064,0.051712,0.66377
733.816,78.5735,-0.89201,0.05673706,0.66075
737.416,78.9379,-0.89226,0.05695975,0.65771
741.016,79.3031,-0.89093,0.05249183,0.65466
744.616,79.66764,-0.89361,0.05501129,0.6516
748.216,80.03255,-0.89327,0.05467336,0.64854
751.816,80.39794,-0.8955,0.05729214,0.64546
755.416,80.76396,-0.8992,0.05843001,0.64238
759.016,81.12872,-0.89921,0.05768234,0.63929
762.616,81.4936,-0.89954,0.05673278,0.63618
766.216,81.85934,-0.90053,0.05851771,0.63308
769.816,82.22496,-0.90217,0.06648927,0.62996
773.416,82.5899,-0.90348,0.06568623,0.62683
777.016,82.95464,-0.9048,0.07628441,0.6237
780.616,83.31936,-0.90744,0.08036741,0.62055
784.216,83.68519,-0.90843,0.08176431,0.6174
787.816,84.05065,-0.91104,0.08261292,0.61425
791.416,84.41605,-0.91318,0.08206735,0.61108
795.016,84.78226,-0.91446,0.0863053,0.60791
798.616,85.14796,-0.91711,0.08788421,0.60473
802.216,85.51388,-0.9184,0.0900562,0.60154
805.816,85.87913,-0.92038,0.09815819,0.59835
809.416,86.24537,-0.92432,0.10392,0.59515
813.016,86.6112,-0.92697,0.11562,0.59195
816.616,86.97654,-0.92825,0.1263,0.58873
820.216,87.3429,-0.93354,0.13455,0.58552
823.816,87.70877,-0.93683,0.14824,0.58229
827.416,88.07525,-0.94142,0.15955,0.57906
831.016,88.44155,-0.94407,0.18065,0.57583
834.616,88.8078,-0.94802,0.19535,0.57259
838.216,89.17407,-0.95328,0.2112,0.56934
841.816,89.5402,-0.95855,0.23552,0.56609
845.416,89.9064,-0.96379,0.2453,0.56284
849.016,90.2741,-0.96909,0.26129,0.55958
852.616,90.64085,-0.97435,0.27321,0.55631
856.216,91.00873,-0.98093,0.27952,0.55304
859.816,91.37566,-0.98623,0.27979,0.54977
863.416,91.74224,-0.99143,0.27459,0.54649
867.016,92.10677,-0.99729,0.25958,0.54321
870.616,92.47289,-1.00264,0.21243,0.53993
874.216,92.83914,-1.00528,0.15905,0.53664
877.816,93.2054,-1.00824,0.12554,0.53336
881.416,93.5723,-1.01186,0.11238,0.53006
885.016,93.9382,-1.01416,0.09953533,0.52677
888.616,94.30449,-1.0158,0.10129,0.52347
892.216,94.6735,-1.01844,0.09888917,0.52017
895.316,94.99105,-1.02009,0.10244,0.51733