Folder: fsri_materials_database/01_Data/Black_PMMA/Cone (part 2)

File: Black_PMMA_Cone_HF25Scan_220315_R3.csv
Names,Time,Stack TC,Smoke TC,Exh Press,Smoke Comp,Smoke Meas,CO Meter,CO2 Meter,O2 Meter,Sample Mass,Ext Coeff,Start Test,Flame Verif
Chan Gain,,500,500,1,1,1,1,1,1,1,1,1.0,1.0
Offset,,0,0,0.136235,0,0,0,0,0,0,0,0.0,0.0
Gain,,1,1,25.011,13.6985,14.3472,1,1,1,1.00091,1.01482,1.0,1.0
Units,sec,C,C,Pa,%,%,%,%,%,g,/m,,
Baseline,,22.6693,21.6627,174.833,103.744,99.4638,0.000950575,0.0455087,21.0201,-832.134,0.375064,,
33,8,21.0115,19.7503,177.438,102.963,98.3358,0.000928407,0.0543984,21.0076,-237.806,0.409325,0.0,0.0
66,16.25,20.7209,20.3162,175.269,103.505,98.7053,0.00107533,0.0507943,21.0132,-237.806,0.422691,0.0,0.0
99,24.5,20.4549,19.7971,179.587,104.074,99.2045,0.00114401,0.0458953,21.0213,-237.816,0.426551,0.0,0.0
132,32.75,20.9226,20.2497,176.019,104.195,99.0232,0.000898111,0.0468547,21.0194,-237.776,0.453196,0.0,0.0
165,41,20.8764,19.8652,173.717,103.819,98.9518,0.000833409,0.0450571,21.0209,-237.856,0.427447,0.0,0.0
198,49.25,20.8801,20.1011,172.82,103.792,98.796,0.000957752,0.0442043,21.0224,-237.846,0.439114,0.0,0.0
231,57.5,21.0556,20.4449,175.208,104.471,99.2929,0.000927315,0.0440715,21.0211,-237.816,0.452523,0.0,0.0
264,65.75,20.554,20.6252,172.402,104.088,98.8231,0.00082884,0.0440969,21.0245,-237.846,0.462017,0.0,0.0
297,74,20.6751,20.2007,170.402,104.465,99.1576,0.00105596,0.0447368,21.0233,-237.866,0.464162,0.0,0.0
330,82.25,20.4704,20.4249,173.449,104.878,99.6857,0.000943668,0.0452837,21.0223,-237.866,0.45201,0.0,0.0
363,90.5,20.7889,20.0781,173.559,104.726,99.3656,0.00141073,0.0450932,21.0243,-237.886,0.467748,0.0,0.0
396,98.75,21.1587,20.7496,176.493,103.868,98.7062,0.000949613,0.0441079,21.0236,-237.886,0.45373,0.0,0.0
429,107,20.5481,20.3708,174.391,103.142,97.7184,0.00110897,0.0440864,21.0231,-237.916,0.480844,0.0,0.0
462,115.25,20.2846,20.4104,175.544,103.195,97.7614,0.00109441,0.0445896,21.0198,-237.976,0.481554,0.0,0.0
495,123.5,23.0592,22.3092,154.336,103.65,97.3384,0.0030534,0.235533,20.7139,-238.436,0.5593,0.0,1.0
528,131.75,31.2593,30.9113,138.94,104.086,101.186,0.00445348,0.570449,20.286,-239.427,0.251557,0.0,0.0
561,140,41.7881,42.5369,139.669,104.352,100.827,0.00599631,0.742278,20.0575,-240.688,0.30591,0.0,0.0
594,148.25,50.7955,53.1563,139.01,104.423,99.9611,0.00642614,0.794538,19.9923,-241.909,0.388725,0.0,0.0
627,156.5,58.6514,61.6235,132.601,104.282,99.9865,0.0065599,0.826301,19.9533,-243.261,0.374481,0.0,0.0
660,164.75,64.4463,68.3435,134.629,104.146,99.8836,0.00623781,0.821486,19.9627,-244.512,0.37197,0.0,0.0
693,173,70.1353,74.9862,125.327,104.054,100.021,0.00637412,0.835682,19.9402,-245.763,0.351858,0.0,0.0
726,181.25,74.3818,80.5874,136.831,104.001,99.9961,0.00685409,0.839759,19.9375,-247.094,0.349611,0.0,0.0
759,189.5,78.1694,84.9496,135.758,103.983,100.012,0.00675815,0.852896,19.9187,-248.395,0.346558,0.0,0.0
792,197.75,80.9509,88.6603,134.979,104.012,98.6996,0.00682215,0.859192,19.907,-249.667,0.466674,0.0,0.0
825,206,84.0692,91.9028,129.931,104.09,99.7111,0.00704883,0.871487,19.8919,-251.068,0.382604,0.0,0.0
858,214.25,86.0877,94.656,131.85,104.216,99.9755,0.00696465,0.871973,19.8935,-252.359,0.36978,0.0,0.0
891,222.5,88.8925,96.8094,128.747,104.301,99.2737,0.00707876,0.863636,19.9018,-253.66,0.43974,0.0,0.0
924,230.75,90.28,99.1504,135.062,104.38,100.595,0.0069781,0.874076,19.8875,-255.001,0.328846,0.0,0.0
957,239,91.5671,101.324,140.017,104.43,99.6918,0.00669148,0.881521,19.8799,-256.383,0.413379,0.0,0.0
990,247.25,93.4585,103.185,130.06,104.392,99.1638,0.00698477,0.907894,19.843,-257.764,0.457375,0.0,0.0
1023,255.5,95.2863,105.325,126.031,104.287,99.0092,0.00734039,0.932497,19.8097,-259.195,0.462345,0.0,0.0
1056,263.75,96.6582,107.743,133.665,104.081,99.8323,0.00776218,0.95701,19.7779,-260.586,0.371032,0.0,0.0
1089,272,97.9328,109.048,123.4,103.823,99.4164,0.00739856,0.947696,19.7898,-262.068,0.386039,0.0,0.0
1122,280.25,99.8008,110.673,131.179,103.568,99.0004,0.00766639,0.949029,19.7856,-263.459,0.401543,0.0,0.0
1155,288.5,101.499,112.154,131.861,103.329,98.711,0.00790625,0.974734,19.7521,-264.93,0.407027,0.0,0.0
1188,296.75,102.393,113.785,129.215,103.179,97.7684,0.0076795,0.98398,19.741,-266.302,0.47951,0.0,0.0
1221,305,104.611,115.623,134.722,103.18,98.7408,0.00776487,1.00621,19.7114,-267.833,0.391476,0.0,0.0
1254,313.25,106.163,116.932,130.17,103.264,97.7009,0.00796651,1.02623,19.6851,-269.344,0.492934,0.0,0.0
1287,321.5,107.357,118.973,131.408,103.48,98.6217,0.00780367,1.03421,19.6738,-270.896,0.428042,0.0,0.0
1320,329.75,108.497,120.264,127.938,103.782,98.9037,0.0077218,1.04834,19.6555,-272.387,0.428554,0.0,0.0
1353,338,109.337,122.189,124.126,104.177,98.7925,0.00821621,1.07383,19.6201,-273.999,0.472427,0.0,0.0
1386,346.25,111.712,123.042,123.31,104.544,98.539,0.00851976,1.09944,19.5844,-275.57,0.526573,0.0,0.0
1419,354.5,113.835,125.373,121.321,104.825,98.3472,0.00868275,1.1211,19.5514,-277.161,0.567839,0.0,0.0
1452,362.75,115.873,127.476,117.987,105,99.7014,0.00872221,1.14398,19.5235,-278.793,0.460922,0.0,0.0
1485,371,117.139,129.918,122.714,105.007,99.6852,0.00864822,1.16189,19.5005,-280.484,0.462971,0.0,0.0
1518,379.25,118.791,131.648,121.179,104.841,99.6314,0.00882511,1.16485,19.4957,-282.116,0.453737,0.0,0.0
1551,387.5,120.834,133.25,121.442,104.572,98.2649,0.00921858,1.19853,19.4516,-283.807,0.553824,0.0,0.0
1584,395.75,122.219,135.441,123.556,104.287,97.366,0.00893072,1.2001,19.4462,-285.479,0.611255,0.0,0.0
1617,404,123.431,136.958,126.035,104.241,99.0766,0.00944739,1.22736,19.409,-287.221,0.452323,0.0,0.0
1650,412.25,124.891,138.383,119.379,104.581,99.0521,0.00943389,1.25222,19.3841,-288.962,0.483538,0.0,0.0
1683,420.5,126.693,140.22,124.05,104.583,97.82,0.00975995,1.2564,19.3798,-290.704,0.595069,0.0,0.0
1716,428.75,128.477,141.751,111.543,104.23,97.6808,0.00947237,1.26719,19.362,-292.485,0.577702,0.0,0.0
1749,437,129.904,144.251,120.917,103.766,96.2924,0.00992623,1.30568,19.3111,-294.277,0.665454,0.0,0.0
1782,445.25,131.779,145.509,124.893,103.974,97.5061,0.00998649,1.31138,19.3034,-296.089,0.571723,0.0,0.0
1815,453.5,133.547,147.402,121.536,104.295,97.9934,0.00989466,1.32552,19.2814,-297.97,0.554824,0.0,0.0
1848,461.75,134.919,149.942,112.97,104.427,96.6886,0.0100602,1.34643,19.2593,-299.712,0.685382,0.0,0.0
1881,470,136.91,150.45,119.928,104.254,97.1501,0.0101385,1.34472,19.2581,-301.564,0.628228,0.0,0.0
1914,478.25,137.411,151.716,115.822,103.854,97.3673,0.0105461,1.37039,19.2166,-303.425,0.574125,0.0,0.0
1947,486.5,139.71,154.585,123.254,103.358,96.2219,0.0111946,1.38754,19.1972,-305.297,0.63683,0.0,0.0
1980,494.75,141.982,155.384,111.648,103.129,96.1238,0.0109185,1.4228,19.1442,-307.209,0.626155,0.0,0.0
2013,503,143.467,158.306,113.045,103.411,95.6155,0.0112116,1.45397,19.1022,-309.201,0.697681,0.0,0.0
2046,511.25,145.118,160.642,107.093,104.098,95.559,0.0118522,1.49049,19.0616,-311.082,0.761907,0.0,0.0
2079,519.5,147.05,162.971,109.961,104.734,95.0822,0.011634,1.49608,19.049,-313.094,0.860645,0.0,0.0
2112,527.75,148.932,164.56,114.86,105.032,97.4343,0.0119192,1.5351,19.0032,-315.086,0.668448,0.0,0.0
2145,536,150.763,167.304,118.397,104.911,95.605,0.0127402,1.55874,18.9687,-317.128,0.826851,0.0,0.0
2178,544.25,152.623,169.246,108.793,104.526,96.2626,0.0118542,1.56926,18.96,-319.14,0.733169,0.0,0.0
2211,552.5,154.679,170.724,111.616,104.166,96.5573,0.0119737,1.58317,18.9421,-321.241,0.675182,0.0,0.0
2244,560.75,155.133,172.464,108.406,104.631,95.0682,0.0131007,1.62393,18.8861,-323.333,0.853177,0.0,0.0
2277,569,157.557,175.169,109.193,104.484,94.3007,0.0128211,1.65242,18.8509,-325.425,0.912845,0.0,0.0
2310,577.25,159.663,177.342,109.746,103.766,95.3834,0.012782,1.65516,18.8465,-327.497,0.749812,0.0,0.0
2343,585.5,160.516,178.162,108.714,104.023,94.2065,0.0131114,1.6475,18.8591,-329.659,0.882399,0.0,0.0
2376,593.75,161.014,179.048,114.951,104.381,96.4408,0.0127427,1.61576,18.8923,-331.661,0.70427,0.0,0.0
2409,602,160.891,179.211,109.454,104.352,95.5411,0.0124786,1.55825,18.9792,-333.723,0.785289,0.0,0.0
2442,610.25,160.487,178.249,112.981,103.985,94.0765,0.0123486,1.50043,19.0662,-335.625,0.891439,0.0,0.0
2475,618.5,158.82,176.285,112.227,103.477,95.0437,0.0124531,1.4382,19.1292,-337.546,0.756762,0.0,0.0
2508,626.75,155.203,171.733,128.899,103.152,96.0884,0.0104186,1.19484,19.4827,-339.048,0.631461,0.0,0.0
2541,635,147.084,162.022,143.844,103.134,94.1312,0.00813041,0.778138,20.0857,-340.109,0.813135,0.0,0.0
2574,643.25,132.645,146.92,150.435,103.363,98.1475,0.00427655,0.354414,20.6322,-340.469,0.460907,0.0,0.0
2607,651.5,117.584,130.051,162.757,103.721,99.518,0.00185737,0.15802,20.8928,-340.609,0.368234,0.0,0.0
2640,659.75,105.748,114.973,163.775,104.052,99.592,0.00142533,0.0836932,20.9821,-340.649,0.389989,0.0,0.0
2673,668,94.5937,102.482,165.747,104.258,99.9287,0.00084443,0.0564057,21.0101,-340.659,0.377558,0.0,0.0
2706,676.25,85.6572,92.1088,163.992,104.416,99.7308,0.000640141,0.0487046,21.0172,-340.609,0.408652,0.0,0.0
2739,684.5,78.3018,83.3162,167.346,104.504,99.909,0.000728351,0.0475953,21.0193,-340.649,0.400313,0.0,0.0
2772,692.75,71.9165,76.131,161.97,104.519,99.7579,0.000551806,0.0463776,21.0187,-340.619,0.415029,0.0,0.0
2805,701,66.5561,69.5894,169.605,104.491,99.9865,0.000519458,0.0454093,21.0202,-340.639,0.392235,0.0,0.0
2838,709.25,63.1295,64.9263,164.67,104.418,99.5876,0.000440002,0.0452826,21.021,-340.649,0.42162,0.0,0.0
2871,717.5,59.2045,59.9203,172.605,104.216,99.4129,0.000769512,0.0461025,21.0188,-340.669,0.420054,0.0,0.0
2904,725.75,55.5224,55.412,166.635,103.912,99.2334,0.000655932,0.0461128,21.0208,-340.639,0.410074,0.0,0.0
2937,734,53.3631,53.173,170.11,103.58,98.7102,0.000357208,0.0468079,21.0196,-340.669,0.428726,0.0,0.0
2970,742.25,50.8618,50.3731,165.288,103.306,98.2771,0.000790658,0.0460188,21.0216,-340.679,0.444227,0.0,0.0
3003,750.5,48.7958,47.3335,171.177,103.131,98.2574,0.000410396,0.0463102,21.0209,-340.709,0.430941,0.0,0.0
3036,758.75,46.2961,44.4747,172.325,103.186,98.2307,0.000429602,0.0455033,21.0213,-340.699,0.438123,0.0,0.0
3069,767,45.5677,43.5011,169.3,103.468,98.5385,0.000661831,0.044821,21.0207,-340.669,0.434547,0.0,0.0
3102,775.25,44.1495,41.4391,164.332,103.877,98.9151,,,,-340.669,0.435738,0.0,0.0
3132,782.75,42.8968,40.6269,165.035,104.256,99.4773,,,,-340.669,0.417648,0.0,0.0

File: Black_PMMA_Cone_HF25Scan_220909_R4.csv
Names,Time,Stack TC,Smoke TC,Exh Press,Smoke Comp,Smoke Meas,CO Meter,CO2 Meter,O2 Meter,Sample Mass,Ext Coeff,Start Test,Flame Verif
Chan Gain,,500,500,1,1,1,1,1,1,1,1,1.0,1.0
Offset,,0,0,0.142519,0,0,0,0,0,0,0,0.0,0.0
Gain,,1,1,25.011,13.0826,14.7555,1,1,1,1.00088,1.03743,1.0,1.0
Units,sec,C,C,Pa,%,%,%,%,%,g,/m,,
Baseline,,43.0835,43.7684,138.131,100.044,107.935,6.03809e-05,0.0448369,21.0016,-443.229,-0.690866,,
32,7.75,41.5839,41.7464,138.676,100.038,107.955,0.000293461,0.0556429,20.9878,151.573,-0.693075,0.0,0.0
64,15.75,41.8211,42.2264,136.133,100.038,108.029,-1.3675e-05,0.053426,20.99,151.533,-0.69941,0.0,0.0
96,23.75,42.1223,42.6232,139.728,100.023,107.877,0.000207369,0.050434,20.9945,151.523,-0.687886,0.0,0.0
128,31.75,41.7475,42.4413,133.441,100.014,107.975,-9.06362e-05,0.0510482,20.9946,151.513,-0.697036,0.0,0.0
160,39.75,41.9781,42.2725,137.86,100.026,108.007,-0.000251512,0.0508433,20.9946,151.493,-0.698566,0.0,0.0
192,47.75,41.9787,42.6813,138.886,100.017,107.917,-0.000520491,0.0498465,20.9962,151.503,-0.691812,0.0,0.0
224,55.75,41.8485,42.9305,135.12,100.023,107.898,-0.000122649,0.0482911,20.9963,151.503,-0.689745,0.0,0.0
256,63.75,42.1006,42.6394,133.922,100.055,107.896,6.88237e-05,0.0495445,20.9959,151.483,-0.686612,0.0,0.0
288,71.75,42.0634,42.6052,135.3,100.057,107.979,-0.000206127,0.049853,20.9956,151.473,-0.693455,0.0,0.0
320,79.75,42.2365,43.0527,134.867,100.057,107.897,-0.000252867,0.0455935,20.9996,151.463,-0.68647,0.0,0.0
352,87.75,42.355,43.0878,137.187,100.076,108.042,-0.000256616,0.0436883,21.0034,151.433,-0.696911,0.0,0.0
384,95.75,42.0566,42.9428,137.344,100.068,107.953,-6.61544e-05,0.0434632,21.0039,151.393,-0.690237,0.0,0.0
416,103.75,42.8994,43.3544,124.328,100.054,106.158,0.00100463,0.106914,20.9143,151.213,-0.538925,0.0,1.0
448,111.75,52.4856,47.661,115.009,100.059,101.527,0.00311274,0.488457,20.4171,150.392,-0.132477,0.0,0.0
480,119.75,66.4536,59.0131,112.135,100.06,99.0724,0.00470416,0.741568,20.0595,149.301,0.0902383,0.0,0.0
512,127.75,77.6141,69.3666,106.702,100.066,99.3147,0.00543388,0.807337,19.9744,148.12,0.0685935,0.0,0.0
544,135.75,85.7786,78.1448,110.847,100.073,98.673,0.00562614,0.818754,19.9628,146.959,0.128236,0.0,0.0
576,143.75,92.0903,85.5589,111.119,100.088,98.3173,0.00539832,0.82861,19.9514,145.798,0.16241,0.0,0.0
608,151.75,96.2794,91.5353,109.852,100.095,98.6802,0.00560742,0.837111,19.9391,144.647,0.129531,0.0,0.0
640,159.75,99.5276,96.2223,102.247,100.108,96.8574,0.00576136,0.85225,19.9191,143.416,0.300366,0.0,0.0
672,167.75,103.298,102.287,108.787,100.104,97.4675,0.00583595,0.870079,19.894,142.225,0.242855,0.0,0.0
704,175.75,105.946,105.88,107.614,100.132,97.5607,0.00599185,0.875886,19.8858,140.994,0.236697,0.0,0.0
736,183.75,108.108,109.361,103.536,100.197,95.9869,0.00625652,0.881044,19.8778,139.813,0.390644,0.0,0.0
768,191.75,110.363,112.901,112.278,100.31,97.821,0.00654059,0.883447,19.8751,138.582,0.228656,0.0,0.0
800,199.75,111.987,115.495,111.775,100.456,95.9478,0.0059332,0.90666,19.846,137.291,0.417863,0.0,0.0
832,207.75,114.63,118.903,106.988,100.619,96.8947,0.00651477,0.934853,19.8062,136.02,0.343194,0.0,0.0
864,215.75,116.457,121.439,102.8,100.801,96.0342,0.00647033,0.965384,19.7627,134.729,0.440861,0.0,0.0
896,223.75,118.67,124.064,106.6,100.993,98.7851,0.00658606,0.963675,19.765,133.387,0.201133,0.0,0.0
928,231.75,120.361,126.473,110.277,101.151,96.6354,0.00643585,0.98677,19.7379,132.076,0.415593,0.0,0.0
960,239.75,122.243,128.756,96.8092,101.2,95.8068,0.0071916,1.01998,19.687,130.655,0.498337,0.0,0.0
992,247.75,124.296,131.287,110.753,101.189,96.8277,0.00699349,1.02888,19.6771,129.274,0.400952,0.0,0.0
1024,255.75,126.779,133.94,98.5678,101.107,96.0648,0.00683896,1.04705,19.6557,127.913,0.465528,0.0,0.0
1056,263.75,128.263,135.874,101.242,100.93,97.4572,0.0068195,1.04493,19.6576,126.521,0.318645,0.0,0.0
1088,271.75,129.882,138.148,98.4441,100.676,96.1945,0.00717999,1.06382,19.6333,125.1,0.414394,0.0,0.0
1120,279.75,131.844,140.104,98.9662,100.435,94.3424,0.00751459,1.09917,19.5897,123.679,0.569493,0.0,0.0
1152,287.75,133.485,141.925,101.266,100.674,96.8884,0.00703203,1.09892,19.5873,122.248,0.348767,0.0,0.0
1184,295.75,134.845,143.933,100.109,100.898,94.2767,0.00767095,1.10884,19.5677,120.766,0.617704,0.0,0.0
1216,303.75,137.039,145.762,98.264,100.951,95.017,0.00811367,1.16574,19.4959,119.235,0.551313,0.0,0.0
1248,311.75,138.366,147.546,92.8455,100.606,94.6104,0.00846221,1.1391,19.5277,117.784,0.559156,0.0,0.0
1280,319.75,140.19,149.664,97.6412,100.895,95.2228,0.0081213,1.19407,19.461,116.222,0.526584,0.0,0.0
1312,327.75,142.048,151.241,105.247,101.26,95.5245,0.00799817,1.19507,19.4555,114.691,0.530651,0.0,0.0
1344,335.75,143.556,153.297,103.304,101.503,95.7208,0.00927409,1.21917,19.4255,113.1,0.533791,0.0,0.0
1376,343.75,145.129,154.86,102.42,101.501,96.2634,0.00880118,1.23661,19.3984,111.538,0.482136,0.0,0.0
1408,351.75,146.669,156.653,95.6368,101.242,94.1628,0.00882613,1.25368,19.379,109.947,0.659696,0.0,0.0
1440,359.75,148.998,158.618,96.2016,100.842,95.6569,0.00905792,1.28951,19.3323,108.285,0.480366,0.0,0.0
1472,367.75,150.919,160.637,96.9008,100.427,93.6386,0.00926361,1.29974,19.3207,106.674,0.636951,0.0,0.0
1504,375.75,152.576,162.856,91.6472,100.129,94.4564,0.00970591,1.3226,19.29,105.043,0.530721,0.0,0.0
1536,383.75,153.942,164.618,94.5865,100.023,93.4508,0.00942201,1.33669,19.2662,103.351,0.618496,0.0,0.0
1568,391.75,155.879,166.658,91.996,100.152,93.4279,0.0095616,1.35313,19.2509,101.66,0.632495,0.0,0.0
1600,399.75,157.39,168.492,93.2417,100.435,93.4977,0.0092613,1.35744,19.2436,100.018,0.651311,0.0,0.0
1632,407.75,158.591,169.743,86.7553,100.83,94.0083,0.00980494,1.39629,19.1898,98.2365,0.637487,0.0,0.0
1664,415.75,160.517,171.303,90.9763,101.124,94.9715,0.0099052,1.41737,19.1675,96.485,0.57124,0.0,0.0
1696,423.75,162.731,173.758,90.0901,101.237,94.3343,0.0102291,1.44356,19.135,94.7835,0.642627,0.0,0.0
1728,431.75,163.4,174.835,93.4554,101.146,92.4917,0.0101129,1.42839,19.1504,93.0319,0.813993,0.0,0.0
1760,439.75,164.943,176.655,97.3542,100.881,92.0018,0.011361,1.47565,19.089,91.2404,0.838405,0.0,0.0
1792,447.75,167.313,179.068,90.274,100.579,92.611,0.0115905,1.50608,19.0523,89.4187,0.751071,0.0,0.0
1824,455.75,168.759,180.703,97.9511,100.543,90.074,0.011323,1.51632,19.0372,87.6572,1.00059,0.0,0.0
1856,463.75,170.594,182.963,88.9185,100.801,92.299,0.0114607,1.54126,19.0105,85.7555,0.80185,0.0,0.0
1888,471.75,172.104,184.482,88.4933,100.94,92.7682,0.0114429,1.54479,18.9964,83.9439,0.768239,0.0,0.0
1920,479.75,174.171,186.374,86.5126,100.785,92.9812,0.0118106,1.58198,18.957,82.0923,0.733392,0.0,0.0
1952,487.75,175.152,188.308,91.9296,100.714,90.486,0.0125507,1.59457,18.9262,80.2206,0.97455,0.0,0.0
1984,495.75,177.688,189.948,88.0399,101.067,91.198,0.0131006,1.67661,18.8239,78.2589,0.93503,0.0,0.0
2016,503.75,179.941,193.031,91.5327,101.375,92.3386,0.0135261,1.68423,18.8121,76.2972,0.849628,0.0,0.0
2048,511.75,181.648,194.849,86.0402,101.514,93.2595,0.0125574,1.69332,18.807,74.3555,0.771787,0.0,0.0
2080,519.75,182.983,196.662,93.1859,101.381,92.6858,0.0124837,1.68487,18.8143,72.4038,0.816014,0.0,0.0
2112,527.75,184.379,198.13,82.1932,101.004,93.5643,0.0122962,1.7051,18.79,70.4821,0.696231,0.0,0.0
2144,535.75,186.043,200.251,87.0874,100.459,93.1856,0.0129159,1.72387,18.7705,68.5203,0.683941,0.0,0.0
2176,543.75,187.534,201.837,89.8497,100.078,90.8751,0.0124313,1.73389,18.7561,66.5486,0.877855,0.0,0.0
2208,551.75,189.637,203.281,89.0406,100.069,91.3713,0.0127052,1.77714,18.7096,64.5669,0.827499,0.0,0.0
2240,559.75,190.607,205.207,89.4215,100.395,91.9846,0.0127885,1.744,18.7439,62.5951,0.796197,0.0,0.0
2272,567.75,190.645,205.593,89.7901,100.862,92.8209,0.0123548,1.70057,18.7983,60.7335,0.75605,0.0,0.0
2304,575.75,190.592,206.487,89.8581,101.193,92.6997,0.0123497,1.66708,18.8334,58.7818,0.797749,0.0,0.0
2336,583.75,190.093,206.261,87.2835,101.205,92.9123,0.011901,1.64374,18.8662,56.9401,0.77802,0.0,0.0
2368,591.75,188.596,205.814,88.836,100.877,92.5268,0.0119838,1.59012,18.9408,55.0685,0.786294,0.0,0.0
2400,599.75,184.897,202.993,94.4362,100.462,93.78,0.0103809,1.39526,19.186,53.4571,0.626331,0.0,0.0
2432,607.75,178.55,197.863,92.8623,100.744,93.2023,0.00960889,1.19624,19.4661,51.9758,0.708065,0.0,0.0
2464,615.75,168.737,189.728,103.275,100.893,91.3749,0.00916437,0.924346,19.8202,50.8348,0.901772,0.0,0.0
2496,623.75,154.354,177.506,116.444,100.541,97.1429,0.00528088,0.549112,20.3259,50.1542,0.312876,0.0,0.0
2528,631.75,137.982,162.774,129.093,100.934,106.049,0.00211001,0.242984,20.7657,49.914,-0.449858,0.0,0.0
2560,639.75,122.68,148.28,125.627,101.361,107.699,0.000538112,0.0997492,20.9399,49.8939,-0.551915,0.0,0.0
2592,647.75,109.298,133.859,130.589,101.477,108.268,0.000164056,0.058057,20.9867,49.8939,-0.589421,0.0,0.0
2624,655.75,100.463,123.131,127.059,101.182,108.017,4.03954e-06,0.0508157,20.9969,49.8839,-0.59485,0.0,0.0
2656,663.75,94.0597,113.711,128.103,100.64,107.066,6.88637e-06,0.0481738,21,49.8639,-0.563227,0.0,0.0
2688,671.75,88.611,106.085,128.389,100.153,106.871,-0.000188413,0.0465558,21.0008,49.8739,-0.590829,0.0,0.0
2720,679.75,84.0184,98.9534,131.167,100.036,106.683,-0.00023922,0.0459736,21.0034,49.8839,-0.585385,0.0,0.0
2752,687.75,80.1967,93.5328,130.933,100.334,107.128,-0.000186663,0.0469586,20.9991,49.8839,-0.596278,0.0,0.0
2784,695.75,78.0885,88.9012,133.144,100.745,107.785,-0.000231137,0.0463226,21.0015,49.8539,-0.614696,0.0,0.0
2816,703.75,75.7634,84.2505,133.243,101.102,108.323,-0.000138351,0.0466594,21.0021,49.8739,-0.627831,0.0,0.0
2848,711.75,73.2242,80.699,129.323,101.239,108.361,-0.000259513,0.04573,21.001,49.8739,-0.618726,0.0,0.0
2880,719.75,71.7031,77.8518,132.55,101.151,108.392,-0.000216826,0.0446597,21.0015,49.8839,-0.629234,0.0,0.0
2912,727.75,70.1006,74.989,128.275,100.893,108.274,-0.00032962,0.0443399,21.0019,49.8839,-0.642555,0.0,0.0
2944,735.75,69.3586,72.505,133.051,100.581,107.92,-0.000275904,0.0441229,21.0018,49.8339,-0.640927,0.0,0.0
2976,743.75,68.1638,70.3904,130.012,100.517,107.563,-0.000300755,0.0439169,21.0037,49.8639,-0.616585,0.0,0.0
3008,751.75,66.7943,68.5672,130.92,100.753,107.99,,0.0438535,,49.8739,-0.631255,0.0,0.0
3040,759.75,65.985,66.5084,136.58,100.806,108.18,,,,49.8639,-0.642498,0.0,0.0
3045,761,65.8815,66.5621,135.198,100.819,108.16,,,,49.8839,-0.639677,0.0,0.0

File: Black_PMMA_Cone_HF50Scalar_220315_R1.csv
LABORATORY,FSRI
TEST IDENT,BlackPMMA_HF50_1
OPERATOR,Dow
MATERIAL,Black PMMA
ORIENTATION,Horizontal
HEAT FLUX,50
SURF AREA,0.01
C FACTOR,0.0394682
SPEC HOLDER DIFF,-566
SPECIMEN MASS,105.1
SCAN TIME,0.25
O2 DELAY TIME,11
CO DELAY TIME,11
CO2 DELAY TIME,8
FLOW FACTOR,1
SCAN COUNT,2033
TIME TO IGN,26.25
END OF TEST SCAN,1553
END OF TEST TIME,388.25
TEST STATUS,1
PRE TEST CMT,Dimensions: 100.97 x 100.99 x 8.60 mm

File: Black_PMMA_Cone_HF50Scalar_220315_R2.csv
LABORATORY,FSRI
TEST IDENT,BlackPMMA_HF50_2
OPERATOR,Dow
MATERIAL,Black PMMA
ORIENTATION,Horizontal
HEAT FLUX,50
SURF AREA,0.01
C FACTOR,0.0394682
SPEC HOLDER DIFF,-566
SPECIMEN MASS,102.5
SCAN TIME,0.25
O2 DELAY TIME,11
CO DELAY TIME,11
CO2 DELAY TIME,8
FLOW FACTOR,1
SCAN COUNT,1979
TIME TO IGN,27.5
END OF TEST SCAN,1499
END OF TEST TIME,374.75
TEST STATUS,1
PRE TEST CMT,Dimensions: 101.01 x 100.90 x 8.36 mm

File: Black_PMMA_Cone_HF50Scalar_220315_R3.csv
LABORATORY,FSRI
TEST IDENT,BlackPMMA_HF50_3
OPERATOR,Dow
MATERIAL,Black PMMA
ORIENTATION,Horizontal
HEAT FLUX,50
SURF AREA,0.01
C FACTOR,0.0390023
SPEC HOLDER DIFF,-566
SPECIMEN MASS,100.7
SCAN TIME,0.25
O2 DELAY TIME,11
CO DELAY TIME,11
CO2 DELAY TIME,8
FLOW FACTOR,1
SCAN COUNT,2011
TIME TO IGN,27.25
END OF TEST SCAN,1531
END OF TEST TIME,382.75
TEST STATUS,1
PRE TEST CMT,Dimensions: 100.97 x 101.01 x 8.20 mm