Folder: fsri_materials_database/01_Data/Black_PMMA/Cone (part 4)

File: Black_PMMA_Cone_HF50Scan_220315_R3.csv
Names,Time,Stack TC,Smoke TC,Exh Press,Smoke Comp,Smoke Meas,CO Meter,CO2 Meter,O2 Meter,Sample Mass,Ext Coeff,Start Test,Flame Verif
Chan Gain,,500,500,1,1,1,1,1,1,1,1,1.0,1.0
Offset,,0,0,0.132973,0,0,0,0,0,0,0,0.0,0.0
Gain,,1,1,25.011,13.0548,13.4146,1,1,1,1.00087,1.01298,1.0,1.0
Units,sec,C,C,Pa,%,%,%,%,%,g,/m,,
Baseline,,28.8407,29.8984,153.588,99.2414,95.4706,0.000917305,0.0536925,21.0136,-832.772,0.344269,,
21,5,27.7269,28.3878,152.67,99.0897,95.3568,0.000467446,0.0566757,21.0124,-240.289,0.341216,0.0,0.0
42,10.25,27.7428,28.6098,155.104,99.2407,95.9041,0.000555934,0.0549843,21.0148,-240.279,0.303888,0.0,0.0
63,15.5,27.8579,28.4028,156.891,99.2941,96.8633,0.000650773,0.0540704,21.0166,-240.299,0.220238,0.0,0.0
84,20.75,28.1148,28.8446,154.631,99.2104,95.7833,0.00067737,0.0537272,21.0166,-240.299,0.312373,0.0,0.0
105,26,27.9411,28.9764,153.106,98.9961,95.1558,0.000986396,0.0612614,20.9939,-240.359,0.351566,0.0,0.0
126,31.25,30.0198,30.6432,120.374,98.6853,93.5882,0.00319408,0.336164,20.5595,-240.939,0.471225,0.0,1.0
147,36.5,38.6132,38.7637,107.703,98.3451,90.2428,0.00598788,0.780684,19.9647,-241.86,0.763989,0.0,0.0
168,41.75,49.5274,51.1669,112.744,98.0957,89.1293,0.00802545,1.07945,19.5782,-242.881,0.851751,0.0,0.0
189,47,60.1726,63.1344,104.2,97.9989,88.8722,0.00914812,1.25121,19.3543,-244.052,0.868645,0.0,0.0
210,52.25,70.6486,74.6181,107.099,98.112,89.1534,0.00988253,1.36173,19.2109,-245.213,0.850823,0.0,0.0
231,57.5,79.6033,84.9231,100.896,98.4347,88.6384,0.0105097,1.41574,19.1518,-246.434,0.93148,0.0,0.0
252,62.75,88.882,95.3902,110.12,98.904,88.9373,0.0112313,1.47851,19.071,-247.665,0.943836,0.0,0.0
273,68,96.3114,103.962,107.657,99.3554,89.6111,0.0112931,1.52461,19.0118,-248.926,0.917229,0.0,0.0
294,73.25,104.297,112.782,103.757,99.7196,89.6926,0.0113816,1.56764,18.9581,-250.177,0.94166,0.0,0.0
315,78.5,110.512,120.42,101.72,99.916,89.0064,0.0118257,1.60829,18.905,-251.498,1.02738,0.0,0.0
336,83.75,116.04,127.433,102.505,99.9506,88.7162,0.0121727,1.62459,18.8857,-252.819,1.05949,0.0,0.0
357,89,121.489,133.608,103.051,99.8674,89.5006,0.0122706,1.66272,18.8337,-254.141,0.973862,0.0,0.0
378,94.25,126.071,139.006,103.854,99.661,89.2488,0.0126446,1.69454,18.7942,-255.432,0.980513,0.0,0.0
399,99.5,130.669,145.309,94.1628,99.4148,88.0207,0.0128751,1.7173,18.7666,-256.803,1.08166,0.0,0.0
420,104.75,133.775,149.131,98.8958,99.22,88.1038,0.0128851,1.73063,18.7415,-258.174,1.05584,0.0,0.0
441,110,138.452,154.664,100.761,99.3236,87.2215,0.0135875,1.77051,18.6969,-259.535,1.15454,0.0,0.0
462,115.25,141.896,159.272,101.209,99.6148,87.94,0.0134338,1.80271,18.6544,-260.927,1.10766,0.0,0.0
483,120.5,145.657,163.575,94.4895,99.6742,88.2655,0.0140141,1.85361,18.5863,-262.308,1.08013,0.0,0.0
504,125.75,148.854,167.535,96.4694,99.5503,88.7678,0.0138473,1.88836,18.5368,-263.739,1.01865,0.0,0.0
525,131,152.761,172.119,96.6259,99.2224,88.3391,0.0144788,1.92681,18.4965,-265.2,1.03235,0.0,0.0
546,136.25,155.22,175.529,97.5372,98.8172,86.4437,0.0149057,1.92692,18.4866,-266.661,1.18872,0.0,0.0
567,141.5,157.364,179.308,98.4883,98.8897,88.1893,0.0154231,1.94708,18.4578,-268.073,1.01759,0.0,0.0
588,146.75,161.155,182.385,93.6354,99.0092,88.0108,0.0158725,1.95393,18.4527,-269.504,1.04633,0.0,0.0
609,152,163.492,185.556,92.1424,99.1232,87.3832,0.0159982,1.97986,18.4229,-271.075,1.12014,0.0,0.0
630,157.25,166.265,188.313,87.7787,99.2232,88.0686,0.0162408,2.01447,18.3771,-272.527,1.05968,0.0,0.0
651,162.5,167.626,190.994,89.1648,99.2841,88.1443,0.0162023,2.04479,18.3376,-273.978,1.0575,0.0,0.0
672,167.75,171.183,194.684,93.9949,99.2654,87.9068,0.0159368,2.08998,18.2739,-275.509,1.07979,0.0,0.0
693,173,173.506,197.916,91.3005,99.2566,88.857,0.016035,2.12208,18.236,-277.021,0.983477,0.0,0.0
714,178.25,175.509,200.545,88.4466,99.2084,88.4677,0.0160187,2.15044,18.204,-278.542,1.01818,0.0,0.0
735,183.5,178.201,203.731,89.8701,99.1706,88.5508,0.0168729,2.17895,18.169,-280.093,1.00645,0.0,0.0
756,188.75,180.419,206.393,88.842,99.1829,87.0701,0.0173051,2.20755,18.1285,-281.645,1.15739,0.0,0.0
777,194,182.157,208.324,88.4306,99.2029,86.7037,0.0170559,2.21928,18.1095,-283.266,1.19665,0.0,0.0
798,199.25,184.914,211.501,86.0186,99.2136,88.0383,0.0178218,2.27662,18.0364,-284.807,1.06188,0.0,0.0
819,204.5,187.431,214.267,83.2945,99.2558,87.4021,0.0176792,2.28322,18.0261,-286.499,1.13011,0.0,0.0
840,209.75,188.658,216.306,86.3308,99.2917,86.5649,0.0176798,2.2967,18.0019,-288,1.21884,0.0,0.0
861,215,190.68,218.435,92.9461,99.2953,86.1138,0.0180144,2.3424,17.9375,-289.681,1.26559,0.0,0.0
882,220.25,192.811,221.083,84.0143,99.2973,87.8057,0.01925,2.40921,17.8639,-291.333,1.09287,0.0,0.0
903,225.5,195.244,223.977,95.6809,99.2264,87.1229,0.0200961,2.42572,17.8433,-292.994,1.1559,0.0,0.0
924,230.75,197.57,225.536,81.4084,99.1331,86.9108,0.0204583,2.47518,17.7701,-294.666,1.1692,0.0,0.0
945,236,200.184,229.034,88.7824,99.0299,84.2617,0.0208255,2.49838,17.7488,-296.417,1.435,0.0,0.0
966,241.25,201.641,231.104,87.133,98.906,87.642,0.0210845,2.53587,17.6954,-298.059,1.07438,0.0,0.0
987,246.5,204.43,235.083,85.1584,98.8479,86.5158,0.0216523,2.59966,17.631,-299.84,1.18407,0.0,0.0
1008,251.75,207.133,237.311,82.6724,99.3746,85.8698,0.0208898,2.5875,17.6343,-301.542,1.29789,0.0,0.0
1029,257,209.56,239.497,84.5676,99.6634,86.7188,0.0211576,2.62926,17.5766,-303.403,1.23625,0.0,0.0
1050,262.25,211.472,242.373,86.282,99.6566,87.6047,0.0218464,2.66179,17.5319,-305.035,1.14533,0.0,0.0
1071,267.5,213.341,244.648,85.8141,99.3112,86.5256,0.0217975,2.70258,17.4909,-306.896,1.22462,0.0,0.0
1092,272.75,215.199,246.776,85.8973,99.3224,86.2104,0.0224313,2.74135,17.443,-308.668,1.25805,0.0,0.0
1113,278,217.344,249.117,83.3189,99.6554,84.3493,0.0227934,2.78952,17.374,-310.54,1.48172,0.0,0.0
1134,283.25,219.927,251.768,81.5741,99.9287,86.0867,0.0226998,2.85589,17.2875,-312.271,1.32488,0.0,0.0
1155,288.5,222.057,254.436,76.8761,99.9291,86.1514,0.0227774,2.87883,17.2627,-314.233,1.31825,0.0,0.0
1176,293.75,223.519,257.221,89.229,99.5355,84.7804,0.0241085,2.94425,17.1751,-316.114,1.42572,0.0,0.0
1197,299,226.175,259.506,76.9959,98.8467,85.1623,0.0245597,2.97879,17.1295,-317.976,1.32407,0.0,0.0
1218,304.25,229.181,262.819,77.6386,98.218,84.71,0.025288,3.02693,17.0825,-319.848,1.3147,0.0,0.0
1239,309.5,231.165,265.699,84.3654,98.0519,82.0465,0.0254074,3.02849,17.0688,-321.799,1.58353,0.0,0.0
1260,314.75,233.763,268.478,74.3123,98.4387,85.0436,0.0253869,3.11577,16.9645,-323.751,1.29972,0.0,0.0
1281,320,236.627,271.505,80.5467,99.0228,84.7743,0.0262274,3.18498,16.8768,-325.653,1.38047,0.0,0.0
1302,325.25,238.761,274.196,72.2591,99.3307,84.3841,0.0273301,3.19609,16.8557,-327.715,1.44905,0.0,0.0
1323,330.5,240.865,276.745,70.2242,99.1188,85.5128,0.0278977,3.24582,16.7929,-329.726,1.31201,0.0,0.0
1344,335.75,241.671,279.298,78.9637,98.8284,82.5751,0.0269607,3.32171,16.7038,-331.678,1.59657,0.0,0.0
1365,341,245.029,282.664,69.6403,99.5264,84.983,0.0284887,3.44606,16.544,-333.77,1.40369,0.0,0.0
1386,346.25,247.755,285.612,75.6472,99.5359,85.3404,0.0287744,3.4668,16.5211,-335.741,1.36725,0.0,0.0
1407,351.5,249.393,288.525,77.9546,99.3546,85.5959,0.0261003,3.29316,16.7433,-337.693,1.3245,0.0,0.0
1428,356.75,248.715,286.84,84.7775,99.863,85.7404,0.0224345,2.90496,17.2381,-339.275,1.35486,0.0,0.0
1449,362,242.599,280.297,96.3747,99.8893,84.3788,0.0176507,2.21702,18.0766,-340.476,1.49944,0.0,0.0
1470,367.25,230.084,265.842,117.968,99.1809,89.668,0.0119022,1.29932,19.4362,-341.056,0.895967,0.0,0.0
1491,372.5,212.119,245.607,127.626,98.2459,94.4246,0.00657224,0.629077,20.3054,-341.236,0.352513,0.0,0.0
1512,377.75,194.314,225.787,134.101,98.1132,96.9583,0.00365709,0.285623,20.7549,-341.306,0.105222,0.0,0.0
1533,383,179.035,207.033,136.129,98.7558,97.3345,0.00223039,0.141384,20.9234,-341.336,0.128819,0.0,0.0
1554,388.25,164.214,190.016,136.125,99.3144,98.1217,0.00136296,0.0865423,20.9882,-341.306,0.107356,0.0,0.0
1575,393.5,152.776,175.98,138.777,99.0754,96.9656,0.000906334,0.0683874,21.0083,-341.316,0.191258,0.0,0.0
1596,398.75,142.417,163.107,138.895,98.8431,96.7315,0.000662212,0.061135,21.0154,-341.316,0.191888,0.0,0.0
1617,404,133.711,152.414,137.353,99.6431,97.6681,0.000611748,0.0574484,21.0175,-341.326,0.177887,0.0,0.0
1638,409.25,126.058,142.566,136.613,99.2415,96.6565,0.000774778,0.0554744,21.0149,-341.336,0.234515,0.0,0.0
1659,414.5,119.026,134.344,137.75,99.8395,97.2432,0.000452462,0.0543417,21.0165,-341.346,0.23413,0.0,0.0
1680,419.75,112.899,126.32,139.502,99.8072,97.4409,0.000869196,0.0536177,21.0169,-341.336,0.213207,0.0,0.0
1701,425,107.475,119.77,139.24,98.8403,96.5595,0.000860447,0.053523,21.0169,-341.346,0.207444,0.0,0.0
1722,430.25,102.794,113.338,139.52,98.0626,95.7784,0.000888548,0.0533985,21.0164,-341.346,0.209427,0.0,0.0
1743,435.5,98.6797,107.583,139.988,98.4594,95.7899,0.000695444,0.0533254,21.0161,-341.296,0.244247,0.0,0.0
1764,440.75,93.8816,102.528,140.686,99.1977,96.5878,0.000627797,0.0531337,21.0155,-341.316,0.236916,0.0,0.0
1785,446,91.0018,98.2296,139.489,99.1977,96.2644,0.000668178,0.0530197,21.0154,-341.296,0.266718,0.0,0.0
1806,451.25,88.4311,94.2819,144.704,98.7694,95.4673,0.000555017,0.0528238,21.0147,-341.326,0.302151,0.0,0.0
1827,456.5,86.0065,90.2067,139.548,99.3865,95.8816,0.000687814,0.0524179,21.0163,-341.346,0.319021,0.0,0.0
1848,461.75,83.3246,86.6734,141.777,99.5638,96.2001,0.000714465,0.0524604,21.0166,-341.336,0.305389,0.0,0.0
1869,467,80.9947,83.7235,140.374,99.1857,95.2331,0.000856349,0.052378,21.0166,-341.346,0.361349,0.0,0.0
1890,472.25,78.5543,80.4295,142.432,99.6224,95.706,0.000501906,0.0518452,21.0178,-341.376,0.356373,0.0,0.0
1911,477.5,76.842,78.7459,143.008,99.9395,95.8918,0.000396173,0.0514097,21.016,-341.336,0.367375,0.0,0.0
1932,482.75,75.5484,76.2553,141.845,99.8973,96.4146,0.000250948,0.0514061,21.0192,-341.336,0.315308,0.0,0.0
1953,488,73.5571,73.7111,145.176,99.5515,95.4481,0.000295217,0.0510908,21.0194,-341.376,0.374023,0.0,0.0
1974,493.25,72.5499,72.3109,142.357,99.0116,94.5576,,0.0512643,,-341.346,0.408989,0.0,0.0
1995,498.5,71.2728,69.9779,143.533,98.5371,93.7319,,,,-341.366,0.444238,0.0,0.0
2011,502.5,70.1996,69.39,142.269,98.2698,93.6554,,,,-341.356,0.427359,0.0,0.0

File: Black_PMMA_Cone_HF75Scalar_220315_R1.csv
LABORATORY,FSRI
TEST IDENT,BlackPMMA_HF75_1
OPERATOR,Dow
MATERIAL,Black PMMA
ORIENTATION,Horizontal
HEAT FLUX,75
SURF AREA,0.01
C FACTOR,0.0390023
SPEC HOLDER DIFF,-566
SPECIMEN MASS,105.8
SCAN TIME,0.25
O2 DELAY TIME,11
CO DELAY TIME,11
CO2 DELAY TIME,8
FLOW FACTOR,1
SCAN COUNT,1605
TIME TO IGN,11.75
END OF TEST SCAN,1125
END OF TEST TIME,281.25
TEST STATUS,1
PRE TEST CMT,Dimensions: 100.90 x 100.06 x 8.72 mm

File: Black_PMMA_Cone_HF75Scalar_220315_R3.csv
LABORATORY,FSRI
TEST IDENT,BlackPMMA_HF75_3
OPERATOR,Dow
MATERIAL,Black PMMA
ORIENTATION,Horizontal
HEAT FLUX,75
SURF AREA,0.01
C FACTOR,0.0390023
SPEC HOLDER DIFF,-566
SPECIMEN MASS,100.6
SCAN TIME,0.25
O2 DELAY TIME,11
CO DELAY TIME,11
CO2 DELAY TIME,8
FLOW FACTOR,1
SCAN COUNT,1562
TIME TO IGN,12.5
END OF TEST SCAN,1082
END OF TEST TIME,270.5
TEST STATUS,1
PRE TEST CMT,Dimensions: 100.81 x 100.90 x 8.24 mm

File: Black_PMMA_Cone_HF75Scan_220315_R1.csv
Names,Time,Stack TC,Smoke TC,Exh Press,Smoke Comp,Smoke Meas,CO Meter,CO2 Meter,O2 Meter,Sample Mass,Ext Coeff,Start Test,Flame Verif
Chan Gain,,500,500,1,1,1,1,1,1,1,1,1.0,1.0
Offset,,0,0,0.132973,0,0,0,0,0,0,0,0.0,0.0
Gain,,1,1,25.011,13.0548,13.4146,1,1,1,1.00087,1.01298,1.0,1.0
Units,sec,C,C,Pa,%,%,%,%,%,g,/m,,
Baseline,,41.1469,42.3511,146.688,99.3361,94.3244,0.000593551,0.0519158,21.0197,-833.136,0.460067,,
17,4,39.7464,41.1739,144.827,99.4566,93.7925,0.000228822,0.0589086,21.0145,-238.307,0.52103,0.0,0.0
34,8.25,40.1208,41.3575,146.207,99.467,93.8822,0.000542085,0.0585505,21.0111,-238.317,0.513466,0.0,0.0
51,12.5,40.1012,41.2101,124.34,99.4841,92.0457,0.00277536,0.157949,20.8074,-238.747,0.690539,0.0,1.0
68,16.75,47.27,48.1608,93.9139,99.508,88.1365,0.00797342,0.881452,19.7786,-239.688,1.0783,0.0,1.0
85,21,60.1992,62.5472,107.281,99.4997,86.0094,0.0132519,1.4985,18.9579,-240.849,1.29464,0.0,0.0
102,25.25,74.6297,79.0191,97.6326,99.4993,83.7795,0.0168717,1.90381,18.4758,-242.21,1.52802,0.0,0.0
119,29.5,88.6429,94.3354,84.6333,99.4997,83.086,0.0195606,2.18412,18.1265,-243.541,1.60191,0.0,0.0
136,33.75,102.043,110.11,88.7725,99.4929,86.1277,0.0212638,2.39445,17.8829,-245.023,1.28182,0.0,0.0
153,38,114.176,124.421,78.7629,99.4909,84.3035,0.0224389,2.5194,17.7045,-246.424,1.47186,0.0,0.0
170,42.25,125.778,138.289,84.5852,99.4917,84.0971,0.0238227,2.65571,17.5222,-247.915,1.49371,0.0,0.0
187,46.5,136.549,151.642,80.7146,99.5009,83.5695,0.024403,2.72873,17.452,-249.497,1.55046,0.0,0.0
204,50.75,146.094,162.986,85.4469,99.4758,82.9984,0.0241582,2.8008,17.3698,-250.908,1.60915,0.0,0.0
221,55,154.869,174.277,81.2505,99.4913,82.3937,0.0245019,2.88624,17.2647,-252.519,1.67551,0.0,0.0
238,59.25,163.36,183.956,75.6343,99.4638,82.6504,0.0248817,2.95221,17.1782,-254.051,1.64541,0.0,0.0
255,63.5,170.712,193.4,88.4733,99.461,83.6161,0.0255629,3.0011,17.1189,-255.682,1.54194,0.0,0.0
272,67.75,177.133,202.684,80.7757,99.4714,82.9279,0.0257685,3.0486,17.0572,-257.213,1.6163,0.0,0.0
289,72,183.7,210.824,78.8507,99.4542,82.4387,0.0256921,3.10218,16.9979,-258.875,1.66734,0.0,0.0
306,76.25,189.245,218.565,86.7521,99.4331,82.5972,0.0259316,3.09894,16.9925,-260.436,1.64839,0.0,0.0
323,80.5,193.469,224.158,75.1336,99.4339,82.3257,0.0263269,3.11786,16.9776,-262.088,1.67771,0.0,0.0
340,84.75,198.639,230.372,83.7219,99.4351,82.4117,0.0262781,3.1794,16.8937,-263.749,1.66855,0.0,0.0
357,89,202.792,236.487,83.7738,99.4256,83.0127,0.0263828,3.24813,16.8194,-265.33,1.60313,0.0,0.0
374,93.25,207.873,242.554,74.5649,99.4204,82.8145,0.0264067,3.27018,16.7769,-267.032,1.6239,0.0,0.0
391,97.5,212.441,247.969,87.2116,99.4204,83.5277,0.0273719,3.31497,16.7303,-268.633,1.54771,0.0,0.0
408,101.75,216.031,252.952,80.6444,99.4156,83.54,0.0276692,3.33575,16.712,-270.325,1.54598,0.0,0.0
425,106,219.662,257.785,79.2392,99.4032,82.9337,0.028646,3.33787,16.7016,-271.946,1.6096,0.0,0.0
442,110.25,222.404,262.194,72.2278,99.4092,82.6897,0.029091,3.39063,16.6366,-273.648,1.63631,0.0,0.0
459,114.5,226.354,266.28,74.1528,99.4076,83.0307,0.02857,3.41566,16.6053,-275.369,1.5996,0.0,0.0
476,118.75,229.075,269.953,86.4743,99.4064,82.5734,0.0288248,3.43388,16.5774,-277.021,1.64856,0.0,0.0
493,123,230.787,272.81,71.0554,99.416,82.9689,0.0291431,3.48362,16.5217,-278.742,1.60696,0.0,0.0
510,127.25,234.031,276.74,80.4337,99.4176,82.4093,0.0295249,3.56815,16.4271,-280.493,1.66724,0.0,0.0
527,131.5,237.915,280.464,84.8813,99.4287,83.1007,0.0289515,3.56747,16.4121,-282.215,1.594,0.0,0.0
544,135.75,239.905,284.122,72.5346,99.4287,84.493,0.0287789,3.59218,16.3803,-283.987,1.44636,0.0,0.0
561,140,242.949,287.248,71.8286,99.4335,83.8343,0.0297168,3.65237,16.3075,-285.698,1.51633,0.0,0.0
578,144.25,244.826,290.745,78.2073,99.4367,82.1649,0.0306903,3.69215,16.2612,-287.47,1.69534,0.0,0.0
595,148.5,247.397,293.978,89.3793,99.4355,82.7826,0.0301095,3.76701,16.1611,-289.211,1.62868,0.0,0.0
612,152.75,249.943,296.658,84.5783,99.4534,82.7712,0.0298567,3.79009,16.1345,-291.033,1.63151,0.0,0.0
629,157,252.959,299.67,70.9241,99.4526,83.35,0.0302858,3.82128,16.101,-292.794,1.56952,0.0,0.0
646,161.25,255.557,303.547,68.2893,99.4574,84.5913,0.0306349,3.90655,16.0101,-294.646,1.43859,0.0,0.0
663,165.5,257.779,306.073,69.5357,99.4765,82.3626,0.0308224,3.90407,15.9986,-296.497,1.67755,0.0,0.0
680,169.75,260.648,309.318,69.151,99.4762,84.0709,0.0316678,4.04695,15.8247,-298.199,1.49509,0.0,0.0
697,174,263.399,313.441,75.2618,99.4654,81.769,0.0324856,4.0697,15.773,-300.131,1.74082,0.0,0.0
714,178.25,265.977,316.004,72.4522,99.4837,82.4134,0.0341845,4.13686,15.7123,-301.972,1.67271,0.0,0.0
731,182.5,268.296,319.506,69.4876,99.4937,83.0876,0.033781,4.1488,15.6821,-303.914,1.6012,0.0,0.0
748,186.75,270.64,322.33,71.002,99.475,81.8312,0.0336272,4.20712,15.6016,-305.826,1.73492,0.0,0.0
765,191,272.627,324.641,63.4463,99.4941,84.4836,0.0338547,4.28962,15.5287,-307.727,1.45318,0.0,0.0
782,195.25,275.551,328.614,73.0574,99.4925,81.4525,0.0339733,4.27216,15.522,-309.559,1.7777,0.0,0.0
799,199.5,277.666,330.938,64.4248,99.4989,81.4173,0.0347345,4.3142,15.4764,-311.43,1.78211,0.0,0.0
816,203.75,279.614,333.269,72.3781,99.4889,79.6463,0.0341451,4.31852,15.4667,-313.472,1.97664,0.0,0.0
833,208,281.52,335.553,73.5948,99.5016,81.0886,0.0349136,4.42593,15.3326,-315.314,1.81831,0.0,0.0
850,212.25,283.793,338.922,74.6962,99.4965,81.6933,0.035698,4.47158,15.2842,-317.235,1.75183,0.0,0.0
867,216.5,286.234,340.777,62.3693,99.4821,82.6901,0.03522,4.44668,15.2991,-319.217,1.64278,0.0,0.0
884,220.75,288.126,342.657,77.3524,99.4921,82.3556,0.0347787,4.49592,15.2497,-321.159,1.67969,0.0,0.0
901,225,289.377,346.005,70.6753,99.4985,82.4592,0.0355116,4.55379,15.1801,-323.151,1.66909,0.0,0.0
918,229.25,291.488,348.446,75.2343,99.4865,82.0396,0.0366681,4.61802,15.0942,-325.152,1.71335,0.0,0.0
935,233.5,294.31,351.819,75.2946,99.5056,82.9189,0.0379659,4.69576,14.999,-327.144,1.62032,0.0,0.0
952,237.75,296.7,355.051,72.6598,99.4977,82.7151,0.039786,4.81331,14.8623,-329.246,1.64149,0.0,0.0
969,242,299.787,358.646,67.1207,99.4913,81.1647,0.0415174,4.99542,14.6153,-331.318,1.80904,0.0,0.0
986,246.25,302.892,362.979,71.089,99.4973,82.3163,0.0438039,5.25803,14.2877,-333.51,1.68439,0.0,0.0
1003,250.5,306.935,369.294,69.3495,99.5112,81.5332,0.0458482,5.44287,14.0685,-335.731,1.77058,0.0,0.0
1020,254.75,309.278,372.838,62.1991,99.4925,82.7662,0.0469561,5.47664,14.0231,-338.043,1.63553,0.0,0.0
1037,259,311.038,375.666,60.9168,99.4965,77.8565,0.0455524,5.37081,14.1405,-340.085,2.17927,0.0,0.0
1054,263.25,311.061,375.687,71.347,99.4949,80.2269,0.0419443,4.86723,14.8278,-341.907,1.91264,0.0,0.0
1071,267.5,307.829,370.274,83.6616,99.4853,79.4535,0.0340296,3.8918,16.0098,-343.288,1.99785,0.0,0.0
1088,271.75,297.678,358.399,101.043,99.4905,84.4992,0.0234457,2.57281,17.805,-344.229,1.45123,0.0,0.0
1105,276,281.309,337.509,122.411,99.4877,96.546,0.0141751,1.29822,19.5255,-344.409,0.2667,0.0,0.0
1122,280.25,261.296,313.2,127.023,99.471,99.3249,0.0101427,0.543182,20.4561,-344.399,0.0130585,0.0,0.0
1139,284.5,241.989,289.63,127.498,99.4662,99.5075,0.00808201,0.250442,20.8002,-344.429,-0.00368701,0.0,0.0
1156,288.75,225.507,270.298,126.304,99.4606,99.5394,0.0060977,0.153529,20.9181,-344.389,-0.0070363,0.0,0.0
1173,293,211.487,252.247,130.814,99.4646,99.252,0.00456036,0.115741,20.9637,-344.409,0.0190115,0.0,0.0
1190,297.25,199.042,236.43,128.408,99.4479,99.3519,0.00309649,0.0962526,20.9845,-344.449,0.00857802,0.0,0.0
1207,301.5,187.405,222.152,131.648,99.4343,99.2107,0.00206972,0.0836553,20.9995,-344.429,0.0200082,0.0,0.0
1224,305.75,177.749,209.487,128.808,99.4351,99.1464,0.00140709,0.0751832,21.0005,-344.419,0.0258381,0.0,0.0
1241,310,168.728,197.855,131.04,99.4542,99.0003,0.000880532,0.0684805,21.0064,-344.429,0.0406546,0.0,0.0
1258,314.25,161.296,187.63,131.582,99.4252,99.6012,0.000832221,0.0638514,21.012,-344.449,-0.0157217,0.0,0.0
1275,318.5,154.056,178.436,131.869,99.4287,99.0752,0.000690787,0.0605863,21.0168,-344.439,0.0316537,0.0,0.0
1292,322.75,148.088,169.647,134.571,99.4208,99.3335,0.000626374,0.0582572,21.02,-344.479,0.00780441,0.0,0.0
1309,327,142.412,161.543,131.04,99.4068,98.8385,0.000692447,0.0566728,21.0207,-344.449,0.0509431,0.0,0.0
1326,331.25,136.893,154.123,132.234,99.412,99.3748,0.000427085,0.0553744,21.0173,-344.459,0.00332335,0.0,0.0
1343,335.5,132.237,147.277,129.372,99.3949,98.7571,0.000124912,0.0544342,21.0194,-344.459,0.0572011,0.0,0.0
1360,339.75,128.077,141.571,132.534,99.3889,99.0973,0.000671308,0.053506,21.0223,-344.459,0.0261106,0.0,0.0
1377,344,124.591,136.759,134.99,99.3861,98.4955,0.000494676,0.0529697,21.0233,-344.479,0.0799873,0.0,0.0
1394,348.25,121.33,132.436,133.821,99.377,99.1628,0.000497474,0.0525496,21.0235,-344.449,0.0191711,0.0,0.0
1411,352.5,118.064,127.347,132.675,99.361,98.5733,0.000730339,0.0521275,21.0233,-344.479,0.0707277,0.0,0.0
1428,356.75,115.151,123.578,133.4,99.3526,98.2973,0.000572426,0.0516461,21.0243,-344.489,0.0948868,0.0,0.0
1445,361,112.25,119.708,131.024,99.3399,98.3244,0.000282264,0.0514152,21.0254,-344.479,0.091305,0.0,0.0
1462,365.25,109.356,115.173,134.431,99.3236,98.7059,0.000547616,0.051195,21.0255,-344.449,0.0554297,0.0,0.0
1479,369.5,107.515,112.941,132.986,99.3096,98.5896,0.000772622,0.050981,21.0255,-344.469,0.0646537,0.0,0.0
1496,373.75,105.256,109.949,133.213,99.3124,97.7447,0.000662029,0.0508352,21.0254,-344.469,0.141388,0.0,0.0
1513,378,102.785,106.71,133.232,99.2997,97.9498,0.00031834,0.0506504,21.0263,-344.459,0.121621,0.0,0.0
1530,382.25,101.089,104.049,136.105,99.3032,98.2695,0.00064414,0.0504687,21.0265,-344.499,0.0929845,0.0,0.0
1547,386.5,99.4191,102.028,134.148,99.3044,97.7304,0.000786593,0.050356,21.0265,-344.469,0.141978,0.0,0.0
1564,390.75,96.8614,98.6712,135.266,99.3287,97.4266,,0.0503154,,-344.459,0.171813,0.0,0.0
1581,395,96.4321,97.3127,135.328,99.3072,97.481,,,,-344.459,0.164923,0.0,0.0
1598,399.25,94.4698,95.7683,138.987,99.3024,97.9379,,,,-344.479,0.122947,0.0,0.0
1605,401,93.6105,94.595,136.933,99.2941,97.0921,,,,-344.449,0.19927,0.0,0.0