Folder: fsri_materials_database/01_Data/Black_PMMA/Cone (part 5)

File: Black_PMMA_Cone_HF75Scan_220315_R2.csv
Names,Time,Stack TC,Smoke TC,Exh Press,Smoke Comp,Smoke Meas,CO Meter,CO2 Meter,O2 Meter,Sample Mass,Ext Coeff,Start Test,Flame Verif
Chan Gain,,500,500,1,1,1,1,1,1,1,1,1.0,1.0
Offset,,0,0,0.132973,0,0,0,0,0,0,0,0.0,0.0
Gain,,1,1,25.011,13.0548,13.4146,1,1,1,1.00087,1.01298,1.0,1.0
Units,sec,C,C,Pa,%,%,%,%,%,g,/m,,
Baseline,,48.8948,48.4652,144.512,99.3813,94.7789,0.000567432,0.047817,21.0247,-833.515,0.421357,,
16,3.75,47.2026,46.9656,146.95,99.4431,95.5287,0.000262014,0.0556216,21.0178,-238.767,0.356841,0.0,0.0
32,7.75,47.1714,46.6145,143.713,99.455,94.8033,0.00039222,0.0532056,21.0186,-238.817,0.425642,0.0,0.0
48,11.75,46.8032,46.9795,147.439,99.4427,95.2364,0.00130138,0.070095,20.9683,-238.927,0.384036,0.0,0.0
64,15.75,50.0559,49.1496,111.855,99.4287,89.094,0.00533903,0.53829,20.2506,-239.658,0.9752,0.0,1.0
80,19.75,60.3873,60.4652,94.8749,99.4036,86.9812,0.0107667,1.23589,19.3162,-240.779,1.18622,0.0,0.0
96,23.75,73.9342,75.0457,89.6472,99.3483,84.3845,0.0153354,1.74502,18.7342,-241.95,1.45058,0.0,0.0
112,27.75,86.9125,90.2102,92.74,99.2813,83.978,0.0182987,2.06343,18.2869,-243.231,1.4875,0.0,0.0
128,31.75,99.6125,105.158,104.014,99.2172,83.4712,0.0202698,2.27385,18.0249,-244.502,1.53554,0.0,0.0
144,35.75,111.529,119.509,87.0636,99.1192,80.077,0.0216314,2.41745,17.8426,-245.843,1.89564,0.0,0.0
160,39.75,122.081,131.817,85.4973,99.0303,83.264,0.0225769,2.53388,17.6939,-247.265,1.54087,0.0,0.0
176,43.75,132.768,144.672,84.1234,98.9419,84.6588,0.0228578,2.67169,17.5239,-248.656,1.38532,0.0,0.0
192,47.75,142.886,156.546,82.6999,98.8662,83.4802,0.022986,2.73826,17.4566,-249.977,1.5031,0.0,0.0
208,51.75,151.18,166.808,80.4902,98.7969,82.6025,0.0237423,2.78091,17.3932,-251.488,1.59078,0.0,0.0
224,55.75,159.091,177.352,85.9286,98.6913,82.1776,0.0239364,2.85675,17.2984,-252.98,1.62711,0.0,0.0
240,59.75,166.83,186.641,81.984,98.6044,82.7302,0.024511,2.93964,17.2047,-254.411,1.55973,0.0,0.0
256,63.75,173.739,195.756,85.8278,98.5415,81.6237,0.024527,2.9786,17.1439,-255.842,1.67371,0.0,0.0
272,67.75,180.182,203.284,76.8769,98.4714,83.7246,0.0250107,3.00716,17.1199,-257.333,1.44156,0.0,0.0
288,71.75,185.422,210.371,84.1807,98.4319,81.0923,0.0260664,3.01623,17.1045,-258.805,1.72186,0.0,0.0
304,75.75,190.434,217.224,78.6797,98.3674,82.0953,0.0271348,3.08699,17.016,-260.386,1.6068,0.0,0.0
320,79.75,195.721,223.811,76.9326,98.3355,80.1151,0.0277035,3.11338,16.9765,-261.807,1.82088,0.0,0.0
336,83.75,200.441,230.121,80.9245,98.2985,81.1168,0.0278194,3.15533,16.9292,-263.339,1.70711,0.0,0.0
352,87.75,204.675,235.735,77.6966,98.273,83.2035,0.0279647,3.18171,16.8836,-264.9,1.47912,0.0,0.0
368,91.75,208.753,241.005,84.831,98.2566,81.2667,0.0287227,3.24841,16.8102,-266.491,1.68693,0.0,0.0
384,95.75,213.086,246.827,80.13,98.228,82.0674,0.0285629,3.27108,16.7838,-268.003,1.59721,0.0,0.0
400,99.75,216.86,251.558,76.8876,98.2276,82.5787,0.0283532,3.29335,16.7683,-269.484,1.54199,0.0,0.0
416,103.75,219.409,255.546,73.0704,98.226,81.8427,0.0277774,3.31082,16.7164,-271.125,1.6214,0.0,0.0
432,107.75,223.027,259.925,78.4843,98.218,80.0263,0.0285535,3.36718,16.6584,-272.707,1.82011,0.0,0.0
448,111.75,226.075,263.759,73.5437,98.2208,82.3008,0.0286893,3.38258,16.6367,-274.248,1.57133,0.0,0.0
464,115.75,228.515,267.054,83.5441,98.2212,81.1258,0.029226,3.42714,16.5936,-275.849,1.69914,0.0,0.0
480,119.75,231.427,270.895,76.725,98.2299,83.1588,0.0301289,3.50465,16.4875,-277.481,1.48,0.0,0.0
496,123.75,235.33,275.128,82.2427,98.2435,81.4132,0.0298986,3.56452,16.421,-279.112,1.66973,0.0,0.0
512,127.75,237.121,278.535,79.0568,98.2511,80.2526,0.0300562,3.55327,16.4241,-280.714,1.798,0.0,0.0
528,131.75,239.537,281.476,79.8704,98.2782,79.9648,0.0301223,3.58966,16.378,-282.355,1.83237,0.0,0.0
544,135.75,241.672,284.536,67.9756,98.3021,82.7785,0.0300596,3.65793,16.3032,-284.007,1.52725,0.0,0.0
560,139.75,244.094,287.647,70.2288,98.3311,81.5344,0.0301533,3.69645,16.2458,-285.688,1.66444,0.0,0.0
576,143.75,246.717,290.647,72.7811,98.3702,81.4484,0.0302009,3.73968,16.19,-287.329,1.67734,0.0,0.0
592,147.75,249.471,293.621,77.6669,98.3945,81.3125,0.0303381,3.77523,16.1447,-289.021,1.69438,0.0,0.0
608,151.75,251.998,296.858,75.5121,98.4168,81.6437,0.0299606,3.80867,16.1071,-290.702,1.66027,0.0,0.0
624,155.75,253.398,299.443,70.9523,98.4451,80.4287,0.0293859,3.84082,16.0667,-292.424,1.79606,0.0,0.0
640,159.75,256.022,302.456,70.8012,98.475,82.422,0.0297577,3.91023,15.9809,-294.105,1.58123,0.0,0.0
656,163.75,259.305,306.457,69.5456,98.4977,80.6694,0.0308881,3.98903,15.8882,-295.877,1.77425,0.0,0.0
672,167.75,261.534,309.244,70.2043,98.5088,81.2998,0.0311004,4.04075,15.8122,-297.588,1.70609,0.0,0.0
688,171.75,264.761,312.588,74.6359,98.5248,82.71875,0.0316237,4.0775,15.7622,-299.32,1.55378,0.0,0.0
704,175.75,266.41,315.267,72.156,98.5371,82.4678,0.0322496,4.1794,15.6444,-301.121,1.58189,0.0,0.0
720,179.75,269.848,319.575,74.9504,98.5554,82.0097,0.0316082,4.20905,15.6054,-302.873,1.63304,0.0,0.0
736,183.75,271.791,322.397,64.1775,98.5678,81.9336,0.0315869,4.23388,15.5829,-304.715,1.64241,0.0,0.0
752,187.75,274.353,325.595,79.2621,98.5877,81.595,0.0321762,4.23944,15.5661,-306.436,1.681,0.0,0.0
768,191.75,275.995,327.626,66.4956,98.5881,82.2586,0.0328091,4.30978,15.4816,-308.308,1.60906,0.0,0.0
784,195.75,278.054,330.632,69.8494,98.5853,81.1451,0.033162,4.35455,15.4257,-310.179,1.72991,0.0,0.0
800,199.75,280.969,333.685,62.7311,98.5774,82.3745,0.0334809,4.42608,15.3447,-311.961,1.59558,0.0,0.0
816,203.75,282.356,335.896,63.1204,98.5722,82.3364,0.0338539,4.46016,15.295,-313.752,1.59922,0.0,0.0
832,207.75,284.82,338.5,77.7287,98.5694,79.989,0.033944,4.47535,15.2664,-315.654,1.85598,0.0,0.0
848,211.75,287.049,341.588,72.3308,98.5662,82.232,0.0335772,4.57138,15.1705,-317.516,1.60996,0.0,0.0
864,215.75,289.52,344.978,76.0022,98.5754,81.8762,0.0335032,4.56078,15.1695,-319.287,1.64931,0.0,0.0
880,219.75,290.982,346.998,61.9518,98.5702,82.6848,0.0338879,4.51316,15.2126,-321.199,1.56152,0.0,0.0
896,223.75,292.774,348.905,61.345,98.555,83.4593,0.0335071,4.54109,15.1923,-322.97,1.47731,0.0,0.0
912,227.75,294.853,352.011,61.7343,98.557,83.1609,0.0335141,4.58752,15.1233,-324.832,1.50932,0.0,0.0
928,231.75,296.979,354.453,75.3534,98.5411,81.7997,0.0344823,4.70059,14.9996,-326.644,1.65453,0.0,0.0
944,235.75,298.008,356.109,57.7965,98.5395,80.9981,0.0360625,4.8385,14.7904,-328.685,1.74189,0.0,0.0
960,239.75,302.747,361.941,59.101,98.5104,81.593,0.0382944,5.09417,14.496,-330.687,1.67425,0.0,0.0
976,243.75,306.189,366.989,78.827,98.4754,79.1064,0.0395606,5.23762,14.3172,-332.729,1.9461,0.0,0.0
992,247.75,308.746,370.55,71.8034,98.4547,82.1186,0.0410868,5.45077,14.0735,-334.781,1.61216,0.0,0.0
1008,251.75,312.723,376.454,70.1906,98.4064,79.9562,0.0427882,5.72529,13.754,-336.912,1.84492,0.0,0.0
1024,255.75,315.595,381.055,72.9086,98.369,81.5463,0.0443945,5.755,13.7072,-339.014,1.66657,0.0,0.0
1040,259.75,317.157,383.755,73.4513,98.3307,75.8497,0.0415811,5.00429,14.5874,-340.676,2.30659,0.0,0.0
1056,263.75,311.333,375.405,94.162,98.2805,81.7854,0.0301406,3.50395,16.6207,-341.687,1.63256,0.0,0.0
1072,267.75,297.154,358.525,118.769,98.2499,93.2472,0.0190061,1.90112,18.6815,-342.027,0.464367,0.0,0.0
1088,271.75,277.88,335.099,126.842,98.2208,97.9314,0.0129035,0.794475,20.1299,-342.087,0.0262226,0.0,0.0
1104,275.75,258.089,310.46,125,98.2248,97.7173,0.0102214,0.344094,20.6935,-342.097,0.0460306,0.0,0.0
1120,279.75,240.83,289.88,128.094,98.2136,98.0718,0.00740294,0.188543,20.871,-342.107,0.0128417,0.0,0.0
1136,283.75,226.181,271.035,126.685,98.222,98.1909,0.00521289,0.132415,20.9435,-342.137,0.0028119,0.0,0.0
1152,287.75,212.852,253.931,129.918,98.2491,97.8024,0.00354206,0.106794,20.9725,-342.077,0.0404891,0.0,0.0
1168,291.75,201.744,239.078,128.225,98.3064,97.8282,0.00256252,0.0899228,20.9913,-342.117,0.0433335,0.0,0.0
1184,295.75,190.798,226.206,131.181,98.3503,98.0087,0.00187281,0.0792474,21.0017,-342.107,0.0309106,0.0,0.0
1200,299.75,181.666,213.104,131.201,98.4156,98.2748,0.00134748,0.071367,21.0096,-342.077,0.012719,0.0,0.0
1216,303.75,173.939,203.444,128.167,98.5056,97.9465,0.00100715,0.0657755,21.0106,-342.107,0.0505818,0.0,0.0
1232,307.75,166.223,192.877,128.844,98.604,98.4668,0.00084881,0.0613892,21.0141,-342.107,0.0123742,0.0,0.0
1248,311.75,159.219,184.09,128.32,98.7017,98.3678,0.000799695,0.058062,21.0173,-342.087,0.0301104,0.0,0.0
1264,315.75,152.936,175.944,131.291,98.8148,98.2609,0.000722378,0.055484,21.0213,-342.107,0.0499477,0.0,0.0
1280,319.75,147.645,167.576,131.725,98.9068,98.1414,0.000889629,0.0534504,21.0243,-342.137,0.0690367,0.0,0.0
1296,323.75,142.39,160.564,129.947,99.0104,98.4169,0.000857985,0.0520544,21.0232,-342.097,0.0534272,0.0,0.0
1312,327.75,137.98,154.094,131.459,99.108,98.6904,0.000742428,0.0510606,21.0226,-342.077,0.0375267,0.0,0.0
1328,331.75,133.528,148.596,133.312,99.1985,98.4836,0.000601875,0.0502492,21.0241,-342.107,0.0642646,0.0,0.0
1344,335.75,129.993,143.2,131.768,99.2789,97.8352,0.000493756,0.0496687,21.0246,-342.117,0.130172,0.0,0.0
1360,339.75,126.627,137.953,131.108,99.3264,97.9072,0.000446751,0.0491515,21.0254,-342.177,0.127874,0.0,0.0
1376,343.75,123.073,133.608,131.034,99.369,98.6003,0.000247943,0.0486186,21.0256,-342.127,0.0690051,0.0,0.0
1392,347.75,119.965,129.646,134.468,99.4136,98.5446,0.00026112,0.0482059,21.0251,-342.137,0.0780135,0.0,0.0
1408,351.75,117.522,125.79,131.602,99.4443,98.3031,4.80627e-05,0.0482119,21.0254,-342.127,0.102561,0.0,0.0
1424,355.75,114.333,121.765,134.764,99.4423,98.8631,0.00019033,0.0480498,21.026,-342.137,0.0519035,0.0,0.0
1440,359.75,112.062,118.618,134.445,99.4172,97.5179,0.00018161,0.0478383,21.0267,-342.137,0.1714,0.0,0.0
1456,363.75,109.674,115.281,130.39,99.3933,97.9891,0.000279941,0.0475747,21.0269,-342.157,0.126431,0.0,0.0
1472,367.75,108.329,112.737,132.466,99.3562,97.2743,0.000249322,0.0474773,21.027,-342.177,0.188173,0.0,0.0
1488,371.75,106.134,109.688,132.492,99.2945,97.486,0.00015537,0.0471837,21.0265,-342.157,0.163335,0.0,0.0
1504,375.75,104.162,106.991,136.624,99.2379,97.558,0.000352249,0.0471611,21.0264,-342.137,0.151706,0.0,0.0
1520,379.75,102.38,104.638,130.24,99.1602,97.4753,0.000390225,0.0472039,21.0274,-342.137,0.152282,0.0,0.0
1536,383.75,100.674,102.457,134.731,99.0925,97.5163,,0.0471675,,-342.147,0.142479,0.0,0.0
1552,387.75,99.0883,100.426,132.86,99.0275,97.4982,,,,-342.167,0.138296,0.0,0.0
1568,391.75,97.7925,98.5659,133.777,98.9789,96.4322,,,,-342.137,0.231624,0.0,0.0
1576,393.75,97.6769,97.6282,135.591,98.965,96.6234,,,,-342.177,0.212774,0.0,0.0

File: Black_PMMA_Cone_HF75Scan_220315_R3.csv
Names,Time,Stack TC,Smoke TC,Exh Press,Smoke Comp,Smoke Meas,CO Meter,CO2 Meter,O2 Meter,Sample Mass,Ext Coeff,Start Test,Flame Verif
Chan Gain,,500,500,1,1,1,1,1,1,1,1,1.0,1.0
Offset,,0,0,0.132973,0,0,0,0,0,0,0,0.0,0.0
Gain,,1,1,25.011,13.0548,13.4146,1,1,1,1.00087,1.01298,1.0,1.0
Units,sec,C,C,Pa,%,%,%,%,%,g,/m,,
Baseline,,54.8734,54.0266,142.736,98.9834,93.4208,0.000329859,0.0466014,21.0257,-833.677,0.513958,,
16,3.75,50.366,50.1251,140.699,99.0331,93.49,0.000371301,0.0525009,21.0193,-243.932,0.511821,0.0,0.0
32,7.75,50.2297,49.8514,141.148,99.2718,93.6873,0.000634361,0.0548305,21.0159,-243.952,0.514473,0.0,0.0
48,11.75,49.9342,49.4552,139.142,99.3917,95.055,0.0016173,0.0840697,20.964,-244.122,0.396415,0.0,0.0
64,15.75,52.8916,52.3499,109.38,99.4993,89.2639,0.00550081,0.579317,20.4168,-244.813,0.964572,0.0,1.0
80,19.75,63.9368,63.3318,94.059,99.52,87.5928,0.0111481,1.24086,19.3513,-245.954,1.13435,0.0,0.0
96,23.75,76.2362,78.1265,79.9078,99.5192,86.2145,0.0151264,1.75093,18.7072,-247.125,1.27522,0.0,0.0
112,27.75,89.6641,92.5774,93.5689,99.4522,86.9612,0.0186689,2.09394,18.2572,-248.316,1.19261,0.0,0.0
128,31.75,102.637,107.782,84.4623,99.404,83.8437,0.0208785,2.27956,18.023,-249.637,1.51269,0.0,0.0
144,35.75,114.219,122.101,80.8032,99.3005,84.1295,0.0223937,2.46225,17.7864,-251.008,1.4732,0.0,0.0
160,39.75,125.197,135.176,84.0509,99.1845,83.4724,0.0236624,2.59482,17.6345,-252.449,1.53249,0.0,0.0
176,43.75,136.095,147.946,85.4225,99.0766,82.7413,0.024766,2.74611,17.4384,-253.74,1.60098,0.0,0.0
192,47.75,146.319,160.109,87.9207,99.1108,83.4712,0.0250545,2.83399,17.3303,-255.212,1.52601,0.0,0.0
208,51.75,154.68,171.353,90.4678,99.163,82.9656,0.0251026,2.89337,17.2563,-256.683,1.58468,0.0,0.0
224,55.75,163.933,181.279,78.1989,99.208,83.0454,0.024931,2.94571,17.1971,-258.164,1.58016,0.0,0.0
240,59.75,171.361,191.211,79.6155,99.2618,83.6656,0.0254539,2.9963,17.1425,-259.645,1.51886,0.0,0.0
256,63.75,177.482,201.077,79.3125,99.3291,82.7024,0.0261239,3.07745,17.0373,-261.157,1.62779,0.0,0.0
272,67.75,184.305,208.705,81.0176,99.3877,82.3434,0.0261437,3.0862,17.0198,-262.668,1.67168,0.0,0.0
288,71.75,190.074,216.615,84.3417,99.4526,85.4133,0.0264669,3.14461,16.9532,-264.169,1.35223,0.0,0.0
304,75.75,195.289,224.13,74.2924,99.5164,82.1399,0.0268656,3.19318,16.8852,-265.731,1.70516,0.0,0.0
320,79.75,200.429,230.257,80.2154,99.5825,83.2415,0.0270525,3.24388,16.8389,-267.202,1.59269,0.0,0.0
336,83.75,205.777,237.33,84.8913,99.651,83.5887,0.0269674,3.26294,16.7984,-268.783,1.56182,0.0,0.0
352,87.75,210.585,243.093,80.6528,99.7072,83.2825,0.0271298,3.30796,16.7485,-270.285,1.59944,0.0,0.0
368,91.75,214.849,248.517,73.5895,99.7598,82.5501,0.027163,3.33439,16.7068,-271.876,1.68261,0.0,0.0
384,95.75,218.827,253.65,84.8249,99.8076,83.5916,0.0268104,3.37039,16.6624,-273.387,1.57546,0.0,0.0
400,99.75,221.917,258.254,73.178,99.865,82.7875,0.0265223,3.40286,16.6284,-274.989,1.66645,0.0,0.0
416,103.75,224.953,262.205,76.354,99.8989,82.2627,0.0270304,3.44126,16.5705,-276.68,1.72597,0.0,0.0
432,107.75,229.184,266.566,77.2501,99.9299,84.4832,0.0278653,3.51676,16.4881,-278.182,1.49207,0.0,0.0
448,111.75,232.186,271.237,77.6615,99.9415,83.0106,0.0284161,3.54343,16.4443,-279.773,1.64934,0.0,0.0
464,115.75,235.38,275.318,79.6621,99.9534,82.7814,0.028303,3.5893,16.3924,-281.484,1.67498,0.0,0.0
480,119.75,237.829,279.37,76.0846,99.9479,82.521,0.0284612,3.65212,16.3228,-283.056,1.70247,0.0,0.0
496,123.75,241.464,282.603,70.0013,99.9339,83.7103,0.0290926,3.68528,16.2828,-284.697,1.57409,0.0,0.0
512,127.75,244.189,286.409,78.9194,99.9168,83.5952,0.0297682,3.69142,16.263,-286.409,1.58478,0.0,0.0
528,131.75,246.307,290.133,75.7297,99.8909,82.7036,0.0305054,3.73198,16.2159,-288.06,1.67777,0.0,0.0
544,135.75,249.456,293.758,77.4547,99.8642,82.9611,0.0306472,3.85119,16.0777,-289.681,1.64777,0.0,0.0
560,139.75,252.408,297.741,74.0024,99.8371,84.3501,0.0301845,3.84123,16.0685,-291.403,1.49781,0.0,0.0
576,143.75,255.123,300.922,78.0355,99.7698,84.0832,0.0297321,3.89094,16.0212,-293.165,1.51998,0.0,0.0
592,147.75,257.162,304.127,72.8254,99.7204,83.6824,0.0301339,3.9361,15.9573,-294.866,1.55804,0.0,0.0
608,151.75,259.677,307.189,72.9926,99.6722,81.5999,0.0311766,3.9723,15.9046,-296.537,1.77767,0.0,0.0
624,155.75,262.275,310.212,77.3356,99.6188,81.2188,0.0322209,4.05963,15.8099,-298.289,1.81451,0.0,0.0
640,159.75,264.971,313.948,72.1736,99.5773,83.5649,0.0323627,4.16469,15.6865,-300.091,1.55777,0.0,0.0
656,163.75,267.774,317.898,76.3204,99.5343,81.6073,0.0319213,4.14004,15.6777,-301.832,1.76457,0.0,0.0
672,167.75,270.021,320.462,66.3857,99.4941,83.1723,0.031926,4.20414,15.6136,-303.604,1.59218,0.0,0.0
688,171.75,271.915,324.099,79.888,99.4582,82.0056,0.0322471,4.24456,15.5723,-305.445,1.71451,0.0,0.0
704,175.75,274.791,326.482,69.915,99.4287,82.5431,0.0326299,4.30504,15.4967,-307.147,1.65382,0.0,0.0
720,179.75,276.874,329.606,72.7766,99.4028,81.5148,0.032949,4.34947,15.4454,-309.008,1.7629,0.0,0.0
736,183.75,279.481,332.543,61.9732,99.3646,82.9067,0.03208,4.36327,15.4178,-310.83,1.60904,0.0,0.0
752,187.75,281.574,335.673,73.7459,99.3379,81.3092,0.031772,4.39128,15.3866,-312.571,1.77953,0.0,0.0
768,191.75,284.577,338.285,68.9579,99.3052,82.6086,0.0319215,4.40637,15.3778,-314.363,1.63573,0.0,0.0
784,195.75,285.727,340.605,74.0604,99.2626,81.6036,0.0324202,4.38936,15.3853,-316.225,1.74068,0.0,0.0
800,199.75,287.419,343.173,68.806,99.2323,82.0056,0.0326683,4.4559,15.321,-317.956,1.6943,0.0,0.0
816,203.75,289.359,345.454,64.6332,99.1973,85.593,0.0321807,4.4217,15.3355,-319.818,1.31071,0.0,0.0
832,207.75,290.969,347.13,67.8664,99.1327,81.6994,0.0319503,4.4793,15.2789,-321.539,1.71862,0.0,0.0
848,211.75,292.38,350.27,65.2324,99.0594,82.2918,0.032214,4.48046,15.2736,-323.431,1.64785,0.0,0.0
864,215.75,293.943,351.594,61.9152,98.9813,82.833,0.032576,4.46237,15.3183,-325.182,1.5826,0.0,0.0
880,219.75,294.897,352.681,66.8719,98.8865,82.9697,0.032611,4.37859,15.3646,-327.014,1.55943,0.0,0.0
896,223.75,296.058,353.22,65.5667,98.8033,82.3323,0.0334327,4.53177,15.2163,-328.886,1.62047,0.0,0.0
912,227.75,297.348,355.592,62.1815,98.7136,81.1357,0.034298,4.75979,14.9674,-330.817,1.7425,0.0,0.0
928,231.75,300.042,359.2,57.5424,98.6538,83.1036,0.036021,5.03446,14.5809,-332.839,1.52417,0.0,0.0
944,235.75,303.336,363.893,64.7194,98.5857,80.0267,0.0379703,5.25217,14.3117,-334.861,1.85327,0.0,0.0
960,239.75,307.036,368.812,68.3748,98.5347,80.0672,0.0399819,5.44515,14.0991,-337.063,1.84418,0.0,0.0
976,243.75,310.468,373.123,65.0087,98.4809,80.4696,0.0434001,5.67313,13.8365,-339.114,1.79478,0.0,0.0
992,247.75,312.791,377.548,70.3654,98.4475,81.6683,0.0435593,5.60097,13.8386,-341.126,1.66037,0.0,0.0
1008,251.75,313.871,378.182,67.7321,98.4188,76.244,0.0407787,4.9847,14.689,-342.828,2.26847,0.0,0.0
1024,255.75,309.073,372.899,83.0716,98.3861,81.2589,0.0320695,3.72759,16.2918,-344.009,1.69948,0.0,0.0
1040,259.75,298.299,358.575,109.347,98.3817,87.3984,0.0211549,2.2071,18.2693,-344.589,1.05188,0.0,0.0
1056,263.75,280.597,337.193,119.152,98.3622,94.5609,0.0133885,1.06714,19.7484,-344.749,0.35021,0.0,0.0
1072,267.75,263.033,315.3125,127.107,98.3371,98.089,0.00915253,0.492601,20.497,-344.849,0.0224513,0.0,0.0
1088,271.75,245.929,293.641,128.615,98.3176,98.3072,0.00700309,0.246796,20.8023,-344.829,0.000941636,0.0,0.0
1104,275.75,230.473,274.97,127.935,98.3041,98.2789,0.00546579,0.145152,20.9269,-344.819,0.00227183,0.0,0.0
1120,279.75,216.573,257.777,127.506,98.2965,98.2384,0.00402785,0.103437,20.9798,-344.799,0.0052524,0.0,0.0
1136,283.75,204.547,242.568,126.812,98.2813,98.3379,0.00269481,0.0832217,21.003,-344.799,-0.00510977,0.0,0.0
1152,287.75,193.804,228.371,128.516,98.2865,98.615,0.0018727,0.0704926,21.0157,-344.819,-0.0296495,0.0,0.0
1168,291.75,184.864,216.608,128.18,98.273,98.4091,0.00157433,0.0632691,21.0228,-344.829,-0.0123002,0.0,0.0
1184,295.75,176.451,205.967,130.039,98.2718,98.4992,0.00127428,0.0585214,21.0218,-344.809,-0.0205364,0.0,0.0
1200,299.75,169.067,195.45,126.078,98.2658,98.3215,0.000868522,0.0554718,21.0239,-344.829,-0.00503505,0.0,0.0
1216,303.75,162.101,185.904,129.823,98.2634,98.5258,0.000641555,0.0536953,21.0258,-344.859,-0.0236929,0.0,0.0
1232,307.75,155.882,178.199,128.171,98.2738,98.536,0.000541869,0.0522376,21.0277,-344.839,-0.0236801,0.0,0.0
1248,311.75,149.749,170.3,127.23,98.263,98.2568,0.000699304,0.0509745,21.0292,-344.789,0.000560333,0.0,0.0
1264,315.75,144.705,162.872,130.152,98.2754,98.4693,0.00097002,0.0499654,21.0292,-344.829,-0.0175163,0.0,0.0
1280,319.75,140.068,156.724,129.639,98.2674,98.1246,0.000927961,0.0493209,21.0274,-344.849,0.0129232,0.0,0.0
1296,323.75,135.75,150.585,130.147,98.2885,98.5262,0.000626796,0.0486221,21.0287,-344.849,-0.0214612,0.0,0.0
1312,327.75,132.126,145.225,131.113,98.2833,98.1876,0.000357647,0.048241,21.0291,-344.849,0.00865633,0.0,0.0
1328,331.75,128.279,140.572,131.791,98.2989,98.482,0.000305717,0.0478417,21.0306,-344.859,-0.0165367,0.0,0.0
1344,335.75,125.491,135.642,129.615,98.2694,98.5741,0.000345552,0.0476716,21.0314,-344.809,-0.0275087,0.0,0.0
1360,339.75,122.148,131.274,129.215,98.2857,97.8753,0.0003325,0.0474371,21.0298,-344.879,0.0371859,0.0,0.0
1376,343.75,119.944,127.328,132.4,98.2706,97.8863,0.000108744,0.0474059,21.0283,-344.859,0.0348133,0.0,0.0
1392,347.75,116.819,123.795,133.473,98.2897,98.396,0.000205023,0.0471522,21.028,-344.849,-0.00960424,0.0,0.0
1408,351.75,113.735,120.082,134.048,98.2802,98.2077,0.000251598,0.0468027,21.0279,-344.859,0.00655337,0.0,0.0
1424,355.75,111.38,116.842,136.083,98.2849,97.5379,0.000352096,0.0467083,21.03,-344.869,0.0677911,0.0,0.0
1440,359.75,110.083,114.326,132.433,98.2817,97.8847,0.000569548,0.0463378,21.0319,-344.869,0.0359707,0.0,0.0
1456,363.75,108.015,111.307,133.705,98.2758,97.6051,0.00064943,0.0462703,21.0304,-344.889,0.0608493,0.0,0.0
1472,367.75,105.766,108.757,136.571,98.2929,97.3521,0.000587931,0.0461397,21.0295,-344.859,0.0854602,0.0,0.0
1488,371.75,104.27,106.068,134.982,98.2841,97.8352,0.000521864,0.0461736,21.0311,-344.829,0.0406852,0.0,0.0
1504,375.75,102.111,104.163,133.733,98.2786,97.7074,0.000354455,0.046139,21.0309,-344.869,0.0517888,0.0,0.0
1520,379.75,100.932,101.799,131.161,98.2686,97.4188,,0.046162,,-344.839,0.0771735,0.0,0.0
1536,383.75,99.0616,99.6848,131.407,98.2754,97.4164,,,,-344.819,0.0780104,0.0,0.0
1552,387.75,97.4484,98.0563,136.905,98.2722,97.0405,,,,-344.859,0.112068,0.0,0.0
1562,390.25,97.276,96.7228,132.936,98.2722,97.7254,,,,-344.839,0.0495738,0.0,0.0