Folder: fsri_materials_database/01_Data/Black_PMMA/Cone

Note: 01_Data/README.md
# Materials and Products Database
## 01_Data

Raw data generated from each apparatus are included here in plain-text format. The data is organized first by material, next by the short name of test apparatus used, and where applicable additional filtering by test settings.

### material.json

Each material directory contains a json file of the same name as the material. This file links the data stored in the repository as well as data and graphs produced by the accompanying scripts (__02_Scripts__) to the respective landing page for the material on the front-end website.

File: Black_PMMA_Cone_HF25Scalar_220309_R1.csv
LABORATORY,FSRI
TEST IDENT,Black_PMMA_HF25_1
OPERATOR,Dow
MATERIAL,black PMMA
ORIENTATION,Horizontal
HEAT FLUX,25
SURF AREA,0.01
C FACTOR,0.0374868
SPEC HOLDER DIFF,-85.1
SPECIMEN MASS,103.6
SCAN TIME,0.25
O2 DELAY TIME,11
CO DELAY TIME,11
CO2 DELAY TIME,8
FLOW FACTOR,1
SCAN COUNT,3297
TIME TO IGN,109.5
END OF TEST SCAN,2817
END OF TEST TIME,704.25
TEST STATUS,1
PRE TEST CMT,Dimensions: 100.83 x 100.80 x 8.25 mm

File: Black_PMMA_Cone_HF25Scalar_220315_R2.csv
LABORATORY,FSRI
TEST IDENT,BlackPMMA_HF25_2
OPERATOR,Dow
MATERIAL,Black PMMA
ORIENTATION,Horizontal
HEAT FLUX,25
SURF AREA,0.01
C FACTOR,0.0394682
SPEC HOLDER DIFF,-566
SPECIMEN MASS,100.7
SCAN TIME,0.25
O2 DELAY TIME,11
CO DELAY TIME,11
CO2 DELAY TIME,8
FLOW FACTOR,1
SCAN COUNT,3153
TIME TO IGN,119
END OF TEST SCAN,2673
END OF TEST TIME,668.25
TEST STATUS,1
PRE TEST CMT,Dimensions: 100.93 x 100.99 x 8.27 mm

File: Black_PMMA_Cone_HF25Scalar_220315_R3.csv
LABORATORY,FSRI
TEST IDENT,BlackPMMA_HF25_3
OPERATOR,Dow
MATERIAL,Black PMMA
ORIENTATION,Horizontal
HEAT FLUX,25
SURF AREA,0.01
C FACTOR,0.0394682
SPEC HOLDER DIFF,-566
SPECIMEN MASS,102.5
SCAN TIME,0.25
O2 DELAY TIME,11
CO DELAY TIME,11
CO2 DELAY TIME,8
FLOW FACTOR,1
SCAN COUNT,3132
TIME TO IGN,116.75
END OF TEST SCAN,2652
END OF TEST TIME,663
TEST STATUS,1
PRE TEST CMT,Dimensions: 100.17 x 100.94 x 8.38 mm

File: Black_PMMA_Cone_HF25Scalar_220909_R4.csv
LABORATORY,FSRI
TEST IDENT,PMMA_HF25
OPERATOR,Dow
MATERIAL,Black PMMA
ORIENTATION,Horizontal
HEAT FLUX,25
SURF AREA,0.01
C FACTOR,0.0424895
SPEC HOLDER DIFF,-566
SPECIMEN MASS,101.43
SCAN TIME,0.25
O2 DELAY TIME,11
CO DELAY TIME,11
CO2 DELAY TIME,8
FLOW FACTOR,1
SCAN COUNT,3045
TIME TO IGN,102.25
END OF TEST SCAN,2565
END OF TEST TIME,641.25
TEST STATUS,1
PRE TEST CMT,Dimensions: 101.14 x 100.87 x 8.32 mm
POST TEST CMT,sample slightly preheated due to false start with shutter

File: Black_PMMA_Cone_HF25Scan_220309_R1.csv
Names,Time,Stack TC,Smoke TC,Exh Press,Smoke Comp,Smoke Meas,CO Meter,CO2 Meter,O2 Meter,Sample Mass,Ext Coeff,Start Test,Flame Verif
Chan Gain,,500,500,1,1,1,1,1,1,1,1,1.0,1.0
Offset,,0,0,0.134647,0,0,0,0,0,0,0,0.0,0.0
Gain,,1,1,25.011,13.2859,13.1681,1,1,1,1.00096,0.993885,1.0,1.0
Units,sec,C,C,Pa,%,%,%,%,%,g,/m,,
Baseline,,16.9235,17.4311,165.179,99.9874,96.2545,0.00108421,0.0716553,20.982,-870.724,0.331797,,
34,8.25,15.6246,15.99,165.03,100.201,96.6794,0.000861818,0.0762875,20.9784,-285.044,0.311953,0.0,0.0
68,16.75,16.0741,16.5169,164.199,100.011,96.249,0.00105838,0.0758618,20.9825,-284.974,0.334254,0.0,0.0
102,25.25,15.6386,16.2747,170.182,99.6945,96.8196,0.00122399,0.0802876,20.9777,-285.004,0.255105,0.0,0.0
136,33.75,15.9561,16.6424,169.068,99.3649,95.9496,0.00124747,0.0786154,20.9765,-285.024,0.304927,0.0,0.0
170,42.25,16.8129,17.076,166.866,99.032,95.7571,0.000929285,0.0840292,20.9692,-285.044,0.29318,0.0,0.0
204,50.75,16.1987,16.8576,165.195,98.8763,95.5638,0.00086213,0.0833521,20.971,-285.054,0.297079,0.0,0.0
238,59.25,17.0416,17.0948,162.193,98.8532,95.4778,0.000942333,0.0815523,20.9709,-285.095,0.30289,0.0,0.0
272,67.75,15.8556,17.3923,165.496,99.0535,95.5417,0.000678182,0.0764939,20.9755,-285.044,0.314705,0.0,0.0
306,76.25,16.1885,17.5058,164.56,99.3718,96.0947,0.000773397,0.0733984,20.9769,-285.054,0.292361,0.0,0.0
340,84.75,16.9207,17.0606,161.51,99.7943,96.4632,0.00109297,0.0789644,20.9714,-285.095,0.295979,0.0,0.0
374,93.25,16.9034,17.387,163.073,100.255,96.5934,0.000871497,0.0764569,20.9761,-285.105,0.324366,0.0,0.0
408,101.75,16.8028,17.411,164.038,100.618,97.365,0.000946881,0.0797471,20.9706,-285.165,0.286501,0.0,0.0
442,110.25,17.2764,17.8146,160.217,100.852,96.218,0.00169138,0.103303,20.9324,-285.275,0.410091,0.0,1.0
476,118.75,19.9147,20.0587,144.388,100.925,92.5209,0.00296756,0.320951,20.6222,-285.765,0.757997,0.0,0.0
510,127.25,26.923,26.5614,140.45,100.879,91.3973,0.00403535,0.513978,20.3746,-286.536,0.860529,0.0,0.0
544,135.75,35.0202,35.4987,136.473,100.705,90.6969,0.00486706,0.622151,20.2307,-287.477,0.91252,0.0,0.0
578,144.25,42.4117,43.6652,133.95,100.503,90.2766,0.00523857,0.677766,20.1585,-288.508,0.935592,0.0,0.0
612,152.75,49.0572,50.8425,140.216,100.291,90.0049,0.0055062,0.713394,20.114,-289.519,0.943382,0.0,0.0
646,161.25,54.1018,57.856,132.687,100.14,89.5645,0.00591489,0.736178,20.0825,-290.61,0.973063,0.0,0.0
680,169.75,58.7176,63.1967,122.813,100.452,89.9936,0.00609049,0.762642,20.0512,-291.691,0.958524,0.0,0.0
714,178.25,64.058,67.9897,130.243,100.684,90.6889,0.00661899,0.784533,20.0184,-292.832,0.911501,0.0,0.0
748,186.75,67.8221,72.605,137.492,100.746,90.3264,0.00640804,0.806379,19.987,-294.013,0.951788,0.0,0.0
782,195.25,70.198,76.9876,130.678,100.664,89.4057,0.00653149,0.819282,19.9711,-295.184,1.03402,0.0,0.0
816,203.75,73.755,81.2658,122.259,100.444,88.639,0.00673971,0.843292,19.9326,-296.415,1.09002,0.0,0.0
850,212.25,76.9083,84.1255,129.759,100.084,88.463,0.00645082,0.853043,19.9215,-297.627,1.07604,0.0,0.0
884,220.75,79.7798,86.6203,124.272,99.9783,88.4389,0.00697586,0.875641,19.896,-298.908,1.06923,0.0,0.0
918,229.25,81.4966,90.5497,123.509,100.061,88.9191,0.00718658,0.896124,19.8697,-300.169,1.02919,0.0,0.0
952,237.75,84.3847,93.06,126.142,100.151,88.8913,0.00749531,0.916588,19.8428,-301.48,1.03979,0.0,0.0
986,246.25,86.9031,95.6257,125.037,100.217,89.1325,0.00722854,0.93586,19.811,-302.792,1.02189,0.0,0.0
1020,254.75,89.2625,98.6378,123.297,100.241,88.9777,0.0074073,0.968112,19.7693,-304.183,1.03911,0.0,0.0
1054,263.25,91.3495,101.699,121.277,100.214,88.5176,0.00759915,0.997294,19.7315,-305.554,1.08202,0.0,0.0
1088,271.75,93.63,103.568,123.29,100.215,88.7575,0.00839057,0.998275,19.7263,-307.046,1.05846,0.0,0.0
1122,280.25,95.689,106.434,123.896,100.181,89.0336,0.00815304,1.03117,19.6826,-308.417,1.02842,0.0,0.0
1156,288.75,97.7511,108.637,113.71,100.127,88.8825,0.00807758,1.05547,19.6572,-309.888,1.03857,0.0,0.0
1190,297.25,99.4408,110.447,117.669,100.031,88.7853,0.00828799,1.06846,19.6376,-311.29,1.03971,0.0,0.0
1224,305.75,101.055,112.907,121.888,99.9094,88.7627,0.00844229,1.08172,19.6198,-312.771,1.03135,0.0,0.0
1258,314.25,103.149,114.88,112.491,99.7922,88.1913,0.00852144,1.10813,19.5792,-314.333,1.07742,0.0,0.0
1292,322.75,104.659,117.304,112.875,99.6657,86.7161,0.00868568,1.13201,19.5469,-315.864,1.21343,0.0,0.0
1326,331.25,107.234,119.145,119.082,99.5319,88.4557,0.00888431,1.14571,19.5329,-317.386,1.02855,0.0,0.0
1360,339.75,108.532,121.556,118.488,99.3722,87.5403,0.00897487,1.16485,19.5056,-318.937,1.10524,0.0,0.0
1394,348.25,110.842,123.631,111.089,99.2428,88.5136,0.00913387,1.19021,19.4723,-320.609,0.997491,0.0,0.0
1428,356.75,112.653,125.853,118.488,99.1492,87.4772,0.00935728,1.2246,19.4329,-322.16,1.09194,0.0,0.0
1462,365.25,114.49,128.238,116.559,99.1313,87.2385,0.00929272,1.22173,19.432,-323.782,1.1142,0.0,0.0
1496,373.75,115.905,129.67,116.172,99.1078,87.6022,0.00930387,1.23626,19.4117,-325.453,1.07586,0.0,0.0
1530,382.25,117.421,131.04,113.95,99.1318,88.3529,0.00929305,1.23477,19.4144,-327.005,1.00357,0.0,0.0
1564,390.75,119.678,133.334,110.602,99.212,88.4075,0.00972071,1.28279,19.3461,-328.757,1.00524,0.0,0.0
1598,399.25,121.402,135.7,114.314,99.3738,87.1658,0.00997017,1.27926,19.3531,-330.458,1.14277,0.0,0.0
1632,407.75,122.371,136.533,108.458,99.6402,88.2648,0.00968071,1.33146,19.2821,-332.14,1.05686,0.0,0.0
1666,416.25,125.214,140.029,112.3,99.892,88.8556,0.0102064,1.34728,19.2579,-333.962,1.02071,0.0,0.0
1700,424.75,127.578,141.906,108.554,100.121,89.2293,0.0103558,1.4046,19.1901,-335.733,1.00412,0.0,0.0
1734,433.25,129.384,144.821,106.121,100.214,88.7861,0.010052,1.41332,19.1723,-337.525,1.05555,0.0,0.0
1768,441.75,132.204,147.699,114.933,100.219,88.8021,0.0108044,1.45298,19.1252,-339.347,1.05443,0.0,0.0
1802,450.25,134.614,149.77,116.873,100.061,88.1013,0.0106183,1.45951,19.1175,-341.199,1.10974,0.0,0.0
1836,458.75,137.347,152.328,99.315,100.301,88.3641,0.0112829,1.53072,19.0266,-343.15,1.10473,0.0,0.0
1870,467.25,139.545,155.875,107.619,100.752,88.8765,0.0115922,1.54225,19.0077,-345.032,1.09339,0.0,0.0
1904,475.75,141.871,158.308,114.194,100.144,89.7385,0.0114901,1.57752,18.9656,-346.954,0.956494,0.0,0.0
1938,484.25,144.597,161.159,102.887,100.598,88.6619,0.0116572,1.59985,18.9316,-349.006,1.10116,0.0,0.0
1972,492.75,146.365,163.939,104.888,100.917,90.0322,0.0116807,1.61588,18.9127,-350.968,0.995055,0.0,0.0
2006,501.25,148.625,166.252,98.8906,100.345,88.5462,0.0121268,1.63742,18.8875,-352.88,1.09056,0.0,0.0
2040,509.75,150.268,168.306,105.085,99.1711,87.5463,0.0122418,1.66276,18.8491,-354.962,1.08698,0.0,0.0
2074,518.25,153.179,170.859,109.096,98.9225,87.8899,0.012209,1.70493,18.801,-356.994,1.03096,0.0,0.0
2108,526.75,154.567,173.844,103.27,99.8052,88.4425,0.0119928,1.72148,18.7753,-359.016,1.05376,0.0,0.0
2142,535.25,157.025,175.873,99.2875,100.208,88.7419,0.0121464,1.74986,18.7402,-361.098,1.0594,0.0,0.0
2176,543.75,159.544,178.298,98.5136,99.92,88.1748,0.0126818,1.77592,18.7022,-363.23,1.0902,0.0,0.0
2210,552.25,160.651,180.938,100.175,100.674,87.9,0.0130865,1.8216,18.6413,-365.302,1.18301,0.0,0.0
2244,560.75,163.532,183.686,99.2829,100.548,87.4125,0.0139415,1.86501,18.5899,-367.514,1.22057,0.0,0.0
2278,569.25,165.922,185.63,103.417,100.833,86.7197,0.0144601,1.85269,18.6005,-369.706,1.31455,0.0,0.0
2312,577.75,165.816,186.342,100.803,99.5202,85.5439,0.0157022,1.87505,18.577,-371.858,1.31935,0.0,0.0
2346,586.25,167.025,188.157,98.9563,98.9347,83.1873,0.0157395,1.83169,18.6312,-374.02,1.51144,0.0,0.0
2380,594.75,167.207,188.408,101.311,100.025,86.6771,0.0148999,1.77182,18.7056,-376.142,1.24869,0.0,0.0
2414,603.25,167.787,187.689,103.769,100.084,84.4247,0.014512,1.75273,18.7326,-378.194,1.4834,0.0,0.0
2448,611.75,167.604,187.593,97.3648,100.634,86.62,0.0139381,1.66459,18.8428,-380.226,1.30735,0.0,0.0
2482,620.25,165.985,185.636,101.428,100.345,88.041,0.0131543,1.61557,18.9102,-382.138,1.14048,0.0,0.0
2516,628.75,164.172,183.78,108.741,100.868,86.5794,0.0114571,1.4438,19.1369,-383.98,1.33171,0.0,0.0
2550,637.25,159.939,179.264,111.393,99.3402,87.2321,0.0107419,1.27945,19.3506,-385.521,1.13318,0.0,0.0
2584,645.75,153.267,171.424,125.194,99.2396,88.6832,0.008935,1.01465,19.7168,-386.822,0.980519,0.0,0.0
2618,654.25,144.827,161.322,130.872,100.227,84.8081,0.0078474,0.77156,20.0277,-387.863,1.45639,0.0,0.0
2652,662.75,132.517,148.063,140.036,99.9122,89.5484,0.00458475,0.463395,20.4647,-388.494,0.954767,0.0,0.0
2686,671.25,119.297,132.768,146.346,100.278,91.3471,0.00229468,0.251204,20.7591,-388.694,0.813202,0.0,0.0
2720,679.75,107.122,119.345,145.682,100.865,91.8948,0.00139643,0.155333,20.8806,-388.774,0.81201,0.0,0.0
2754,688.25,96.703,106.915,153.012,100.219,91.3949,0.000984141,0.110005,20.9397,-388.924,0.80356,0.0,0.0
2788,696.75,87.5898,96.231,153.45,98.9359,90.1464,0.00103083,0.0867162,20.9682,-388.914,0.81113,0.0,0.0
2822,705.25,80.2528,86.7635,146.216,99.4618,90.6258,0.00082821,0.0754304,20.9834,-388.914,0.811105,0.0,0.0
2856,713.75,73.5702,78.8263,154.011,100.212,91.2607,0.000932977,0.0689786,20.9929,-388.894,0.815738,0.0,0.0
2890,722.25,68.3449,72.7812,155.332,99.9516,90.7403,0.000640779,0.0664214,20.9947,-388.935,0.84292,0.0,0.0
2924,730.75,63.8486,67.3356,157.404,100.249,91.3037,0.000430165,0.0654416,20.9945,-388.914,0.814876,0.0,0.0
2958,739.25,60.4155,61.8922,156.313,100.56,91.632,0.000644626,0.0657243,20.9947,-388.924,0.81055,0.0,0.0
2992,747.75,57.5446,58.4641,155.309,100.241,91.5284,0.000835213,0.0688089,20.9888,-388.914,0.792747,0.0,0.0
3026,756.25,54.7458,55.3852,152.466,100.748,91.6348,0.000859059,0.0683197,20.9912,-388.914,0.826577,0.0,0.0
3060,764.75,52.4128,51.7754,152.324,100.898,92.1271,0.000642619,0.0655934,20.9964,-388.874,0.792839,0.0,0.0
3094,773.25,50.4293,49.3684,157.635,100.836,92.3092,0.000572865,0.0644223,20.9953,-389.005,0.770302,0.0,0.0
3128,781.75,48.6689,47.2309,153.789,100.49,91.9925,0.000894014,0.0638656,20.9973,-388.975,0.770308,0.0,0.0
3162,790.25,47.5425,45.2705,159.579,99.995,91.4138,0.000542577,0.0640053,20.9966,-388.954,0.782233,0.0,0.0
3196,798.75,46.1656,43.2946,153.411,99.5388,90.9481,0.000959739,0.0666108,20.9942,-388.924,0.786906,0.0,0.0
3230,807.25,44.268,42.0275,155.168,99.165,90.592,0.000759502,0.0686913,20.9931,-388.854,0.788299,0.0,0.0
3264,815.75,42.9356,41.0675,156.976,98.989,90.987,,0.0663023,,-388.914,0.734881,0.0,0.0
3297,824,42.6981,40.233,156.754,99.0142,90.9786,,,,-388.935,0.737903,0.0,0.0

File: Black_PMMA_Cone_HF25Scan_220315_R2.csv
Names,Time,Stack TC,Smoke TC,Exh Press,Smoke Comp,Smoke Meas,CO Meter,CO2 Meter,O2 Meter,Sample Mass,Ext Coeff,Start Test,Flame Verif
Chan Gain,,500,500,1,1,1,1,1,1,1,1,1.0,1.0
Offset,,0,0,0.136235,0,0,0,0,0,0,0,0.0,0.0
Gain,,1,1,25.011,13.6985,14.3472,1,1,1,1.00091,1.01482,1.0,1.0
Units,sec,C,C,Pa,%,%,%,%,%,g,/m,,
Baseline,,14.1989,14.2175,179.11,103.878,101.375,0.00093695,0.0453828,21.0189,-831.93,0.217208,,
33,8,13.261,13.7015,172.934,103.749,102.123,0.000738566,0.0527858,21.0142,-242.04,0.140605,0.0,0.0
66,16.25,13.6425,14.0997,176.863,104.56,103.205,0.00068271,0.0483475,21.0189,-242.04,0.116105,0.0,0.0
99,24.5,14.0455,13.6782,176.534,104.373,103.224,0.000992844,0.046068,21.0225,-242.07,0.0985563,0.0,0.0
132,32.75,13.9003,14.3452,180.165,103.753,102.497,0.00114658,0.0450139,21.0225,-242.05,0.108389,0.0,0.0
165,41,13.7818,14.1399,180.898,104.283,103.218,0.000862769,0.045559,21.0214,-242.04,0.0913831,0.0,0.0
198,49.25,14.4741,14.6341,178.086,103.422,102.578,0.000845995,0.0461521,21.0217,-242.06,0.0729061,0.0,0.0
231,57.5,14.3948,14.41,177.953,103.759,102.387,0.000848512,0.0451733,21.0242,-242.08,0.118442,0.0,0.0
264,65.75,14.2229,14.2961,177.693,103.878,102.827,0.000844176,0.0440939,21.0258,-242.08,0.0905565,0.0,0.0
297,74,14.7473,14.662,180.715,103.522,102.218,0.000968777,0.0447007,21.0215,-242.11,0.112826,0.0,0.0
330,82.25,14.7319,14.5218,182.441,103.035,101.975,0.000963128,0.044452,21.0212,-242.12,0.0921099,0.0,0.0
363,90.5,14.4067,15.1361,173.717,102.726,101.799,0.00105229,0.0455333,21.0213,-242.11,0.0807188,0.0,0.0
396,98.75,14.4945,14.4945,175.925,102.589,101.348,0.00109925,0.0473213,21.0205,-242.11,0.108316,0.0,0.0
429,107,14.8417,14.7458,180.672,102.542,101.406,0.000866094,0.0466865,21.0216,-242.14,0.0991765,0.0,0.0
462,115.25,15.1142,15.4095,176.365,102.542,101.034,0.000188631,0.0467853,21.0207,-242.19,0.131907,0.0,0.0
495,123.5,16.8315,16.3996,156.572,102.55,96.4286,0.00188635,0.175422,20.7951,-242.53,0.547859,0.0,1.0
528,131.75,22.9832,23.8642,141.612,102.56,98.4623,0.00417895,0.505756,20.3299,-243.481,0.362932,0.0,0.0
561,140,33.5294,34.4033,148.516,102.54,97.3082,0.00522527,0.679203,20.138,-244.662,0.466225,0.0,0.0
594,148.25,42.688,44.6824,134.345,102.584,97.7635,0.00591117,0.744511,20.0615,-245.833,0.428475,0.0,0.0
627,156.5,50.0325,52.7159,139.934,102.69,97.0201,0.00623222,0.763825,20.0421,-247.024,0.505603,0.0,0.0
660,164.75,55.9544,59.7433,135.808,102.93,97.0538,0.00627435,0.78898,20.0096,-248.235,0.523287,0.0,0.0
693,173,61.9413,67.0616,138.392,103.252,96.7985,0.00632852,0.79928,19.9969,-249.556,0.574527,0.0,0.0
726,181.25,66.123,72.1514,140.604,103.594,97.1847,0.0060813,0.79956,19.9993,-250.758,0.568553,0.0,0.0
759,189.5,69.3993,76.5131,137.54,103.858,97.8424,0.00653282,0.811823,19.9785,-252.049,0.531192,0.0,0.0
792,197.75,73.3672,80.7329,131.259,103.907,96.5603,0.00608648,0.816181,19.971,-253.29,0.652722,0.0,0.0
825,206,75.6782,83.4114,132.049,103.643,97.5626,0.00642804,0.837458,19.945,-254.621,0.538176,0.0,0.0
858,214.25,78.1347,87.0333,137.408,103.59,97.3178,0.00681155,0.837366,19.9447,-255.912,0.55601,0.0,0.0
891,222.5,80.6675,90.3454,134.984,104.344,98.2242,0.00674408,0.850581,19.9264,-257.243,0.538062,0.0,0.0
924,230.75,82.7336,91.9861,131.611,103.787,97.331,0.00696096,0.863018,19.9094,-258.535,0.571748,0.0,0.0
957,239,85.2594,94.8258,135.387,104.349,97.7522,0.00751041,0.887987,19.8759,-259.926,0.581369,0.0,0.0
990,247.25,87.0431,97.2693,137.936,104.614,98.5595,0.00710573,0.903455,19.8552,-261.307,0.530727,0.0,0.0
1023,255.5,89.3799,99.3871,133.741,103.918,97.7605,0.00712848,0.913765,19.8388,-262.688,0.543767,0.0,0.0
1056,263.75,90.9876,101.802,133.166,102.824,97.3892,0.00736197,0.925954,19.8238,-264.09,0.48339,0.0,0.0
1089,272,92.9899,103.735,125.424,102.683,97.1523,0.00771009,0.937666,19.8068,-265.481,0.4929,0.0,0.0
1122,280.25,93.5345,106.259,130.45,103.474,96.4491,0.00762669,0.957541,19.7822,-266.922,0.625871,0.0,0.0
1155,288.5,96.3952,107.946,128.374,103.927,97.7828,0.00744121,0.963687,19.7735,-268.363,0.54245,0.0,0.0
1188,296.75,98.1631,109.455,131.559,103.474,96.6523,0.00783281,0.990956,19.7384,-269.825,0.607139,0.0,0.0
1221,305,99.1602,111.338,134.501,104.237,96.4286,0.00773115,1.00306,19.7224,-271.306,0.693165,0.0,0.0
1254,313.25,101.152,112.388,130.815,103.811,97.6633,0.00775815,1.00436,19.7179,-272.818,0.543449,0.0,0.0
1287,321.5,101.454,114.185,131.001,104.583,98.4317,0.0078798,1.01841,19.7015,-274.359,0.53965,0.0,0.0
1320,329.75,104.34,116.593,125.466,104.057,98.2001,0.00829846,1.04211,19.6672,-275.84,0.515709,0.0,0.0
1353,338,106.427,118.683,117.376,102.727,97.0853,0.00834917,1.06397,19.6396,-277.382,0.502843,0.0,0.0
1386,346.25,108.095,120.217,123.841,103.068,96.7456,0.00833092,1.07505,19.6234,-278.963,0.563492,0.0,0.0
1419,354.5,109.877,122.617,130.721,103.924,99.032,0.00858433,1.1087,19.5791,-280.605,0.429198,0.0,0.0
1452,362.75,111.446,124.394,126.529,103.487,96.443,0.00852545,1.11766,19.5624,-282.216,0.627552,0.0,0.0
1485,371,112.283,125.619,130.507,104.252,98.7609,0.0086838,1.13808,19.54,-283.818,0.481659,0.0,0.0
1518,379.25,115.187,128.428,124.727,103.939,97.1497,0.00939987,1.15486,19.5147,-285.479,0.601314,0.0,0.0
1551,387.5,115.672,130.162,129.744,104.591,97.5691,0.00921196,1.16689,19.4971,-287.171,0.618641,0.0,0.0
1584,395.75,118.603,131.724,116.312,103.74,96.8366,0.00953096,1.18877,19.4687,-288.852,0.612987,0.0,0.0
1617,404,119.347,132.815,121.57,102.63,95.8904,0.00947207,1.20044,19.4511,-290.574,0.604639,0.0,0.0
1650,412.25,121.236,135.557,126.12,103.315,96.8358,0.00949201,1.22204,19.4266,-292.255,0.57651,0.0,0.0
1683,420.5,123.447,137.956,115.17,103.937,96.2828,0.00975807,1.25262,19.3823,-294.017,0.680964,0.0,0.0
1716,428.75,125.214,138.102,112.317,103.417,97.6173,0.00964904,1.26293,19.3738,-295.788,0.513773,0.0,0.0
1749,437,126.408,141.016,120.293,104.235,97.3454,0.0100069,1.26894,19.3622,-297.56,0.608748,0.0,0.0
1782,445.25,128.784,143.324,118.139,103.98,96.5814,0.0103933,1.32741,19.2795,-299.372,0.65705,0.0,0.0
1815,453.5,130.033,144.908,113.426,104.576,97.0897,0.0101833,1.322,19.2871,-301.183,0.661211,0.0,0.0
1848,461.75,132.682,147.759,115.412,103.582,95.6571,0.0104729,1.35687,19.2457,-303.045,0.708515,0.0,0.0
1881,470,134.516,149.587,114.676,102.749,95.9465,0.0108001,1.38895,19.1997,-304.967,0.609767,0.0,0.0
1914,478.25,136.577,152.175,113.915,102.782,94.3979,0.0110916,1.40902,19.1774,-306.818,0.757483,0.0,0.0
1947,486.5,137.992,153.844,118.305,103.38,95.4732,0.0109622,1.42594,19.1517,-308.73,0.708311,0.0,0.0
1980,494.75,140.054,155.992,120.968,103.901,95.7144,0.0111936,1.44847,19.1261,-310.692,0.730549,0.0,0.0
2013,503,141.913,157.147,114.572,104.035,96.5065,0.0114309,1.47904,19.087,-312.614,0.668677,0.0,0.0
2046,511.25,143.189,159.387,118.622,103.863,95.1689,0.0110198,1.45013,19.1204,-314.535,0.778174,0.0,0.0
2079,519.5,144.612,160.877,118.875,103.585,96.5695,0.0114509,1.49225,19.0642,-316.567,0.62429,0.0,0.0
2112,527.75,145.662,163.313,119.033,103.448,95.4574,0.011436,1.51816,19.0313,-318.529,0.715646,0.0,0.0
2145,536,147.89,164.872,110.683,103.868,95.3248,0.01206,1.55049,18.9883,-320.511,0.764036,0.0,0.0
2178,544.25,149.088,166.51,106.835,104.164,95.122,0.0121936,1.56117,18.9798,-322.503,0.808354,0.0,0.0
2211,552.5,151.113,168.624,108.448,104.298,93.9118,0.0134223,1.63353,18.8789,-324.655,0.933761,0.0,0.0
2244,560.75,154.106,172.409,115.66,104.354,93.8344,0.0139517,1.69164,18.8067,-326.837,0.945889,0.0,0.0
2277,569,156.562,174.77,113.481,104.349,94.1097,0.0138792,1.67547,18.824,-328.988,0.919408,0.0,0.0
2310,577.25,158.374,176.142,107.163,104.317,95.0051,0.0138302,1.68563,18.8236,-331.13,0.832367,0.0,0.0
2343,585.5,158.862,177.169,113.935,104.282,93.5353,0.0137395,1.64313,18.8773,-333.172,0.968205,0.0,0.0
2376,593.75,159.44,177.565,114.754,104.261,94.9224,0.0128648,1.5731,18.967,-335.264,0.835378,0.0,0.0
2409,602,159.02,176.959,102.842,104.278,94.5988,0.0123946,1.53599,19.0159,-337.206,0.867202,0.0,0.0
2442,610.25,157.385,175.215,109.304,104.284,93.8138,0.0118888,1.45563,19.1269,-339.118,0.94192,0.0,0.0
2475,618.5,156.244,173.077,131.177,104.312,97.1589,0.0109748,1.33805,19.2803,-340.909,0.632387,0.0,0.0
2508,626.75,149.927,166.426,132.51,104.336,94.8445,0.00938195,1.00489,19.7619,-342.19,0.849077,0.0,0.0
2541,635,137.813,152.688,152.635,104.368,98.3349,0.00598793,0.511433,20.4618,-342.821,0.530097,0.0,0.0
2574,643.25,122.502,134.987,160.549,104.369,100.042,0.00285887,0.20546,20.8376,-342.971,0.376955,0.0,0.0
2607,651.5,108.593,120.314,168.657,104.361,99.9939,0.00152292,0.0920912,20.9778,-343.011,0.380526,0.0,0.0
2640,659.75,97.1069,106.221,165.115,104.353,99.8109,0.00106328,0.0559592,21.0176,-343.041,0.396191,0.0,0.0
2673,668,87.6306,94.9509,166.037,104.27,99.7667,0.000775449,0.0496988,21.0191,-343.021,0.393037,0.0,0.0
2706,676.25,78.8563,84.372,160.896,104.162,99.6064,0.00097402,0.0477311,21.02,-343.061,0.398099,0.0,0.0
2739,684.5,72.5571,77.2396,165.431,104.009,99.1699,0.000887622,0.0470377,21.0201,-343.041,0.424111,0.0,0.0
2772,692.75,66.4935,70.5799,170.261,103.751,98.775,0.000768629,0.0463261,21.0209,-343.051,0.437494,0.0,0.0
2805,701,62.4708,64.742,167.787,103.472,98.5066,0.000751868,0.0458501,21.0225,-343.021,0.437795,0.0,0.0
2838,709.25,58.3623,60.4497,165.276,103.572,98.5355,0.000781568,0.0457283,21.0226,-343.041,0.443776,0.0,0.0
2871,717.5,54.8746,56.4485,167.337,103.708,98.7964,0.000462423,0.0457097,21.0212,-343.021,0.431901,0.0,0.0
2904,725.75,52.1888,52.4189,169.415,103.891,99.0679,0.000790349,0.0454984,21.0216,-343.031,0.423142,0.0,0.0
2937,734,49.7818,49.6031,167.868,104.029,99.1598,0.000608067,0.0450795,21.0221,-343.071,0.426697,0.0,0.0
2970,742.25,47.7933,46.4394,173.328,104.105,99.3284,0.00104763,0.0451125,21.0233,-343.031,0.418086,0.0,0.0
3003,750.5,45.9578,44.485,166.262,104.084,99.2399,0.000803427,0.0453275,21.0238,-342.991,0.424263,0.0,0.0
3036,758.75,44.4347,42.3173,166.797,103.926,99.0009,0.000586557,0.0453414,21.022,-343.061,0.432172,0.0,0.0
3069,767,42.8984,40.96875,169.023,103.65,98.8932,0.000744469,0.045288,21.0226,-343.081,0.418234,0.0,0.0
3102,775.25,41.3607,39.0833,165.934,103.323,98.6309,0.000514694,0.0454618,21.0232,-343.081,0.413716,0.0,0.0
3135,783.5,40.6352,37.6113,167.372,102.999,98.2929,,,,-343.041,0.416354,0.0,0.0
3153,788,39.7643,36.8707,167.307,102.859,98.1681,,,,-343.091,0.415551,0.0,0.0