Folder: fsri_materials_database/01_Data/Black_PMMA/HFM

Note: 01_Data/README.md
# Materials and Products Database
## 01_Data

Raw data generated from each apparatus are included here in plain-text format. The data is organized first by material, next by the short name of test apparatus used, and where applicable additional filtering by test settings.

### material.json

Each material directory contains a json file of the same name as the material. This file links the data stored in the repository as well as data and graphs produced by the accompanying scripts (__02_Scripts__) to the respective landing page for the material on the front-end website.

File: Black_PMMA_Density_Dry_R1.csv
,Black_PMMA_DRY_1
Sample Mass [g],407.1
Sample Volume [cm3],343.3
Sample Density [kg/m3],1186

File: Black_PMMA_Density_Dry_R2.csv
,Black_PMMA_DRY_2
Sample Mass [g],406.4
Sample Volume [cm3],345.5
Sample Density [kg/m3],1176

File: Black_PMMA_Density_Dry_R3.csv
,Black_PMMA_DRY_3
Sample Mass [g],409.9
Sample Volume [cm3],347.4
Sample Density [kg/m3],1180

File: Black_PMMA_Density_Wet_R1.csv
,Black_PMMA_WET_1
Sample Mass [g],408.0
Sample Volume [cm3],343.3
Sample Density [kg/m3],1188

File: Black_PMMA_Density_Wet_R2.csv
,Black_PMMA_WET_2
Sample Mass [g],406.7
Sample Volume [cm3],345.5
Sample Density [kg/m3],1177

File: Black_PMMA_Density_Wet_R3.csv
,Black_PMMA_WET_3
Sample Mass [g],410.2
Sample Volume [cm3],347.4
Sample Density [kg/m3],1181