Folder: fsri_materials_database/01_Data/Black_PMMA/MCC (part 2)

File: Black_PMMA_MCC_30K_min_220325_R3.txt
Sample ID:	C:\MCC\MCC Cal\Test\Black_PMMA_MCC_30K_min_220325_R3.txt
Sample Weight (mg):	4.75
Heating Rate (C/s):	0.5
Combustor Temp (C):	900
N2 Flow Rate (cc/min):	80
O2 Flow Rate (cc/min):	20
Calibration File:	C:\MCC\MCC Cal\Coeff1 JN10440_30_210304.txt.txt
T Correction Coefficients:	0	1.024463	0
Time Shift (s):	14
*
Time (s)	Temperature (C)	N2 flow rate (cc/min)	O2 flow rate (cc/min)	Flow Rate (cc/min)	Oxygen (%)	HRR (W/g)	Heating rate (C/s)
0.000	106.675	80.004	19.994	103.695	19.957	-0.205	0.009
8.000	106.688	80.006	19.993	103.705	19.949	0.305	0.039
16.000	106.739	80.006	19.995	103.758	19.935	1.263	-0.032
24.000	106.979	80.005	19.994	103.806	19.931	1.540	0.023
32.000	107.602	80.006	19.994	103.885	19.918	2.434	0.106
40.001	108.660	80.007	19.995	103.906	19.907	3.196	0.141
48.000	110.273	80.004	19.995	103.930	19.903	3.480	0.227
56.000	112.127	80.005	19.994	103.914	19.900	3.665	0.259
64.000	114.349	80.004	19.993	103.927	19.902	3.553	0.288
72.000	116.743	80.004	19.996	103.930	19.897	3.896	0.325
80.000	119.368	80.005	19.994	103.936	19.895	4.019	0.303
88.000	122.291	80.007	19.994	103.937	19.897	3.910	0.380
96.000	125.309	80.004	19.994	103.936	19.893	4.177	0.362
104.000	128.465	80.005	19.993	103.933	19.893	4.183	0.414
112.001	131.747	80.007	19.993	103.948	19.888	4.498	0.427
120.000	135.125	80.008	19.994	103.960	19.887	4.597	0.378
128.000	138.653	80.004	19.993	103.963	19.877	5.265	0.443
136.000	142.268	80.003	19.994	103.963	19.870	5.712	0.450
144.000	145.975	80.004	19.994	103.964	19.865	6.098	0.459
152.000	149.772	80.004	19.994	103.956	19.854	6.788	0.519
160.000	153.536	80.003	19.993	103.963	19.845	7.463	0.471
168.000	157.420	80.003	19.995	103.961	19.833	8.263	0.495
176.000	161.328	80.007	19.995	103.952	19.817	9.366	0.457
184.000	165.335	80.005	19.993	103.957	19.801	10.403	0.492
192.000	169.264	80.006	19.993	103.949	19.787	11.412	0.493
200.000	173.292	80.006	19.994	103.945	19.778	11.979	0.516
208.000	177.266	80.008	19.995	103.938	19.770	12.572	0.493
216.000	181.301	80.004	19.994	103.940	19.763	13.048	0.508
224.000	185.275	80.005	19.993	103.939	19.765	12.877	0.525
232.000	189.228	80.006	19.994	103.934	19.760	13.233	0.421
240.000	193.311	80.004	19.994	103.924	19.761	13.175	0.493
248.000	197.111	80.004	19.995	103.922	19.759	13.331	0.498
256.000	201.030	80.006	19.993	103.918	19.753	13.723	0.479
264.000	204.946	80.006	19.995	103.926	19.754	13.652	0.514
272.000	208.832	80.004	19.993	103.922	19.753	13.712	0.501
280.000	212.694	80.006	19.993	103.920	19.758	13.337	0.485
288.000	216.566	80.009	19.993	103.919	19.752	13.752	0.513
296.000	220.453	80.006	19.994	103.923	19.758	13.388	0.487
304.000	224.324	80.005	19.993	103.926	19.756	13.479	0.471
312.000	228.300	80.005	19.994	103.922	19.763	13.041	0.488
320.000	232.304	80.006	19.994	103.921	19.756	13.481	0.479
328.000	236.273	80.005	19.994	103.914	19.759	13.312	0.509
336.000	240.317	80.004	19.992	103.907	19.763	13.024	0.506
344.000	244.309	80.007	19.995	103.922	19.765	12.916	0.470
352.000	248.285	80.006	19.994	103.925	19.769	12.591	0.493
360.000	252.343	80.005	19.994	103.888	19.777	12.061	0.512
368.000	256.387	80.007	19.994	103.895	19.780	11.838	0.481
376.000	260.423	80.007	19.994	103.891	19.790	11.209	0.510
384.000	264.426	80.005	19.994	103.886	19.774	12.271	0.482
392.000	268.409	80.004	19.994	103.889	19.771	12.450	0.500
400.000	272.451	80.005	19.992	103.889	19.770	12.528	0.504
408.000	276.433	80.004	19.994	103.890	19.758	13.341	0.515
416.000	280.390	80.003	19.993	103.895	19.746	14.182	0.489
424.000	284.432	80.006	19.994	103.899	19.720	15.956	0.485
432.000	288.389	80.007	19.994	103.891	19.704	17.047	0.499
440.000	292.348	80.006	19.996	103.885	19.682	18.569	0.510
448.000	296.224	80.006	19.994	103.892	19.662	19.923	0.475
456.000	300.187	80.007	19.994	103.891	19.630	22.117	0.496
464.000	304.117	80.004	19.993	103.897	19.589	24.882	0.487
472.000	308.013	80.004	19.995	103.925	19.521	29.517	0.496
480.000	311.977	80.005	19.994	103.999	19.434	35.491	0.497
488.000	315.940	80.005	19.994	103.948	19.326	42.849	0.485
496.000	319.881	80.004	19.993	104.019	19.194	51.898	0.511
504.000	323.845	80.004	19.993	103.980	19.024	63.556	0.520
512.000	327.758	80.007	19.993	104.013	18.823	77.267	0.471
520.000	331.684	80.007	19.992	104.042	18.612	91.754	0.517
528.000	335.638	80.006	19.994	104.081	18.379	107.647	0.449
536.000	339.636	80.006	19.994	104.083	18.154	123.072	0.488
544.000	343.592	80.008	19.993	104.104	17.954	136.759	0.504
552.000	347.477	80.005	19.994	104.124	17.755	150.405	0.487
560.000	351.402	80.006	19.994	104.157	17.540	165.162	0.486
568.000	355.400	80.005	19.995	104.175	17.297	181.759	0.519
576.000	359.389	80.005	19.995	104.173	17.086	196.232	0.540
584.000	363.401	80.003	19.993	104.158	16.977	203.588	0.519
592.000	367.371	80.006	19.994	104.105	17.003	201.772	0.497
600.000	371.380	80.006	19.994	104.128	17.147	191.804	0.477
608.000	375.583	80.006	19.993	104.059	17.406	174.083	0.524
616.001	379.849	80.007	19.994	104.019	17.760	149.809	0.516
624.000	384.082	80.010	19.994	104.005	18.088	127.412	0.497
632.000	388.339	80.007	19.993	103.963	18.390	106.710	0.555
640.001	392.595	80.006	19.994	103.928	18.686	86.545	0.493
648.000	396.816	80.006	19.994	103.886	18.958	67.913	0.515
656.000	400.928	80.005	19.994	103.876	19.202	51.263	0.514
664.000	404.985	80.005	19.994	103.857	19.399	37.832	0.496
672.000	409.027	80.003	19.994	103.848	19.549	27.589	0.522
680.000	413.004	80.006	19.994	103.848	19.655	20.392	0.501
688.000	416.893	80.007	19.993	103.850	19.727	15.505	0.483
696.000	420.856	80.008	19.993	103.846	19.774	12.271	0.515
704.000	424.796	80.009	19.994	103.843	19.804	10.188	0.497
712.000	428.750	80.008	19.994	103.846	19.820	9.134	0.484
720.000	432.775	80.006	19.993	103.845	19.832	8.325	0.534
728.000	436.842	80.005	19.994	103.904	19.840	7.742	0.524
736.000	440.834	80.006	19.994	103.851	19.844	7.486	0.480
744.000	444.873	80.005	19.994	103.845	19.847	7.314	0.502
752.000	448.867	80.004	19.994	103.846	19.849	7.119	0.488
760.000	452.867	80.012	19.993	103.839	19.851	7.014	0.501
768.000	456.883	79.996	19.996	103.842	19.846	7.377	0.493
776.000	460.871	80.014	19.993	103.835	19.850	7.058	0.458
784.000	464.822	80.010	19.994	103.841	19.853	6.858	0.486
792.000	468.851	80.011	19.993	103.814	19.850	7.050	0.492
800.000	472.849	80.000	19.994	103.847	19.852	6.929	0.513
808.000	476.955	80.011	19.993	103.836	19.853	6.852	0.519
816.000	481.081	79.998	19.993	103.841	19.849	7.130	0.546
824.000	485.135	80.009	19.994	103.834	19.843	7.564	0.523
832.000	489.234	80.006	19.995	103.832	19.846	7.367	0.508
840.000	493.356	80.008	19.994	103.827	19.846	7.334	0.542
848.001	497.453	80.008	19.994	103.835	19.847	7.266	0.491
856.000	501.568	80.002	19.995	103.833	19.847	7.254	0.492
864.000	505.661	80.009	19.994	103.830	19.848	7.204	0.504
872.000	509.749	80.001	19.995	103.839	19.849	7.148	0.493
880.000	513.898	80.007	19.993	103.839	19.851	7.045	0.545
888.000	518.066	80.005	19.995	103.832	19.847	7.297	0.519
896.000	522.174	80.007	19.993	103.836	19.846	7.366	0.493
904.000	526.386	80.010	19.992	103.841	19.845	7.441	0.543
912.000	530.563	80.007	19.993	103.836	19.842	7.609	0.531
920.000	534.766	80.003	19.993	103.839	19.841	7.727	0.526
928.000	539.002	80.005	19.993	103.844	19.846	7.336	0.531
936.000	543.257	80.001	19.995	103.852	19.847	7.298	0.543
944.000	547.493	80.006	19.993	103.848	19.849	7.181	0.542
952.000	551.683	79.999	19.995	103.844	19.845	7.422	0.521
960.000	555.879	80.005	19.995	103.843	19.850	7.112	0.493
968.000	560.149	80.004	19.994	103.845	19.848	7.225	0.546
976.000	564.458	80.006	19.994	103.881	19.860	6.412	0.537
984.000	568.596	80.006	19.994	103.844	19.848	7.239	0.537
992.000	572.794	80.007	19.993	103.838	19.843	7.573	0.545
1000.000	576.878	80.005	19.994	103.842	19.841	7.731	0.487
1008.000	580.955	80.003	19.994	103.841	19.844	7.491	0.502
1016.000	585.081	80.007	19.992	103.844	19.837	7.969	0.524
1024.000	589.231	80.008	19.993	103.844	19.840	7.772	0.473
1032.000	593.264	80.006	19.994	103.810	19.841	7.685	0.505
1040.000	597.274	80.005	19.995	103.833	19.847	7.321	0.456
1048.000	601.244	80.007	19.994	103.841	19.835	8.077	0.521
1056.000	605.234	80.007	19.994	103.835	19.842	7.599	0.560
1064.000	609.192	80.006	19.994	103.839	19.844	7.516	0.421
1072.000	613.195	80.006	19.995	103.840	19.839	7.820	0.535
1080.000	617.246	80.005	19.993	103.846	19.843	7.594	0.507
1088.000	621.240	80.003	19.993	103.839	19.842	7.640	0.532
1096.000	625.318	80.005	19.994	103.841	19.842	7.629	0.493
1104.000	629.368	80.009	19.994	103.833	19.842	7.653	0.509
1112.000	633.401	80.007	19.993	103.844	19.839	7.812	0.510
1120.000	637.354	80.008	19.993	103.841	19.837	7.974	0.460
1128.000	641.276	80.008	19.994	103.845	19.838	7.908	0.480
1136.000	645.352	80.006	19.994	103.845	19.837	8.001	0.541
1144.000	649.547	80.006	19.995	103.842	19.837	7.995	0.541
1152.000	653.820	80.005	19.993	103.848	19.836	8.054	0.582
1160.000	658.105	80.006	19.995	103.850	19.832	8.321	0.511
1168.000	662.342	80.005	19.995	103.842	19.830	8.459	0.503
1176.000	666.603	80.004	19.994	103.848	19.834	8.158	0.541
1184.000	670.827	80.008	19.994	103.855	19.835	8.135	0.514
1192.000	675.103	80.007	19.994	103.845	19.835	8.097	0.523
1200.001	679.336	80.007	19.993	103.846	19.825	8.775	0.535
1208.000	683.450	80.007	19.993	103.847	19.832	8.291	0.531
1216.000	687.496	80.008	19.994	103.849	19.832	8.316	0.508
1224.000	691.620	80.004	19.992	103.853	19.833	8.253	0.480
1232.000	695.716	80.006	19.994	103.853	19.830	8.445	0.532
1240.000	699.867	80.006	19.995	103.852	19.827	8.657	0.536
1248.000	703.972	80.005	19.993	103.849	19.828	8.552	0.525
1256.000	707.963	80.006	19.996	103.848	19.826	8.735	0.485
1264.000	711.849	80.008	19.996	103.845	19.830	8.421	0.494
1272.001	715.734	80.008	19.994	103.849	19.825	8.758	0.519
1280.000	719.705	80.006	19.992	103.853	19.825	8.763	0.517
1288.000	723.817	80.005	19.992	103.850	19.828	8.573	0.530
1296.001	727.974	80.011	19.993	103.852	19.828	8.616	0.552
1304.000	732.117	80.008	19.992	103.849	19.822	8.990	0.558
1312.000	736.176	80.007	19.994	103.846	19.826	8.731	0.517
1320.000	740.198	80.007	19.996	103.830	19.827	8.617	0.496
1326.500	743.489	80.003	19.997	103.843	19.828	8.594	0.521