Folder: fsri_materials_database/01_Data/Pipe_Heat_Cable/STA/N2/10K_min

Note: 01_Data/README.md
# Materials and Products Database
## 01_Data

Raw data generated from each apparatus are included here in plain-text format. The data is organized first by material, next by the short name of test apparatus used, and where applicable additional filtering by test settings.

### material.json

Each material directory contains a json file of the same name as the material. This file links the data stored in the repository as well as data and graphs produced by the accompanying scripts (__02_Scripts__) to the respective landing page for the material on the front-end website.

File: Pipe_Heat_Cable_STA_N2_10KData_220727_R1.csv
##Temp./Â°C,Time/min,Mass loss(subtr.2)/mg,DSC(subtr.2)/(mW/mg),Sensit./(uV/mW)
49.435,10.00917,-0.02601,0.008376104,1.07025
52.035,11.22637,-0.02953012,0.10708,1.06954
54.635,11.62396,-0.02973635,0.15407,1.06881
57.235,11.95626,-0.03056279,0.18195,1.06808
59.835,12.26182,-0.03133331,0.20108,1.06735
62.435,12.55439,-0.0329799,0.21188,1.0666
65.035,12.84024,-0.03161905,0.21959,1.06585
67.635,13.12241,-0.03294627,0.22706,1.06509
70.235,13.40065,-0.03304,0.23096,1.06433
72.835,13.67513,-0.03448305,0.23605,1.06355
75.435,13.947,-0.03524425,0.23839,1.06277
78.035,14.21614,-0.0358994,0.23935,1.06199
80.635,14.4839,-0.03564511,0.24306,1.0612
83.235,14.74949,-0.03635693,0.24536,1.06039
85.835,15.01336,-0.0360412,0.24562,1.05959
88.435,15.27486,-0.03840817,0.24784,1.05877
91.035,15.53566,-0.03841957,0.25116,1.05795
93.635,15.7949,-0.03841996,0.25326,1.05712
96.235,16.05151,-0.0377855,0.26022,1.05628
98.835,16.30922,-0.03830114,0.26312,1.05544
101.435,16.56454,-0.04043462,0.26724,1.05459
104.035,16.81958,-0.04191941,0.27007,1.05373
106.635,17.0741,-0.0419283,0.2732,1.05287
109.235,17.32865,-0.04324448,0.27464,1.05199
111.835,17.582,-0.04127091,0.27955,1.05111
114.435,17.8352,-0.04367619,0.28462,1.05023
117.035,18.08843,-0.0438536,0.28714,1.04933
119.635,18.34156,-0.04455145,0.28651,1.04843
122.235,18.5949,-0.0459717,0.28475,1.04752
124.835,18.84768,-0.04631962,0.28654,1.04661
127.435,19.1,-0.04654082,0.28764,1.04568
130.035,19.35275,-0.04719672,0.29123,1.04475
132.635,19.60468,-0.04664189,0.29748,1.04381
135.235,19.85513,-0.04839764,0.29973,1.04287
137.835,20.1074,-0.0486673,0.30036,1.04191
140.435,20.358,-0.04996981,0.29877,1.04095
143.035,20.6084,-0.04994,0.30098,1.03998
145.635,20.85819,-0.0506,0.30327,1.03901
148.235,21.109,-0.05136771,0.30207,1.03803
150.835,21.35904,-0.05137059,0.30383,1.03703
153.435,21.60849,-0.05135953,0.30554,1.03604
156.035,21.85837,-0.05247496,0.30515,1.03503
158.635,22.10681,-0.05247,0.30822,1.03402
161.235,22.35559,-0.05366612,0.31111,1.033
163.835,22.60476,-0.05335552,0.31259,1.03197
166.435,22.85267,-0.0534552,0.31489,1.03093
169.035,23.1009,-0.0551096,0.3174,1.02989
171.635,23.3494,-0.05643,0.32054,1.02884
174.235,23.59814,-0.05774138,0.32116,1.02778
176.835,23.846,-0.05890943,0.32641,1.02671
179.435,24.0955,-0.06190347,0.33607,1.02564
182.035,24.3432,-0.06049,0.33964,1.02455
184.635,24.59125,-0.0618,0.33964,1.02346
187.235,24.8396,-0.06378002,0.33546,1.02237
189.835,25.0874,-0.06370688,0.33265,1.02126
192.435,25.33448,-0.0677283,0.32846,1.02015
195.035,25.58258,-0.06805969,0.32463,1.01903
197.635,25.83044,-0.07069003,0.32099,1.0179
200.235,26.07805,-0.07200426,0.31945,1.01676
202.835,26.32534,-0.07299394,0.31804,1.01562
205.435,26.57262,-0.07369258,0.31699,1.01446
208.035,26.8205,-0.07761032,0.32116,1.0133
210.635,27.06747,-0.07756978,0.32215,1.01214
213.235,27.31452,-0.080245,0.32242,1.01096
215.835,27.562,-0.08431005,0.32336,1.00978
218.435,27.8097,-0.08694608,0.32468,1.00858
221.035,28.05766,-0.09292161,0.32611,1.00738
223.635,28.30545,-0.09128226,0.32484,1.00618
226.235,28.5534,-0.0967168,0.32609,1.00496
228.835,28.80125,-0.10119,0.32721,1.00374
231.435,29.04915,-0.10539,0.32858,1.00251
234.035,29.2971,-0.11022,0.3312,1.00127
236.635,29.54492,-0.11714,0.33384,1.00002
239.235,29.79195,-0.12304,0.33545,0.99876
241.835,30.03943,-0.13087,0.34093,0.9975
244.435,30.2867,-0.13787,0.34829,0.99623
247.035,30.53387,-0.1458,0.34508,0.99495
249.635,30.78136,-0.15912,0.34798,0.99366
252.235,31.0285,-0.16708,0.35077,0.99236
254.835,31.27628,-0.18276,0.35074,0.99106
257.435,31.5237,-0.19511,0.35728,0.98975
260.035,31.77105,-0.21408,0.3617,0.98843
262.635,32.01862,-0.23388,0.36714,0.9871
265.235,32.26648,-0.25141,0.37441,0.98576
267.835,32.5143,-0.27587,0.38387,0.98442
270.435,32.762,-0.30238,0.3926,0.98307
273.035,33.01032,-0.33107,0.40207,0.9817
275.635,33.25847,-0.36476,0.4095,0.98034
278.235,33.50742,-0.40369,0.41861,0.97896
280.835,33.75634,-0.44039,0.42888,0.97757
283.435,34.00505,-0.48898,0.43877,0.97618
286.035,34.25444,-0.54242,0.46112,0.97478
288.635,34.50355,-0.60768,0.54269,0.97337
291.235,34.7539,-0.70603,0.93329,0.97195
293.835,35.006,-0.88708,1.54068,0.97052
296.435,35.2601,-1.16832,1.8628,0.96909
299.035,35.51312,-1.46485,1.77179,0.96764
301.635,35.76342,-1.71731,1.54629,0.96619
304.235,36.01178,-1.92274,1.22749,0.96473
306.835,36.25912,-2.07618,0.95147,0.96327
309.435,36.50605,-2.18884,0.75896,0.96179
312.035,36.75291,-2.27552,0.62388,0.96031
314.635,37.00027,-2.33585,0.51459,0.95881
317.235,37.2479,-2.38699,0.4315,0.95731
319.835,37.49582,-2.42357,0.36699,0.9558
322.435,37.74375,-2.45319,0.31447,0.95429
325.035,37.99239,-2.47613,0.27152,0.95276
327.635,38.2412,-2.49469,0.23648,0.95123
330.235,38.4906,-2.51207,0.20389,0.94968
332.835,38.74038,-2.52366,0.18123,0.94813
335.435,38.9903,-2.5362,0.15884,0.94658
338.035,39.24033,-2.54465,0.14488,0.94501
340.635,39.49025,-2.55267,0.1292,0.94343
343.235,39.74053,-2.55457,0.12005,0.94185
345.835,39.99103,-2.56336,0.10993,0.94026
348.435,40.2414,-2.56574,0.10579,0.93866
351.035,40.49238,-2.56982,0.09657224,0.93705
353.635,40.7429,-2.57244,0.0931626,0.93543
356.235,40.99454,-2.57563,0.09109727,0.93381
358.835,41.24603,-2.57879,0.08766783,0.93218
361.435,41.49767,-2.58166,0.08311577,0.93054
364.035,41.74954,-2.58428,0.07880709,0.92889
366.635,42.00193,-2.58613,0.07765608,0.92723
369.235,42.25363,-2.58694,0.07534215,0.92556
371.835,42.50658,-2.58951,0.07137393,0.92389
374.435,42.75857,-2.59151,0.06665688,0.92221
377.035,43.01042,-2.59417,0.06067324,0.92052
379.635,43.2635,-2.59615,0.05111299,0.91882
382.235,43.5149,-2.59879,0.04461884,0.91711
384.835,43.76758,-2.6024,0.03151746,0.9154
387.435,44.02047,-2.60406,0.01966609,0.91367
390.035,44.27305,-2.60732,0.01090821,0.91194
392.635,44.52595,-2.6114,0.00171126,0.9102
395.235,44.77887,-2.61404,-0.002094858,0.90846
397.835,45.03232,-2.61799,-0.004945731,0.9067
400.435,45.28546,-2.62201,-0.009307504,0.90494
403.035,45.53902,-2.62457,-0.00760374,0.90317
405.635,45.79237,-2.62831,-0.00876833,0.90139
408.235,46.04619,-2.63369,-0.00980718,0.8996
410.835,46.30008,-2.64013,-0.01130618,0.8978
413.435,46.5539,-2.64309,-0.01204707,0.896
416.035,46.80775,-2.64868,-0.01258621,0.89419
418.635,47.06175,-2.65601,-0.01759552,0.89237
421.235,47.316,-2.65993,-0.01941332,0.89054
423.835,47.57012,-2.66848,-0.0192685,0.8887
426.435,47.82455,-2.67747,-0.01877533,0.88686
429.035,48.07806,-2.68573,-0.01452353,0.88501
431.635,48.33269,-2.6959,-0.01164751,0.88315
434.235,48.58729,-2.70755,-0.005915134,0.88128
436.835,48.84206,-2.71831,0.00426661,0.87941
439.435,49.09717,-2.73244,0.01081978,0.87752
442.035,49.35127,-2.74783,0.0209546,0.87563
444.635,49.60595,-2.76381,0.02857598,0.87373
447.235,49.8603,-2.7802,0.04030297,0.87183
449.835,50.11538,-2.80271,0.05094259,0.86991
452.435,50.37088,-2.82272,0.06393535,0.86799
455.035,50.6267,-2.84434,0.07868904,0.86606
457.635,50.88215,-2.86568,0.08809232,0.86412
460.235,51.1372,-2.88947,0.10004,0.86218
462.835,51.39268,-2.91003,0.11081,0.86023
465.435,51.64829,-2.93387,0.11858,0.85827
468.035,51.90352,-2.95716,0.12422,0.8563
470.635,52.15933,-2.97677,0.13062,0.85432
473.235,52.41522,-2.99794,0.13585,0.85234
475.835,52.671,-3.01771,0.1394,0.85035
478.435,52.92661,-3.03611,0.14211,0.84835
481.035,53.1833,-3.05319,0.14238,0.84635
483.635,53.43959,-3.06967,0.14135,0.84434
486.235,53.69596,-3.08242,0.13653,0.84232
488.835,53.95256,-3.09469,0.13341,0.84029
491.435,54.20952,-3.10676,0.13014,0.83825
494.035,54.46612,-3.11727,0.1278,0.83621
496.635,54.7233,-3.12487,0.13157,0.83416
499.235,54.9803,-3.1328,0.13683,0.83211
501.835,55.2372,-3.13866,0.14103,0.83005
504.435,55.49428,-3.1443,0.14622,0.82798
507.035,55.75196,-3.1499,0.15197,0.8259
509.635,56.0091,-3.15407,0.15767,0.82381
512.235,56.26651,-3.15808,0.1615,0.82172
514.835,56.5243,-3.16208,0.16444,0.81962
517.435,56.782,-3.16544,0.16592,0.81752
520.035,57.03836,-3.16877,0.16545,0.81541
522.635,57.2956,-3.17052,0.16933,0.81329
525.235,57.5536,-3.17275,0.17125,0.81116
527.835,57.8115,-3.17681,0.17372,0.80903
530.435,58.0696,-3.1781,0.17753,0.80689
533.035,58.3283,-3.18008,0.18142,0.80474
535.635,58.58653,-3.18272,0.18809,0.80259
538.235,58.84506,-3.18499,0.19266,0.80043
540.835,59.10416,-3.18626,0.19686,0.79827
543.435,59.3625,-3.18869,0.19893,0.79609
546.035,59.62155,-3.1915,0.20233,0.79392
548.635,59.8804,-3.19299,0.20558,0.79173
551.235,60.1391,-3.19414,0.20921,0.78954
553.835,60.3981,-3.19442,0.21342,0.78734
556.435,60.65726,-3.19897,0.21614,0.78514
559.035,60.9164,-3.20095,0.21843,0.78293
561.635,61.1748,-3.20312,0.22156,0.78071
564.235,61.43365,-3.20631,0.22303,0.77849
566.835,61.6924,-3.20784,0.23001,0.77626
569.435,61.9512,-3.21037,0.23499,0.77403
572.035,62.2099,-3.21247,0.24026,0.77178
574.635,62.4695,-3.21346,0.24487,0.76954
577.235,62.72854,-3.21676,0.25188,0.76729
579.835,62.988,-3.21776,0.25513,0.76503
582.435,63.24819,-3.22172,0.26209,0.76276
585.035,63.5079,-3.223,0.26595,0.76049
587.635,63.7681,-3.22444,0.26746,0.75822
590.235,64.02779,-3.22585,0.27319,0.75594
592.835,64.28842,-3.22744,0.28145,0.75365
595.435,64.5485,-3.22782,0.28598,0.75136
598.035,64.80836,-3.23016,0.28862,0.74906
600.635,65.0689,-3.23158,0.29217,0.74676
603.235,65.3297,-3.23411,0.29512,0.74445
605.835,65.59018,-3.23508,0.29714,0.74214
608.435,65.8506,-3.23739,0.30004,0.73982
611.035,66.11102,-3.24,0.29897,0.73749
613.635,66.37116,-3.23873,0.29936,0.73516
616.235,66.63145,-3.24146,0.29474,0.73283
618.835,66.89185,-3.24322,0.2847,0.73049
621.435,67.15159,-3.2442,0.27747,0.72815
624.035,67.41152,-3.24419,0.26811,0.7258
626.635,67.67138,-3.24694,0.24997,0.72345
629.235,67.9311,-3.24694,0.24029,0.72109
631.835,68.19264,-3.24588,0.23142,0.71872
634.435,68.45344,-3.24836,0.22011,0.71636
637.035,68.71415,-3.24947,0.21915,0.71398
639.635,68.97504,-3.2508,0.20945,0.71161
642.235,69.23626,-3.25145,0.20665,0.70923
644.835,69.4974,-3.2499,0.20457,0.70684
647.435,69.7585,-3.24925,0.19935,0.70445
649.735,69.98956,-3.2529,0.20315,0.70233

File: Pipe_Heat_Cable_STA_N2_10KData_220728_R2.csv
##Temp./Â°C,Time/min,Mass loss(subtr.2)/mg,DSC(subtr.2)/(mW/mg),Sensit./(uV/mW)
49.56,10.00917,0.00977,-0.009375379,1.07022
51.76,11.15058,0.01257948,0.06662193,1.06961
53.96,11.5139,0.01316982,0.11074,1.069
56.16,11.80931,0.01339657,0.13451,1.06838
58.36,12.0779,0.01270716,0.15537,1.06776
60.56,12.33232,0.01424894,0.16688,1.06714
62.76,12.57887,0.01294341,0.1752,1.06651
64.96,12.82048,0.01327331,0.1829,1.06587
67.16,13.05894,0.01297879,0.18784,1.06523
69.36,13.295,0.01460611,0.19341,1.06458
71.56,13.5285,0.01329456,0.19354,1.06393
73.76,13.76009,0.01320259,0.19422,1.06328
75.96,13.9899,0.01317636,0.19436,1.06262
78.16,14.2187,0.0118362,0.19774,1.06195
80.36,14.44525,0.01435033,0.19873,1.06128
82.56,14.6712,0.01317454,0.19931,1.0606
84.76,14.8952,0.0131701,0.20191,1.05992
86.96,15.1164,0.01427395,0.20355,1.05923
89.16,15.33745,0.0131755,0.20673,1.05854
91.36,15.55662,0.01317168,0.20846,1.05785
93.56,15.7767,0.01444273,0.21058,1.05714
95.76,15.99479,0.01398681,0.21514,1.05644
97.96,16.21144,0.01317012,0.21725,1.05573
100.16,16.42778,0.01362391,0.21761,1.05501
102.36,16.644,0.01308227,0.22305,1.05429
104.56,16.85957,0.01609567,0.22601,1.05356
106.76,17.07481,0.01431508,0.22698,1.05283
108.96,17.2896,0.01416,0.22796,1.05209
111.16,17.50421,0.0146215,0.23186,1.05134
113.36,17.7192,0.01415927,0.2357,1.0506
115.56,17.93365,0.01317,0.23781,1.04984
117.76,18.14836,0.01448944,0.23996,1.04908
119.96,18.362,0.01355378,0.2387,1.04832
122.16,18.57548,0.01513081,0.23837,1.04755
124.36,18.7899,0.01377512,0.23944,1.04677
126.56,19.00333,0.01293313,0.24118,1.04599
128.76,19.21641,0.01421364,0.24105,1.04521
130.96,19.42959,0.01217954,0.24308,1.04442
133.16,19.64215,0.01305944,0.24454,1.04362
135.36,19.85407,0.01250996,0.24752,1.04282
137.56,20.06653,0.01387774,0.2482,1.04201
139.76,20.2791,0.0128395,0.25092,1.0412
141.96,20.49142,0.01284086,0.25145,1.04039
144.16,20.703,0.01250915,0.25123,1.03956
146.36,20.91449,0.01251002,0.25284,1.03874
148.56,21.12565,0.0125204,0.25404,1.0379
150.76,21.33659,0.01219121,0.25595,1.03706
152.96,21.54761,0.01152993,0.25711,1.03622
155.16,21.75845,0.0118769,0.25829,1.03537
157.36,21.96922,0.01185977,0.25913,1.03452
159.56,22.1794,0.01152763,0.26264,1.03365
161.76,22.3904,0.01021027,0.26221,1.03279
163.96,22.60161,0.009870325,0.2627,1.03192
166.16,22.812,0.01019935,0.2657,1.03104
168.36,23.02236,0.009852755,0.26624,1.03016
170.56,23.23225,0.007849673,0.26903,1.02927
172.76,23.4427,0.007925656,0.27317,1.02838
174.96,23.65322,0.008230796,0.27588,1.02748
177.16,23.8632,0.007571046,0.28233,1.02658
179.36,24.0735,0.006909928,0.28569,1.02567
181.56,24.28371,0.00565369,0.28779,1.02475
183.76,24.49302,0.004610062,0.29011,1.02383
185.96,24.70276,0.00362,0.28738,1.0229
188.16,24.9123,0.00362,0.2861,1.02197
190.36,25.12135,0.002299983,0.28283,1.02104
192.56,25.33105,0.002297523,0.27859,1.02009
194.76,25.54106,0.00164568,0.27609,1.01914
196.96,25.7499,0.001640926,0.27253,1.01819
199.16,25.95908,-0.0003317236,0.27023,1.01723
201.36,26.16873,-0.00132,0.26901,1.01627
203.56,26.37772,-0.003840265,0.26778,1.0153
205.76,26.5872,-0.002133749,0.2652,1.01432
207.96,26.7971,-0.003949683,0.26396,1.01334
210.16,27.00637,-0.00527,0.26557,1.01235
212.36,27.2165,-0.0062389,0.26518,1.01136
214.56,27.42608,-0.008240001,0.26618,1.01036
216.76,27.6352,-0.009546293,0.2663,1.00935
218.96,27.8442,-0.01218984,0.2656,1.00834
221.16,28.0538,-0.01353342,0.26683,1.00733
223.36,28.26319,-0.01745052,0.26734,1.0063
225.56,28.47253,-0.02009697,0.27023,1.00528
227.76,28.68232,-0.02142602,0.27007,1.00424
229.96,28.89122,-0.02517819,0.27175,1.00321
232.16,29.10145,-0.02795652,0.27247,1.00216
234.36,29.31118,-0.03196307,0.27333,1.00111
236.56,29.5208,-0.03866269,0.27661,1.00005
238.76,29.7303,-0.04259949,0.27626,0.99899
240.96,29.93992,-0.04705679,0.27974,0.99793
243.16,30.1492,-0.05632273,0.28829,0.99685
245.36,30.35885,-0.0606003,0.28443,0.99577
247.56,30.5681,-0.06900203,0.28409,0.99469
249.76,30.7771,-0.07908201,0.28499,0.9936
251.96,30.9867,-0.08832803,0.29058,0.9925
254.16,31.19574,-0.09898767,0.29214,0.9914
256.36,31.40526,-0.11003,0.29264,0.99029
258.56,31.61437,-0.12149,0.2954,0.98918
260.76,31.82328,-0.13567,0.30008,0.98806
262.96,32.0329,-0.15011,0.30481,0.98693
265.16,32.24261,-0.16881,0.31174,0.9858
267.36,32.4526,-0.19079,0.3184,0.98466
269.56,32.66263,-0.21062,0.32791,0.98352
271.76,32.87238,-0.2374,0.33843,0.98237
273.96,33.08227,-0.26535,0.34952,0.98122
276.16,33.29197,-0.29961,0.36794,0.98006
278.36,33.5018,-0.33753,0.39497,0.97889
280.56,33.7123,-0.38686,0.43724,0.97772
282.76,33.92248,-0.44255,0.51083,0.97654
284.96,34.13296,-0.51415,0.64362,0.97536
287.16,34.34476,-0.61172,0.91364,0.97417
289.36,34.55826,-0.75088,1.29763,0.97297
291.56,34.77219,-0.93929,1.57014,0.97177
293.76,34.9863,-1.14936,1.62154,0.97056
295.96,35.19903,-1.35602,1.51978,0.96935
298.16,35.4105,-1.54501,1.28289,0.96813
300.36,35.62123,-1.70881,1.04064,0.96691
302.56,35.83079,-1.84231,0.86436,0.96567
304.76,36.0398,-1.9516,0.72804,0.96444
306.96,36.25,-2.03993,0.6006,0.96319
309.16,36.45904,-2.11142,0.5157,0.96195
311.36,36.6677,-2.16848,0.43536,0.96069
313.56,36.87729,-2.21408,0.36383,0.95943
315.76,37.08683,-2.25117,0.29702,0.95816
317.96,37.2968,-2.28282,0.22963,0.95689
320.16,37.50683,-2.30765,0.15452,0.95561
322.36,37.7164,-2.32988,0.07760334,0.95433
324.56,37.92708,-2.34814,0.01414091,0.95304
326.76,38.13725,-2.36416,-0.03762562,0.95174
328.96,38.3475,-2.37667,-0.08013041,0.95044
331.16,38.5584,-2.38866,-0.11613,0.94913
333.36,38.76896,-2.3982,-0.1474,0.94782
335.56,38.97987,-2.40545,-0.16982,0.9465
337.76,39.19147,-2.41223,-0.18384,0.94518
339.96,39.40302,-2.41773,-0.19579,0.94384
342.16,39.61421,-2.42265,-0.21208,0.94251
344.36,39.8273,-2.42709,-0.21997,0.94116
346.56,40.03905,-2.43104,-0.22179,0.93981
348.76,40.2519,-2.435,-0.22275,0.93846
350.96,40.46413,-2.43764,-0.22334,0.9371
353.16,40.67767,-2.43995,-0.22167,0.93573
355.36,40.89063,-2.44203,-0.22376,0.93436
357.56,41.1036,-2.44533,-0.2214,0.93298
359.76,41.3166,-2.44809,-0.21968,0.93159
361.96,41.52965,-2.45015,-0.21576,0.9302
364.16,41.74225,-2.45015,-0.2147,0.92881
366.36,41.95563,-2.45274,-0.21358,0.92741
368.56,42.16875,-2.45322,-0.21242,0.926
370.76,42.3825,-2.45585,-0.21292,0.92458
372.96,42.5959,-2.45717,-0.21714,0.92316
375.16,42.80883,-2.45981,-0.21426,0.92174
377.36,43.02238,-2.46213,-0.21698,0.92031
379.56,43.23563,-2.46376,-0.22025,0.91887
381.76,43.4491,-2.46376,-0.21956,0.91742
383.96,43.66297,-2.46639,-0.21708,0.91598
386.16,43.8769,-2.46769,-0.21223,0.91452
388.36,44.09028,-2.47287,-0.21162,0.91306
390.56,44.30458,-2.47123,-0.21122,0.91159
392.76,44.51877,-2.47386,-0.20635,0.91012
394.96,44.73308,-2.47551,-0.20232,0.90864
397.16,44.94709,-2.47938,-0.20065,0.90716
399.36,45.1622,-2.48214,-0.19351,0.90567
401.56,45.37679,-2.48577,-0.18584,0.90417
403.76,45.59125,-2.48704,-0.17191,0.90267
405.96,45.80588,-2.49,-0.15779,0.90116
408.16,46.02053,-2.49264,-0.14276,0.89965
410.36,46.235,-2.49785,-0.12811,0.89813
412.56,46.4499,-2.50054,-0.1188,0.89661
414.76,46.66485,-2.50579,-0.11492,0.89508
416.96,46.87978,-2.50976,-0.11734,0.89354
419.16,47.09491,-2.51366,-0.11793,0.892
421.36,47.30953,-2.52029,-0.12179,0.89045
423.56,47.52503,-2.52344,-0.12503,0.8889
425.76,47.74074,-2.5316,-0.125,0.88734
427.96,47.95593,-2.53889,-0.12223,0.88577
430.16,48.171,-2.54578,-0.12249,0.8842
432.36,48.38681,-2.55456,-0.1211,0.88263
434.56,48.6023,-2.56246,-0.12187,0.88105
436.76,48.81787,-2.57209,-0.11875,0.87946
438.96,49.03362,-2.58304,-0.11527,0.87787
441.16,49.24872,-2.59572,-0.11171,0.87627
443.36,49.4643,-2.60868,-0.11057,0.87467
445.56,49.67941,-2.62131,-0.10236,0.87306
447.76,49.89563,-2.63736,-0.09552034,0.87144
449.96,50.1106,-2.65338,-0.08878237,0.86982
452.16,50.32696,-2.67032,-0.07714688,0.86819
454.36,50.54312,-2.68807,-0.06769913,0.86656
456.56,50.75927,-2.70727,-0.06325191,0.86493
458.76,50.97525,-2.72405,-0.05467988,0.86328
460.96,51.19079,-2.74171,-0.04768077,0.86164
463.16,51.40695,-2.76,-0.04180033,0.85998
465.36,51.623,-2.77853,-0.03780717,0.85832
467.56,51.83863,-2.79691,-0.036251,0.85666
469.76,52.05549,-2.8137,-0.0338225,0.85499
471.96,52.27263,-2.83134,-0.03394652,0.85331
474.16,52.48985,-2.84599,-0.03261621,0.85163
476.36,52.7068,-2.8629,-0.03306196,0.84995
478.56,52.92349,-2.87818,-0.03425768,0.84826
480.76,53.1404,-2.89196,-0.03422527,0.84656
482.96,53.3577,-2.906,-0.03858704,0.84486
485.16,53.57444,-2.9172,-0.04082209,0.84315
487.36,53.7909,-2.92892,-0.0431729,0.84144
489.56,54.00824,-2.93804,-0.04582849,0.83972
491.76,54.2256,-2.94856,-0.05258668,0.838
493.96,54.44314,-2.95702,-0.05616505,0.83627
496.16,54.66089,-2.96365,-0.06084084,0.83454
498.36,54.87851,-2.97019,-0.06393479,0.8328
500.56,55.096,-2.97705,-0.06973059,0.83106
502.76,55.3137,-2.9823,-0.07297694,0.82931
504.96,55.53167,-2.98501,-0.07733999,0.82756
507.16,55.74952,-2.99028,-0.08164051,0.8258
509.36,55.9675,-2.99357,-0.08201836,0.82403
511.56,56.1854,-2.99759,-0.08610654,0.82227
513.76,56.40299,-3.00031,-0.08920678,0.82049
515.96,56.62061,-3.00422,-0.09310626,0.81871
518.16,56.8387,-3.00685,-0.09485789,0.81693
520.36,57.05666,-3.00851,-0.0975964,0.81514
522.56,57.27485,-3.01279,-0.10028,0.81335
524.76,57.493,-3.01411,-0.10099,0.81155
526.96,57.71062,-3.01677,-0.09844704,0.80975
529.16,57.9292,-3.01806,-0.09489818,0.80794
531.36,58.14775,-3.02069,-0.09400255,0.80613
533.56,58.36615,-3.02333,-0.09181016,0.80431
535.76,58.58515,-3.02596,-0.09235378,0.80249
537.96,58.804,-3.02794,-0.09055434,0.80066
540.16,59.02293,-3.02826,-0.09054649,0.79883
542.36,59.24253,-3.03123,-0.08884266,0.79699
544.56,59.46128,-3.03255,-0.09103496,0.79515
546.76,59.6797,-3.03386,-0.09047436,0.79331
548.96,59.8979,-3.03542,-0.0955359,0.79146
549.96,59.99765,-3.03651,-0.09562925,0.79061