Folder: fsri_materials_database/01_Data/Pipe_Heat_Cable/STA/N2/10K_min (part 2)

File: Pipe_Heat_Cable_STA_N2_10KData_220728_R3.csv
##Temp./Â°C,Time/min,Mass loss(subtr.2)/mg,DSC(subtr.2)/(mW/mg),Sensit./(uV/mW)
49.461,10.01,0.02449,0.0005293566,1.07024
51.661,11.15428,0.0269221,0.09327621,1.06964
53.861,11.51468,0.02830533,0.13945,1.06903
56.061,11.8096,0.02940821,0.1714,1.06841
58.261,12.07723,0.02945403,0.19161,1.06779
60.461,12.3326,0.03248577,0.20815,1.06717
62.661,12.57898,0.03098298,0.21857,1.06654
64.861,12.82105,0.03096043,0.22646,1.0659
67.061,13.05937,0.0309577,0.2315,1.06526
69.261,13.2957,0.02977188,0.23874,1.06461
71.461,13.5293,0.03223459,0.23927,1.06396
73.661,13.76051,0.0321698,0.24676,1.06331
75.861,13.99165,0.0321728,0.24546,1.06265
78.061,14.21982,0.03437,0.24682,1.06198
80.261,14.4466,0.03379813,0.25078,1.06131
82.461,14.6716,0.03502874,0.2537,1.06063
84.661,14.89465,0.03606497,0.2552,1.05995
86.861,15.1174,0.03497227,0.25871,1.05927
89.061,15.33857,0.03633996,0.25868,1.05857
91.261,15.55778,0.03631764,0.26283,1.05788
93.461,15.7765,0.03622981,0.26411,1.05718
95.661,15.99438,0.03496149,0.27029,1.05647
97.861,16.21124,0.03622194,0.27398,1.05576
100.061,16.4281,0.03838494,0.27596,1.05504
102.261,16.64345,0.03741442,0.28156,1.05432
104.461,16.85949,0.0377644,0.28481,1.05359
106.661,17.0744,0.0374332,0.28691,1.05286
108.861,17.29,0.03876,0.28844,1.05212
111.061,17.50546,0.03874772,0.29233,1.05138
113.261,17.72038,0.03876,0.29391,1.05063
115.461,17.93499,0.03591864,0.29778,1.04988
117.661,18.14968,0.03964002,0.29898,1.04912
119.861,18.3637,0.04100004,0.30174,1.04835
122.061,18.5775,0.04226995,0.29915,1.04758
124.261,18.7911,0.0422656,0.29947,1.04681
126.461,19.00477,0.04094952,0.30225,1.04603
128.661,19.21677,0.04227474,0.30199,1.04524
130.861,19.4299,0.04226995,0.3063,1.04445
133.061,19.64242,0.0402839,0.30623,1.04366
135.261,19.85577,0.04095004,0.30903,1.04286
137.461,20.06814,0.04226938,0.31183,1.04205
139.661,20.2805,0.04225957,0.31174,1.04124
141.861,20.4928,0.04193999,0.31291,1.04042
144.061,20.70508,0.04094954,0.31089,1.0396
146.261,20.91611,0.04097019,0.31569,1.03877
148.461,21.12698,0.04062982,0.3173,1.03794
150.661,21.33875,0.04193855,0.31993,1.0371
152.861,21.5495,0.04165036,0.31929,1.03626
155.061,21.76049,0.0413214,0.32323,1.03541
157.261,21.97115,0.04066236,0.32278,1.03455
159.461,22.18159,0.04109875,0.32602,1.03369
161.661,22.39191,0.04062069,0.32601,1.03283
163.861,22.60276,0.04063531,0.32724,1.03196
166.061,22.81336,0.04029998,0.33033,1.03108
168.261,23.02405,0.04029053,0.33169,1.0302
170.461,23.2343,0.04094973,0.33099,1.02931
172.661,23.445,0.03996001,0.33447,1.02842
174.861,23.6558,0.04127943,0.33687,1.02752
177.061,23.86607,0.04227,0.34047,1.02662
179.261,24.07609,0.04097015,0.34548,1.02571
181.461,24.2864,0.04026395,0.34701,1.02479
183.661,24.49655,0.03897,0.35125,1.02387
185.861,24.70658,0.03931,0.35066,1.02295
188.061,24.91604,0.03898,0.35095,1.02202
190.261,25.1262,0.03734064,0.3493,1.02108
192.461,25.33526,0.03733,0.34504,1.02014
194.661,25.5443,0.03601185,0.34492,1.01919
196.861,25.75376,0.03601,0.3401,1.01823
199.061,25.96302,0.03601,0.33629,1.01727
201.261,26.17146,0.03470001,0.3344,1.01631
203.461,26.38177,0.03712881,0.3337,1.01534
205.661,26.5909,0.03568948,0.33406,1.01436
207.861,26.79955,0.03304835,0.33174,1.01338
210.061,27.00927,0.03173525,0.33039,1.01239
212.261,27.21852,0.03041039,0.33168,1.0114
214.461,27.42825,0.03041003,0.33125,1.0104
216.661,27.6378,0.0297494,0.33191,1.0094
218.861,27.8475,0.02862432,0.33358,1.00839
221.061,28.05702,0.02710882,0.3353,1.00737
223.261,28.26667,0.0268402,0.33617,1.00635
225.461,28.47658,0.02415987,0.33446,1.00532
227.661,28.686,0.02349001,0.33763,1.00429
229.861,28.89524,0.01955003,0.3374,1.00325
232.061,29.1052,0.01691,0.3379,1.00221
234.261,29.3141,0.01554704,0.33916,1.00116
236.461,29.5231,0.0103191,0.33924,1.0001
238.661,29.73256,0.007689077,0.33898,0.99904
240.861,29.94152,0.006041213,0.34342,0.99797
243.061,30.1508,0.001312987,0.35018,0.9969
245.261,30.3602,-0.00262785,0.35236,0.99582
247.461,30.5693,-0.007248866,0.34814,0.99474
249.661,30.77879,-0.0150935,0.34851,0.99365
251.861,30.98847,-0.0198259,0.35198,0.99255
254.061,31.19802,-0.02729008,0.35427,0.99145
256.261,31.4072,-0.03578993,0.3547,0.99034
258.461,31.61641,-0.04628638,0.35614,0.98923
260.661,31.8266,-0.05646931,0.35895,0.98811
262.861,32.03586,-0.06740948,0.3632,0.98698
265.061,32.24488,-0.08315306,0.37218,0.98585
267.261,32.4538,-0.09542428,0.38214,0.98472
269.461,32.66381,-0.11668,0.39804,0.98357
271.661,32.8739,-0.13712,0.41287,0.98242
273.861,33.08345,-0.16463,0.43265,0.98127
276.061,33.29353,-0.19265,0.45631,0.98011
278.261,33.50378,-0.23002,0.48205,0.97894
280.461,33.71414,-0.27216,0.52362,0.97777
282.661,33.92385,-0.31992,0.58025,0.97659
284.861,34.13348,-0.37915,0.66493,0.97541
287.061,34.34525,-0.45721,0.80662,0.97422
289.261,34.55699,-0.55436,1.0571,0.97303
291.461,34.76887,-0.68939,1.33212,0.97182
293.661,34.98386,-0.86863,1.55062,0.97062
295.861,35.19768,-1.06515,1.61023,0.9694
298.061,35.4106,-1.26535,1.53729,0.96819
300.261,35.62211,-1.45718,1.40005,0.96696
302.461,35.8331,-1.62255,1.21181,0.96573
304.661,36.0428,-1.76806,1.048,0.96449
306.861,36.25238,-1.89401,0.89051,0.96325
309.061,36.461,-1.99784,0.76365,0.962
311.261,36.6708,-2.08095,0.66991,0.96075
313.461,36.87965,-2.14857,0.58506,0.95949
315.661,37.08874,-2.20287,0.51181,0.95822
317.861,37.29808,-2.2444,0.44627,0.95695
320.061,37.50789,-2.28127,0.38999,0.95567
322.261,37.71771,-2.3114,0.34037,0.95439
324.461,37.9283,-2.33551,0.29947,0.9531
326.661,38.13898,-2.3577,0.26274,0.9518
328.861,38.3496,-2.37284,0.23076,0.9505
331.061,38.56,-2.388,0.20452,0.94919
333.261,38.77178,-2.40062,0.1823,0.94788
335.461,38.98307,-2.41178,0.16125,0.94656
337.661,39.19478,-2.41847,0.14336,0.94524
339.861,39.406,-2.4268,0.12903,0.9439
342.061,39.61732,-2.43444,0.12009,0.94257
344.261,39.82942,-2.43793,0.11082,0.94122
346.461,40.04142,-2.44322,0.1023,0.93987
348.661,40.25343,-2.44882,0.09645672,0.93852
350.861,40.46605,-2.4513,0.09163554,0.93716
353.061,40.67858,-2.4553,0.08536399,0.93579
355.261,40.891,-2.45662,0.08378851,0.93442
357.461,41.10406,-2.45925,0.07840488,0.93304
359.661,41.3172,-2.46288,0.07627789,0.93166
361.861,41.53017,-2.46419,0.07572193,0.93027
364.061,41.74386,-2.46683,0.07108163,0.92887
366.261,41.9572,-2.46814,0.07152924,0.92747
368.461,42.1708,-2.4721,0.06626317,0.92606
370.661,42.38452,-2.47376,0.06480134,0.92465
372.861,42.59727,-2.47605,0.06357041,0.92323
375.061,42.81024,-2.47704,0.06144869,0.9218
377.261,43.02435,-2.47869,0.05919319,0.92037
379.461,43.23831,-2.47887,0.05867473,0.91893
381.661,43.45185,-2.48099,0.05600289,0.91749
383.861,43.6652,-2.48389,0.05455756,0.91604
386.061,43.87793,-2.48527,0.05174789,0.91459
388.261,44.09183,-2.48791,0.05070332,0.91313
390.461,44.30513,-2.4879,0.05086496,0.91166
392.661,44.51938,-2.49054,0.04694861,0.91019
394.861,44.7333,-2.49316,0.04577132,0.90871
397.061,44.94795,-2.49837,0.04362806,0.90722
399.261,45.1623,-2.5024,0.04177906,0.90574
401.461,45.37697,-2.50437,0.03975627,0.90424
403.661,45.59155,-2.50702,0.03838595,0.90274
405.861,45.8063,-2.508,0.03587443,0.90123
408.061,46.02075,-2.51228,0.0329406,0.89972
410.261,46.23607,-2.51615,0.02917647,0.8982
412.461,46.45064,-2.52018,0.02822017,0.89668
414.661,46.66514,-2.52275,0.02657202,0.89515
416.861,46.87997,-2.52875,0.02070685,0.89361
419.061,47.09427,-2.53476,0.01931681,0.89207
421.261,47.30962,-2.54004,0.01844343,0.89052
423.461,47.52492,-2.54589,0.0155499,0.88897
425.661,47.74009,-2.55225,0.01489964,0.88741
427.861,47.95527,-2.55829,0.01288878,0.88585
430.061,48.1706,-2.56533,0.01430901,0.88428
432.261,48.38565,-2.5747,0.01381163,0.8827
434.461,48.60051,-2.58562,0.01825739,0.88112
436.661,48.81642,-2.59631,0.01962631,0.87953
438.861,49.03192,-2.606,0.02343917,0.87794
441.061,49.24759,-2.61804,0.0288936,0.87634
443.261,49.46337,-2.63042,0.03527262,0.87474
445.461,49.679,-2.64656,0.03837449,0.87313
447.661,49.89522,-2.66046,0.0493181,0.87151
449.861,50.11145,-2.67716,0.05556659,0.86989
452.061,50.32743,-2.69174,0.06612203,0.86827
454.261,50.5435,-2.71005,0.07339931,0.86664
456.461,50.75945,-2.72927,0.08424641,0.865
458.661,50.97571,-2.74682,0.09234003,0.86336
460.861,51.1928,-2.76724,0.10063,0.86171
463.061,51.40906,-2.78488,0.10589,0.86006
465.261,51.6256,-2.80265,0.11108,0.8584
467.461,51.84238,-2.81998,0.11392,0.85673
469.661,52.05871,-2.83941,0.1202,0.85506
471.861,52.27539,-2.8575,0.12278,0.85339
474.061,52.49256,-2.87311,0.12277,0.85171
476.261,52.7101,-2.8883,0.12487,0.85002
478.461,52.9267,-2.90507,0.12232,0.84833
480.661,53.1441,-2.92095,0.11811,0.84664
482.861,53.3609,-2.93479,0.1163,0.84494
485.061,53.5776,-2.94702,0.11276,0.84323
487.261,53.7951,-2.95848,0.11105,0.84152
489.461,54.01158,-2.97146,0.10769,0.8398
491.661,54.229,-2.98037,0.10196,0.83808
493.861,54.4459,-2.98927,0.09736255,0.83635
496.061,54.6633,-2.99823,0.09270899,0.83462
498.261,54.88084,-3.00367,0.08939131,0.83288
500.461,55.09771,-3.0096,0.08602955,0.83114
502.661,55.31495,-3.01595,0.08389412,0.82939
504.861,55.5328,-3.0209,0.07737085,0.82764
507.061,55.7506,-3.02354,0.07636951,0.82588
509.261,55.96884,-3.02817,0.07143005,0.82411
511.461,56.18691,-3.03295,0.06724568,0.82235
513.661,56.4048,-3.03616,0.06516588,0.82057
515.861,56.623,-3.03971,0.06374935,0.81879
518.061,56.8413,-3.04277,0.06076636,0.81701
520.261,57.0602,-3.04603,0.0528227,0.81522
522.461,57.27835,-3.04614,0.04904637,0.81343
524.661,57.49632,-3.05131,0.05106585,0.81163
526.861,57.7142,-3.05132,0.04694959,0.80983
529.061,57.9321,-3.055,0.04809022,0.80802
531.261,58.15055,-3.05794,0.04730122,0.80621
533.461,58.3688,-3.05988,0.04964866,0.80439
535.661,58.5869,-3.06099,0.04998423,0.80257
537.861,58.8059,-3.06317,0.05152423,0.80074
540.061,59.0245,-3.06374,0.05197418,0.79891
542.261,59.24276,-3.06546,0.04946849,0.79708
544.461,59.4609,-3.06679,0.04944037,0.79524
546.661,59.67957,-3.07009,0.04920707,0.79339
548.861,59.8982,-3.07206,0.04712136,0.79154
549.861,59.9972,-3.07339,0.04581905,0.7907