Folder: fsri_materials_database/01_Data/Gypsum_Wallboard/Cone

Note: 01_Data/README.md
# Materials and Products Database
## 01_Data

Raw data generated from each apparatus are included here in plain-text format. The data is organized first by material, next by the short name of test apparatus used, and where applicable additional filtering by test settings.

### material.json

Each material directory contains a json file of the same name as the material. This file links the data stored in the repository as well as data and graphs produced by the accompanying scripts (__02_Scripts__) to the respective landing page for the material on the front-end website.

File: Gypsum_Wallboard_Cone_HF25Scan_220510_R1.csv
Names,Time,Stack TC,Smoke TC,Exh Press,Smoke Comp,Smoke Meas,CO Meter,CO2 Meter,O2 Meter,Sample Mass,Ext Coeff,Start Test,Flame Verif
Chan Gain,,500,500,1,1,1,1,1,1,1,1,1.0,1.0
Offset,,0,0,0.138628,0,0,0,0,0,0,0,0.0,0.0
Gain,,1,1,25.011,13.1256,14.6231,1,1,1,1.001,0.958019,1.0,1.0
Units,sec,C,C,Pa,%,%,%,%,%,g,/m,,
Baseline,,16.9891,17.47,143.343,98.6755,97.7443,0.000368462,0.0417217,21.0096,-443.066,0.079683,,
56,13.75,15.4366,15.5676,143.143,98.6357,97.7308,0.000483293,0.0437909,21.0079,135.566,0.0774495,0.0,0.0
112,27.75,16.0905,16.057,146.173,98.5311,97.6706,0.000237635,0.0417553,21.0106,135.506,0.0737205,0.0,0.0
168,41.75,15.7723,16.4776,142.35,98.5932,97.659,0.000392797,0.0410947,21.0105,135.245,0.0800131,0.0,0.0
224,55.75,15.9518,16.8747,141.246,98.7118,97.7522,9.83405e-05,0.0408941,21.0131,135.005,0.0820907,0.0,0.0
280,69.75,16.8935,16.9057,144.257,98.7927,97.8647,0.000102587,0.0434163,21.0074,134.775,0.0793135,0.0,0.0
336,83.75,16.1875,16.9915,143.281,98.7687,97.8379,0.00026834,0.0438493,21.0074,134.485,0.0795685,0.0,0.0
392,97.75,17.142,17.3201,142.417,98.6982,97.8232,0.00031448,0.0437577,21.0075,134.305,0.0748336,0.0,0.0
448,111.75,17.046,17.4661,140.105,98.6841,97.5795,0.000171879,0.0419595,21.0106,134.034,0.0945972,0.0,0.0
504,125.75,17.5795,18.0938,144.501,98.6709,97.5563,0.00049619,0.0450892,21.0086,133.664,0.0954708,0.0,0.0
560,139.75,17.2903,17.6586,143.185,98.6261,97.1962,0.00047085,0.0436095,21.0108,133.424,0.122728,0.0,0.0
616,153.75,17.4561,17.8152,143.625,98.4955,96.8142,0.000515263,0.0431534,21.0101,133.103,0.144688,0.0,0.0
672,167.75,17.4909,18.5133,141.508,98.3793,96.5562,0.000776942,0.0435055,21.009,132.683,0.15719,0.0,0.0
728,181.75,17.5922,18.4108,141.744,98.2952,96.4054,0.0013189,0.0445087,21.0085,132.373,0.163141,0.0,0.0
784,195.75,18.0769,18.6382,144.103,98.308,96.2813,0.00113363,0.0455542,21.0061,131.902,0.175058,0.0,0.0
840,209.75,18.0636,19.1722,144.004,98.3801,95.8601,0.00207958,0.0474509,21.0026,131.622,0.218069,0.0,0.0
896,223.75,18.6143,18.8074,142.161,98.431,96.1069,0.00231184,0.0489891,21.0013,131.121,0.200806,0.0,0.0
952,237.75,18.5191,19.0559,143.041,98.4474,96.2497,0.00346547,0.0529653,20.9974,130.751,0.189731,0.0,0.0
1008,251.75,18.7856,19.0441,142.079,98.4058,97.0569,0.00470381,0.057912,20.9912,130.2,0.115982,0.0,0.0
1064,265.75,18.7975,19.4452,143.665,98.3284,97.1324,0.00646213,0.0629399,20.9804,129.64,0.102851,0.0,0.0
1120,279.75,18.553,19.6111,143.508,98.2664,97.4224,0.00800265,0.0696515,20.9689,129.199,0.0724841,0.0,0.0
1176,293.75,19.1476,19.7707,140.297,98.2263,97.5166,0.00792874,0.0731316,20.97,128.739,0.0609392,0.0,0.0
1232,307.75,19.4069,20.1742,138.033,98.2335,97.5742,0.00621912,0.068196,20.9769,128.429,0.0565958,0.0,0.0
1288,321.75,19.0976,19.7268,141,98.3349,97.6442,0.00505338,0.0645673,20.9809,127.948,0.0592294,0.0,0.0
1344,335.75,19.6029,20.2182,141.709,98.5131,97.9513,0.00422595,0.0603584,20.9857,127.598,0.0480657,0.0,0.0
1400,349.75,19.6555,19.8728,142.228,98.7759,98.0579,0.0025948,0.0545386,20.9919,127.227,0.0613062,0.0,0.0
1456,363.75,19.2456,20.1072,140.574,98.8972,98.1356,0.00205793,0.0518597,20.9952,126.977,0.0649732,0.0,0.0
1512,377.75,19.4477,19.7136,139.345,98.9593,98.2284,0.00202501,0.0496042,21.0015,126.627,0.0623026,0.0,0.0
1568,391.75,19.7128,20.5119,144.823,98.9033,98.2998,0.00150788,0.0474031,21.0055,126.447,0.0514328,0.0,0.0
1624,405.75,19.3061,20.2391,140.778,98.7715,98.0454,0.000839742,0.0462931,21.0047,126.126,0.0620023,0.0,0.0
1680,419.75,19.332,20.0022,140.22,98.7094,97.9325,0.000714324,0.0447311,21.0084,126.036,0.0664005,0.0,0.0
1736,433.75,19.4674,20.0479,139.873,98.8215,98.0883,0.000663687,0.0441348,21.0094,125.836,0.06259,0.0,0.0
1792,447.75,19.3291,20.1724,142.625,98.9213,98.2061,0.000883374,0.0447608,21.0074,125.626,0.06098,0.0,0.0
1848,461.75,19.6923,20.4808,140.23,99.0899,98.4591,0.000440056,0.0435881,21.0072,125.576,0.0536698,0.0,0.0
1904,475.75,19.4561,20.143,140.597,99.176,98.4743,0.000322557,0.0436779,21.0081,125.326,0.059675,0.0,0.0
1960,489.75,19.5547,20.4008,141.776,99.128,98.4069,0.000132416,0.0431337,21.0106,125.195,0.0613539,0.0,0.0
2016,503.75,20.1472,20.7258,137.889,99.0002,98.2851,6.38071e-05,0.0445319,21.0091,125.065,0.0609253,0.0,0.0
2072,517.75,20.5452,21.3116,140.064,98.8904,98.1436,0.000143562,0.0441017,21.007,124.845,0.0637076,0.0,0.0
2128,531.75,20.5903,20.9895,140.241,99.5646,98.7469,0.000200508,0.0443698,21.0087,124.665,0.0692973,0.0,0.0
2184,545.75,20.0033,20.5469,145.774,99.5502,98.9335,0.000470525,0.042608,21.0119,124.615,0.0522204,0.0,0.0
2240,559.75,19.0484,19.7151,143.84,99.2762,98.4466,0.000339029,0.0420261,21.0115,124.445,0.0705183,0.0,0.0
2296,573.75,19.5362,20.3788,142.304,99.8486,99.0241,0.000178998,0.0422931,21.0096,124.285,0.0696818,0.0,0.0
2352,587.75,19.1787,19.7695,140.98,99.4837,98.6099,0.000217254,0.0459646,21.0054,124.164,0.0741326,0.0,0.0
2408,601.75,19.2094,19.8882,139.429,98.0236,97.1248,0.00030193,0.0460899,21.0059,124.004,0.0774138,0.0,0.0
2464,615.75,18.7914,20.3115,141.815,98.29,97.4796,0.000149528,0.0442744,21.0085,123.864,0.0695785,0.0,0.0
2520,629.75,19.3373,20.142,137.954,99.2113,98.4653,-3.12156e-05,0.0434117,21.0094,123.744,0.0634232,0.0,0.0
2576,643.75,19.8157,19.9645,139.884,98.9886,98.1913,0.000481124,0.0443874,21.0106,123.604,0.0679549,0.0,0.0
2632,657.75,19.2012,20.047,139.557,99.1196,98.1324,3.64655e-05,0.0444919,21.0086,123.454,0.0841103,0.0,0.0
2688,671.75,19.6691,19.8437,139.129,99.8926,98.8719,0.000239922,0.0419765,21.0104,123.284,0.0863138,0.0,0.0
2744,685.75,18.8985,20.0452,138.898,98.28,97.4233,0.000400969,0.0420636,21.0091,123.133,0.0735715,0.0,0.0
2800,699.75,19.3543,20.0178,141.737,98.5668,97.8147,4.82166e-06,0.0422008,21.012,123.043,0.0643677,0.0,0.0
2856,713.75,19.5201,20.0803,139.231,99.1087,98.2886,0.000239479,0.0416687,21.0107,122.793,0.0698288,0.0,0.0
2912,727.75,19.4701,19.7085,142.072,99.5301,98.717,0.000207616,0.0418053,21.0108,122.683,0.0689336,0.0,0.0
2968,741.75,19.5008,19.8197,135.862,99.1945,98.3109,0.000223473,0.0420297,21.0097,122.583,0.0751861,0.0,0.0
3024,755.75,19.3534,20.0201,141.551,99.8534,99.0151,0.000336448,0.0420233,21.0093,122.443,0.0708441,0.0,0.0
3080,769.75,19.3426,19.8164,138.755,99.6888,99.0058,0.000201383,0.0424401,21.0092,122.323,0.0577729,0.0,0.0
3136,783.75,19.4584,20.0931,139.142,98.9657,98.049,0.00040663,0.0415119,21.0113,122.232,0.0782089,0.0,0.0
3192,797.75,19.4636,19.9268,140.101,98.3168,97.4032,0.000201522,0.0415001,21.0129,122.132,0.078455,0.0,0.0
3248,811.75,19.2371,19.9387,144.865,97.9503,97.3443,0.000147709,0.0424729,21.0114,121.982,0.0521517,0.0,0.0
3304,825.75,19.2814,19.7157,138.491,97.9351,97.2082,0.000133801,0.0420935,21.0117,121.802,0.0626039,0.0,0.0
3360,839.75,18.8773,19.9571,141.98,98.2163,97.3095,0.000429022,0.0417894,21.0117,121.702,0.0779458,0.0,0.0
3416,853.75,19.0733,19.772,140.663,98.5936,97.7531,0.000173825,0.0416658,21.011,121.572,0.0719487,0.0,0.0
3472,867.75,18.6345,20.0258,140.151,98.9061,98.1088,0.000384195,0.0417805,21.0155,121.482,0.0680155,0.0,0.0
3528,881.75,18.8131,19.8961,143.953,99.0487,98.3359,0.000446104,0.0416228,21.0118,121.432,0.0606886,0.0,0.0
3584,895.75,19.155,19.4801,141.63,99.0883,98.2507,0.000317238,0.0418384,21.013,121.272,0.0713398,0.0,0.0
3640,909.75,19.2264,19.7671,143.158,99.0843,98.3297,0.000308344,0.0418746,21.0105,121.111,0.0642474,0.0,0.0
3696,923.75,18.9294,19.5234,140.85,99.0398,98.377,0.000384778,0.0419876,21.0122,121.081,0.0564336,0.0,0.0
3752,937.75,18.812,19.9345,141.282,98.9461,98.2949,0.000109466,0.0416737,21.0124,120.911,0.0554932,0.0,0.0
3808,951.75,19.0604,19.958,137.723,98.8484,98.2288,0.000160297,0.0415933,21.0105,120.851,0.0528366,0.0,0.0
3864,965.75,19.3539,20.0069,144.842,98.7062,97.9289,0.000637573,0.0419532,21.0103,120.741,0.0664343,0.0,0.0
3920,979.75,19.3535,19.7681,141.295,98.5532,97.8482,-8.15177e-05,0.0418395,21.0117,120.561,0.0603315,0.0,0.0
3976,993.75,18.9544,19.9887,143.427,98.4494,97.6081,0.00046939,0.0419093,21.0104,120.401,0.0721255,0.0,0.0
4032,1007.75,18.919,19.3914,142.908,98.2888,97.3631,0.000215462,0.0415735,21.0108,120.391,0.0795228,0.0,0.0
4088,1021.75,19.0263,20.0393,141.412,98.1005,97.3149,0.00029268,0.041702,21.0158,120.281,0.0675713,0.0,0.0
4144,1035.75,18.8472,19.7054,144.655,97.9583,97.1801,0.00044324,0.0415553,21.012,120.15,0.0670287,0.0,0.0
4200,1049.75,18.8947,19.4401,138.885,97.8918,97.3185,0.000361352,0.0415132,21.0127,120.1,0.0493675,0.0,0.0
4256,1063.75,18.6873,19.6915,147.328,97.9279,97.1757,8.34127e-05,0.0417903,21.0101,119.98,0.0648022,0.0,0.0
4312,1077.75,19.2,19.6131,143.04,98.042,97.3564,-0.000142955,0.04144,21.0118,119.95,0.0589777,0.0,0.0
4368,1091.75,19.134,19.7385,144.242,98.2111,97.5108,0.000410156,0.0416856,21.0146,119.8,0.0601365,0.0,0.0
4424,1105.75,19.4872,20.1628,137.7,98.4911,97.7094,0.000233966,0.0414298,21.0148,119.72,0.0669631,0.0,0.0
4480,1119.75,19.6082,20.1396,141.596,98.856,98.0575,0.000327984,0.041412,21.0126,119.64,0.0681576,0.0,0.0
4536,1133.75,18.7286,19.4077,143.265,99.3154,98.5765,0.00025174,0.0413078,21.0122,119.51,0.062762,0.0,0.0
4592,1147.75,18.9193,19.4752,142.067,99.7088,98.9549,0.000219773,0.0414528,21.0101,119.49,0.0637802,0.0,0.0
4648,1161.75,18.9534,20.2639,140.167,99.8806,99.187,0.000233043,0.0415253,21.0146,119.45,0.0585668,0.0,0.0
4704,1175.75,19.2613,19.6835,139.435,99.8257,99.0562,0.000272786,0.041692,21.0131,119.37,0.0650338,0.0,0.0
4760,1189.75,19.2646,19.8447,138.829,99.559,98.8331,0.000259466,0.0413712,21.0148,119.249,0.0614971,0.0,0.0
4816,1203.75,18.8595,19.3774,140.525,99.2393,98.5225,0.000530966,0.0414529,21.0154,119.199,0.0609243,0.0,0.0
4872,1217.75,18.9061,19.4361,140.683,99.2061,98.3806,0.000311277,0.0428026,21.0126,119.109,0.0702222,0.0,0.0
4928,1231.75,18.8147,19.4738,140.188,99.5898,98.842,0.00012844,0.0418946,21.0119,119.079,0.0633407,0.0,0.0
4984,1245.75,19.0164,19.3475,134.457,99.4917,98.7768,0.000294195,0.0417163,21.0127,119.069,0.0605971,0.0,0.0
5040,1259.75,19.1186,18.8741,140.064,98.898,98.1039,-0.000140146,0.0416234,21.0133,118.889,0.0677551,0.0,0.0
5096,1273.75,18.7143,19.4767,147.666,98.862,98.1463,0.000141218,0.0418341,21.0102,118.839,0.0610605,0.0,0.0
5152,1287.75,18.6599,19.0093,141.599,99.0414,98.4096,0.000514677,0.0418273,21.0119,118.849,0.0537873,0.0,0.0
5208,1301.75,18.9806,19.3102,141.544,99.1748,98.4011,5.37531e-05,0.0418643,21.0117,118.839,0.0658221,0.0,0.0
5264,1315.75,18.7052,19.5495,140.699,99.166,98.2618,,,,118.719,0.0769741,0.0,0.0
5287,1321.5,18.5943,19.3385,142.803,99.0711,98.3623,,,,118.739,0.0603424,0.0,0.0

File: Gypsum_Wallboard_Cone_HF25Scan_220510_R3.csv
Names,Time,Stack TC,Smoke TC,Exh Press,Smoke Comp,Smoke Meas,CO Meter,CO2 Meter,O2 Meter,Sample Mass,Ext Coeff,Start Test,Flame Verif
Chan Gain,,500,500,1,1,1,1,1,1,1,1,1.0,1.0
Offset,,0,0,0.138628,0,0,0,0,0,0,0,0.0,0.0
Gain,,1,1,25.011,13.1256,14.6231,1,1,1,1.001,0.958019,1.0,1.0
Units,sec,C,C,Pa,%,%,%,%,%,g,/m,,
Baseline,,19.309,19.9903,141.552,99.1307,98.2986,0.000315187,0.0419471,21.0063,-443.37,0.0708465,,
31,7.5,16.8672,18.4491,142.215,98.9906,98.07,0.000289524,0.0474578,21.0016,129.81,0.0785205,0.0,0.0
62,15.25,17.6841,18.1692,142.985,98.9641,98.0566,0.000149623,0.0436452,21.006,129.88,0.0774227,0.0,0.0
93,23,17.9579,18.3502,142.544,98.8291,98.082,2.68563e-05,0.0423584,21.0075,129.85,0.0637722,0.0,0.0
124,30.75,18.0021,18.4886,140.369,98.8091,97.9669,0.00016328,0.0433207,21.005,129.67,0.0719398,0.0,0.0
155,38.5,17.7783,18.4519,143.19,98.8059,97.9222,0.000475568,0.043171,21.0048,129.46,0.0754959,0.0,0.0
186,46.25,17.7566,18.6674,138.683,98.8199,97.9294,3.77091e-05,0.0422573,21.0061,129.42,0.0760757,0.0,0.0
217,54,18.2088,18.8077,141.553,98.8476,97.9629,0.00018265,0.0418642,21.0069,129.28,0.0755535,0.0,0.0
248,61.75,18.2429,18.5195,142.16,98.8744,97.9339,6.85543e-05,0.0431006,21.0047,129.179,0.0803236,0.0,0.0
279,69.5,18.5725,19.276,141.255,98.8996,98.036,0.000316476,0.0426966,21.005,129.029,0.0737036,0.0,0.0
310,77.25,18.2363,19.215,144.988,98.9449,97.9861,0.000318402,0.0419381,21.0099,128.879,0.0818347,0.0,0.0
341,85,18.4371,18.8976,141.768,98.9737,97.8227,0.000244598,0.0415931,21.0096,128.759,0.0983031,0.0,0.0
372,92.75,18.4955,19.2735,142.652,99.0146,97.9428,0.000480197,0.0417468,21.0092,128.619,0.0914664,0.0,0.0
403,100.5,18.6686,19.1837,140.089,99.0418,97.7495,0.000583142,0.0442999,21.0069,128.469,0.110373,0.0,0.0
434,108.25,18.6055,19.3607,140.351,99.0587,97.6487,0.000162357,0.0437033,21.0093,128.299,0.120476,0.0,0.0
465,116,18.7141,19.5513,139.222,99.0847,97.6545,0.000550717,0.0427939,21.0077,128.068,0.122185,0.0,0.0
496,123.75,19.0156,19.4637,141.814,99.0951,97.3849,0.000548323,0.0427071,21.0099,127.938,0.146296,0.0,0.0
527,131.5,18.9306,19.4426,138.932,99.0995,97.4782,0.00049617,0.0437175,21.0083,127.738,0.138625,0.0,0.0
558,139.25,18.8266,19.4099,140.317,99.1031,97.4532,0.000386544,0.0435914,21.0078,127.588,0.141085,0.0,0.0
589,147,18.8117,19.7808,135.368,99.0995,97.0944,0.000955788,0.043292,21.0056,127.408,0.171777,0.0,0.0
620,154.75,18.9001,19.6688,142.473,99.1083,96.7812,0.00122822,0.0442506,21.0055,127.217,0.199682,0.0,0.0
651,162.5,19.1744,19.9444,139.031,99.1087,96.6174,0.00143207,0.0454949,21.005,127.027,0.21395,0.0,0.0
682,170.25,19.5997,20.1447,143.861,99.1003,96.197,0.00203646,0.0464515,21.0038,126.707,0.24988,0.0,0.0
713,178,19.2772,20.0867,140.37,99.1003,96.0408,0.00243073,0.0483869,21.0008,126.437,0.263535,0.0,0.0
744,185.75,19.3955,20.387,138.461,99.1147,96.2251,0.00351087,0.0516677,20.997,126.196,0.248647,0.0,0.0
775,193.5,19.6177,20.2979,136.966,99.1115,97.218,0.00448934,0.0547718,20.9923,125.946,0.162103,0.0,0.0
806,201.25,19.0077,20.3881,140.663,99.1015,97.7107,0.00518425,0.056442,20.9865,125.796,0.118775,0.0,0.0
837,209,19.9416,20.2209,140.323,99.0999,97.9736,0.00634306,0.0614935,20.982,125.426,0.0960631,0.0,0.0
868,216.75,19.5133,20.4955,140.441,99.1107,98.0771,0.00761542,0.066724,20.9781,125.115,0.0881034,0.0,0.0
899,224.5,19.77,20.491,139.03,99.13,98.1146,0.0083876,0.0719358,20.9704,124.915,0.086522,0.0,0.0
930,232.25,19.8975,20.2755,140.478,99.1176,98.207,0.00874223,0.0725746,20.9702,124.655,0.0775617,0.0,0.0
961,240,20.158,20.9001,141.246,99.1224,98.2534,0.0080232,0.0703551,20.9718,124.345,0.0739985,0.0,0.0
992,247.75,19.8668,21.2948,138.124,99.118,98.4238,0.00744435,0.0698443,20.9719,124.094,0.0590563,0.0,0.0
1023,255.5,20.2738,21.0886,140.338,99.1107,98.2917,0.00635317,0.0688968,20.974,123.834,0.0697315,0.0,0.0
1054,263.25,20.2918,21.0475,140.275,99.1107,98.3654,0.00619312,0.0670866,20.9756,123.584,0.0634382,0.0,0.0
1085,271,20.6958,20.893,141.138,99.0979,98.3408,0.00538195,0.0640623,20.9807,123.374,0.0644483,0.0,0.0
1116,278.75,20.1771,20.9207,138.87,99.1051,98.4368,0.00464461,0.0615013,20.9845,123.153,0.0568655,0.0,0.0
1147,286.5,20.481,21.652,139.551,99.1264,98.4252,0.00385514,0.0572375,20.9897,122.973,0.0596551,0.0,0.0
1178,294.25,20.3434,21.0171,136.514,99.1284,98.418,0.00339616,0.0582305,20.9881,122.713,0.0604349,0.0,0.0
1209,302,20.3996,21.413,141.082,99.1364,98.2953,0.00263527,0.0538767,20.9938,122.653,0.0716001,0.0,0.0
1240,309.75,20.093,21.3736,142.834,99.136,98.4529,0.00241882,0.0515658,20.9939,122.423,0.0581082,0.0,0.0
1271,317.5,20.4566,20.7798,139.815,99.1368,98.4578,0.0021773,0.0497908,20.9975,122.313,0.057757,0.0,0.0
1302,325.25,20.2295,21.2915,141.598,99.1284,98.5109,0.00216416,0.0488177,21.0002,122.072,0.0525131,0.0,0.0
1333,333,20.3075,20.4183,138.904,99.1328,98.2565,0.00175572,0.0480369,21.0017,121.902,0.0746142,0.0,0.0
1364,340.75,19.7016,21.1039,141.11,99.1336,98.6385,0.00183059,0.0473785,21.002,121.812,0.0420731,0.0,0.0
1395,348.5,20.1802,20.8222,139.367,99.1396,98.3748,0.00181194,0.0469157,21.0041,121.702,0.0650825,0.0,0.0
1426,356.25,19.9789,20.9563,141.828,99.144,98.381,0.00111627,0.0457951,21.0044,121.482,0.0649225,0.0,0.0
1457,364,20.0713,20.8438,141.089,99.134,98.3007,0.00104793,0.0450909,21.0078,121.462,0.0709375,0.0,0.0
1488,371.75,19.7848,21.0885,145.514,99.1304,98.5234,0.000827949,0.0442993,21.0077,121.332,0.051617,0.0,0.0
1519,379.5,19.9411,20.9443,139.903,99.1155,98.5185,0.000884996,0.0441373,21.006,121.141,0.0507786,0.0,0.0
1550,387.25,19.9607,20.6028,137.641,99.1071,98.3127,0.000923623,0.0441706,21.0063,121.111,0.0676329,0.0,0.0
1581,395,20.1244,20.7361,140.108,99.1027,98.4069,0.000541921,0.043618,21.0061,120.991,0.0592145,0.0,0.0
1612,402.75,20.0589,20.7116,139.413,99.0911,98.4533,0.000430749,0.0428884,21.007,120.941,0.054267,0.0,0.0
1643,410.5,19.5124,20.9529,137.55,99.0671,98.4238,0.000240931,0.0424885,21.0111,120.741,0.0547418,0.0,0.0
1674,418.25,19.6199,20.675,141.673,99.0495,98.2128,0.000410367,0.0421909,21.0092,120.771,0.0712892,0.0,0.0
1705,426,20.0619,20.5992,140.495,99.0547,98.2784,0.000237137,0.0421037,21.0102,120.681,0.0661192,0.0,0.0
1736,433.75,19.6859,20.6134,143.463,99.0611,98.2284,0.000344297,0.042293,21.0112,120.601,0.0709385,0.0,0.0
1767,441.5,19.6574,20.6881,141.542,99.0759,98.3395,0.000109279,0.0420831,21.0125,120.511,0.0626954,0.0,0.0
1798,449.25,19.9181,20.8121,145.365,99.0899,98.3078,0.00028135,0.0421154,21.0112,120.381,0.0665914,0.0,0.0
1829,457,19.5933,19.8576,142.09,99.1027,98.3011,-3.69152e-05,0.0417212,21.0133,120.301,0.068251,0.0,0.0
1860,464.75,19.5775,20.6463,143.288,99.1103,98.3377,0.000111477,0.0419293,21.01,120.18,0.0657684,0.0,0.0
1891,472.5,19.8688,20.1314,142.509,99.126,98.3333,0.000148725,0.0419046,21.0089,120.13,0.0674739,0.0,0.0
1922,480.25,19.6811,20.1017,143.562,99.1035,98.4002,0.000444064,0.0420981,21.0104,120.04,0.0598541,0.0,0.0
1953,488,19.6481,20.4983,141.769,99.0983,98.3761,0.000236834,0.0417448,21.0116,119.91,0.0614713,0.0,0.0
1984,495.75,20.0001,20.5709,141.605,99.0975,98.2775,-0.000165493,0.0418493,21.0128,119.87,0.0698318,0.0,0.0
2015,503.5,19.3662,20.3638,143.174,99.0703,98.4131,0.000110558,0.0419869,21.0115,119.73,0.0559291,0.0,0.0
2046,511.25,19.6281,20.4525,139.441,99.0406,98.1717,5.46598e-05,0.0416553,21.0099,119.63,0.0740551,0.0,0.0
2077,519,19.6606,20.5473,144.247,99.015,98.2159,0.000341732,0.0416334,21.0097,119.58,0.0680989,0.0,0.0
2108,526.75,19.3871,20.4106,139.36,98.9998,98.2538,0.000356839,0.0417479,21.0118,119.44,0.0635614,0.0,0.0
2139,534.5,19.4858,20.0051,141.118,98.9577,98.2851,0.000230638,0.0420442,21.009,119.48,0.0573192,0.0,0.0
2170,542.25,19.7859,20.818,142.403,98.9257,98.107,0.000374774,0.0419668,21.0099,119.27,0.0698358,0.0,0.0
2201,550,19.3527,20.3366,142.324,98.8868,98.153,-8.85088e-05,0.0419787,21.0064,119.27,0.062598,0.0,0.0
2232,557.75,19.6701,20.6766,139.99,98.8604,98.2846,-3.9624e-05,0.0419478,21.0087,119.249,0.0490876,0.0,0.0
2263,565.5,19.5381,20.5007,142.382,98.8324,98.0575,3.61653e-05,0.0420481,21.0088,119.169,0.0661481,0.0,0.0
2294,573.25,19.5197,20.7402,139.093,98.7979,98.0615,0.000530291,0.0418683,21.009,119.069,0.0628744,0.0,0.0
2325,581,19.3958,20.4921,138.571,98.7835,97.9655,0.00015411,0.041883,21.0099,119.049,0.0698745,0.0,0.0
2356,588.75,19.6756,20.5849,142.679,98.8784,98.1739,7.84881e-06,0.0419157,21.0095,118.899,0.0600888,0.0,0.0
2387,596.5,19.0884,20.0315,141.112,99.0214,98.2717,0.000264123,0.0419612,21.0084,118.839,0.0638716,0.0,0.0
2418,604.25,19.5274,20.0405,140.029,99.1087,98.4247,0.000228852,0.0418096,21.0108,118.919,0.0581997,0.0,0.0
2449,612,19.188,19.7513,140.154,99.1488,98.3498,0.00012211,0.0419361,21.011,118.679,0.0679996,0.0,0.0
2480,619.75,19.1548,19.8806,143.43,99.2029,98.4091,0.000280535,0.0420064,21.0111,118.659,0.0675106,0.0,0.0
2511,627.5,18.7,20.0834,143.549,99.2153,98.5653,5.04155e-05,0.0416287,21.0092,118.589,0.0552355,0.0,0.0
2542,635.25,19.2588,19.8342,140.602,99.1772,98.5314,0.000526665,0.0418124,21.0065,118.499,0.054904,0.0,0.0
2573,643,19.4262,19.5082,142.398,99.1484,98.4653,0.000460225,0.0417794,21.0068,118.228,0.0580943,0.0,0.0
2604,650.75,19.2225,19.5718,140.52,99.1296,98.5484,0.000525583,0.0418517,21.0104,118.349,0.0494173,0.0,0.0
2635,658.5,19.1817,19.9287,143.056,99.1035,98.3855,6.80037e-05,0.0417585,21.01,118.279,0.0611112,0.0,0.0
2666,666.25,19.0374,18.9234,144.926,99.1256,98.4216,0.000448318,0.0419558,21.0104,118.248,0.0598929,0.0,0.0
2697,674,19.2525,19.7885,142.313,99.1844,98.4689,-0.000282684,0.0417892,21.0094,118.118,0.0608447,0.0,0.0
2728,681.75,19.6144,20.088,141.307,99.2413,98.576,7.77005e-07,0.041849,21.0076,118.138,0.0565272,0.0,0.0
2759,689.5,19.0702,19.5122,142.579,99.2614,98.551,0.000336866,0.0418913,21.0069,118.038,0.0603544,0.0,0.0
2790,697.25,19.4457,19.3835,139.932,99.2433,98.4399,0.000124414,0.0419312,21.0082,117.978,0.0683076,0.0,0.0
2821,705,18.8968,20.2663,140.623,99.2453,98.4814,0.000332834,0.0419666,21.0083,117.938,0.0649354,0.0,0.0
2852,712.75,19.4014,19.9221,144.307,99.2089,98.4515,,,,117.768,0.0643995,0.0,0.0
2882,720.25,19.2722,19.4803,144.45,99.172,98.4944,,,,117.738,0.0576217,0.0,0.0

File: Gypsum_Wallboard_Cone_HF50Scalar_220511_R3.csv
LABORATORY,FSRI
TEST IDENT,Standard_Gypsum_50_3
OPERATOR,Dow
MATERIAL,Standard Gypsum
ORIENTATION,Horizontal
HEAT FLUX,50
SURF AREA,0.01
C FACTOR,0.0418584
SPEC HOLDER DIFF,-566
SPECIMEN MASS,76.89
SCAN TIME,0.25
O2 DELAY TIME,11
CO DELAY TIME,11
CO2 DELAY TIME,8
FLOW FACTOR,1
SCAN COUNT,686
TIME TO IGN,33
END OF TEST SCAN,206
END OF TEST TIME,51.5
TEST STATUS,1
PRE TEST CMT,Dimensions: 102.17 x 103.02 x 12.72 mm
POST TEST CMT ,"The gypsum paper continued to have a glowing orange color after the flame self-extinguished, however the test was ended because there was no longer ignition."

File: Gypsum_Wallboard_Cone_HF75Scalar_220511_R2.csv
LABORATORY,FSRI
TEST IDENT,Standard_Gypsum_75_2
OPERATOR,Dow
MATERIAL,Standard Gypsum
ORIENTATION,Horizontal
HEAT FLUX,75
SURF AREA,0.01
C FACTOR,0.0418584
SPEC HOLDER DIFF,-566
SPECIMEN MASS,77.93
SCAN TIME,0.25
O2 DELAY TIME,11
CO DELAY TIME,11
CO2 DELAY TIME,8
FLOW FACTOR,1
SCAN COUNT,625
TIME TO IGN,17
END OF TEST SCAN,145
END OF TEST TIME,36.25
TEST STATUS,1
PRE TEST CMT,Dimensions: 103.76 x 103.00 x 12.67 mm
POST TEST CMT,"The gypsum paper continued to have a glowing orange color after the flame self-extinguished, however the test was ended because there was no longer ignition."