Folder: fsri_materials_database/01_Data/Gypsum_Wallboard/Cone (part 2)

File: Gypsum_Wallboard_Cone_HF75Scan_220511_R2.csv
Names,Time,Stack TC,Smoke TC,Exh Press,Smoke Comp,Smoke Meas,CO Meter,CO2 Meter,O2 Meter,Sample Mass,Ext Coeff,Start Test,Flame Verif
Chan Gain,,500,500,1,1,1,1,1,1,1,1,1.0,1.0
Offset,,0,0,0.138628,0,0,0,0,0,0,0,0.0,0.0
Gain,,1,1,25.011,13.1256,14.6231,1,1,1,1.001,0.958019,1.0,1.0
Units,sec,C,C,Pa,%,%,%,%,%,g,/m,,
Baseline,,44.7572,46.4593,130.256,99.0525,101.869,0.00020271,0.042023,21.0057,-445.956,-0.235562,,
7,1.5,40.9919,43.0128,130.145,98.9569,101.021,-0.00016118,0.0455064,21.0008,124.655,-0.173454,0.0,0.0
14,3.25,40.8149,43.0135,127.463,98.9441,101.3,-0.000154111,0.0459493,21.0005,124.625,-0.197713,0.0,0.0
21,5,40.8116,42.9296,131.375,98.9337,101.686,-0.000107155,0.0460244,21.0003,124.495,-0.230634,0.0,0.0
28,6.75,41.6955,43.0031,134.3,98.9429,100.987,-5.76335e-05,0.045752,21.0003,124.495,-0.171822,0.0,0.0
35,8.5,42.1204,43.7343,127.576,98.9273,100.61,2.01828e-05,0.0452196,21.0002,124.435,-0.141748,0.0,0.0
42,10.25,41.4435,43.5887,127.912,98.9165,100.735,0.000161512,0.0448784,20.999,124.305,-0.153097,0.0,0.0
49,12,41.8871,44.1491,130.965,98.9161,99.261,0.000387036,0.0446569,21.0018,124.214,-0.0292562,0.0,0.0
56,13.75,42.5539,44.1852,128.134,98.9157,99.0138,0.000820601,0.0451567,21.005,124.084,-0.00833256,0.0,0.0
63,15.5,42.2137,44.0703,124.216,98.9209,101.576,0.00125416,0.0556035,20.9911,123.984,-0.222607,0.0,0.0
70,17.25,42.5617,44.4535,119.796,98.9109,105.28,0.00169657,0.113839,20.9328,123.624,-0.524407,0.0,1.0
77,19,43.9027,44.9729,111.933,98.9065,104.1,0.00209738,0.193453,20.823,123.434,-0.430102,0.0,1.0
84,20.75,45.9621,46.249,110.872,98.9113,104.603,0.00234081,0.30396,20.7134,123.013,-0.470197,0.0,1.0
91,22.5,46.4785,46.6284,115.033,98.9029,105.546,0.00249009,0.380224,20.6376,122.713,-0.546326,0.0,0.0
98,24.25,48.3093,48.1715,115.04,98.8976,105.646,0.0026705,0.419885,20.5985,122.363,-0.554725,0.0,0.0
105,26,50.3758,49.7793,116.28,98.9005,105.05,0.00291206,0.427876,20.5911,122.102,-0.506962,0.0,0.0
112,27.75,51.6445,51.3783,115.885,98.8924,105.163,0.00332044,0.407649,20.6138,121.892,-0.516635,0.0,0.0
119,29.5,52.5596,52.7147,120.729,98.8932,104.664,0.00455275,0.371849,20.647,121.692,-0.476639,0.0,0.0
126,31.25,53.4926,53.435,129.339,98.9016,102.193,0.0065808,0.310154,20.7028,121.502,-0.275148,0.0,0.0
133,33,53.2112,53.9923,125.467,98.8976,101.728,0.00920552,0.242167,20.7749,121.422,-0.237088,0.0,0.0
140,34.75,53.1259,54.0873,129.092,98.8768,102.72,0.0113817,0.185351,20.8292,121.251,-0.32045,0.0,0.0
147,36.5,52.5721,53.5529,126.278,98.8912,101.69,0.0129106,0.149889,20.8622,121.131,-0.234498,0.0,0.0
154,38.25,50.8723,52.4531,129.576,98.8956,101.53,0.0137606,0.130253,20.8828,121.061,-0.220911,0.0,0.0
161,40,50.4088,51.9576,130.634,98.8888,102.008,0.014074,0.119459,20.8957,120.901,-0.260956,0.0,0.0
168,41.75,50.036,52.1541,127.528,98.8892,102.879,0.0139924,0.113265,20.9061,120.761,-0.332418,0.0,0.0
175,43.5,50.1901,51.7966,131.449,98.8904,102.191,0.0136733,0.109127,20.9128,120.631,-0.27588,0.0,0.0
182,45.25,49.7711,51.1195,131.774,98.8976,101.781,0.0130158,0.10605,20.9175,120.581,-0.241511,0.0,0.0
189,47,49.4785,51.3918,123.072,98.8996,102.355,0.0121639,0.103002,20.9228,120.461,-0.288592,0.0,0.0
196,48.75,49.5982,51.3163,126.174,98.8912,101.165,0.0113111,0.0994529,20.9274,120.301,-0.191016,0.0,0.0
203,50.5,49.4647,51.1032,130.653,98.8876,102.132,0.010506,0.0964959,20.9302,120.24,-0.271273,0.0,0.0
210,52.25,49.2945,50.9302,128.125,98.9097,102.313,0.0098844,0.0938242,20.9337,120.14,-0.28426,0.0,0.0
217,54,48.8211,50.8564,127.615,98.8984,102.321,0.00935952,0.0918625,20.9387,120.03,-0.285908,0.0,0.0
224,55.75,48.7872,51.2408,129.406,98.8908,102.717,0.00896106,0.0895459,20.9424,119.89,-0.319003,0.0,0.0
231,57.5,48.5424,50.7792,127.874,98.8924,101.739,0.00861196,0.0876443,20.9446,119.84,-0.238489,0.0,0.0
238,59.25,48.5012,50.8578,127.128,98.9016,102.036,0.00818906,0.0858425,20.9459,119.71,-0.26222,0.0,0.0
245,61,48.0376,50.4155,130.243,98.9069,102.241,0.00781556,0.084116,20.9485,119.59,-0.27863,0.0,0.0
252,62.75,48.1359,50.2712,130.357,98.9141,101.538,0.00761734,0.0827678,20.9505,119.5,-0.22001,0.0,0.0
259,64.5,48.0945,50.3585,127.508,98.9065,101.627,0.00753824,0.0813966,20.9523,119.39,-0.22804,0.0,0.0
266,66.25,47.9927,50.112,129.236,98.9033,103.007,0.00744032,0.0799459,20.9536,119.27,-0.341646,0.0,0.0
273,68,47.6328,50.0482,129.038,98.9105,101.862,0.00724936,0.0787404,20.9559,119.179,-0.247125,0.0,0.0
280,69.75,48.13,49.9445,123.233,98.9405,103.285,0.00699427,0.0773478,20.958,119.079,-0.361169,0.0,0.0
287,71.5,47.6516,49.8763,130.257,98.9025,102.073,0.00667061,0.0759064,20.9598,118.909,-0.265165,0.0,0.0
294,73.25,47.1934,49.6895,129.506,98.9085,101.988,0.00636918,0.0744836,20.9614,118.819,-0.257671,0.0,0.0
301,75,46.9489,49.6838,126.796,98.9141,102.287,0.00604258,0.0729596,20.9638,118.759,-0.281795,0.0,0.0
308,76.75,46.8893,49.216,130.107,98.9125,102.267,0.00575379,0.0714671,20.966,118.669,-0.280245,0.0,0.0
315,78.5,46.8285,49.2145,129.456,98.9133,102.321,0.0054583,0.0696032,20.9682,118.599,-0.284613,0.0,0.0
322,80.25,46.4763,49.0494,127.431,98.9117,102.684,0.00518822,0.0677745,20.971,118.509,-0.31453,0.0,0.0
329,82,46.4585,48.9173,132.397,98.9105,102.16,0.00479263,0.0655241,20.9734,118.389,-0.271683,0.0,0.0
336,83.75,46.6333,48.867,124.293,98.9121,101.639,0.00423801,0.0634026,20.977,118.279,-0.228523,0.0,0.0
343,85.5,46.6663,48.8883,128.615,98.9245,101.866,0.00371862,0.0607611,20.9802,118.178,-0.246228,0.0,0.0
350,87.25,46.6073,48.8471,131.336,98.9125,101.356,0.00316792,0.0583033,20.9831,118.078,-0.205064,0.0,0.0
357,89,46.5578,48.9932,127.712,98.9081,102.67,0.00276163,0.0556951,20.9856,118.008,-0.313668,0.0,0.0
364,90.75,46.2089,48.5797,129.779,98.9037,103.973,0.0024198,0.0532441,20.9888,117.998,-0.42003,0.0,0.0
371,92.5,45.9476,48.7453,130.501,98.9189,101.76,0.0020314,0.0513857,20.9903,117.858,-0.237975,0.0,0.0
378,94.25,46.1452,48.8803,129.572,98.9113,101.704,0.00173239,0.0498234,20.9923,117.788,-0.233977,0.0,0.0
385,96,45.6008,48.5115,129.722,98.9005,102.17,0.00154371,0.048563,20.9954,117.698,-0.273304,0.0,0.0
392,97.75,45.6155,48.2049,126.632,98.9145,102.675,0.00141861,0.0472503,20.9971,117.658,-0.313599,0.0,0.0
399,99.5,45.4342,48.5764,127.564,98.9061,101.63,0.00127563,0.0464055,20.9979,117.508,-0.228333,0.0,0.0
406,101.25,45.4812,47.8548,127.933,98.9101,101.923,0.00121681,0.0456933,20.9983,117.428,-0.252201,0.0,0.0
413,103,44.9027,47.4476,127.718,98.8928,102.302,0.00120175,0.0450623,20.9997,117.338,-0.284846,0.0,0.0
420,104.75,45.4486,47.6623,128.053,98.9045,102.168,0.0011167,0.0445917,21.001,117.318,-0.272781,0.0,0.0
427,106.5,45.0196,47.89,128.808,98.9081,102.488,0.000926533,0.0442274,21.0024,117.187,-0.298752,0.0,0.0
434,108.25,45.0714,47.7465,133.204,98.9005,101.232,0.000716492,0.043939,21.003,117.187,-0.195829,0.0,0.0
441,110,44.6015,47.2655,130.121,98.892,102.172,0.000578441,0.0438045,21.0033,117.127,-0.274166,0.0,0.0
448,111.75,45.0275,47.246,127.267,98.892,102.094,0.000498627,0.043623,21.0034,117.067,-0.267776,0.0,0.0
455,113.5,44.7967,47.3092,127.815,98.8884,101.965,0.000517799,0.043512,21.0035,116.967,-0.257461,0.0,0.0
462,115.25,44.9536,47.8464,129.911,98.8868,102.335,0.000629061,0.0434252,21.0047,116.927,-0.288032,0.0,0.0
469,117,44.8687,47.2596,128.698,98.8844,102.008,0.000722298,0.0432831,21.0053,116.847,-0.261368,0.0,0.0
476,118.75,44.4573,47.2047,130.159,98.87,101.954,0.000730761,0.0432072,21.0065,116.757,-0.258144,0.0,0.0
483,120.5,44.3174,47.3274,135.109,98.8772,102.158,0.000651695,0.0432241,21.007,116.747,-0.274325,0.0,0.0
490,122.25,44.7544,47.2701,132.121,98.8736,102.558,0.000627291,0.0432161,21.0064,116.657,-0.307495,0.0,0.0
497,124,44.915,47.045,132.16,98.8804,101.96,0.000666155,0.043205,21.0061,116.597,-0.257737,0.0,0.0
504,125.75,44.3174,46.9924,128.581,98.8784,102.559,0.000742538,0.0431401,21.006,116.547,-0.307124,0.0,0.0
511,127.5,44.779,47.0382,132.763,98.8748,101.362,0.000804123,0.043213,21.0067,116.437,-0.208818,0.0,0.0
518,129.25,44.5971,47.0523,128.268,98.88,101.808,0.000833008,0.0431313,21.0073,116.357,-0.245256,0.0,0.0
525,131,44.3664,46.8087,128.466,98.8776,101.513,0.000919831,0.0430312,21.0073,116.367,-0.221076,0.0,0.0
532,132.75,44.5106,46.9021,130.67,98.874,102.405,0.00107898,0.0431081,21.0064,116.347,-0.294874,0.0,0.0
539,134.5,44.0003,46.9311,128.896,98.8736,101.992,0.00116396,0.0431181,21.006,116.277,-0.260927,0.0,0.0
546,136.25,44.6516,46.6738,129.134,98.8612,102.022,0.00113643,0.0430554,21.0058,116.156,-0.264483,0.0,0.0
553,138,44.4334,46.7882,130.604,98.8572,102.267,0.00107866,0.0430816,21.0047,116.096,-0.284979,0.0,0.0
560,139.75,44.6995,46.4696,129.127,98.8516,101.972,0.00103212,0.0430078,21.004,116.046,-0.261182,0.0,0.0
567,141.5,44.2797,46.473,132.845,98.8564,101.998,0.0008955,0.0430153,21.0036,116.036,-0.262906,0.0,0.0
574,143.25,44.3332,46.3337,128.973,98.832,102.976,0.00073556,0.0430293,21.0034,115.956,-0.345157,0.0,0.0
581,145,44.0756,46.7971,126.971,98.8255,102.326,0.000661384,0.0431011,21.0033,115.936,-0.292472,0.0,0.0
588,146.75,44.2847,46.3446,128.863,98.8404,102.328,,0.0430059,,115.826,-0.291432,0.0,0.0
595,148.5,43.7209,46.4812,129.239,98.8275,101.903,,,,115.796,-0.257559,0.0,0.0
602,150.25,43.982,46.5822,131.531,98.8416,101.881,,,,115.746,-0.254564,0.0,0.0
609,152,43.8411,46.5008,129.496,98.8732,102.192,,,,115.696,-0.277455,0.0,0.0
616,153.75,44.2281,46.297,129.388,98.9105,102.091,,,,115.636,-0.265954,0.0,0.0
623,155.5,44.1744,46.6303,127.814,98.9377,101.65,,,,115.566,-0.227305,0.0,0.0
625,156,43.9757,46.3535,127.968,98.9217,102.286,,,,115.566,-0.281076,0.0,0.0