Folder: fsri_materials_database/01_Data/Gypsum_Wallboard/HFM

Note: 01_Data/README.md
# Materials and Products Database
## 01_Data

Raw data generated from each apparatus are included here in plain-text format. The data is organized first by material, next by the short name of test apparatus used, and where applicable additional filtering by test settings.

### material.json

Each material directory contains a json file of the same name as the material. This file links the data stored in the repository as well as data and graphs produced by the accompanying scripts (__02_Scripts__) to the respective landing page for the material on the front-end website.

File: Gypsum_Wallboard_Density_Dry_R1.csv
,Lightweight_Gypsum_Wallboard_DRY_1
Sample Mass [g],219.2
Sample Volume [cm3],510.5
Sample Density [kg/m3],429

File: Gypsum_Wallboard_Density_Wet_R1.csv
,Lightweight_Gypsum_Wallboard_WET_1
Sample Mass [g],252.6
Sample Volume [cm3],510.5
Sample Density [kg/m3],495

File: Gypsum_Wallboard_Density_Wet_R3.csv
,Lightweight_Gypsum_Wallboard_WET_3
Sample Mass [g],263.7
Sample Volume [cm3],529.2
Sample Density [kg/m3],498