Folder: fsri_materials_database/01_Data/PMMA_R03/MCC

Note: 01_Data/README.md
# Materials and Products Database
## 01_Data

Raw data generated from each apparatus are included here in plain-text format. The data is organized first by material, next by the short name of test apparatus used, and where applicable additional filtering by test settings.

### material.json

Each material directory contains a json file of the same name as the material. This file links the data stored in the repository as well as data and graphs produced by the accompanying scripts (__02_Scripts__) to the respective landing page for the material on the front-end website.

File: PMMA_R03_MCC_30K_min_211015_R1.txt
Sample ID:	C:\MCC\MCC Cal\Test\PMMA_R03_MCC_30K_min_211015_R1.txt
Sample Weight (mg):	4.61
Heating Rate (C/s):	0.5
Combustor Temp (C):	900
N2 Flow Rate (cc/min):	80
O2 Flow Rate (cc/min):	20
Calibration File:	C:\MCC\MCC Cal\Coeff1 JN10440_30_210304.txt.txt
T Correction Coefficients:	0	1.024463	0
Time Shift (s):	14
*
Time (s)	Temperature (C)	N2 flow rate (cc/min)	O2 flow rate (cc/min)	Flow Rate (cc/min)	Oxygen (%)	HRR (W/g)	Heating rate (C/s)
0.000	109.718	79.993	19.997	102.702	20.036	0.140	0.008
8.000	109.721	79.993	19.996	102.704	20.036	0.159	-0.001
16.000	109.725	79.993	19.996	102.747	20.027	0.718	-0.009
24.000	109.918	79.996	19.995	102.870	20.011	1.891	0.044
32.000	110.655	79.995	19.995	102.884	20.004	2.344	0.149
40.000	111.808	79.995	19.995	102.902	19.999	2.733	0.137
48.000	113.319	79.995	19.995	102.925	19.998	2.791	0.192
56.000	115.226	79.993	19.996	102.944	19.993	3.107	0.272
64.000	117.424	79.992	19.996	102.962	19.987	3.573	0.296
72.000	119.976	79.994	19.996	102.981	19.983	3.832	0.348
80.000	122.878	79.994	19.996	102.975	19.976	4.330	0.362
88.000	126.021	79.991	19.997	102.979	19.978	4.144	0.384
96.000	129.396	79.996	19.995	102.984	19.972	4.603	0.431
104.000	132.943	79.994	19.996	102.987	19.973	4.534	0.421
112.000	136.726	79.993	19.995	103.001	19.971	4.657	0.492
120.000	140.675	79.995	19.995	102.981	19.966	5.014	0.499
128.000	144.701	79.996	19.996	102.979	19.966	5.018	0.499
136.000	148.756	79.994	19.996	102.976	19.965	5.090	0.511
144.000	152.843	79.994	19.996	102.973	19.957	5.652	0.502
152.000	156.908	79.995	19.996	102.951	19.952	5.951	0.476
160.000	160.900	79.995	19.996	102.955	19.943	6.597	0.484
168.000	164.908	79.994	19.995	102.955	19.941	6.726	0.470
176.000	168.915	79.993	19.996	102.941	19.935	7.177	0.486
184.000	172.909	79.994	19.996	102.938	19.937	7.039	0.485
192.000	176.881	79.993	19.995	102.938	19.938	6.976	0.497
200.000	180.830	79.997	19.995	102.936	19.937	7.048	0.504
208.000	184.785	79.997	19.995	102.933	19.935	7.128	0.523
216.000	188.786	79.994	19.994	102.938	19.939	6.898	0.494
224.000	192.748	79.994	19.995	102.940	19.942	6.668	0.505
232.000	196.761	79.995	19.995	102.940	19.943	6.624	0.512
240.000	200.722	79.993	19.996	102.913	19.946	6.404	0.500
248.000	204.661	79.993	19.996	102.920	19.949	6.172	0.504
256.000	208.696	79.996	19.995	102.931	19.950	6.084	0.497
264.000	212.678	79.995	19.996	102.922	19.951	6.056	0.503
272.000	216.664	79.994	19.996	102.911	19.956	5.708	0.513
280.000	220.610	79.996	19.995	102.909	19.960	5.421	0.469
288.000	224.642	79.994	19.995	102.904	19.964	5.174	0.505
296.000	228.590	79.993	19.995	102.902	19.966	4.992	0.509
304.000	232.663	79.996	19.995	102.902	19.958	5.556	0.502
312.000	236.593	79.993	19.995	102.901	19.956	5.668	0.490
320.000	240.557	79.995	19.996	102.899	19.954	5.869	0.511
328.000	244.528	79.995	19.996	102.897	19.942	6.645	0.482
336.000	248.486	79.995	19.995	102.897	19.921	8.144	0.474
344.000	252.540	79.994	19.996	102.908	19.899	9.636	0.461
352.000	256.496	79.995	19.997	102.912	19.860	12.356	0.509
360.000	260.512	79.995	19.995	102.906	19.823	14.984	0.511
368.000	264.484	79.992	19.994	102.923	19.772	18.506	0.501
376.000	268.475	79.994	19.995	102.936	19.712	22.696	0.530
384.000	272.558	79.994	19.995	102.933	19.647	27.222	0.489
392.000	276.576	79.994	19.995	102.936	19.579	31.951	0.479
400.000	280.527	79.995	19.994	102.939	19.505	37.132	0.499
408.000	284.567	79.994	19.996	102.948	19.441	41.573	0.517
416.000	288.559	79.995	19.995	102.942	19.387	45.334	0.498
424.000	292.637	79.994	19.996	102.940	19.351	47.866	0.493
432.000	296.711	79.994	19.995	102.942	19.347	48.147	0.495
440.000	300.749	79.996	19.996	102.932	19.374	46.204	0.512
448.000	304.773	79.995	19.997	102.917	19.432	42.178	0.492
456.000	308.812	79.994	19.996	102.899	19.515	36.418	0.489
464.000	312.918	79.995	19.995	102.900	19.590	31.189	0.488
472.000	316.927	79.992	19.995	102.902	19.632	28.274	0.478
480.000	320.995	79.992	19.996	102.904	19.622	28.990	0.505
488.000	324.854	79.994	19.995	102.904	19.585	31.558	0.482
496.000	328.849	79.995	19.994	102.940	19.511	36.682	0.473
504.000	332.784	79.995	19.996	102.985	19.397	44.669	0.476
512.000	336.760	79.996	19.995	102.962	19.277	53.008	0.487
520.000	340.626	79.997	19.994	102.946	19.123	63.732	0.474
528.000	344.537	79.994	19.995	103.007	18.900	79.382	0.505
536.000	348.443	79.993	19.996	103.059	18.633	97.971	0.461
544.000	352.423	79.994	19.997	103.012	18.378	115.894	0.522
552.000	356.362	79.992	19.994	103.031	18.196	128.421	0.477
560.000	360.366	79.993	19.996	102.984	18.067	137.350	0.488
568.000	364.407	79.995	19.995	103.161	17.931	147.066	0.508
576.000	368.410	79.996	19.994	103.120	17.847	152.843	0.508
584.000	372.413	79.996	19.995	103.066	17.767	158.437	0.509
592.000	376.414	79.995	19.996	103.094	17.699	163.160	0.501
600.000	380.495	79.995	19.995	103.094	17.670	165.154	0.539
608.000	384.663	79.995	19.996	103.079	17.701	163.000	0.522
616.000	388.950	79.992	19.996	103.057	17.814	155.060	0.533
624.000	393.206	79.994	19.998	103.018	18.018	140.730	0.512
632.000	397.490	79.994	19.996	102.981	18.286	122.010	0.517
640.000	401.756	79.994	19.996	102.941	18.598	100.292	0.532
648.000	405.965	79.995	19.997	102.908	18.911	78.462	0.538
656.000	410.142	79.997	19.995	102.895	19.195	58.640	0.490
664.000	414.325	79.995	19.995	102.862	19.435	41.937	0.519
672.000	418.428	79.996	19.993	102.862	19.623	28.851	0.503
680.000	422.485	79.995	19.996	102.856	19.762	19.216	0.476
688.000	426.586	79.994	19.996	102.840	19.859	12.469	0.495
696.000	430.621	79.994	19.996	102.848	19.919	8.292	0.499
704.000	434.631	79.995	19.996	102.853	19.957	5.631	0.523
712.000	438.596	79.993	19.996	102.837	19.977	4.207	0.489
720.000	442.559	79.994	19.996	102.844	19.989	3.379	0.499
728.000	446.501	79.996	19.995	102.843	19.992	3.221	0.516
736.000	450.459	79.996	19.995	102.857	19.998	2.788	0.462
744.000	454.094	79.995	19.995	102.853	20.000	2.638	-0.078
752.000	458.406	79.997	19.995	102.848	19.998	2.765	0.498
760.000	462.306	79.999	19.994	102.835	19.998	2.756	0.488
768.000	466.123	79.995	19.996	102.857	19.995	3.014	0.464
776.000	470.037	79.995	19.996	102.845	19.997	2.845	0.471
784.000	473.987	79.993	19.996	102.847	19.994	3.018	0.496
792.000	477.941	79.993	19.996	102.856	19.999	2.735	0.513
800.000	481.895	79.993	19.995	102.842	19.996	2.891	0.484
808.000	485.900	79.995	19.995	102.847	19.997	2.868	0.483
816.000	489.907	79.995	19.995	102.843	19.997	2.839	0.524
824.000	494.025	79.996	19.994	102.847	20.001	2.551	0.532
832.000	498.190	79.997	19.997	102.853	20.001	2.581	0.526
840.000	502.489	79.996	19.995	102.852	19.998	2.775	0.516
848.000	506.835	79.994	19.995	102.856	19.994	3.054	0.565
856.000	511.179	79.995	19.995	102.860	19.998	2.761	0.557
864.000	515.554	79.994	19.995	102.850	19.996	2.921	0.546
872.000	519.880	79.993	19.995	102.860	19.998	2.792	0.544
880.000	524.177	79.994	19.995	102.859	19.998	2.750	0.516
888.000	528.513	79.996	19.995	102.857	19.997	2.843	0.555
896.000	532.806	79.996	19.997	102.850	19.996	2.927	0.543
904.000	537.095	79.996	19.995	102.853	19.995	2.952	0.518
912.000	541.316	79.997	19.996	102.853	19.995	3.001	0.514
920.000	545.506	79.995	19.996	102.856	19.991	3.236	0.516
928.000	549.662	79.994	19.994	102.860	19.990	3.295	0.531
936.000	553.875	79.995	19.995	102.856	19.990	3.316	0.549
944.000	558.056	79.996	19.994	102.852	19.992	3.189	0.524
952.000	562.248	79.993	19.995	102.843	19.988	3.456	0.539
960.000	566.295	79.993	19.996	102.844	19.994	3.018	0.522
968.000	570.388	79.996	19.996	102.842	19.988	3.462	0.506
976.000	574.480	79.995	19.996	102.851	19.989	3.422	0.530
984.000	578.473	79.996	19.996	102.845	19.993	3.092	0.456
992.000	582.501	79.996	19.994	102.842	19.986	3.618	0.521
1000.000	586.459	79.996	19.995	102.850	19.989	3.383	0.502
1008.000	590.431	79.993	19.995	102.847	19.984	3.737	0.519
1016.000	594.464	79.994	19.996	102.850	19.989	3.396	0.506
1024.000	598.410	79.997	19.994	102.839	19.990	3.359	0.499
1032.000	602.342	79.995	19.995	102.851	19.987	3.569	0.508
1040.000	606.245	79.995	19.996	102.843	19.984	3.779	0.509
1048.000	610.210	79.997	19.996	102.855	19.987	3.550	0.517
1056.000	614.221	79.994	19.995	102.859	19.988	3.483	0.526
1064.000	618.295	79.994	19.995	102.861	19.984	3.768	0.485
1072.001	622.388	79.997	19.996	102.847	19.986	3.601	0.527
1080.000	626.400	79.995	19.994	102.845	19.986	3.616	0.509
1088.000	630.522	79.995	19.995	102.856	19.985	3.692	0.516
1096.000	634.645	79.995	19.994	102.842	19.985	3.708	0.532
1104.000	638.774	79.993	19.994	102.856	19.985	3.654	0.503
1112.000	642.895	79.995	19.995	102.849	19.982	3.855	0.511
1120.000	646.961	79.992	19.996	102.856	19.987	3.567	0.530
1128.000	651.049	79.997	19.996	102.858	19.985	3.673	0.535
1136.000	655.050	79.995	19.995	102.849	19.981	3.979	0.486
1144.000	658.993	79.995	19.995	102.847	19.979	4.072	0.495
1152.001	662.968	79.997	19.994	102.823	19.978	4.150	0.510
1160.000	666.921	79.996	19.996	102.844	19.977	4.206	0.503
1168.000	670.958	79.993	19.997	102.846	19.978	4.148	0.501
1176.000	675.030	79.994	19.994	102.855	19.976	4.277	0.545
1184.000	679.066	79.994	19.995	102.851	19.970	4.687	0.485
1192.000	683.126	79.993	19.996	102.847	19.977	4.267	0.563
1200.000	687.276	79.995	19.994	102.849	19.971	4.674	0.511
1208.001	691.355	79.997	19.996	102.857	19.973	4.486	0.537
1216.000	695.504	79.994	19.999	102.841	19.973	4.507	0.535
1224.000	699.525	79.993	19.997	102.839	19.971	4.645	0.521
1232.001	703.636	79.996	19.994	102.847	19.968	4.854	0.515
1240.000	707.621	79.995	19.994	102.856	19.968	4.871	0.497
1248.000	711.652	79.985	20.001	102.857	19.965	5.058	0.505
1256.000	715.743	79.994	19.993	102.855	19.969	4.760	0.489
1264.000	719.731	79.996	19.991	102.851	19.968	4.860	0.508
1272.000	723.690	79.997	19.994	102.852	19.967	4.951	0.489
1280.000	727.584	79.991	19.996	102.840	19.963	5.232	0.465
1288.000	731.505	80.002	19.991	102.841	19.967	4.956	0.495
1296.000	735.371	79.992	19.991	102.844	19.961	5.356	0.488
1304.000	739.223	79.997	19.993	102.853	19.963	5.221	0.494
1312.000	743.194	79.996	19.993	102.849	19.964	5.124	0.476
1313.000	743.648	79.995	19.999	102.860	19.966	4.979	0.473

File: PMMA_R03_MCC_30K_min_211015_R2.txt
Sample ID:	C:\MCC\MCC Cal\Test\PMMA_R03_MCC_30K_min_211015_R2.txt
Sample Weight (mg):	4.83
Heating Rate (C/s):	0.5
Combustor Temp (C):	900
N2 Flow Rate (cc/min):	80
O2 Flow Rate (cc/min):	20
Calibration File:	C:\MCC\MCC Cal\Coeff1 JN10440_30_210304.txt.txt
T Correction Coefficients:	0	1.024463	0
Time Shift (s):	14
*
Time (s)	Temperature (C)	N2 flow rate (cc/min)	O2 flow rate (cc/min)	Flow Rate (cc/min)	Oxygen (%)	HRR (W/g)	Heating rate (C/s)
0.000	108.051	80.000	19.995	102.813	19.816	0.205	-0.015
8.000	108.044	79.997	19.996	102.820	19.811	0.490	0.023
16.000	108.108	79.996	19.996	102.900	19.801	1.194	-0.008
24.000	108.352	79.996	19.995	102.937	19.796	1.499	0.058
32.000	108.974	79.997	19.994	102.933	19.788	2.063	0.075
40.000	109.832	79.997	19.996	102.962	19.786	2.153	0.133
48.000	110.959	79.999	19.995	102.987	19.784	2.320	0.196
56.000	112.391	79.998	19.995	103.010	19.780	2.579	0.155
64.000	114.071	79.999	19.993	103.033	19.769	3.313	0.239
72.000	116.105	79.999	19.996	103.054	19.767	3.456	0.263
80.001	118.370	79.998	19.994	103.050	19.762	3.757	0.302
88.000	120.847	79.996	19.995	103.070	19.762	3.795	0.328
96.000	123.712	79.997	19.995	103.078	19.761	3.852	0.371
104.000	126.748	79.999	19.995	103.081	19.760	3.892	0.402
112.000	129.965	79.998	19.995	103.089	19.758	4.073	0.409
120.000	133.315	79.998	19.997	103.087	19.758	4.033	0.420
128.000	136.827	79.998	19.996	103.088	19.754	4.350	0.446
136.000	140.472	79.998	19.994	103.089	19.749	4.677	0.449
144.000	144.220	79.997	19.996	103.080	19.741	5.194	0.491
152.000	148.075	79.998	19.995	103.090	19.738	5.378	0.492
160.000	151.975	80.000	19.994	103.085	19.731	5.819	0.500
168.000	155.893	79.997	19.996	103.077	19.728	6.017	0.511
176.000	159.854	79.997	19.996	103.075	19.721	6.522	0.505
184.000	163.835	79.997	19.995	103.059	19.719	6.635	0.508
192.000	167.898	79.997	19.996	103.051	19.710	7.225	0.504
200.000	171.941	79.995	19.995	103.057	19.710	7.220	0.516
208.000	175.960	79.998	19.995	103.052	19.710	7.238	0.484
216.000	179.999	79.998	19.996	103.050	19.711	7.205	0.510
224.000	184.010	79.998	19.996	103.051	19.720	6.588	0.492
232.000	188.010	79.995	19.996	103.045	19.718	6.709	0.477
240.000	192.066	79.999	19.996	103.046	19.719	6.616	0.525
248.000	195.927	80.000	19.996	103.043	19.720	6.582	0.492
256.000	199.875	79.997	19.995	103.034	19.720	6.581	0.456
264.000	203.820	79.997	19.996	103.048	19.727	6.140	0.490
272.000	207.787	79.997	19.996	103.032	19.731	5.832	0.507
280.000	211.768	79.998	19.995	103.043	19.731	5.870	0.493
288.000	215.721	79.998	19.996	103.027	19.731	5.854	0.481
296.000	219.621	79.998	19.996	103.018	19.728	6.050	0.503
304.000	223.564	79.998	19.997	103.009	19.739	5.292	0.469
312.000	227.394	80.000	19.996	103.014	19.744	4.976	0.542
320.000	231.562	79.998	19.994	103.011	19.739	5.302	0.510
328.000	235.439	80.000	19.994	103.012	19.733	5.710	0.478
336.000	239.365	79.999	19.997	103.015	19.727	6.132	0.508
344.000	243.275	79.999	19.995	103.014	19.708	7.383	0.520
352.000	247.210	79.999	19.995	103.021	19.687	8.771	0.475
360.000	251.213	79.997	19.996	103.023	19.658	10.688	0.510
368.000	255.167	79.997	19.997	103.036	19.619	13.301	0.515
376.000	259.120	79.999	19.996	103.037	19.568	16.678	0.490
384.000	263.088	79.999	19.995	103.045	19.515	20.242	0.534
392.000	267.050	79.999	19.997	103.050	19.450	24.540	0.498
400.000	271.141	80.000	19.997	103.053	19.379	29.295	0.510
408.000	275.136	80.000	19.994	103.062	19.305	34.219	0.490
416.000	279.132	79.997	19.995	103.069	19.229	39.283	0.513
424.000	283.102	79.999	19.996	103.070	19.168	43.362	0.475
432.000	287.170	79.998	19.996	103.070	19.112	47.065	0.517
440.000	291.201	79.999	19.996	103.057	19.093	48.314	0.524
448.000	295.212	79.998	19.996	103.052	19.097	48.065	0.503
456.000	299.255	80.000	19.996	103.048	19.142	45.034	0.490
464.000	303.336	79.997	19.995	103.027	19.224	39.602	0.529
472.000	307.381	79.999	19.996	103.019	19.317	33.389	0.486
480.000	311.484	79.998	19.996	103.050	19.372	29.748	0.535
488.000	315.555	79.999	19.996	103.028	19.386	28.834	0.515
496.000	319.518	79.998	19.997	103.035	19.353	31.031	0.470
504.000	323.499	79.999	19.996	103.049	19.279	35.954	0.475
512.000	327.546	79.999	19.995	103.053	19.198	41.373	0.529
520.000	331.542	79.999	19.996	103.080	19.104	47.645	0.499
528.000	335.582	79.998	19.994	103.073	18.941	58.518	0.514
536.000	339.535	79.997	19.995	103.165	18.712	73.732	0.482
544.000	343.528	80.001	19.995	103.133	18.491	88.416	0.482
552.000	347.570	79.999	19.996	103.195	18.206	107.438	0.516
560.000	351.498	79.999	19.995	103.315	17.968	123.408	0.485
568.000	355.576	80.000	19.995	103.311	17.770	136.510	0.510
576.000	359.632	79.999	19.996	103.175	17.598	148.148	0.483
584.000	363.739	79.999	19.998	103.120	17.523	153.164	0.521
592.000	367.799	80.000	19.996	103.209	17.433	159.088	0.478
600.000	371.896	79.998	19.995	103.231	17.342	165.127	0.500
608.000	376.005	79.998	19.996	103.222	17.275	169.551	0.518
616.000	380.098	79.998	19.995	103.207	17.284	168.923	0.513
624.000	384.141	80.001	19.996	103.175	17.400	161.117	0.498
632.000	388.187	80.001	19.996	103.154	17.613	146.891	0.517
640.000	392.207	80.000	19.997	103.126	17.891	128.333	0.481
648.000	396.340	80.000	19.996	103.081	18.204	107.485	0.528
656.000	400.430	80.000	19.995	103.047	18.530	85.736	0.492
664.000	404.461	79.999	19.996	103.014	18.832	65.623	0.462
672.000	408.568	79.997	19.996	103.002	19.093	48.304	0.496
680.000	412.652	79.999	19.996	102.975	19.311	33.789	0.519
688.000	416.618	79.998	19.996	102.970	19.471	23.142	0.518
696.000	420.687	79.999	19.997	102.972	19.585	15.543	0.518
704.000	424.698	80.002	19.996	102.961	19.665	10.213	0.506
712.000	428.721	80.000	19.995	102.963	19.719	6.624	0.493
720.000	432.776	80.001	19.996	102.971	19.750	4.572	0.479
728.000	436.888	80.001	19.995	102.971	19.771	3.187	0.519
736.000	440.935	79.998	19.994	102.972	19.776	2.829	0.474
744.000	445.006	79.997	19.996	102.965	19.781	2.508	0.512
752.000	449.041	79.998	19.996	102.960	19.782	2.459	0.502
760.000	453.140	79.998	19.997	102.967	19.787	2.150	0.525
768.000	457.258	79.997	19.997	102.956	19.792	1.778	0.525
776.000	461.318	79.999	19.996	102.956	19.784	2.332	0.512
784.000	465.364	80.000	19.995	102.965	19.788	2.022	0.478
792.000	469.449	80.001	19.995	102.963	19.786	2.177	0.546
800.000	473.595	79.999	19.996	102.960	19.788	2.034	0.530
808.000	477.714	80.001	19.994	102.957	19.784	2.288	0.517
816.000	481.818	80.001	19.994	102.959	19.788	2.070	0.515
824.000	485.856	79.998	19.995	102.961	19.784	2.312	0.517
832.000	489.998	80.000	19.997	102.964	19.791	1.829	0.539
840.000	494.125	80.000	19.995	102.960	19.790	1.913	0.519
848.000	498.337	80.000	19.996	102.968	19.793	1.729	0.534
856.000	502.441	79.998	19.996	102.966	19.791	1.838	0.508
864.000	506.529	79.998	19.997	102.964	19.791	1.862	0.533
872.000	510.587	80.000	19.995	102.956	19.787	2.140	0.473
880.000	514.677	80.001	19.996	102.961	19.788	2.054	0.514
888.000	518.792	80.000	19.996	102.947	19.793	1.717	0.511
896.000	522.861	80.002	19.995	102.966	19.792	1.798	0.495
904.000	526.985	79.999	19.996	102.947	19.788	2.083	0.513
912.000	531.038	80.000	19.995	102.962	19.791	1.874	0.498
920.000	535.193	79.998	19.995	102.939	19.786	2.176	0.508
928.000	539.329	79.998	19.996	102.968	19.786	2.181	0.528
936.000	543.394	79.999	19.995	102.963	19.786	2.183	0.532
944.000	547.483	79.998	19.997	102.952	19.783	2.377	0.532
952.000	551.575	80.001	19.996	102.949	19.786	2.186	0.507
960.000	555.756	79.999	19.995	102.942	19.786	2.217	0.544
968.000	559.810	80.000	19.996	102.948	19.791	1.882	0.529
976.000	563.941	80.002	19.995	102.959	19.787	2.087	0.509
984.000	568.059	79.998	19.994	102.957	19.791	1.865	0.530
992.000	572.184	79.999	19.995	102.943	19.792	1.773	0.562
1000.000	576.361	80.000	19.994	102.945	19.789	1.970	0.488
1008.000	580.478	80.001	19.995	102.945	19.794	1.651	0.554
1016.000	584.546	79.999	19.996	102.942	19.792	1.762	0.482
1024.000	588.667	79.999	19.996	102.946	19.795	1.582	0.508
1032.000	592.735	80.001	19.994	102.938	19.795	1.558	0.519
1040.000	596.836	79.999	19.996	102.939	19.796	1.549	0.509
1048.000	600.912	79.997	19.995	102.941	19.792	1.783	0.516
1056.000	604.955	80.001	19.995	102.932	19.791	1.831	0.535
1064.000	608.967	80.001	19.995	102.938	19.789	1.992	0.532
1072.000	613.085	79.997	19.996	102.933	19.789	1.997	0.508
1080.000	617.109	79.998	19.995	102.933	19.789	1.976	0.510
1088.000	621.256	79.998	19.995	102.932	19.789	1.963	0.510
1096.000	625.284	79.998	19.994	102.933	19.790	1.907	0.490
1104.000	629.394	79.997	19.995	102.937	19.795	1.615	0.498
1112.000	633.508	79.998	19.995	102.936	19.792	1.818	0.505
1120.000	637.597	79.999	19.995	102.932	19.791	1.849	0.493
1128.000	641.721	79.999	19.996	102.939	19.793	1.745	0.553
1136.000	645.747	80.000	19.997	102.931	19.798	1.357	0.498
1144.000	649.812	80.003	19.996	102.930	19.797	1.439	0.516
1152.000	653.916	79.999	19.996	102.931	19.796	1.524	0.478
1160.000	657.970	79.999	19.996	102.935	19.792	1.754	0.502
1168.000	662.063	79.998	19.996	102.937	19.794	1.629	0.514
1176.001	666.097	79.998	19.995	102.933	19.793	1.743	0.506
1184.000	670.156	79.998	19.995	102.928	19.794	1.633	0.512
1192.000	674.226	80.000	19.995	102.936	19.794	1.631	0.541
1200.000	678.312	80.000	19.996	102.935	19.792	1.771	0.533
1208.000	682.360	80.000	19.996	102.931	19.791	1.870	0.508
1216.000	686.425	80.001	19.996	102.931	19.794	1.643	0.475
1224.000	690.503	80.000	19.996	102.938	19.792	1.776	0.518
1232.001	694.606	79.999	19.996	102.931	19.793	1.751	0.472
1240.000	698.693	79.999	19.995	102.935	19.789	1.976	0.504
1248.000	702.812	79.999	19.995	102.938	19.789	1.970	0.517
1256.000	706.944	79.999	19.995	102.934	19.793	1.689	0.510
1264.000	711.017	79.998	19.995	102.939	19.792	1.814	0.516
1272.001	715.125	80.000	19.995	102.931	19.792	1.809	0.522
1280.000	719.265	80.000	19.995	102.930	19.790	1.925	0.514
1288.000	723.267	80.001	19.995	102.932	19.793	1.689	0.484
1296.000	727.307	80.001	19.995	102.928	19.790	1.892	0.482
1304.000	731.359	80.000	19.995	102.934	19.790	1.930	0.496
1312.000	735.411	80.003	19.995	102.930	19.791	1.863	0.526
1320.000	739.437	79.998	19.997	102.931	19.792	1.792	0.460
1328.000	743.525	80.001	19.996	102.933	19.791	1.874	0.506