Folder: fsri_materials_database/01_Data/PUF_82C/MCC

Note: 01_Data/README.md
# Materials and Products Database
## 01_Data

Raw data generated from each apparatus are included here in plain-text format. The data is organized first by material, next by the short name of test apparatus used, and where applicable additional filtering by test settings.

### material.json

Each material directory contains a json file of the same name as the material. This file links the data stored in the repository as well as data and graphs produced by the accompanying scripts (__02_Scripts__) to the respective landing page for the material on the front-end website.

File: PUF_82C_MCC_30K_min_220308_R2.txt
Sample ID:	C:\MCC\MCC Cal\Test\PUF_82C_MCC_30K_min_220308_R2.txt
Sample Weight (mg):	4.28
Heating Rate (C/s):	0.5
Combustor Temp (C):	900
N2 Flow Rate (cc/min):	80
O2 Flow Rate (cc/min):	20
Calibration File:	C:\MCC\MCC Cal\Coeff1 JN10440_30_210304.txt.txt
T Correction Coefficients:	0	1.024463	0
Time Shift (s):	14
*
Time (s)	Temperature (C)	N2 flow rate (cc/min)	O2 flow rate (cc/min)	Flow Rate (cc/min)	Oxygen (%)	HRR (W/g)	Heating rate (C/s)
0.000	107.370	80.004	19.995	103.669	19.869	0.121	0.031
7.500	107.306	80.006	19.995	103.703	19.860	0.793	-0.002
15.001	107.464	80.006	19.994	103.764	19.850	1.621	0.044
22.500	107.873	80.007	19.995	103.860	19.833	2.907	0.094
30.000	108.800	80.009	19.993	103.866	19.831	3.033	0.124
37.500	110.072	80.007	19.994	103.901	19.825	3.476	0.188
45.000	111.748	80.005	19.994	103.904	19.818	3.997	0.240
52.500	113.749	80.007	19.993	103.932	19.816	4.183	0.263
60.001	116.050	80.006	19.993	103.922	19.812	4.490	0.305
67.501	118.624	80.006	19.993	103.934	19.815	4.241	0.368
75.000	121.389	80.004	19.992	103.947	19.811	4.503	0.355
82.501	124.380	80.004	19.994	103.948	19.814	4.334	0.398
90.000	127.578	80.007	19.993	103.944	19.814	4.299	0.427
97.500	130.917	80.007	19.994	103.941	19.811	4.505	0.403
105.000	134.369	80.006	19.994	103.942	19.808	4.760	0.399
112.500	137.985	80.007	19.994	103.943	19.810	4.620	0.513
120.000	141.685	80.008	19.993	103.937	19.810	4.638	0.514
127.500	145.428	80.005	19.994	103.936	19.814	4.293	0.500
135.000	149.209	80.006	19.995	103.926	19.815	4.219	0.541
142.500	153.001	80.007	19.994	103.927	19.818	4.017	0.487
150.000	156.794	80.008	19.993	103.912	19.819	3.904	0.520
157.500	160.574	80.007	19.993	103.906	19.822	3.704	0.503
165.000	164.396	80.006	19.994	103.906	19.823	3.657	0.492
172.500	168.214	80.009	19.993	103.892	19.823	3.616	0.487
180.000	171.988	80.007	19.992	103.893	19.823	3.632	0.500
187.500	175.725	80.008	19.993	103.898	19.824	3.558	0.562
195.000	179.380	80.008	19.993	103.901	19.817	4.047	0.535
202.500	183.034	80.008	19.994	103.878	19.819	3.969	0.456
210.000	186.794	80.007	19.993	103.878	19.816	4.133	0.525
217.500	190.469	80.007	19.993	103.872	19.816	4.135	0.482
225.000	194.087	80.007	19.994	103.870	19.816	4.131	0.452
232.500	197.770	80.006	19.994	103.871	19.817	4.096	0.513
240.000	201.485	80.006	19.992	103.871	19.818	4.043	0.506
247.500	205.213	80.006	19.992	103.871	19.823	3.596	0.497
255.000	208.987	80.006	19.993	103.870	19.826	3.364	0.481
262.500	212.738	80.006	19.993	103.870	19.819	3.952	0.510
270.000	216.513	80.007	19.993	103.870	19.819	3.919	0.431
277.500	220.238	80.008	19.992	103.871	19.817	4.048	0.529
285.000	223.964	80.009	19.992	103.859	19.818	4.009	0.508
292.500	227.765	80.005	19.993	103.861	19.819	3.933	0.534
300.000	231.593	80.007	19.994	103.858	19.816	4.135	0.534
307.500	235.334	80.007	19.994	103.859	19.818	3.990	0.484
315.000	239.163	80.007	19.994	103.849	19.823	3.600	0.502
322.500	242.909	80.005	19.994	103.838	19.817	4.066	0.507
330.000	246.650	80.005	19.995	103.841	19.819	3.949	0.469
337.500	250.395	80.007	19.993	103.835	19.821	3.757	0.501
345.000	254.092	80.007	19.994	103.832	19.823	3.657	0.490
352.500	257.735	80.007	19.994	103.838	19.825	3.508	0.500
360.000	261.446	80.009	19.992	103.831	19.822	3.704	0.491
367.500	265.124	80.009	19.992	103.833	19.823	3.624	0.480
375.000	268.796	80.006	19.992	103.835	19.822	3.703	0.500
382.500	272.599	80.005	19.994	103.835	19.824	3.552	0.539
390.000	276.358	80.005	19.994	103.832	19.825	3.490	0.516
397.500	280.145	80.006	19.994	103.834	19.825	3.502	0.481
405.000	283.910	80.005	19.994	103.833	19.821	3.811	0.497
412.500	287.709	80.005	19.995	103.829	19.824	3.564	0.503
420.000	291.435	80.005	19.994	103.827	19.823	3.619	0.466
427.500	295.297	80.008	19.993	103.825	19.828	3.212	0.537
435.000	299.066	80.007	19.993	103.828	19.828	3.284	0.502
442.500	302.882	80.008	19.993	103.827	19.826	3.373	0.515
450.000	306.664	80.009	19.992	103.828	19.827	3.342	0.508
457.500	310.484	80.006	19.993	103.823	19.830	3.124	0.563
465.000	314.282	80.006	19.993	103.829	19.828	3.218	0.519
472.500	318.100	80.007	19.994	103.829	19.828	3.216	0.528
480.000	321.818	80.006	19.994	103.816	19.828	3.222	0.498
487.500	325.571	80.007	19.994	103.825	19.824	3.525	0.475
495.000	329.344	80.006	19.995	103.818	19.828	3.271	0.502
502.500	333.111	80.007	19.995	103.816	19.828	3.265	0.533
510.000	336.893	80.007	19.997	103.815	19.829	3.148	0.487
517.500	340.620	80.006	19.994	103.815	19.826	3.420	0.476
525.000	344.388	80.007	19.993	103.810	19.827	3.303	0.531
532.500	348.123	80.009	19.992	103.819	19.825	3.442	0.526
540.000	351.946	80.007	19.993	103.826	19.824	3.539	0.540
547.500	355.821	80.006	19.994	103.817	19.820	3.882	0.558
555.000	359.597	80.007	19.993	103.813	19.818	4.008	0.539
562.500	363.389	80.006	19.992	103.818	19.819	3.926	0.527
570.000	367.180	80.005	19.994	103.826	19.810	4.621	0.509
577.500	371.033	80.005	19.994	103.821	19.797	5.610	0.514
585.000	374.931	80.008	19.993	103.827	19.780	6.898	0.552
592.500	378.688	80.008	19.993	103.829	19.761	8.319	0.491
600.000	382.491	80.005	19.994	103.831	19.744	9.607	0.507
607.500	386.313	80.007	19.996	103.838	19.713	11.928	0.523
615.000	390.115	80.009	19.994	103.846	19.678	14.639	0.478
622.500	393.985	80.007	19.995	103.868	19.638	17.629	0.537
630.000	397.911	80.008	19.993	103.886	19.586	21.593	0.492
637.500	401.760	80.007	19.992	103.899	19.526	26.156	0.526
645.000	405.642	80.006	19.995	103.910	19.470	30.393	0.517
652.500	409.462	80.006	19.994	103.984	19.376	37.544	0.499
660.000	413.311	80.006	19.992	103.973	19.245	47.522	0.512
667.500	417.049	80.007	19.993	104.098	19.121	56.882	0.506
675.000	420.860	80.006	19.993	104.100	18.948	70.113	0.549
682.500	424.574	80.006	19.996	104.194	18.787	82.396	0.499
690.000	428.301	80.007	19.994	104.407	18.429	109.895	0.497
697.500	432.105	80.008	19.993	104.247	18.163	130.588	0.530
705.000	435.891	80.005	19.996	104.452	17.873	152.027	0.521
712.500	439.680	80.005	19.993	104.428	17.347	192.757	0.490
720.000	443.506	80.006	19.993	104.784	17.315	195.127	0.518
727.500	447.401	80.007	19.992	104.744	17.363	191.285	0.538
735.000	451.307	80.005	19.994	104.657	17.482	182.063	0.506
742.500	455.182	80.006	19.994	104.590	17.726	163.281	0.514
750.000	459.052	80.008	19.993	104.476	18.067	137.162	0.485
757.500	462.916	80.008	19.994	104.348	18.455	107.520	0.513
765.000	466.720	80.006	19.995	104.205	18.869	76.002	0.510
772.500	470.595	80.009	19.993	104.112	19.199	50.913	0.515
780.000	474.471	80.007	19.993	104.009	19.408	35.088	0.496
787.500	478.340	80.006	19.994	103.945	19.544	24.742	0.499
795.000	482.229	80.006	19.994	103.910	19.631	18.147	0.530
802.500	486.099	80.005	19.995	103.885	19.687	13.951	0.507
810.000	489.992	80.007	19.993	103.859	19.725	11.021	0.537
817.500	493.898	80.005	19.993	103.828	19.752	9.018	0.511
825.001	497.862	80.005	19.993	103.822	19.776	7.191	0.531
832.500	501.764	80.009	19.993	103.803	19.783	6.669	0.536
840.000	505.631	80.008	19.992	103.798	19.792	5.982	0.498
847.500	509.473	80.007	19.992	103.793	19.800	5.341	0.503
855.000	513.262	80.006	19.994	103.789	19.803	5.117	0.510
862.500	517.152	80.007	19.993	103.789	19.802	5.244	0.496
870.001	520.914	80.007	19.993	103.782	19.801	5.279	0.531
877.500	524.584	80.007	19.994	103.788	19.809	4.703	0.468
885.001	528.376	80.005	19.994	103.785	19.803	5.116	0.549
892.500	532.667	80.007	19.995	103.783	19.802	5.213	0.657
900.000	535.879	80.006	19.995	103.779	19.805	5.003	0.504
907.500	539.347	80.006	19.993	103.778	19.806	4.876	0.499
915.000	543.116	80.009	19.993	103.773	19.804	5.065	0.459
922.500	546.805	80.008	19.992	103.776	19.802	5.233	0.535
930.000	550.472	80.008	19.993	103.783	19.803	5.102	0.461
937.500	554.224	80.010	19.993	103.784	19.806	4.903	0.500
945.000	558.025	80.009	19.992	103.781	19.807	4.800	0.496
952.500	561.908	80.008	19.993	103.782	19.805	4.991	0.524
960.000	565.768	80.007	19.994	103.784	19.799	5.456	0.544
967.500	569.753	80.007	19.994	103.784	19.799	5.410	0.552
975.000	573.761	80.008	19.993	103.770	19.804	5.040	0.534
982.500	577.835	80.006	19.996	103.768	19.803	5.139	0.516
990.001	581.906	80.008	19.993	103.782	19.804	5.083	0.547
997.500	585.934	80.008	19.994	103.772	19.801	5.316	0.556
1005.000	589.840	80.009	19.993	103.756	19.799	5.421	0.552
1012.500	593.681	80.007	19.993	103.769	19.798	5.547	0.531
1020.000	597.515	80.009	19.993	103.772	19.798	5.545	0.515
1027.500	601.296	80.009	19.993	103.779	19.799	5.469	0.485
1035.000	605.133	80.008	19.993	103.781	19.794	5.839	0.507
1042.500	608.941	80.006	19.994	103.761	19.794	5.818	0.507
1050.000	612.705	80.007	19.994	103.752	19.801	5.268	0.516
1057.500	616.431	80.005	19.993	103.758	19.798	5.488	0.539
1065.000	620.181	80.006	19.993	103.758	19.795	5.706	0.479
1072.500	624.032	80.006	19.994	103.755	19.795	5.742	0.534
1080.000	627.930	80.009	19.994	103.763	19.797	5.567	0.519
1087.500	631.853	80.007	19.994	103.751	19.801	5.298	0.531
1095.000	635.889	80.008	19.994	103.754	19.802	5.226	0.535
1102.500	639.851	80.009	19.994	103.757	19.804	5.062	0.539
1110.001	643.749	80.007	19.993	103.756	19.805	4.965	0.526
1117.501	647.588	80.005	19.994	103.755	19.804	5.058	0.514
1125.000	651.428	80.005	19.994	103.756	19.803	5.105	0.523
1132.500	655.250	80.009	19.993	103.751	19.808	4.728	0.490
1140.000	659.012	80.006	19.993	103.751	19.806	4.899	0.495
1147.500	662.729	80.006	19.994	103.749	19.808	4.761	0.479
1155.000	666.396	80.008	19.994	103.750	19.814	4.273	0.520
1162.501	670.239	80.008	19.994	103.755	19.809	4.665	0.664
1170.000	674.041	80.007	19.995	103.754	19.808	4.780	0.627
1177.500	677.973	80.006	19.994	103.751	19.810	4.591	0.523
1185.000	681.921	80.009	19.993	103.751	19.812	4.484	0.544
1192.501	685.724	80.009	19.992	103.750	19.810	4.572	0.492
1200.001	689.600	80.007	19.993	103.749	19.811	4.527	0.517
1207.500	693.335	80.007	19.993	103.748	19.813	4.387	0.510
1215.000	697.139	80.006	19.994	103.747	19.809	4.673	0.514
1222.501	700.921	80.007	19.994	103.745	19.814	4.338	0.500
1230.001	704.671	80.006	19.993	103.751	19.813	4.379	0.450
1237.500	708.451	80.007	19.994	103.753	19.815	4.256	0.478
1245.000	712.267	80.009	19.994	103.750	19.809	4.673	0.508
1252.500	716.066	80.006	19.993	103.753	19.811	4.498	0.505
1260.000	719.897	80.008	19.994	103.751	19.811	4.564	0.548
1267.500	723.640	80.009	19.994	103.746	19.812	4.451	0.528
1275.000	727.457	80.008	19.994	103.745	19.813	4.385	0.529
1282.500	731.235	80.007	19.993	103.749	19.814	4.332	0.496
1290.001	735.046	80.006	19.994	103.745	19.808	4.784	0.492
1297.500	738.938	80.006	19.993	103.747	19.809	4.712	0.517
1305.000	742.813	80.006	19.994	103.747	19.809	4.679	0.520
1306.001	743.321	80.007	19.993	103.748	19.810	4.584	0.538