Folder: fsri_materials_database/01_Data/HDPE/Cone (part 3)

File: HDPE_Cone_HF25Scan_220218_R4.csv
Names,Time,Stack TC,Smoke TC,Exh Press,Smoke Comp,Smoke Meas,CO Meter,CO2 Meter,O2 Meter,Sample Mass,Ext Coeff,Start Test,Flame Verif
Chan Gain,,500,500,1,1,1,1,1,1,1,1,1.0,1.0
Offset,,0,0,0.132436,0,0,0,0,0,0,0,0.0,0.0
Gain,,1,1,25.011,15.4219,15.1528,1,1,1,1.00089,1.02113,1.0,1.0
Units,sec,C,C,Pa,%,%,%,%,%,g,/m,,
Baseline,,25.2919,24.0949,164.58,115.676,112.515,-0.00880648,0.0568296,20.9836,-478.314,0.248077,,
21,5,21.262,20.5088,166.011,115.817,113.125,-0.00864463,0.0631542,20.9783,426.438,0.210675,0.0,0.0
42,10.25,21.4091,20.2243,167.888,115.813,113.545,-0.00896171,0.0610207,20.9816,426.378,0.177161,0.0,0.0
63,15.5,21.6582,20.9523,161.811,115.779,113.027,-0.00899291,0.0613601,20.9805,426.398,0.215491,0.0,0.0
84,20.75,21.3249,21.0113,165.753,115.73,113.094,-0.00873241,0.0662059,20.9651,426.358,0.206391,0.0,0.0
105,26,21.9465,21.5694,164.652,115.689,113.127,-0.00877295,0.0726865,20.9551,426.388,0.200586,0.0,0.0
126,31.25,21.6917,21.0737,166.571,115.628,113.349,-0.00898562,0.0722851,20.961,426.368,0.178325,0.0,0.0
147,36.5,21.6208,20.9315,168.166,115.582,112.936,-0.00879835,0.070658,20.964,426.368,0.207444,0.0,0.0
168,41.75,21.3764,20.5841,168.473,115.566,112.981,-0.00855613,0.0687911,20.9675,426.358,0.202611,0.0,0.0
189,47,21.6476,20.9765,163.292,115.537,113.286,-0.00884015,0.0663695,20.9727,429.09,0.176294,0.0,0.0
210,52.25,21.5975,20.9476,164.485,115.523,112.522,-0.00907218,0.0656491,20.972,434.315,0.23577,0.0,0.0
231,57.5,21.63,21.3785,165.298,115.515,113.36,-0.00876101,0.0662112,20.9698,448.968,0.168622,0.0,0.0
252,62.75,21.4376,21.1952,166.976,115.513,113.069,-0.00863336,0.0671273,20.9692,459.457,0.191562,0.0,0.0
273,68,21.166,20.9553,167.229,115.481,113.099,-0.00855117,0.0681581,20.9678,457.255,0.186735,0.0,0.0
294,73.25,21.6206,20.8224,163.803,115.498,112.786,-0.008541,0.0682899,20.9695,445.785,0.212841,0.0,0.0
315,78.5,21.9141,21.4325,165.866,115.517,113.076,-0.00854057,0.0638417,20.9784,433.664,0.19134,0.0,0.0
336,83.75,21.4863,21.3681,163.897,115.59,113.354,-0.00865786,0.0612711,20.9798,425.217,0.175006,0.0,0.0
357,89,22.2924,21.2309,162.011,115.633,113.831,-0.00849734,0.0625332,20.9745,412.185,0.14073,0.0,0.0
378,94.25,22.1339,21.6296,160.433,115.653,112.964,-0.0081906,0.0660285,20.9683,418.561,0.210713,0.0,0.0
399,99.5,21.6865,21.3957,165.832,115.597,113.457,-0.00858035,0.0696773,20.9645,420.663,0.167372,0.0,0.0
420,104.75,21.9593,21.6171,166.355,115.511,112.964,-0.00870539,0.0703728,20.9629,420.162,0.199735,0.0,0.0
441,110,22.2874,21.6484,162.676,115.503,113.017,-0.00836757,0.0720439,20.9611,424.246,0.194899,0.0,0.0
462,115.25,21.9283,21.7027,165.597,115.506,113.152,-0.00813071,0.0748532,20.9567,426.298,0.184422,0.0,0.0
483,120.5,22.0064,21.2888,167.591,115.532,112.348,-0.00775326,0.0785408,20.9493,426.258,0.250314,0.0,0.0
504,125.75,22.1176,21.9465,163.876,115.554,112.254,-0.00767926,0.0821075,20.9443,426.258,0.259518,0.0,0.0
525,131,22.4539,22.3918,167.855,115.57,112.973,-0.00778022,0.085702,20.9351,426.207,0.203525,0.0,0.0
546,136.25,22.8564,22.4115,163.396,115.602,111.936,-0.00797046,0.0947859,20.9174,426.167,0.288624,0.0,0.0
567,141.5,22.7968,23.3413,163.648,115.646,112.111,-0.00782883,0.107698,20.8905,426.097,0.278073,0.0,1.0
588,146.75,24.3175,24.3311,160.705,115.679,111.553,-0.00765152,0.123651,20.8606,426.057,0.325366,0.0,0.0
609,152,24.9484,25.439,157.882,115.713,111.16,-0.00793055,0.140805,20.8286,425.887,0.359571,0.0,1.0
630,157.25,25.5908,26.7427,153.909,115.766,109.643,-0.00764738,0.161179,20.7958,425.877,0.486823,0.0,0.0
651,162.5,27.0056,27.8759,154.554,115.801,109.478,-0.00777544,0.189796,20.7407,425.737,0.502902,0.0,0.0
672,167.75,28.7197,29.5136,152.723,115.833,107.892,-0.00729561,0.218903,20.6925,425.567,0.636136,0.0,0.0
693,173,30.0187,31.9082,148.96,115.844,106.928,-0.00701834,0.245168,20.6426,425.407,0.717378,0.0,0.0
714,178.25,31.7962,34.1809,147.466,115.809,104.316,-0.00661648,0.275532,20.5942,425.167,0.936188,0.0,0.0
735,183.5,34.3004,36.6078,148.37,115.805,101.408,-0.00564392,0.314258,20.5154,424.956,1.18909,0.0,0.0
756,188.75,36.323,39.3327,141.914,115.763,100.554,-0.00479333,0.354578,20.4415,424.706,1.26164,0.0,0.0
777,194,38.7312,42.8445,143.477,115.688,96.271,-0.00377076,0.401164,20.3466,424.366,1.64571,0.0,0.0
798,199.25,42.2787,46.4308,135.628,115.583,98.0018,-0.00249711,0.468524,20.2115,424.016,1.47796,0.0,0.0
819,204.5,46.627,51.1455,128.176,115.425,98.7612,-0.00193663,0.548596,20.0869,423.575,1.39657,0.0,0.0
840,209.75,50.8882,56.9456,127.063,115.226,96.7588,-0.00178492,0.626733,19.9576,423.145,1.56457,0.0,0.0
861,215,55.2726,62.9579,125.099,114.986,96.3847,-0.00145122,0.684451,19.8614,422.664,1.58059,0.0,0.0
882,220.25,60.4917,68.6643,123.455,114.76,93.5949,-0.000633366,0.751438,19.7482,422.144,1.82607,0.0,0.0
903,225.5,66.0783,74.8139,124.136,114.556,90.4874,0.000469312,0.82305,19.64,421.573,2.11256,0.0,0.0
924,230.75,71.2263,80.8238,122.421,114.404,92.3431,0.00112381,0.885864,19.5441,421.053,1.91883,0.0,0.0
945,236,76.2224,87.3755,114.176,114.289,89.0349,0.00178594,0.939095,19.4546,420.382,2.23661,0.0,0.0
966,241.25,80.6693,93.3389,112.87,114.203,89.2365,0.0023869,1.00538,19.3518,419.812,2.20968,0.0,0.0
987,246.5,85.2705,99.7891,110.706,114.163,90.4106,0.00386115,1.07895,19.2259,419.091,2.08945,0.0,0.0
1008,251.75,91.0099,106.387,104.98,114.196,86.5961,0.00467814,1.14398,19.134,418.381,2.47812,0.0,0.0
1029,257,96.1194,111.941,107.514,114.27,85.5214,0.00544643,1.21463,19.0109,417.69,2.59578,0.0,0.0
1050,262.25,101.636,118.75,108.855,114.383,84.8555,0.00621356,1.28028,18.8913,416.929,2.67464,0.0,0.0
1071,267.5,106.969,126.214,100.951,114.554,88.2076,0.00745127,1.35682,18.792,416.119,2.34097,0.0,0.0
1092,272.75,112.601,133.041,114.666,114.741,87.2037,0.00861997,1.42833,18.6933,415.288,2.4581,0.0,0.0
1113,278,117.646,140.083,104.946,114.925,88.2872,0.00940823,1.49166,18.5892,414.467,2.36193,0.0,0.0
1134,283.25,123.66,146.628,103.575,115.103,86.3255,0.0104674,1.56611,18.4718,413.556,2.57701,0.0,0.0
1155,288.5,128.466,152.952,97.1225,115.297,85.6412,0.011378,1.63391,18.3659,412.796,2.66338,0.0,0.0
1176,293.75,133.974,160.593,104.1,115.456,84.6821,0.0123432,1.72822,18.2199,411.815,2.77661,0.0,0.0
1197,299,139.935,167.231,97.7842,115.559,84.7371,0.0139163,1.80368,18.1124,410.864,2.77878,0.0,0.0
1218,304.25,144.843,174.709,88.328,115.705,84.5119,0.0157732,1.90062,17.9434,409.863,2.81395,0.0,0.0
1239,309.5,151.027,182.404,95.2326,115.83,84.8809,0.0181932,2.01812,17.7421,408.822,2.78458,0.0,0.0
1260,314.75,156.773,190.65,86.0244,115.94,83.4696,0.0189645,2.11359,17.6265,407.811,2.94327,0.0,0.0
1281,320,163.136,197.62,91.5864,116.066,85.1496,0.0192132,2.16333,17.5894,406.82,2.77449,0.0,0.0
1302,325.25,167.07,204.236,90.4125,116.186,85.6416,0.0189237,2.19605,17.553,405.709,2.73217,0.0,0.0
1323,330.5,171.586,209.786,92.6481,116.271,83.7568,0.0186882,2.23989,17.5008,404.698,2.93804,0.0,0.0
1344,335.75,175.212,214.414,94.3937,116.336,83.2111,0.0187152,2.25706,17.4818,403.617,3.00159,0.0,0.0
1365,341,178.883,218.939,88.2639,116.391,84.2793,0.0194473,2.2962,17.4218,402.597,2.89157,0.0,0.0
1386,346.25,182.379,222.446,94.1518,116.431,82.5221,0.0201481,2.29222,17.4571,401.536,3.08338,0.0,0.0
1407,351.5,184.764,226.022,89.2531,116.469,84.0795,0.0201225,2.28103,17.4782,400.445,2.91884,0.0,0.0
1428,356.75,186.834,229.207,103.259,116.499,84.7343,0.019402,2.23937,17.5859,399.434,2.85166,0.0,0.0
1449,362,187.693,229.089,104.699,116.521,84.147,0.0165827,2.09993,17.8661,398.543,2.91566,0.0,0.0
1470,367.25,186.654,227.024,96.4172,116.546,85.3655,0.0140179,1.92822,18.1869,397.672,2.78877,0.0,0.0
1491,372.5,184.075,222.499,99.0932,116.58,86.5114,0.0114025,1.738,18.5168,396.882,2.67197,0.0,0.0
1512,377.75,179.818,215.466,108.659,116.587,88.074,0.00785375,1.49846,18.923,396.261,2.51217,0.0,0.0
1533,383,172.902,206.024,117.203,116.611,88.4638,0.00518504,1.2388,19.379,395.72,2.47446,0.0,0.0
1554,388.25,163.555,193.809,134.897,116.627,88.1877,0.00239499,0.939643,19.8994,395.35,2.50369,0.0,0.0
1575,393.5,151.723,177.473,154.208,116.636,107.775,-0.00254077,0.596687,20.5571,395.33,0.707728,0.0,0.0
1596,398.75,138.371,160.096,152.939,116.632,108.524,-0.00557292,0.349703,20.8719,395.36,0.645321,0.0,0.0
1617,404,127.383,146.062,158.274,116.631,107.856,-0.00700124,0.23995,20.9479,395.34,0.700646,0.0,0.0
1638,409.25,117.89,133.354,153.329,116.627,109.006,-0.00764101,0.184089,20.9649,395.37,0.605278,0.0,0.0
1659,414.5,108.03,121.899,156.408,116.631,108.297,-0.00778452,0.151017,20.971,395.33,0.664083,0.0,0.0
1680,419.75,101.141,112.596,157.745,116.613,108.388,-0.00794147,0.127862,20.9769,395.38,0.65518,0.0,0.0
1701,425,94.163,102.862,157.977,116.633,109.491,-0.00822373,0.110492,20.9811,395.41,0.565976,0.0,0.0
1722,430.25,87.9641,95.6811,157.784,116.596,108.978,-0.00850596,0.0977122,20.9863,395.35,0.605284,0.0,0.0
1743,435.5,83.1312,89.4626,155.471,116.605,109.736,-0.00838627,0.0882112,20.9881,395.36,0.543779,0.0,0.0
1764,440.75,78.3945,83.538,158.409,116.602,110.391,-0.00859302,0.0809989,20.9878,395.4,0.490308,0.0,0.0
1785,446,74.1232,78.0315,161.553,116.58,110.825,-0.00868018,0.0755715,20.988,395.38,0.453447,0.0,0.0
1806,451.25,70.6306,72.8888,155.853,116.577,110.274,-0.00862965,0.0715548,20.9886,395.39,0.497855,0.0,0.0
1827,456.5,66.6365,69.0716,159.672,116.579,110.025,-0.00868717,0.0684973,20.9868,395.4,0.518306,0.0,0.0
1848,461.75,63.3851,65.0612,159.194,116.553,109.242,-0.00874489,0.0655977,20.9869,395.38,0.580279,0.0,0.0
1869,467,61.3823,61.7187,159.87,116.535,110.029,-0.00878857,0.06352,20.9881,395.38,0.514603,0.0,0.0
1890,472.25,58.664,59.0051,154.138,116.523,110.219,-0.00880662,0.0618818,20.9867,395.4,0.498203,0.0,0.0
1911,477.5,56.2025,56.0995,158.282,116.498,111.114,-0.00860894,0.0607919,20.9861,395.37,0.423897,0.0,0.0
1932,482.75,55.2873,53.3556,157.48,116.472,110.898,-0.0084977,0.0598211,20.9861,395.39,0.439222,0.0,0.0
1953,488,53.1831,51.444,158.043,116.424,111.479,-0.00854499,0.0590414,20.9861,395.38,0.388776,0.0,0.0
1974,493.25,51.7836,49.823,158.764,116.36,111.257,-0.00897999,0.0586457,20.9844,395.36,0.40174,0.0,0.0
1995,498.5,49.5283,47.0852,159.987,116.325,111.63,-0.00878182,0.0585437,20.9819,395.39,0.369065,0.0,0.0
2016,503.75,48.4725,46.4588,157.307,116.266,110.869,,0.0583507,,395.37,0.425708,0.0,0.0
2037,509,47.4695,44.6941,157.043,116.202,109.875,,,,395.38,0.501498,0.0,0.0
2051,512.5,46.1893,43.8741,154.773,116.183,111.412,,,,395.38,0.375608,0.0,0.0

File: HDPE_Cone_HF25Scan_220224_R5.csv
Names,Time,Stack TC,Smoke TC,Exh Press,Smoke Comp,Smoke Meas,CO Meter,CO2 Meter,O2 Meter,Sample Mass,Ext Coeff,Start Test,Flame Verif
Chan Gain,,500,500,1,1,1,1,1,1,1,1,1.0,1.0
Offset,,0,0,0.132436,0,0,0,0,0,0,0,0.0,0.0
Gain,,1,1,25.011,15.4219,15.1528,1,1,1,1.00089,1.02113,1.0,1.0
Units,sec,C,C,Pa,%,%,%,%,%,g,/m,,
Baseline,,18.704,19.5434,167.478,116.51,111.114,-0.00842342,0.0516172,20.985,-479.606,0.424814,,
26,6.25,18.039,18.039,166.948,117.573,112.19,-0.00878495,0.0629087,20.9707,424.876,0.419839,0.0,0.0
52,12.75,18.1961,18.1946,168.86,117.278,112.2,-0.00862296,0.0657339,20.9689,424.846,0.39648,0.0,0.0
78,19.25,17.8528,18.5831,169.94,116.93,111.957,-0.00838159,0.0658887,20.9671,424.846,0.389281,0.0,0.0
104,25.75,17.5395,18.8633,169.753,116.837,112.066,-0.00831197,0.0706987,20.9615,424.856,0.373449,0.0,0.0
130,32.25,18.2829,18.6199,163.264,117.272,112.737,-0.00847291,0.0652304,20.9712,424.846,0.353254,0.0,0.0
156,38.75,17.716,18.3868,165.781,117.376,111.983,-0.00858448,0.0617046,20.9739,424.836,0.421322,0.0,0.0
182,45.25,18.4744,19.0814,169.704,117.168,112.191,-0.00858145,0.067884,20.9652,424.826,0.388803,0.0,0.0
208,51.75,18.7425,19.222,165.396,116.618,112.131,-0.00869618,0.071128,20.9651,424.836,0.351446,0.0,0.0
234,58.25,18.5224,19.1278,163.143,116.427,111.846,-0.00841945,0.0673494,20.9708,424.806,0.359542,0.0,0.0
260,64.75,17.9976,19.0858,163.788,116.58,112.13,-0.00843861,0.0615282,20.9786,424.816,0.348628,0.0,0.0
286,71.25,18.2709,19.334,165.179,116.747,112.408,-0.00902814,0.0586437,20.9804,424.806,0.339209,0.0,0.0
312,77.75,18.7698,19.7618,168.879,116.873,112.583,-0.00854139,0.060794,20.976,424.826,0.334998,0.0,0.0
338,84.25,18.686,19.7781,166.236,116.779,112.741,-0.00810223,0.0650446,20.9697,424.806,0.315208,0.0,0.0
364,90.75,18.8717,20.3077,170.021,116.496,112.383,-0.0085357,0.0654897,20.9701,424.796,0.321969,0.0,0.0
390,97.25,18.9655,19.7679,165.648,116.049,111.96,-0.00841272,0.0648297,20.9733,424.806,0.321349,0.0,0.0
416,103.75,19.142,20.0761,168.743,115.626,111.342,-0.0085447,0.0596392,20.981,424.806,0.338122,0.0,0.0
442,110.25,19.1391,19.603,167.331,115.348,110.704,-0.00878618,0.0573979,20.9829,424.796,0.368071,0.0,0.0
468,116.75,19.3302,20.1641,164.109,115.294,110.661,-0.00859072,0.0578359,20.9813,424.796,0.367348,0.0,0.0
494,123.25,19.641,20.352,167.352,115.554,110.709,-0.00881429,0.0559042,20.9813,424.786,0.383653,0.0,0.0
520,129.75,20.2659,20.6402,166.358,116.034,111.489,-0.0082679,0.0544948,20.9824,424.786,0.357928,0.0,0.0
546,136.25,19.648,20.6953,167.926,116.627,112.342,-0.0086202,0.0534976,20.983,424.776,0.335341,0.0,0.0
572,142.75,19.3643,20.5597,165.036,117.132,112.566,-0.00841831,0.0555372,20.9784,424.766,0.356104,0.0,0.0
598,149.25,20.3626,21.5002,164.945,117.465,111.551,-0.00791703,0.0582134,20.9745,424.766,0.462684,0.0,0.0
624,155.75,20.0154,20.7882,164.602,117.655,111.785,-0.0077673,0.0601697,20.9723,424.746,0.45844,0.0,0.0
650,162.25,20.1414,20.9081,166.687,117.621,112.178,-0.00759573,0.0584268,20.9747,424.736,0.424456,0.0,0.0
676,168.75,19.9097,21.3247,165.848,117.499,112.355,-0.00796216,0.0557974,20.978,424.726,0.400965,0.0,0.0
702,175.25,20.3967,21.3752,166.232,117.259,111.438,-0.0077479,0.0539901,20.9805,424.706,0.456126,0.0,0.0
728,181.75,20.7712,21.0181,160.078,116.993,110.963,-0.0080844,0.0545499,20.9776,424.696,0.473973,0.0,0.0
754,188.25,20.4073,21.1527,160.846,116.776,111.242,-0.00790763,0.0591646,20.9712,424.686,0.434828,0.0,0.0
780,194.75,20.6975,21.5199,167.307,116.928,111.559,-0.00743028,0.0601237,20.9703,424.666,0.421012,0.0,0.0
806,201.25,20.5457,21.7057,167.364,117.256,111.05,-0.00744498,0.0678027,20.9527,424.666,0.48704,0.0,1.0
832,207.75,20.9807,22.0038,160.145,117.377,111.611,-0.00720738,0.0954131,20.9105,424.576,0.451255,0.0,0.0
858,214.25,21.3402,22.7519,160.493,117.297,111.55,-0.00730288,0.127253,20.8534,424.486,0.45001,0.0,0.0
884,220.75,23.6699,25.0555,155.269,116.987,109.576,-0.00748342,0.161116,20.7994,424.346,0.586194,0.0,0.0
910,227.25,24.9935,26.9331,154.98,116.424,107.857,-0.00736291,0.191565,20.7454,424.176,0.684615,0.0,0.0
936,233.75,26.964,29.3822,151.621,116.464,105.899,-0.00745267,0.226717,20.6914,423.975,0.85182,0.0,0.0
962,240.25,28.6917,31.7502,144.064,116.573,102.084,-0.00661311,0.285585,20.5792,423.735,1.18878,0.0,0.0
988,246.75,32.6626,35.8045,148.319,116.669,97.9006,-0.0057664,0.352506,20.4465,423.365,1.57097,0.0,0.0
1014,253.25,36.7942,40.2622,144.577,116.762,95.9746,-0.00415363,0.418471,20.3489,422.935,1.7561,0.0,0.0
1040,259.75,39.1693,44.7977,145.991,116.798,92.2978,-0.00313201,0.464825,20.2735,422.494,2.10877,0.0,0.0
1066,266.25,43.136,48.7549,138.324,116.83,91.4418,-0.00180094,0.506493,20.2049,422.034,2.19465,0.0,0.0
1092,272.75,46.8641,52.9303,140.083,116.762,94.3575,-0.00109256,0.542636,20.1507,421.573,1.90834,0.0,0.0
1118,279.25,49.8898,56.1888,129.254,116.631,91.551,-0.00066612,0.576301,20.1057,421.093,2.16872,0.0,0.0
1144,285.75,53.5783,61.245,132,116.438,92.4199,-0.000680861,0.60166,20.0666,420.532,2.06928,0.0,0.0
1170,292.25,56.9406,65.0351,136.572,116.202,90.5933,-4.60821e-05,0.630684,20.0154,419.982,2.22989,0.0,0.0
1196,298.75,60.0217,68.6885,131.13,115.959,91.6333,-2.86748e-05,0.659411,19.9687,419.472,2.10895,0.0,0.0
1222,305.25,63.8976,72.7284,125.728,115.721,91.6296,0.000333209,0.702249,19.896,418.791,2.09089,0.0,0.0
1248,311.75,67.4352,78.1806,132.003,115.526,88.9429,0.00152201,0.758838,19.8013,418.21,2.34229,0.0,0.0
1274,318.25,71.3208,82.2748,119.939,115.349,89.1417,0.00203259,0.826977,19.6785,417.52,2.3086,0.0,0.0
1300,324.75,75.1914,87.6063,124.65,115.26,87.6157,0.00221981,0.886786,19.6028,416.729,2.45631,0.0,0.0
1326,331.25,80.0784,92.9999,124.452,115.215,90.0171,0.0027038,0.940618,19.507,416.018,2.21064,0.0,0.0
1352,337.75,84.0822,98.5754,124.668,115.229,86.9475,0.00295769,1.00352,19.4084,415.218,2.52248,0.0,0.0
1378,344.25,88.8836,103.865,112.21,115.335,87.2869,0.00384926,1.06671,19.3003,414.427,2.49588,0.0,0.0
1404,350.75,93.7066,109.835,117.087,115.468,88.6756,0.00455086,1.13289,19.1991,413.526,2.36476,0.0,0.0
1430,357.25,98.2913,115.842,115.907,115.661,88.388,0.00519527,1.19814,19.0949,412.615,2.40885,0.0,0.0
1456,363.75,103.624,121.839,110.622,115.884,87.625,0.00519776,1.26105,18.993,411.735,2.50377,0.0,0.0
1482,370.25,108.345,127.584,114.691,116.1,87.8835,0.00613812,1.31415,18.9245,410.734,2.49407,0.0,0.0
1508,376.75,113.134,133.713,106.557,116.339,87.6425,0.00669136,1.38154,18.8092,409.843,2.53705,0.0,0.0
1534,383.25,118.477,139.854,110.864,116.556,86.9323,0.00755255,1.44667,18.7062,408.802,2.62666,0.0,0.0
1560,389.75,123.237,146.363,106.82,116.768,86.9679,0.00851921,1.52232,18.5986,407.751,2.63929,0.0,0.0
1586,396.25,127.733,151.649,105.209,116.969,86.0236,0.00999006,1.58027,18.5058,406.61,2.75245,0.0,0.0
1612,402.75,133.005,157.995,107.814,117.193,85.4294,0.0106633,1.66115,18.3816,405.559,2.83171,0.0,0.0
1638,409.25,138.025,163.927,105.306,117.399,83.5279,0.0118144,1.74224,18.25,404.348,3.04904,0.0,0.0
1664,415.75,142.567,170.076,95.9546,117.507,84.652,0.0118802,1.82179,18.147,403.247,2.93755,0.0,0.0
1690,422.25,147.053,175.69,96.2134,117.582,85.3281,0.0128316,1.84553,18.1296,402.036,2.87196,0.0,0.0
1716,428.75,151.085,179.926,93.4068,117.61,84.979,0.0131339,1.83973,18.1451,400.855,2.91087,0.0,0.0
1742,435.25,153.957,183.805,101.452,117.586,85.0923,0.0121748,1.80482,18.2144,399.814,2.89707,0.0,0.0
1768,441.75,155.965,185.845,100.227,117.544,84.5554,0.0114108,1.76301,18.2846,398.643,2.95054,0.0,0.0
1794,448.25,156.812,187.196,103.967,117.435,85.8918,0.0102812,1.67126,18.459,397.602,2.80182,0.0,0.0
1820,454.75,156.371,186.056,110.055,117.35,86.4333,0.00880407,1.54747,18.6636,396.621,2.73899,0.0,0.0
1846,461.25,154.701,183.148,115.952,117.244,84.6201,0.00783095,1.40306,18.8739,395.66,2.92081,0.0,0.0
1872,467.75,151.667,178.682,113.96,117.182,84.5531,0.00573989,1.23714,19.1723,394.92,2.9232,0.0,0.0
1898,474.25,146.598,171.176,115.256,117.114,87.2338,0.00471728,1.03388,19.5103,394.229,2.63844,0.0,0.0
1924,480.75,140.555,163.303,131.02,117.083,87.5505,0.00358271,0.856935,19.792,393.639,2.60356,0.0,0.0
1950,487.25,133.467,153.869,132.664,117.041,87.3535,0.00187129,0.712089,20.0161,393.138,2.6205,0.0,0.0
1976,493.75,125.464,143.48,152.015,116.996,104.297,-0.00332869,0.461903,20.4901,392.908,1.02915,0.0,0.0
2002,500.25,114.909,129.994,151.569,116.959,104.535,-0.00616789,0.256067,20.7869,392.888,1.00588,0.0,0.0
2028,506.75,105.144,118.588,151.981,116.918,107.625,-0.0069875,0.174769,20.8703,392.908,0.741851,0.0,0.0
2054,513.25,96.3841,107.391,157.291,116.897,109.692,-0.00797554,0.12505,20.9276,392.898,0.569899,0.0,0.0
2080,519.75,89.2849,97.8835,154.42,116.857,108.809,-0.00807495,0.0963245,20.9584,392.908,0.639212,0.0,0.0
2106,526.25,82.8031,89.759,154.365,116.817,108.811,-0.00820087,0.0790417,20.9731,392.918,0.635993,0.0,0.0
2132,532.75,77.1346,82.8618,155.533,116.793,108.917,-0.00868685,0.0695988,20.9793,392.928,0.625365,0.0,0.0
2158,539.25,72.5314,76.8458,158.088,116.719,108.879,-0.00885214,0.0639404,20.9824,392.928,0.622815,0.0,0.0
2184,545.75,68.7221,71.0142,155.785,116.704,109.254,-0.00884723,0.060494,20.9845,392.928,0.590933,0.0,0.0
2210,552.25,64.6872,66.5477,157.007,116.679,109.184,-0.00910462,0.0584294,20.9855,392.928,0.594674,0.0,0.0
2236,558.75,61.2575,62.613,156.772,116.664,110.245,-0.00889628,0.0567156,20.986,392.938,0.506908,0.0,0.0
2262,565.25,58.078,58.3176,156.855,116.79,109.206,-0.00877932,0.0556936,20.9866,392.918,0.601373,0.0,0.0
2288,571.75,56.1145,56.4721,158.927,116.898,111.177,-0.00895184,0.0550806,20.9872,392.938,0.449497,0.0,0.0
2314,578.25,53.87,53.8125,160.733,116.98,110.232,-0.00890671,0.0542238,20.9842,392.938,0.53221,0.0,0.0
2340,584.75,51.8604,50.8498,158.037,117.057,109.808,-0.00918272,0.0534672,20.9845,392.948,0.572608,0.0,0.0
2366,591.25,50.3719,49.1433,156.168,117.143,110.185,-0.00891018,0.0529112,20.9835,392.948,0.548504,0.0,0.0
2392,597.75,48.813,47.425,155.535,117.206,110.482,-0.00887541,0.0524037,20.9856,392.938,0.529223,0.0,0.0
2418,604.25,47.3663,45.0438,156.306,117.249,111.168,-0.00875638,0.0520688,20.9865,392.948,0.477104,0.0,0.0
2444,610.75,46.4787,43.8791,155.247,117.315,110.921,-0.00930263,0.052015,20.9866,392.938,0.502055,0.0,0.0
2470,617.25,44.9498,43.0744,160.322,117.338,111.034,-0.00920545,0.051731,20.9866,392.948,0.494634,0.0,0.0
2496,623.75,43.6473,41.8042,159.62,117.336,110.56,,,,392.958,0.532774,0.0,0.0
2522,630.25,42.9444,40.7689,156.111,117.327,111.532,,,,392.968,0.453724,0.0,0.0
2525,631,42.514,39.7849,164.648,117.325,111.466,,,,392.968,0.458853,0.0,0.0