Folder: fsri_materials_database/01_Data/HDPE/Cone (part 5)

File: HDPE_Cone_HF50Scan_220131_R2.csv
Names,Time,Stack TC,Smoke TC,Exh Press,Smoke Comp,Smoke Meas,CO Meter,CO2 Meter,O2 Meter,Sample Mass,Ext Coeff,Start Test,Flame Verif
Chan Gain,,500,500,1,1,1,1,1,1,1,1,1.0,1.0
Offset,,0,0,0.14021,0,0,0,0,0,0,0,0.0,0.0
Gain,,1,1,25.011,13.3046,13.3037,1,1,1,1.00087,1.10262,1.0,1.0
Units,sec,C,C,Pa,%,%,%,%,%,g,/m,,
Baseline,,27.063,30.3118,161.468,97.9993,102.635,0.00560858,0.0683149,20.9814,-0.16602,-0.446918,,
12,2.75,24.6993,26.7584,162.476,98.4664,103.048,0.00555849,0.0824721,20.9688,542.543,-0.439924,0.0,0.0
24,5.75,24.7606,27.3205,160.575,98.5554,103.269,0.00547327,0.078968,20.974,542.463,-0.451825,0.0,0.0
36,8.75,24.6004,27.3207,164.211,98.4957,103.517,0.00555213,0.076231,20.9765,542.443,-0.48089,0.0,0.0
48,11.75,25.5777,27.9564,163.46,98.2711,103.389,0.00569705,0.0737173,20.9787,542.423,-0.491007,0.0,0.0
60,14.75,25.4134,28.7137,162.899,97.9167,102.903,0.00559237,0.0715351,20.9817,542.443,-0.480387,0.0,0.0
72,17.75,26.1822,29.196,161.408,97.7977,102.742,0.00552577,0.0696094,20.9836,542.413,-0.477059,0.0,0.0
84,20.75,25.9977,28.3675,158.288,97.9504,103.22,0.00543198,0.0683098,20.985,542.383,-0.506854,0.0,0.0
96,23.75,26.0517,28.5618,162.657,98.1445,103.214,0.00541221,0.0673438,20.9859,542.403,-0.487099,0.0,0.0
108,26.75,26.3445,28.586,161.369,98.3154,103.346,0.00534398,0.0668586,20.9868,542.393,-0.482625,0.0,0.0
120,29.75,26.2805,28.5329,158.889,98.4173,103.496,0.00527099,0.0664417,20.9871,542.413,-0.486692,0.0,0.0
132,32.75,25.8699,28.6963,163.313,98.4133,103.308,0.00531726,0.0661615,20.9867,542.433,-0.469507,0.0,0.0
144,35.75,25.672,28.853,162.515,98.3251,103.538,0.00540166,0.0663488,20.9854,543.704,-0.499623,0.0,0.0
156,38.75,26.4832,29.0073,159.105,98.0929,103.423,0.00535634,0.0665577,20.9837,543.884,-0.511756,0.0,0.0
168,41.75,25.8985,28.7199,162.416,97.7811,102.165,0.00548285,0.0670744,20.9819,541.422,-0.424166,0.0,0.0
180,44.75,25.9706,29.052,156.266,97.4299,101.749,0.00585028,0.068162,20.9793,542.323,-0.419529,0.0,0.0
192,47.75,25.9659,29.1772,157.025,97.0368,101.815,0.0064969,0.0732633,20.964,542.363,-0.464952,0.0,0.0
204,50.75,26.459,30.1571,156.827,96.6722,101.646,0.00694454,0.0843646,20.9408,542.323,-0.485267,0.0,0.0
216,53.75,27.5932,31.0665,154.484,96.3783,101.761,0.00696409,0.100826,20.9111,542.283,-0.525688,0.0,1.0
228,56.75,28.5391,32.9191,156.624,96.2593,100.888,0.00643964,0.121952,20.8733,542.203,-0.454233,0.0,1.0
240,59.75,29.5072,34.2748,154.229,96.3271,101.074,0.00602425,0.147071,20.822,542.123,-0.465233,0.0,0.0
252,62.75,31.3308,36.8452,152.459,96.5082,98.8493,0.00611955,0.181466,20.7573,542.003,-0.231824,0.0,0.0
264,65.75,32.9421,38.8979,151.817,96.8147,95.2245,0.00712431,0.216285,20.7032,541.903,0.160185,0.0,0.0
276,68.75,35.0461,42.8168,146.55,97.1826,91.0391,0.0087035,0.256825,20.6067,541.783,0.631608,0.0,0.0
288,71.75,37.9029,47.4459,140.664,97.5529,89.2645,0.0100586,0.312669,20.5102,541.5625,0.85879,0.0,0.0
300,74.75,40.9787,52.3165,145.727,97.8887,87.3629,0.0112865,0.370815,20.4008,541.392,1.1003,0.0,0.0
312,77.75,44.2332,57.9911,134.505,98.127,85.3629,0.0122882,0.443472,20.2717,541.092,1.34782,0.0,0.0
324,80.75,48.0517,64.1561,135.434,98.2691,86.0686,0.0132647,0.513179,20.1348,540.772,1.28219,0.0,0.0
336,83.75,52.8855,71.3412,130.131,98.3446,83.7974,0.014443,0.602303,19.9621,540.472,1.54827,0.0,0.0
348,86.75,58.2894,80.3458,129.592,98.2748,80.5466,0.0162544,0.716928,19.7815,540.031,1.92409,0.0,0.0
360,89.75,64.304,90.4346,128.28,98.1595,80.2856,0.0187819,0.861668,19.4824,539.501,1.94413,0.0,0.0
372,92.75,71.3147,101.741,116.167,98.0125,75.1846,0.0216217,1.04485,19.1551,538.98,2.56454,0.0,0.0
384,95.75,79.284,115.283,119.021,97.9033,76.6434,0.0244758,1.25738,18.7678,538.21,2.3679,0.0,0.0
396,98.75,87.5862,129.76,98.9484,98.2228,74.7892,0.0275412,1.46821,18.475,537.579,2.63628,0.0,0.0
408,101.75,96.1186,143.452,96.5761,98.4924,75.6349,0.0308395,1.65173,18.1593,536.808,2.55404,0.0,0.0
420,104.75,104.065,156.36,133.945,98.5529,76.4363,0.0340848,1.82704,17.8907,536.068,2.45803,0.0,0.0
432,107.75,111.707,169.417,99.501,98.4518,73.4855,0.0378569,1.98645,17.6633,535.037,2.82889,0.0,0.0
444,110.75,118.41,181.567,86.4337,98.194,73.9427,0.0424983,2.18122,17.3683,533.796,2.74354,0.0,0.0
456,113.75,126.658,195.109,90.6791,97.777,71.7008,0.0472577,2.3653,17.1016,532.545,3.00017,0.0,0.0
468,116.75,134.8,208.626,94.4443,97.9183,70.8726,0.0515825,2.56664,16.7754,531.223,3.12651,0.0,0.0
480,119.75,141.222,218.717,94.6435,98.0897,74.4132,0.0544416,2.70897,16.587,529.722,2.6719,0.0,0.0
492,122.75,146.51,226.96,102.036,98.2874,71.4462,0.0584524,2.82782,16.4024,528.181,3.08493,0.0,0.0
504,125.75,154.109,238.818,109.103,98.421,70.0602,0.0672183,3.04265,16.0006,527.05,3.28754,0.0,0.0
516,128.75,163.569,254.757,81.0427,98.4563,69.0456,0.0748384,3.34086,15.5134,525.569,3.43211,0.0,0.0
528,131.75,172.804,272.944,83.6302,98.3653,69.726,0.0781635,3.66453,14.985,524.277,3.32832,0.0,0.0
540,134.75,182.592,290.039,69.6424,98.1469,71.6821,0.0796374,3.88794,14.7365,522.856,3.03921,0.0,0.0
552,137.75,189.578,301.758,63.5973,97.8257,71.1965,0.0789121,4.06465,14.491,521.595,3.07325,0.0,0.0
564,140.75,198.473,317.653,67.4351,97.4181,71.3435,0.0769308,4.22231,14.3051,520.394,3.01292,0.0,0.0
576,143.75,205.397,329.124,74.9106,96.978,65.7546,0.0779139,4.30871,14.2224,519.183,3.75814,0.0,0.0
588,146.75,211.244,335.265,68.7135,96.606,73.9796,0.0774462,4.33799,14.1819,518.052,2.58101,0.0,0.0
600,149.75,217.634,344.228,96.1769,96.3454,72.5294,0.073683,4.41713,14.1295,516.981,2.74637,0.0,0.0
612,152.75,222.194,349.144,83.4051,96.2455,65.5366,0.0681787,4.26755,14.5527,515.98,3.71693,0.0,0.0
624,155.75,217.334,333.864,102.065,96.3706,68.0627,0.0548087,3.65049,15.6566,515.38,3.36369,0.0,0.0
636,158.75,201.441,297.324,128.977,96.6678,80.4735,0.0388572,2.68415,17.4874,515.199,1.7734,0.0,0.0
648,161.75,178.928,253.739,139.367,97.0624,95.1535,0.0250773,1.69229,19.0678,515.22,0.192115,0.0,0.0
660,164.75,159.043,217.136,144.495,97.4526,96.4807,0.0166636,1.02631,20.0557,515.179,0.096946,0.0,0.0
672,167.75,143.249,188.939,142.802,97.7713,97.4734,0.0121985,0.635562,20.5079,515.33,0.0295226,0.0,0.0
684,170.75,131.098,166.365,140.551,98.0409,97.7312,0.00979851,0.426513,20.7039,515.28,0.0306088,0.0,0.0
696,173.75,119.963,148.232,144.171,98.1595,97.9443,0.00858251,0.309888,20.805,515.28,0.0212254,0.0,0.0
708,176.75,112.008,134.096,144.197,98.2541,98.2663,0.00785242,0.241549,20.8496,515.179,-0.00119805,0.0,0.0
720,179.75,105.835,122.656,145.187,98.2407,98.1282,0.00734766,0.200883,20.8793,515.22,0.0110786,0.0,0.0
732,182.75,99.7443,113.152,146.874,98.168,98.749,0.0068704,0.17205,20.9034,515.25,-0.0570729,0.0,0.0
744,185.75,95.3336,105.071,146.361,98.0466,97.6569,0.00645482,0.149948,20.9231,515.169,0.0385246,0.0,0.0
756,188.75,91.1104,98.1685,143.966,97.9293,97.909,0.0062805,0.133926,20.9357,515.179,0.00200371,0.0,0.0
768,191.75,87.8487,92.5271,145.539,97.8404,98.6434,0.0063952,0.122295,20.9443,515.149,-0.0790656,0.0,0.0
780,194.75,84.8007,87.3529,147.397,98.1485,99.6442,0.00654594,0.113085,20.9522,515.159,-0.146282,0.0,0.0
792,197.75,82.0581,83.7155,145.378,98.3897,99.4558,0.0065428,0.106097,20.9591,515.24,-0.104241,0.0,0.0
804,200.75,79.9564,80.3981,143.254,98.5127,99.9093,0.00632974,0.100823,20.9637,515.109,-0.136157,0.0,0.0
816,203.75,77.8642,77.2907,151.669,98.5326,100.734,0.00614382,0.0966027,20.9647,515.159,-0.213742,0.0,0.0
828,206.75,76.1873,74.9701,148.38,98.4673,100.506,0.00585942,0.0933032,20.9611,515.159,-0.198228,0.0,0.0
840,209.75,74.2977,72.7551,147.535,98.3296,100.082,0.00594747,0.0903194,20.9618,515.099,-0.170842,0.0,0.0
852,212.75,73.4786,70.3141,148.784,98.1217,100.021,0.0060963,0.0880181,20.9632,515.129,-0.185385,0.0,0.0
864,215.75,71.2714,68.3574,149.265,97.84,100.401,0.00607903,0.0864069,20.964,515.139,-0.249919,0.0,0.0
876,218.75,70.9809,67.543,149.122,97.8087,99.0669,0.00611083,0.0847636,20.9654,515.099,-0.123627,0.0,0.0
888,221.75,69.5387,66.3262,150.208,97.8911,101.283,0.00610042,0.0833197,20.9658,515.149,-0.329442,0.0,0.0
900,224.75,68.4984,65.4101,148.984,97.976,101.097,0.00608349,0.0822422,20.9679,515.139,-0.303327,0.0,0.0
912,227.75,67.6021,64.1581,148.522,98.0653,101.291,0.00594334,0.081503,20.9669,515.109,-0.312984,0.0,0.0
924,230.75,67.1432,62.3525,149.741,98.155,101.044,0.00582226,0.0807864,20.9662,515.089,-0.280537,0.0,0.0
936,233.75,65.3595,61.6274,151.918,98.235,101.286,0.00575997,0.0800104,20.966,515.099,-0.295872,0.0,0.0
948,236.75,65.1592,61.1287,153.74,98.3109,101.831,0.00584665,0.0794579,20.9659,515.109,-0.340288,0.0,0.0
960,239.75,64.5276,60.514,153.57,98.3694,99.3689,0.00604686,0.0787974,20.9664,515.109,-0.0977832,0.0,0.0
972,242.75,63.3162,59.4924,151.991,98.4149,101.264,0.00613084,0.0785231,20.9677,515.149,-0.276045,0.0,0.0
984,245.75,62.6632,59.228,150.801,98.4429,101.742,0.00586456,0.0781447,20.9681,515.109,-0.318826,0.0,0.0
996,248.75,62.2152,58.3352,148.816,98.4555,102.086,0.00581765,0.0778757,20.9682,515.129,-0.350225,0.0,0.0
1008,251.75,61.2136,57.9603,152.355,98.4559,102.097,0.00588168,0.0776025,20.9677,515.079,-0.351263,0.0,0.0
1020,254.75,60.2199,57.1951,149.138,98.4457,102.83,0.00588854,0.0773347,20.9676,515.089,-0.421435,0.0,0.0
1032,257.75,59.6919,56.3972,151.948,98.4153,102.579,0.0057981,0.0770827,20.9676,515.059,-0.400799,0.0,0.0
1044,260.75,58.968,55.8504,146.7,98.3893,102.641,0.00573601,0.0768122,20.9676,515.119,-0.409208,0.0,0.0
1056,263.75,58.723,55.0395,149.225,98.3446,102.694,0.0058316,0.0766675,20.9676,515.099,-0.418534,0.0,0.0
1068,266.75,58.1195,54.5144,150.623,98.3024,103.041,0.00568488,0.0764477,20.9676,514.999,-0.455364,0.0,0.0
1080,269.75,57.6269,54.2776,153.094,98.2358,102.109,0.00565048,0.0765021,20.9665,515.059,-0.37402,0.0,0.0
1092,272.75,56.8465,53.5505,153.562,98.1753,102.13,,0.0764822,,515.029,-0.381979,0.0,0.0
1104,275.75,56.2395,53.2861,151.009,98.1274,102.693,,,,515.069,-0.439844,0.0,0.0
1116,278.75,55.2658,51.7032,158.243,98.0551,102.859,,,,515.069,-0.462598,0.0,0.0
1128,281.75,55.2966,52.5111,151.885,98.0089,102.63,,,,514.979,-0.445608,0.0,0.0

File: HDPE_Cone_HF50Scan_220131_R3.csv
Names,Time,Stack TC,Smoke TC,Exh Press,Smoke Comp,Smoke Meas,CO Meter,CO2 Meter,O2 Meter,Sample Mass,Ext Coeff,Start Test,Flame Verif
Chan Gain,,500,500,1,1,1,1,1,1,1,1,1.0,1.0
Offset,,0,0,0.14021,0,0,0,0,0,0,0,0.0,0.0
Gain,,1,1,25.011,13.3046,13.3037,1,1,1,1.00087,1.10262,1.0,1.0
Units,sec,C,C,Pa,%,%,%,%,%,g,/m,,
Baseline,,38.4536,38.1444,157.465,98.4969,104.127,0.00563438,0.0793074,20.9601,-0.235705,-0.537611,,
13,3,32.7075,32.697,159.318,95.3567,102.202,0.00588711,0.0828152,20.9558,900.486,-0.670532,0.0,0.0
26,6.25,32.3966,32.9961,157.819,95.0424,102.137,0.00573425,0.0823555,20.9553,1090.93,-0.696349,0.0,0.0
39,9.5,32.6065,32.8014,159.06,94.9393,101.851,0.00591861,0.0819699,20.9541,977.573,-0.67967,0.0,0.0
52,12.75,32.5127,33.0012,160.149,94.6056,102.424,0.00590716,0.0815421,20.9549,930.632,-0.767979,0.0,0.0
65,16,32.4975,33.2318,155.283,98.3126,103.56,0.00579611,0.0810592,20.9557,937.328,-0.502985,0.0,0.0
78,19.25,33.0413,33.4069,163.275,98.3223,103.931,0.00573946,0.0810624,20.9559,930.592,-0.536546,0.0,0.0
91,22.5,32.7463,33.9508,155.729,98.317,103.611,0.00556841,0.0809659,20.9559,985.169,-0.507245,0.0,0.0
104,25.75,33.1517,33.745,162.647,98.2971,103.262,0.00559318,0.0811025,20.9559,930.542,-0.476631,0.0,0.0
117,29,32.6631,33.5097,157.807,98.3243,104.027,0.00562119,0.081298,20.9566,930.642,-0.545297,0.0,0.0
130,32.25,32.9143,34.117,155.47,98.3081,103.745,0.00541687,0.0818765,20.9545,930.662,-0.520624,0.0,0.0
143,35.5,33.1058,33.7904,163.266,98.3081,103.487,0.00565181,0.0822954,20.9538,930.592,-0.496596,0.0,0.0
156,38.75,32.842,33.7273,154.809,98.3203,102.709,0.00601834,0.0829989,20.9537,930.572,-0.422383,0.0,0.0
169,42,32.4842,33.852,159.132,98.33,103.461,0.0061864,0.0825964,20.9536,930.602,-0.491935,0.0,0.0
182,45.25,32.7204,34.1148,157.328,98.3304,102.14,0.0067948,0.0817785,20.953,930.612,-0.367633,0.0,0.0
195,48.5,32.5885,34.1508,158.811,98.3381,101.508,0.00794344,0.0808999,20.9506,930.562,-0.306829,0.0,0.0
208,51.75,33.1353,34.6747,160.244,98.3686,99.7538,0.00908872,0.081808,20.9466,930.542,-0.135254,0.0,0.0
221,55,33.3611,34.8179,153.342,98.3544,103.376,0.00868571,0.0984258,20.9129,930.492,-0.48164,0.0,1.0
234,58.25,33.6286,35.9363,156.068,98.3714,103.656,0.00782168,0.125874,20.8696,930.382,-0.506139,0.0,1.0
247,61.5,35.5263,37.6793,149.466,98.3759,103.163,0.0071264,0.156366,20.8181,930.302,-0.459562,0.0,0.0
260,64.75,36.7152,39.6568,149.612,98.3824,99.913,0.00706162,0.194884,20.7519,930.232,-0.149315,0.0,0.0
273,68,38.0343,42.9876,145.913,98.3735,96.0609,0.00769861,0.238352,20.6645,930.091,0.230087,0.0,0.0
286,71.25,40.1559,46.2184,142.075,98.3739,90.6169,0.00899619,0.289125,20.5734,929.911,0.794412,0.0,0.0
299,74.5,43.0728,50.3971,142.562,98.3885,86.8862,0.0104701,0.348058,20.4629,929.701,1.20248,0.0,0.0
312,77.75,46.4752,55.2364,146.572,98.3836,84.9858,0.0118269,0.412704,20.359,929.431,1.41591,0.0,0.0
325,81,49.6174,60.3893,134.411,98.3832,83.0431,0.0135638,0.478765,20.2404,929.191,1.63953,0.0,0.0
338,84.25,53.4055,66.1359,131.701,98.3877,80.0042,0.0149452,0.552244,20.0988,928.82,2.00054,0.0,0.0
351,87.5,57.39,71.6743,127.165,98.3751,77.9633,0.0156837,0.627136,19.9675,928.47,2.24925,0.0,0.0
364,90.75,61.5129,79.0888,130.367,98.3706,78.9161,0.0169255,0.711935,19.8286,928.1,2.13131,0.0,0.0
377,94,66.0851,85.796,131.101,98.3816,75.7542,0.0184869,0.793814,19.6787,927.639,2.52789,0.0,0.0
390,97.25,70.993,93.3824,117.049,98.397,75.6974,0.0192887,0.892169,19.4937,927.159,2.53667,0.0,0.0
403,100.5,76.345,101.976,118.907,98.3694,73.354,0.0206876,1.00663,19.3483,926.739,2.83811,0.0,0.0
416,103.75,81.8161,110.703,115.086,98.3658,73.3227,0.0225137,1.12077,19.1311,926.178,2.84188,0.0,0.0
429,107,87.2099,119.326,102.919,98.3731,69.5843,0.0242914,1.23118,18.9412,925.557,3.34875,0.0,0.0
442,110.25,92.401,127.607,117.43,98.3491,69.538,0.0262442,1.33634,18.7646,925.077,3.35283,0.0,0.0
455,113.5,99.1576,137.839,112.313,98.3442,70.48,0.0286059,1.46723,18.5672,924.286,3.22222,0.0,0.0
468,116.75,105.876,148.702,99.2003,98.3385,69.1333,0.0318979,1.61214,18.3185,923.656,3.40826,0.0,0.0
481,120,112.711,159.186,104.932,98.3264,67.5247,0.0353056,1.75282,18.0922,922.775,3.63476,0.0,0.0
494,123.25,119.774,171.061,98.0141,98.3069,68.7114,0.0388612,1.92545,17.8646,922.004,3.46434,0.0,0.0
507,126.5,126.88,182.81,90.5402,98.3036,65.5167,0.0422655,2.0795,17.5731,921.254,3.92452,0.0,0.0
520,129.75,134.794,195.827,94.6008,98.2829,65.0733,0.0464002,2.30744,17.1964,920.303,3.98815,0.0,0.0
533,133,142.92,210.17,86.246,98.2569,67.9701,0.0508154,2.55913,16.7777,919.332,3.56435,0.0,0.0
546,136.25,151.822,224.673,79.9268,98.2281,65.1066,0.0572864,2.82742,16.352,918.251,3.97781,0.0,0.0
559,139.5,161.005,241.12,85.2736,98.1964,70.3992,0.0642192,3.11131,15.9214,917.18,3.21877,0.0,0.0
572,142.75,168.852,254.97,108.754,98.1416,63.7571,0.0697321,3.36279,15.5173,915.889,4.17188,0.0,0.0
585,146,177.763,271.326,83.4516,98.1002,65.902,0.0731447,3.72147,15.0161,914.728,3.84777,0.0,0.0
598,149.25,187.511,287.615,78.7018,98.049,59.5152,0.0747952,4.04381,14.5212,913.547,4.82866,0.0,0.0
611,152.5,196.882,304.35,55.0066,98.0024,74.3974,0.074466,4.44046,13.8235,912.116,2.66535,0.0,0.0
624,155.75,209.174,326.462,62.8722,97.9289,68.3331,0.0733936,4.94716,13.1985,910.905,3.48049,0.0,0.0
637,159,220.551,348.447,59.3108,97.8692,67.0217,0.0717898,5.36119,12.5002,909.123,3.66201,0.0,0.0
650,162.25,231.581,366.918,81.6388,97.7904,67.3859,0.0708113,5.8075,11.8479,907.702,3.60181,0.0,0.0
663,165.5,241.41,384.874,72.894,97.7056,72.2854,0.0706143,6.17756,11.3657,906.141,2.91455,0.0,0.0
676,168.75,249.302,396.783,71.5148,97.6219,68.6749,0.0738326,6.31564,11.2096,904.759,3.40186,0.0,0.0
689,172,253.899,399.579,57.3568,97.5054,65.1777,0.0765086,6.15933,11.5619,903.368,3.89584,0.0,0.0
702,175.25,254.397,394.069,82.3029,97.4051,61.4575,0.0763846,5.60365,12.5154,902.207,4.45432,0.0,0.0
715,178.5,249.458,378.109,67.7457,97.2882,62.9962,0.0702984,4.75667,13.9958,901.136,4.20352,0.0,0.0
728,181.75,241.521,356.332,99.9628,97.1639,62.2244,0.0585108,3.73544,15.6535,900.516,4.31039,0.0,0.0
741,185,227.112,324.933,114.677,97.0397,70.5417,0.0436595,2.78995,17.071,899.955,3.08459,0.0,0.0
754,188.25,211.769,293.818,113.648,96.887,76.3478,0.032021,1.99092,18.3376,899.635,2.30434,0.0,0.0
767,191.5,195.486,263.07,127.208,96.7697,80.7663,0.0231455,1.37741,19.2049,899.535,1.74847,0.0,0.0
780,194.75,179.966,233.595,129.933,96.6491,91.2316,0.0164064,0.897869,19.9154,899.485,0.557941,0.0,0.0
793,198,165.222,207.726,136.192,96.5476,95.3939,0.0121027,0.57982,20.4073,899.485,0.116276,0.0,0.0
806,201.25,151.47,185.319,135.837,96.4497,95.8348,0.00944958,0.377622,20.6764,899.455,0.0618668,0.0,0.0
819,204.5,140.664,167.281,138.705,96.3909,95.7523,0.0080649,0.261625,20.8028,899.465,0.0642827,0.0,0.0
832,207.75,131.681,153.095,134.605,96.3458,95.9038,0.00719072,0.196136,20.8626,899.495,0.0444739,0.0,0.0
845,211,125.189,140.665,139.546,96.3385,95.6756,0.00641725,0.162753,20.8941,899.465,0.0667793,0.0,0.0
858,214.25,118.873,130.641,137.134,96.399,95.5185,0.006244,0.140552,20.9151,899.475,0.0887477,0.0,0.0
871,217.5,113.83,122.808,143.167,96.5374,95.7735,0.00612861,0.125756,20.9264,899.465,0.0768472,0.0,0.0
884,220.75,109.205,115.31,139,96.6844,95.9708,0.00586619,0.115157,20.9356,899.495,0.0716561,0.0,0.0
897,224,104.687,109.496,139.084,96.8761,96.5266,0.00559689,0.107602,20.9429,899.455,0.0349547,0.0,0.0
910,227.25,101.813,104.509,139.808,97.1055,96.3349,0.00565444,0.102232,20.9483,899.455,0.077052,0.0,0.0
923,230.5,99.1333,100.184,142.031,97.3568,96.8083,0.005715,0.0980564,20.9524,899.435,0.0546396,0.0,0.0
936,233.75,96.6714,96.0092,145.569,97.5907,97.2691,0.00570794,0.0950241,20.9552,899.475,0.0319166,0.0,0.0
949,237,93.4436,92.2786,143.034,97.831,97.5842,0.00590343,0.0925914,20.9576,899.525,0.0244324,0.0,0.0
962,240.25,92.2356,89.9444,143.852,98.0702,97.4677,0.00592524,0.0911867,20.9528,899.495,0.0596039,0.0,0.0
975,243.5,89.4398,86.9626,144.043,98.2135,98.1908,0.00590267,0.0900085,20.9493,899.465,0.00224003,0.0,0.0
988,246.75,88.6104,84.4962,148.901,98.3138,98.0085,0.00598176,0.0890166,20.9501,899.465,0.0300846,0.0,0.0
1001,250,86.3903,82.1741,146.316,98.3605,98.2996,0.00572624,0.0882199,20.9498,899.435,0.00599146,0.0,0.0
1014,253.25,84.8039,80.4279,149.311,98.3142,97.911,0.00555101,0.0874833,20.9507,899.445,0.0397453,0.0,0.0
1027,256.5,83.6752,78.8369,148.6,98.1705,98.6122,0.00546382,0.0867646,20.9516,899.475,-0.0434221,0.0,0.0
1040,259.75,81.5846,77.1332,144.129,98.0283,99.1099,0.00565808,0.0860988,20.9518,899.485,-0.106131,0.0,0.0
1053,263,81.2888,75.854,147.49,98.1047,98.982,0.00570385,0.0857746,20.9525,899.535,-0.0861145,0.0,0.0
1066,266.25,79.6769,74.8618,145.347,98.4928,99.0994,0.00582807,0.0861352,20.9524,899.515,-0.0593801,0.0,0.0
1079,269.5,78.7676,73.8884,141.447,98.6358,98.9516,0.00591527,0.0861422,20.9528,899.505,-0.0309199,0.0,0.0
1092,272.75,78.0602,72.5316,148.173,98.5196,98.8627,0.00599538,0.0858112,20.9532,899.465,-0.0336195,0.0,0.0
1105,276,76.8752,71.8996,145.612,98.1132,99.0835,0.00573,0.0851197,20.9543,899.465,-0.0951862,0.0,0.0
1118,279.25,75.8306,70.7041,147.597,97.9609,99.3024,0.00554417,0.0843557,20.9563,899.465,-0.131546,0.0,0.0
1131,282.5,74.9662,70.152,146.911,98.2196,100.18,0.00536293,0.0838691,20.9575,899.465,-0.191123,0.0,0.0
1144,285.75,73.8923,69.4607,148.84,98.4664,100.712,0.00541386,0.0832984,20.9575,899.475,-0.218057,0.0,0.0
1157,289,73.6288,68.166,146.039,98.5537,100.024,0.00565734,0.0828824,20.9574,899.495,-0.143208,0.0,0.0
1170,292.25,71.797,67.2724,150.448,98.4518,100.365,0.00566419,0.0824922,20.9574,899.455,-0.186176,0.0,0.0
1183,295.5,72.1381,66.0921,146.661,98.0913,100.164,0.0056465,0.0824981,20.9557,899.455,-0.202237,0.0,0.0
1196,298.75,70.4893,65.6161,148.202,97.5411,99.5979,0.00583048,0.0825842,20.9539,899.335,-0.201832,0.0,0.0
1209,302,69.6382,65.1871,145.838,96.9435,100.165,0.00605855,0.0826896,20.9547,899.415,-0.316201,0.0,0.0
1222,305.25,68.3915,64.7571,149.405,96.4794,99.5833,0.00605452,0.0828582,20.955,899.565,-0.306272,0.0,0.0
1235,308.5,68.114,64.0759,147.137,96.3507,99.8131,0.00584306,0.0828149,20.9547,899.465,-0.341477,0.0,0.0
1248,311.75,67.7114,63.2133,148.277,96.6479,99.0425,,0.0828385,,899.475,-0.236728,0.0,0.0
1261,315,66.8854,62.78,147.313,97.2342,100.081,,,,899.495,-0.279161,0.0,0.0
1274,318.25,66.3357,62.1314,146.597,97.8022,101.068,,,,899.475,-0.31766,0.0,0.0
1280,319.75,65.1906,61.1195,146.761,98.008,101.364,,,,899.505,-0.325607,0.0,0.0