Folder: fsri_materials_database/01_Data/HDPE/Cone

Note: 01_Data/README.md
# Materials and Products Database
## 01_Data

Raw data generated from each apparatus are included here in plain-text format. The data is organized first by material, next by the short name of test apparatus used, and where applicable additional filtering by test settings.

### material.json

Each material directory contains a json file of the same name as the material. This file links the data stored in the repository as well as data and graphs produced by the accompanying scripts (__02_Scripts__) to the respective landing page for the material on the front-end website.

File: HDPE_Cone_HF25Scalar_220131_R1.csv
LABORATORY,FSRI
TEST IDENT,HDPE_HF25_1
OPERATOR,Dow
MATERIAL,HFPE
ORIENTATION,Horizontal
HEAT FLUX,25
SURF AREA,0.01
C FACTOR,0.0415673
SPEC HOLDER DIFF,-60.31
SPECIMEN MASS,30.9
SCAN TIME,0.25
O2 DELAY TIME,11
CO DELAY TIME,11
CO2 DELAY TIME,8
FLOW FACTOR,1
SCAN COUNT,1960
TIME TO IGN,190.5
END OF TEST SCAN,1480
END OF TEST TIME,370
TEST STATUS,1
PRE TEST CMT,Dimensions: 100.25 x 100.1 x 3.18 mm
POST TEST CMT,"Sample warped prior to ignition. Some of the sample dripped from the foil pan onto the insulation below, and continued to burn."

File: HDPE_Cone_HF25Scalar_220131_R2.csv
LABORATORY,FSRI
TEST IDENT,HDPE_HF25_2
OPERATOR,Dow
MATERIAL,HDPE
ORIENTATION,Horizontal
HEAT FLUX,25
SURF AREA,0.01
C FACTOR,0.0415673
SPEC HOLDER DIFF,-55.23
SPECIMEN MASS,30.8
SCAN TIME,0.25
O2 DELAY TIME,11
CO DELAY TIME,11
CO2 DELAY TIME,8
FLOW FACTOR,1
SCAN COUNT,1781
TIME TO IGN,191.75
END OF TEST SCAN,1301
END OF TEST TIME,325.25
TEST STATUS,1
PRE TEST CMT,Dimensions: 99.95 x 100.8 x 3.01
POST TEST CMT,"Significant dripping of sample, see test picture"

File: HDPE_Cone_HF25Scalar_220131_R3.csv
LABORATORY,FSRI
TEST IDENT,HDPE_HF25_3
OPERATOR,Dow
MATERIAL,HDPE
ORIENTATION,Horizontal
HEAT FLUX,25
SURF AREA,0.01
C FACTOR,0.0415673
SPEC HOLDER DIFF,-536
SPECIMEN MASS,30.8
SCAN TIME,0.25
O2 DELAY TIME,11
CO DELAY TIME,11
CO2 DELAY TIME,8
FLOW FACTOR,1
SCAN COUNT,2139
TIME TO IGN,186.5
END OF TEST SCAN,1659
END OF TEST TIME,414.75
TEST STATUS,1
PRE TEST CMT,Dimensions: 99.92 x 99.97 x 3.07 mm

File: HDPE_Cone_HF25Scalar_220218_R3.csv
LABORATORY,FSRI
TEST IDENT,HDPE_HF25_3
OPERATOR,Dow
MATERIAL,HDPE
ORIENTATION,Horizontal
HEAT FLUX,25
SURF AREA,0.01
C FACTOR,0.0385692
SPEC HOLDER DIFF,306.25
SPECIMEN MASS,31.9
SCAN TIME,0.25
O2 DELAY TIME,11
CO DELAY TIME,11
CO2 DELAY TIME,8
FLOW FACTOR,1
SCAN COUNT,2406
TIME TO IGN,175.75
END OF TEST SCAN,1926
END OF TEST TIME,481.5
TEST STATUS,1
PRE TEST CMT,Dimensions: 101.54 x 101.26 x 3.05 mm
POST TEST CMT,"Sample warped prior to ignition and contacted the spark ignitor, causing spike in mass data. Close proximity to spark ignitor likely shortened time to ignition. After ignition some sample spilled out of foil pan and continued burning from lower drip tray. See test pictures. "

File: HDPE_Cone_HF25Scalar_220218_R4.csv
LABORATORY,FSRI
TEST IDENT,HDPE_HF25_4
OPERATOR,Dow
MATERIAL,HDPE
ORIENTATION,Horizontal
HEAT FLUX,25
SURF AREA,0.01
C FACTOR,0.0385692
SPEC HOLDER DIFF,305.88
SPECIMEN MASS,31.9
SCAN TIME,0.25
O2 DELAY TIME,11
CO DELAY TIME,11
CO2 DELAY TIME,8
FLOW FACTOR,1
SCAN COUNT,2051
TIME TO IGN,150.25
END OF TEST SCAN,1571
END OF TEST TIME,392.75
TEST STATUS,1
PRE TEST CMT,Dimensions: 101.53 x 101.47 x 3.04 mm
POST TEST CMT,"Sample warped prior to ignition and contacted the spark ignitor, causing spike in mass data. Close proximity to spark ignitor likely shortened time to ignition. See test pictures. "

File: HDPE_Cone_HF25Scalar_220224_R5.csv
LABORATORY,FSRI
TEST IDENT,HDPE_HF25_5
OPERATOR,Dow
MATERIAL,HDPE
ORIENTATION,Horizontal
HEAT FLUX,25
SURF AREA,0.01
C FACTOR,0.0385692
SPEC HOLDER DIFF,305.49
SPECIMEN MASS,31.9
SCAN TIME,0.25
O2 DELAY TIME,11
CO DELAY TIME,11
CO2 DELAY TIME,8
FLOW FACTOR,1
SCAN COUNT,2525
TIME TO IGN,197
END OF TEST SCAN,2045
END OF TEST TIME,511.25
TEST STATUS,1
PRE TEST CMT,Dimensions: 101.60 x 101.52 x 3.10 mm; 60 mm spacing
POST TEST CMT,"Sample warped and shriveled prior to ignition, then melted into a pool fire after ignition. No dripping from foil pan."

File: HDPE_Cone_HF25Scalar_220224_R6.csv
LABORATORY,FSRI
TEST IDENT,HDPE_HF25_6
OPERATOR,Dow
MATERIAL,HDPE
ORIENTATION,Horizontal
HEAT FLUX,25
SURF AREA,0.01
C FACTOR,0.0385692
SPEC HOLDER DIFF,306
SPECIMEN MASS,32.1
SCAN TIME,0.25
O2 DELAY TIME,11
CO DELAY TIME,11
CO2 DELAY TIME,8
FLOW FACTOR,1
SCAN COUNT,2658
TIME TO IGN,191
END OF TEST SCAN,2178
END OF TEST TIME,544.5
TEST STATUS,1
PRE TEST CMT,Dimensions: 101.99 x 101.32 x 3.11 mm; 60 mm spacing
POST TEST CMT,"Sample warped and shriveled prior to ignition, then melted into a pool fire after ignition. No dripping from foil pan."

File: HDPE_Cone_HF25Scan_220131_R1.csv
Names,Time,Stack TC,Smoke TC,Exh Press,Smoke Comp,Smoke Meas,CO Meter,CO2 Meter,O2 Meter,Sample Mass,Ext Coeff,Start Test,Flame Verif
Chan Gain,,500,500,1,1,1,1,1,1,1,1,1.0,1.0
Offset,,0,0,0.14021,0,0,0,0,0,0,0,0.0,0.0
Gain,,1,1,25.011,13.3046,13.3037,1,1,1,1.00087,1.10262,1.0,1.0
Units,sec,C,C,Pa,%,%,%,%,%,g,/m,,
Baseline,,16.6937,18.4831,169.159,97.6194,100.27,0.00358852,0.0772779,20.9512,-0.00654738,-0.2591,,
21,5,16.0072,17.9772,166.771,97.9662,100.461,0.00333136,0.0779723,20.9516,537.499,-0.243191,0.0,0.0
42,10.25,16.0802,18.1064,163.64,97.8785,100.839,0.00342895,0.0781634,20.9556,537.529,-0.288176,0.0,0.0
63,15.5,16.0261,18.3286,168.794,97.7859,100.72,0.00369836,0.076646,20.9611,537.499,-0.285912,0.0,0.0
84,20.75,16.1553,18.1904,171,97.7047,99.9877,0.00356894,0.0742957,20.965,537.499,-0.223396,0.0,0.0
105,26,16.1784,18.2954,170.142,97.6203,99.8963,0.00344843,0.0730606,20.9637,537.499,-0.22292,0.0,0.0
126,31.25,16.3659,18.5406,171.132,97.5399,100.292,0.00328252,0.0725869,20.9652,537.479,-0.269138,0.0,0.0
147,36.5,16.0941,18.1777,167.049,97.4757,99.4936,0.00332908,0.0722457,20.9674,537.499,-0.198178,0.0,0.0
168,41.75,16.3695,18.0335,170.138,97.3913,99.5334,0.0034002,0.0722887,20.9682,537.509,-0.210429,0.0,0.0
189,47,16.1377,18.3021,169.019,97.4481,99.8196,0.00332215,0.0723361,20.9656,537.459,-0.232559,0.0,0.0
210,52.25,16.588,18.6575,173.883,97.6585,100.569,0.00347972,0.0732264,20.9632,537.469,-0.284095,0.0,0.0
231,57.5,16.0708,18.2984,164.956,97.8359,100.1,0.00341791,0.0735939,20.9635,539.761,-0.221255,0.0,0.0
252,62.75,16.6032,18.4431,169.617,97.9735,100.679,0.00339739,0.0735166,20.9644,549.69,-0.263437,0.0,0.0
273,68,16.6042,18.4852,168.909,98.088,100.483,0.00360707,0.0736707,20.9626,550.921,-0.233284,0.0,0.0
294,73.25,16.6558,18.2266,169.04,98.1599,100.872,0.00325637,0.0738682,20.9615,541.833,-0.263644,0.0,0.0
315,78.5,16.5567,18.304,169.206,98.1981,100.177,0.00363966,0.0740014,20.9618,530.993,-0.193006,0.0,0.0
336,83.75,16.6616,18.6184,171.437,98.2058,100.918,0.00362079,0.0739956,20.9608,535.807,-0.263482,0.0,0.0
357,89,15.9777,18.5308,169.357,98.1806,100.852,0.00337708,0.0741211,20.9606,537.359,-0.259618,0.0,0.0
378,94.25,16.0791,18.5638,165.407,98.099,100.475,0.00353762,0.0737666,20.9621,537.389,-0.23146,0.0,0.0
399,99.5,16.4852,18.2733,165.429,98.0186,99.9877,0.0036071,0.0734213,20.9625,537.409,-0.192376,0.0,0.0
420,104.75,16.6279,18.9114,167.204,97.8781,99.9743,0.00349544,0.072851,20.9632,537.429,-0.204953,0.0,0.0
441,110,16.557,18.757,166.559,97.6909,99.7806,0.00354602,0.0728394,20.9627,537.409,-0.204713,0.0,0.0
462,115.25,16.6919,19.174,170.13,97.6239,100.075,0.00362201,0.0745546,20.9587,537.399,-0.239837,0.0,0.0
483,120.5,16.5602,18.6702,170.51,97.6471,100.212,0.00353871,0.0746751,20.9599,537.399,-0.250799,0.0,0.0
504,125.75,16.7263,18.4597,172.737,97.6418,99.5979,0.00340076,0.0740455,20.9604,537.409,-0.191852,0.0,0.0
525,131,16.89,18.8506,172.369,97.6881,99.319,0.00360212,0.0731317,20.9609,537.439,-0.160144,0.0,0.0
546,136.25,17.0328,19.229,165.098,97.7543,99.3759,0.00405142,0.0722295,20.9621,537.439,-0.159127,0.0,0.0
567,141.5,17.1175,18.7698,170.483,97.7985,99.263,0.00428936,0.0721424,20.9623,537.409,-0.143758,0.0,0.0
588,146.75,16.8047,18.8508,166.882,97.8574,98.6865,0.00395909,0.0724399,20.9616,537.389,-0.0815984,0.0,0.0
609,152,16.8581,19.2733,168.188,97.9147,99.3941,0.00393307,0.0725456,20.9624,537.399,-0.14505,0.0,0.0
630,157.25,16.8399,18.8663,170.822,97.9402,98.95,0.00423332,0.0721918,20.9625,537.369,-0.0992054,0.0,0.0
651,162.5,16.9658,19.1848,165.079,97.9873,98.2923,0.00452989,0.0717305,20.9617,537.369,-0.0300507,0.0,0.0
672,167.75,16.8261,18.639,165.675,98.0263,98.6966,0.00473088,0.0726041,20.958,537.359,-0.0659137,0.0,0.0
693,173,17.2957,19.1891,168.443,98.0515,97.8964,0.00509772,0.0736757,20.9571,537.299,0.0153102,0.0,0.0
714,178.25,16.8176,19.0776,169.908,98.0633,97.9991,0.0052915,0.0734141,20.9574,537.279,0.00632793,0.0,0.0
735,183.5,17.1114,19.33,167.613,98.0783,96.8266,0.00630234,0.0730572,20.9547,537.239,0.124231,0.0,0.0
756,188.75,18.3146,21.5302,167.93,98.1071,101.45,0.00535275,0.0871927,20.911,537.159,-0.324044,0.0,0.0
777,194,20.3872,24.8129,167.706,98.1299,101.067,0.00438893,0.123345,20.8433,537.109,-0.285233,0.0,1.0
798,199.25,22.9144,28.8726,160.84,98.1571,100.809,0.00384498,0.15746,20.7936,536.928,-0.257849,0.0,0.0
819,204.5,25.1417,32.4121,151.664,98.1875,100.438,0.00390352,0.192694,20.7316,536.778,-0.219218,0.0,0.0
840,209.75,28.0235,37.3318,151.561,98.1863,99.9917,0.00453468,0.230824,20.6688,536.588,-0.176236,0.0,0.0
861,215,31.293,42.4447,154.183,98.2038,95.7726,0.00538674,0.280064,20.5732,536.328,0.242454,0.0,0.0
882,220.25,34.3284,47.5502,154.944,98.209,93.3939,0.00657286,0.327482,20.4989,536.038,0.486235,0.0,0.0
903,225.5,38.5377,53.696,146.449,98.1964,92.8064,0.00815079,0.388383,20.3708,535.677,0.546028,0.0,0.0
924,230.75,43.8117,62.105,136.702,98.181,88.4436,0.00964409,0.466953,20.2294,535.237,1.01023,0.0,0.0
945,236,49.0051,70.256,134.717,98.1579,90.3327,0.0108013,0.548582,20.0968,534.737,0.803533,0.0,0.0
966,241.25,54.4327,79.3416,129.173,98.1538,88.278,0.0112875,0.631189,19.9623,534.236,1.02568,0.0,0.0
987,246.5,60.0584,87.5056,133.185,98.1473,87.6694,0.0119469,0.704974,19.8559,533.636,1.09195,0.0,0.0
1008,251.75,65.5582,96.0882,138.681,98.1428,85.7113,0.0121274,0.781286,19.7402,533.015,1.30999,0.0,0.0
1029,257,71.0121,105.027,128.349,98.1238,85.6057,0.0131467,0.861681,19.601,532.294,1.32003,0.0,0.0
1050,262.25,77.0189,114.07,128.633,98.1132,84.0889,0.0142283,0.942951,19.4736,531.554,1.4919,0.0,0.0
1071,267.5,83.2857,122.982,131.459,98.11,83.1186,0.0151056,1.01749,19.3668,530.773,1.60383,0.0,0.0
1092,272.75,88.9548,131.249,119.622,98.1006,83.9594,0.0164891,1.10686,19.2167,529.992,1.50556,0.0,0.0
1113,278,94.4049,139.785,119.205,98.1091,82.3399,0.0178577,1.18873,19.0966,529.162,1.69479,0.0,0.0
1134,283.25,100.614,147.869,108.941,98.1185,81.4114,0.0201084,1.26898,18.9481,528.251,1.8054,0.0,0.0
1155,288.5,107.048,159.488,103.024,98.1189,79.165,0.0225458,1.38237,18.7624,527.27,2.07607,0.0,0.0
1176,293.75,114.32,169.902,108.966,98.1376,77.9117,0.0246935,1.51871,18.5315,526.189,2.23227,0.0,0.0
1197,299,123.14,185.557,96.9249,98.1575,77.9263,0.0288498,1.69831,18.215,525.068,2.23241,0.0,0.0
1218,304.25,131.898,199.428,112.422,98.1603,76.5459,0.0323992,1.86804,17.9075,523.787,2.40556,0.0,0.0
1239,309.5,141.985,216.223,99.6911,98.1786,73.3836,0.0371751,2.09527,17.5361,522.376,2.81542,0.0,0.0
1260,314.75,152.395,234.387,93.4444,98.1883,71.9919,0.0430826,2.32636,17.2226,520.995,3.00158,0.0,0.0
1281,320,162.984,251.292,95.9915,98.2013,72.0625,0.0481688,2.5707,16.8308,519.503,2.99338,0.0,0.0
1302,325.25,175.361,271.818,85.0369,98.1977,71.9314,0.0510967,2.82682,16.4134,517.972,3.01063,0.0,0.0
1323,330.5,184.22,284.649,83.057,98.1891,71.1494,0.0511279,2.99824,16.2879,516.391,3.11551,0.0,0.0
1344,335.75,186.665,283.783,102.214,98.1522,71.1105,0.0482604,2.95917,16.464,514.899,3.11717,0.0,0.0
1365,341,184.352,273.997,98.4584,98.1059,73.8611,0.042324,2.71912,16.9741,513.538,2.74554,0.0,0.0
1386,346.25,175.688,251.769,113.644,98.0641,75.8622,0.03233,2.32569,17.7453,512.537,2.48285,0.0,0.0
1407,351.5,161.286,220.489,120.906,97.9723,76.915,0.0232851,1.84912,18.6117,511.746,2.3405,0.0,0.0
1428,356.75,141.524,182.15,136.011,97.8716,85.6077,0.0165876,1.31221,19.467,511.356,1.29491,0.0,0.0
1449,362,119.632,142.271,142.771,97.7596,97.7766,0.0105994,0.820799,20.234,511.196,-0.0016893,0.0,0.0
1470,367.25,102.597,114.596,142.478,97.6621,96.5006,0.00738496,0.528672,20.5573,511.106,0.115722,0.0,0.0
1491,372.5,92.1745,96.7129,144.156,97.5626,97.8712,0.00668218,0.392786,20.6446,510.976,-0.0305452,0.0,0.0
1512,377.75,85.5572,86.2829,146.581,97.7579,98.7616,0.00603615,0.327452,20.6803,510.876,-0.0987936,0.0,0.0
1533,383,80.3704,78.3312,146.919,97.9618,98.7121,0.00541374,0.288072,20.7033,510.756,-0.073797,0.0,0.0
1554,388.25,76.8902,73.7945,146.808,98.084,99.4554,0.00532193,0.261437,20.725,510.656,-0.134304,0.0,0.0
1575,393.5,73.629,68.9875,144.238,98.1546,100.321,0.00536138,0.241326,20.7445,510.565,-0.211114,0.0,0.0
1596,398.75,70.3154,65.8323,154.065,98.1307,100.039,0.00518927,0.225555,20.7598,510.485,-0.186311,0.0,0.0
1617,404,68.2291,62.8457,147.762,98.0133,100.72,0.00512484,0.212431,20.7722,510.405,-0.263487,0.0,0.0
1638,409.25,65.4656,59.7716,150.139,97.8022,100.977,0.00512911,0.201073,20.7843,510.305,-0.308953,0.0,0.0
1659,414.5,64.1732,58.048,155.47,97.4814,101.077,0.00478904,0.190307,20.7967,510.235,-0.350328,0.0,0.0
1680,419.75,62.2102,55.7435,153.583,97.3572,101.752,0.00490415,0.181162,20.8074,510.185,-0.427018,0.0,0.0
1701,425,60.833,54.4891,151.486,97.4908,102.3,0.00477838,0.17294,20.8188,510.095,-0.465715,0.0,0.0
1722,430.25,58.8196,52.8094,154.384,97.6609,101.911,0.0048585,0.166401,20.8234,510.045,-0.412008,0.0,0.0
1743,435.5,57.3619,51.2822,156.989,97.8237,102.908,0.00468959,0.161311,20.8292,509.975,-0.490034,0.0,0.0
1764,440.75,56.2044,50.3612,151.878,97.9589,102.961,0.0044844,0.157128,20.8337,509.935,-0.48171,0.0,0.0
1785,446,55.1486,49.3049,156.852,98.0612,102.835,0.00447541,0.152935,20.8393,509.885,-0.459744,0.0,0.0
1806,451.25,53.7126,47.8005,155.561,98.101,103.038,0.00429254,0.149427,20.8453,509.815,-0.474894,0.0,0.0
1827,456.5,52.1566,47.3864,160.403,98.0584,103.299,0.00416126,0.145543,20.8503,509.755,-0.503535,0.0,0.0
1848,461.75,51.1519,46.2188,152.43,97.9691,103.171,0.00380737,0.141743,20.8552,509.695,-0.500406,0.0,0.0
1869,467,50.3016,45.3368,156.082,97.8034,103.256,0.00415383,0.138774,20.8582,509.675,-0.524726,0.0,0.0
1890,472.25,48.9925,44.2442,160.926,97.585,102.658,0.00429732,0.135728,20.8631,509.605,-0.490209,0.0,0.0
1911,477.5,47.9878,43.3822,157.191,97.3036,102.48,0.00434785,0.132942,20.8701,509.575,-0.501331,0.0,0.0
1932,482.75,46.7536,42.7453,154.941,96.9869,102.366,,,,509.505,-0.522089,0.0,0.0
1953,488,46.4086,42.256,156.956,96.6868,101.653,,,,509.464,-0.484461,0.0,0.0
1960,489.75,46.2091,41.9567,155.932,96.604,102.12,,,,509.454,-0.537035,0.0,0.0

File: HDPE_Cone_HF25Scan_220131_R2.csv
Names,Time,Stack TC,Smoke TC,Exh Press,Smoke Comp,Smoke Meas,CO Meter,CO2 Meter,O2 Meter,Sample Mass,Ext Coeff,Start Test,Flame Verif
Chan Gain,,500,500,1,1,1,1,1,1,1,1,1.0,1.0
Offset,,0,0,0.14021,0,0,0,0,0,0,0,0.0,0.0
Gain,,1,1,25.011,13.3046,13.3037,1,1,1,1.00087,1.10262,1.0,1.0
Units,sec,C,C,Pa,%,%,%,%,%,g,/m,,
Baseline,,18.3792,19.7002,168.558,97.2076,100.306,0.00388801,0.0775879,20.9526,-0.0223946,-0.303469,,
19,4.5,17.8225,18.7221,164.395,97.9402,100.968,0.0037826,0.0794171,20.9479,542.593,-0.294455,0.0,0.0
38,9.25,17.1988,18.9663,168.319,97.9711,101.117,0.00398346,0.0804002,20.9486,543.975,-0.305711,0.0,0.0
57,14,17.8349,18.9925,166.833,98.0003,101.1,0.00381655,0.0803314,20.9515,542.543,-0.301155,0.0,0.0
76,18.75,17.637,19.1744,172.614,98.0198,101.135,0.00382715,0.0789252,20.9557,542.533,-0.302571,0.0,0.0
95,23.5,17.5414,18.6157,170.373,98.0174,100.783,0.00388183,0.0774072,20.9589,542.533,-0.269089,0.0,0.0
114,28.25,17.902,18.9094,170.541,98.0117,100.812,0.00387004,0.0763447,20.9587,542.503,-0.272494,0.0,0.0
133,33,17.2401,19.0957,169.34,98.0166,100.762,0.00367231,0.0760076,20.9577,542.493,-0.267182,0.0,0.0
152,37.75,17.7677,19.4267,169.739,98.0113,100.982,0.00372588,0.0756678,20.9591,542.503,-0.288841,0.0,0.0
171,42.5,17.8273,19.8049,172.206,97.9979,101.285,0.00382556,0.0757583,20.9589,542.503,-0.319129,0.0,0.0
190,47.25,17.9321,19.4025,173.549,97.9837,101.218,0.00380928,0.0761126,20.9554,542.483,-0.314133,0.0,0.0
209,52,18.0321,19.1865,171.634,97.9747,100.894,0.00375654,0.0764539,20.9554,542.483,-0.283967,0.0,0.0
228,56.75,17.1878,19.0093,172.454,97.9419,100.777,0.00380276,0.0766547,20.956,542.493,-0.275959,0.0,0.0
247,61.5,18.2249,19.3505,167.69,97.937,100.767,0.0036858,0.0766535,20.9537,542.483,-0.275545,0.0,0.0
266,66.25,18.144,19.6127,169.945,97.9061,101.055,0.00390338,0.0772319,20.9518,542.453,-0.306182,0.0,0.0
285,71,18.4101,19.2957,168.006,97.898,100.575,0.00392099,0.077612,20.9516,542.443,-0.260945,0.0,0.0
304,75.75,18.0672,18.994,168.816,97.8903,100.822,0.00366926,0.0778252,20.9515,542.443,-0.285455,0.0,0.0
323,80.5,17.3501,19.2918,165.143,97.8521,100.724,0.00369276,0.0782405,20.9503,542.453,-0.279797,0.0,0.0
342,85.25,17.7124,19.0587,171.976,97.84,100.872,0.00380543,0.07832,20.9502,542.473,-0.295221,0.0,0.0
361,90,17.4646,19.0903,169.424,97.8221,100.827,0.00372974,0.078507,20.9502,542.463,-0.292665,0.0,0.0
380,94.75,18.2218,19.5007,165.367,97.805,101.126,0.00372949,0.0786414,20.9491,542.423,-0.322934,0.0,0.0
399,99.5,17.1873,19.1763,165.719,97.7855,100.483,0.00381534,0.0785439,20.9493,542.443,-0.263196,0.0,0.0
418,104.25,17.9077,19.4102,171.907,97.7823,100.829,0.00387627,0.078279,20.9532,542.463,-0.296756,0.0,0.0
437,109,17.8168,19.5666,167.659,97.7697,100.766,0.00375177,0.0778709,20.9545,542.433,-0.292002,0.0,0.0
456,113.75,18.2915,20.0833,172.329,97.7608,100.574,0.00395527,0.0776991,20.9532,542.433,-0.274435,0.0,0.0
475,118.5,18.0968,19.8116,166.059,97.7425,100.021,0.00406712,0.0778724,20.9525,542.433,-0.222917,0.0,0.0
494,123.25,18.775,19.6344,166.059,97.7344,99.6511,0.00398217,0.0779221,20.9524,542.433,-0.18785,0.0,0.0
513,128,17.952,19.8489,164.373,97.706,99.8963,0.0040148,0.0776434,20.9504,542.413,-0.214435,0.0,0.0
532,132.75,18.2301,19.2752,171.538,97.6763,99.1733,0.00450653,0.0775799,20.9504,542.403,-0.147106,0.0,0.0
551,137.5,17.7434,19.413,169.393,97.6682,99.2057,0.00448661,0.0774262,20.9492,542.373,-0.151077,0.0,0.0
570,142.25,18.3937,19.8652,164.51,97.639,99.1745,0.00480537,0.0773337,20.9491,542.523,-0.150924,0.0,0.0
589,147,18.4634,19.8132,169.87,97.6183,98.7636,0.00491068,0.0775392,20.9475,542.533,-0.112822,0.0,0.0
608,151.75,18.679,19.9103,167.594,97.5866,98.4051,0.00524494,0.0778487,20.947,542.543,-0.0807885,0.0,0.0
627,156.5,17.8081,20.0996,168.726,97.5915,97.6191,0.00559826,0.0783028,20.9453,542.543,-0.00273993,0.0,0.0
646,161.25,17.784,20.3152,168.261,97.5931,96.812,0.0059827,0.0788121,20.9435,542.513,0.0777234,0.0,0.0
665,166,18.6678,20.0829,161.201,97.5752,96.3589,0.00643331,0.0793041,20.9411,542.453,0.121325,0.0,0.0
684,170.75,18.6484,20.42,167.719,97.5797,95.6265,0.0072114,0.0795831,20.9372,542.413,0.195565,0.0,0.0
703,175.5,18.9896,20.0446,173.718,97.5545,94.1811,0.00788116,0.0798469,20.9351,542.363,0.340374,0.0,0.0
722,180.25,18.4625,20.3737,167.275,97.5371,93.4244,0.00874781,0.0797981,20.9351,542.243,0.416676,0.0,0.0
741,185,18.4678,20.9644,167.516,97.5196,100.207,0.00816955,0.0858056,20.9084,541.993,-0.262886,0.0,0.0
760,189.75,20.6149,24.4653,160.044,97.5103,100.887,0.00573234,0.126901,20.8261,542.133,-0.329308,0.0,0.0
779,194.5,23.9656,29.2061,153.384,97.4989,100.275,0.00465914,0.168531,20.7659,541.823,-0.27156,0.0,1.0
798,199.25,25.8231,32.4401,155.76,97.4916,100.25,0.00478112,0.210948,20.7004,541.723,-0.269819,0.0,0.0
817,204,28.4245,36.6427,151.148,97.4709,97.6885,0.00553331,0.259575,20.6083,541.442,-0.0215749,0.0,0.0
836,208.75,32.5412,42.6755,149.674,97.4571,93.4057,0.00692001,0.312525,20.5067,541.212,0.410674,0.0,0.0
855,213.5,36.8402,49.4044,144.257,97.4664,92.2303,0.00849458,0.376739,20.3894,540.832,0.53408,0.0,0.0
874,218.25,41.3179,57.0018,139.563,97.4453,90.245,0.010056,0.449432,20.2591,540.461,0.742458,0.0,0.0
893,223,46.6306,64.8329,141.783,97.4416,86.3921,0.0121143,0.530285,20.0846,539.951,1.16411,0.0,0.0
912,227.75,51.6715,73.0235,133.927,97.4469,84.4348,0.0134016,0.624974,19.9433,539.491,1.38628,0.0,0.0
931,232.5,57.0688,81.5433,128.046,97.4425,84.514,0.0143941,0.707882,19.8068,538.95,1.37677,0.0,0.0
950,237.25,62.3321,89.4459,127.694,97.4506,81.8166,0.0152482,0.783602,19.696,538.31,1.69132,0.0,0.0
969,242,66.8137,96.2555,128.547,97.453,79.3213,0.0154952,0.852839,19.5781,537.749,1.99113,0.0,0.0
988,246.75,71.934,104.828,118.506,97.4563,81.1584,0.0161946,0.941777,19.4204,536.999,1.77,0.0,0.0
1007,251.5,77.9706,113.073,127.741,97.4717,82.2404,0.0167796,1.02873,19.2894,536.298,1.64344,0.0,0.0
1026,256.25,82.6307,120.446,125.443,97.479,80.5251,0.0167053,1.08476,19.2246,535.547,1.84803,0.0,0.0
1045,261,86.9187,126.446,116.708,97.4855,81.4491,0.0170681,1.1247,19.1784,534.857,1.73832,0.0,0.0
1064,265.75,91.8233,133.173,113.947,97.5277,79.301,0.0181453,1.1824,19.0476,534.096,2.00102,0.0,0.0
1083,270.5,97.8798,142.231,106.505,97.5237,81.1617,0.0199185,1.27653,18.8823,533.205,1.7763,0.0,0.0
1102,275.25,104.634,153.525,108.287,97.548,78.6746,0.0229017,1.41309,18.6246,532.324,2.07974,0.0,0.0
1121,280,114.28,169.307,99.0186,97.5663,77.9105,0.0265529,1.59528,18.2838,531.334,2.17595,0.0,0.0
1140,284.75,124.738,186.662,100.915,97.587,75.2528,0.0310336,1.81885,17.937,530.203,2.51369,0.0,0.0
1159,289.5,136.804,208.098,89.6227,97.6187,71.6622,0.0374286,2.10435,17.4225,528.941,2.9897,0.0,0.0
1178,294.25,147.995,228.079,96.9807,97.6544,73.4474,0.0431009,2.37131,17.0174,527.55,2.75525,0.0,0.0
1197,299,158.973,246.731,98.74,97.6995,71.812,0.0476165,2.60069,16.7114,526.289,2.9775,0.0,0.0
1216,303.75,166.278,256.18,99.2278,97.7319,72.2878,0.0473836,2.67281,16.7406,524.968,2.91684,0.0,0.0
1235,308.5,166.489,251.377,95.2259,97.7673,74.7839,0.0399525,2.50458,17.1595,523.847,2.592,0.0,0.0
1254,313.25,158.975,231.201,113.56,97.8091,76.7469,0.0292698,2.10601,18.07,523.096,2.34553,0.0,0.0
1273,318,138.9,190.377,133.048,97.8777,85.1441,0.0188295,1.44773,19.2798,522.746,1.34804,0.0,0.0
1292,322.75,116.917,150.896,148.357,97.9175,98.5497,0.0115551,0.888109,20.1441,522.576,-0.0622419,0.0,0.0
1311,327.5,100.091,122.105,142.615,97.9577,98.6804,0.00806161,0.565409,20.4939,522.496,-0.0710943,0.0,0.0
1330,332.25,88.7026,102.702,144.281,97.9934,99.3763,0.00710259,0.418444,20.6037,522.356,-0.135533,0.0,0.0
1349,337,81.3084,90.1074,147.183,98.0052,99.9731,0.00636487,0.344487,20.6518,522.226,-0.192284,0.0,0.0
1368,341.75,75.3556,80.8308,151.974,98.0296,101.219,0.00606415,0.303144,20.683,522.156,-0.309644,0.0,0.0
1387,346.5,71.5433,74.2444,145.984,98.0409,101.024,0.00556123,0.277335,20.7004,522.055,-0.289882,0.0,0.0
1406,351.25,68.9458,69.6088,146.297,98.0247,100.132,0.00546883,0.25894,20.7146,521.935,-0.205707,0.0,0.0
1425,356,66.461,65.6803,145.819,97.995,102.198,0.00563716,0.245636,20.7204,521.835,-0.406213,0.0,0.0
1444,360.75,64.2807,63.3997,145.965,97.9609,101.785,0.00535859,0.23507,20.7312,521.775,-0.370385,0.0,0.0
1463,365.5,61.916,60.263,148.502,97.9126,101.029,0.00516837,0.227281,20.7374,521.625,-0.303054,0.0,0.0
1482,370.25,61.6735,59.7392,148.027,97.8404,101.752,0.00553994,0.221554,20.7433,521.555,-0.379173,0.0,0.0
1501,375,60.3797,58.2841,157.073,97.7429,102.556,0.00560386,0.216254,20.7499,521.485,-0.464923,0.0,0.0
1520,379.75,58.9739,57.6748,151.485,97.6231,101.897,0.00522437,0.212768,20.7506,521.405,-0.414478,0.0,0.0
1539,384.5,58.1821,56.1185,155.8,97.4688,102.027,0.0053491,0.209798,20.7521,521.355,-0.4421,0.0,0.0
1558,389.25,55.9224,54.6629,150.814,97.2865,101.307,0.00546004,0.206122,20.7557,521.295,-0.391648,0.0,0.0
1577,394,55.4308,53.7714,152.366,97.1302,101.946,0.0053039,0.203843,20.7587,521.165,-0.46806,0.0,0.0
1596,398.75,54.6332,53.2207,151.553,96.9658,101.764,0.00530562,0.20057,20.763,521.065,-0.467099,0.0,0.0
1615,403.5,52.8948,51.6011,150.643,96.7806,101.474,0.00565147,0.197324,20.7683,520.965,-0.458071,0.0,0.0
1634,408.25,53.4808,51.8063,153.066,96.6077,101.586,0.00538207,0.194231,20.7734,520.884,-0.486009,0.0,0.0
1653,413,52.3654,50.0935,154.419,96.4266,101.374,0.00506392,0.190377,20.7809,520.884,-0.483918,0.0,0.0
1672,417.75,51.2705,49.9071,150.112,96.2857,101.354,0.00496921,0.186573,20.7858,520.764,-0.496201,0.0,0.0
1691,422.5,51.1075,49.3566,153.44,96.1866,101.206,0.00500342,0.18286,20.7926,520.684,-0.492006,0.0,0.0
1710,427.25,49.7697,48.5454,154.191,96.1184,101.423,0.00532841,0.178145,20.8028,520.614,-0.519603,0.0,0.0
1729,432,48.1966,46.9756,157.163,96.0977,100.692,0.00508428,0.174811,20.8064,520.534,-0.451666,0.0,0.0
1748,436.75,48.2473,46.7006,156.8,96.12,100.697,,0.172079,,520.464,-0.449926,0.0,0.0
1767,441.5,47.7686,46.6583,153.201,96.1785,101.194,,,,520.404,-0.491659,0.0,0.0
1781,445,47.2464,45.9236,156.026,96.2483,101.04,,,,520.354,-0.46992,0.0,0.0