Folder: fsri_materials_database/01_Data/HDPE/Cone (part 6)

File: HDPE_Cone_HF50Scan_220131_R4.csv
Names,Time,Stack TC,Smoke TC,Exh Press,Smoke Comp,Smoke Meas,CO Meter,CO2 Meter,O2 Meter,Sample Mass,Ext Coeff,Start Test,Flame Verif
Chan Gain,,500,500,1,1,1,1,1,1,1,1,1.0,1.0
Offset,,0,0,0.14021,0,0,0,0,0,0,0,0.0,0.0
Gain,,1,1,25.011,13.3046,13.3037,1,1,1,1.00087,1.10262,1.0,1.0
Units,sec,C,C,Pa,%,%,%,%,%,g,/m,,
Baseline,,27.5863,30.5278,161.49,98.3104,103.687,0.00608027,0.0795164,20.9542,-0.185704,-0.514926,,
13,3,24.7723,27.4225,160.148,97.388,102.191,0.00553896,0.0835151,20.9513,930.582,-0.465581,0.0,0.0
26,6.25,25.1912,27.1642,161.147,97.5025,101.999,0.00541372,0.0837831,20.9508,930.632,-0.436022,0.0,0.0
39,9.5,25.5225,27.6455,165.849,97.6203,102.558,0.00546621,0.0833179,20.9518,930.602,-0.477218,0.0,0.0
52,12.75,25.6857,28.1278,161.052,97.7283,102.833,0.00543943,0.0825587,20.9527,930.592,-0.492486,0.0,0.0
65,16,25.5865,28.1594,164.508,97.8266,102.898,0.00553273,0.0819748,20.9536,930.582,-0.488836,0.0,0.0
78,19.25,25.353,28.4351,162.909,97.9362,102.673,0.00568845,0.0818988,20.9525,930.522,-0.456877,0.0,0.0
91,22.5,25.4706,28.19,164.266,98.0117,103.297,0.00569846,0.0821731,20.9511,930.522,-0.507951,0.0,0.0
104,25.75,25.8193,28.3723,163.105,98.0868,102.977,0.00548172,0.0825258,20.9499,930.512,-0.470615,0.0,0.0
117,29,26.0087,28.4771,165.108,98.1688,103.78,0.00564777,0.0837689,20.9484,930.522,-0.537665,0.0,0.0
130,32.25,26.149,28.9857,162.938,98.2443,103.221,0.00585517,0.0852534,20.9458,930.482,-0.477908,0.0,0.0
143,35.5,26.5071,28.8525,165.509,98.3097,103.664,0.00579907,0.0857609,20.9448,930.482,-0.512928,0.0,0.0
156,38.75,25.928,28.8913,158.576,98.3621,102.699,0.00583948,0.0853963,20.9449,930.492,-0.417351,0.0,0.0
169,42,26.1122,28.7921,162.099,98.4275,102.53,0.00617205,0.0845641,20.9452,930.462,-0.395007,0.0,0.0
182,45.25,26.1943,29.467,163.311,98.4701,101.885,0.00679617,0.0841735,20.9448,930.462,-0.329768,0.0,0.0
195,48.5,26.1116,29.5346,158.727,98.4802,100.482,0.00785912,0.0836972,20.9418,930.442,-0.194646,0.0,0.0
208,51.75,26.1305,29.4508,154.67,98.5148,100.383,0.00864846,0.0859111,20.9326,930.402,-0.181678,0.0,0.0
221,55,27.1321,30.8163,155.951,98.5314,103.783,0.00826897,0.106178,20.8847,930.322,-0.502273,0.0,1.0
234,58.25,28.1575,32.7898,151.23,98.5306,104.17,0.00761961,0.136849,20.8349,930.272,-0.538344,0.0,0.0
247,61.5,29.896,34.7741,149.74,98.5115,103.667,0.0071928,0.16974,20.7837,930.192,-0.493361,0.0,0.0
260,64.75,31.4519,37.5338,155.004,98.4859,101.595,0.00690544,0.199493,20.7397,930.071,-0.300656,0.0,0.0
273,68,33.2819,40.3217,148.37,98.436,96.6338,0.00727366,0.240231,20.6536,929.971,0.178725,0.0,0.0
286,71.25,35.8208,44.0489,147.322,98.393,92.586,0.00835692,0.28496,20.5745,929.811,0.588368,0.0,0.0
299,74.5,38.1076,47.7025,143.043,98.343,89.7111,0.00958747,0.325505,20.4983,929.601,0.888544,0.0,0.0
312,77.75,40.7707,51.2448,139.454,98.2748,84.7759,0.0108365,0.372647,20.4172,929.361,1.42912,0.0,0.0
325,81,43.41,56.3766,140.636,98.1936,82.6907,0.0124386,0.431759,20.2788,929.091,1.662,0.0,0.0
338,84.25,47.0813,61.6088,124.757,98.1465,81.6322,0.0139099,0.510364,20.1547,928.79,1.78196,0.0,0.0
351,87.5,52.3257,68.9341,131.566,98.0673,75.4319,0.015756,0.592024,20.0223,928.43,2.53819,0.0,0.0
364,90.75,56.5456,76.4814,124.632,97.9991,72.4413,0.0177442,0.708007,19.797,927.96,2.92273,0.0,0.0
377,94,62.8597,86.1868,115.136,97.9402,71.4746,0.0201342,0.835863,19.5393,927.459,3.04686,0.0,0.0
390,97.25,69.6358,97.873,112.616,97.9061,71.3346,0.0228828,0.990849,19.2809,926.929,3.06246,0.0,0.0
403,100.5,77.0066,109.385,115.479,97.8667,66.2706,0.0261815,1.14359,19.0221,926.478,3.77077,0.0,0.0
416,103.75,84.1108,121.223,102.692,97.8509,66.3839,0.0288684,1.31141,18.728,925.738,3.75269,0.0,0.0
429,107,91.8399,133.709,103.12,97.995,67.8227,0.0320931,1.48023,18.4917,924.997,3.55953,0.0,0.0
442,110.25,99.9605,146.808,101.23,98.1213,64.3303,0.0354818,1.63863,18.2164,924.216,4.0833,0.0,0.0
455,113.5,107.462,158.732,102.817,98.2383,62.1059,0.0397902,1.8346,17.9132,923.426,4.43519,0.0,0.0
468,116.75,116.912,173.408,108.274,98.3414,63.1526,0.0444843,2.06354,17.5154,922.415,4.2837,0.0,0.0
481,120,124.966,187.58,92.53,98.4352,62.6369,0.0503043,2.27113,17.2125,921.504,4.37221,0.0,0.0
494,123.25,132.863,201.781,87.2405,98.492,63.792,0.056361,2.49461,16.8022,920.653,4.20106,0.0,0.0
507,126.5,142.237,216.708,93.1063,98.5485,60.9147,0.0621426,2.74082,16.4201,919.562,4.653,0.0,0.0
520,129.75,151.305,231.797,78.6186,98.596,65.7854,0.0676172,3.03987,16.0108,918.411,3.91364,0.0,0.0
533,133,161.681,249.385,88.2908,98.6146,64.9089,0.0730524,3.35331,15.518,917.19,4.04522,0.0,0.0
546,136.25,171.338,267.158,99.1705,98.6329,63.2285,0.0794345,3.71003,14.949,915.989,4.3007,0.0,0.0
559,139.5,181.346,285.332,72.7604,98.652,65.1086,0.084899,4.10671,14.3781,914.658,4.01916,0.0,0.0
572,142.75,191.454,304.49,78.9521,98.6589,69.8019,0.0889033,4.53551,13.638,913.367,3.34661,0.0,0.0
585,146,205.713,331.168,65.1506,98.6621,66.9596,0.0870443,5.09511,12.7823,911.725,3.74903,0.0,0.0
598,149.25,217.141,350.908,58.3299,98.6548,76.1939,0.082483,5.59826,12.18,910.124,2.49874,0.0,0.0
611,152.5,228.536,373.94,63.7141,98.6617,69.1483,0.0822495,5.94186,11.6339,908.703,3.43789,0.0,0.0
624,155.75,238.474,389.212,79.6459,98.6459,69.3659,0.0858162,6.14403,11.4554,907.101,3.40595,0.0,0.0
637,159,242.627,392.326,74.9533,98.6459,72.0041,0.0889821,6.03432,11.7367,905.66,3.04492,0.0,0.0
650,162.25,245.848,391.065,80.4901,98.6504,62.0328,0.0891328,5.70053,12.2922,904.369,4.48707,0.0,0.0
663,165.5,243.818,380.86,93.8283,98.6467,61.6833,0.0840575,5.19457,13.1915,903.298,4.54137,0.0,0.0
676,168.75,243.127,374.041,95.5396,98.6463,61.2874,0.0768554,4.71531,13.9472,902.167,4.6036,0.0,0.0
689,172,238.843,359.308,106.927,98.6508,64.3917,0.0685775,4.1336,14.7861,901.226,4.12614,0.0,0.0
702,175.25,230.726,339.032,99.9117,98.6483,64.1696,0.0591922,3.49263,15.8656,900.346,4.15932,0.0,0.0
715,178.5,221.024,315.654,91.7461,98.6548,67.5028,0.0483574,2.80854,16.8958,899.665,3.67016,0.0,0.0
728,181.75,207.394,288.267,118.184,98.6548,69.5555,0.0363588,2.13988,18.0057,899.425,3.38042,0.0,0.0
741,185,190.303,255.719,131.018,98.6504,89.7704,0.0245228,1.46718,19.2177,899.375,0.912338,0.0,0.0
754,188.25,171.525,222.75,138.988,98.6073,97.8635,0.0164212,0.908684,20.086,899.375,0.0732353,0.0,0.0
767,191.5,155.332,195.452,139.852,98.5566,98.0726,0.0114813,0.558845,20.5147,899.395,0.0476124,0.0,0.0
780,194.75,142.797,173.917,139.336,98.4945,97.8806,0.0091233,0.369519,20.7225,899.405,0.0604725,0.0,0.0
793,198,133.818,157.234,140.264,98.3954,97.5399,0.00785272,0.265524,20.8147,899.355,0.0844579,0.0,0.0
806,201.25,125.02,143.702,142.932,98.2711,97.8416,0.0072304,0.207311,20.8619,899.355,0.0423699,0.0,0.0
819,204.5,118.169,132.315,142.425,98.1148,97.6431,0.00683156,0.173454,20.8877,899.345,0.0466188,0.0,0.0
832,207.75,112.315,122.748,144.009,97.9601,97.4202,0.00640309,0.15003,20.9067,899.395,0.0534609,0.0,0.0
845,211,107.634,114.253,141.197,97.8586,97.1039,0.00624955,0.134214,20.9178,899.445,0.0748841,0.0,0.0
858,214.25,103.405,107.885,145.348,97.8944,97.3455,0.00619625,0.123285,20.9263,899.415,0.0543839,0.0,0.0
871,217.5,99.5502,102.523,146.105,97.948,98.0556,0.00594652,0.114503,20.9344,899.445,-0.0106198,0.0,0.0
884,220.75,95.9591,97.1081,146.756,98.0243,97.49,0.00589766,0.108032,20.9393,899.375,0.0528612,0.0,0.0
897,224,93.1234,93.2486,143.276,98.0803,97.8205,0.00577858,0.103475,20.9424,899.345,0.025656,0.0,0.0
910,227.25,90.932,89.477,139.696,98.155,98.0734,0.00585661,0.100181,20.9425,899.415,0.00804463,0.0,0.0
923,230.5,89.0597,87.2383,145.122,98.2411,98.2959,0.0060593,0.0973654,20.9435,899.435,-0.00539411,0.0,0.0
936,233.75,86.0298,82.7382,142.165,98.3191,97.6284,0.00603402,0.0951886,20.9465,899.395,0.0681785,0.0,0.0
949,237,84.7319,82.1494,145.988,98.3783,99.3722,0.00574992,0.0935736,20.9479,899.425,-0.0972218,0.0,0.0
962,240.25,83.5714,79.6969,146.229,98.4587,98.3207,0.00572223,0.0922617,20.9499,899.415,0.0135717,0.0,0.0
975,243.5,82.1285,77.8855,147.158,98.5022,99.6523,0.00576145,0.0912882,20.9519,899.395,-0.112282,0.0,0.0
988,246.75,80.4468,76.4012,150.647,98.5274,99.2342,0.00576307,0.0906368,20.9521,899.385,-0.0691374,0.0,0.0
1001,250,79.1451,74.9212,147.687,98.5217,99.6755,0.00580644,0.0899061,20.9471,899.365,-0.112614,0.0,0.0
1014,253.25,78.0122,72.9411,144.507,98.5018,100.18,0.00573389,0.0890268,20.9466,899.355,-0.163374,0.0,0.0
1027,256.5,76.3861,71.8857,143.794,98.4465,99.5163,0.00584408,0.0881789,20.9488,899.385,-0.104536,0.0,0.0
1040,259.75,75.8163,70.6927,146.766,98.3503,99.9446,0.00585767,0.0870611,20.9521,899.385,-0.155534,0.0,0.0
1053,263,74.8574,69.9317,151.44,98.2545,99.7607,0.00576865,0.0857249,20.9557,899.385,-0.147148,0.0,0.0
1066,266.25,73.0671,68.606,145.392,98.0953,99.2484,0.00577278,0.0843536,20.9588,899.395,-0.113024,0.0,0.0
1079,269.5,72.5257,67.7094,149.203,97.9207,100.229,0.00561142,0.0830815,20.9604,899.405,-0.225338,0.0,0.0
1092,272.75,71.0392,66.1036,150.381,97.7527,99.6182,0.00565153,0.082356,20.9583,899.385,-0.182849,0.0,0.0
1105,276,70.4385,65.8779,147.71,97.5306,99.2094,0.0056664,0.0819499,20.9582,899.395,-0.165073,0.0,0.0
1118,279.25,69.9371,64.952,148.551,97.3044,100.219,0.00566884,0.0813961,20.96,899.405,-0.285468,0.0,0.0
1131,282.5,69.1677,64.5402,144.615,97.0884,100.147,0.00576012,0.0811718,20.9605,899.395,-0.300024,0.0,0.0
1144,285.75,68.0768,63.3985,145.704,96.9175,100.507,0.00572775,0.081237,20.9606,899.365,-0.351708,0.0,0.0
1157,289,67.1458,62.5415,151.153,96.7153,100.128,0.00594135,0.0815828,20.9596,899.385,-0.335387,0.0,0.0
1170,292.25,66.5827,61.8926,148.228,96.5496,100.358,0.00598459,0.0817042,20.9581,899.395,-0.37414,0.0,0.0
1183,295.5,65.6188,61.9248,150.073,96.4473,99.7782,0.00570781,0.0812081,20.9584,899.405,-0.328397,0.0,0.0
1196,298.75,64.1849,59.8597,149.52,96.3742,99.6142,,0.0808078,,899.415,-0.319817,0.0,0.0
1209,302,64.6886,59.9065,151.837,96.3693,100.757,,,,899.385,-0.430642,0.0,0.0
1222,305.25,63.5028,59.5523,155.27,96.3762,100.117,,,,899.415,-0.368292,0.0,0.0
1233,308,62.7204,59.3952,148.538,96.4241,100.025,,,,899.385,-0.354617,0.0,0.0

File: HDPE_Cone_HF50Scan_220218_R2.csv
Names,Time,Stack TC,Smoke TC,Exh Press,Smoke Comp,Smoke Meas,CO Meter,CO2 Meter,O2 Meter,Sample Mass,Ext Coeff,Start Test,Flame Verif
Chan Gain,,500,500,1,1,1,1,1,1,1,1,1.0,1.0
Offset,,0,0,0.132436,0,0,0,0,0,0,0,0.0,0.0
Gain,,1,1,25.011,15.4219,15.1528,1,1,1,1.00089,1.02113,1.0,1.0
Units,sec,C,C,Pa,%,%,%,%,%,g,/m,,
Baseline,,36.322,38.1461,156.092,114.96,111.902,-0.00832659,0.0544123,20.9811,-479.199,0.241659,,
16,3.75,32.6283,34.0772,159.557,115.834,113.06,-0.0085606,0.0565594,20.9858,426.117,0.217076,0.0,0.0
32,7.75,32.7021,34.3859,154.643,115.938,112.595,-0.00877286,0.0556126,20.9841,426.147,0.262119,0.0,0.0
48,11.75,32.7652,34.396,156.129,115.918,112.804,-0.00903582,0.0570542,20.9812,426.167,0.24387,0.0,0.0
64,15.75,33.5327,35.1374,156.859,115.776,112.044,-0.00889381,0.0609225,20.9763,426.177,0.293488,0.0,0.0
80,19.75,33.5942,34.9117,161.813,115.606,112.659,-0.00862551,0.0624474,20.9739,426.077,0.2313,0.0,0.0
96,23.75,33.8071,35.1273,154.66,116.075,112.212,-0.00846724,0.0614564,20.978,426.097,0.303133,0.0,0.0
112,27.75,33.885,35.0315,156.872,116.429,113.085,-0.00852318,0.0588372,20.9816,426.067,0.260981,0.0,0.0
128,31.75,34.3026,35.7776,158.623,116.434,112.234,-0.00867409,0.0560545,20.9857,426.117,0.329103,0.0,0.0
144,35.75,34.3868,36.5506,156.344,115.981,112.365,-0.00810638,0.054022,20.9858,426.077,0.283694,0.0,0.0
160,39.75,34.1077,35.4842,158.444,115.962,111.23,-0.00778717,0.0543682,20.9845,426.077,0.373199,0.0,0.0
176,43.75,34.3699,36.0555,156.936,116.302,111.249,-0.00750851,0.0564372,20.9803,426.117,0.397842,0.0,0.0
192,47.75,34.7189,36.6761,156.548,116.601,110.582,-0.00658987,0.0579723,20.9757,426.127,0.474791,0.0,0.0
208,51.75,34.8046,37.0991,153.316,116.635,107.573,-0.00543848,0.0584559,20.973,426.057,0.72443,0.0,0.0
224,55.75,35.1532,37.0708,153.054,116.354,110.997,-0.00546571,0.0674882,20.9449,426.007,0.42218,0.0,1.0
240,59.75,35.7179,37.8793,146.718,115.796,109.068,-0.00662712,0.0958903,20.8912,425.917,0.536163,0.0,1.0
256,63.75,36.8346,39.1657,147.846,115.121,108.211,-0.00718597,0.136052,20.8164,425.887,0.554416,0.0,0.0
272,67.75,38.381,40.9098,141.466,114.513,104.428,-0.00675752,0.191862,20.7056,425.697,0.825733,0.0,0.0
288,71.75,40.5268,43.1907,137.518,114.212,99.458,-0.00561873,0.263666,20.5442,425.657,1.23893,0.0,0.0
304,75.75,43.2798,47.0638,130.845,114.31,94.7542,-0.00449501,0.36021,20.3638,425.357,1.68062,0.0,0.0
320,79.75,47.1287,51.6171,129.755,114.713,92.2724,-0.00301068,0.462085,20.1698,425.016,1.94991,0.0,0.0
336,83.75,52.0085,56.9947,125.986,115.283,90.9642,-0.00134089,0.554736,20.0228,424.746,2.12216,0.0,0.0
352,87.75,55.8841,62.9017,118.519,115.734,91.3572,-0.000184004,0.650006,19.8639,424.276,2.11854,0.0,0.0
368,91.75,60.9602,69.2132,119.359,115.861,92.5457,0.000991674,0.741749,19.6996,423.865,2.01256,0.0,0.0
384,95.75,66.1005,75.4492,120.565,115.83,92.2506,0.0020973,0.838858,19.5587,423.415,2.03884,0.0,0.0
400,99.75,71.1929,82.0815,111.832,115.613,86.8338,0.00291334,0.918243,19.4378,422.925,2.56401,0.0,0.0
416,103.75,76.8219,88.5786,109.446,115.868,86.0994,0.00487962,1.02784,19.2173,422.384,2.65982,0.0,0.0
432,107.75,82.7912,97.1611,108.838,116.42,87.1251,0.00676201,1.21477,18.9308,421.733,2.59632,0.0,0.0
448,111.75,91.2794,107.17,91.723,116.339,83.8585,0.00986983,1.45693,18.4307,421.033,2.93238,0.0,0.0
464,115.75,100.687,119.264,84.7169,115.772,82.6608,0.0134687,1.75589,17.9349,420.202,3.01746,0.0,0.0
480,119.75,111.203,132.66,82.466,116.093,81.8645,0.0173884,2.04626,17.4717,419.351,3.12897,0.0,0.0
496,123.75,121.162,146.756,100.579,116.482,80.1484,0.0209477,2.30333,17.1209,418.431,3.34871,0.0,0.0
512,127.75,131.943,161.126,85.9267,116.66,82.031,0.0245804,2.59652,16.6621,417.34,3.15446,0.0,0.0
528,131.75,142.713,176.467,85.1993,116.471,80.7366,0.0285612,2.85528,16.2564,416.299,3.28238,0.0,0.0
544,135.75,153.694,191.702,80.0297,115.966,78.8074,0.031776,3.25197,15.6711,415.108,3.46006,0.0,0.0
560,139.75,165.461,208.665,69.6049,115.282,77.8862,0.0351036,3.62817,15.0932,413.947,3.5124,0.0,0.0
576,143.75,176.859,226.26,64.7558,114.646,78.1817,0.0392429,4.05207,14.4827,412.385,3.42898,0.0,0.0
592,147.75,189.437,245.17,71.5726,114.272,77.1168,0.0433493,4.57116,13.6317,411.074,3.52251,0.0,0.0
608,151.75,201.92,264.362,58.3885,114.274,77.2014,0.0480038,5.12381,12.9096,409.523,3.51287,0.0,0.0
624,155.75,214.572,284.037,63.2437,114.578,80.5572,0.0532137,5.69343,12.0623,407.841,3.1555,0.0,0.0
640,159.75,227.96,305.331,65.2473,115.05,83.2139,0.0571277,6.37154,11.1098,406.29,2.90174,0.0,0.0
656,163.75,240.793,327.626,69.5942,115.47,78.0032,0.0598177,7.01794,10.2055,404.398,3.51353,0.0,0.0
672,167.75,253.561,348.56,67.4043,115.759,84.763,0.0631451,7.63257,9.31225,402.396,2.79153,0.0,0.0
688,171.75,266.837,371.106,51.6007,115.82,82.7658,0.0676637,8.33991,8.40357,400.665,3.00985,0.0,0.0
704,175.75,277.73,390.871,44.6229,115.779,84.5068,0.0706219,8.62734,8.20634,398.603,2.82021,0.0,0.0
720,179.75,285.877,402.663,63.5078,115.768,80.6423,0.0673971,8.08367,9.24267,397.202,3.23861,0.0,0.0
736,183.75,286.398,403.015,71.9382,115.644,74.5156,0.0519018,6.41004,12.6828,396.031,3.93679,0.0,0.0
752,187.75,278.771,385.921,109.857,115.523,85.1047,0.0282728,4.37892,16.1049,395.6,2.73723,0.0,0.0
768,191.75,261.522,357.737,123.973,115.697,98.4176,0.00982637,2.50867,18.6866,395.34,1.44887,0.0,0.0
784,195.75,242.837,329.613,127.77,116.184,101.918,0.00203617,1.44278,19.8027,395.18,1.17348,0.0,0.0
800,199.75,227.317,304.242,129.606,116.408,105.335,-0.00149381,0.961184,20.2203,395,0.895321,0.0,0.0
816,203.75,212.252,281.42,130.311,116.456,104.151,-0.00328667,0.709347,20.4511,395.02,1.00025,0.0,0.0
832,207.75,199.976,261.349,129.312,116.269,104.082,-0.00375188,0.561803,20.5535,394.88,0.991836,0.0,0.0
848,211.75,188.905,243.223,132.567,115.872,105.34,-0.00435828,0.466604,20.6192,394.82,0.85362,0.0,0.0
864,215.75,178.329,227.595,129.382,115.914,104.017,-0.00492331,0.401536,20.6599,394.72,0.969993,0.0,0.0
880,219.75,169.086,213.726,133.444,116.143,105.257,-0.00528391,0.354996,20.6931,394.66,0.881521,0.0,0.0
896,223.75,160.818,200.535,136.047,116.375,106.003,-0.00547646,0.320389,20.7128,394.609,0.836183,0.0,0.0
912,227.75,153.089,189.144,135.35,116.564,104.744,-0.0056769,0.29482,20.724,394.519,0.957733,0.0,0.0
928,231.75,147.374,179.078,136.091,116.688,106.019,-0.00594963,0.273456,20.745,394.449,0.858871,0.0,0.0
944,235.75,140.636,169.944,136.949,116.72,105.847,-0.00621483,0.248161,20.7756,394.389,0.875911,0.0,0.0
960,239.75,135.031,161.523,139.314,116.658,105.679,-0.00656135,0.225761,20.8027,394.329,0.885397,0.0,0.0
976,243.75,130.415,153.577,137.203,116.513,106.246,-0.00689332,0.209472,20.8199,394.269,0.826299,0.0,0.0
992,247.75,125.825,146.697,137.845,116.277,107.043,-0.00722165,0.193374,20.829,394.269,0.741193,0.0,0.0
1008,251.75,120.926,139.838,142.371,115.991,107.186,-0.00737649,0.175274,20.8547,394.219,0.707171,0.0,0.0
1024,255.75,117.011,133.554,141.06,115.666,107.038,-0.00731658,0.159029,20.8761,394.169,0.694399,0.0,0.0
1040,259.75,113.139,127.895,140.341,115.323,106.696,-0.00741335,0.144716,20.8955,394.189,0.696395,0.0,0.0
1056,263.75,109.477,122.557,139.375,115.004,106.669,-0.00765203,0.132395,20.9104,394.119,0.673905,0.0,0.0
1072,267.75,106.184,118.218,140.516,114.736,106.031,-0.00760263,0.121785,20.9194,394.099,0.706731,0.0,0.0
1088,271.75,102.914,113.379,141.157,114.527,105.674,-0.00764548,0.114087,20.9239,394.109,0.72065,0.0,0.0
1104,275.75,98.9593,109.409,141.387,114.396,106.097,-0.00762121,0.107086,20.9309,394.119,0.67462,0.0,0.0
1120,279.75,97.3663,105.619,142.035,114.364,105.742,-0.00769195,0.099599,20.9419,394.089,0.70207,0.0,0.0
1136,283.75,94.5044,102.078,140.973,114.39,105.551,-0.00790437,0.0927635,20.9489,394.049,0.720368,0.0,0.0
1152,287.75,91.9401,98.7936,142.845,114.507,105.98,-0.00786175,0.0882965,20.9526,394.039,0.693157,0.0,0.0
1168,291.75,90.2301,95.4477,141.622,114.669,105.482,-0.00793403,0.0851308,20.9532,394.029,0.748044,0.0,0.0
1184,295.75,87.6059,93.3661,142.816,114.858,106.477,-0.00793459,0.0821406,20.9562,394.059,0.678625,0.0,0.0
1200,299.75,86.1423,90.366,146.138,115.069,106.702,-0.00810007,0.0788362,20.9591,394.079,0.676128,0.0,0.0
1216,303.75,84.6295,88.3512,141.828,115.282,106.965,-0.00808771,0.0760943,20.9616,394.109,0.670687,0.0,0.0
1232,307.75,82.8165,86.2176,140.252,115.463,107.696,-0.00808689,0.0746455,20.962,394.119,0.623778,0.0,0.0
1248,311.75,81.2528,83.3517,143.319,115.626,106.964,-0.00811984,0.0733694,20.9621,393.969,0.697456,0.0,0.0
1264,315.75,79.9413,82.5269,146.53,115.752,106.917,-0.00802762,0.072479,20.9613,393.959,0.711133,0.0,0.0
1280,319.75,78.9303,79.7503,145.071,115.86,107.471,-0.0078936,0.0701761,20.9642,393.979,0.673291,0.0,0.0
1296,323.75,77.1776,78.8863,144.863,115.933,107.335,-0.00794791,0.0654962,20.9728,393.989,0.690268,0.0,0.0
1312,327.75,75.8593,76.8654,144.065,115.975,107.434,-0.00831549,0.0620221,20.9776,393.989,0.685212,0.0,0.0
1328,331.75,74.6719,75.5518,144.601,115.976,107.259,-0.00854809,0.0600845,20.9794,394.089,0.699869,0.0,0.0
1344,335.75,73.8002,74.6741,144.378,115.953,108.801,-0.00867092,0.0586964,20.9821,394.069,0.570253,0.0,0.0
1360,339.75,72.8923,72.9891,141.521,115.916,108.46,-0.00857177,0.0574284,20.9847,394.049,0.595521,0.0,0.0
1376,343.75,71.4794,71.7038,143.354,115.875,108.478,-0.00846402,0.0561531,20.9863,394.009,0.590867,0.0,0.0
1392,347.75,71.1587,70.4548,147.3,115.834,107.715,-0.00843041,0.0555069,20.9865,394.009,0.650927,0.0,0.0
1408,351.75,70.2231,69.4091,144.41,115.782,108.147,-0.00856443,0.0551121,20.9866,394.009,0.611004,0.0,0.0
1424,355.75,69.1892,68.7859,146.481,115.719,108.149,-0.00871906,0.0550138,20.9866,393.989,0.606005,0.0,0.0
1440,359.75,68.5508,68.1298,146.62,115.663,107.844,-0.00862492,0.0549624,20.9851,393.979,0.626984,0.0,0.0
1456,363.75,67.6458,67.0853,145.5,115.642,108.45,-0.0085752,0.0550104,20.9834,394.039,0.575093,0.0,0.0
1472,367.75,66.7421,65.8501,146.029,115.599,107.619,-0.00867744,0.0548991,20.9831,394.029,0.640712,0.0,0.0
1488,371.75,65.637,64.5907,151.033,115.63,108.541,-0.00895345,0.0544464,20.984,394.059,0.566662,0.0,0.0
1504,375.75,64.8996,63.5624,148.638,115.874,107.615,-0.00892552,0.0539398,20.9851,394.069,0.662367,0.0,0.0
1520,379.75,64.7942,63.4758,147.18,116.081,108.76,,0.0534907,,394.029,0.583488,0.0,0.0
1536,383.75,64.5415,63.2907,147.544,116.23,108.27,,,,393.999,0.635455,0.0,0.0
1552,387.75,63.802,62.0765,149.83,116.322,108.99,,,,394.019,0.583153,0.0,0.0
1563,390.5,63.4945,62.4357,143.813,116.414,109.05,,,,394.019,0.585317,0.0,0.0