Folder: fsri_materials_database/01_Data/HDPE/Cone (part 7)

File: HDPE_Cone_HF50Scan_220218_R4.csv
Names,Time,Stack TC,Smoke TC,Exh Press,Smoke Comp,Smoke Meas,CO Meter,CO2 Meter,O2 Meter,Sample Mass,Ext Coeff,Start Test,Flame Verif
Chan Gain,,500,500,1,1,1,1,1,1,1,1,1.0,1.0
Offset,,0,0,0.132436,0,0,0,0,0,0,0,0.0,0.0
Gain,,1,1,25.011,15.4219,15.1528,1,1,1,1.00089,1.02113,1.0,1.0
Units,sec,C,C,Pa,%,%,%,%,%,g,/m,,
Baseline,,44.819,45.1263,151.471,116.367,112.32,-0.00848979,0.055027,20.98,-479.407,0.317176,,
14,3.25,41.9774,42.6034,152.223,116.271,112.277,-0.00833757,0.0610144,20.9716,425.016,0.313136,0.0,0.0
28,6.75,41.7704,41.9355,151.249,116.187,112.824,-0.00822766,0.0607838,20.9717,424.976,0.263106,0.0,0.0
42,10.25,41.9753,42.7455,153.161,116.151,111.396,-0.00844945,0.0604323,20.9705,424.996,0.374404,0.0,0.0
56,13.75,41.2786,42.5651,156.157,116.104,112.234,-0.0086068,0.0597986,20.9706,424.996,0.30365,0.0,0.0
70,17.25,41.8801,42.234,152.79,116.065,113.084,-0.00860182,0.0594356,20.9703,424.976,0.233058,0.0,0.0
84,20.75,42.0257,42.17,150.635,115.988,112.683,-0.00867383,0.0590584,20.9706,424.986,0.258913,0.0,0.0
98,24.25,41.9044,42.1007,150.884,115.953,112.108,-0.00867223,0.0587522,20.9721,424.956,0.302067,0.0,0.0
112,27.75,41.8107,42.4235,150.975,115.9,112.521,-0.0084314,0.05863,20.9724,424.986,0.264989,0.0,0.0
126,31.25,41.9318,42.1103,153.586,115.787,112.382,-0.00830926,0.0587103,20.9728,424.946,0.267379,0.0,0.0
140,34.75,42.0329,42.7169,153.67,115.695,112.519,-0.00826938,0.0593391,20.9716,424.966,0.249373,0.0,0.0
154,38.25,41.8962,42.5149,150.618,115.595,112.496,-0.00852738,0.0599166,20.9708,424.986,0.243413,0.0,0.0
168,41.75,42.004,42.7891,150.18,115.619,112.149,-0.0085632,0.0596911,20.9697,424.956,0.272967,0.0,0.0
182,45.25,41.8344,42.3474,153.499,115.614,111.339,-0.00807031,0.0594355,20.9677,424.996,0.337473,0.0,0.0
196,48.75,42.1648,42.8249,150.363,115.672,110.002,-0.00703057,0.0591875,20.9647,424.916,0.450157,0.0,0.0
210,52.25,42.2354,43.0679,152.278,115.654,108.77,-0.00552299,0.0590247,20.9616,424.936,0.549687,0.0,0.0
224,55.75,42.0655,42.7495,153.627,115.681,108.211,-0.00369736,0.0593528,20.9568,424.916,0.597961,0.0,0.0
238,59.25,42.2474,42.7247,147.85,115.707,110.688,-0.00351681,0.0677634,20.9284,424.776,0.39726,0.0,1.0
252,62.75,42.4377,43.9624,143.401,115.742,111.087,-0.00543576,0.105932,20.8506,424.716,0.367719,0.0,1.0
266,66.25,43.5736,44.3411,139.445,115.762,109.032,-0.00660764,0.151225,20.7773,424.656,0.536502,0.0,0.0
280,69.75,44.628,46.5969,138.674,115.79,105.138,-0.0066445,0.202442,20.6809,424.516,0.864373,0.0,0.0
294,73.25,46.8047,48.3843,137.867,115.824,101.305,-0.00612213,0.255381,20.5776,424.406,1.19973,0.0,0.0
308,76.75,48.6768,51.2185,134.845,115.851,97.0696,-0.00515222,0.319538,20.4731,424.206,1.58434,0.0,0.0
322,80.25,50.5822,53.8832,131.933,115.887,94.1221,-0.00380777,0.388417,20.3378,423.915,1.86335,0.0,0.0
336,83.75,53.9969,57.7651,126.818,115.886,88.1725,-0.00237055,0.463324,20.2008,423.625,2.44812,0.0,0.0
350,87.25,57.2675,62.1499,123.468,115.914,88.5447,-0.000810342,0.531901,20.0822,423.295,2.41257,0.0,0.0
364,90.75,60.4939,65.8096,126.619,115.928,90.2377,0.000811431,0.618883,19.929,422.955,2.24398,0.0,0.0
378,94.25,64.4003,70.6554,114.492,115.966,86.0768,0.00220717,0.708906,19.752,422.664,2.66974,0.0,0.0
392,97.75,68.6742,76.3528,110.425,115.993,84.148,0.00319929,0.816205,19.5703,422.174,2.87488,0.0,0.0
406,101.25,73.6937,82.6365,112.284,116.013,84.3616,0.00443366,0.924509,19.4078,421.653,2.85369,0.0,0.0
420,104.75,78.3088,89.1626,106.404,116.04,76.3764,0.0066989,1.04996,19.1624,421.213,3.7465,0.0,0.0
434,108.25,83.8601,96.0225,108.528,116.028,78.4643,0.00915624,1.20824,18.8604,420.673,3.50394,0.0,0.0
448,111.75,90.9515,104.84,96.0943,116.047,76.5725,0.0121693,1.43476,18.486,420.032,3.72404,0.0,0.0
462,115.25,98.1163,114.83,96.8622,116.003,78.5632,0.0154959,1.65489,18.1037,419.211,3.49073,0.0,0.0
476,118.75,107.249,126.546,93.3183,115.995,75.9214,0.0183421,1.8679,17.8283,418.461,3.7965,0.0,0.0
490,122.25,114.469,136.214,92.6832,115.95,74.6035,0.0218329,2.04315,17.5511,417.8,3.94986,0.0,0.0
504,125.75,123.591,148.558,85.6443,115.903,72.8916,0.0254222,2.33714,17.0725,416.959,4.15423,0.0,0.0
518,129.25,131.824,160.411,80.5472,115.857,73.8627,0.0296628,2.65679,16.5582,415.918,4.03208,0.0,0.0
532,132.75,142.127,174.819,99.7909,115.798,72.6576,0.0343667,3.02323,15.9744,414.968,4.17488,0.0,0.0
546,136.25,152.228,189.75,66.3106,115.76,72.0342,0.0401761,3.36529,15.4769,413.827,4.24911,0.0,0.0
560,139.75,162.995,205.577,74.1837,115.691,75.4307,0.0445096,3.75171,14.9069,412.796,3.83106,0.0,0.0
574,143.25,174.262,222.095,68.3966,115.636,73.3082,0.0467534,4.2072,14.1652,411.574,4.08246,0.0,0.0
588,146.75,185.168,238.866,68.995,115.552,76.2613,0.0494651,4.60496,13.6901,410.053,3.72222,0.0,0.0
602,150.25,195.192,254.682,65.7137,115.496,72.6955,0.0529421,5.09966,12.9633,408.762,4.14684,0.0,0.0
616,153.75,207.593,273.681,70.0361,115.428,72.9424,0.0550067,5.55685,12.2798,407.431,4.11117,0.0,0.0
630,157.25,218.713,291.156,42.7483,115.389,84.5198,0.0548197,6.17556,11.3006,405.799,2.78857,0.0,0.0
644,160.75,231.463,312.22,60.3036,115.338,78.4088,0.0548287,6.83423,10.4905,404.218,3.45686,0.0,0.0
658,164.25,242.558,330.11,65.1618,115.286,75.9584,0.0547729,7.06852,10.2735,402.847,3.73727,0.0,0.0
672,167.75,252.579,346.023,47.9988,115.253,83.3877,0.053637,7.26749,10.0616,401.245,2.89878,0.0,0.0
686,171.25,262.177,361.53,63.5765,115.205,82.3662,0.0552945,7.37121,10.0541,399.764,3.00553,0.0,0.0
700,174.75,269.792,373.076,69.0538,115.19,76.1494,0.0595589,7.24254,10.281,398.323,3.70728,0.0,0.0
714,178.25,275.369,380.879,55.6438,115.139,74.9517,0.0623341,7.03892,10.657,396.831,3.84529,0.0,0.0
728,181.75,279.696,386.86,55.9064,115.121,76.8726,0.0627617,6.61648,11.3727,395.51,3.61722,0.0,0.0
742,185.25,281.575,387.809,63.9009,115.089,68.5942,0.059779,5.98826,12.4555,394.339,4.63533,0.0,0.0
756,188.75,280.787,383.189,84.0926,115.096,66.5813,0.0481602,4.9544,14.1704,393.509,4.90267,0.0,0.0
770,192.25,273.965,370.578,97.2957,115.085,75.6916,0.0324356,3.78702,15.9628,393.018,3.75309,0.0,0.0
784,195.75,263.419,352.186,124.359,115.095,88.8171,0.0163338,2.52231,18.0933,392.818,2.32152,0.0,0.0
798,199.25,248.049,328.603,132.773,115.099,107.302,0.00437193,1.47888,19.7235,392.868,0.628304,0.0,0.0
812,202.75,231.037,303.866,136.436,115.139,107.096,-0.00163911,0.858235,20.4541,392.878,0.648609,0.0,0.0
826,206.25,217.313,283.325,136.336,115.141,107.241,-0.0046562,0.554664,20.7437,392.898,0.636622,0.0,0.0
840,209.75,204.17,263.938,141.053,115.158,107.235,-0.00619186,0.397561,20.8507,392.908,0.638478,0.0,0.0
854,213.25,193.065,246.477,144.362,115.198,107.16,-0.0066833,0.307097,20.8976,392.898,0.647924,0.0,0.0
868,216.75,183.314,232.341,135.357,115.228,107.488,-0.00689294,0.249381,20.9163,392.878,0.62283,0.0,0.0
882,220.25,173.568,217.645,135.236,115.261,107.201,-0.00722866,0.20921,20.9318,392.888,0.649348,0.0,0.0
896,223.75,165.87,206.23,139.482,115.274,106.926,-0.00767132,0.180688,20.9428,392.878,0.673358,0.0,0.0
910,227.25,158.293,194.605,142.75,115.311,107.08,-0.0077847,0.158473,20.9521,392.918,0.663393,0.0,0.0
924,230.75,150.965,184.199,141.642,115.314,107.096,-0.00770861,0.141116,20.9594,392.878,0.662258,0.0,0.0
938,234.25,145.08,174.436,139.203,115.346,107.024,-0.00806729,0.126866,20.9673,392.898,0.670739,0.0,0.0
952,237.75,139.211,165.764,140.905,115.359,106.908,-0.00818744,0.114558,20.9696,392.918,0.681522,0.0,0.0
966,241.25,134.117,158.094,135.207,115.392,107.156,-0.00815763,0.105443,20.9699,392.918,0.663261,0.0,0.0
980,244.75,129.68,150.921,139.599,115.406,106.887,-0.00825558,0.096871,20.9733,392.928,0.686807,0.0,0.0
994,248.25,124.536,143.985,140.596,115.443,107.17,-0.00824594,0.0895505,20.9764,392.928,0.666046,0.0,0.0
1008,251.75,121.131,138.465,141.391,115.455,106.871,-0.00819214,0.084124,20.9791,392.918,0.692074,0.0,0.0
1022,255.25,117.111,133.449,144.845,115.48,106.664,-0.00846563,0.079405,20.9813,392.898,0.711352,0.0,0.0
1036,258.75,113.568,128.051,141.487,115.529,107.336,-0.00872179,0.0759356,20.9833,392.888,0.658824,0.0,0.0
1050,262.25,110.265,122.911,141.881,115.516,106.769,-0.00864512,0.0728489,20.9795,392.898,0.705314,0.0,0.0
1064,265.75,107.298,118.692,141.157,115.55,106.615,-0.00859994,0.0703573,20.979,392.878,0.720793,0.0,0.0
1078,269.25,104.591,114.595,142.035,115.578,106.971,-0.00868479,0.0684482,20.9802,392.908,0.693156,0.0,0.0
1092,272.75,101.581,110.744,146.141,115.608,107.272,-0.00861448,0.0664959,20.9806,392.908,0.670354,0.0,0.0
1106,276.25,99.2552,107.692,142.818,115.61,107.01,-0.00852273,0.0647518,20.9821,392.888,0.692419,0.0,0.0
1120,279.75,97.2696,104.472,145.704,115.649,107.329,-0.00852675,0.0635203,20.9828,392.928,0.668778,0.0,0.0
1134,283.25,94.3474,100.402,145.132,115.679,107.14,-0.00843452,0.062412,20.9824,392.898,0.686871,0.0,0.0
1148,286.75,92.7562,98.6924,143.867,115.701,107.643,-0.00846354,0.0613639,20.9806,392.928,0.64662,0.0,0.0
1162,290.25,90.6435,96.1528,143.674,115.734,107.127,-0.00852942,0.060373,20.9802,392.888,0.692142,0.0,0.0
1176,293.75,88.928,93.3466,141.057,115.744,107.551,-0.00882277,0.0597088,20.9801,392.918,0.657595,0.0,0.0
1190,297.25,87.8499,91.4852,144.68,115.781,107.502,-0.00868761,0.0594708,20.9804,392.898,0.66452,0.0,0.0
1204,300.75,86.4219,89.5437,144.655,115.787,107.381,-0.00871063,0.0589458,20.9808,392.928,0.675092,0.0,0.0
1218,304.25,85.1854,87.9621,143.408,115.831,107.54,-0.0090468,0.0587264,20.982,392.858,0.665217,0.0,0.0
1232,307.75,83.4456,85.1195,141.232,115.836,107.271,-0.00894975,0.0588601,20.9811,392.948,0.688064,0.0,0.0
1246,311.25,82.1418,83.7109,142.34,115.865,107.791,,0.0606507,,392.898,0.647022,0.0,0.0
1260,314.75,80.9104,82.1958,139.071,115.87,108.174,,,,392.918,0.615623,0.0,0.0
1274,318.25,79.5586,80.7088,144.941,115.901,107.332,,,,392.908,0.687951,0.0,0.0
1287,321.5,78.7979,79.3157,144.885,115.914,107.364,,,,392.898,0.686382,0.0,0.0

File: HDPE_Cone_HF75Scalar_220201_R1.csv
LABORATORY,FSRI
TEST IDENT,HDPE_HF75_1
OPERATOR,Dow
MATERIAL,HDPE
ORIENTATION,Horizontal
HEAT FLUX,75
SURF AREA,0.01
C FACTOR,0.0415673
SPEC HOLDER DIFF,333.84
SPECIMEN MASS,31
SCAN TIME,0.25
O2 DELAY TIME,11
CO DELAY TIME,11
CO2 DELAY TIME,8
FLOW FACTOR,1
SCAN COUNT,1001
TIME TO IGN,29.25
END OF TEST SCAN,521
END OF TEST TIME,130.25
TEST STATUS,1
PRE TEST CMT,Dimensions: 100.15 x 100.21 x 3.06 mm

File: HDPE_Cone_HF75Scalar_220201_R2.csv
LABORATORY,FSRI
TEST IDENT,HDPE_HF75_2
OPERATOR,Dow
MATERIAL,HDPE
ORIENTATION,Horizontal
HEAT FLUX,75
SURF AREA,0.01
C FACTOR,0.0415673
SPEC HOLDER DIFF,332.71
SPECIMEN MASS,31
SCAN TIME,0.25
O2 DELAY TIME,11
CO DELAY TIME,11
CO2 DELAY TIME,8
FLOW FACTOR,1
SCAN COUNT,1008
TIME TO IGN,29.75
END OF TEST SCAN,528
END OF TEST TIME,132
TEST STATUS,1
PRE TEST CMT,Dimensions: 100.15 x 100.21 x 3.06 mm

File: HDPE_Cone_HF75Scalar_220201_R3.csv
LABORATORY,FSRI
TEST IDENT,HDPE_HF75_3
OPERATOR,Dow
MATERIAL,HDPE
ORIENTATION,Horizontal
HEAT FLUX,75
SURF AREA,0.01
C FACTOR,0.0415673
SPEC HOLDER DIFF,333.65
SPECIMEN MASS,30.9
SCAN TIME,0.25
O2 DELAY TIME,11
CO DELAY TIME,11
CO2 DELAY TIME,8
FLOW FACTOR,1
SCAN COUNT,1000
TIME TO IGN,28.5
END OF TEST SCAN,520
END OF TEST TIME,130
TEST STATUS,1
PRE TEST CMT,Dimensions: 100.11 x 100.05 x 3.03 mm

File: HDPE_Cone_HF75Scan_220201_R1.csv
Names,Time,Stack TC,Smoke TC,Exh Press,Smoke Comp,Smoke Meas,CO Meter,CO2 Meter,O2 Meter,Sample Mass,Ext Coeff,Start Test,Flame Verif
Chan Gain,,500,500,1,1,1,1,1,1,1,1,1.0,1.0
Offset,,0,0,0.14021,0,0,0,0,0,0,0,0.0,0.0
Gain,,1,1,25.011,13.3046,13.3037,1,1,1,1.00087,1.10262,1.0,1.0
Units,sec,C,C,Pa,%,%,%,%,%,g,/m,,
Baseline,,33.0588,37.0958,136.017,99.1871,104.839,0.00683182,0.0971659,20.9247,-0.869425,-0.535963,,
11,2.5,30.0919,32.9406,134.243,99.4876,105.092,0.00655268,0.109946,20.9108,930.812,-0.530049,0.0,0.0
22,5.25,30.7962,34.1568,140.416,99.4766,105.059,0.00636969,0.107479,20.9142,930.822,-0.528126,0.0,0.0
33,8,30.7691,34.3167,134.97,99.4372,104.83,0.00644149,0.105409,20.9176,930.832,-0.510815,0.0,0.0
44,10.75,30.9757,34.0508,139.173,99.4044,105.203,0.00640114,0.103461,20.9214,930.792,-0.548341,0.0,0.0
55,13.5,31.3302,35.2107,137.641,99.3788,105.026,0.00637023,0.101296,20.924,930.812,-0.534617,0.0,0.0
66,16.25,31.7471,35.4299,134.848,99.3564,104.864,0.00647756,0.0997289,20.925,930.792,-0.521785,0.0,0.0
77,19,30.8992,35.1067,135.366,99.3122,104.983,0.00649764,0.100659,20.9239,930.772,-0.537098,0.0,0.0
88,21.75,32.3478,35.7247,132.474,99.285,105.074,0.00670249,0.102565,20.9219,930.752,-0.54816,0.0,0.0
99,24.5,32.0673,35.9336,137.743,99.2578,103.42,0.00753463,0.102995,20.9188,930.742,-0.397308,0.0,0.0
110,27.25,32.1129,36.2047,138.947,99.2212,103.803,0.00848943,0.106566,20.9064,930.702,-0.436646,0.0,0.0
121,30,32.727,36.8052,133.878,99.1871,104.695,0.00882946,0.123449,20.8813,930.642,-0.522691,0.0,1.0
132,32.75,33.5293,38.4938,127.468,99.1616,104.11,0.00852356,0.155221,20.826,930.502,-0.470985,0.0,1.0
143,35.5,35.0009,40.6181,126.069,99.1315,100.472,0.00849976,0.198097,20.7554,930.502,-0.129955,0.0,0.0
154,38.25,37.0219,43.1665,123.297,99.112,94.4909,0.00912425,0.247242,20.6475,930.372,0.461814,0.0,0.0
165,41,38.7039,46.3131,117.978,99.0958,85.7113,0.0103733,0.313548,20.5294,930.272,1.40345,0.0,0.0
176,43.75,42.2944,51.3064,117.261,99.0877,83.4405,0.0122825,0.39078,20.398,929.961,1.66235,0.0,0.0
187,46.5,45.5862,56.5902,120.326,99.0759,77.664,0.0144573,0.481281,20.2071,929.771,2.3551,0.0,0.0
198,49.25,49.2111,62.5879,109.046,99.0913,75.7376,0.0163886,0.580959,20.0483,929.401,2.59954,0.0,0.0
209,52,53.6561,69.1121,111.683,99.0552,73.8375,0.0177294,0.682057,19.8725,929.161,2.84176,0.0,0.0
220,54.75,57.6371,75.9618,106.335,99.0576,73.1063,0.0188991,0.785804,19.7281,928.8,2.93826,0.0,0.0
231,57.5,64.1081,86.1196,103.879,99.0552,72.5087,0.0208449,0.913953,19.5105,928.36,3.01741,0.0,0.0
242,60.25,70.2299,95.5756,92.4148,99.0596,66.9689,0.023999,1.07157,19.1948,927.89,3.78657,0.0,0.0
253,63,77.1238,106.617,99.2514,99.0479,63.6848,0.028969,1.28342,18.8763,927.329,4.27176,0.0,0.0
264,65.75,85.9427,121.906,88.3656,99.0349,64.3848,0.0366281,1.55514,18.4035,926.799,4.16476,0.0,0.0
275,68.5,95.926,138.554,105.09,99.0288,62.0292,0.0451982,1.91323,17.7795,925.908,4.52467,0.0,0.0
286,71.25,107.093,157.922,79.4917,99.0259,60.6362,0.0533863,2.32837,17.0913,925.097,4.74407,0.0,0.0
297,74,120.376,182.641,69.8287,99.017,60.2095,0.0601927,2.81658,16.295,924.136,4.8115,0.0,0.0
308,76.75,133.284,207.138,87.932,99.0048,58.4308,0.0663561,3.29238,15.7349,923.316,5.10034,0.0,0.0
319,79.5,146.402,231.018,68.9288,98.9898,62.7624,0.0732787,3.73343,14.9985,922.154,4.4072,0.0,0.0
330,82.25,158.737,255.891,56.795,98.9849,60.9521,0.07988,4.302,14.0735,920.923,4.68981,0.0,0.0
341,85,171.392,279.057,52.413,98.9719,65.3697,0.0843842,4.8475,13.3245,919.842,4.01177,0.0,0.0
352,87.75,182.818,301.974,62.0196,98.9703,68.2632,0.0850142,5.42239,12.3352,918.531,3.59269,0.0,0.0
363,90.5,196.437,329.361,43.243,98.9772,74.7904,0.0826711,6.16526,11.3109,917.32,2.71013,0.0,0.0
374,93.25,209.905,356.409,58.13,98.9679,72.2558,0.0786075,6.94721,10.1733,915.679,3.04268,0.0,0.0
385,96,224.022,383.514,27.9989,98.9691,78.2357,0.0748732,7.65728,9.26186,914.128,2.27374,0.0,0.0
396,98.75,236.784,409.707,54.496,98.9711,79.1069,0.0712563,8.41414,8.30761,912.646,2.16682,0.0,0.0
407,101.5,249.586,438.439,48.1723,98.9711,75.6507,0.0798732,9.16226,7.05243,910.745,2.59891,0.0,0.0
418,104.25,263.113,448.88,54.8845,98.9679,80.1881,0.0941633,9.91126,5.92996,909.033,2.03521,0.0,0.0
429,107,275.948,440.05,53.1107,98.9801,79.1374,0.113839,10.6574,4.7985,907.221,2.16397,0.0,0.0
440,109.75,286.822,436.458,55.7837,98.9829,83.9793,0.118599,11.1044,4.16439,905.53,1.58987,0.0,0.0
451,112.5,294.1,436.54,50.1232,98.9914,76.2053,0.105477,10.9243,4.57639,904.069,2.53025,0.0,0.0
462,115.25,296.688,435.409,65.3177,98.9967,60.7807,0.0950436,10.1471,6.0905,902.567,4.71819,0.0,0.0
473,118,295.517,438.63,61.5922,99.0012,61.2172,0.0905177,8.89082,7.94989,901.426,4.64942,0.0,0.0
484,120.75,290.591,442.395,74.2931,99.0065,57.7061,0.0836942,7.35716,10.7104,900.586,5.22121,0.0,0.0
495,123.5,280.81,444.988,79.5757,99.0536,58.6497,0.0728043,5.65922,13.1868,899.875,5.06895,0.0,0.0
506,126.25,265.904,407.518,95.9266,99.0881,65.9231,0.054665,4.08377,15.1674,899.575,3.94158,0.0,0.0
517,129,245.504,363.019,105.983,99.112,90.9969,0.0366338,2.68666,17.6026,899.565,0.82624,0.0,0.0
528,131.75,223.682,319.904,110.775,99.149,98.4356,0.0240144,1.57004,19.2218,899.535,0.0698453,0.0,0.0
539,134.5,205.773,285.786,110.211,99.2018,99.0153,0.016918,0.920125,20.0056,899.595,0.0181934,0.0,0.0
550,137.25,189.625,256.51,116.53,99.2623,99.332,0.0127035,0.5975,20.4212,899.535,-0.00679474,0.0,0.0
561,140,177.888,234.206,116.035,99.3313,99.3194,0.0103051,0.405343,20.6166,899.605,0.00115409,0.0,0.0
572,142.75,166.855,213.749,113.582,99.3694,99.3543,0.00900607,0.294593,20.7229,899.565,0.00146997,0.0,0.0
583,145.5,157.713,197.15,115.634,99.4494,99.5618,0.00813894,0.237665,20.7868,899.525,-0.0109228,0.0,0.0
594,148.25,150.626,184.144,113.967,99.5042,99.3941,0.00752348,0.199349,20.8247,899.505,0.0107101,0.0,0.0
605,151,143.345,172.195,113.644,99.5603,99.4493,0.00704534,0.172832,20.8547,899.595,0.0107827,0.0,0.0
616,153.75,138.664,162.222,112.63,99.6013,99.4944,0.00680369,0.154763,20.8734,899.595,0.0103842,0.0,0.0
627,156.5,133.508,152.941,118.496,99.626,99.6304,0.00677332,0.141828,20.8884,899.575,-0.000423739,0.0,0.0
638,159.25,129.039,146.114,117.537,99.6541,99.5902,0.00688219,0.132117,20.8973,899.555,0.00619887,0.0,0.0
649,162,125.02,139.079,114.844,99.663,99.5131,0.00702392,0.124982,20.9037,899.555,0.0145607,0.0,0.0
660,164.75,121.682,134.1,117.705,99.635,99.3982,0.00693423,0.118929,20.9079,899.595,0.0230154,0.0,0.0
671,167.5,118.513,128.918,116.043,99.5729,99.3113,0.00684791,0.114735,20.9114,899.575,0.0254399,0.0,0.0
682,170.25,115.929,124.827,116.904,99.5144,99.144,0.00666421,0.111362,20.9143,899.565,0.0360632,0.0,0.0
693,173,113.306,121.278,117.007,99.4117,99.1448,0.00644429,0.108704,20.9179,899.565,0.0259953,0.0,0.0
704,175.75,111.463,117.636,118.82,99.3029,98.8675,0.00625753,0.106677,20.9204,899.535,0.0424928,0.0,0.0
715,178.5,109.561,114.597,115.893,99.1697,98.779,0.00637906,0.104881,20.9222,899.555,0.0381744,0.0,0.0
726,181.25,107.171,111.651,119.683,99.0109,98.2785,0.00660973,0.103615,20.9245,899.595,0.0718197,0.0,0.0
737,184,105.955,109.243,119.119,98.866,98.2476,0.00659189,0.102519,20.926,899.545,0.0606867,0.0,0.0
748,186.75,104.474,107.188,118.191,98.7084,98.0324,0.00656859,0.101601,20.9277,899.545,0.066469,0.0,0.0
759,189.5,102.56,104.781,119.132,98.5314,97.9171,0.00652029,0.100855,20.9282,899.535,0.0604896,0.0,0.0
770,192.25,101.005,103.286,116.881,98.3727,97.5822,0.00651175,0.100185,20.9299,899.515,0.0780345,0.0,0.0
781,195,98.9954,100.775,119.29,98.2119,97.5939,0.00663615,0.0997084,20.9271,899.535,0.0610465,0.0,0.0
792,197.75,98.2933,99.525,120.705,98.073,97.5574,0.00664707,0.0992874,20.9276,899.535,0.0509839,0.0,0.0
803,200.5,97.626,98.3478,116.269,97.9374,97.0052,0.00644537,0.0990788,20.9283,899.515,0.0924977,0.0,0.0
814,203.25,96.0299,96.1907,119.023,97.8205,97.3,0.00628494,0.098866,20.9303,899.515,0.0515986,0.0,0.0
825,206,95.359,95.8559,123.485,97.6995,97.1599,0.0061029,0.0986034,20.9309,899.485,0.0535607,0.0,0.0
836,208.75,93.883,94.3633,121.977,97.6036,97.1352,0.00612757,0.0984465,20.9311,899.515,0.0465361,0.0,0.0
847,211.5,93.0121,92.9812,120.375,97.5314,97.0771,0.00627501,0.0982133,20.9322,899.505,0.0451545,0.0,0.0
858,214.25,92.4085,92.1243,119.384,97.4896,97.1827,0.00637337,0.0980751,20.9325,899.515,0.030495,0.0,0.0
869,217,91.7293,91.3024,120.238,97.4469,97.3215,0.00647441,0.0979053,20.9303,899.515,0.0124548,0.0,0.0
880,219.75,90.7064,90.209,120.724,97.4295,96.9809,0.00652892,0.0979503,20.93,899.485,0.0446334,0.0,0.0
891,222.5,89.1623,88.8108,118.43,97.4392,96.6955,0.00637414,0.0978208,20.9303,899.465,0.0741084,0.0,0.0
902,225.25,88.8879,88.2467,123.559,97.4879,97.4754,0.00628136,0.0978375,20.9315,899.505,0.00124401,0.0,0.0
913,228,87.7288,86.9292,120.238,97.5322,96.991,0.00634971,0.0976865,20.9323,899.535,0.0538141,0.0,0.0
924,230.75,85.9995,85.8481,121.187,97.5976,98.4831,0.00617334,0.0971618,20.9337,899.505,-0.0873605,0.0,0.0
935,233.5,86.1045,85.3787,118.48,97.7031,97.2752,0.00596804,0.0970466,20.9354,899.485,0.0424514,0.0,0.0
946,236.25,85.1768,84.2235,120.387,97.8383,98.8935,0.00593199,0.0968899,20.9362,899.495,-0.103757,0.0,0.0
957,239,84.6881,83.8187,125.403,97.9865,97.6354,0.00606813,0.0968996,20.9344,899.505,0.0347261,0.0,0.0
968,241.75,84.1863,83.2158,121.862,98.1619,98.0791,,0.0965787,,899.485,0.00816444,0.0,0.0
979,244.5,83.4263,82.7642,121.513,98.3398,98.95,,,,899.485,-0.0598302,0.0,0.0
990,247.25,82.4177,81.7073,122.87,98.4876,98.5403,,,,899.475,-0.00517953,0.0,0.0
1001,250,81.8529,80.9504,120.728,98.6532,99.0377,,,,899.475,-0.0376184,0.0,0.0