Folder: fsri_materials_database/01_Data/HDPE/Cone (part 4)

File: HDPE_Cone_HF25Scan_220224_R6.csv
Names,Time,Stack TC,Smoke TC,Exh Press,Smoke Comp,Smoke Meas,CO Meter,CO2 Meter,O2 Meter,Sample Mass,Ext Coeff,Start Test,Flame Verif
Chan Gain,,500,500,1,1,1,1,1,1,1,1,1.0,1.0
Offset,,0,0,0.132436,0,0,0,0,0,0,0,0.0,0.0
Gain,,1,1,25.011,15.4219,15.1528,1,1,1,1.00089,1.02113,1.0,1.0
Units,sec,C,C,Pa,%,%,%,%,%,g,/m,,
Baseline,,26.1351,26.2008,162.177,116.308,113.74,-0.00848967,0.05582,20.9753,-479.578,0.200017,,
28,6.75,23.3617,23.1984,161.429,115.4,113.358,-0.00871537,0.0640643,20.9678,425.537,0.159895,0.0,0.0
56,13.75,23.3176,23.3055,164.705,115.474,112.775,-0.00863027,0.0634607,20.9702,425.537,0.211823,0.0,0.0
84,20.75,23.0562,23.4856,163.213,115.526,113.365,-0.00863479,0.0586324,20.976,425.537,0.169169,0.0,0.0
112,27.75,23.261,23.9094,166.632,115.492,113.571,-0.00852448,0.0578129,20.9764,425.527,0.15026,0.0,0.0
140,34.75,23.4918,23.9618,163.43,115.467,113.095,-0.00860268,0.0569408,20.9785,425.517,0.185932,0.0,0.0
168,41.75,23.3776,23.8023,158.798,115.462,113.728,-0.00893631,0.055879,20.9797,425.517,0.135568,0.0,0.0
196,48.75,23.2598,23.9007,165.301,115.432,113.627,-0.00849824,0.0571431,20.9773,425.517,0.141174,0.0,0.0
224,55.75,23.3443,23.9579,163.324,115.394,112.737,-0.00836636,0.0589038,20.9748,425.497,0.208628,0.0,0.0
252,62.75,23.642,24.1814,162.934,115.369,113.245,-0.00860303,0.060625,20.9724,425.487,0.166403,0.0,0.0
280,69.75,23.6151,24.665,165.787,115.31,113.758,-0.00893866,0.0607991,20.9713,425.487,0.121437,0.0,0.0
308,76.75,23.9843,24.1656,163.812,115.273,113.547,-0.00873336,0.0610943,20.9713,425.487,0.135131,0.0,0.0
336,83.75,23.9776,24.4429,159.383,115.199,113.204,-0.00853524,0.0603591,20.9719,425.487,0.156495,0.0,0.0
364,90.75,23.0706,24.7931,163.275,115.147,112.999,-0.00863507,0.0647694,20.9669,425.487,0.16862,0.0,0.0
392,97.75,24.0313,24.7819,162.108,115.102,112.61,-0.0088372,0.0653027,20.9672,425.497,0.196058,0.0,0.0
420,104.75,24.5408,24.7461,162.873,115.072,112.728,-0.00906178,0.0616178,20.9692,425.477,0.18434,0.0,0.0
448,111.75,24.2232,24.9268,159.786,115.061,113.239,-0.00862455,0.0602648,20.9694,425.507,0.142987,0.0,0.0
476,118.75,23.9141,24.926,160.361,115.052,112.384,-0.00876578,0.0604636,20.9678,425.497,0.210106,0.0,0.0
504,125.75,24.1169,24.4491,160.722,115.048,112.907,-0.00871774,0.0602161,20.9701,425.467,0.168262,0.0,0.0
532,132.75,24.0514,24.5061,163.301,115.055,112.626,-0.0085197,0.0594553,20.9695,425.467,0.191181,0.0,0.0
560,139.75,24.588,24.4506,161.312,115.057,112.242,-0.0083958,0.0590228,20.9694,425.477,0.221832,0.0,0.0
588,146.75,24.0616,25.2755,159.046,115.056,112.179,-0.00812984,0.0588311,20.971,425.457,0.226778,0.0,0.0
616,153.75,24.1996,25.092,162.257,115.046,112.388,-0.00811415,0.0585014,20.9736,425.467,0.209372,0.0,0.0
644,160.75,24.8605,25.2937,160.767,115.061,111.804,-0.00807965,0.0576338,20.9738,425.447,0.257177,0.0,0.0
672,167.75,23.9412,24.8731,162.049,115.079,111.333,-0.0081162,0.0574315,20.9738,425.437,0.296401,0.0,0.0
700,174.75,24.3958,24.9665,164.169,115.117,111.683,-0.00799906,0.0578741,20.9725,425.437,0.271248,0.0,0.0
728,181.75,24.6845,25.323,159.463,115.185,111.255,-0.00761688,0.0576803,20.9719,425.417,0.311002,0.0,0.0
756,188.75,24.2615,25.3877,159.139,115.248,110.496,-0.00758503,0.0573591,20.9715,425.387,0.377211,0.0,0.0
784,195.75,24.2575,24.7617,162.435,115.343,110.945,-0.00816623,0.0767038,20.9362,425.387,0.348234,0.0,1.0
812,202.75,25.0165,26.4053,154.428,115.436,111.375,-0.00781014,0.103654,20.8936,425.277,0.320776,0.0,0.0
840,209.75,25.9286,27.6638,156.06,115.528,112.947,-0.00801122,0.125949,20.8573,425.197,0.202369,0.0,0.0
868,216.75,27.6832,29.0444,153.741,115.603,111.278,-0.00785509,0.159275,20.8027,425.056,0.341508,0.0,0.0
896,223.75,28.9099,31.0936,150.85,115.667,110.48,-0.00763386,0.201411,20.7311,424.886,0.410943,0.0,0.0
924,230.75,31.6526,33.868,153.03,115.697,108.223,-0.00754034,0.23023,20.6856,424.666,0.598166,0.0,0.0
952,237.75,33.8143,36.1986,147.222,115.675,105.342,-0.00700326,0.262684,20.633,424.406,0.838129,0.0,0.0
980,244.75,36.3192,39.2581,145.677,115.716,103.652,-0.00647678,0.295017,20.5792,424.146,0.986179,0.0,0.0
1008,251.75,37.6726,41.4552,143.537,115.761,100.085,-0.00588627,0.340254,20.4922,423.845,1.30341,0.0,0.0
1036,258.75,41.2358,44.6787,140.772,115.83,98.344,-0.00425537,0.393381,20.3995,423.455,1.46587,0.0,0.0
1064,265.75,44.606,49.0444,144.091,115.895,97.2721,-0.00304727,0.436773,20.3346,423.035,1.56909,0.0,0.0
1092,272.75,47.7798,53.4092,133.305,115.912,92.6123,-0.00223145,0.504128,20.2052,422.554,2.01012,0.0,0.0
1120,279.75,52.031,57.5895,134.911,115.902,92.0018,-0.000466189,0.57741,20.0795,421.994,2.06856,0.0,0.0
1148,286.75,56.8391,63.4623,134.89,115.866,94.043,-2.84487e-05,0.643857,19.9803,421.413,1.86924,0.0,0.0
1176,293.75,60.118,69.0318,133.848,115.809,91.304,-0.000182563,0.692329,19.9107,420.823,2.12955,0.0,0.0
1204,300.75,64.99,74.175,123.102,115.773,89.9242,0.000557216,0.726667,19.8468,420.152,2.26315,0.0,0.0
1232,307.75,69.273,78.9989,122.17,115.705,90.6839,0.00136093,0.787973,19.7569,419.482,2.18254,0.0,0.0
1260,314.75,73.3324,84.8481,122.603,115.598,91.5033,0.00145392,0.84488,19.6671,418.711,2.09373,0.0,0.0
1288,321.75,77.9531,90.1481,118.64,115.502,86.2483,0.00196319,0.886816,19.6019,418.03,2.61606,0.0,0.0
1316,328.75,82.9331,95.7337,124.301,115.424,89.7022,0.00265054,0.944745,19.502,417.189,2.2583,0.0,0.0
1344,335.75,86.8299,101.725,121.092,115.314,87.5103,0.00283403,1.00015,19.4195,416.339,2.47134,0.0,0.0
1372,342.75,92.0057,106.826,115.34,115.238,89.8691,0.00362287,1.05507,19.3305,415.488,2.22717,0.0,0.0
1400,349.75,96.9508,112.24,111.89,115.185,85.9246,0.0043827,1.11607,19.2299,414.607,2.62507,0.0,0.0
1428,356.75,100.466,117.938,114.716,115.176,88.4902,0.00498032,1.17735,19.1389,413.686,2.36088,0.0,0.0
1456,363.75,105.664,123.672,108.262,115.138,86.7112,0.00510028,1.23814,19.0415,412.665,2.53979,0.0,0.0
1484,370.75,111.21,130.346,105.093,115.113,84.3228,0.00634864,1.30234,18.9323,411.695,2.78807,0.0,0.0
1512,377.75,115.881,136.856,107.824,115.099,86.1216,0.00696634,1.37235,18.8335,410.624,2.59786,0.0,0.0
1540,384.75,121.144,142.199,108.965,115.071,87.3739,0.00744171,1.44115,18.7214,409.633,2.46643,0.0,0.0
1568,391.75,125.274,148.133,102.554,115.05,85.7549,0.0083753,1.50342,18.631,408.482,2.63231,0.0,0.0
1596,398.75,131.043,154.417,112.521,115.036,83.9972,0.010054,1.5846,18.499,407.401,2.81667,0.0,0.0
1624,405.75,136.227,160.923,105.878,115.026,83.3998,0.0105881,1.65865,18.3888,406.15,2.87988,0.0,0.0
1652,412.75,141.022,167.254,101.606,115.039,82.6918,0.0111831,1.72084,18.2944,404.999,2.95723,0.0,0.0
1680,419.75,145.387,173.283,97.0476,115.049,83.7401,0.0122146,1.7874,18.1908,403.738,2.8452,0.0,0.0
1708,426.75,149.286,177.79,99.1085,115.088,82.646,0.0122432,1.82005,18.1547,402.486,2.96604,0.0,0.0
1736,433.75,153.671,183.162,102.833,115.132,82.3894,0.0121331,1.82162,18.1647,401.265,2.9973,0.0,0.0
1764,440.75,156.486,185.773,98.5963,115.201,83.8987,0.0115894,1.77604,18.2502,400.084,2.84004,0.0,0.0
1792,447.75,157.672,187.376,109.636,115.255,82.9503,0.0102183,1.66559,18.434,398.963,2.94612,0.0,0.0
1820,454.75,156.995,186.394,103.281,115.308,83.3059,0.00881083,1.52052,18.6888,397.912,2.91189,0.0,0.0
1848,461.75,155.216,183.05,116.616,115.324,86.3057,0.00707314,1.35302,18.9665,396.992,2.59627,0.0,0.0
1876,468.75,151.629,177.958,113.476,115.353,85.5098,0.00510767,1.16976,19.2345,396.101,2.68151,0.0,0.0
1904,475.75,147.162,170.638,117.155,115.391,87.0062,0.00406637,1.02745,19.4605,395.4,2.52908,0.0,0.0
1932,482.75,141.71,163.896,115.933,115.441,85.3568,0.00378214,0.88545,19.6959,394.75,2.70439,0.0,0.0
1960,489.75,134.921,154.762,119.934,115.506,86.0527,0.00239124,0.757305,19.8904,394.189,2.63666,0.0,0.0
1988,496.75,128.647,146.675,136.939,115.566,90.4532,0.000260894,0.604275,20.1199,393.689,2.19465,0.0,0.0
2016,503.75,120.11,135.082,142.334,115.635,103.868,-0.00447865,0.375923,20.5596,393.539,0.961269,0.0,0.0
2044,510.75,109.891,123.308,147.872,115.731,106.844,-0.00675771,0.22357,20.7905,393.499,0.715618,0.0,0.0
2072,517.75,100.895,111.866,150.401,115.826,107.23,-0.00765968,0.155406,20.8673,393.468,0.690738,0.0,0.0
2100,524.75,93.4874,102.186,151.866,115.896,107.918,-0.00780426,0.122882,20.902,393.448,0.638826,0.0,0.0
2128,531.75,87.0273,93.5711,152.23,115.962,108.782,-0.00783052,0.108457,20.9151,393.408,0.572467,0.0,0.0
2156,538.75,81.1351,86.3929,152.503,116.039,108.826,-0.00806135,0.100569,20.9234,393.398,0.574812,0.0,0.0
2184,545.75,76.1089,79.4576,152.874,116.094,108.964,-0.00793885,0.0945803,20.9317,393.388,0.567725,0.0,0.0
2212,552.75,71.6736,74.2031,154.085,116.146,108.263,-0.00796805,0.0861067,20.9427,393.368,0.629569,0.0,0.0
2240,559.75,67.1861,70.0183,157.517,116.207,109.457,-0.00817959,0.0801916,20.9502,393.358,0.536041,0.0,0.0
2268,566.75,64.742,65.464,156.182,116.28,111.378,-0.00826714,0.0725791,20.9585,393.378,0.385867,0.0,0.0
2296,573.75,61.317,61.9104,156.746,116.33,110.62,-0.00830439,0.0663107,20.9664,393.398,0.450834,0.0,0.0
2324,580.75,58.478,58.5559,156.172,116.396,110.514,-0.00861383,0.062859,20.9709,393.378,0.464485,0.0,0.0
2352,587.75,56.5155,55.8958,154.613,116.441,110.616,-0.00895777,0.0617085,20.971,393.358,0.459719,0.0,0.0
2380,594.75,53.969,53.2498,155.943,116.486,110.64,-0.00896005,0.0611216,20.9719,393.368,0.461248,0.0,0.0
2408,601.75,52.1349,51.018,156.785,116.523,110.698,-0.00901939,0.0605054,20.9725,393.368,0.459353,0.0,0.0
2436,608.75,51.3014,49.4617,158.643,116.533,110.8,-0.00921672,0.0598413,20.9734,393.388,0.451848,0.0,0.0
2464,615.75,49.4027,47.5622,155.997,116.546,111.885,-0.00883875,0.0589579,20.972,393.368,0.36555,0.0,0.0
2492,622.75,48.1263,45.8489,154.909,116.558,110.768,-0.00874927,0.0582311,20.9738,393.378,0.456419,0.0,0.0
2520,629.75,46.4934,44.8227,157.333,116.537,111.497,-0.00915508,0.0575207,20.9739,393.368,0.395977,0.0,0.0
2548,636.75,45.8337,43.689,158.411,116.568,110.925,-0.0087521,0.0574104,20.9742,393.388,0.444474,0.0,0.0
2576,643.75,44.8467,42.3262,157.893,116.545,111.938,-0.00890568,0.057645,20.9728,393.378,0.361258,0.0,0.0
2604,650.75,43.6645,41.6039,157.71,116.513,112.554,-0.00890993,0.0575549,20.9735,393.378,0.309681,0.0,0.0
2632,657.75,43.4651,40.5911,157.054,116.481,111.664,,,,393.378,0.378344,0.0,0.0
2658,664.25,42.4311,39.455,152.981,116.425,110.935,,,,393.368,0.432651,0.0,0.0

File: HDPE_Cone_HF50Scalar_220131_R1.csv
LABORATORY,FSRI
TEST IDENT,HDPE_HF50_1
OPERATOR,Dow
MATERIAL,HDPE
ORIENTATION,Horizontal
HEAT FLUX,50
SURF AREA,0.01
C FACTOR,0.0415673
SPEC HOLDER DIFF,-55.25
SPECIMEN MASS,31
SCAN TIME,0.25
O2 DELAY TIME,11
CO DELAY TIME,11
CO2 DELAY TIME,8
FLOW FACTOR,1
SCAN COUNT,1148
TIME TO IGN,54.5
END OF TEST SCAN,668
END OF TEST TIME,167
TEST STATUS,1
PRE TEST CMT,Dimensions: 100.01 x 99.89 x 3.00 mm
POST TEST CMT,"minor dripping. adjusted foil pan by hand during test to minimize dripping, expect blip in mass time history data. "

File: HDPE_Cone_HF50Scalar_220131_R2.csv
LABORATORY,FSRI
TEST IDENT,HDPE_HF50_2
OPERATOR,Dow
MATERIAL,HDPE
ORIENTATION,Horizontal
HEAT FLUX,50
SURF AREA,0.01
C FACTOR,0.0415673
SPEC HOLDER DIFF,-55.2
SPECIMEN MASS,30.8
SCAN TIME,0.25
O2 DELAY TIME,11
CO DELAY TIME,11
CO2 DELAY TIME,8
FLOW FACTOR,1
SCAN COUNT,1128
TIME TO IGN,52.25
END OF TEST SCAN,648
END OF TEST TIME,162
TEST STATUS,1
PRE TEST CMT,Dimensions: 100.07 x 100.05 x 3.01 mm
POST TEST CMT,significant dripping during test. see test pictures

File: HDPE_Cone_HF50Scalar_220131_R3.csv
LABORATORY,FSRI
TEST IDENT,HDPE_HF50_3
OPERATOR,Dow
MATERIAL,HDPE
ORIENTATION,Horizontal
HEAT FLUX,50
SURF AREA,0.01
C FACTOR,0.0415673
SPEC HOLDER DIFF,333.15
SPECIMEN MASS,30.9
SCAN TIME,0.25
O2 DELAY TIME,11
CO DELAY TIME,11
CO2 DELAY TIME,8
FLOW FACTOR,1
SCAN COUNT,1280
TIME TO IGN,52.75
END OF TEST SCAN,800
END OF TEST TIME,200
TEST STATUS,1
PRE TEST CMT,Dimensions: 100.22 x 99.87 x 3.06 mm
POST TEST CMT,Manually adjusted foil pan prior to ignition which caused spikes in mass time history data.

File: HDPE_Cone_HF50Scalar_220131_R4.csv
LABORATORY,FSRI
TEST IDENT,HDPE_HF50_4
OPERATOR,Dow
MATERIAL,HDPE
ORIENTATION,Horizontal
HEAT FLUX,50
SURF AREA,0.01
C FACTOR,0.0415673
SPEC HOLDER DIFF,333.05
SPECIMEN MASS,30.9
SCAN TIME,0.25
O2 DELAY TIME,11
CO DELAY TIME,11
CO2 DELAY TIME,8
FLOW FACTOR,1
SCAN COUNT,1233
TIME TO IGN,52.5
END OF TEST SCAN,753
END OF TEST TIME,188.25
TEST STATUS,1
PRE TEST CMT,Dimensions: 100.19 x 100.11 x 3.06

File: HDPE_Cone_HF50Scalar_220218_R2.csv
LABORATORY,FSRI
TEST IDENT,HDPE_HF50_2
OPERATOR,Dow
MATERIAL,HDPE
ORIENTATION,Horizontal
HEAT FLUX,50
SURF AREA,0.01
C FACTOR,0.0385692
SPEC HOLDER DIFF,306.56
SPECIMEN MASS,32
SCAN TIME,0.25
O2 DELAY TIME,11
CO DELAY TIME,11
CO2 DELAY TIME,8
FLOW FACTOR,1
SCAN COUNT,1563
TIME TO IGN,55.75
END OF TEST SCAN,1083
END OF TEST TIME,270.75
TEST STATUS,1
PRE TEST CMT,Dimensions: 101.49 x 101.34 x 2.97 mm; 60 mm spacing
POST TEST CMT,Sample warped prior to ignition. Sample dripped from foil pan after ignition and continued burning from lower drip tray. See test pictures.

File: HDPE_Cone_HF50Scalar_220218_R4.csv
LABORATORY,FSRI
TEST IDENT,HDPE_HF50_4
OPERATOR,Dow
MATERIAL,HDPE
ORIENTATION,Horizontal
HEAT FLUX,50
SURF AREA,0.01
C FACTOR,0.0385692
SPEC HOLDER DIFF,305.6
SPECIMEN MASS,31.97
SCAN TIME,0.25
O2 DELAY TIME,11
CO DELAY TIME,11
CO2 DELAY TIME,8
FLOW FACTOR,1
SCAN COUNT,1287
TIME TO IGN,59.25
END OF TEST SCAN,807
END OF TEST TIME,201.75
TEST STATUS,1
PRE TEST CMT,Dimensions: 101.52 x 101.59 x 2.97 mm; 60 mm spacing
POST TEST CMT,"Some sample dripped from foil pan during test, and continued burning from lower drip tray. Less so than in previous replicates."

File: HDPE_Cone_HF50Scan_220131_R1.csv
Names,Time,Stack TC,Smoke TC,Exh Press,Smoke Comp,Smoke Meas,CO Meter,CO2 Meter,O2 Meter,Sample Mass,Ext Coeff,Start Test,Flame Verif
Chan Gain,,500,500,1,1,1,1,1,1,1,1,1.0,1.0
Offset,,0,0,0.14021,0,0,0,0,0,0,0,0.0,0.0
Gain,,1,1,25.011,13.3046,13.3037,1,1,1,1.00087,1.10262,1.0,1.0
Units,sec,C,C,Pa,%,%,%,%,%,g,/m,,
Baseline,,24.5378,26.922,164.166,97.863,102.995,0.00550144,0.0859644,20.9436,0.837229,-0.49435,,
12,2.75,23.0973,25.2499,158.456,97.2861,102.107,0.00551521,0.0935647,20.936,543.534,-0.46775,0.0,0.0
24,5.75,23.303,25.8806,162.883,97.2143,102.288,0.00550031,0.0923527,20.9378,543.584,-0.492073,0.0,0.0
36,8.75,23.6273,26.041,160.336,97.1501,102.113,0.00545302,0.0910873,20.9399,543.564,-0.481897,0.0,0.0
48,11.75,23.4964,26.2254,164.021,97.0868,102.49,0.0053403,0.0901642,20.9431,543.554,-0.523827,0.0,0.0
60,14.75,23.6489,26.2374,163.601,96.9901,102.149,0.00531048,0.0891859,20.945,543.514,-0.50122,0.0,0.0
72,17.75,24.0196,26.3348,165.639,96.9625,101.384,0.00549672,0.0878528,20.9465,543.544,-0.431315,0.0,0.0
84,20.75,24.032,26.2441,161.447,96.8915,102.147,0.00553801,0.0861563,20.9499,543.554,-0.510872,0.0,0.0
96,23.75,24.3009,26.6742,161.814,96.8164,101.575,0.00561961,0.0845565,20.9519,543.534,-0.464093,0.0,0.0
108,26.75,23.9641,26.5124,164.01,96.7433,101.73,0.00565844,0.0836588,20.9531,543.504,-0.486154,0.0,0.0
120,29.75,24.1831,26.5124,163.982,96.6726,101.8,0.00544178,0.083172,20.9528,543.484,-0.499895,0.0,0.0
132,32.75,23.7032,26.455,163.389,96.6211,101.721,0.00543705,0.0831504,20.9523,543.474,-0.497493,0.0,0.0
144,35.75,23.603,26.373,170.724,96.5622,101.323,0.00548442,0.083641,20.9518,543.504,-0.46552,0.0,0.0
156,38.75,23.8275,27.0879,161.821,96.5049,101.433,0.00554732,0.0841045,20.9501,543.494,-0.481753,0.0,0.0
168,41.75,24.3322,26.5423,162.153,96.4733,99.7262,0.00607472,0.0844401,20.9471,543.464,-0.320753,0.0,0.0
180,44.75,24.1819,27.4879,168.984,96.4079,98.8375,0.00678725,0.0849022,20.9446,543.464,-0.240728,0.0,0.0
192,47.75,24.2867,27.018,164.411,96.3511,98.4421,0.00761141,0.0850395,20.9415,543.434,-0.207658,0.0,0.0
204,50.75,24.9643,27.2377,160.445,96.2987,97.3211,0.00890062,0.0852741,20.9381,543.414,-0.10215,0.0,0.0
216,53.75,24.3215,27.3554,162.447,96.2532,96.1928,0.00965519,0.0868342,20.9326,543.334,0.00606751,0.0,0.0
228,56.75,25.1224,28.8524,155.714,96.2134,101.439,0.00860496,0.105093,20.8862,543.304,-0.511557,0.0,1.0
240,59.75,25.8132,29.731,154.592,96.1724,101.33,0.0074975,0.135412,20.8305,543.244,-0.505263,0.0,1.0
252,62.75,27.976,32.5774,155.01,96.1294,101.076,0.00688415,0.168429,20.772,543.154,-0.485302,0.0,0.0
264,65.75,30.162,35.5744,152.183,96.0904,98.9496,0.00680544,0.202815,20.716,543.064,-0.283594,0.0,0.0
276,68.75,32.5378,38.4931,149.665,96.0697,94.1137,0.00744366,0.241137,20.6263,542.904,0.198952,0.0,0.0
288,71.75,34.4527,41.9058,141.764,96.0441,85.9167,0.00855654,0.297487,20.5131,542.734,1.07776,0.0,0.0
300,74.75,37.542,47.493,140.477,96.0506,86.8517,0.0100607,0.361826,20.4017,542.433,0.97372,0.0,0.0
312,77.75,41.4092,53.5266,136.009,96.0628,84.4661,0.0116115,0.432615,20.2842,542.233,1.24433,0.0,0.0
324,80.75,45.8911,60.2954,142.779,96.0835,82.5461,0.0135964,0.501896,20.1606,541.983,1.46881,0.0,0.0
336,83.75,50.678,67.6645,133.658,96.1111,79.8118,0.0151227,0.593856,19.9577,541.653,1.79741,0.0,0.0
348,86.75,55.9793,76.6277,129.169,96.1379,76.2374,0.0172191,0.70208,19.7562,541.212,2.24327,0.0,0.0
360,89.75,61.3818,85.3081,114.157,96.1968,73.7965,0.0193569,0.828546,19.5151,540.752,2.56392,0.0,0.0
372,92.75,67.9359,96.1195,126.735,96.2183,73.0617,0.0217141,0.977383,19.223,540.171,2.66288,0.0,0.0
384,95.75,76.0387,108.931,106.235,96.2816,70.1933,0.0248918,1.14823,18.9351,539.641,3.05662,0.0,0.0
396,98.75,83.5863,122.273,121.599,96.3141,67.3428,0.028246,1.32598,18.6476,538.99,3.46086,0.0,0.0
408,101.75,91.6967,135.392,100.487,96.3494,67.0517,0.0319506,1.50564,18.3967,538.32,3.5063,0.0,0.0
420,104.75,100.486,148.801,118.756,96.3933,67.3713,0.0360818,1.68385,18.0874,537.619,3.46472,0.0,0.0
432,107.75,107.933,162.241,110.824,96.4172,65.0404,0.0396397,1.85851,17.8338,536.858,3.80768,0.0,0.0
444,110.75,115.149,173.714,97.7279,96.4542,65.2629,0.043161,2.00556,17.6012,536.048,3.77835,0.0,0.0
456,113.75,122.9,186.081,93.5696,96.4672,64.7895,0.0461509,2.16172,17.37,535.177,3.85007,0.0,0.0
468,116.75,128.805,195.468,102.983,96.5013,66.6802,0.0481564,2.27437,17.2168,533.015,3.57527,0.0,0.0
480,119.75,135.468,206.511,73.9504,96.5232,67.9985,0.0494594,2.40768,16.992,533.445,3.38812,0.0,0.0
492,122.75,143.493,219.391,77.2042,96.5573,67.6096,0.0512499,2.58442,16.7179,532.555,3.44702,0.0,0.0
504,125.75,151.517,233.343,89.0113,96.5634,68.2218,0.0556064,2.78744,16.398,531.694,3.36043,0.0,0.0
516,128.75,161.281,249.672,87.3001,96.5679,67.8203,0.0606363,3.07078,15.9161,530.673,3.41798,0.0,0.0
528,131.75,172.113,269.859,97.1814,96.5829,66.6608,0.0653287,3.48262,15.1411,529.502,3.58627,0.0,0.0
540,134.75,183.493,292.419,61.3144,96.5821,66.6526,0.0690096,3.9903,14.3298,528.311,3.58737,0.0,0.0
552,137.75,197.77,322.57,101.02,96.5707,63.9077,0.070432,4.59838,13.3844,526.9,3.99299,0.0,0.0
564,140.75,212.475,354.518,58.2353,96.5748,69.4638,0.0703461,5.29803,12.2838,525.408,3.18708,0.0,0.0
576,143.75,226.278,384.029,62.7325,96.5419,75.8456,0.0682708,6.00622,11.2429,523.847,2.33366,0.0,0.0
588,146.75,242.27,417.197,76.4249,96.5123,77.9206,0.0653407,6.71845,10.2877,522.436,2.06963,0.0,0.0
600,149.75,254.46,437.366,97.289,96.4964,73.0446,0.0654182,7.1674,9.80483,520.794,2.69306,0.0,0.0
612,152.75,263.104,448.844,79.2483,96.4432,71.2091,0.0685645,7.28587,10.0111,519.253,2.93387,0.0,0.0
624,155.75,265.108,442.449,99.4071,96.3868,59.171,0.0702661,6.66299,11.4584,518.112,4.71939,0.0,0.0
636,158.75,254.871,407.663,97.834,96.336,63.4449,0.0603147,5.31694,13.8051,517.532,4.03976,0.0,0.0
648,161.75,231.389,352.394,124.41,96.2861,82.6549,0.0423256,3.68847,16.5627,517.271,1.47644,0.0,0.0
660,164.75,205.871,298.196,135.218,96.2496,91.2637,0.0268767,2.35687,18.5948,517.191,0.514475,0.0,0.0
672,167.75,181.556,251.643,136.179,96.1927,91.6839,0.0184108,1.4477,19.6293,517.121,0.46433,0.0,0.0
684,170.75,164.457,217.673,135.722,96.1525,90.5889,0.0139103,0.967919,20.0885,517.031,0.576496,0.0,0.0
696,173.75,150.795,191.748,132.181,96.1099,91.1999,0.0112957,0.696812,20.3539,516.991,0.507188,0.0,0.0
708,176.75,139.113,171.341,137.417,96.0835,92.2445,0.00995564,0.545702,20.4755,516.891,0.394374,0.0,0.0
720,179.75,130.479,155.249,135.067,96.0656,91.4029,0.00919698,0.460323,20.5466,516.841,0.481228,0.0,0.0
732,182.75,123.24,141.826,136.599,96.0774,91.664,0.00886333,0.400895,20.5908,516.751,0.454828,0.0,0.0
744,185.75,117.021,131.814,138.084,96.0737,92.2628,0.00841532,0.360389,20.6203,516.701,0.391478,0.0,0.0
756,188.75,111.781,123.515,135.875,96.118,91.9214,0.00807063,0.330392,20.6426,516.641,0.431792,0.0,0.0
768,191.75,108.006,116.839,139.535,96.1704,93.141,0.00805481,0.309396,20.6561,516.551,0.309576,0.0,0.0
780,194.75,104.246,111.154,138.496,96.2163,93.5454,0.00789877,0.292841,20.6734,516.491,0.272288,0.0,0.0
792,197.75,99.9317,105.057,136.447,96.2967,93.4552,0.00773185,0.277139,20.6901,516.441,0.289691,0.0,0.0
804,200.75,97.7935,101.154,137.323,96.3706,94.093,0.0077915,0.263762,20.7043,516.37,0.231323,0.0,0.0
816,203.75,96.3774,98.7552,137.258,96.4396,93.875,0.00772073,0.252915,20.717,516.3,0.260686,0.0,0.0
828,206.75,93.6348,95.5394,138.381,96.5236,94.9192,0.00754409,0.242887,20.7311,516.27,0.162117,0.0,0.0
840,209.75,92.0978,92.354,142.605,96.6146,94.7532,0.00742977,0.234005,20.7417,516.23,0.188162,0.0,0.0
852,212.75,90.0043,90.1206,139.634,96.6674,95.3991,0.00715811,0.227449,20.7494,516.14,0.127732,0.0,0.0
864,215.75,88.6662,88.0663,145.482,96.7449,95.3086,0.00698095,0.221271,20.7556,516.09,0.144672,0.0,0.0
876,218.75,86.8169,85.8999,139.296,96.8131,95.7584,0.00694044,0.215937,20.7584,516.04,0.105946,0.0,0.0
888,221.75,85.7066,84.1906,143.095,96.8927,96.9159,0.00700928,0.210551,20.7663,516.03,-0.00231782,0.0,0.0
900,224.75,84.5294,82.7409,143.306,96.9792,95.907,0.00699251,0.204957,20.773,515.97,0.107525,0.0,0.0
912,227.75,83.1703,81.6099,143.571,97.06,96.2274,0.0069522,0.200454,20.7814,515.92,0.0833297,0.0,0.0
924,230.75,81.4473,79.5367,144.008,97.142,98.5115,0.00688883,0.195242,20.7891,515.89,-0.135403,0.0,0.0
936,233.75,80.7236,78.5756,141.48,97.2155,98.3154,0.00666927,0.190863,20.7956,515.84,-0.108817,0.0,0.0
948,236.75,78.9463,76.7268,143.486,97.2914,98.4437,0.00649755,0.18655,20.8035,515.81,-0.113879,0.0,0.0
960,239.75,78.3858,76.2356,146.91,97.3625,98.8322,0.00671599,0.182509,20.8056,515.76,-0.144916,0.0,0.0
972,242.75,77.5822,74.605,142.914,97.4193,97.9784,0.00680486,0.178907,20.8083,515.71,-0.0553513,0.0,0.0
984,245.75,76.2175,73.8727,142.882,97.5021,99.0446,0.00679616,0.175171,20.8126,515.7,-0.15181,0.0,0.0
996,248.75,75.3991,72.1598,145.549,97.5785,99.0462,0.00690047,0.172274,20.8159,515.65,-0.144399,0.0,0.0
1008,251.75,74.0672,71.5348,148.158,97.6313,99.5281,0.00701951,0.169468,20.8199,515.61,-0.186114,0.0,0.0
1020,254.75,73.3088,71.2265,147.437,97.7023,99.0965,0.0068591,0.167442,20.8228,515.57,-0.137046,0.0,0.0
1032,257.75,72.6318,69.7767,149.06,97.7717,100.114,0.00663092,0.164864,20.8282,515.54,-0.228973,0.0,0.0
1044,260.75,71.7662,68.8787,147.397,97.831,100.785,0.00666197,0.162266,20.8307,515.51,-0.287691,0.0,0.0
1056,263.75,70.5321,68.385,143.449,97.8801,99.9398,0.00662677,0.159884,20.8346,515.49,-0.201412,0.0,0.0
1068,266.75,69.7295,67.7099,147.267,97.9362,99.3292,0.00660736,0.157435,20.8359,515.44,-0.136601,0.0,0.0
1080,269.75,69.0416,66.4849,148.18,97.9382,100.741,0.00661938,0.155255,20.8408,515.41,-0.27293,0.0,0.0
1092,272.75,68.759,65.8735,148.53,97.9845,100.503,0.00658892,0.153083,20.8455,515.38,-0.245451,0.0,0.0
1104,275.75,67.8201,65.2173,146.645,97.9987,101.308,0.00654125,0.15114,20.8498,515.38,-0.32122,0.0,0.0
1116,278.75,67.1187,64.3014,150.769,98.0283,101.153,,0.149046,,515.34,-0.303516,0.0,0.0
1128,281.75,65.9162,63.5268,149.773,98.0422,101.373,,,,515.31,-0.323132,0.0,0.0
1140,284.75,65.6997,62.5599,148.809,98.0608,100.906,,,,515.27,-0.276641,0.0,0.0
1148,286.75,64.7135,62.629,142.201,98.0661,101.178,,,,515.22,-0.302119,0.0,0.0