Folder: fsri_materials_database/01_Data/HDPE/MCC (part 3)

File: HDPE_MCC_PlotDataDF.csv
Temperature (C),HRR_mean,HRR_std
150.00,0.00,0.00
152.00,-0.12,0.09
154.00,-0.08,0.07
156.00,-0.12,0.10
158.00,-0.05,0.26
160.00,-0.15,0.14
162.00,-0.23,0.07
164.00,-0.36,0.12
166.00,-0.52,0.10
168.00,-0.32,0.15
170.00,-0.49,0.20
172.00,-0.52,0.15
174.00,-0.43,0.17
176.00,-0.39,0.09
178.00,-0.35,0.02
180.00,-0.52,0.08
182.00,-0.49,0.06
184.00,-0.51,0.06
186.00,-0.56,0.14
188.00,-0.48,0.19
190.00,-0.56,0.16
192.00,-0.69,0.18
194.00,-0.64,0.22
196.00,-0.85,0.20
198.00,-0.75,0.20
200.00,-0.92,0.13
202.00,-0.83,0.17
204.00,-0.91,0.21
206.00,-0.87,0.12
208.00,-0.85,0.07
210.00,-0.93,0.18
212.00,-0.89,0.08
214.00,-0.95,0.13
216.00,-1.06,0.24
218.00,-1.10,0.14
220.00,-1.01,0.32
222.00,-0.97,0.30
224.00,-0.91,0.23
226.00,-0.95,0.06
228.00,-1.03,0.09
230.00,-1.02,0.17
232.00,-1.13,0.05
234.00,-1.12,0.17
236.00,-1.13,0.13
238.00,-1.23,0.08
240.00,-1.19,0.07
242.00,-1.24,0.05
244.00,-1.22,0.13
246.00,-1.29,0.09
248.00,-1.32,0.10
250.00,-1.31,0.20
252.00,-1.25,0.15
254.00,-1.20,0.10
256.00,-1.25,0.07
258.00,-1.32,0.25
260.00,-1.35,0.23
262.00,-1.35,0.18
264.00,-1.36,0.23
266.00,-1.33,0.24
268.00,-1.35,0.35
270.00,-1.39,0.33
272.00,-1.46,0.30
274.00,-1.43,0.43
276.00,-1.33,0.31
278.00,-1.38,0.39
280.00,-1.42,0.48
282.00,-1.43,0.31
284.00,-1.51,0.28
286.00,-1.48,0.30
288.00,-1.46,0.24
290.00,-1.42,0.23
292.00,-1.51,0.28
294.00,-1.62,0.19
296.00,-1.53,0.39
298.00,-1.51,0.39
300.00,-1.64,0.27
302.00,-1.61,0.35
304.00,-1.68,0.27
306.00,-1.65,0.24
308.00,-1.55,0.30
310.00,-1.58,0.16
312.00,-1.60,0.32
314.00,-1.61,0.22
316.00,-1.63,0.24
318.00,-1.59,0.26
320.00,-1.66,0.34
322.00,-1.67,0.20
324.00,-1.72,0.04
326.00,-1.72,0.06
328.00,-1.73,0.12
330.00,-1.62,0.15
332.00,-1.74,0.21
334.00,-1.70,0.12
336.00,-1.74,0.22
338.00,-1.68,0.22
340.00,-1.68,0.16
342.00,-1.69,0.23
344.00,-1.65,0.30
346.00,-1.61,0.22
348.00,-1.52,0.30
350.00,-1.64,0.18
352.00,-1.74,0.36
354.00,-1.75,0.32
356.00,-1.64,0.42
358.00,-1.70,0.27
360.00,-1.66,0.33
362.00,-1.61,0.29
364.00,-1.70,0.43
366.00,-1.62,0.28
368.00,-1.57,0.53
370.00,-1.53,0.48
372.00,-1.52,0.45
374.00,-1.44,0.42
376.00,-1.41,0.45
378.00,-1.40,0.49
380.00,-1.44,0.41
382.00,-1.40,0.40
384.00,-1.34,0.48
386.00,-1.26,0.50
388.00,-1.13,0.52
390.00,-1.16,0.63
392.00,-1.00,0.47
394.00,-0.82,0.48
396.00,-0.64,0.57
398.00,-0.59,0.36
400.00,-0.47,0.41
402.00,-0.31,0.48
404.00,-0.06,0.68
406.00,0.15,0.50
408.00,0.29,0.57
410.00,0.59,0.62
412.00,0.90,0.81
414.00,1.24,0.75
416.00,1.64,0.84
418.00,2.17,0.98
420.00,2.84,1.07
422.00,3.35,1.10
424.00,4.11,1.05
426.00,4.72,1.10
428.00,5.62,1.39
430.00,6.71,1.77
432.00,7.94,2.13
434.00,9.38,2.29
436.00,11.08,2.66
438.00,12.97,2.36
440.00,15.09,2.20
442.00,17.62,2.32
444.00,20.22,2.50
446.00,22.81,3.00
448.00,26.20,3.58
450.00,30.16,4.08
452.00,35.06,4.68
454.00,40.71,5.37
456.00,47.22,6.86
458.00,55.62,8.44
460.00,66.61,10.87
462.00,80.25,13.37
464.00,97.18,13.49
466.00,116.75,14.78
468.00,137.57,16.06
470.00,161.23,19.21
472.00,189.09,22.82
474.00,220.00,24.38
476.00,254.46,28.66
478.00,293.44,32.17
480.00,339.29,35.65
482.00,387.13,41.49
484.00,442.49,46.31
486.00,498.26,50.77
488.00,560.67,50.22
490.00,616.58,42.53
492.00,668.74,37.44
494.00,716.94,31.20
496.00,736.39,5.47
498.00,720.09,30.38
500.00,661.95,54.16
502.00,586.02,71.10
504.00,484.33,91.68
506.00,376.40,86.08
508.00,266.67,67.82
510.00,180.15,57.52
512.00,110.42,36.64
514.00,63.88,23.70
516.00,34.29,13.05
518.00,16.76,7.41
520.00,7.97,4.00
522.00,3.35,2.04
524.00,1.30,1.34
526.00,-0.00,0.95
528.00,-0.59,0.76
530.00,-0.95,0.76
532.00,-1.14,0.65
534.00,-1.28,0.58
536.00,-1.26,0.59
538.00,-1.38,0.60
540.00,-1.54,0.82
542.00,-1.53,0.82
544.00,-1.61,0.81
546.00,-1.67,0.90
548.00,-1.69,0.74
550.00,-1.62,0.64
552.00,-1.72,0.78
554.00,-1.67,0.62
556.00,-1.83,0.75
558.00,-1.81,0.62
560.00,-1.87,0.70
562.00,-1.76,0.63
564.00,-1.82,0.66
566.00,-1.84,0.66
568.00,-1.83,0.73
570.00,-1.87,0.89
572.00,-1.87,0.75
574.00,-1.82,0.63
576.00,-1.79,0.75
578.00,-1.90,0.80
580.00,-1.86,0.73
582.00,-1.79,0.56
584.00,-1.76,0.63
586.00,-1.87,0.62
588.00,-1.91,0.66
590.00,-1.95,0.60
592.00,-2.00,0.55
594.00,-2.00,0.56
596.00,-2.05,0.55
598.00,-2.15,0.74
600.00,-2.02,0.62
602.00,-1.91,0.65
604.00,-1.89,0.52
606.00,-1.93,0.45
608.00,-2.01,0.53
610.00,-2.01,0.66
612.00,-1.92,0.72
614.00,-1.81,0.70
616.00,-1.81,0.65
618.00,-1.75,0.68
620.00,-1.83,0.72
622.00,-1.80,0.69
624.00,-1.83,0.54
626.00,-1.83,0.49
628.00,-1.77,0.49
630.00,-1.83,0.48
632.00,-1.77,0.41
634.00,-1.63,0.46
636.00,-1.67,0.56
638.00,-1.80,0.33
640.00,-1.58,0.60
642.00,-1.59,0.49
644.00,-1.74,0.54
646.00,-1.50,0.53
648.00,-1.41,0.48
650.00,-1.41,0.47
652.00,-1.45,0.23
654.00,-1.34,0.49
656.00,-1.25,0.42
658.00,-1.45,0.28
660.00,-1.38,0.42
662.00,-1.11,0.35
664.00,-1.19,0.33
666.00,-1.08,0.32
668.00,-1.04,0.19
670.00,-1.01,0.18
672.00,-1.01,0.35
674.00,-1.05,0.25
676.00,-0.78,0.38
678.00,-0.82,0.21
680.00,-0.74,0.07
682.00,-0.61,0.15
684.00,-0.47,0.17
686.00,-0.38,0.15
688.00,-0.29,0.06
690.00,-0.28,0.05
692.00,-0.32,0.09
694.00,-0.25,0.08
696.00,-0.10,0.20
698.00,-0.05,0.16
700.00,0.00,0.00