Folder: fsri_materials_database/01_Data/HDPE/MCC (part 2)

File: HDPE_MCC_30K_min_210921_R3.txt
Sample ID:	C:\MCC\MCC Cal\Test\HDPE_MCC_30K_min_210921_R3.txt
Sample Weight (mg):	4.6
Heating Rate (C/s):	0.5
Combustor Temp (C):	900
N2 Flow Rate (cc/min):	80
O2 Flow Rate (cc/min):	20
Calibration File:	C:\MCC\MCC Cal\Coeff1 JN10440_30_210304.txt.txt
T Correction Coefficients:	0	1.024463	0
Time Shift (s):	14
*
Time (s)	Temperature (C)	N2 flow rate (cc/min)	O2 flow rate (cc/min)	Flow Rate (cc/min)	Oxygen (%)	HRR (W/g)	Heating rate (C/s)
0.000	108.614	80.009	19.996	100.243	19.927	0.169	-0.007
8.000	108.612	80.001	19.995	100.232	19.933	-0.253	-0.011
16.000	108.563	80.007	19.994	100.224	19.929	0.038	-0.024
24.000	108.558	80.001	19.996	100.260	19.926	0.209	0.040
32.000	108.647	79.998	19.997	100.334	19.911	1.208	0.014
40.000	109.227	79.992	19.996	100.407	19.900	1.993	0.099
48.000	110.311	79.994	19.995	100.425	19.893	2.441	0.145
56.000	111.742	79.999	19.995	100.420	19.892	2.551	0.194
64.000	113.537	79.996	19.996	100.427	19.895	2.314	0.221
72.001	115.702	79.998	19.996	100.440	19.891	2.595	0.295
80.000	118.057	80.003	19.995	100.421	19.894	2.388	0.296
88.000	120.552	80.001	19.994	100.422	19.889	2.706	0.343
96.000	123.216	79.997	19.996	100.457	19.885	3.020	0.327
104.000	126.143	80.001	19.994	100.462	19.883	3.161	0.403
112.000	129.268	80.001	19.995	100.465	19.884	3.066	0.397
120.001	132.546	79.999	19.995	100.464	19.882	3.241	0.438
128.000	135.950	80.001	19.995	100.453	19.889	2.736	0.405
136.000	139.519	79.981	19.997	100.459	19.887	2.848	0.457
144.000	143.185	80.001	19.995	100.458	19.885	3.017	0.457
152.000	146.983	79.997	19.995	100.459	19.886	2.949	0.519
160.000	150.788	80.006	19.995	100.458	19.886	2.960	0.453
168.000	154.642	79.995	19.996	100.450	19.887	2.884	0.502
176.000	158.558	80.003	19.994	100.450	19.891	2.573	0.485
184.000	162.520	79.998	19.996	100.428	19.891	2.588	0.519
192.000	166.573	80.005	19.995	100.431	19.893	2.450	0.315
200.000	170.578	80.000	19.996	100.420	19.894	2.388	0.530
208.000	174.610	79.997	19.996	100.420	19.892	2.521	0.499
216.000	178.668	80.000	19.996	100.418	19.895	2.296	0.530
224.000	182.662	80.001	19.995	100.419	19.896	2.235	0.469
232.000	186.657	79.999	19.995	100.411	19.895	2.356	0.501
240.000	190.648	79.999	19.995	100.398	19.901	1.949	0.511
248.000	194.529	80.010	19.994	100.396	19.902	1.881	0.467
256.000	198.454	80.013	19.994	100.385	19.900	1.970	0.464
264.000	202.363	80.005	19.995	100.392	19.904	1.721	0.487
272.000	206.274	80.004	19.995	100.385	19.900	2.011	0.518
280.000	210.187	80.009	19.995	100.396	19.906	1.554	0.490
288.000	214.104	79.998	19.995	100.383	19.903	1.776	0.507
296.000	218.027	80.009	19.994	100.383	19.907	1.537	0.517
304.000	221.888	79.999	19.995	100.385	19.909	1.341	0.493
312.000	225.800	79.994	19.998	100.379	19.904	1.743	0.455
320.000	229.751	79.998	19.996	100.377	19.907	1.517	0.492
328.000	233.717	79.997	19.997	100.379	19.906	1.570	0.491
336.000	237.607	80.000	19.995	100.378	19.909	1.387	0.487
344.000	241.555	80.000	19.994	100.370	19.909	1.376	0.488
352.000	245.464	80.001	19.994	100.358	19.911	1.251	0.487
360.000	249.405	79.999	19.996	100.366	19.911	1.266	0.518
368.000	253.367	80.001	19.995	100.357	19.913	1.073	0.482
376.000	257.246	80.001	19.996	100.371	19.913	1.102	0.483
384.000	261.156	80.001	19.995	100.365	19.912	1.137	0.520
392.000	265.045	79.996	19.996	100.351	19.916	0.880	0.492
400.000	268.949	80.002	19.996	100.344	19.917	0.845	0.482
408.000	272.996	79.999	19.997	100.345	19.919	0.693	0.471
416.000	276.883	80.002	19.995	100.345	19.917	0.840	0.482
424.000	280.813	80.000	19.995	100.343	19.920	0.647	0.478
432.000	284.696	80.002	19.994	100.346	19.923	0.409	0.482
440.000	288.595	80.004	19.995	100.342	19.919	0.679	0.495
448.000	292.552	80.002	19.995	100.342	19.923	0.433	0.474
456.000	296.458	80.001	19.994	100.340	19.923	0.403	0.481
464.000	300.465	79.999	19.996	100.339	19.922	0.499	0.501
472.000	304.412	80.001	19.995	100.338	19.923	0.424	0.485
480.000	308.403	80.000	19.996	100.339	19.924	0.328	0.455
488.000	312.474	80.002	19.996	100.342	19.921	0.524	0.542
496.000	316.550	80.002	19.996	100.337	19.924	0.378	0.543
504.000	320.616	80.002	19.995	100.335	19.923	0.434	0.508
512.000	324.686	80.000	19.994	100.315	19.922	0.489	0.540
520.000	328.736	80.004	19.996	100.314	19.922	0.493	0.502
528.000	332.812	80.000	19.995	100.308	19.926	0.240	0.511
536.000	336.855	80.002	19.995	100.304	19.926	0.247	0.507
544.000	340.951	80.002	19.993	100.310	19.922	0.488	0.513
552.000	345.012	80.001	19.992	100.309	19.923	0.420	0.516
560.000	349.130	79.996	19.998	100.314	19.928	0.046	0.497
568.000	353.223	79.999	19.994	100.308	19.927	0.121	0.514
576.000	357.218	79.998	20.002	100.303	19.928	0.092	0.495
584.000	361.227	79.996	19.997	100.300	19.925	0.288	0.521
592.000	365.182	79.992	20.002	100.303	19.929	0.004	0.512
600.000	369.183	80.007	19.993	100.297	19.926	0.236	0.514
608.000	373.202	80.001	19.993	100.303	19.926	0.183	0.522
616.000	377.258	80.000	19.989	100.308	19.925	0.313	0.487
624.000	381.307	79.999	19.992	100.302	19.927	0.148	0.510
632.000	385.338	80.000	19.997	100.310	19.924	0.328	0.530
640.000	389.444	80.003	19.993	100.306	19.925	0.291	0.501
648.000	393.663	80.003	19.993	100.302	19.921	0.543	0.522
656.000	397.872	80.000	20.003	100.282	19.911	1.228	0.462
664.000	401.925	79.999	20.000	100.289	19.912	1.133	0.464
672.000	405.969	80.003	19.996	100.288	19.901	1.899	0.501
680.000	410.110	80.000	19.995	100.292	19.895	2.326	0.550
688.000	414.130	79.999	19.999	100.292	19.887	2.864	0.469
696.000	418.156	79.999	19.996	100.272	19.873	3.804	0.487
704.000	422.120	80.000	19.994	100.272	19.852	5.217	0.464
712.000	426.008	80.002	19.994	100.265	19.826	7.033	0.486
720.000	429.984	80.000	19.995	100.268	19.783	9.943	0.495
728.000	434.034	80.000	19.994	100.266	19.731	13.509	0.556
736.000	438.026	80.001	19.994	100.266	19.677	17.161	0.494
744.000	441.994	80.001	19.995	100.262	19.613	21.489	0.443
752.000	445.947	80.001	19.996	100.235	19.527	27.319	0.485
760.000	449.942	80.001	19.994	100.230	19.402	35.842	0.497
768.000	453.931	80.001	19.995	100.234	19.229	47.569	0.489
776.000	457.893	79.995	19.996	100.224	18.967	65.389	0.521
784.000	461.964	79.999	19.997	100.236	18.532	94.898	0.481
792.000	466.095	80.001	19.997	100.186	17.935	135.361	0.513
800.000	470.202	80.000	19.996	100.142	17.201	185.041	0.509
808.000	474.324	80.000	19.996	100.039	16.168	254.793	0.534
816.000	478.455	80.003	19.995	99.926	14.930	337.934	0.506
824.000	482.474	80.000	19.994	99.816	13.342	443.251	0.504
832.000	486.440	80.002	19.995	99.388	11.516	563.836	0.489
840.000	490.520	80.003	19.993	99.036	9.800	675.074	0.523
848.000	494.544	80.004	19.996	98.870	8.737	749.108	0.507
856.000	498.696	80.000	19.996	98.552	10.027	665.778	0.521
864.000	502.889	80.000	19.996	98.870	13.217	454.475	0.556
872.000	507.212	80.000	19.995	99.549	16.630	224.231	0.532
880.000	511.489	80.000	19.994	100.141	18.736	81.143	0.477
888.000	515.809	79.999	19.996	100.269	19.599	22.384	0.531
896.000	519.988	79.999	19.993	100.225	19.849	5.424	0.497
904.000	524.154	80.003	19.996	100.024	19.908	1.467	0.490
912.000	528.244	80.003	19.995	100.215	19.928	0.110	0.536
920.000	532.249	80.003	19.994	100.187	19.930	-0.082	0.487
928.000	536.220	80.003	19.995	100.187	19.933	-0.275	0.485
936.000	540.136	80.000	19.996	100.214	19.940	-0.758	0.492
944.000	544.129	80.001	19.995	100.227	19.940	-0.738	0.483
952.000	548.171	80.000	19.996	100.254	19.936	-0.464	0.521
960.000	552.206	80.001	19.997	100.254	19.944	-1.024	0.499
968.000	556.288	79.999	19.996	100.262	19.940	-0.720	0.501
976.000	560.428	80.001	19.996	100.264	19.943	-0.938	0.536
984.000	564.585	80.004	19.996	100.263	19.942	-0.876	0.536
992.000	568.736	80.001	19.995	100.264	19.940	-0.771	0.496
1000.000	572.909	80.004	19.994	100.267	19.942	-0.850	0.524
1008.000	577.102	80.005	19.995	100.266	19.945	-1.085	0.500
1016.000	581.167	80.000	19.995	100.269	19.944	-0.990	0.543
1024.000	585.191	80.001	19.995	100.265	19.945	-1.096	0.501
1032.000	589.188	80.001	19.995	100.266	19.944	-1.035	0.482
1040.000	593.176	80.001	19.996	100.267	19.948	-1.253	0.521
1048.000	597.252	79.999	19.997	100.270	19.944	-1.017	0.535
1056.000	601.254	80.001	19.996	100.265	19.946	-1.140	0.534
1064.000	605.211	80.003	19.996	100.282	19.946	-1.175	0.463
1072.000	609.271	80.001	19.995	100.287	19.946	-1.118	0.524
1080.000	613.399	80.002	19.995	100.301	19.948	-1.283	0.529
1088.000	617.502	80.003	19.995	100.304	19.945	-1.087	0.465
1096.000	621.650	80.002	19.995	100.304	19.946	-1.153	0.512
1104.000	625.774	80.001	19.996	100.319	19.944	-1.027	0.491
1112.000	629.987	80.002	19.995	100.314	19.945	-1.095	0.506
1120.000	634.062	80.000	19.995	100.323	19.942	-0.895	0.514
1128.000	638.261	80.000	19.995	100.304	19.943	-0.957	0.498
1136.000	642.407	80.002	19.996	100.313	19.943	-0.921	0.510
1144.000	646.566	80.002	19.996	100.327	19.943	-0.921	0.511
1152.000	650.760	80.002	19.996	100.344	19.939	-0.704	0.478
1160.000	655.007	80.002	19.995	100.347	19.939	-0.640	0.516
1168.000	659.075	80.004	19.995	100.355	19.940	-0.706	0.492
1176.000	663.230	80.001	19.995	100.370	19.934	-0.327	0.501
1184.000	667.242	80.001	19.995	100.387	19.937	-0.556	0.487
1192.000	671.286	80.002	19.995	100.397	19.936	-0.481	0.504
1200.000	675.244	80.000	19.996	100.420	19.936	-0.499	0.479
1208.000	679.192	80.001	19.995	100.428	19.925	0.285	0.467
1216.000	683.162	80.000	19.995	100.437	19.925	0.263	0.505
1224.000	687.123	80.003	19.995	100.455	19.925	0.266	0.511
1232.001	691.024	80.002	19.996	100.459	19.922	0.472	0.459
1240.000	694.931	80.001	19.997	100.463	19.923	0.452	0.516
1248.000	698.845	80.004	19.996	100.494	19.920	0.636	0.455
1256.001	702.728	80.003	19.995	100.501	19.914	1.045	0.493
1264.001	706.652	80.001	19.995	100.501	19.912	1.163	0.499
1272.000	710.584	80.001	19.994	100.532	19.909	1.343	0.492
1280.000	714.568	80.003	19.996	100.540	19.911	1.231	0.462
1288.001	718.641	80.003	19.995	100.539	19.910	1.336	0.525
1296.000	722.781	80.000	19.995	100.550	19.907	1.516	0.509
1304.000	726.960	80.003	19.996	100.568	19.911	1.226	0.543
1312.000	731.103	80.003	19.995	100.567	19.910	1.283	0.524
1320.000	735.358	80.003	19.996	100.580	19.900	1.974	0.459
1328.000	739.475	80.003	19.996	100.578	19.902	1.877	0.510
1335.500	743.322	80.002	19.994	100.578	19.899	2.039	0.509

File: HDPE_MCC_CorrectedDataDF.csv
Temperature (C),R1,R2,R3
150.00,0.00,0.00,0.00
152.00,-0.04,-0.09,-0.22
154.00,-0.17,-0.07,-0.02
156.00,-0.15,-0.01,-0.21
158.00,-0.28,-0.09,0.23
160.00,-0.11,-0.30,-0.03
162.00,-0.19,-0.19,-0.30
164.00,-0.29,-0.49,-0.29
166.00,-0.43,-0.63,-0.50
168.00,-0.48,-0.30,-0.18
170.00,-0.31,-0.70,-0.46
172.00,-0.35,-0.57,-0.65
174.00,-0.26,-0.43,-0.60
176.00,-0.30,-0.42,-0.47
178.00,-0.34,-0.38,-0.33
180.00,-0.43,-0.56,-0.58
182.00,-0.52,-0.54,-0.42
184.00,-0.46,-0.49,-0.58
186.00,-0.56,-0.41,-0.70
188.00,-0.45,-0.30,-0.68
190.00,-0.44,-0.50,-0.75
192.00,-0.54,-0.64,-0.89
194.00,-0.52,-0.51,-0.90
196.00,-0.66,-0.84,-1.06
198.00,-0.58,-0.70,-0.98
200.00,-0.82,-0.88,-1.07
202.00,-0.66,-0.83,-1.01
204.00,-0.68,-1.00,-1.06
206.00,-0.74,-0.89,-0.98
208.00,-0.77,-0.90,-0.87
210.00,-0.77,-0.90,-1.11
212.00,-0.80,-0.97,-0.91
214.00,-0.80,-1.03,-1.02
216.00,-0.83,-1.05,-1.30
218.00,-0.95,-1.15,-1.20
220.00,-0.77,-0.87,-1.37
222.00,-0.70,-0.91,-1.29
224.00,-0.65,-1.07,-1.03
226.00,-0.92,-1.03,-0.92
228.00,-0.93,-1.04,-1.12
230.00,-0.86,-1.19,-1.01
232.00,-1.07,-1.18,-1.14
234.00,-0.97,-1.08,-1.30
236.00,-1.01,-1.26,-1.11
238.00,-1.25,-1.14,-1.29
240.00,-1.15,-1.14,-1.27
242.00,-1.19,-1.27,-1.27
244.00,-1.10,-1.21,-1.35
246.00,-1.21,-1.28,-1.39
248.00,-1.39,-1.21,-1.37
250.00,-1.15,-1.25,-1.54
252.00,-1.08,-1.32,-1.35
254.00,-1.09,-1.28,-1.24
256.00,-1.17,-1.27,-1.31
258.00,-1.03,-1.49,-1.44
260.00,-1.11,-1.39,-1.56
262.00,-1.15,-1.45,-1.46
264.00,-1.11,-1.37,-1.58
266.00,-1.09,-1.31,-1.58
268.00,-0.97,-1.42,-1.66
270.00,-1.14,-1.25,-1.76
272.00,-1.32,-1.26,-1.81
274.00,-1.10,-1.26,-1.92
276.00,-1.14,-1.17,-1.69
278.00,-0.97,-1.40,-1.75
280.00,-1.00,-1.32,-1.94
282.00,-1.17,-1.34,-1.77
284.00,-1.25,-1.48,-1.81
286.00,-1.19,-1.46,-1.79
288.00,-1.27,-1.36,-1.74
290.00,-1.34,-1.23,-1.68
292.00,-1.33,-1.37,-1.83
294.00,-1.44,-1.60,-1.82
296.00,-1.28,-1.33,-1.98
298.00,-1.21,-1.37,-1.95
300.00,-1.54,-1.44,-1.94
302.00,-1.38,-1.43,-2.00
304.00,-1.73,-1.38,-1.92
306.00,-1.49,-1.54,-1.93
308.00,-1.47,-1.30,-1.89
310.00,-1.41,-1.62,-1.72
312.00,-1.34,-1.49,-1.96
314.00,-1.41,-1.56,-1.85
316.00,-1.47,-1.51,-1.91
318.00,-1.45,-1.44,-1.89
320.00,-1.41,-1.51,-2.05
322.00,-1.51,-1.60,-1.90
324.00,-1.70,-1.69,-1.76
326.00,-1.68,-1.79,-1.70
328.00,-1.60,-1.78,-1.82
330.00,-1.46,-1.69,-1.72
332.00,-1.56,-1.68,-1.97
334.00,-1.59,-1.68,-1.83
336.00,-1.69,-1.55,-1.98
338.00,-1.48,-1.66,-1.91
340.00,-1.60,-1.58,-1.87
342.00,-1.52,-1.59,-1.95
344.00,-1.48,-1.48,-1.99
346.00,-1.45,-1.51,-1.87
348.00,-1.27,-1.44,-1.86
350.00,-1.55,-1.52,-1.84
352.00,-1.40,-1.69,-2.12
354.00,-1.50,-1.64,-2.12
356.00,-1.22,-1.65,-2.06
358.00,-1.39,-1.79,-1.90
360.00,-1.32,-1.70,-1.97
362.00,-1.32,-1.62,-1.90
364.00,-1.24,-1.78,-2.09
366.00,-1.31,-1.70,-1.85
368.00,-0.98,-1.73,-2.00
370.00,-1.05,-1.54,-2.01
372.00,-1.04,-1.58,-1.93
374.00,-1.00,-1.50,-1.84
376.00,-0.92,-1.50,-1.81
378.00,-0.85,-1.56,-1.79
380.00,-1.03,-1.46,-1.84
382.00,-0.96,-1.47,-1.76
384.00,-0.87,-1.32,-1.83
386.00,-0.69,-1.46,-1.63
388.00,-0.59,-1.17,-1.64
390.00,-0.45,-1.36,-1.66
392.00,-0.48,-1.13,-1.40
394.00,-0.29,-0.97,-1.21
396.00,-0.00,-0.83,-1.09
398.00,-0.18,-0.81,-0.79
400.00,0.01,-0.67,-0.74
402.00,0.24,-0.49,-0.67
404.00,0.71,-0.58,-0.31
406.00,0.73,-0.18,-0.09
408.00,0.95,-0.13,0.07
410.00,1.29,0.10,0.39
412.00,1.82,0.27,0.62
414.00,2.10,0.71,0.91
416.00,2.57,0.93,1.43
418.00,3.23,1.29,2.00
420.00,3.97,1.83,2.71
422.00,4.47,2.26,3.33
424.00,5.06,2.98,4.29
426.00,5.52,3.46,5.18
428.00,6.21,4.04,6.62
430.00,6.92,4.84,8.35
432.00,8.06,5.75,10.01
434.00,9.41,7.07,11.65
436.00,11.24,8.34,13.65
438.00,13.00,10.60,15.32
440.00,14.86,13.02,17.40
442.00,17.31,15.48,20.08
444.00,19.80,17.95,22.91
446.00,22.51,19.97,25.95
448.00,25.67,22.92,30.02
450.00,29.07,26.73,34.67
452.00,33.80,31.14,40.25
454.00,38.73,36.60,46.78
456.00,44.90,41.84,54.94
458.00,53.10,48.73,65.03
460.00,62.77,58.18,78.89
462.00,76.03,69.50,95.22
464.00,91.99,87.07,112.49
466.00,110.87,105.81,133.57
468.00,130.95,125.88,155.89
470.00,153.23,147.33,183.15
472.00,178.73,173.28,215.25
474.00,208.80,203.23,247.97
476.00,238.18,237.65,287.55
478.00,275.38,274.35,330.59
480.00,316.61,320.89,380.38
482.00,358.00,368.76,434.64
484.00,410.41,421.48,495.58
486.00,461.29,477.35,556.15
488.00,522.94,541.39,617.67
490.00,586.49,598.02,665.24
492.00,646.67,647.58,711.97
494.00,695.01,703.15,752.65
496.00,733.60,732.88,742.69
498.00,752.44,715.64,692.18
500.00,716.75,660.64,608.46
502.00,651.47,596.21,510.38
504.00,569.96,495.43,387.61
506.00,453.94,391.50,283.77
508.00,329.94,274.99,195.07
510.00,232.79,188.91,118.74
512.00,144.90,114.41,71.96
514.00,84.20,69.59,37.84
516.00,46.05,36.57,20.25
518.00,23.73,17.56,8.98
520.00,11.52,8.76,3.63
522.00,5.27,3.57,1.21
524.00,2.70,1.17,0.02
526.00,1.01,-0.15,-0.87
528.00,0.24,-0.73,-1.27
530.00,-0.09,-1.20,-1.55
532.00,-0.42,-1.30,-1.69
534.00,-0.61,-1.56,-1.66
536.00,-0.60,-1.44,-1.75
538.00,-0.68,-1.73,-1.72
540.00,-0.60,-1.96,-2.07
542.00,-0.60,-1.88,-2.13
544.00,-0.68,-2.09,-2.07
546.00,-0.65,-2.07,-2.30
548.00,-0.85,-2.24,-1.98
550.00,-0.88,-1.94,-2.03
552.00,-0.84,-2.02,-2.30
554.00,-0.97,-1.92,-2.13
556.00,-0.97,-2.35,-2.17
558.00,-1.12,-1.96,-2.35
560.00,-1.07,-2.14,-2.40
562.00,-1.09,-1.84,-2.35
564.00,-1.06,-2.23,-2.18
566.00,-1.08,-2.15,-2.29
568.00,-0.99,-2.15,-2.34
570.00,-0.84,-2.47,-2.29
572.00,-1.01,-2.35,-2.26
574.00,-1.10,-2.28,-2.07
576.00,-0.92,-2.22,-2.23
578.00,-0.98,-2.33,-2.40
580.00,-1.04,-2.06,-2.46
582.00,-1.14,-2.11,-2.13
584.00,-1.06,-1.96,-2.27
586.00,-1.16,-2.16,-2.29
588.00,-1.15,-2.30,-2.28
590.00,-1.28,-2.14,-2.44
592.00,-1.36,-2.35,-2.28
594.00,-1.36,-2.25,-2.40
596.00,-1.42,-2.34,-2.39
598.00,-1.34,-2.80,-2.30
600.00,-1.31,-2.47,-2.28
602.00,-1.15,-2.32,-2.25
604.00,-1.30,-2.19,-2.19
606.00,-1.41,-2.18,-2.19
608.00,-1.40,-2.35,-2.28
610.00,-1.26,-2.45,-2.34
612.00,-1.11,-2.12,-2.51
614.00,-1.00,-2.20,-2.23
616.00,-1.07,-2.06,-2.30
618.00,-0.97,-2.01,-2.26
620.00,-1.00,-2.22,-2.26
622.00,-1.01,-2.10,-2.30
624.00,-1.21,-2.11,-2.18
626.00,-1.26,-2.13,-2.09
628.00,-1.21,-1.99,-2.11
630.00,-1.28,-2.07,-2.14
632.00,-1.29,-1.94,-2.07
634.00,-1.10,-1.86,-1.93
636.00,-1.02,-2.01,-1.97
638.00,-1.42,-2.05,-1.92
640.00,-0.89,-1.99,-1.87
642.00,-1.12,-1.57,-2.10
644.00,-1.16,-1.85,-2.22
646.00,-0.94,-1.57,-2.00
648.00,-0.90,-1.48,-1.84
650.00,-0.94,-1.40,-1.88
652.00,-1.22,-1.68,-1.46
654.00,-0.78,-1.56,-1.68
656.00,-0.76,-1.47,-1.52
658.00,-1.14,-1.68,-1.52
660.00,-0.91,-1.70,-1.54
662.00,-0.70,-1.33,-1.28
664.00,-0.85,-1.23,-1.51
666.00,-0.77,-1.06,-1.41
668.00,-0.83,-1.10,-1.19
670.00,-0.83,-1.03,-1.19
672.00,-0.62,-1.12,-1.28
674.00,-0.78,-1.08,-1.28
676.00,-0.38,-0.82,-1.13
678.00,-0.58,-0.92,-0.96
680.00,-0.66,-0.77,-0.78
682.00,-0.44,-0.70,-0.69
684.00,-0.28,-0.53,-0.60
686.00,-0.24,-0.35,-0.53
688.00,-0.27,-0.24,-0.36
690.00,-0.30,-0.32,-0.22
692.00,-0.26,-0.28,-0.43
694.00,-0.16,-0.30,-0.28
696.00,0.00,-0.34,0.03
698.00,0.13,-0.17,-0.11
700.00,0.00,0.00,0.00

File: HDPE_MCC_DataDF.csv
Temperature (C),HRR (W/g),Time_copy_1,HRR correction,R1,HRR (W/g),Time_copy_2,HRR correction,R2,HRR (W/g),Time_copy_3,HRR correction,R3
150.00,2.90,180.75,2.90,0.00,3.29,155.75,3.29,0.00,2.96,158.25,2.96,0.00
155.00,2.77,191.25,2.90,-0.12,3.22,165.75,3.32,-0.10,2.90,168.75,2.94,-0.05
160.00,2.79,201.75,2.89,-0.11,3.04,176.25,3.34,-0.30,2.89,178.75,2.92,-0.03
165.00,2.59,212.25,2.89,-0.30,2.88,186.25,3.37,-0.49,2.66,188.75,2.90,-0.25
170.00,2.58,222.25,2.89,-0.31,2.70,196.25,3.40,-0.70,2.43,198.75,2.88,-0.46
175.00,2.44,232.25,2.89,-0.45,2.99,206.25,3.42,-0.44,2.42,208.75,2.86,-0.44
180.00,2.46,242.75,2.89,-0.43,2.89,216.25,3.45,-0.56,2.27,218.75,2.84,-0.58
185.00,2.42,252.75,2.89,-0.46,3.01,226.25,3.47,-0.46,2.32,228.75,2.82,-0.50
190.00,2.44,262.75,2.88,-0.44,3.00,236.25,3.50,-0.50,2.06,238.75,2.80,-0.75
195.00,2.33,272.75,2.88,-0.55,2.85,246.25,3.53,-0.68,2.07,248.75,2.78,-0.72
200.00,2.06,282.75,2.88,-0.82,2.67,256.25,3.55,-0.88,1.70,259.25,2.76,-1.07
205.00,2.17,292.75,2.88,-0.71,2.78,266.75,3.58,-0.80,1.80,269.25,2.74,-0.95
210.00,2.11,302.75,2.88,-0.77,2.71,276.75,3.61,-0.90,1.61,279.75,2.72,-1.11
215.00,2.07,312.75,2.88,-0.81,2.53,286.75,3.63,-1.10,1.48,289.75,2.70,-1.23
220.00,2.10,322.75,2.87,-0.77,2.79,296.75,3.66,-0.87,1.31,300.25,2.68,-1.37
225.00,2.01,332.75,2.87,-0.87,2.80,306.75,3.69,-0.88,1.64,310.25,2.66,-1.02
230.00,2.01,342.25,2.87,-0.86,2.52,316.75,3.71,-1.19,1.64,320.25,2.64,-1.01
235.00,1.92,352.75,2.87,-0.95,2.57,327.25,3.74,-1.17,1.38,330.75,2.62,-1.24
240.00,1.72,362.75,2.87,-1.15,2.62,337.25,3.77,-1.14,1.33,340.75,2.61,-1.27
245.00,1.54,373.25,2.86,-1.32,2.55,347.75,3.79,-1.25,1.13,351.25,2.59,-1.45
250.00,1.72,383.25,2.86,-1.15,2.57,357.75,3.82,-1.25,1.03,361.25,2.57,-1.54
255.00,1.75,393.75,2.86,-1.11,2.50,367.75,3.84,-1.35,1.40,371.25,2.55,-1.14
260.00,1.75,403.75,2.86,-1.11,2.48,378.25,3.87,-1.39,0.97,381.75,2.53,-1.56
265.00,1.87,414.25,2.86,-0.99,2.54,388.25,3.90,-1.35,0.92,391.75,2.51,-1.58
270.00,1.71,424.25,2.86,-1.14,2.67,398.25,3.92,-1.25,0.72,402.25,2.49,-1.76
275.00,1.56,433.75,2.85,-1.29,2.68,408.25,3.95,-1.27,0.50,412.25,2.47,-1.96
280.00,1.85,443.75,2.85,-1.00,2.65,418.75,3.98,-1.32,0.50,422.25,2.45,-1.94
285.00,1.57,453.25,2.85,-1.28,2.50,428.75,4.00,-1.50,0.46,432.75,2.43,-1.97
290.00,1.51,463.25,2.85,-1.34,2.80,438.75,4.03,-1.23,0.73,442.75,2.41,-1.68
295.00,1.63,472.75,2.85,-1.22,2.71,449.25,4.06,-1.34,0.40,452.75,2.39,-1.99
300.00,1.31,482.75,2.85,-1.54,2.64,459.00,4.08,-1.44,0.42,463.25,2.37,-1.94
305.00,1.37,492.75,2.84,-1.48,2.51,469.25,4.11,-1.60,0.42,473.25,2.35,-1.93
310.00,1.44,502.25,2.84,-1.41,2.52,479.75,4.14,-1.62,0.61,483.25,2.33,-1.72
315.00,1.45,512.25,2.84,-1.39,2.63,489.75,4.16,-1.53,0.51,492.75,2.31,-1.80
320.00,1.43,522.25,2.84,-1.41,2.68,499.75,4.19,-1.51,0.24,502.75,2.29,-2.05
325.00,1.19,532.25,2.84,-1.65,2.58,509.75,4.21,-1.63,0.47,512.75,2.27,-1.80
330.00,1.38,542.25,2.83,-1.46,2.55,519.75,4.24,-1.69,0.52,522.75,2.25,-1.72
335.00,1.19,552.25,2.83,-1.65,2.48,529.25,4.27,-1.79,0.45,532.25,2.23,-1.77
340.00,1.23,562.25,2.83,-1.60,2.72,539.25,4.29,-1.58,0.34,542.25,2.21,-1.87
345.00,1.39,572.25,2.83,-1.44,2.88,548.75,4.32,-1.44,0.28,551.75,2.19,-1.91
350.00,1.28,582.25,2.83,-1.55,2.83,558.75,4.35,-1.52,0.32,561.75,2.17,-1.84
355.00,1.48,592.75,2.83,-1.34,2.47,568.25,4.37,-1.91,0.11,571.25,2.15,-2.04
360.00,1.51,602.75,2.82,-1.32,2.70,578.25,4.40,-1.70,0.16,581.75,2.13,-1.97
365.00,1.59,612.75,2.82,-1.23,2.76,588.25,4.43,-1.67,0.04,591.75,2.11,-2.07
370.00,1.77,622.75,2.82,-1.05,2.91,598.25,4.45,-1.54,0.08,601.75,2.09,-2.01
375.00,1.71,632.25,2.82,-1.11,3.06,608.25,4.48,-1.42,0.34,611.75,2.07,-1.73
380.00,1.79,642.25,2.82,-1.03,3.04,618.25,4.51,-1.46,0.21,621.25,2.05,-1.84
385.00,1.95,652.25,2.81,-0.86,3.13,628.25,4.53,-1.40,0.34,631.25,2.03,-1.69
390.00,2.36,662.25,2.81,-0.45,3.20,638.25,4.56,-1.36,0.35,640.75,2.01,-1.66
395.00,2.49,671.75,2.81,-0.32,3.42,647.75,4.58,-1.16,0.91,650.25,1.99,-1.07
400.00,2.82,681.75,2.81,0.01,3.95,656.75,4.61,-0.67,1.23,660.25,1.97,-0.74
405.00,3.41,691.75,2.81,0.60,4.25,666.25,4.64,-0.39,1.62,670.25,1.95,-0.33
410.00,4.09,701.25,2.81,1.29,4.77,675.75,4.66,0.10,2.32,679.75,1.93,0.39
415.00,5.24,711.25,2.80,2.44,5.65,685.25,4.69,0.96,3.02,689.75,1.91,1.11
420.00,6.77,721.25,2.80,3.97,6.55,694.25,4.72,1.83,4.60,699.75,1.89,2.71
425.00,8.07,730.75,2.80,5.27,7.77,703.75,4.74,3.02,6.64,709.75,1.87,4.77
430.00,9.72,740.75,2.80,6.92,9.61,713.25,4.77,4.84,10.20,720.25,1.85,8.35
435.00,13.00,750.25,2.80,10.20,12.28,722.75,4.80,7.48,14.49,729.75,1.83,12.66
440.00,17.66,760.25,2.80,14.86,17.84,732.75,4.82,13.02,19.21,740.00,1.81,17.40
445.00,23.93,770.75,2.79,21.13,23.91,742.75,4.85,19.06,26.19,750.25,1.79,24.40
450.00,31.86,780.75,2.79,29.07,31.61,752.25,4.88,26.73,36.44,760.25,1.77,34.67
455.00,44.46,791.25,2.79,41.67,43.63,761.75,4.90,38.73,52.39,770.25,1.75,50.64
460.00,65.56,801.75,2.79,62.77,63.11,771.75,4.93,58.18,80.62,780.25,1.73,78.89
465.00,103.72,811.75,2.79,100.93,101.03,782.25,4.95,96.07,124.63,789.75,1.71,122.92
470.00,156.01,821.75,2.78,153.23,152.31,792.25,4.98,147.33,184.84,799.75,1.69,183.15
475.00,227.94,831.75,2.78,225.16,225.09,802.25,5.01,220.08,269.55,809.25,1.67,267.88
480.00,319.39,841.25,2.78,316.61,325.93,812.75,5.03,320.89,382.03,819.25,1.65,380.38
485.00,441.99,850.75,2.78,439.22,454.19,822.75,5.06,449.13,527.75,829.25,1.63,526.12
490.00,589.27,860.25,2.78,586.49,603.11,833.25,5.09,598.02,666.85,838.75,1.61,665.24
495.00,713.66,869.75,2.78,710.88,731.02,843.25,5.11,725.91,754.26,848.75,1.59,752.67
500.00,719.52,879.75,2.77,716.75,665.78,853.25,5.14,660.64,610.03,858.75,1.57,608.46
505.00,516.89,889.25,2.77,514.12,442.01,862.75,5.17,436.84,343.36,867.75,1.55,341.81
510.00,235.56,898.75,2.77,232.79,194.10,871.75,5.19,188.91,120.27,877.25,1.53,118.74
515.00,65.55,908.75,2.77,62.79,56.10,881.25,5.22,50.88,28.16,886.75,1.51,26.65
520.00,14.28,918.75,2.77,11.52,14.01,890.75,5.25,8.76,5.12,896.25,1.49,3.63
525.00,4.53,928.75,2.76,1.76,5.58,900.25,5.27,0.31,1.01,905.75,1.47,-0.46
530.00,2.67,938.75,2.76,-0.09,4.10,909.75,5.30,-1.20,-0.09,915.75,1.45,-1.55
535.00,1.97,948.75,2.76,-0.80,3.55,919.25,5.32,-1.78,-0.25,925.75,1.43,-1.68
540.00,2.16,958.25,2.76,-0.60,3.39,929.25,5.35,-1.96,-0.65,935.75,1.41,-2.07
545.00,2.15,968.25,2.76,-0.61,3.35,939.25,5.38,-2.03,-0.87,945.75,1.39,-2.26
550.00,1.87,978.25,2.76,-0.88,3.46,949.25,5.40,-1.94,-0.66,955.75,1.37,-2.03
555.00,1.94,987.75,2.75,-0.82,3.30,959.75,5.43,-2.13,-0.81,965.25,1.35,-2.16
560.00,1.68,997.75,2.75,-1.07,3.32,970.25,5.46,-2.14,-1.06,975.25,1.33,-2.40
565.00,1.66,1007.25,2.75,-1.09,3.27,980.75,5.48,-2.21,-0.86,984.75,1.31,-2.17
570.00,1.91,1017.25,2.75,-0.84,3.04,990.75,5.51,-2.47,-1.00,994.25,1.29,-2.29
575.00,1.62,1026.75,2.75,-1.13,3.48,1000.75,5.54,-2.06,-0.94,1003.75,1.27,-2.21
580.00,1.70,1036.75,2.75,-1.04,3.50,1010.75,5.56,-2.06,-1.21,1013.75,1.25,-2.46
585.00,1.59,1046.75,2.74,-1.15,3.10,1020.25,5.59,-2.49,-1.06,1023.75,1.23,-2.29
590.00,1.46,1056.75,2.74,-1.28,3.47,1029.75,5.62,-2.14,-1.22,1033.75,1.21,-2.44
595.00,1.62,1066.25,2.74,-1.12,3.14,1039.75,5.64,-2.50,-1.40,1043.75,1.19,-2.59
600.00,1.43,1076.25,2.74,-1.31,3.20,1049.25,5.67,-2.47,-1.11,1053.75,1.17,-2.28
605.00,1.24,1085.75,2.74,-1.50,3.49,1058.75,5.69,-2.20,-1.16,1063.75,1.15,-2.31
610.00,1.48,1095.25,2.73,-1.26,3.27,1068.25,5.72,-2.45,-1.20,1073.25,1.13,-2.34
615.00,1.71,1105.25,2.73,-1.03,3.53,1078.25,5.75,-2.22,-1.35,1083.25,1.11,-2.46
620.00,1.73,1114.75,2.73,-1.00,3.55,1087.75,5.77,-2.22,-1.17,1092.75,1.09,-2.26
625.00,1.59,1124.75,2.73,-1.14,3.57,1097.25,5.80,-2.23,-0.94,1102.25,1.07,-2.01
630.00,1.44,1134.25,2.73,-1.28,3.76,1107.25,5.83,-2.07,-1.09,1112.25,1.05,-2.14
635.00,1.61,1144.25,2.73,-1.12,3.72,1116.75,5.85,-2.13,-0.97,1121.75,1.03,-2.00
640.00,1.83,1154.25,2.72,-0.89,3.89,1126.25,5.88,-1.99,-0.86,1131.25,1.01,-1.87
645.00,1.70,1163.75,2.72,-1.02,4.32,1136.25,5.91,-1.58,-1.12,1140.75,0.99,-2.11
650.00,1.78,1173.75,2.72,-0.94,4.53,1146.25,5.93,-1.40,-0.91,1150.25,0.97,-1.88
655.00,1.89,1183.25,2.72,-0.82,4.60,1155.75,5.96,-1.36,-0.72,1159.75,0.95,-1.67
660.00,1.81,1193.25,2.72,-0.91,4.29,1165.75,5.99,-1.70,-0.61,1169.75,0.93,-1.54
665.00,2.06,1202.75,2.71,-0.66,4.77,1175.75,6.01,-1.24,-0.54,1179.75,0.91,-1.45
670.00,1.89,1212.75,2.71,-0.83,5.01,1185.75,6.04,-1.03,-0.29,1189.25,0.89,-1.19
675.00,2.22,1222.75,2.71,-0.49,5.28,1195.75,6.06,-0.79,-0.48,1199.75,0.87,-1.35
680.00,2.05,1232.25,2.71,-0.66,5.32,1205.25,6.09,-0.77,0.07,1209.75,0.85,-0.78
685.00,2.30,1242.25,2.71,-0.41,5.72,1215.25,6.12,-0.40,0.45,1219.75,0.83,-0.38
690.00,2.41,1251.75,2.71,-0.30,5.83,1224.75,6.14,-0.32,0.59,1229.75,0.81,-0.22
695.00,2.41,1261.75,2.70,-0.30,5.79,1234.25,6.17,-0.38,0.55,1240.25,0.79,-0.25
700.00,2.70,1271.25,2.70,0.00,6.20,1244.25,6.20,0.00,0.77,1250.25,0.77,0.00