Folder: fsri_materials_database/01_Data/Fiberglas_Insulation3B/MCC

Note: 01_Data/README.md
# Materials and Products Database
## 01_Data

Raw data generated from each apparatus are included here in plain-text format. The data is organized first by material, next by the short name of test apparatus used, and where applicable additional filtering by test settings.

### material.json

Each material directory contains a json file of the same name as the material. This file links the data stored in the repository as well as data and graphs produced by the accompanying scripts (__02_Scripts__) to the respective landing page for the material on the front-end website.

File: Fiberglas_Insulation3B_MCC_30K_min_220221_R1.txt
Sample ID:	C:\MCC\MCC Cal\Test\Fiberglas_Insulation3B_MCC_30K_min_220221_R1.txt
Sample Weight (mg):	4.68
Heating Rate (C/s):	0.5
Combustor Temp (C):	900
N2 Flow Rate (cc/min):	80
O2 Flow Rate (cc/min):	20
Calibration File:	C:\MCC\MCC Cal\Coeff1 JN10440_30_210304.txt.txt
T Correction Coefficients:	0	1.024463	0
Time Shift (s):	14
*
Time (s)	Temperature (C)	N2 flow rate (cc/min)	O2 flow rate (cc/min)	Flow Rate (cc/min)	Oxygen (%)	HRR (W/g)	Heating rate (C/s)
0.000	113.009	80.006	19.993	103.669	19.998	-0.165	-0.018
8.000	113.010	80.011	19.994	103.668	19.997	-0.092	-0.040
16.000	113.015	80.009	19.995	103.680	19.999	-0.235	-0.006
24.000	113.048	80.006	19.993	103.615	19.993	0.158	-0.020
32.000	113.211	80.008	19.994	103.725	19.986	0.689	-0.001
39.999	113.519	80.009	19.993	103.793	19.971	1.721	0.010
47.999	114.276	80.007	19.993	103.825	19.965	2.104	0.130
55.999	115.316	80.008	19.994	103.844	19.965	2.150	0.170
64.001	116.692	80.009	19.994	103.847	19.957	2.646	0.192
71.999	118.386	80.009	19.993	103.866	19.954	2.882	0.208
79.999	120.396	80.008	19.994	103.902	19.949	3.219	0.273
88.000	122.764	80.010	19.993	103.908	19.947	3.395	0.314
95.999	125.405	80.009	19.994	103.913	19.945	3.494	0.351
103.999	128.274	80.008	19.995	103.942	19.943	3.611	0.395
112.000	131.382	80.007	19.995	103.940	19.945	3.480	0.394
119.999	134.782	80.009	19.994	103.932	19.939	3.891	0.433
128.000	138.309	80.008	19.994	103.942	19.940	3.882	0.479
136.000	141.996	80.007	19.993	103.942	19.938	4.004	0.473
144.000	145.863	80.009	19.995	103.940	19.938	3.986	0.508
152.000	149.810	80.009	19.993	103.938	19.946	3.448	0.497
160.000	153.933	80.010	19.992	103.936	19.944	3.544	0.563
168.000	157.989	80.009	19.994	103.916	19.945	3.479	0.533
176.000	162.093	80.010	19.994	103.906	19.945	3.519	0.525
184.000	166.197	80.008	19.995	103.904	19.949	3.260	0.486
192.000	170.275	80.007	19.993	103.901	19.948	3.302	0.506
200.000	174.353	80.008	19.994	103.902	19.949	3.203	0.505
208.000	178.316	80.008	19.995	103.891	19.950	3.165	0.513
216.000	182.394	80.008	19.994	103.878	19.952	3.045	0.498
224.000	186.424	80.008	19.994	103.878	19.953	2.935	0.529
232.000	190.436	80.009	19.994	103.878	19.957	2.664	0.513
240.000	194.389	80.008	19.993	103.878	19.958	2.607	0.509
248.000	198.349	80.010	19.993	103.871	19.956	2.709	0.502
256.000	202.281	80.012	19.993	103.867	19.955	2.800	0.508
264.000	206.227	80.011	19.992	103.864	19.953	2.945	0.503
272.000	210.190	80.008	19.994	103.867	19.954	2.862	0.479
280.000	214.170	80.007	19.992	103.864	19.955	2.834	0.511
288.000	218.080	80.008	19.993	103.866	19.956	2.769	0.478
296.000	222.091	80.008	19.994	103.863	19.956	2.709	0.516
304.000	226.067	80.007	19.994	103.862	19.956	2.717	0.493
312.000	230.099	80.008	19.994	103.858	19.955	2.790	0.487
320.000	234.061	80.010	19.993	103.853	19.955	2.833	0.467
328.000	238.011	80.009	19.992	103.861	19.955	2.833	0.496
336.000	242.011	80.008	19.994	103.864	19.960	2.470	0.515
344.000	245.982	80.010	19.992	103.861	19.956	2.733	0.520
352.000	249.995	80.007	19.993	103.844	19.954	2.903	0.495
360.000	253.987	80.007	19.992	103.856	19.953	2.929	0.462
368.000	258.027	80.008	19.994	103.850	19.947	3.330	0.533
376.000	262.039	80.008	19.993	103.847	19.954	2.901	0.511
384.000	265.986	80.008	19.994	103.835	19.954	2.852	0.498
392.000	269.991	80.007	19.993	103.853	19.951	3.068	0.509
400.000	274.044	80.008	19.994	103.830	19.952	2.995	0.495
408.000	278.105	80.009	19.994	103.825	19.951	3.115	0.506
416.000	282.089	80.010	19.992	103.836	19.950	3.141	0.487
424.000	286.091	80.009	19.994	103.827	19.951	3.091	0.492
432.000	290.078	80.009	19.993	103.834	19.950	3.157	0.485
440.000	294.051	80.008	19.993	103.830	19.950	3.181	0.527
448.000	298.091	80.010	19.993	103.832	19.953	2.957	0.521
456.000	302.083	80.010	19.993	103.827	19.950	3.170	0.509
464.000	306.117	80.008	19.993	103.826	19.950	3.122	0.496
472.000	310.126	80.008	19.995	103.826	19.952	3.041	0.488
480.000	314.230	80.009	19.994	103.825	19.952	3.051	0.520
488.000	318.229	80.008	19.993	103.821	19.947	3.360	0.466
496.000	322.245	80.007	19.994	103.824	19.947	3.375	0.513
504.000	326.250	80.008	19.994	103.820	19.949	3.205	0.512
512.000	330.249	80.010	19.992	103.827	19.946	3.403	0.480
520.000	334.318	80.008	19.993	103.824	19.945	3.499	0.509
528.000	338.335	80.008	19.995	103.813	19.947	3.359	0.515
536.000	342.394	80.009	19.994	103.825	19.946	3.465	0.523
544.000	346.458	80.008	19.994	103.808	19.947	3.345	0.537
552.000	350.491	80.009	19.993	103.819	19.943	3.664	0.495
560.000	354.569	80.008	19.994	103.805	19.944	3.561	0.478
568.000	358.625	80.009	19.993	103.812	19.941	3.759	0.530
576.000	362.670	80.008	19.993	103.803	19.945	3.517	0.495
584.000	366.660	80.009	19.994	103.801	19.942	3.713	0.485
592.000	370.694	80.010	19.995	103.812	19.943	3.623	0.518
600.000	374.700	80.008	19.995	103.803	19.941	3.768	0.514
608.000	378.700	80.010	19.994	103.806	19.939	3.901	0.480
616.000	382.763	80.008	19.993	103.807	19.937	4.082	0.505
624.000	386.725	80.009	19.993	103.794	19.937	4.076	0.441
632.000	390.762	80.010	19.993	103.798	19.940	3.872	0.450
640.000	394.894	80.007	19.993	103.808	19.942	3.686	0.559
648.000	399.025	80.010	19.993	103.804	19.935	4.174	0.490
656.000	403.352	80.009	19.993	103.789	19.932	4.404	0.483
664.000	407.030	80.009	19.994	103.799	19.935	4.171	0.501
672.000	411.101	80.012	19.994	103.786	19.937	4.048	0.506
680.000	415.113	80.009	19.994	103.788	19.932	4.387	0.503
688.000	419.162	80.007	19.995	103.799	19.934	4.285	0.510
696.000	423.204	80.009	19.993	103.792	19.935	4.193	0.490
704.000	427.277	80.009	19.992	103.794	19.930	4.553	0.518
712.000	431.395	80.007	19.992	103.804	19.932	4.405	0.508
720.000	435.551	80.007	19.994	103.789	19.932	4.386	0.526
728.000	439.677	80.012	19.993	103.795	19.930	4.556	0.527
736.000	443.780	80.012	19.993	103.785	19.930	4.531	0.501
744.000	447.872	80.010	19.993	103.785	19.930	4.520	0.489
752.000	451.962	80.010	19.993	103.788	19.932	4.367	0.510
760.000	455.972	80.011	19.993	103.787	19.934	4.268	0.489
768.000	460.069	80.007	19.993	103.787	19.933	4.305	0.509
776.000	464.173	80.009	19.993	103.788	19.932	4.371	0.493
784.000	468.252	80.008	19.994	103.784	19.937	4.051	0.519
792.000	472.434	80.008	19.994	103.782	19.939	3.893	0.518
800.000	476.694	80.008	19.993	103.785	19.939	3.897	0.536
808.000	480.899	80.009	19.993	103.784	19.941	3.750	0.536
816.000	485.078	80.011	19.992	103.783	19.945	3.499	0.519
824.000	489.228	80.009	19.993	103.783	19.945	3.473	0.526
832.000	493.422	80.009	19.992	103.788	19.946	3.409	0.544
840.000	497.571	80.011	19.994	103.782	19.951	3.102	0.512
848.000	501.708	80.008	19.992	103.782	19.946	3.432	0.518
856.000	505.784	80.008	19.993	103.782	19.949	3.200	0.494
864.000	509.776	80.010	19.992	103.786	19.951	3.074	0.513
872.000	513.750	80.009	19.993	103.774	19.950	3.168	0.497
880.000	517.817	80.008	19.994	103.767	19.950	3.123	0.500
888.000	521.795	80.007	19.994	103.786	19.948	3.268	0.510
896.000	525.918	80.010	19.993	103.780	19.950	3.150	0.516
904.000	530.007	80.009	19.992	103.778	19.945	3.528	0.504
912.000	534.144	80.010	19.994	103.785	19.948	3.300	0.469
920.000	538.322	80.011	19.993	103.773	19.950	3.148	0.482
928.000	542.501	80.011	19.993	103.781	19.948	3.279	0.534
936.000	546.595	80.007	19.992	103.768	19.949	3.247	0.468
944.000	550.731	80.008	19.992	103.768	19.950	3.162	0.509
952.000	554.931	80.009	19.994	103.767	19.950	3.181	0.517
960.000	559.076	80.009	19.996	103.769	19.949	3.218	0.521
968.000	563.146	80.006	19.993	103.781	19.950	3.157	0.502
976.000	567.221	80.009	19.994	103.776	19.950	3.166	0.502
984.000	571.224	80.009	19.993	103.767	19.948	3.311	0.494
992.000	575.335	80.011	19.993	103.775	19.950	3.128	0.523
1000.000	579.383	80.011	19.994	103.773	19.951	3.054	0.514
1008.000	583.448	80.012	19.993	103.760	19.948	3.303	0.526
1016.000	587.501	80.009	19.993	103.769	19.950	3.121	0.507
1024.000	591.552	80.009	19.993	103.763	19.949	3.228	0.494
1031.999	595.709	80.010	19.993	103.786	19.946	3.405	0.517
1039.999	599.836	80.010	19.991	103.785	19.950	3.164	0.549
1048.000	603.974	80.008	19.994	103.777	19.947	3.337	0.545
1056.000	608.175	80.010	19.994	103.767	19.948	3.301	0.534
1063.999	612.388	80.011	19.992	103.763	19.945	3.514	0.552
1072.000	616.466	80.008	19.996	103.752	19.945	3.467	0.503
1079.999	620.624	80.011	19.996	103.759	19.948	3.271	0.520
1087.999	624.736	80.011	19.995	103.765	19.948	3.303	0.527
1096.000	628.858	80.010	19.994	103.755	19.948	3.260	0.505
1104.000	632.880	80.008	19.993	103.762	19.945	3.519	0.507
1112.000	636.930	80.009	19.993	103.749	19.950	3.179	0.500
1119.999	640.981	80.009	19.993	103.756	19.949	3.226	0.509
1127.999	644.983	80.009	19.992	103.771	19.951	3.077	0.509
1135.999	649.065	80.008	19.993	103.760	19.948	3.306	0.503
1143.999	653.164	80.010	19.993	103.753	19.952	3.049	0.507
1152.000	657.278	80.010	19.994	103.745	19.952	3.006	0.517
1159.999	661.329	80.009	19.993	103.752	19.951	3.111	0.502
1167.999	665.384	80.010	19.993	103.761	19.946	3.444	0.500
1175.999	669.468	80.010	19.993	103.757	19.949	3.239	0.527
1183.999	673.527	80.008	19.995	103.751	19.950	3.137	0.531
1191.999	677.729	80.008	19.994	103.772	19.951	3.079	0.541
1199.999	681.797	80.011	19.994	103.756	19.951	3.073	0.517
1207.999	685.880	80.011	19.993	103.748	19.947	3.361	0.543
1215.999	689.906	80.009	19.994	103.751	19.953	2.980	0.491
1223.999	693.897	80.010	19.993	103.751	19.951	3.096	0.503
1231.999	697.972	80.011	19.991	103.758	19.948	3.293	0.494
1239.999	701.996	80.009	19.994	103.754	19.949	3.207	0.498
1247.999	705.978	80.011	19.994	103.750	19.949	3.226	0.500
1255.999	710.001	80.011	19.993	103.747	19.944	3.557	0.524
1263.999	714.015	80.010	19.993	103.751	19.947	3.395	0.484
1271.999	718.107	80.010	19.994	103.753	19.946	3.427	0.507
1279.999	722.173	80.009	19.995	103.766	19.944	3.593	0.513
1287.999	726.200	80.009	19.992	103.762	19.947	3.372	0.509
1295.999	730.211	80.009	19.992	103.761	19.944	3.570	0.498
1304.000	734.141	80.008	19.994	103.753	19.943	3.621	0.493
1311.999	738.130	80.010	19.993	103.749	19.950	3.139	0.487
1319.999	742.274	80.010	19.994	103.748	19.942	3.706	0.513
1325.499	745.098	80.011	19.993	103.750	19.945	3.502	0.489

File: Fiberglas_Insulation3B_MCC_30K_min_220222_R2.txt
Sample ID:	C:\MCC\MCC Cal\Test\Fiberglas_Insulation3B_MCC_30K_min_220222_R2.txt
Sample Weight (mg):	4.91
Heating Rate (C/s):	0.5
Combustor Temp (C):	900
N2 Flow Rate (cc/min):	80
O2 Flow Rate (cc/min):	20
Calibration File:	C:\MCC\MCC Cal\Coeff1 JN10440_30_210304.txt.txt
T Correction Coefficients:	0	1.024463	0
Time Shift (s):	14
*
Time (s)	Temperature (C)	N2 flow rate (cc/min)	O2 flow rate (cc/min)	Flow Rate (cc/min)	Oxygen (%)	HRR (W/g)	Heating rate (C/s)
0.000	116.250	80.003	19.994	103.645	20.021	0.125	-0.013
7.500	116.229	80.004	19.995	103.665	20.021	0.102	-0.042
15.000	116.228	80.002	19.994	103.667	20.015	0.514	-0.011
22.500	116.272	80.003	19.995	103.685	20.023	-0.007	0.006
30.000	116.349	80.005	19.994	103.735	20.006	1.111	0.026
37.500	116.777	80.002	19.996	103.839	19.988	2.319	0.070
45.000	117.632	80.001	19.994	103.883	19.982	2.677	0.137
52.500	118.917	80.000	19.992	103.884	19.977	2.997	0.165
60.001	120.638	80.003	19.996	103.883	19.976	3.051	0.229
67.500	122.736	80.002	19.994	103.887	19.974	3.201	0.282
75.000	125.092	80.003	19.994	103.903	19.971	3.435	0.296
82.501	127.669	80.004	19.994	103.896	19.968	3.620	0.345
90.000	130.383	80.003	19.994	103.883	19.965	3.831	0.374
97.500	133.220	80.002	19.995	103.914	19.969	3.571	0.379
105.000	136.268	80.003	19.994	103.918	19.966	3.742	0.438
112.500	139.482	80.003	19.995	103.919	19.966	3.737	0.406
120.000	142.891	80.002	19.995	103.923	19.972	3.352	0.453
127.501	146.378	80.002	19.994	103.905	19.968	3.600	0.471
135.000	149.953	80.001	19.995	103.915	19.971	3.425	0.482
142.500	153.540	80.003	19.993	103.907	19.970	3.446	0.479
150.000	157.202	80.003	19.993	103.909	19.967	3.656	0.492
157.500	160.861	80.002	19.994	103.901	19.970	3.475	0.517
165.000	164.573	80.004	19.996	103.895	19.967	3.670	0.504
172.500	168.402	80.003	19.993	103.886	19.969	3.517	0.513
180.000	172.115	80.004	19.995	103.890	19.971	3.424	0.481
187.500	175.936	80.004	19.994	103.882	19.971	3.389	0.491
195.000	179.692	80.004	19.994	103.883	19.973	3.289	0.454
202.500	183.421	80.001	19.994	103.878	19.975	3.147	0.474
210.000	187.281	80.003	19.993	103.879	19.973	3.267	0.513
217.500	191.031	80.002	19.996	103.876	19.972	3.320	0.482
225.000	194.762	80.003	19.995	103.874	19.975	3.179	0.514
232.500	198.463	80.002	19.995	103.870	19.973	3.276	0.538
240.000	202.111	80.003	19.994	103.869	19.980	2.800	0.514
247.500	205.847	80.003	19.993	103.866	19.976	3.061	0.513
255.000	209.571	80.005	19.994	103.848	19.979	2.888	0.513
262.500	213.203	80.004	19.993	103.870	19.980	2.799	0.503
270.000	216.919	80.006	19.994	103.860	19.978	2.977	0.504
277.500	220.600	80.003	19.996	103.851	19.980	2.820	0.509
285.000	224.307	80.001	19.996	103.852	19.979	2.898	0.496
292.500	227.991	80.001	19.994	103.843	19.975	3.134	0.489
300.000	231.791	80.003	19.995	103.847	19.975	3.164	0.513
307.500	235.488	80.000	19.994	103.852	19.981	2.762	0.487
315.000	239.201	80.001	19.995	103.842	19.978	2.935	0.507
322.500	242.902	80.004	19.993	103.839	19.979	2.867	0.475
330.000	246.638	80.002	19.994	103.840	19.979	2.915	0.484
337.500	250.390	80.003	19.994	103.839	19.983	2.630	0.534
345.000	254.123	80.004	19.994	103.832	19.981	2.765	0.484
352.500	257.829	80.005	19.994	103.838	19.982	2.700	0.504
360.000	261.524	80.001	19.994	103.840	19.981	2.760	0.496
367.500	265.268	80.002	19.996	103.845	19.982	2.663	0.483
375.000	269.000	80.001	19.994	103.841	19.982	2.698	0.511
382.500	272.745	80.002	19.994	103.834	19.984	2.531	0.498
390.000	276.463	80.002	19.995	103.837	19.982	2.654	0.487
397.500	280.237	80.001	19.996	103.830	19.982	2.667	0.507
405.000	283.972	80.003	19.996	103.836	19.983	2.601	0.453
412.500	287.733	80.004	19.994	103.828	19.982	2.661	0.511
420.000	291.559	80.004	19.994	103.829	19.988	2.279	0.509
427.500	295.364	80.003	19.995	103.831	19.983	2.590	0.528
435.000	299.100	80.002	19.993	103.814	19.980	2.827	0.496
442.500	302.907	80.001	19.994	103.831	19.982	2.714	0.523
450.000	306.628	80.003	19.995	103.820	19.982	2.686	0.470
457.500	310.479	80.003	19.995	103.821	19.982	2.659	0.475
465.000	314.302	80.002	19.996	103.803	19.980	2.824	0.523
472.500	318.120	80.001	19.996	103.802	19.981	2.744	0.556
480.000	321.878	80.003	19.994	103.818	19.983	2.644	0.514
487.500	325.640	80.002	19.994	103.807	19.982	2.681	0.490
495.000	329.441	80.002	19.995	103.813	19.984	2.537	0.505
502.500	333.221	80.002	19.994	103.804	19.981	2.721	0.494
510.000	337.058	80.005	19.994	103.805	19.983	2.593	0.561
517.500	340.787	80.002	19.993	103.802	19.981	2.728	0.511
525.000	344.533	80.001	19.995	103.801	19.979	2.859	0.516
532.500	348.278	80.002	19.993	103.804	19.978	2.957	0.513
540.000	352.105	80.003	19.996	103.809	19.977	2.985	0.481
547.500	355.991	80.001	19.993	103.803	19.974	3.234	0.523
555.000	359.762	80.001	19.994	103.805	19.980	2.788	0.494
562.500	363.571	80.003	19.995	103.803	19.978	2.968	0.524
570.000	367.360	80.004	19.995	103.803	19.983	2.586	0.517
577.500	371.143	80.001	19.994	103.799	19.978	2.935	0.475
585.000	375.010	80.003	19.994	103.798	19.978	2.974	0.527
592.500	378.797	80.005	19.994	103.797	19.976	3.072	0.495
600.000	382.659	80.001	19.993	103.797	19.977	3.025	0.495
607.500	386.570	80.003	19.994	103.800	19.977	3.041	0.500
615.000	390.433	80.002	19.994	103.803	19.976	3.107	0.501
622.500	394.339	80.001	19.993	103.802	19.979	2.902	0.529
630.000	398.135	80.001	19.994	103.800	19.976	3.048	0.519
637.500	401.981	80.002	19.993	103.790	19.975	3.146	0.483
645.000	405.772	80.003	19.996	103.786	19.977	3.006	0.483
652.500	409.564	80.003	19.995	103.794	19.975	3.140	0.503
660.000	413.321	80.004	19.995	103.795	19.975	3.121	0.494
667.500	417.081	80.005	19.995	103.797	19.975	3.171	0.523
675.000	420.898	80.004	19.994	103.798	19.974	3.198	0.541
682.500	424.618	80.002	19.994	103.764	19.978	2.959	0.462
690.000	428.472	80.001	19.994	103.778	19.973	3.281	0.538
697.500	432.251	80.003	19.993	103.793	19.972	3.343	0.490
705.000	436.057	80.004	19.994	103.782	19.971	3.381	0.497
712.500	439.865	80.002	19.994	103.798	19.975	3.165	0.517
720.000	443.628	80.004	19.994	103.796	19.975	3.139	0.457
727.501	447.460	80.004	19.994	103.794	19.976	3.088	0.475
735.000	451.288	80.005	19.995	103.777	19.976	3.082	0.505
742.500	455.115	80.003	19.995	103.780	19.970	3.482	0.505
750.000	458.970	80.005	19.994	103.766	19.978	2.931	0.511
757.500	462.761	80.001	19.994	103.771	19.982	2.714	0.504
765.000	466.508	79.999	19.995	103.778	19.978	2.938	0.484
772.500	470.341	80.002	19.995	103.770	19.974	3.180	0.503
780.000	474.195	80.003	19.995	103.773	19.980	2.800	0.515
787.500	477.975	80.003	19.994	103.762	19.980	2.814	0.486
795.000	481.748	80.004	19.996	103.768	19.984	2.545	0.516
802.500	485.477	80.002	19.996	103.766	19.980	2.800	0.483
810.000	489.247	80.004	19.994	103.771	19.985	2.462	0.517
817.500	493.001	80.004	19.994	103.768	19.989	2.242	0.518
825.000	496.839	80.003	19.994	103.778	19.987	2.329	0.496
832.500	500.676	80.003	19.994	103.719	19.986	2.451	0.538
840.000	504.432	80.001	19.996	103.773	19.991	2.107	0.508
847.500	508.307	80.003	19.995	103.766	19.995	1.857	0.548
855.000	512.168	80.001	19.995	103.769	19.988	2.296	0.500
862.500	516.042	80.001	19.995	103.762	19.983	2.598	0.531
870.000	519.868	80.002	19.994	103.765	19.993	1.972	0.538
877.500	523.744	80.002	19.995	103.767	19.994	1.890	0.496
885.000	527.567	80.004	19.994	103.771	19.995	1.843	0.484
892.500	531.466	80.004	19.996	103.772	19.991	2.059	0.534
900.000	535.379	80.003	19.993	103.767	19.994	1.919	0.552
907.500	539.324	80.006	19.994	103.755	19.994	1.866	0.548
915.000	543.153	80.005	19.994	103.762	19.992	2.025	0.507
922.500	547.020	80.001	19.995	103.762	19.998	1.610	0.517
930.000	550.869	80.001	19.994	103.762	19.995	1.839	0.523
937.500	554.730	80.002	19.994	103.763	19.997	1.723	0.536
945.000	558.531	80.001	19.993	103.764	19.994	1.872	0.526
952.500	562.391	80.001	19.995	103.763	19.994	1.868	0.523
960.000	566.196	80.002	19.996	103.761	19.996	1.786	0.535
967.500	570.062	80.003	19.994	103.760	19.991	2.094	0.512
975.000	573.935	80.003	19.994	103.763	19.992	2.041	0.539
982.500	577.816	80.003	19.995	103.761	19.990	2.134	0.524
990.000	581.590	80.006	19.994	103.761	19.990	2.148	0.501
997.500	585.466	80.004	19.995	103.764	19.993	1.987	0.499
1005.000	589.320	80.002	19.994	103.752	19.989	2.212	0.525
1012.500	593.157	80.001	19.994	103.790	19.993	1.954	0.512
1020.000	597.110	80.003	19.995	103.764	19.991	2.088	0.536
1027.500	600.950	80.001	19.995	103.760	19.991	2.061	0.516
1035.000	604.832	80.003	19.996	103.745	19.993	1.936	0.538
1042.500	608.794	80.000	19.995	103.773	19.995	1.834	0.555
1050.001	612.806	80.003	19.995	103.764	19.994	1.859	0.553
1057.501	616.979	80.002	19.995	103.764	19.994	1.912	0.562
1065.000	621.129	80.004	19.993	103.758	19.995	1.797	0.543
1072.500	625.318	80.006	19.993	103.754	19.996	1.768	0.568
1080.000	629.419	80.002	19.993	103.763	19.996	1.788	0.548
1087.500	633.585	80.002	19.994	103.758	19.996	1.728	0.578
1095.001	637.649	80.002	19.994	103.757	19.997	1.693	0.539
1102.500	641.677	80.002	19.993	103.756	20.000	1.522	0.529
1110.000	645.614	80.002	19.995	103.742	19.998	1.608	0.531
1117.501	649.584	80.002	19.994	103.753	19.999	1.532	0.523
1125.001	653.497	80.003	19.995	103.761	20.000	1.466	0.511
1132.500	657.443	80.002	19.994	103.748	19.997	1.690	0.525
1140.000	661.271	80.002	19.995	103.740	20.000	1.528	0.516
1147.500	664.982	80.004	19.994	103.751	20.001	1.432	0.447
1155.000	668.777	80.004	19.994	103.752	20.003	1.266	0.506
1162.500	672.467	80.001	19.994	103.749	20.006	1.129	0.505
1170.000	676.209	80.002	19.995	103.728	20.004	1.204	0.497
1177.501	679.912	80.002	19.993	103.751	20.003	1.317	0.481
1185.001	683.572	80.001	19.993	103.746	20.003	1.326	0.499
1192.500	687.155	80.001	19.994	103.729	20.001	1.455	0.424
1200.000	690.898	80.001	19.995	103.749	20.005	1.180	0.481
1207.500	694.605	80.004	19.994	103.755	20.001	1.410	0.487
1215.000	698.384	80.003	19.994	103.738	20.002	1.361	0.481
1222.500	702.208	80.003	19.994	103.758	20.005	1.186	0.519
1230.000	705.894	80.004	19.994	103.735	20.002	1.366	0.483
1237.501	709.701	80.005	19.994	103.740	20.002	1.346	0.450
1245.000	713.525	80.001	19.994	103.742	20.003	1.306	0.503
1252.500	717.458	80.003	19.993	103.739	20.004	1.240	0.546
1260.001	721.412	80.002	19.993	103.748	20.004	1.204	0.527
1267.500	725.367	80.002	19.994	103.747	20.003	1.311	0.536
1275.001	729.269	80.001	19.993	103.745	20.002	1.357	0.509
1282.500	733.063	80.002	19.993	103.758	20.002	1.372	0.471
1290.000	736.828	80.003	19.994	103.755	20.002	1.353	0.523
1297.500	740.561	80.003	19.995	103.758	20.006	1.104	0.513
1303.500	743.600	80.002	19.994	103.752	20.003	1.304	0.531