Folder: fsri_materials_database/01_Data/Fiberglas_Insulation3B/MCC (part 2)

File: Fiberglas_Insulation3B_MCC_30K_min_220222_R3.txt
Sample ID:	C:\MCC\MCC Cal\Test\Fiberglas_Insulation3B_MCC_30K_min_220222_R3.txt
Sample Weight (mg):	4.91
Heating Rate (C/s):	0.5
Combustor Temp (C):	900
N2 Flow Rate (cc/min):	80
O2 Flow Rate (cc/min):	20
Calibration File:	C:\MCC\MCC Cal\Coeff1 JN10440_30_210304.txt.txt
T Correction Coefficients:	0	1.024463	0
Time Shift (s):	14
*
Time (s)	Temperature (C)	N2 flow rate (cc/min)	O2 flow rate (cc/min)	Flow Rate (cc/min)	Oxygen (%)	HRR (W/g)	Heating rate (C/s)
0.000	113.289	80.003	19.993	103.634	20.017	-0.183	-0.025
8.000	113.281	80.000	19.994	103.621	20.010	0.282	0.042
15.999	113.234	80.001	19.994	103.653	20.010	0.265	-0.006
24.000	113.254	80.001	19.993	103.624	20.012	0.173	0.023
32.000	113.216	80.001	19.996	103.650	20.008	0.418	0.042
39.999	113.299	80.001	19.994	103.683	20.002	0.844	0.014
47.999	113.587	80.001	19.993	103.799	19.987	1.831	0.053
55.999	114.230	80.000	19.995	103.834	19.981	2.186	0.118
63.999	115.265	80.001	19.994	103.810	19.977	2.457	0.164
72.001	116.685	80.001	19.994	103.845	19.972	2.823	0.195
80.000	118.453	80.002	19.994	103.861	19.970	2.914	0.258
88.001	120.662	80.001	19.994	103.880	19.970	2.942	0.302
95.999	123.120	80.000	19.994	103.886	19.961	3.539	0.315
103.999	125.925	80.001	19.993	103.913	19.959	3.633	0.312
111.999	128.935	80.001	19.993	103.939	19.963	3.408	0.378
119.999	132.251	80.001	19.994	103.905	19.957	3.799	0.444
128.000	135.787	79.999	19.993	103.920	19.956	3.870	0.425
136.000	139.409	80.002	19.994	103.920	19.952	4.108	0.459
144.000	143.258	80.003	19.993	103.920	19.956	3.853	0.444
152.000	147.126	80.001	19.995	103.919	19.960	3.607	0.453
160.000	151.145	80.002	19.993	103.905	19.956	3.865	0.450
168.000	155.247	80.000	19.994	103.896	19.958	3.694	0.523
176.000	159.292	80.000	19.995	103.899	19.960	3.579	0.482
184.000	163.316	80.000	19.994	103.869	19.961	3.552	0.478
192.000	167.400	80.001	19.994	103.879	19.963	3.384	0.525
200.000	171.456	80.001	19.994	103.877	19.968	3.070	0.491
208.000	175.571	80.001	19.993	103.871	19.966	3.220	0.509
216.000	179.526	80.001	19.993	103.862	19.964	3.321	0.510
224.000	183.531	80.001	19.993	103.862	19.965	3.243	0.463
232.000	187.552	80.002	19.993	103.869	19.966	3.177	0.470
240.000	191.488	80.002	19.994	103.853	19.966	3.170	0.505
248.000	195.425	80.003	19.994	103.850	19.971	2.860	0.472
256.000	199.367	80.000	19.994	103.845	19.966	3.199	0.524
264.000	203.253	79.999	19.995	103.856	19.966	3.170	0.477
272.000	207.245	80.000	19.997	103.847	19.965	3.282	0.510
280.000	211.228	80.002	19.993	103.851	19.967	3.131	0.475
288.000	215.084	79.999	19.993	103.848	19.966	3.210	0.482
296.000	219.120	80.002	19.993	103.844	19.964	3.299	0.550
304.000	223.072	80.001	19.994	103.844	19.963	3.386	0.509
312.000	227.093	80.001	19.994	103.848	19.967	3.115	0.512
320.000	231.054	80.002	19.994	103.837	19.967	3.111	0.516
328.000	235.079	80.002	19.993	103.811	19.967	3.117	0.465
336.000	239.005	79.999	19.996	103.837	19.968	3.067	0.486
344.000	242.977	80.000	19.995	103.830	19.965	3.262	0.574
352.000	246.871	80.001	19.994	103.841	19.968	3.039	0.467
360.000	250.847	79.999	19.996	103.818	19.967	3.126	0.490
368.000	254.820	80.002	19.993	103.836	19.968	3.063	0.540
376.000	258.846	80.001	19.994	103.845	19.963	3.397	0.544
384.000	262.735	80.001	19.993	103.820	19.963	3.383	0.502
392.000	266.771	80.001	19.994	103.817	19.966	3.203	0.499
400.000	270.817	80.004	19.994	103.829	19.964	3.301	0.543
408.000	274.831	80.003	19.993	103.807	19.963	3.424	0.498
416.000	278.954	80.000	19.993	103.831	19.965	3.251	0.523
424.000	283.021	80.001	19.994	103.818	19.967	3.158	0.459
432.000	287.032	80.002	19.993	103.837	19.966	3.214	0.514
440.000	291.040	80.002	19.994	103.808	19.964	3.303	0.498
448.000	295.098	80.000	19.995	103.805	19.969	2.991	0.493
456.000	299.118	80.000	19.995	103.787	19.959	3.669	0.516
464.000	303.146	80.003	19.995	103.843	19.966	3.199	0.479
472.000	307.177	80.001	19.994	103.805	19.962	3.475	0.514
480.000	311.247	80.000	19.994	103.820	19.966	3.172	0.513
488.000	315.324	80.001	19.995	103.806	19.965	3.265	0.513
496.000	319.373	79.997	19.995	103.802	19.964	3.318	0.514
504.000	323.410	80.002	19.992	103.811	19.961	3.531	0.493
512.000	327.503	80.002	19.995	103.957	19.964	3.319	0.510
520.000	331.518	80.000	19.993	103.801	19.958	3.694	0.518
528.000	335.662	80.001	19.994	103.794	19.959	3.662	0.544
536.000	339.672	80.002	19.994	103.802	19.959	3.682	0.521
544.000	343.741	80.001	19.995	103.800	19.961	3.535	0.493
552.000	347.795	80.001	19.994	103.793	19.956	3.873	0.520
560.000	351.881	80.001	19.993	103.793	19.957	3.802	0.527
568.000	355.926	80.005	19.993	103.804	19.957	3.803	0.478
576.000	359.935	80.001	19.995	103.801	19.957	3.813	0.513
584.000	363.858	80.001	19.994	103.802	19.952	4.107	0.513
592.000	367.836	80.003	19.993	103.804	19.953	4.075	0.480
600.000	371.792	80.002	19.993	103.799	19.950	4.251	0.456
608.000	375.849	80.000	19.994	103.801	19.952	4.086	0.499
616.000	379.826	80.001	19.994	103.773	19.956	3.833	0.498
624.000	383.891	80.003	19.994	103.743	19.954	3.977	0.464
632.000	387.924	80.001	19.995	103.723	19.953	4.038	0.540
640.000	391.978	80.001	19.995	103.783	19.955	3.921	0.493
648.000	396.044	80.004	19.995	103.766	19.961	3.522	0.516
656.000	400.127	80.003	19.994	103.771	19.956	3.833	0.484
664.000	404.187	80.001	19.994	103.784	19.956	3.851	0.483
672.000	408.240	80.002	19.994	103.797	19.957	3.780	0.497
680.000	412.294	80.002	19.994	103.803	19.955	3.888	0.483
688.000	416.318	80.001	19.993	103.784	19.953	4.065	0.496
696.000	420.420	80.000	19.994	103.757	19.950	4.258	0.528
704.000	424.450	80.001	19.994	103.787	19.950	4.266	0.548
712.000	428.541	80.002	19.995	103.770	19.947	4.467	0.489
720.000	432.598	80.002	19.996	103.786	19.953	4.043	0.519
728.000	436.678	80.002	19.995	103.786	19.956	3.868	0.504
736.000	440.749	80.002	19.994	103.764	19.953	4.053	0.528
744.000	444.789	80.000	19.994	103.767	19.953	4.021	0.506
752.000	448.828	80.000	19.995	103.796	19.952	4.085	0.495
760.000	452.786	80.001	19.995	103.810	19.953	4.038	0.493
768.000	456.798	80.000	19.995	103.761	19.952	4.094	0.466
776.000	460.901	80.001	19.994	103.773	19.954	3.958	0.488
784.000	464.923	80.002	19.995	103.790	19.959	3.640	0.509
792.000	469.073	80.001	19.996	103.744	19.957	3.786	0.542
800.000	473.221	80.002	19.995	103.774	19.958	3.693	0.544
808.000	477.409	80.001	19.994	103.766	19.960	3.584	0.559
816.000	481.602	80.003	19.995	103.795	19.964	3.333	0.515
824.000	485.748	80.000	19.995	103.773	19.966	3.202	0.550
832.000	489.941	79.999	19.995	103.761	19.967	3.145	0.537
840.000	494.210	80.001	19.994	103.763	19.965	3.236	0.557
848.000	498.459	80.001	19.994	103.763	19.968	3.068	0.522
856.000	502.739	80.001	19.994	103.783	19.969	3.029	0.551
864.000	506.950	80.001	19.995	103.773	19.966	3.222	0.548
872.000	511.120	80.002	19.996	103.773	19.970	2.959	0.496
880.000	515.350	80.002	19.993	103.783	19.970	2.926	0.534
888.000	519.573	80.003	19.995	103.752	19.971	2.884	0.514
896.000	523.723	80.004	19.994	103.729	19.969	2.985	0.514
904.000	527.948	80.000	19.995	103.791	19.970	2.916	0.538
912.000	531.996	79.999	19.993	103.740	19.968	3.031	0.502
920.000	536.038	80.000	19.995	103.766	19.969	2.982	0.467
928.000	540.134	80.002	19.995	103.734	19.971	2.860	0.518
936.000	544.079	80.001	19.994	103.768	19.972	2.801	0.509
944.000	548.002	80.002	19.994	103.767	19.972	2.781	0.446
952.000	551.912	80.003	19.995	103.738	19.969	2.998	0.494
960.000	555.908	80.003	19.993	103.793	19.968	3.074	0.521
968.000	559.864	80.003	19.994	103.770	19.968	3.083	0.511
976.000	563.849	80.005	19.994	103.737	19.967	3.148	0.483
984.000	567.871	80.001	19.995	103.768	19.968	3.040	0.493
992.000	572.054	80.000	19.994	103.775	19.970	2.916	0.557
1000.000	576.351	80.001	19.995	103.723	19.966	3.167	0.552
1008.000	580.568	80.000	19.994	103.787	19.970	2.932	0.518
1016.000	584.843	79.999	19.995	103.768	19.971	2.891	0.559
1024.000	589.073	80.000	19.994	103.726	19.975	2.587	0.541
1032.000	593.295	80.003	19.994	103.732	19.965	3.274	0.548
1039.999	597.509	80.001	19.994	103.746	19.971	2.891	0.542
1047.999	601.695	80.002	19.993	103.769	19.971	2.880	0.530
1056.000	605.771	80.006	19.994	103.726	19.970	2.930	0.496
1063.999	609.859	80.004	19.993	103.761	19.976	2.566	0.527
1071.999	613.938	80.001	19.994	103.732	19.965	3.273	0.510
1079.999	617.991	80.002	19.995	103.772	19.967	3.159	0.494
1087.999	621.987	80.000	19.994	103.724	19.967	3.109	0.502
1096.000	626.045	80.002	19.994	103.718	19.965	3.244	0.525
1103.999	630.051	80.001	19.995	103.744	19.968	3.082	0.490
1111.999	634.095	80.002	19.995	103.766	19.970	2.933	0.510
1119.999	638.170	80.003	19.994	103.763	19.966	3.224	0.478
1128.000	642.331	80.002	19.994	103.760	19.967	3.122	0.520
1135.999	646.414	80.002	19.993	103.767	19.963	3.412	0.526
1144.000	650.566	80.001	19.993	103.764	19.963	3.413	0.522
1151.999	654.718	80.001	19.993	103.760	19.960	3.579	0.518
1160.000	658.951	80.000	19.993	103.755	19.959	3.631	0.517
1168.000	663.159	80.003	19.996	103.739	19.959	3.643	0.523
1175.999	667.345	80.001	19.995	103.757	19.961	3.525	0.513
1183.999	671.520	80.000	19.994	103.744	19.962	3.482	0.527
1192.000	675.728	80.003	19.994	103.754	19.961	3.540	0.543
1199.999	679.788	80.001	19.995	103.757	19.957	3.765	0.493
1208.000	683.950	80.003	19.994	103.766	19.959	3.665	0.482
1215.999	688.031	80.004	19.993	103.725	19.959	3.645	0.534
1223.999	692.000	80.003	19.994	103.755	19.962	3.452	0.520
1231.999	696.000	80.001	19.995	103.753	19.961	3.510	0.485
1239.999	699.889	80.001	19.994	103.734	19.961	3.513	0.468
1247.999	703.645	80.004	19.994	103.740	19.955	3.921	0.482
1255.999	707.314	80.001	19.994	103.764	19.960	3.609	0.453
1263.999	711.161	80.001	19.993	103.765	19.956	3.849	0.497
1271.999	715.091	80.001	19.995	103.748	19.951	4.155	0.501
1279.999	719.111	80.003	19.993	103.764	19.961	3.518	0.486
1287.999	723.203	80.002	19.995	103.753	19.953	4.051	0.538
1295.999	727.443	80.004	19.993	103.755	19.953	4.044	0.559
1303.999	731.448	80.004	19.994	103.760	19.951	4.173	0.539
1311.999	735.559	80.001	19.993	103.754	19.951	4.153	0.533
1320.000	739.655	80.003	19.994	103.764	19.957	3.761	0.517
1327.500	743.521	80.002	19.994	103.760	19.951	4.176	0.543