Folder: fsri_materials_database/01_Data/Vinyl_Chair_Vinyl_Covering/MCC

Note: 01_Data/README.md
# Materials and Products Database
## 01_Data

Raw data generated from each apparatus are included here in plain-text format. The data is organized first by material, next by the short name of test apparatus used, and where applicable additional filtering by test settings.

### material.json

Each material directory contains a json file of the same name as the material. This file links the data stored in the repository as well as data and graphs produced by the accompanying scripts (__02_Scripts__) to the respective landing page for the material on the front-end website.

File: Vinyl_Chair_Vinyl_Covering_MCC_30K_min_220302_R2.txt
Sample ID:	C:\MCC\MCC Cal\Test\Vinyl_Covering_81A_MCC_30K_min_220302_R2.txt
Sample Weight (mg):	4.79
Heating Rate (C/s):	0.5
Combustor Temp (C):	900
N2 Flow Rate (cc/min):	80
O2 Flow Rate (cc/min):	20
Calibration File:	C:\MCC\MCC Cal\Coeff1 JN10440_30_210304.txt.txt
T Correction Coefficients:	0	1.024463	0
Time Shift (s):	14
*
Time (s)	Temperature (C)	N2 flow rate (cc/min)	O2 flow rate (cc/min)	Flow Rate (cc/min)	Oxygen (%)	HRR (W/g)	Heating rate (C/s)
0.000	115.783	80.008	19.992	103.742	19.968	-0.127	0.022
7.500	115.832	80.007	19.994	103.721	19.963	0.178	0.013
15.000	115.859	80.008	19.992	103.809	19.952	0.903	0.023
22.500	116.229	80.009	19.993	103.917	19.935	2.081	0.117
30.000	117.165	80.007	19.993	103.943	19.927	2.609	0.138
37.500	118.583	80.009	19.994	103.979	19.917	3.295	0.204
45.000	120.433	80.009	19.994	103.983	19.911	3.728	0.291
52.500	122.512	80.009	19.995	103.973	19.913	3.598	0.318
60.000	124.995	80.006	19.994	103.982	19.909	3.835	0.317
67.501	127.793	80.008	19.995	103.982	19.909	3.825	0.394
75.001	130.720	80.008	19.993	103.982	19.912	3.635	0.379
82.500	133.853	80.008	19.992	103.980	19.905	4.128	0.436
90.000	137.175	80.007	19.994	103.979	19.905	4.145	0.453
97.500	140.594	80.008	19.995	103.985	19.901	4.377	0.481
105.000	144.143	80.009	19.992	103.976	19.895	4.789	0.466
112.500	147.792	80.009	19.992	103.979	19.892	5.014	0.483
120.000	151.538	80.007	19.992	103.974	19.886	5.372	0.487
127.500	155.168	80.008	19.993	103.959	19.876	6.080	0.466
135.000	158.949	80.011	19.994	103.952	19.872	6.378	0.485
142.500	162.703	80.008	19.993	103.946	19.866	6.746	0.500
150.000	166.537	80.007	19.992	103.946	19.859	7.238	0.534
157.500	170.321	80.008	19.995	103.953	19.849	7.924	0.505
165.000	174.056	80.008	19.995	103.945	19.843	8.337	0.457
172.500	177.833	80.007	19.993	103.943	19.838	8.675	0.520
180.000	181.563	80.007	19.993	103.936	19.826	9.495	0.484
187.500	185.268	80.008	19.994	103.939	19.814	10.250	0.460
195.000	189.000	80.009	19.992	103.975	19.804	10.971	0.492
202.500	192.693	80.009	19.993	103.938	19.784	12.318	0.549
210.000	196.312	80.010	19.994	103.911	19.769	13.334	0.480
217.500	199.929	80.010	19.994	103.914	19.757	14.139	0.485
225.001	203.581	80.011	19.994	103.912	19.737	15.461	0.478
232.500	207.247	80.007	19.995	103.906	19.712	17.151	0.489
240.001	210.953	80.007	19.994	103.905	19.687	18.898	0.519
247.500	214.527	80.008	19.994	103.908	19.661	20.629	0.491
255.000	218.210	80.007	19.994	103.906	19.634	22.453	0.477
262.500	221.871	80.008	19.995	103.908	19.608	24.234	0.507
270.000	225.587	80.007	19.993	103.908	19.568	26.944	0.507
277.500	229.345	80.009	19.994	103.906	19.531	29.424	0.528
285.000	233.031	80.011	19.992	103.904	19.491	32.118	0.493
292.500	236.703	80.009	19.994	103.904	19.444	35.302	0.498
300.000	240.419	80.010	19.993	103.908	19.396	38.594	0.495
307.500	244.137	80.010	19.994	103.924	19.339	42.428	0.521
315.000	247.879	80.009	19.993	103.958	19.295	45.429	0.515
322.500	251.701	80.007	19.993	103.939	19.225	50.202	0.509
330.000	255.429	80.008	19.994	103.981	19.144	55.691	0.485
337.500	259.245	80.007	19.995	104.000	19.078	60.100	0.494
345.001	263.029	80.007	19.993	103.986	19.016	64.353	0.533
352.500	266.800	80.008	19.994	103.983	18.949	68.948	0.472
360.000	270.600	80.007	19.995	103.975	18.887	73.090	0.505
367.500	274.371	80.009	19.995	104.014	18.828	77.099	0.504
375.000	278.155	80.009	19.993	103.996	18.762	81.555	0.501
382.500	281.834	80.008	19.994	104.015	18.718	84.493	0.467
390.000	285.593	80.011	19.993	103.986	18.698	85.862	0.488
397.500	289.320	80.010	19.996	103.994	18.713	84.893	0.498
405.000	293.055	80.006	19.993	104.058	18.695	85.978	0.484
412.500	296.824	80.008	19.994	103.851	18.814	77.992	0.430
420.000	300.427	80.009	19.997	103.907	19.087	59.474	0.359
427.500	304.314	80.009	19.994	103.912	19.308	44.550	0.500
435.000	308.136	80.008	19.994	103.902	19.478	33.010	0.534
442.500	311.819	80.008	19.993	103.846	19.604	24.465	0.504
450.000	315.620	80.009	19.994	103.894	19.698	18.113	0.479
457.500	319.362	80.009	19.994	103.880	19.755	14.288	0.517
465.000	323.076	80.007	19.995	103.873	19.785	12.223	0.476
472.500	326.814	80.009	19.993	103.871	19.812	10.436	0.497
480.000	330.541	80.010	19.993	103.868	19.826	9.432	0.517
487.500	334.323	80.009	19.993	103.869	19.836	8.790	0.505
495.000	338.110	80.009	19.993	103.868	19.837	8.730	0.495
502.500	341.931	80.009	19.993	103.867	19.841	8.412	0.504
510.000	345.667	80.008	19.992	103.866	19.842	8.386	0.505
517.500	349.552	80.008	19.995	103.871	19.840	8.481	0.548
525.000	353.370	80.009	19.993	103.871	19.837	8.697	0.547
532.500	357.191	80.008	19.993	103.872	19.840	8.543	0.528
540.000	361.001	80.009	19.993	103.869	19.832	9.027	0.534
547.500	364.838	80.010	19.993	103.866	19.824	9.597	0.538
555.000	368.648	80.009	19.994	103.862	19.827	9.387	0.493
562.500	372.416	80.011	19.993	103.865	19.818	10.023	0.498
570.000	376.304	80.012	19.995	103.863	19.807	10.729	0.538
577.500	380.138	80.009	19.995	103.865	19.797	11.434	0.541
585.000	383.906	80.008	19.993	103.873	19.780	12.566	0.485
592.500	387.769	80.011	19.994	103.873	19.770	13.269	0.531
600.000	391.585	80.009	19.993	103.880	19.757	14.144	0.526
607.500	395.488	80.008	19.993	103.883	19.741	15.211	0.513
615.000	399.371	80.007	19.993	103.874	19.729	16.029	0.512
622.500	403.277	80.010	19.992	103.879	19.719	16.705	0.527
630.000	407.113	80.010	19.993	103.874	19.698	18.146	0.490
637.500	411.012	80.008	19.996	103.881	19.688	18.828	0.513
645.001	414.758	80.010	19.994	103.874	19.673	19.844	0.492
652.500	418.577	80.012	19.993	103.870	19.664	20.428	0.524
660.000	422.358	80.008	19.995	103.868	19.647	21.563	0.478
667.500	426.217	80.009	19.994	103.868	19.630	22.734	0.499
675.000	430.006	80.009	19.993	103.819	19.612	23.932	0.500
682.500	433.797	80.008	19.993	103.867	19.596	24.988	0.517
690.000	437.524	80.008	19.992	103.866	19.581	26.003	0.503
697.500	441.305	80.008	19.995	103.863	19.569	26.846	0.507
705.000	445.022	80.010	19.994	103.857	19.559	27.549	0.468
712.500	448.739	80.010	19.993	103.858	19.560	27.446	0.478
720.000	452.528	80.008	19.992	103.852	19.561	27.406	0.485
727.500	456.382	80.011	19.993	103.787	19.562	27.307	0.515
735.000	460.196	80.009	19.993	103.832	19.572	26.644	0.517
742.500	464.026	80.008	19.994	103.832	19.585	25.772	0.493
750.000	467.851	80.009	19.994	103.834	19.603	24.562	0.512
757.500	471.741	80.008	19.994	103.837	19.636	22.318	0.530
765.000	475.569	80.009	19.995	103.830	19.664	20.388	0.525
772.500	479.381	80.009	19.994	103.833	19.693	18.427	0.479
780.000	483.268	80.008	19.992	103.829	19.726	16.205	0.535
787.500	486.996	80.009	19.993	103.832	19.754	14.292	0.528
795.000	490.798	80.010	19.993	103.827	19.774	12.963	0.518
802.500	494.605	80.010	19.994	103.831	19.794	11.605	0.526
810.000	498.392	80.010	19.993	103.831	19.808	10.682	0.523
817.500	502.181	80.011	19.993	103.831	19.825	9.515	0.471
825.000	505.995	80.011	19.993	103.826	19.832	9.055	0.527
832.500	509.832	80.009	19.995	103.827	19.843	8.305	0.512
840.000	513.633	80.008	19.993	103.826	19.851	7.757	0.524
847.500	517.596	80.009	19.993	103.827	19.858	7.294	0.520
855.000	521.465	80.010	19.994	103.830	19.862	7.050	0.519
862.500	525.405	80.008	19.994	103.825	19.866	6.724	0.547
870.000	529.246	80.009	19.994	103.827	19.873	6.266	0.493
877.500	533.148	80.012	19.994	103.833	19.873	6.262	0.520
885.000	537.032	80.009	19.994	103.828	19.879	5.889	0.528
892.500	540.869	80.010	19.993	103.827	19.877	5.996	0.485
900.000	544.728	80.010	19.992	103.827	19.880	5.774	0.474
907.500	548.612	80.013	19.993	103.826	19.879	5.893	0.521
915.000	552.453	80.010	19.991	103.827	19.879	5.849	0.480
922.500	556.323	80.009	19.992	103.773	19.871	6.407	0.493
930.000	560.188	80.010	19.993	103.831	19.867	6.657	0.526
937.500	563.980	80.008	19.995	103.836	19.866	6.740	0.474
945.000	567.710	80.009	19.994	103.843	19.863	6.934	0.492
952.500	571.556	80.010	19.994	103.850	19.861	7.114	0.522
960.000	575.408	80.011	19.994	103.847	19.853	7.647	0.522
967.500	579.218	80.010	19.994	103.843	19.854	7.530	0.510
975.000	583.067	80.011	19.993	103.848	19.856	7.429	0.515
982.500	586.874	80.011	19.993	103.838	19.867	6.688	0.506
990.000	590.761	80.011	19.992	103.858	19.873	6.299	0.540
997.500	594.547	80.010	19.994	103.845	19.884	5.543	0.472
1005.000	598.455	80.010	19.993	103.840	19.889	5.193	0.524
1012.500	602.252	80.009	19.991	103.833	19.896	4.752	0.530
1020.000	606.062	80.009	19.993	103.835	19.898	4.553	0.505
1027.501	609.909	80.010	19.993	103.830	19.903	4.259	0.511
1035.000	613.850	80.010	19.994	103.832	19.903	4.215	0.530
1042.500	617.724	80.010	19.994	103.839	19.904	4.182	0.504
1050.000	621.561	80.010	19.994	103.837	19.906	4.062	0.491
1057.500	625.514	80.010	19.996	103.833	19.906	4.024	0.543
1065.000	629.357	80.010	19.994	103.825	19.907	3.987	0.504
1072.500	633.311	80.012	19.993	103.839	19.909	3.846	0.539
1080.001	637.261	80.011	19.992	103.838	19.908	3.910	0.522
1087.500	641.212	80.009	19.993	103.837	19.910	3.754	0.509
1095.001	645.044	80.010	19.994	103.776	19.910	3.776	0.480
1102.501	648.980	80.010	19.993	103.828	19.912	3.628	0.514
1110.000	652.912	80.011	19.993	103.828	19.912	3.660	0.520
1117.500	656.805	80.009	19.993	103.832	19.906	4.065	0.516
1125.000	660.652	80.009	19.993	103.838	19.908	3.915	0.514
1132.500	664.514	80.012	19.992	103.834	19.910	3.771	0.515
1140.000	668.385	80.012	19.993	103.834	19.911	3.694	0.520
1147.500	672.176	80.010	19.994	103.842	19.912	3.621	0.484
1155.000	676.112	80.013	19.994	103.826	19.914	3.471	0.529
1162.501	679.930	80.013	19.994	103.828	19.920	3.125	0.513
1170.000	683.724	80.011	19.993	103.830	19.910	3.782	0.503
1177.500	687.520	80.011	19.994	103.832	19.919	3.195	0.469
1185.001	691.204	80.010	19.993	103.837	19.915	3.454	0.518
1192.500	694.986	80.009	19.993	103.831	19.918	3.217	0.523
1200.000	698.739	80.012	19.993	103.830	19.915	3.441	0.502
1207.500	702.515	80.008	19.993	103.833	19.912	3.621	0.539
1215.000	706.221	80.010	19.993	103.827	19.916	3.339	0.478
1222.500	710.020	80.011	19.994	103.826	19.916	3.364	0.473
1230.000	713.831	80.012	19.993	103.826	19.916	3.365	0.518
1237.500	717.704	80.013	19.994	103.829	19.919	3.133	0.515
1245.001	721.575	80.011	19.994	103.825	19.925	2.748	0.542
1252.501	725.397	80.010	19.993	103.827	19.924	2.814	0.519
1260.000	729.298	80.007	19.995	103.824	19.927	2.600	0.520
1267.501	733.095	80.007	19.995	103.826	19.917	3.281	0.511
1275.000	736.900	80.007	19.994	103.827	19.924	2.829	0.496
1282.501	740.687	80.008	19.994	103.821	19.920	3.125	0.485
1290.000	744.458	80.009	19.994	103.821	19.920	3.080	0.479
1291.501	745.268	80.010	19.994	103.820	19.918	3.211	0.520

File: Vinyl_Chair_Vinyl_Covering_MCC_30K_min_220304_R3.txt
Sample ID:	C:\MCC\MCC Cal\Test\Vinyl_Covering_81A_MCC_30K_min_220304_R3.txt
Sample Weight (mg):	4.67
Heating Rate (C/s):	0.5
Combustor Temp (C):	900
N2 Flow Rate (cc/min):	80
O2 Flow Rate (cc/min):	20
Calibration File:	C:\MCC\MCC Cal\Coeff1 JN10440_30_210304.txt.txt
T Correction Coefficients:	0	1.024463	0
Time Shift (s):	14
*
Time (s)	Temperature (C)	N2 flow rate (cc/min)	O2 flow rate (cc/min)	Flow Rate (cc/min)	Oxygen (%)	HRR (W/g)	Heating rate (C/s)
0.000	113.730	80.012	19.995	103.735	20.030	0.231	0.005
7.500	113.745	80.013	19.992	103.740	20.028	0.355	0.028
15.000	113.820	80.013	19.993	103.841	20.014	1.377	0.016
22.501	114.307	80.011	19.992	103.857	20.003	2.080	0.079
30.000	115.120	80.010	19.991	103.898	19.992	2.846	0.156
37.501	116.242	80.010	19.993	103.934	19.989	3.083	0.183
45.000	117.654	80.010	19.993	103.939	19.988	3.116	0.210
52.500	119.455	80.009	19.993	103.976	19.983	3.503	0.262
60.000	121.644	80.011	19.995	103.975	19.976	3.982	0.323
67.500	123.999	80.012	19.992	103.983	19.975	4.061	0.325
75.001	126.720	80.012	19.994	104.000	19.971	4.300	0.396
82.500	129.577	80.011	19.993	104.004	19.970	4.430	0.376
90.000	132.636	80.011	19.994	104.010	19.964	4.822	0.407
97.500	135.844	80.013	19.990	104.002	19.963	4.887	0.437
105.000	139.234	80.010	19.995	104.009	19.957	5.285	0.472
112.500	142.717	80.008	19.995	104.009	19.961	5.016	0.476
120.000	146.342	80.011	19.994	104.002	19.949	5.880	0.484
127.501	149.977	80.010	19.996	103.982	19.943	6.260	0.447
135.000	153.679	80.010	19.995	103.995	19.937	6.669	0.461
142.500	157.366	80.010	19.995	103.988	19.931	7.122	0.484
150.001	161.140	80.010	19.995	103.978	19.922	7.749	0.520
157.500	164.924	80.011	19.992	103.978	19.913	8.356	0.485
165.000	168.634	80.011	19.991	103.977	19.906	8.872	0.489
172.501	172.330	80.011	19.993	103.976	19.891	9.875	0.495
180.001	176.154	80.012	19.992	103.977	19.880	10.677	0.503
187.501	179.908	80.011	19.994	103.975	19.864	11.730	0.515
195.000	183.596	80.012	19.992	103.975	19.849	12.823	0.508
202.501	187.347	80.011	19.993	103.975	19.831	14.041	0.466
210.000	191.114	80.011	19.994	103.963	19.815	15.176	0.518
217.500	194.795	80.011	19.994	103.965	19.796	16.466	0.536
225.001	198.424	80.011	19.992	103.947	19.783	17.354	0.488
232.500	202.112	80.010	19.993	103.950	19.769	18.331	0.486
240.000	205.818	80.011	19.992	103.940	19.750	19.694	0.521
247.500	209.494	80.010	19.994	103.939	19.728	21.214	0.492
255.000	213.175	80.011	19.994	103.948	19.706	22.756	0.474
262.500	216.872	80.013	19.993	103.936	19.689	23.891	0.486
270.000	220.574	80.011	19.992	103.942	19.667	25.416	0.526
277.500	224.304	80.011	19.993	103.941	19.641	27.262	0.525
285.000	228.051	80.010	19.992	103.944	19.606	29.710	0.493
292.500	231.786	80.009	19.993	103.941	19.570	32.151	0.475
300.000	235.526	80.009	19.991	103.942	19.526	35.256	0.528
307.500	239.349	80.009	19.993	103.970	19.467	39.329	0.545
315.000	243.029	80.011	19.996	103.979	19.403	43.791	0.509
322.500	246.695	80.013	19.993	103.972	19.340	48.179	0.499
330.000	250.540	80.011	19.992	103.993	19.286	51.926	0.510
337.500	254.329	80.012	19.993	104.006	19.231	55.727	0.502
345.000	258.121	80.013	19.993	104.015	19.165	60.337	0.501
352.500	261.809	80.010	19.993	104.012	19.081	66.176	0.474
360.000	265.563	80.009	19.992	104.016	19.018	70.552	0.499
367.500	269.330	80.010	19.994	104.015	18.973	73.696	0.546
375.000	273.211	80.012	19.994	104.017	18.950	75.307	0.498
382.500	276.902	80.010	19.993	104.018	18.944	75.691	0.404
390.000	280.606	80.010	19.992	104.014	18.954	74.989	0.488
397.500	284.357	80.013	19.992	104.016	18.968	74.014	0.508
405.000	288.075	80.012	19.993	103.978	19.033	69.505	0.465
412.500	291.792	80.010	19.993	104.094	19.040	68.959	0.523
420.000	295.487	80.010	19.993	103.936	19.087	65.732	0.510
427.500	299.189	80.013	19.993	103.931	19.252	54.291	0.522
435.000	302.858	80.009	19.994	103.937	19.435	41.576	0.507
442.500	306.599	80.009	19.993	103.933	19.593	30.587	0.511
450.000	310.350	80.009	19.993	103.912	19.711	22.374	0.466
457.500	314.162	80.010	19.992	103.909	19.788	17.060	0.489
465.000	317.990	80.010	19.993	103.899	19.835	13.777	0.512
472.500	321.833	80.009	19.992	103.898	19.865	11.675	0.490
480.000	325.540	80.012	19.991	103.897	19.885	10.292	0.518
487.500	329.363	80.012	19.992	103.898	19.899	9.338	0.473
495.000	333.144	80.011	19.992	103.898	19.906	8.862	0.486
502.500	336.965	80.011	19.992	103.897	19.907	8.770	0.527
510.000	340.656	80.012	19.993	103.896	19.914	8.317	0.510
517.500	344.395	80.011	19.993	103.894	19.912	8.456	0.497
525.000	348.166	80.010	19.993	103.895	19.909	8.644	0.505
532.500	351.930	80.009	19.994	103.888	19.907	8.783	0.488
540.000	355.737	80.011	19.994	103.888	19.907	8.749	0.517
547.500	359.483	80.010	19.994	103.893	19.901	9.203	0.496
555.000	363.283	80.011	19.992	103.897	19.893	9.753	0.492
562.500	367.023	80.009	19.992	103.892	19.889	10.003	0.476
570.000	370.841	80.011	19.992	103.853	19.877	10.854	0.514
577.500	374.669	80.011	19.992	103.876	19.870	11.327	0.545
585.000	378.450	80.012	19.992	103.942	19.862	11.879	0.527
592.500	382.274	80.014	19.992	103.900	19.845	13.058	0.525
600.000	386.129	80.011	19.993	103.891	19.829	14.199	0.523
607.500	390.009	80.009	19.994	103.897	19.812	15.338	0.531
615.000	393.869	80.010	19.994	103.917	19.796	16.474	0.541
622.501	397.764	80.010	19.995	103.917	19.780	17.618	0.532
630.000	401.624	80.009	19.994	103.903	19.761	18.909	0.517
637.500	405.517	80.007	19.994	103.905	19.748	19.838	0.519
645.000	409.353	80.010	19.994	103.910	19.726	21.333	0.533
652.500	413.191	80.013	19.993	103.898	19.714	22.177	0.527
660.000	416.933	80.012	19.993	103.907	19.699	23.208	0.483
667.500	420.748	80.011	19.994	103.899	19.694	23.577	0.501
675.000	424.530	80.014	19.994	103.916	19.679	24.577	0.471
682.500	428.492	80.011	19.992	103.905	19.664	25.612	0.594
690.000	432.226	80.009	19.992	103.901	19.654	26.306	0.236
697.500	436.042	80.010	19.992	103.899	19.647	26.851	0.533
705.000	439.891	80.011	19.993	103.899	19.634	27.721	0.527
712.500	443.762	80.011	19.993	103.892	19.629	28.082	0.513
720.000	447.564	80.011	19.994	103.890	19.627	28.172	0.528
727.500	451.467	80.012	19.994	103.876	19.629	28.049	0.481
735.000	455.378	80.013	19.994	103.873	19.634	27.691	0.491
742.500	459.229	80.011	19.993	103.861	19.640	27.316	0.532
750.000	463.029	80.013	19.991	103.865	19.654	26.349	0.557
757.500	466.820	80.012	19.992	103.861	19.669	25.276	0.511
765.000	470.585	80.014	19.993	103.861	19.688	23.962	0.507
772.500	474.403	80.011	19.992	103.863	19.707	22.667	0.503
780.000	478.193	80.012	19.992	103.863	19.732	20.898	0.520
787.500	482.015	80.012	19.991	103.859	19.756	19.210	0.515
795.000	485.860	80.011	19.995	103.862	19.784	17.315	0.511
802.500	489.636	80.011	19.994	103.857	19.805	15.842	0.497
810.000	493.496	80.011	19.993	103.859	19.823	14.599	0.516
817.500	497.333	80.011	19.993	103.863	19.843	13.206	0.488
825.000	501.174	80.011	19.993	103.860	19.854	12.440	0.502
832.500	504.954	80.011	19.993	103.860	19.868	11.482	0.490
840.000	508.839	80.013	19.991	103.863	19.876	10.890	0.541
847.500	512.630	80.013	19.993	103.855	19.884	10.365	0.502
855.000	516.489	80.011	19.994	103.863	19.889	10.008	0.499
862.500	520.326	80.011	19.992	103.858	19.895	9.583	0.497
870.000	524.122	80.011	19.993	103.858	19.899	9.323	0.500
877.500	528.002	80.011	19.992	103.857	19.910	8.544	0.515
885.000	531.884	80.009	19.992	103.862	19.910	8.569	0.504
892.501	535.809	80.011	19.994	103.861	19.911	8.476	0.530
900.000	539.676	80.013	19.992	103.861	19.911	8.512	0.547
907.500	543.586	80.012	19.992	103.858	19.909	8.657	0.518
915.000	547.427	80.012	19.994	103.869	19.904	8.963	0.511
922.500	551.313	80.012	19.994	103.857	19.906	8.832	0.530
930.000	555.157	80.012	19.993	103.861	19.902	9.145	0.563
937.500	558.869	80.011	19.992	103.859	19.897	9.428	0.475
945.000	562.632	80.010	19.992	103.865	19.894	9.687	0.513
952.500	566.407	80.011	19.993	103.859	19.890	9.962	0.504
960.000	570.207	80.010	19.993	103.859	19.884	10.339	0.508
967.500	574.092	80.010	19.991	103.862	19.880	10.642	0.530
975.000	577.960	80.011	19.993	103.872	19.881	10.605	0.493
982.500	581.823	80.012	19.992	103.857	19.886	10.209	0.536
990.000	585.688	80.012	19.994	103.857	19.888	10.108	0.540
997.500	589.562	80.012	19.993	103.857	19.894	9.640	0.536
1005.000	593.546	80.014	19.993	103.858	19.901	9.151	0.553
1012.500	597.590	80.012	19.993	103.864	19.904	8.989	0.532
1020.000	601.527	80.010	19.994	103.968	19.916	8.118	0.510
1027.500	605.412	80.011	19.993	103.838	19.915	8.218	0.552
1035.001	609.247	80.012	19.993	103.855	19.921	7.794	0.519
1042.500	613.066	80.011	19.993	103.835	19.919	7.947	0.543
1050.001	617.005	80.011	19.993	103.800	19.920	7.873	0.539
1057.501	620.827	80.011	19.992	103.829	19.924	7.595	0.516
1065.000	624.684	80.014	19.992	103.838	19.923	7.631	0.494
1072.500	628.449	80.012	19.993	103.835	19.926	7.441	0.544
1080.000	632.259	80.011	19.993	103.823	19.924	7.611	0.491
1087.501	636.204	80.012	19.993	103.824	19.926	7.461	0.495
1095.000	640.031	80.010	19.993	103.845	19.920	7.848	0.491
1102.500	643.928	80.009	19.992	103.847	19.928	7.317	0.518
1110.000	647.814	80.010	19.994	103.835	19.931	7.086	0.524
1117.501	651.662	80.011	19.994	103.806	19.929	7.223	0.508
1125.000	655.465	80.009	19.992	103.811	19.932	7.058	0.502
1132.500	659.282	80.010	19.993	103.817	19.927	7.370	0.591
1140.000	662.934	80.011	19.993	103.780	19.927	7.404	0.514
1147.501	666.617	80.012	19.992	103.821	19.927	7.347	0.485
1155.000	670.323	80.013	19.993	103.826	19.932	7.046	0.479
1162.500	674.085	80.012	19.992	103.823	19.932	7.062	0.505
1170.001	677.919	80.013	19.992	103.822	19.932	7.062	0.509
1177.500	681.746	80.011	19.993	103.817	19.931	7.083	0.497
1185.000	685.638	80.011	19.993	103.819	19.932	7.002	0.515
1192.501	689.471	80.011	19.992	103.817	19.931	7.113	0.518
1200.000	693.301	80.010	19.993	103.818	19.935	6.798	0.533
1207.500	697.142	80.010	19.994	103.821	19.936	6.747	0.517
1215.001	701.035	80.010	19.994	103.821	19.934	6.878	0.514
1222.500	704.902	80.010	19.992	103.821	19.938	6.590	0.504
1230.000	708.778	80.010	19.992	103.820	19.938	6.589	0.491
1237.500	712.603	80.012	19.993	103.815	19.940	6.453	0.526
1245.000	716.431	80.011	19.993	103.814	19.939	6.517	0.536
1252.500	720.197	80.013	19.993	103.806	19.946	6.062	0.516
1260.000	723.867	80.013	19.992	103.806	19.943	6.276	0.497
1267.500	727.595	80.011	19.993	103.807	19.943	6.295	0.501
1275.000	731.326	80.010	19.993	103.817	19.947	6.015	0.470
1282.501	735.069	80.010	19.992	103.787	19.950	5.815	0.466
1290.000	738.847	80.009	19.993	103.812	19.951	5.745	0.464
1297.501	742.735	80.010	19.993	103.789	19.951	5.688	0.499
1299.000	743.495	80.009	19.994	103.804	19.954	5.489	0.488