Folder: fsri_materials_database/01_Data/PineLap_SidingC/MCC

Note: 01_Data/README.md
# Materials and Products Database
## 01_Data

Raw data generated from each apparatus are included here in plain-text format. The data is organized first by material, next by the short name of test apparatus used, and where applicable additional filtering by test settings.

### material.json

Each material directory contains a json file of the same name as the material. This file links the data stored in the repository as well as data and graphs produced by the accompanying scripts (__02_Scripts__) to the respective landing page for the material on the front-end website.

File: PineLap_SidingC_MCC_30K_min_211123_R2.txt
Sample ID:	C:\MCC\MCC Cal\Test\PineLap_SidingC_MCC_30K_min_211123_R2.txt
Sample Weight (mg):	4.22
Heating Rate (C/s):	0.5
Combustor Temp (C):	900
N2 Flow Rate (cc/min):	80
O2 Flow Rate (cc/min):	20
Calibration File:	C:\MCC\MCC Cal\Coeff1 JN10440_30_210304.txt.txt
T Correction Coefficients:	0	1.024463	0
Time Shift (s):	14
*
Time (s)	Temperature (C)	N2 flow rate (cc/min)	O2 flow rate (cc/min)	Flow Rate (cc/min)	Oxygen (%)	HRR (W/g)	Heating rate (C/s)
0.000	108.885	80.002	19.995	103.014	19.883	0.241	0.004
8.000	108.884	80.003	19.996	103.014	19.879	0.587	-0.047
16.000	108.829	80.002	19.994	103.024	19.890	-0.290	-0.033
24.000	108.950	80.003	19.994	103.053	19.885	0.070	0.051
32.000	108.981	80.002	19.995	103.093	19.874	0.938	0.026
40.000	109.276	80.001	19.994	103.122	19.864	1.738	0.137
48.000	109.861	80.001	19.996	103.133	19.859	2.129	-0.083
56.000	110.413	80.000	19.995	103.196	19.848	2.933	0.061
64.000	112.012	80.001	19.994	103.259	19.834	3.973	-0.046
72.000	113.772	80.002	19.995	103.316	19.827	4.564	0.400
80.000	115.834	80.002	19.995	103.348	19.818	5.208	0.467
88.001	119.071	80.003	19.995	103.332	19.823	4.825	0.588
96.000	121.610	80.007	19.997	103.337	19.816	5.365	0.382
104.001	125.718	80.006	19.995	103.335	19.821	5.029	0.735
112.000	129.734	80.002	19.993	103.353	19.812	5.655	0.462
120.000	133.460	80.001	19.996	103.333	19.817	5.285	0.485
128.000	137.897	80.004	19.995	103.325	19.814	5.514	0.544
136.000	142.644	80.003	19.995	103.324	19.819	5.151	0.565
144.000	146.982	79.999	19.997	103.315	19.824	4.736	0.620
152.000	151.390	80.002	19.996	103.289	19.828	4.479	0.679
160.000	155.573	80.003	19.995	103.275	19.824	4.796	0.530
168.000	160.197	80.002	19.995	103.255	19.833	4.076	0.544
176.000	164.229	80.002	19.995	103.239	19.832	4.147	0.522
184.000	168.317	80.002	19.994	103.211	19.831	4.239	0.449
192.000	172.147	80.001	19.994	103.215	19.838	3.721	0.481
200.000	175.892	80.000	19.994	103.213	19.835	3.907	0.617
208.000	179.440	80.000	19.995	103.216	19.838	3.715	0.473
216.000	182.773	80.002	19.995	103.213	19.836	3.869	0.448
224.000	186.634	80.001	19.997	103.218	19.840	3.563	0.457
232.000	190.094	80.002	19.995	103.230	19.833	4.051	0.377
240.000	193.771	80.001	19.996	103.216	19.827	4.533	0.507
248.000	197.162	80.002	19.996	103.238	19.830	4.279	0.284
256.000	200.918	80.003	19.994	103.240	19.828	4.443	0.458
264.000	205.025	80.004	19.994	103.236	19.829	4.370	0.409
272.000	208.775	80.002	19.995	103.235	19.829	4.380	0.356
280.000	213.140	80.002	19.994	103.248	19.828	4.429	0.939
288.000	216.966	80.001	19.995	103.251	19.818	5.208	0.219
296.000	221.341	80.001	19.994	103.250	19.813	5.603	0.273
304.000	225.330	80.000	19.995	103.229	19.815	5.469	0.598
312.000	229.329	80.003	19.996	103.230	19.812	5.690	0.517
320.000	233.718	80.002	19.996	103.229	19.803	6.386	0.261
328.000	238.011	80.004	19.995	103.226	19.806	6.126	0.481
336.000	242.195	80.002	19.996	103.212	19.795	6.980	0.528
344.000	246.048	80.004	19.995	103.222	19.786	7.646	0.429
352.000	250.073	80.004	19.994	103.224	19.781	8.063	0.533
360.000	254.106	80.003	19.995	103.232	19.767	9.106	0.524
368.000	257.876	80.001	19.995	103.240	19.758	9.781	0.538
376.000	261.815	80.002	19.995	103.237	19.749	10.507	0.421
384.000	265.731	80.002	19.995	103.240	19.737	11.414	0.497
392.000	269.534	80.002	19.995	103.249	19.720	12.699	0.480
400.000	273.568	80.003	19.995	103.247	19.709	13.535	0.488
408.000	277.530	80.003	19.995	103.250	19.691	14.911	0.504
416.000	281.415	80.003	19.996	103.250	19.671	16.432	0.426
424.000	285.359	80.002	19.994	103.255	19.653	17.842	0.481
432.000	289.282	80.003	19.996	103.261	19.628	19.706	0.479
440.000	293.186	80.004	19.995	103.280	19.605	21.521	0.506
448.000	297.066	80.003	19.994	103.288	19.582	23.250	0.499
456.000	301.106	80.002	19.993	103.289	19.550	25.671	0.514
464.001	305.160	80.004	19.994	103.300	19.517	28.186	0.491
472.000	309.205	80.002	19.994	103.320	19.482	30.896	0.475
480.000	313.252	80.004	19.994	103.330	19.443	33.851	0.506
488.000	317.330	80.004	19.994	103.337	19.405	36.823	0.525
496.000	321.446	80.002	19.996	103.354	19.364	39.935	0.470
504.000	325.469	80.004	19.996	103.362	19.327	42.715	0.470
512.000	329.572	80.005	19.996	103.363	19.294	45.289	0.501
520.000	333.580	80.003	19.996	103.366	19.262	47.726	0.503
528.000	337.585	80.002	19.995	103.373	19.237	49.625	0.504
536.000	341.634	80.003	19.994	103.387	19.220	50.976	0.509
544.000	345.639	80.003	19.993	103.389	19.195	52.833	0.507
552.000	349.667	80.001	19.995	103.397	19.167	55.031	0.499
560.000	353.728	80.003	19.994	103.405	19.131	57.778	0.453
568.000	357.779	80.005	19.994	103.426	19.092	60.762	0.499
576.000	361.816	80.003	19.994	103.444	19.036	65.066	0.543
584.000	365.843	80.003	19.995	103.445	18.982	69.216	0.499
592.000	369.826	80.006	19.994	103.460	18.946	71.947	0.490
600.000	373.949	80.003	19.995	103.444	18.926	73.392	0.537
608.000	377.961	80.002	19.995	103.415	18.964	70.487	0.497
616.000	381.986	80.002	19.996	103.365	19.050	63.885	0.520
624.000	385.953	80.005	19.995	103.295	19.188	53.325	0.493
632.000	389.940	80.003	19.994	103.228	19.347	41.124	0.474
640.000	394.050	80.001	19.995	103.188	19.495	29.864	0.524
648.000	398.047	80.004	19.995	103.169	19.613	20.816	0.484
656.000	402.096	80.004	19.995	103.164	19.680	15.724	0.486
664.000	406.082	80.001	19.994	103.171	19.721	12.639	0.493
672.000	410.035	80.004	19.994	103.168	19.733	11.689	0.497
680.000	414.039	80.003	19.994	103.171	19.739	11.268	0.476
688.000	418.057	80.003	19.996	103.170	19.747	10.603	0.506
696.000	422.207	80.004	19.995	103.169	19.750	10.421	0.504
704.000	426.376	80.004	19.996	103.166	19.756	9.909	0.518
712.000	430.531	80.002	19.996	103.157	19.763	9.415	0.483
720.000	434.770	80.004	19.994	103.167	19.768	9.041	0.546
728.000	438.934	80.003	19.992	103.169	19.773	8.684	0.501
736.000	443.015	80.003	19.994	103.145	19.774	8.587	0.474
744.000	447.051	80.004	19.995	103.158	19.781	8.050	0.505
752.000	451.071	80.005	19.994	103.142	19.787	7.592	0.511
760.000	455.107	80.004	19.995	103.154	19.791	7.299	0.492
768.000	459.149	80.003	19.995	103.152	19.796	6.911	0.518
776.000	463.082	80.002	19.994	103.149	19.802	6.413	0.498
784.000	467.116	80.001	19.994	103.158	19.807	6.034	0.483
792.000	471.143	80.003	19.995	103.159	19.808	5.943	0.484
800.000	475.207	80.001	19.994	103.134	19.810	5.851	0.500
808.000	479.212	80.004	19.995	103.143	19.817	5.284	0.500
816.000	483.180	80.005	19.995	103.147	19.814	5.530	0.519
824.000	487.141	80.004	19.996	103.139	19.816	5.364	0.514
832.000	491.166	80.005	19.995	103.143	19.815	5.417	0.514
840.000	495.353	80.005	19.994	103.134	19.816	5.333	0.532
848.000	499.457	80.002	19.994	103.136	19.818	5.245	0.528
856.000	503.507	80.002	19.994	103.139	19.820	5.061	0.521
864.000	507.592	80.003	19.996	103.134	19.819	5.120	0.564
872.000	511.663	80.001	19.993	103.138	19.824	4.786	0.510
880.000	515.788	80.002	19.996	103.133	19.820	5.067	0.528
888.000	519.924	80.002	19.995	103.137	19.818	5.253	0.505
896.000	524.002	80.004	19.996	103.131	19.817	5.306	0.541
904.000	528.090	80.002	19.993	103.132	19.820	5.053	0.508
912.000	532.167	80.003	19.995	103.136	19.817	5.280	0.510
920.000	536.312	80.004	19.994	103.133	19.820	5.044	0.491
928.000	540.455	80.002	19.994	103.138	19.820	5.034	0.536
936.000	544.528	80.001	19.993	103.135	19.822	4.897	0.498
944.000	548.633	80.003	19.993	103.133	19.821	4.977	0.515
952.000	552.834	80.002	19.995	103.134	19.822	4.913	0.493
960.000	557.009	80.002	19.994	103.131	19.821	4.985	0.507
968.000	561.214	80.002	19.996	103.135	19.822	4.919	0.549
976.000	565.335	80.003	19.995	103.133	19.815	5.407	0.490
984.000	569.470	80.002	19.995	103.132	19.817	5.269	0.525
992.000	573.554	80.002	19.995	103.133	19.817	5.269	0.514
1000.000	577.742	80.003	19.993	103.134	19.817	5.328	0.526
1008.000	581.872	80.004	19.995	103.161	19.837	3.783	0.552
1016.000	585.972	80.001	19.994	103.131	19.830	4.324	0.536
1024.000	590.003	80.002	19.993	103.131	19.820	5.056	0.503
1032.001	594.084	80.003	19.995	103.131	19.819	5.161	0.524
1040.001	598.136	80.002	19.995	103.133	19.817	5.302	0.498
1048.000	602.244	80.002	19.995	103.132	19.817	5.302	0.508
1056.000	606.334	80.003	19.994	103.134	19.819	5.138	0.555
1064.000	610.381	80.004	19.993	103.136	19.817	5.318	0.481
1072.001	614.508	80.002	19.995	103.131	19.817	5.298	0.532
1080.001	618.557	80.002	19.995	103.125	19.807	6.016	0.477
1088.001	622.744	80.004	19.995	103.128	19.816	5.388	0.512
1096.000	627.068	80.002	19.994	103.129	19.819	5.149	1.041
1104.001	630.815	80.001	19.995	103.136	19.814	5.499	0.490
1112.000	635.380	80.004	19.994	103.133	19.816	5.405	1.084
1120.000	639.282	80.002	19.994	103.134	19.811	5.742	1.067
1128.000	643.527	80.001	19.994	103.145	19.812	5.676	0.541
1136.000	647.756	80.005	19.995	103.145	19.809	5.874	0.537
1144.000	652.119	80.001	19.995	103.134	19.813	5.618	0.545
1152.000	656.431	80.004	19.995	103.149	19.808	5.957	0.545
1160.000	660.709	80.003	19.995	103.146	19.812	5.693	0.528
1168.000	664.933	80.006	19.995	103.154	19.812	5.701	0.504
1176.001	669.179	80.000	19.996	103.161	19.811	5.785	0.539
1184.000	673.454	80.003	19.994	103.172	19.807	6.049	0.557
1192.000	677.692	80.004	19.995	103.167	19.808	5.947	0.556
1200.001	681.919	80.003	19.995	103.171	19.807	6.024	0.514
1208.000	686.087	80.003	19.995	103.169	19.810	5.824	0.534
1216.000	690.309	80.003	19.994	103.166	19.810	5.842	0.498
1224.000	694.455	80.002	19.994	103.157	19.812	5.700	0.513
1232.000	698.546	80.005	19.995	103.135	19.812	5.656	0.497
1240.000	702.628	80.003	19.996	103.135	19.812	5.697	0.499
1248.000	706.622	80.006	19.995	103.132	19.814	5.548	0.464
1256.001	710.700	80.004	19.996	103.132	19.812	5.656	0.490
1264.000	714.706	80.000	19.995	103.120	19.815	5.426	0.503
1272.000	718.785	80.003	19.995	103.117	19.812	5.672	0.534
1280.000	722.874	80.004	19.993	103.122	19.810	5.791	0.503
1288.000	726.888	80.002	19.995	103.106	19.814	5.512	0.497
1296.000	730.883	80.002	19.995	103.119	19.814	5.495	0.507
1304.000	734.920	80.004	19.994	103.119	19.810	5.795	0.483
1312.001	738.884	80.003	19.995	103.105	19.809	5.900	0.499
1320.000	742.925	80.004	19.996	103.105	19.811	5.769	0.469
1321.000	743.452	80.004	19.996	103.099	19.811	5.726	0.524

File: PineLap_SidingC_MCC_30K_min_211124_R3.txt
Sample ID:	C:\MCC\MCC Cal\Test\PineLap_SidingC_MCC_30K_min_211124_R3.txt
Sample Weight (mg):	4.43
Heating Rate (C/s):	0.5
Combustor Temp (C):	900
N2 Flow Rate (cc/min):	80
O2 Flow Rate (cc/min):	20
Calibration File:	C:\MCC\MCC Cal\Coeff1 JN10440_30_210304.txt.txt
T Correction Coefficients:	0	1.024463	0
Time Shift (s):	14
*
Time (s)	Temperature (C)	N2 flow rate (cc/min)	O2 flow rate (cc/min)	Flow Rate (cc/min)	Oxygen (%)	HRR (W/g)	Heating rate (C/s)
-0.001	109.555	80.007	19.994	103.124	19.991	-0.104	0.019
8.000	109.531	80.009	19.994	103.127	19.989	0.002	0.011
16.000	109.546	80.009	19.994	103.184	19.983	0.437	-0.003
24.000	109.886	80.024	19.993	103.258	19.971	1.325	0.061
32.000	110.502	80.010	19.994	103.277	19.959	2.199	0.091
40.000	111.542	80.008	19.996	103.318	19.954	2.614	0.148
48.000	112.950	80.010	19.993	103.349	19.951	2.788	0.184
56.000	114.861	80.001	19.995	103.365	19.947	3.081	0.243
63.999	117.098	80.012	19.994	103.364	19.947	3.068	0.293
72.001	119.584	80.000	19.996	103.371	19.941	3.503	0.342
80.001	122.329	80.005	19.995	103.379	19.942	3.440	0.342
88.000	125.307	80.018	19.995	103.382	19.939	3.684	0.379
95.999	128.517	80.005	19.994	103.384	19.938	3.767	0.420
103.999	131.867	80.008	19.994	103.372	19.938	3.727	0.423
112.000	135.392	80.000	19.995	103.394	19.936	3.919	0.459
120.000	139.033	80.010	19.993	103.380	19.940	3.587	0.468
127.999	142.708	80.005	19.997	103.385	19.936	3.895	0.483
136.000	146.618	80.010	19.996	103.389	19.938	3.763	0.473
144.000	150.491	80.014	19.996	103.375	19.937	3.797	0.474
152.000	154.447	80.027	19.992	103.364	19.935	3.936	0.506
160.000	158.377	80.015	19.992	103.365	19.937	3.826	0.486
168.000	162.399	80.007	20.000	103.365	19.940	3.568	0.520
176.000	166.464	80.001	19.997	103.367	19.941	3.560	0.463
184.000	170.527	80.013	19.992	103.367	19.946	3.128	0.480
192.000	174.549	80.011	19.993	103.357	19.950	2.906	0.469
200.000	178.587	80.007	19.995	103.349	19.943	3.367	0.518
208.000	182.592	80.010	19.994	103.355	19.948	3.040	0.492
216.000	186.520	80.016	19.995	103.350	19.948	3.047	0.489
224.000	190.499	80.012	19.995	103.339	19.945	3.259	0.514
232.000	194.467	80.002	19.995	103.326	19.943	3.367	0.499
240.000	198.420	80.011	19.992	103.343	19.943	3.392	0.539
248.000	202.363	80.008	19.994	103.336	19.946	3.169	0.476
256.000	206.285	80.006	19.995	103.331	19.942	3.426	0.518
264.000	210.259	80.007	19.995	103.321	19.943	3.408	0.470
272.000	214.224	80.021	19.995	103.330	19.934	4.046	0.472
280.000	218.168	80.009	19.994	103.323	19.931	4.222	0.466
288.000	222.088	80.009	19.995	103.320	19.937	3.818	0.462
296.000	226.074	80.005	19.999	103.325	19.932	4.213	0.509
304.000	229.997	80.010	19.994	103.329	19.927	4.554	0.512
312.000	233.946	80.012	19.995	103.323	19.920	5.065	0.486
320.000	237.887	80.001	19.996	103.326	19.914	5.522	0.469
328.000	241.788	80.008	19.992	103.324	19.902	6.396	0.484
336.000	245.711	79.995	19.997	103.327	19.905	6.129	0.522
344.000	249.634	80.012	19.990	103.327	19.895	6.869	0.526
352.000	253.669	80.006	20.002	103.327	19.879	8.043	0.311
360.000	257.487	80.005	19.992	103.331	19.867	8.932	0.491
368.000	261.394	80.022	19.994	103.326	19.860	9.403	0.450
376.000	265.351	80.006	19.995	103.331	19.841	10.808	0.494
384.000	269.278	80.010	19.993	103.351	19.828	11.759	0.488
392.000	273.333	80.012	19.996	103.358	19.811	12.984	0.522
400.000	277.300	80.010	19.998	103.351	19.784	14.961	0.474
408.000	281.260	79.989	19.993	103.363	19.767	16.229	0.484
416.000	285.306	80.019	19.993	103.353	19.745	17.766	0.490
424.000	289.332	80.009	19.995	103.372	19.721	19.568	0.497
432.000	293.359	80.002	19.997	103.384	19.690	21.788	0.508
440.000	297.319	79.993	19.995	103.401	19.669	23.315	0.474
448.000	301.403	80.015	19.991	103.405	19.628	26.338	0.513
456.000	305.359	80.002	19.994	103.437	19.598	28.500	0.505
464.000	309.425	80.004	19.995	103.427	19.561	31.182	0.507
472.000	313.493	80.018	19.992	103.443	19.524	33.911	0.512
480.000	317.518	80.006	19.995	103.445	19.483	36.914	0.500
488.000	321.534	80.008	19.997	103.472	19.443	39.824	0.508
496.000	325.613	80.012	19.995	103.480	19.406	42.495	0.506
504.000	329.650	80.002	19.995	103.483	19.371	45.102	0.479
512.000	333.722	80.030	19.992	103.493	19.342	47.194	0.498
520.000	337.784	80.008	19.994	103.487	19.306	49.840	0.527
528.000	341.824	80.016	19.995	103.495	19.291	50.944	0.511
536.000	345.870	80.013	19.995	103.517	19.267	52.669	0.514
544.000	349.981	80.006	19.995	103.514	19.233	55.152	0.516
552.000	354.007	80.012	19.996	103.532	19.195	57.943	0.497
560.000	358.119	80.009	19.994	103.561	19.146	61.507	0.508
568.000	362.150	80.008	19.993	103.585	19.091	65.562	0.508
576.000	366.175	80.002	19.994	103.588	19.042	69.111	0.499
584.000	370.250	80.009	19.995	103.581	19.015	71.046	0.509
592.000	374.341	80.005	19.996	103.548	19.024	70.393	0.503
600.000	378.370	80.006	19.995	103.501	19.096	65.068	0.479
608.000	382.456	80.009	19.995	103.441	19.216	56.270	0.512
616.000	386.507	80.025	19.996	103.364	19.378	44.526	0.496
624.000	390.610	80.018	19.995	103.325	19.550	31.954	0.549
632.000	394.695	80.013	19.988	103.294	19.691	21.716	0.543
640.000	398.745	80.012	19.999	103.284	19.788	14.686	0.526
648.000	402.753	80.003	19.994	103.278	19.839	10.915	0.533
656.000	406.748	80.018	19.994	103.278	19.862	9.262	0.531
664.000	410.734	80.012	19.996	103.271	19.873	8.439	0.485
672.000	414.718	80.020	19.993	103.287	19.871	8.636	0.497
680.000	418.744	80.020	19.992	103.265	19.887	7.446	0.505
688.000	422.676	80.011	19.998	103.279	19.893	7.023	0.499
696.000	426.753	80.007	19.991	103.272	19.896	6.805	0.515
704.000	430.813	80.006	19.995	103.279	19.903	6.300	0.518
712.000	434.872	80.016	19.995	103.279	19.909	5.857	0.514
720.000	439.015	80.014	19.993	103.273	19.912	5.617	0.532
728.000	443.058	80.011	19.997	103.262	19.918	5.162	0.512
736.000	447.149	80.024	19.998	103.262	19.923	4.846	0.537
744.000	451.162	80.008	19.995	103.261	19.927	4.513	0.534
752.000	455.219	80.011	19.995	103.267	19.934	3.997	0.521
760.000	459.242	80.006	19.997	103.262	19.936	3.852	0.503
768.000	463.288	80.017	19.993	103.280	19.944	3.325	0.502
776.000	467.352	80.008	19.995	103.258	19.945	3.196	0.492
784.000	471.402	80.019	19.993	103.268	19.949	2.908	0.468
792.000	475.520	80.013	20.000	103.250	19.954	2.580	0.512
800.000	479.593	80.014	19.998	103.272	19.953	2.627	0.496
808.000	483.677	80.003	19.996	103.244	19.958	2.298	0.508
816.000	487.792	80.014	19.994	103.253	19.959	2.227	0.525
824.000	491.892	80.020	19.998	103.249	19.967	1.621	0.506
832.000	496.026	80.009	19.994	103.250	19.967	1.618	0.511
840.000	500.139	80.007	19.991	103.261	19.968	1.581	0.497
848.000	504.310	80.008	19.994	103.256	19.969	1.499	0.523
856.000	508.417	80.007	19.990	103.252	19.968	1.564	0.511
864.000	512.565	80.007	19.996	103.252	19.968	1.528	0.487
872.000	516.705	80.003	19.990	103.252	19.970	1.418	0.509
880.000	520.867	80.013	19.993	103.246	19.971	1.334	0.520
888.000	524.933	80.001	19.999	103.250	19.975	1.081	0.489
896.000	529.018	80.008	19.994	103.252	19.971	1.314	0.509
904.000	533.173	80.012	19.996	103.261	19.971	1.354	0.513
912.000	537.192	80.010	19.996	103.257	19.976	1.000	0.469
920.000	541.280	80.007	19.994	103.254	19.977	0.887	0.517
928.000	545.322	80.006	19.996	103.250	19.978	0.802	0.490
936.000	549.361	80.007	19.996	103.245	19.978	0.826	0.504
944.000	553.416	80.010	19.992	103.252	19.978	0.822	0.531
952.000	557.483	80.013	19.998	103.250	19.981	0.587	0.484
960.000	561.478	80.007	19.998	103.243	19.978	0.808	0.474
968.000	565.498	80.005	19.995	103.250	19.982	0.541	0.499
976.000	569.561	80.007	19.995	103.246	19.977	0.893	0.511
984.000	573.571	80.018	19.995	103.253	19.976	0.946	0.508
992.000	577.628	80.007	19.997	103.244	19.981	0.596	0.496
1000.000	581.649	80.012	19.997	103.241	19.981	0.612	0.506
1008.000	585.678	80.013	19.995	103.245	19.980	0.687	0.506
1016.000	589.678	80.009	19.996	103.251	19.985	0.318	0.500
1024.000	593.617	79.998	19.996	103.237	19.985	0.337	0.514
1031.999	597.734	80.019	19.994	103.233	19.983	0.494	0.523
1040.000	601.888	80.010	19.994	103.227	19.984	0.418	0.529
1048.000	606.010	80.008	19.995	103.250	19.984	0.398	0.496
1055.999	610.206	80.011	19.994	103.208	19.982	0.526	0.501
1064.001	614.371	80.009	19.995	103.224	19.984	0.404	0.547
1072.000	618.481	80.012	19.995	103.224	19.989	0.047	0.502
1079.999	622.496	80.007	19.995	103.249	19.989	0.033	0.502
1087.999	626.479	80.006	19.995	103.242	19.986	0.279	0.496
1096.000	630.443	80.008	19.995	103.226	19.986	0.275	0.461
1104.000	634.509	80.009	19.997	103.233	19.987	0.157	0.523
1112.000	638.576	80.010	19.994	103.249	19.988	0.098	0.497
1119.999	642.901	80.013	19.994	103.241	19.987	0.206	0.517
1128.000	647.272	80.018	19.994	103.236	19.986	0.241	0.547
1136.001	651.652	80.011	19.995	103.245	19.984	0.379	0.533
1144.000	656.024	80.012	19.995	103.246	19.983	0.481	0.561
1152.001	660.436	80.010	19.994	103.242	19.986	0.263	0.533
1160.000	664.767	80.010	19.994	103.249	19.982	0.534	0.526
1168.000	669.083	80.009	19.996	103.252	19.985	0.322	0.513
1176.000	673.420	80.009	19.995	103.255	19.984	0.375	0.559
1184.000	677.671	80.009	19.995	103.256	19.987	0.212	0.504
1192.000	681.772	80.010	19.996	103.256	19.987	0.202	0.525
1200.000	685.896	80.010	19.997	103.249	19.987	0.177	0.470
1208.000	689.906	80.009	19.995	103.246	19.986	0.251	0.486
1216.000	693.981	80.012	19.995	103.243	19.991	-0.147	0.496
1224.000	698.069	80.012	19.995	103.232	19.989	0.033	0.510
1232.001	702.038	80.012	19.996	103.210	19.992	-0.222	0.487
1240.000	706.024	80.010	19.995	103.207	19.992	-0.208	0.492
1248.000	710.026	80.009	19.993	103.208	19.993	-0.276	0.520
1256.000	714.031	80.010	19.996	103.207	19.990	-0.055	0.482
1264.001	718.126	80.010	19.995	103.203	19.994	-0.322	0.520
1272.000	722.113	80.011	19.995	103.204	19.990	-0.073	0.497
1280.000	726.053	80.008	19.996	103.202	19.992	-0.190	0.485
1288.000	730.047	80.011	19.996	103.207	19.993	-0.265	0.520
1296.000	733.983	80.010	19.996	103.206	19.993	-0.241	0.462
1304.000	737.977	80.012	19.995	103.206	19.994	-0.310	0.507
1312.000	741.977	80.012	19.994	103.207	19.989	0.053	0.487
1315.500	743.714	80.011	19.994	103.210	19.991	-0.110	0.473