Folder: fsri_materials_database/01_Data/PUF_Mattress_Pad/STA/N2/10K_min

Note: 01_Data/README.md
# Materials and Products Database
## 01_Data

Raw data generated from each apparatus are included here in plain-text format. The data is organized first by material, next by the short name of test apparatus used, and where applicable additional filtering by test settings.

### material.json

Each material directory contains a json file of the same name as the material. This file links the data stored in the repository as well as data and graphs produced by the accompanying scripts (__02_Scripts__) to the respective landing page for the material on the front-end website.

File: PUF_Mattress_Pad_STA_N2_10KData_22091_R1.csv
##Temp./Â°C,Time/min,Mass loss(subtr.2)/mg,DSC(subtr.2)/(mW/mg),Sensit./(uV/mW)
50.448,10.00917,0.00834,0.00262682,1.02682
53.048,11.3657,0.007530156,0.09684551,1.02659
55.648,11.83113,0.009728598,0.14199,1.02636
58.248,12.21826,0.009044075,0.16766,1.02613
60.848,12.57305,0.009314265,0.18389,1.02589
63.448,12.90623,0.01097839,0.19642,1.02565
66.048,13.22644,0.008741622,0.20568,1.0254
68.648,13.53525,0.009649709,0.21554,1.02515
71.248,13.83658,0.009386845,0.22258,1.0249
73.848,14.1315,0.00955013,0.22773,1.02463
76.448,14.4206,0.00994927,0.23329,1.02437
79.048,14.7034,0.00843318,0.23725,1.0241
81.648,14.98479,0.009594025,0.24143,1.02382
84.248,15.2609,0.01087631,0.24214,1.02354
86.848,15.53326,0.00945262,0.24446,1.02326
89.448,15.8026,0.01023422,0.24701,1.02297
92.048,16.06964,0.01086835,0.25038,1.02267
94.648,16.33286,0.00913868,0.25144,1.02237
97.248,16.59441,0.00954998,0.25221,1.02207
99.848,16.85374,0.009550096,0.25408,1.02176
102.448,17.11214,0.00954999,0.25482,1.02144
105.048,17.36904,0.009549502,0.25378,1.02112
107.648,17.62535,0.009493098,0.25714,1.02079
110.248,17.8813,0.008230187,0.25983,1.02046
112.848,18.1364,0.01064583,0.26004,1.02012
115.448,18.3905,0.009549406,0.26256,1.01977
118.048,18.64411,0.01202358,0.261,1.01942
120.648,18.8971,0.009699038,0.26197,1.01907
123.248,19.1509,0.009668902,0.26027,1.01871
125.848,19.40314,0.01100997,0.26106,1.01834
128.448,19.6549,0.009668606,0.26122,1.01796
131.048,19.9063,0.009663541,0.26137,1.01758
133.648,20.15744,0.008355269,0.26195,1.01719
136.248,20.40738,0.008541193,0.26224,1.0168
138.848,20.65755,0.009660148,0.26332,1.0164
141.448,20.90696,0.009262638,0.26211,1.01599
144.048,21.15624,0.00965989,0.26323,1.01558
146.648,21.4051,0.009765908,0.26368,1.01516
149.248,21.65305,0.009665918,0.26494,1.01473
151.848,21.9016,0.009717241,0.26725,1.0143
154.448,22.14945,0.009660659,0.26868,1.01386
157.048,22.39666,0.00891579,0.26917,1.01341
159.648,22.64506,0.00839183,0.27042,1.01295
162.248,22.89247,0.009076222,0.26973,1.01249
164.848,23.1405,0.008340023,0.27092,1.01202
167.448,23.38792,0.008340001,0.27105,1.01154
170.048,23.63547,0.008349674,0.27264,1.01106
172.648,23.88268,0.008340001,0.27166,1.01057
175.248,24.13007,0.008669779,0.27189,1.01007
177.848,24.37758,0.008340016,0.27164,1.00956
180.448,24.62441,0.007029548,0.27367,1.00905
183.048,24.87167,0.008323178,0.27103,1.00852
185.648,25.1186,0.007360246,0.27263,1.00799
188.248,25.36516,0.00765177,0.27181,1.00746
190.848,25.61185,0.004717973,0.27168,1.00691
193.448,25.85887,0.004509511,0.27342,1.00635
196.048,26.1057,0.00656489,0.27542,1.00579
198.648,26.35261,0.004600649,0.27585,1.00522
201.248,26.59935,0.00362,0.27768,1.00464
203.848,26.84615,0.00329688,0.28259,1.00405
206.448,27.09308,0.001994915,0.28259,1.00346
209.048,27.34044,0.00132,0.28405,1.00285
211.648,27.58795,-0.0002178117,0.28724,1.00224
214.248,27.8346,-0.001615095,0.28683,1.00162
216.848,28.0815,-0.00396,0.29095,1.00099
219.448,28.32838,-0.003957237,0.29768,1.00035
222.048,28.57579,-0.008890002,0.29864,0.9997
224.648,28.8229,-0.0126061,0.3048,0.99904
227.248,29.0698,-0.01525537,0.31084,0.99837
229.848,29.3167,-0.01795341,0.31638,0.9977
232.448,29.5634,-0.02044395,0.32591,0.99701
235.048,29.81028,-0.02734538,0.33726,0.99632
237.648,30.05728,-0.03285489,0.34794,0.99561
240.248,30.3048,-0.03873861,0.36089,0.9949
242.848,30.5516,-0.04497319,0.37449,0.99417
245.448,30.79921,-0.05302994,0.39232,0.99344
248.048,31.0463,-0.06312846,0.41229,0.9927
250.648,31.29395,-0.07139034,0.4338,0.99195
253.248,31.54188,-0.08167022,0.4571,0.99118
255.848,31.78993,-0.09432493,0.48176,0.99041
258.448,32.03767,-0.10698,0.50888,0.98963
261.048,32.28585,-0.1212,0.54075,0.98884
263.648,32.5334,-0.13787,0.57551,0.98803
266.248,32.78156,-0.15494,0.61468,0.98722
268.848,33.02991,-0.17306,0.65753,0.9864
271.448,33.2785,-0.19491,0.70544,0.98556
274.048,33.5269,-0.21846,0.75645,0.98472
276.648,33.77579,-0.24451,0.81201,0.98387
279.248,34.0248,-0.27446,0.86851,0.983
281.848,34.27431,-0.30665,0.92622,0.98213
284.448,34.5237,-0.34225,0.99571,0.98124
287.048,34.77347,-0.38236,1.07479,0.98034
289.648,35.0233,-0.42741,1.15752,0.97944
292.248,35.2729,-0.47771,1.24006,0.97852
294.848,35.52348,-0.53249,1.32048,0.97759
297.448,35.77463,-0.59397,1.41491,0.97665
300.048,36.0249,-0.65924,1.49968,0.9757
302.648,36.27532,-0.72973,1.5658,0.97474
305.248,36.52628,-0.8016,1.58265,0.97376
307.848,36.7759,-0.87365,1.49242,0.97278
310.448,37.0248,-0.93976,1.26268,0.97178
313.048,37.2731,-0.99546,1.00501,0.97077
315.648,37.52101,-1.03993,0.76017,0.96976
318.248,37.7691,-1.07838,0.57342,0.96873
320.848,38.01715,-1.1088,0.46648,0.96768
323.448,38.2658,-1.1342,0.39868,0.96663
326.048,38.51511,-1.1603,0.34816,0.96557
328.648,38.76467,-1.18093,0.3097,0.96449
331.248,39.01475,-1.20348,0.28057,0.9634
333.848,39.26509,-1.22057,0.25952,0.9623
336.448,39.5164,-1.24025,0.24316,0.96119
339.048,39.7667,-1.26035,0.23351,0.96007
341.648,40.0181,-1.28065,0.2327,0.95893
344.248,40.26897,-1.301,0.23816,0.95778
346.848,40.51967,-1.326,0.24898,0.95662
349.448,40.77084,-1.35363,0.2647,0.95545
352.048,41.0222,-1.38728,0.28968,0.95427
354.648,41.27432,-1.42783,0.32397,0.95307
357.248,41.52588,-1.47407,0.36188,0.95187
359.848,41.77793,-1.52931,0.40434,0.95065
362.448,42.0299,-1.59574,0.45462,0.94941
365.048,42.28233,-1.67469,0.50892,0.94817
367.648,42.5351,-1.76558,0.56129,0.94691
370.248,42.7869,-1.86914,0.61086,0.94564
372.848,43.04031,-1.99029,0.65815,0.94436
375.448,43.29288,-2.12197,0.6971,0.94307
378.048,43.54603,-2.26329,0.71729,0.94176
380.648,43.79888,-2.41483,0.725,0.94044
383.248,44.05196,-2.56818,0.70913,0.93911
385.848,44.30467,-2.72085,0.67471,0.93777
388.448,44.55704,-2.87024,0.62177,0.93641
391.048,44.81067,-3.00829,0.5566,0.93504
393.648,45.06305,-3.13238,0.48716,0.93366
396.248,45.3161,-3.2444,0.41684,0.93226
398.848,45.56968,-3.33689,0.34785,0.93086
401.448,45.82248,-3.4137,0.29045,0.92944
404.048,46.07595,-3.4777,0.23918,0.928
406.648,46.32925,-3.52713,0.20292,0.92656
409.248,46.58231,-3.56423,0.16973,0.9251
411.848,46.83548,-3.59567,0.14644,0.92363
414.448,47.08882,-3.61665,0.1279,0.92214
417.048,47.3416,-3.63478,0.11005,0.92065
419.648,47.59478,-3.6468,0.09973396,0.91914
422.248,47.84858,-3.65694,0.08994704,0.91762
424.848,48.10219,-3.66401,0.08581028,0.91608
427.448,48.356,-3.66894,0.0807897,0.91453
430.048,48.60985,-3.67158,0.07889247,0.91297
432.648,48.8632,-3.67554,0.08086213,0.9114
435.248,49.11764,-3.67849,0.07886153,0.90981
437.848,49.37117,-3.6798,0.08055943,0.90821
440.448,49.6256,-3.68246,0.08118618,0.9066
443.048,49.87981,-3.68276,0.07893476,0.90497
445.648,50.13378,-3.6841,0.07744711,0.90333
448.248,50.38896,-3.68443,0.07777495,0.90168
450.848,50.64375,-3.68603,0.07581368,0.90002
453.448,50.89833,-3.68838,0.0759601,0.89834
456.048,51.15423,-3.68838,0.07331473,0.89665
458.648,51.4095,-3.6897,0.07383745,0.89495
461.248,51.66495,-3.69068,0.0731095,0.89323
463.848,51.92119,-3.692,0.07372166,0.8915
466.448,52.177,-3.69267,0.07228247,0.88976
469.048,52.4332,-3.69432,0.07172997,0.88801
471.648,52.68916,-3.69431,0.0719566,0.88624
474.248,52.94535,-3.6944,0.0722974,0.88446
476.848,53.20143,-3.69574,0.07225362,0.88267
479.448,53.45802,-3.69705,0.07052604,0.88086
482.048,53.7144,-3.6963,0.07102054,0.87904
484.648,53.97099,-3.69771,0.07497765,0.87721
487.248,54.22749,-3.70002,0.07709077,0.87536
489.848,54.4838,-3.7006,0.07652696,0.87351
492.448,54.7406,-3.70067,0.07785333,0.87164
495.048,54.9967,-3.70199,0.07894126,0.86975
497.648,55.2536,-3.70463,0.07893247,0.86786
500.248,55.51,-3.7043,0.07861337,0.86595
502.848,55.7667,-3.70299,0.07582915,0.86403
505.448,56.0232,-3.70561,0.07903007,0.8621
508.048,56.27959,-3.70562,0.0779448,0.86015
510.648,56.536,-3.70629,0.07875932,0.85819
513.248,56.79376,-3.7076,0.07934806,0.85622
515.848,57.0512,-3.70825,0.08220251,0.85424
518.448,57.3085,-3.70825,0.08189796,0.85224
521.048,57.56573,-3.70957,0.08404066,0.85023
523.648,57.82345,-3.7099,0.08571459,0.84821
526.248,58.0815,-3.71066,0.08665108,0.84618
528.848,58.3395,-3.7122,0.08471891,0.84413
531.448,58.5972,-3.71042,0.08240039,0.84207
534.048,58.855,-3.71121,0.08064008,0.84
536.648,59.11189,-3.71137,0.07735481,0.83792
539.248,59.3696,-3.71252,0.0760326,0.83582
541.848,59.62669,-3.71186,0.07094429,0.83372
544.448,59.8839,-3.71361,0.06761217,0.8316
547.048,60.14125,-3.71352,0.06127426,0.82947
549.648,60.39935,-3.71286,0.05962162,0.82732
552.248,60.6568,-3.71484,0.05550703,0.82517
554.848,60.91499,-3.71484,0.05101187,0.823
557.448,61.1729,-3.71352,0.0484582,0.82082
560.048,61.42937,-3.7135,0.0453953,0.81863
562.648,61.6877,-3.71439,0.04225103,0.81643
565.248,61.9454,-3.7155,0.03707123,0.81422
567.848,62.2035,-3.71549,0.0343924,0.81199
570.448,62.4619,-3.71682,0.03233608,0.80975
573.048,62.7205,-3.7155,0.02367723,0.8075
575.648,62.9785,-3.71457,0.02005846,0.80524
578.248,63.2378,-3.71484,0.01492966,0.80297
580.848,63.49686,-3.71616,0.00978298,0.80069
583.448,63.75651,-3.71682,0.003325419,0.7984
586.048,64.0159,-3.71682,-0.002254241,0.79609
588.648,64.27467,-3.71714,-0.00148192,0.79378
591.248,64.534,-3.71714,-0.008508794,0.79145
593.848,64.79292,-3.71654,-0.01240698,0.78911
596.448,65.05199,-3.71877,-0.01552443,0.78676
599.048,65.3106,-3.71715,-0.0204299,0.7844
601.648,65.56917,-3.71781,-0.02512907,0.78203
604.248,65.82777,-3.71649,-0.02609352,0.77965
606.848,66.08752,-3.71649,-0.02810968,0.77726
609.448,66.34716,-3.71649,-0.03224314,0.77485
612.048,66.60614,-3.71648,-0.03236577,0.77244
614.648,66.86572,-3.71912,-0.0362877,0.77002
617.248,67.12493,-3.71682,-0.03364825,0.76758
619.848,67.38458,-3.71817,-0.04228798,0.76514
622.448,67.64483,-3.71768,-0.05760761,0.76268
625.048,67.90474,-3.71829,-0.05540391,0.76022
627.648,68.16424,-3.71835,-0.05883432,0.75775
630.248,68.42341,-3.71901,-0.06625466,0.75526
632.848,68.68394,-3.71879,-0.07289503,0.75277
635.448,68.94351,-3.71835,-0.07503439,0.75026
638.048,69.2033,-3.71972,-0.07979983,0.74775
640.648,69.46234,-3.71934,-0.0815632,0.74523
643.248,69.7217,-3.71967,-0.08251622,0.7427
645.848,69.9811,-3.7184,-0.08710708,0.74015
645.948,69.99126,-3.71871,-0.08770329,0.74006

File: PUF_Mattress_Pad_STA_N2_10KData_22091_R2.csv
##Temp./Â°C,Time/min,Mass loss(subtr.2)/mg,DSC(subtr.2)/(mW/mg),Sensit./(uV/mW)
50.329,10.01,0.00604,0.003443205,1.02683
52.329,11.23431,0.007925406,0.07741711,1.02665
54.329,11.63239,0.00799587,0.11306,1.02648
56.329,11.95739,0.006325936,0.13672,1.0263
58.329,12.24895,0.007787243,0.15409,1.02612
60.329,12.5216,0.007529708,0.16394,1.02594
62.329,12.78122,0.005832977,0.17195,1.02575
64.329,13.03187,0.007109645,0.17916,1.02557
66.329,13.27653,0.006564382,0.18535,1.02538
68.329,13.51416,0.00810203,0.19101,1.02518
70.329,13.747,0.006192385,0.19433,1.02499
72.329,13.97545,0.007254205,0.1992,1.02479
74.329,14.20129,0.00724963,0.20169,1.02459
76.329,14.424,0.00733889,0.20429,1.02438
78.329,14.64189,0.00737935,0.20439,1.02417
80.329,14.8601,0.00724899,0.20443,1.02396
82.329,15.07363,0.00730613,0.20711,1.02375
84.329,15.2863,0.00640429,0.20768,1.02354
86.329,15.4956,0.009064223,0.2077,1.02332
88.329,15.70331,0.00707169,0.21097,1.0231
90.329,15.90971,0.00735983,0.21006,1.02287
92.329,16.11372,0.007150639,0.20989,1.02264
94.329,16.31759,0.005916415,0.21175,1.02241
96.329,16.51866,0.005854115,0.21085,1.02218
98.329,16.71935,0.00581941,0.21161,1.02194
100.329,16.91866,0.00713151,0.21159,1.0217
102.329,17.11757,0.00708365,0.21243,1.02146
104.329,17.3155,0.00604924,0.21307,1.02121
106.329,17.51234,0.007118995,0.21364,1.02096
108.329,17.70937,0.00715167,0.21404,1.02071
110.329,17.9059,0.00622793,0.21546,1.02045
112.329,18.10203,0.004492296,0.21448,1.02019
114.329,18.29786,0.00450098,0.21372,1.01992
116.329,18.49315,0.004266893,0.2132,1.01966
118.329,18.68797,0.004645176,0.21338,1.01939
120.329,18.88336,0.004499734,0.21345,1.01911
122.329,19.078,0.00581296,0.21164,1.01883
124.329,19.27219,0.005778195,0.21068,1.01855
126.329,19.46612,0.00581751,0.20886,1.01827
128.329,19.65934,0.004500215,0.20584,1.01798
130.329,19.85289,0.00539323,0.20864,1.01769
132.329,20.0463,0.00578839,0.20943,1.01739
134.329,20.2389,0.005822852,0.2057,1.01709
136.329,20.43062,0.00582,0.20496,1.01679
138.329,20.62324,0.00713002,0.20492,1.01648
140.329,20.81503,0.004170043,0.20432,1.01617
142.329,21.0065,0.004169996,0.20745,1.01585
144.329,21.19729,0.00551822,0.20763,1.01553
146.329,21.38842,0.005437809,0.2067,1.01521
148.329,21.57931,0.003883812,0.20684,1.01488
150.329,21.76975,0.006800223,0.20762,1.01455
152.329,21.96019,0.00779,0.20329,1.01422
154.329,22.1508,0.006480314,0.20294,1.01388
156.329,22.3403,0.003159398,0.2038,1.01353
158.329,22.53194,0.002853675,0.20535,1.01318
160.329,22.72253,0.004169995,0.20558,1.01283
162.329,22.9127,0.00417611,0.20553,1.01248
164.329,23.10264,0.004598675,0.20593,1.01212
166.329,23.29307,0.00416886,0.206,1.01175
168.329,23.48385,0.0041699,0.20726,1.01138
170.329,23.6736,0.004168149,0.20538,1.01101
172.329,23.86438,0.004983432,0.20521,1.01063
174.329,24.05487,0.004170001,0.20297,1.01025
176.329,24.2453,0.005464869,0.20525,1.00986
178.329,24.43586,0.004171101,0.20111,1.00947
180.329,24.6261,0.001565971,0.2004,1.00907
182.329,24.81707,0.001554945,0.19921,1.00867
184.329,25.00639,0.001503939,0.19762,1.00826
186.329,25.19616,0.00284895,0.19718,1.00785
188.329,25.38697,0.00319008,0.19533,1.00744
190.329,25.57689,0.001868971,0.195,1.00702
192.329,25.76681,0.00055,0.19544,1.00659
194.329,25.9561,0.00055,0.19541,1.00617
196.329,26.1461,0.00183995,0.19627,1.00573
198.329,26.33693,0.000540967,0.19817,1.00529
200.329,26.52658,0.001209869,0.20054,1.00485
202.329,26.7166,-0.000756529,0.20054,1.0044
204.329,26.90635,-0.002089501,0.20131,1.00394
206.329,27.09635,-0.00274863,0.2027,1.00349
208.329,27.2865,-0.000103121,0.20345,1.00302
210.329,27.4768,-0.00275,0.20486,1.00255
212.329,27.667,-0.003739986,0.20591,1.00208
214.329,27.85707,-0.00448386,0.20868,1.0016
216.329,28.0475,-0.0080275,0.21145,1.00111
218.329,28.238,-0.00866996,0.21519,1.00062
220.329,28.42802,-0.01000113,0.21877,1.00013
222.329,28.6181,-0.01264309,0.22152,0.99963
224.329,28.80808,-0.01291919,0.22478,0.99912
226.329,28.99826,-0.0182093,0.2298,0.99861
228.329,29.1887,-0.01953998,0.23291,0.99809
230.329,29.37915,-0.02349634,0.23969,0.99757
232.329,29.569,-0.02612531,0.24678,0.99704
234.329,29.7598,-0.03006784,0.2519,0.99651
236.329,29.94977,-0.03466753,0.25932,0.99597
238.329,30.14077,-0.04034039,0.26924,0.99542
240.329,30.3313,-0.04334027,0.28085,0.99487
242.329,30.52155,-0.0499863,0.28919,0.99432
244.329,30.7117,-0.05545331,0.30267,0.99376
246.329,30.9022,-0.06234573,0.31564,0.99319
248.329,31.0926,-0.06898654,0.33006,0.99262
250.329,31.2831,-0.0777409,0.34429,0.99204
252.329,31.47395,-0.08507118,0.36419,0.99145
254.329,31.6641,-0.09259161,0.38482,0.99086
256.329,31.8549,-0.10405,0.40358,0.99027
258.329,32.0458,-0.11528,0.42478,0.98966
260.329,32.23679,-0.12584,0.44702,0.98906
262.329,32.4268,-0.14138,0.47352,0.98844
264.329,32.6181,-0.1527,0.49987,0.98782
266.329,32.80925,-0.16701,0.52988,0.9872
268.329,32.99998,-0.18213,0.56189,0.98656
270.329,33.19072,-0.19846,0.59711,0.98592
272.329,33.38234,-0.2157,0.63552,0.98528
274.329,33.57377,-0.23543,0.67846,0.98463
276.329,33.76515,-0.25529,0.7212,0.98397
278.329,33.95648,-0.27955,0.76408,0.98331
280.329,34.1482,-0.30476,0.81281,0.98264
282.329,34.34025,-0.33235,0.86324,0.98196
284.329,34.53187,-0.36344,0.91376,0.98128
286.329,34.72396,-0.39223,0.96178,0.98059
288.329,34.91604,-0.4309,1.02272,0.9799
290.329,35.10798,-0.46743,1.08655,0.9792
292.329,35.29998,-0.50775,1.14922,0.97849
294.329,35.4929,-0.55144,1.21479,0.97778
296.329,35.6857,-0.59741,1.27794,0.97706
298.329,35.87843,-0.64739,1.34365,0.97633
300.329,36.07115,-0.70223,1.39939,0.97559
302.329,36.26378,-0.75774,1.44111,0.97485
304.329,36.45661,-0.81564,1.45186,0.97411
306.329,36.6494,-0.87348,1.4183,0.97335
308.329,36.84152,-0.92815,1.34133,0.97259
310.329,37.03318,-0.97745,1.19482,0.97183
312.329,37.2245,-1.02569,1.05553,0.97105
314.329,37.4154,-1.06703,0.88851,0.97027
316.329,37.60675,-1.10332,0.71938,0.96949
318.329,37.79685,-1.13416,0.56901,0.96869
320.329,37.98836,-1.16031,0.45146,0.96789
322.329,38.17965,-1.18365,0.37741,0.96709
324.329,38.3713,-1.20228,0.31889,0.96627
326.329,38.56361,-1.22198,0.2832,0.96545
328.329,38.75544,-1.23994,0.25017,0.96462
330.329,38.9477,-1.25364,0.2278,0.96379
332.329,39.13917,-1.2696,0.20941,0.96295
334.329,39.33198,-1.28384,0.19322,0.9621
336.329,39.52412,-1.29884,0.18239,0.96124
338.329,39.71676,-1.31381,0.173,0.96038
340.329,39.90975,-1.32869,0.16971,0.95951
342.329,40.10255,-1.34595,0.17266,0.95863
344.329,40.29533,-1.36433,0.17937,0.95775
346.329,40.48834,-1.38314,0.18883,0.95686
348.329,40.6815,-1.40667,0.20366,0.95596
350.329,40.87502,-1.42969,0.22426,0.95505
352.329,41.06834,-1.45817,0.24833,0.95414
354.329,41.26252,-1.49007,0.27235,0.95322
356.329,41.45559,-1.5269,0.30111,0.95229
358.329,41.64952,-1.57032,0.33595,0.95136
360.329,41.8435,-1.61981,0.3737,0.95042
362.329,42.03755,-1.67294,0.40941,0.94947
364.329,42.23214,-1.73671,0.4544,0.94851
366.329,42.42622,-1.80676,0.50216,0.94755
368.329,42.62065,-1.88555,0.54675,0.94658
370.329,42.815,-1.97285,0.58708,0.9456
372.329,43.00972,-2.07212,0.62675,0.94462
374.329,43.20452,-2.17623,0.66217,0.94363
376.329,43.39921,-2.28736,0.69063,0.94263
378.329,43.59406,-2.40559,0.70458,0.94162
380.329,43.78909,-2.52948,0.71097,0.9406
382.329,43.98377,-2.65377,0.70197,0.93958
384.329,44.1785,-2.78241,0.67614,0.93855
386.329,44.3728,-2.9076,0.64181,0.93752
388.329,44.56715,-3.02607,0.59209,0.93647
390.329,44.76163,-3.13626,0.53398,0.93542
392.329,44.9557,-3.23939,0.47424,0.93436
394.329,45.15012,-3.33011,0.4123,0.93329
396.329,45.3433,-3.41072,0.35389,0.93222
398.329,45.53752,-3.4856,0.30232,0.93114
400.329,45.73149,-3.54644,0.25605,0.93005
402.329,45.92572,-3.59873,0.21782,0.92895
404.329,46.12018,-3.64482,0.18125,0.92785
406.329,46.31462,-3.68197,0.14921,0.92674
408.329,46.50857,-3.71474,0.12346,0.92562
410.329,46.70312,-3.73918,0.1039,0.92449
412.329,46.8979,-3.75988,0.08403711,0.92336
414.329,47.09245,-3.77832,0.06968226,0.92221
416.329,47.28718,-3.7914,0.05754166,0.92106
418.329,47.48225,-3.80225,0.05021738,0.91991
420.329,47.6775,-3.81159,0.03779442,0.91874
422.329,47.87254,-3.81864,0.03660787,0.91757
424.329,48.06777,-3.82435,0.02921804,0.91639
426.329,48.26285,-3.82616,0.02737207,0.9152
428.329,48.45847,-3.8322,0.02434952,0.91401
430.329,48.6532,-3.83493,0.0209378,0.9128
432.329,48.84881,-3.83845,0.02246796,0.91159
434.329,49.0445,-3.83977,0.02516376,0.91037
436.329,49.24007,-3.84142,0.0235385,0.90915
438.329,49.43554,-3.84142,0.02434963,0.90791
440.329,49.6314,-3.84272,0.02468288,0.90667
442.329,49.82715,-3.84439,0.02575703,0.90542
444.329,50.02353,-3.84834,0.0230783,0.90417
446.329,50.21967,-3.84702,0.02221965,0.9029
448.329,50.41572,-3.84702,0.01920013,0.90163
450.329,50.61215,-3.84832,0.01903871,0.90035
452.329,50.80843,-3.84866,0.01919503,0.89907
454.329,51.00499,-3.84998,0.01984361,0.89777
456.329,51.20105,-3.85063,0.01928126,0.89647
458.329,51.3977,-3.85097,0.01770196,0.89516
460.329,51.59415,-3.85228,0.01765639,0.89384
462.329,51.7911,-3.85196,0.01845191,0.89252
464.329,51.98794,-3.85163,0.01803185,0.89118
466.329,52.18461,-3.85162,0.01696373,0.88984
468.329,52.38172,-3.85426,0.01646481,0.88849
470.329,52.578,-3.85682,0.01766523,0.88714
472.329,52.7756,-3.85622,0.01844639,0.88577
474.329,52.97277,-3.85756,0.01848425,0.8844
476.329,53.16953,-3.85689,0.02148148,0.88302
478.329,53.36665,-3.85953,0.02007759,0.88164
480.329,53.5634,-3.85821,0.01994764,0.88024
482.329,53.76002,-3.85822,0.02075152,0.87884
484.329,53.9572,-3.85954,0.01943805,0.87743
486.329,54.15425,-3.86086,0.02082265,0.87602
488.329,54.35134,-3.86215,0.01996993,0.87459
490.329,54.54845,-3.86351,0.01892482,0.87316
492.329,54.74578,-3.8621,0.02169303,0.87172
494.329,54.9426,-3.86448,0.02001846,0.87028
494.829,54.99171,-3.86448,0.01929549,0.86991