Folder: fsri_materials_database/01_Data/PUF_Mattress_Pad/STA/N2/10K_min (part 2)

File: PUF_Mattress_Pad_STA_N2_10KData_22091_R3.csv
##Temp./Â°C,Time/min,Mass loss(subtr.2)/mg,DSC(subtr.2)/(mW/mg),Sensit./(uV/mW)
50.254,10.01,-0.01241,-0.002972018,1.02683
52.254,11.23661,-0.01412436,0.08568515,1.02666
54.254,11.63292,-0.01550699,0.13099,1.02649
56.254,11.9595,-0.01396236,0.15879,1.02631
58.254,12.25005,-0.01659173,0.17975,1.02613
60.254,12.52315,-0.01769317,0.19226,1.02595
62.254,12.78351,-0.01790806,0.20467,1.02576
64.254,13.03453,-0.01677131,0.21388,1.02557
66.254,13.2775,-0.01672836,0.22156,1.02538
68.254,13.51564,-0.01710845,0.23101,1.02519
70.254,13.7483,-0.01856071,0.23461,1.02499
72.254,13.97688,-0.01845183,0.23985,1.02479
74.254,14.20301,-0.01814285,0.24808,1.02459
76.254,14.4236,-0.01885785,0.25073,1.02439
78.254,14.64298,-0.02119274,0.25361,1.02418
80.254,14.86,-0.01987102,0.25463,1.02397
82.254,15.07303,-0.01869639,0.25884,1.02376
84.254,15.28559,-0.0199026,0.26224,1.02354
86.254,15.49514,-0.02122005,0.26487,1.02333
88.254,15.7025,-0.02163991,0.26813,1.0231
90.254,15.9084,-0.02050323,0.26912,1.02288
92.254,16.11277,-0.01988348,0.27131,1.02265
94.254,16.31571,-0.02065686,0.27251,1.02242
96.254,16.51621,-0.02151655,0.27424,1.02219
98.254,16.7167,-0.01987069,0.276,1.02195
100.254,16.91649,-0.02119258,0.27611,1.02171
102.254,17.11601,-0.02138781,0.27894,1.02147
104.254,17.31348,-0.0211904,0.28207,1.02122
106.254,17.5108,-0.02250435,0.28173,1.02097
108.254,17.70774,-0.02251195,0.28347,1.02071
110.254,17.90449,-0.02251331,0.28373,1.02046
112.254,18.10041,-0.02250213,0.28549,1.0202
114.254,18.29571,-0.02228456,0.28754,1.01993
116.254,18.49127,-0.02252598,0.28859,1.01967
118.254,18.68656,-0.02383035,0.28831,1.0194
120.254,18.88125,-0.02295531,0.2902,1.01912
122.254,19.07574,-0.022513,0.29115,1.01884
124.254,19.2703,-0.02383071,0.29045,1.01856
126.254,19.46375,-0.02383704,0.29034,1.01828
128.254,19.65748,-0.02382734,0.29092,1.01799
130.254,19.8507,-0.02526038,0.28866,1.0177
132.254,20.04385,-0.02395316,0.28994,1.0174
134.254,20.2374,-0.02523643,0.29164,1.0171
136.254,20.42933,-0.02520898,0.28997,1.0168
138.254,20.62138,-0.02525999,0.29181,1.01649
140.254,20.81363,-0.02525898,0.29173,1.01618
142.254,21.0049,-0.02512033,0.29375,1.01586
144.254,21.19661,-0.02524977,0.29293,1.01554
146.254,21.38706,-0.02525001,0.29286,1.01522
148.254,21.57852,-0.02525982,0.29493,1.01489
150.254,21.7695,-0.02656781,0.29931,1.01456
152.254,21.9602,-0.02657835,0.29976,1.01423
154.254,22.15094,-0.02658002,0.30097,1.01389
156.254,22.34155,-0.0269,0.3009,1.01355
158.254,22.53145,-0.02789012,0.30376,1.0132
160.254,22.72176,-0.02657473,0.30566,1.01285
162.254,22.91242,-0.02757046,0.30413,1.01249
164.254,23.1034,-0.02784184,0.30421,1.01213
166.254,23.29341,-0.02795614,0.30762,1.01176
168.254,23.48333,-0.02789047,0.30978,1.01139
170.254,23.67387,-0.02783582,0.3113,1.01102
172.254,23.86431,-0.0278979,0.30875,1.01064
174.254,24.0551,-0.02788983,0.30941,1.01026
176.254,24.24534,-0.02788996,0.30917,1.00987
178.254,24.43545,-0.02954001,0.30859,1.00948
180.254,24.62589,-0.02955625,0.30739,1.00909
182.254,24.81599,-0.02975475,0.3083,1.00868
184.254,25.00615,-0.02954001,0.30746,1.00828
186.254,25.19584,-0.03085996,0.30781,1.00787
188.254,25.38628,-0.03087036,0.30782,1.00745
190.254,25.57647,-0.0308595,0.30892,1.00703
192.254,25.76613,-0.03216793,0.31031,1.00661
194.254,25.95611,-0.03249056,0.31245,1.00618
196.254,26.1459,-0.0328805,0.31192,1.00575
198.254,26.33604,-0.03237494,0.31521,1.00531
200.254,26.5259,-0.03382,0.31496,1.00486
202.254,26.71575,-0.03546002,0.31784,1.00442
204.254,26.90555,-0.03546161,0.32085,1.00396
206.254,27.09481,-0.03776991,0.32071,1.0035
208.254,27.2848,-0.03667753,0.32427,1.00304
210.254,27.4752,-0.03837503,0.32491,1.00257
212.254,27.66643,-0.040735,0.3262,1.0021
214.254,27.8566,-0.04008024,0.32982,1.00162
216.254,28.04635,-0.04271003,0.33107,1.00113
218.254,28.2368,-0.04402968,0.33448,1.00064
220.254,28.42704,-0.04534334,0.33819,1.00015
222.254,28.6167,-0.0473192,0.34243,0.99965
224.254,28.80643,-0.05030369,0.34752,0.99914
226.254,28.997,-0.05320069,0.3544,0.99863
228.254,29.18667,-0.05584974,0.35694,0.99811
230.254,29.37732,-0.05895877,0.36263,0.99759
232.254,29.56679,-0.06110273,0.36879,0.99706
234.254,29.75713,-0.06576099,0.37854,0.99653
236.254,29.94685,-0.06971883,0.38565,0.99599
238.254,30.13682,-0.07389894,0.39338,0.99545
240.254,30.3269,-0.07877739,0.40338,0.9949
242.254,30.51748,-0.08402079,0.4128,0.99434
244.254,30.7077,-0.09096884,0.42584,0.99378
246.254,30.8979,-0.09646932,0.43755,0.99321
248.254,31.0887,-0.10473,0.45531,0.99264
250.254,31.2793,-0.11344,0.46863,0.99206
252.254,31.47018,-0.12123,0.48498,0.99148
254.254,31.6604,-0.13002,0.50181,0.99089
256.254,31.85121,-0.13955,0.52516,0.99029
258.254,32.04217,-0.14985,0.54276,0.98969
260.254,32.23349,-0.16135,0.57043,0.98908
262.254,32.42434,-0.17521,0.59689,0.98847
264.254,32.61502,-0.18597,0.62217,0.98785
266.254,32.8058,-0.20078,0.65407,0.98722
268.254,32.9968,-0.21737,0.68696,0.98659
270.254,33.18821,-0.23269,0.72327,0.98595
272.254,33.37912,-0.24888,0.75885,0.9853
274.254,33.57011,-0.27008,0.79849,0.98465
276.254,33.76218,-0.29192,0.84062,0.984
278.254,33.95328,-0.31385,0.88647,0.98333
280.254,34.14533,-0.3399,0.93308,0.98267
282.254,34.33718,-0.36801,0.985,0.98199
284.254,34.52885,-0.39752,1.03623,0.98131
286.254,34.7213,-0.42999,1.09181,0.98062
288.254,34.91349,-0.46384,1.1497,0.97993
290.254,35.1055,-0.49924,1.21043,0.97922
292.254,35.29752,-0.54047,1.27558,0.97852
294.254,35.49004,-0.58384,1.34557,0.9778
296.254,35.684,-0.62935,1.39227,0.97708
298.254,35.87619,-0.67968,1.45349,0.97636
300.254,36.06926,-0.72995,1.51381,0.97562
302.254,36.2618,-0.78302,1.56161,0.97488
304.254,36.45462,-0.83859,1.57432,0.97414
306.254,36.647,-0.89276,1.55105,0.97338
308.254,36.83934,-0.94275,1.36921,0.97262
310.254,37.03072,-0.98758,1.25877,0.97186
312.254,37.22156,-1.03196,1.15699,0.97108
314.254,37.41335,-1.07335,1.01107,0.9703
316.254,37.60455,-1.10836,0.85252,0.96952
318.254,37.79562,-1.13936,0.70601,0.96872
320.254,37.98648,-1.1647,0.57897,0.96792
322.254,38.1775,-1.18512,0.49782,0.96712
324.254,38.3688,-1.20612,0.44767,0.9663
326.254,38.56021,-1.22257,0.4099,0.96548
328.254,38.75158,-1.23928,0.38095,0.96465
330.254,38.9443,-1.25526,0.35747,0.96382
332.254,39.13674,-1.27108,0.33834,0.96298
334.254,39.32914,-1.28736,0.32527,0.96213
336.254,39.52183,-1.30057,0.31565,0.96127
338.254,39.71438,-1.31673,0.3067,0.96041
340.254,39.90742,-1.33245,0.3022,0.95954
342.254,40.10034,-1.35015,0.30241,0.95866
344.254,40.29317,-1.3681,0.3065,0.95778
346.254,40.48641,-1.38739,0.31287,0.95689
348.254,40.67982,-1.40872,0.32641,0.95599
350.254,40.87277,-1.43324,0.34099,0.95509
352.254,41.0661,-1.46159,0.36197,0.95417
354.254,41.25939,-1.49394,0.38665,0.95326
356.254,41.45272,-1.52908,0.40726,0.95233
358.254,41.64634,-1.56977,0.43494,0.95139
360.254,41.84024,-1.61662,0.46401,0.95045
362.254,42.03425,-1.67086,0.49552,0.94951
364.254,42.22817,-1.72905,0.53109,0.94855
366.254,42.4227,-1.79597,0.56589,0.94759
368.254,42.6173,-1.87191,0.59941,0.94662
370.254,42.81154,-1.95243,0.63319,0.94564
372.254,43.0063,-2.0435,0.66283,0.94465
374.254,43.20115,-2.14237,0.68677,0.94366
376.254,43.39543,-2.2464,0.71008,0.94266
378.254,43.5901,-2.35897,0.72879,0.94166
380.254,43.78451,-2.47584,0.73346,0.94064
382.254,43.97868,-2.59715,0.73217,0.93962
384.254,44.1725,-2.71871,0.71065,0.93859
386.254,44.3678,-2.8386,0.67799,0.93755
388.254,44.56235,-2.95579,0.63927,0.93651
390.254,44.7564,-3.06656,0.59372,0.93546
392.254,44.9507,-3.16943,0.5401,0.9344
394.254,45.1454,-3.26548,0.48579,0.93333
396.254,45.33981,-3.35106,0.43503,0.93226
398.254,45.53406,-3.42395,0.38462,0.93118
400.254,45.7286,-3.49016,0.34073,0.93009
402.254,45.92295,-3.54697,0.29915,0.92899
404.254,46.1175,-3.59537,0.25841,0.92789
406.254,46.312,-3.63669,0.22954,0.92678
408.254,46.50658,-3.67156,0.19862,0.92566
410.254,46.70053,-3.7002,0.178,0.92453
412.254,46.8951,-3.72305,0.15586,0.9234
414.254,47.08977,-3.74204,0.1415,0.92226
416.254,47.2841,-3.75766,0.12616,0.92111
418.254,47.47872,-3.76927,0.11434,0.91995
420.254,47.67407,-3.7799,0.10203,0.91878
422.254,47.86933,-3.78675,0.0937584,0.91761
424.254,48.06449,-3.79397,0.08877138,0.91643
426.254,48.26048,-3.79718,0.08813317,0.91525
428.254,48.45608,-3.80108,0.08297416,0.91405
430.254,48.65222,-3.80508,0.07870401,0.91285
432.254,48.8483,-3.80636,0.07772123,0.91164
434.254,49.04444,-3.81035,0.07556959,0.91042
436.254,49.2405,-3.81171,0.07451396,0.90919
438.254,49.4364,-3.81233,0.07413811,0.90796
440.254,49.63282,-3.81378,0.07364981,0.90672
442.254,49.8288,-3.81496,0.07457569,0.90547
444.254,50.02497,-3.81694,0.07484971,0.90421
446.254,50.22105,-3.81702,0.07678584,0.90295
448.254,50.41707,-3.81784,0.07862336,0.90168
450.254,50.61343,-3.81925,0.07855611,0.9004
452.254,50.8093,-3.81925,0.07651354,0.89911
454.254,51.0054,-3.81957,0.07936748,0.89782
456.254,51.20155,-3.82188,0.07705463,0.89652
458.254,51.39763,-3.82112,0.07782653,0.89521
460.254,51.5944,-3.8232,0.07808624,0.89389
462.254,51.7909,-3.82321,0.07781436,0.89257
464.254,51.9876,-3.82321,0.07893199,0.89123
466.254,52.18422,-3.82452,0.07753287,0.88989
468.254,52.3805,-3.82584,0.07897681,0.88854
470.254,52.57689,-3.82684,0.07814757,0.88719
472.254,52.7737,-3.82683,0.08007326,0.88583
474.254,52.97085,-3.82683,0.08004541,0.88445
476.254,53.16786,-3.82815,0.07905116,0.88308
478.254,53.3642,-3.82891,0.08159638,0.88169
480.254,53.56185,-3.83078,0.08193974,0.8803
482.254,53.75923,-3.83078,0.08229541,0.8789
484.254,53.9564,-3.8321,0.08311648,0.87749
486.254,54.1537,-3.83347,0.08254251,0.87607
488.254,54.3512,-3.83275,0.08416485,0.87465
490.254,54.54871,-3.83341,0.0855783,0.87322
492.254,54.7461,-3.83374,0.08487193,0.87178
494.254,54.9441,-3.83605,0.08519172,0.87033
494.754,54.99349,-3.83638,0.08660289,0.86997