Folder: fsri_materials_database/01_Data/Plastic_Laminate_Countertop_Particle_Board/MCC

Note: 01_Data/README.md
# Materials and Products Database
## 01_Data

Raw data generated from each apparatus are included here in plain-text format. The data is organized first by material, next by the short name of test apparatus used, and where applicable additional filtering by test settings.

### material.json

Each material directory contains a json file of the same name as the material. This file links the data stored in the repository as well as data and graphs produced by the accompanying scripts (__02_Scripts__) to the respective landing page for the material on the front-end website.

File: Plastic_Laminate_Countertop_Particle_Board_MCC_30K_min_211216_R3.txt
Sample ID:	C:\MCC\MCC Cal\Test\Countertop_Plastic_LaminateB_MCC_30K_min_211216_R3.txt
Sample Weight (mg):	4.08
Heating Rate (C/s):	0.5
Combustor Temp (C):	900
N2 Flow Rate (cc/min):	80
O2 Flow Rate (cc/min):	20
Calibration File:	C:\MCC\MCC Cal\Coeff1 JN10440_30_210304.txt.txt
T Correction Coefficients:	0	1.024463	0
Time Shift (s):	14
*
Time (s)	Temperature (C)	N2 flow rate (cc/min)	O2 flow rate (cc/min)	Flow Rate (cc/min)	Oxygen (%)	HRR (W/g)	Heating rate (C/s)
-0.001	112.906	80.003	19.995	103.040	19.977	-0.210	-0.022
8.000	112.908	80.003	19.995	103.030	19.972	0.223	0.023
16.000	112.900	80.004	19.996	103.102	19.963	0.930	0.038
24.000	113.128	80.003	19.996	103.143	19.952	1.797	0.044
32.000	113.690	80.005	19.995	103.129	19.950	1.899	0.079
39.999	114.517	80.006	19.994	103.199	19.941	2.665	0.107
47.999	115.669	80.005	19.994	103.226	19.932	3.387	0.155
55.999	117.248	80.002	19.994	103.259	19.926	3.830	0.239
63.999	119.172	80.003	19.995	103.258	19.926	3.848	0.279
71.999	121.454	80.004	19.994	103.260	19.928	3.702	0.313
79.999	124.032	80.002	19.992	103.264	19.927	3.751	0.343
87.999	126.810	80.002	19.995	103.275	19.929	3.582	0.343
95.999	129.864	80.003	19.994	103.279	19.925	3.931	0.401
103.999	132.992	80.005	19.995	103.293	19.922	4.137	0.394
111.999	136.323	80.003	19.996	103.299	19.929	3.610	0.428
119.999	139.819	80.005	19.996	103.293	19.931	3.462	0.451
127.999	143.397	80.006	19.994	103.295	19.920	4.332	0.479
136.000	147.073	80.005	19.993	103.279	19.922	4.167	0.489
144.000	150.827	80.004	19.995	103.290	19.926	3.852	0.433
152.000	154.795	80.003	19.995	103.278	19.920	4.314	0.536
160.000	158.606	80.004	19.994	103.275	19.921	4.257	0.472
168.000	162.465	80.004	19.994	103.270	19.920	4.277	0.465
176.000	166.480	80.005	19.995	103.264	19.921	4.178	0.479
184.000	170.414	80.005	19.995	103.262	19.914	4.739	0.486
192.000	174.427	80.005	19.994	103.258	19.918	4.458	0.579
200.000	178.261	80.004	19.994	103.261	19.915	4.705	0.516
208.000	182.204	80.005	19.995	103.256	19.915	4.709	0.489
216.000	186.137	80.005	19.995	103.255	19.913	4.830	0.490
224.000	190.120	80.004	19.994	103.259	19.909	5.129	0.474
232.000	194.017	80.004	19.995	103.264	19.910	5.077	0.468
240.000	197.936	80.003	19.994	103.257	19.907	5.322	0.485
248.000	201.881	80.004	19.994	103.252	19.901	5.767	0.471
256.000	205.864	80.005	19.994	103.254	19.905	5.519	0.503
264.000	209.843	80.004	19.995	103.252	19.898	6.024	0.504
272.000	213.811	80.004	19.995	103.252	19.895	6.235	0.524
280.000	217.741	80.002	19.995	103.248	19.893	6.465	0.484
288.000	221.702	80.006	19.995	103.242	19.886	7.015	0.513
296.000	225.731	80.004	19.995	103.249	19.880	7.458	0.524
304.000	229.716	80.003	19.995	103.255	19.880	7.456	0.468
312.000	233.786	80.002	19.994	103.257	19.863	8.806	0.509
320.000	237.838	80.003	19.994	103.256	19.859	9.145	0.574
328.000	241.718	80.004	19.995	103.257	19.849	9.921	0.509
336.000	245.793	80.002	19.994	103.258	19.842	10.440	0.507
344.000	249.862	80.006	19.995	103.259	19.829	11.491	0.527
352.000	253.929	80.004	19.995	103.259	19.817	12.428	0.490
360.000	257.941	80.005	19.994	103.280	19.801	13.711	0.479
368.000	262.012	80.006	19.995	103.283	19.786	14.862	0.500
376.000	266.135	80.005	19.995	103.297	19.763	16.694	0.514
384.000	270.207	80.003	19.995	103.297	19.741	18.405	0.487
392.000	274.289	80.004	19.995	103.297	19.717	20.315	0.484
400.000	278.375	80.003	19.996	103.297	19.698	21.860	0.512
408.000	282.330	80.004	19.996	103.294	19.677	23.520	0.486
416.000	286.233	80.002	19.995	103.302	19.660	24.866	0.492
424.000	290.192	80.006	19.995	103.324	19.634	26.908	0.487
432.000	294.077	80.004	19.994	103.317	19.612	28.620	0.464
440.000	298.036	80.005	19.994	103.324	19.590	30.389	0.507
448.000	301.971	80.005	19.994	103.344	19.563	32.515	0.505
456.000	305.869	80.006	19.995	103.336	19.538	34.493	0.507
464.000	309.848	80.005	19.994	103.348	19.511	36.594	0.481
472.000	313.854	80.003	19.996	103.363	19.483	38.876	0.505
480.000	317.868	80.005	19.995	103.360	19.452	41.315	0.492
488.000	321.983	80.003	19.994	103.374	19.419	43.936	0.501
496.000	326.051	80.002	19.996	103.375	19.385	46.628	0.513
504.000	330.146	80.002	19.995	103.386	19.351	49.291	0.501
512.000	334.352	80.004	19.993	103.415	19.310	52.515	0.533
520.000	338.484	80.004	19.994	103.411	19.271	55.645	0.510
528.000	342.537	80.006	19.995	103.419	19.230	58.915	0.498
536.000	346.632	80.007	19.995	103.434	19.193	61.798	0.512
544.000	350.723	80.005	19.994	103.449	19.147	65.443	0.578
552.000	354.675	80.004	19.995	103.447	19.112	68.234	0.371
560.000	358.650	80.004	19.995	103.454	19.097	69.422	0.480
568.000	362.660	80.004	19.994	103.452	19.101	69.083	0.489
576.000	366.785	80.002	19.994	103.406	19.138	66.083	0.471
584.000	370.966	80.002	19.996	103.344	19.222	59.415	0.516
592.000	375.120	80.005	19.997	103.295	19.353	49.079	0.515
600.000	379.182	80.004	19.995	103.250	19.501	37.397	0.478
608.000	383.342	80.005	19.995	103.263	19.641	26.345	0.527
616.000	387.371	80.007	19.994	103.180	19.742	18.376	0.485
624.000	391.452	80.005	19.993	103.181	19.799	13.869	0.491
632.000	395.556	80.003	19.995	103.182	19.826	11.688	0.519
640.000	399.596	80.005	19.994	103.183	19.840	10.612	0.473
648.000	403.633	80.006	19.995	103.181	19.846	10.137	0.504
656.000	407.686	80.003	19.995	103.178	19.850	9.832	0.535
664.000	411.720	80.003	19.996	103.179	19.855	9.433	0.491
672.000	415.727	80.005	19.995	103.179	19.856	9.340	0.484
680.000	419.720	80.005	19.994	103.173	19.861	8.970	0.481
688.000	423.693	80.003	19.995	103.178	19.862	8.906	0.484
696.000	427.738	80.008	19.996	103.179	19.868	8.405	0.527
704.000	431.698	80.004	19.993	103.177	19.868	8.403	0.499
712.000	435.770	80.005	19.996	103.179	19.872	8.075	0.496
720.000	439.800	80.005	19.994	103.167	19.876	7.733	0.508
728.000	443.854	80.004	19.994	103.167	19.879	7.523	0.507
736.000	447.925	80.003	19.994	103.174	19.883	7.248	0.476
744.000	451.970	80.003	19.994	103.173	19.889	6.754	0.505
752.000	456.036	80.005	19.995	103.158	19.894	6.369	0.516
760.000	460.101	80.005	19.995	103.169	19.898	5.996	0.471
768.000	464.244	80.006	19.995	103.172	19.900	5.843	0.509
776.000	468.339	80.005	19.995	103.168	19.909	5.194	0.509
784.000	472.444	80.008	19.996	103.162	19.904	5.570	0.523
792.000	476.551	80.005	19.994	103.164	19.905	5.442	0.503
800.000	480.588	80.005	19.994	103.158	19.910	5.062	0.502
808.000	484.668	80.005	19.994	103.160	19.905	5.456	0.525
816.000	488.739	80.004	19.995	103.158	19.905	5.443	0.523
824.000	492.793	80.003	19.995	103.154	19.909	5.185	0.518
832.000	496.884	80.003	19.995	103.159	19.914	4.790	0.515
840.000	501.026	80.006	19.995	103.169	19.913	4.848	0.491
848.000	505.052	80.004	19.995	103.143	19.913	4.859	0.459
856.000	509.164	80.005	19.994	103.149	19.910	5.069	0.526
864.000	513.203	80.006	19.995	103.139	19.908	5.213	0.498
872.000	517.320	80.003	19.995	103.157	19.912	4.930	0.496
880.000	521.424	80.003	19.997	103.140	19.916	4.637	0.498
888.000	525.502	80.003	19.994	103.143	19.912	4.942	0.497
896.000	529.626	80.003	19.994	103.148	19.914	4.734	0.526
904.000	533.712	80.004	19.994	103.148	19.912	4.955	0.492
912.000	537.824	80.004	19.995	103.150	19.913	4.882	0.481
920.000	541.861	80.005	19.994	103.140	19.917	4.562	0.501
928.000	545.914	80.007	19.994	103.148	19.912	4.917	0.495
936.000	550.161	80.004	19.995	103.149	19.909	5.183	0.542
944.000	554.433	80.007	19.996	103.147	19.907	5.323	0.553
952.000	558.727	80.005	19.996	103.161	19.907	5.333	0.528
960.000	563.006	80.002	19.995	103.143	19.907	5.297	0.527
968.000	567.219	80.004	19.995	103.146	19.908	5.256	0.525
976.000	571.436	80.004	19.996	103.138	19.905	5.444	0.531
984.000	575.607	80.004	19.994	103.100	19.913	4.826	0.498
992.000	579.764	80.005	19.993	103.141	19.910	5.090	0.544
1000.000	583.897	80.005	19.994	103.141	19.916	4.586	0.567
1008.000	587.892	80.006	19.995	103.144	19.909	5.138	0.514
1016.000	591.993	80.003	19.994	103.144	19.913	4.880	0.515
1024.000	596.077	80.006	19.993	103.144	19.910	5.108	0.510
1031.999	600.205	80.005	19.992	103.151	19.907	5.341	0.480
1040.000	604.340	80.003	19.995	103.141	19.911	5.007	0.506
1047.999	608.545	80.004	19.996	103.139	19.910	5.090	0.576
1055.999	612.760	80.005	19.996	103.142	19.909	5.178	0.534
1063.999	616.958	80.003	19.995	103.136	19.908	5.213	0.537
1071.999	621.143	80.004	19.996	103.138	19.909	5.153	0.558
1079.999	625.232	80.005	19.996	103.142	19.908	5.209	0.529
1087.999	629.371	80.005	19.995	103.144	19.912	4.949	0.522
1095.999	633.464	80.005	19.994	103.148	19.911	4.981	0.525
1103.999	637.567	80.006	19.994	103.142	19.911	4.996	0.524
1111.999	641.645	80.006	19.995	103.139	19.911	5.032	0.514
1120.000	645.728	80.004	19.995	103.148	19.909	5.131	0.516
1127.999	649.743	80.004	19.995	103.140	19.909	5.191	0.509
1135.999	653.787	80.005	19.995	103.137	19.910	5.045	0.509
1143.999	657.751	80.004	19.994	103.135	19.909	5.125	0.497
1151.999	661.668	80.003	19.996	103.138	19.911	5.020	0.499
1159.999	665.562	80.004	19.995	103.142	19.910	5.082	0.479
1167.999	669.585	80.004	19.995	103.140	19.913	4.878	0.486
1176.000	673.566	80.004	19.995	103.132	19.912	4.927	0.520
1183.999	677.623	80.006	19.994	103.136	19.910	5.041	0.496
1191.999	681.810	80.007	19.995	103.140	19.907	5.279	0.551
1199.999	685.948	80.005	19.994	103.125	19.907	5.288	0.513
1207.999	690.050	80.004	19.995	103.141	19.908	5.213	0.474
1215.999	694.094	80.005	19.994	103.080	19.905	5.440	0.511
1223.999	698.152	80.004	19.994	103.140	19.905	5.473	0.511
1231.999	702.149	80.004	19.994	103.139	19.902	5.715	0.487
1239.999	706.182	80.005	19.996	103.132	19.909	5.126	0.499
1247.999	710.199	80.007	19.994	103.113	19.903	5.658	0.518
1256.000	714.245	80.004	19.996	103.128	19.904	5.552	0.540
1263.999	718.290	80.005	20.000	103.134	19.902	5.694	0.505
1272.000	722.386	80.007	19.994	103.125	19.906	5.401	0.512
1279.999	726.400	80.005	19.994	103.119	19.909	5.143	0.488
1287.999	730.528	80.004	19.994	103.130	19.910	5.118	0.525
1295.999	734.817	80.003	19.996	103.137	19.910	5.090	0.555
1303.999	739.035	80.005	19.996	103.135	19.909	5.129	0.541
1311.999	743.279	80.004	19.995	103.140	19.906	5.365	0.529