Folder: fsri_materials_database/01_Data/Vinyl_Siding/STA/N2/10K_min

Note: 01_Data/README.md
# Materials and Products Database
## 01_Data

Raw data generated from each apparatus are included here in plain-text format. The data is organized first by material, next by the short name of test apparatus used, and where applicable additional filtering by test settings.

### material.json

Each material directory contains a json file of the same name as the material. This file links the data stored in the repository as well as data and graphs produced by the accompanying scripts (__02_Scripts__) to the respective landing page for the material on the front-end website.

File: Vinyl_Siding_STA_N2_10KData_210107_R3.csv
##Temp./Â°C,Time/min,Mass loss(subtr.2)/mg,DSC(subtr.2)/mW,Sensit./(uV/mW)
49.259,10.01,0.02106,-0.19743,0.61828
52.259,12.35709,0.02352227,0.13206,0.61987
55.259,13.043,0.02010111,0.26809,0.62142
58.259,13.5938,0.02360321,0.38597,0.62294
61.259,14.08189,0.02180885,0.44023,0.62443
64.259,14.5306,0.02292838,0.47742,0.62589
67.259,14.95227,0.0251142,0.52592,0.62732
70.259,15.35116,0.02500222,0.55938,0.62871
73.259,15.734,0.02303285,0.60289,0.63008
76.259,16.10143,0.02335518,0.64922,0.63141
79.259,16.45756,0.02205965,0.69594,0.63271
82.259,16.80326,0.0222372,0.73798,0.63398
85.259,17.14038,0.02170732,0.8249,0.63522
88.259,17.46921,0.02205727,0.86839,0.63643
91.259,17.79147,0.02172799,0.8662,0.6376
94.259,18.1069,0.02173289,0.88336,0.63875
97.259,18.41754,0.02315034,0.91574,0.63986
100.259,18.72352,0.02206694,0.95831,0.64094
103.259,19.02656,0.02312505,1.00803,0.64199
106.259,19.32641,0.02183014,1.07271,0.643
109.259,19.62417,0.02052188,1.10871,0.64399
112.259,19.92016,0.02182994,1.17357,0.64494
115.259,20.21399,0.01920004,1.19877,0.64586
118.259,20.50575,0.02185982,1.21009,0.64675
121.259,20.7945,0.02059902,1.21601,0.64761
124.259,21.08296,0.02052684,1.24691,0.64844
127.259,21.3689,0.02052,1.26252,0.64924
130.259,21.65265,0.01679935,1.30102,0.65
133.259,21.93432,0.01820977,1.33762,0.65074
136.259,22.21477,0.01813126,1.36646,0.65144
139.259,22.49286,0.01822528,1.40538,0.65211
142.259,22.77038,0.01821,1.43739,0.65275
145.259,23.04605,0.01715221,1.45865,0.65336
148.259,23.32027,0.01690319,1.47352,0.65394
151.259,23.59375,0.01528677,1.5161,0.65449
154.259,23.86632,0.01689803,1.53091,0.65501
157.259,24.1384,0.01557181,1.551,0.65549
160.259,24.41037,0.0152591,1.60968,0.65595
163.259,24.68234,0.01435134,1.6035,0.65637
166.259,24.9532,0.01414549,1.61724,0.65677
169.259,25.22471,0.01447656,1.62825,0.65714
172.259,25.4965,0.01381662,1.63702,0.65747
175.259,25.7673,0.01317081,1.64952,0.65778
178.259,26.03687,0.01315914,1.67351,0.65805
181.259,26.30632,0.01218027,1.68564,0.6583
184.259,26.57535,0.01085959,1.6772,0.65852
187.259,26.84382,0.01095189,1.69148,0.6587
190.259,27.11197,0.009549999,1.71171,0.65886
193.259,27.3795,0.008520025,1.71354,0.65899
196.259,27.6466,0.008230124,1.71074,0.65909
199.259,27.9138,0.00822671,1.70735,0.65917
202.259,28.1806,0.007239771,1.71115,0.65921
205.259,28.4474,0.00593,1.71318,0.65922
208.259,28.71436,0.004631486,1.72873,0.65921
211.259,28.9813,0.00330825,1.72812,0.65917
214.259,29.24816,0.00335126,1.7207,0.6591
217.259,29.51523,0.002968316,1.73979,0.65901
220.259,29.7826,0.001051864,1.7522,0.65888
223.259,30.0497,-0.0006500005,1.78912,0.65873
226.259,30.3166,-0.001969786,1.8052,0.65855
229.259,30.58365,-0.002956914,1.81258,0.65835
232.259,30.85075,-0.004931208,1.83728,0.65812
235.259,31.1178,-0.008989172,1.83208,0.65786
238.259,31.38526,-0.01161646,1.86043,0.65757
241.259,31.6529,-0.01647114,1.90504,0.65726
244.259,31.92045,-0.02117199,1.93376,0.65693
247.259,32.18868,-0.02746967,1.97677,0.65657
250.259,32.45686,-0.03661517,1.99716,0.65618
253.259,32.7248,-0.04309173,2.00752,0.65577
256.259,32.99345,-0.05287874,2.00433,0.65533
259.259,33.26167,-0.06145805,2.00406,0.65487
262.259,33.5293,-0.07188791,2.01868,0.65438
265.259,33.7973,-0.08318876,2.05314,0.65387
268.259,34.0651,-0.09617621,2.07848,0.65334
271.259,34.333,-0.11333,2.12284,0.65278
274.259,34.6017,-0.13091,2.12324,0.6522
277.259,34.87028,-0.15995,2.19091,0.6516
280.259,35.13969,-0.20155,2.58856,0.65097
283.259,35.4093,-0.25872,3.10457,0.65032
286.259,35.68042,-0.33018,3.55333,0.64965
289.259,35.95208,-0.42193,3.9311,0.64895
292.259,36.22384,-0.52795,4.23373,0.64824
295.259,36.49548,-0.6486,4.47201,0.6475
298.259,36.7669,-0.78507,4.65148,0.64674
301.259,37.03918,-0.92882,4.67968,0.64596
304.259,37.31107,-1.07322,4.56526,0.64516
307.259,37.58298,-1.21052,4.35851,0.64434
310.259,37.8547,-1.33434,4.07748,0.6435
313.259,38.12677,-1.44659,3.7886,0.64264
316.259,38.39878,-1.54774,3.51965,0.64175
319.259,38.67058,-1.63718,3.28306,0.64085
322.259,38.94242,-1.7147,3.07711,0.63993
325.259,39.21485,-1.78561,2.87554,0.639
328.259,39.48722,-1.84671,2.69102,0.63804
331.259,39.75987,-1.90424,2.52103,0.63706
334.259,40.03263,-1.95325,2.30117,0.63607
337.259,40.30596,-1.99635,2.08183,0.63506
340.259,40.5789,-2.03516,1.88202,0.63403
343.259,40.85262,-2.06556,1.65288,0.63299
346.259,41.12682,-2.09435,1.4577,0.63192
349.259,41.40117,-2.1153,1.2956,0.63084
352.259,41.67592,-2.13483,1.17385,0.62975
355.259,41.95062,-2.1478,1.09684,0.62864
358.259,42.22639,-2.15868,1.0712,0.62751
361.259,42.5018,-2.16853,1.06867,0.62637
364.259,42.77848,-2.17606,1.10313,0.62521
367.259,43.0556,-2.18267,1.12,0.62404
370.259,43.33286,-2.18922,1.13948,0.62286
373.259,43.61039,-2.19733,1.16072,0.62166
376.259,43.88858,-2.20522,1.18714,0.62044
379.259,44.1676,-2.21323,1.20331,0.61921
382.259,44.44668,-2.22077,1.21801,0.61797
385.259,44.7259,-2.23107,1.24631,0.61672
388.259,45.00515,-2.24066,1.28077,0.61545
391.259,45.28455,-2.25385,1.31639,0.61418
394.259,45.56507,-2.26836,1.33424,0.61289
397.259,45.84594,-2.28251,1.36759,0.61158
400.259,46.12762,-2.29871,1.3799,0.61027
403.259,46.40948,-2.31745,1.3904,0.60895
406.259,46.69189,-2.33581,1.3853,0.60761
409.259,46.97465,-2.3602,1.3666,0.60626
412.259,47.25708,-2.37494,1.3347,0.60491
415.259,47.53955,-2.39428,1.27915,0.60354
418.259,47.82182,-2.41369,1.22464,0.60217
421.259,48.10457,-2.43398,1.17122,0.60078
424.259,48.38722,-2.45634,1.12136,0.59939
427.259,48.67078,-2.47641,1.04205,0.59799
430.259,48.9549,-2.49775,1.0079,0.59657
433.259,49.2401,-2.52487,0.98583,0.59515
436.259,49.525,-2.55151,0.99343,0.59373
439.259,49.81066,-2.57933,1.01067,0.59229
442.259,50.09635,-2.61221,1.08377,0.59085
445.259,50.38216,-2.65089,1.19011,0.5894
448.259,50.6682,-2.69028,1.32849,0.58795
451.259,50.9548,-2.73477,1.48455,0.58649
454.259,51.24195,-2.78175,1.5895,0.58502
457.259,51.5289,-2.82941,1.6786,0.58354
460.259,51.81711,-2.87771,1.76299,0.58206
463.259,52.1049,-2.92434,1.86932,0.58058
466.259,52.39343,-2.97138,1.90496,0.57909
469.259,52.68263,-3.01507,1.87783,0.5776
472.259,52.97156,-3.05231,1.84555,0.5761
475.259,53.26059,-3.09036,1.80702,0.57459
478.259,53.55005,-3.12332,1.77193,0.57309
481.259,53.8396,-3.1519,1.71266,0.57158
484.259,54.12992,-3.17968,1.67161,0.57006
487.259,54.4199,-3.20216,1.60635,0.56855
490.259,54.7104,-3.22371,1.55109,0.56703
493.259,55.0011,-3.23869,1.4969,0.5655
496.259,55.2917,-3.25078,1.48222,0.56398
499.259,55.58351,-3.26279,1.45713,0.56245
502.259,55.8753,-3.27257,1.41676,0.56093
505.259,56.1669,-3.28059,1.40917,0.5594
508.259,56.4589,-3.28733,1.39804,0.55786
511.259,56.751,-3.29277,1.37772,0.55633
514.259,57.04342,-3.29803,1.36801,0.5548
517.259,57.33595,-3.30198,1.36131,0.55327
520.259,57.62843,-3.30593,1.35073,0.55173
523.259,57.9214,-3.30686,1.32011,0.5502
526.259,58.2143,-3.31866,1.35322,0.54866
529.259,58.50934,-3.3112,1.34023,0.54713
532.259,58.804,-3.3153,1.36168,0.5456
535.259,59.0983,-3.31803,1.33284,0.54407
538.259,59.39394,-3.32007,1.35893,0.54254
541.259,59.6892,-3.32304,1.34946,0.54101
544.259,59.9842,-3.32305,1.32602,0.53948
547.259,60.2797,-3.32437,1.34442,0.53795
550.259,60.57578,-3.32796,1.3661,0.53643
553.259,60.87155,-3.32798,1.38393,0.53491
556.259,61.16803,-3.3293,1.4016,0.53339
559.259,61.46386,-3.33063,1.40899,0.53187
562.259,61.76101,-3.33401,1.45743,0.53035
565.259,62.0584,-3.33533,1.50491,0.52884
568.259,62.3555,-3.33533,1.54332,0.52733
571.259,62.65339,-3.33319,1.59111,0.52583
574.259,62.95143,-3.34139,1.59583,0.52433
577.259,63.2499,-3.34038,1.62125,0.52283
580.259,63.54844,-3.34314,1.60445,0.52133
583.259,63.8475,-3.34574,1.613,0.51984
586.259,64.14693,-3.3464,1.73558,0.51836
589.259,64.44649,-3.34772,1.8019,0.51688
592.259,64.7457,-3.35035,1.83787,0.5154
595.259,65.04558,-3.35246,1.88134,0.51393
598.259,65.34574,-3.3531,1.94424,0.51246
601.259,65.64514,-3.3559,2.03771,0.511
604.259,65.94564,-3.35767,2.14585,0.50954
607.259,66.24681,-3.35968,2.32004,0.50809
610.259,66.5476,-3.36098,2.45001,0.50664
613.259,66.84884,-3.36297,2.38228,0.5052
616.259,67.14952,-3.36298,2.0118,0.50377
619.259,67.4512,-3.368,1.85381,0.50234
622.259,67.7535,-3.36823,1.81445,0.50092
625.259,68.05584,-3.37087,1.80106,0.4995
628.259,68.3584,-3.37317,1.79381,0.49809
631.259,68.66068,-3.3735,1.78691,0.49669
634.259,68.96305,-3.37481,1.81062,0.49529
637.259,69.26547,-3.37745,1.84966,0.4939
640.259,69.56819,-3.37958,1.85369,0.49252
643.259,69.8716,-3.3814,1.89367,0.49114
646.259,70.17511,-3.37976,1.93716,0.48977
649.259,70.47919,-3.38403,1.96334,0.48841
652.259,70.78291,-3.38532,2.00605,0.48705
655.259,71.0874,-3.38698,2.05088,0.4857
658.259,71.39149,-3.39061,2.02995,0.48436
661.259,71.69582,-3.38993,2.06023,0.48303
664.259,72.00063,-3.39033,2.08919,0.4817
667.259,72.3048,-3.39454,2.12599,0.48038
670.259,72.60844,-3.39456,2.15257,0.47907
673.259,72.91298,-3.39576,2.23137,0.47777
676.259,73.21773,-3.39653,2.30997,0.47647
679.259,73.5234,-3.39907,2.40138,0.47519
682.259,73.82946,-3.40066,2.56409,0.47391
685.259,74.13608,-3.40362,2.95724,0.47263
688.259,74.4426,-3.40498,3.42647,0.47137
691.259,74.74892,-3.40892,3.52165,0.47012
694.259,75.05465,-3.4152,3.16938,0.46887
697.259,75.36062,-3.42115,3.01772,0.46763
700.259,75.66752,-3.42777,2.93567,0.4664
703.259,75.9749,-3.43395,2.80522,0.46518
706.259,76.2821,-3.4394,2.7271,0.46396
709.259,76.58889,-3.44326,2.61957,0.46276
712.259,76.89627,-3.44835,2.52371,0.46156
715.259,77.2037,-3.45255,2.50517,0.46037
718.259,77.5117,-3.45649,2.53017,0.45919
721.259,77.81894,-3.45137,2.52723,0.45802
724.259,78.12711,-3.46387,2.53246,0.45685
727.259,78.43496,-3.46656,2.51978,0.4557
730.259,78.7423,-3.46872,2.49925,0.45455
733.259,79.05026,-3.47024,2.5541,0.45341
736.259,79.35983,-3.47299,2.54552,0.45228
739.259,79.66929,-3.473,2.61873,0.45116
742.259,79.9781,-3.47464,2.6471,0.45005
742.459,79.99898,-3.47463,2.64716,0.44998

File: Vinyl_Siding_STA_N2_10KData_213006_R1.csv
##Temp./Â°C,Time/min,Mass loss(subtr.2)/mg,DSC(subtr.2)/mW,Sensit./(uV/mW)
49.336,10.01,0.00932,-0.07156482,0.61832
52.336,12.35464,0.00942918,0.18332,0.61991
55.336,13.03795,0.009798729,0.29868,0.62146
58.336,13.58845,0.008663373,0.37386,0.62298
61.336,14.0775,0.0112921,0.42337,0.62447
64.336,14.52661,0.01130095,0.44474,0.62593
67.336,14.94796,0.008670428,0.45219,0.62735
70.336,15.3483,0.0101996,0.49204,0.62875
73.336,15.7304,0.009982064,0.51838,0.63011
76.336,16.09846,0.01122171,0.52985,0.63145
79.336,16.4539,0.009980016,0.56362,0.63275
82.336,16.8005,0.01000108,0.60649,0.63402
85.336,17.1377,0.009946367,0.66017,0.63525
88.336,17.46586,0.009983061,0.61769,0.63646
91.336,17.78675,0.009517905,0.51066,0.63763
94.336,18.10323,0.009980087,0.41493,0.63877
97.336,18.41359,0.01118107,0.38452,0.63989
100.336,18.72018,0.009978581,0.38683,0.64096
103.336,19.02358,0.00861817,0.39644,0.64201
106.336,19.32382,0.009962333,0.40157,0.64303
109.336,19.622,0.01006301,0.40712,0.64401
112.336,19.9178,0.009980016,0.40125,0.64497
115.336,20.21159,0.009397793,0.55645,0.64589
118.336,20.50371,0.008659929,0.69766,0.64678
121.336,20.79365,0.01003573,0.7177,0.64764
124.336,21.0822,0.009965916,0.72905,0.64846
127.336,21.36795,0.008671519,0.74144,0.64926
130.336,21.6522,0.008669573,0.74832,0.65002
133.336,21.9341,0.008660289,0.78446,0.65075
136.336,22.2146,0.00801612,0.79549,0.65146
139.336,22.4936,0.00734996,0.81447,0.65213
142.336,22.76994,0.00702,0.90226,0.65277
145.336,23.0457,0.00867126,0.92567,0.65338
148.336,23.32039,0.00801049,0.92527,0.65395
151.336,23.5951,0.006689967,0.94726,0.6545
154.336,23.86843,0.00802767,0.9526,0.65502
157.336,24.1406,0.008009998,0.95649,0.6555
160.336,24.4125,0.005714009,0.96324,0.65596
163.336,24.6843,0.00591128,0.98398,0.65638
166.336,24.95544,0.005700275,0.96322,0.65678
169.336,25.22666,0.00669297,0.9652,0.65714
172.336,25.49756,0.005376567,0.9571,0.65748
175.336,25.76794,0.005367859,0.96596,0.65778
178.336,26.03784,0.00574461,0.98303,0.65806
181.336,26.308,0.005369952,0.99365,0.65831
184.336,26.57684,0.004048234,1.01562,0.65852
187.336,26.84463,0.00405954,1.03349,0.65871
190.336,27.11252,0.004720089,1.01408,0.65887
193.336,27.3799,0.003063278,1.0234,0.659
196.336,27.6474,0.002737228,1.02778,0.6591
199.336,27.91507,-0.001491404,1.0275,0.65917
202.336,28.1823,0.00329022,1.01371,0.65921
205.336,28.4493,0.001970001,1.01049,0.65922
208.336,28.71712,-0.001241287,0.99757,0.65921
211.336,28.98387,7.095951e-05,0.99371,0.65917
214.336,29.2509,-0.002519941,1.00755,0.6591
217.336,29.5178,-0.002525895,1.00512,0.659
220.336,29.78428,-0.002511377,0.98281,0.65888
223.336,30.05175,-0.004170005,0.98728,0.65873
226.336,30.31857,-0.00644703,0.96897,0.65855
229.336,30.58577,-0.006802012,0.97095,0.65834
232.336,30.8527,-0.008849775,0.97416,0.65811
235.336,31.12025,-0.01043524,0.97653,0.65785
238.336,31.3878,-0.01437022,0.98036,0.65757
241.336,31.6551,-0.01843429,1.02517,0.65726
244.336,31.92333,-0.02451212,1.04552,0.65692
247.336,32.1914,-0.02882675,1.04617,0.65656
250.336,32.45929,-0.03571385,1.06462,0.65617
253.336,32.7278,-0.03779666,1.06664,0.65576
256.336,32.99558,-0.04831646,1.05654,0.65532
259.336,33.2633,-0.06216667,1.07907,0.65486
262.336,33.5324,-0.06183633,1.08301,0.65437
265.336,33.80104,-0.06812612,1.07695,0.65386
268.336,34.06935,-0.08054704,1.10056,0.65333
271.336,34.33848,-0.09387684,1.11284,0.65277
274.336,34.6075,-0.10818,1.10622,0.65219
277.336,34.8765,-0.13044,1.1396,0.65158
280.336,35.14593,-0.16093,1.45006,0.65095
283.336,35.41623,-0.20339,1.84163,0.6503
286.336,35.68721,-0.25828,2.16889,0.64963
289.336,35.95803,-0.32357,2.42583,0.64894
292.336,36.2293,-0.404,2.63247,0.64822
295.336,36.5011,-0.4922,2.81302,0.64748
298.336,36.7723,-0.5956,2.93751,0.64672
301.336,37.0443,-0.70506,3.00882,0.64594
304.336,37.3163,-0.81517,2.9464,0.64514
307.336,37.58706,-0.92081,2.77525,0.64432
310.336,37.8585,-1.01891,2.55818,0.64348
313.336,38.1302,-1.10526,2.3352,0.64261
316.336,38.40213,-1.183,2.13559,0.64173
319.336,38.67385,-1.2532,1.92103,0.64083
322.336,38.94625,-1.31362,1.77171,0.63991
325.336,39.21882,-1.36775,1.60229,0.63897
328.336,39.49153,-1.41492,1.46089,0.63801
331.336,39.7646,-1.45779,1.32646,0.63704
334.336,40.03755,-1.49584,1.15298,0.63604
337.336,40.31094,-1.53072,0.98717,0.63503
340.336,40.58489,-1.55741,0.81237,0.634
343.336,40.85866,-1.58043,0.62355,0.63296
346.336,41.13284,-1.60408,0.50321,0.6319
349.336,41.40721,-1.6208,0.35798,0.63082
352.336,41.6817,-1.63585,0.23537,0.62972
355.336,41.95747,-1.64543,0.19221,0.62861
358.336,42.2327,-1.6555,0.16984,0.62748
361.336,42.509,-1.66355,0.167,0.62634
364.336,42.78545,-1.66806,0.18072,0.62518
367.336,43.06269,-1.67205,0.20034,0.62401
370.336,43.3399,-1.67852,0.19966,0.62283
373.336,43.6175,-1.68375,0.20365,0.62162
376.336,43.8961,-1.68779,0.21542,0.62041
379.336,44.1749,-1.69524,0.21011,0.61918
382.336,44.45411,-1.69988,0.19761,0.61794
385.336,44.73381,-1.70706,0.25349,0.61669
388.336,45.01277,-1.71319,0.28477,0.61542
391.336,45.2934,-1.72273,0.2998,0.61414
394.336,45.57292,-1.73218,0.30009,0.61285
397.336,45.8536,-1.7424,0.31896,0.61155
400.336,46.13394,-1.75365,0.34125,0.61024
403.336,46.4157,-1.76532,0.3363,0.60891
406.336,46.69765,-1.78051,0.34675,0.60758
409.336,46.97987,-1.79401,0.33849,0.60623
412.336,47.2627,-1.80807,0.29647,0.60487
415.336,47.54568,-1.8212,0.25506,0.60351
418.336,47.8279,-1.8366,0.21986,0.60213
421.336,48.11138,-1.85123,0.16879,0.60075
424.336,48.3939,-1.86568,0.11512,0.59935
427.336,48.67752,-1.88002,0.07225233,0.59795
430.336,48.96157,-1.89899,0.06463263,0.59654
433.336,49.246,-1.91683,0.06250414,0.59512
436.336,49.5304,-1.93289,0.06157247,0.59369
439.336,49.81538,-1.94037,0.08224927,0.59226
442.336,50.10025,-1.98303,0.15357,0.59081
445.336,50.38637,-2.00949,0.23264,0.58937
448.336,50.67272,-2.04159,0.32827,0.58791
451.336,50.95915,-2.07771,0.44677,0.58645
454.336,51.2457,-2.11238,0.51747,0.58498
457.336,51.533,-2.15158,0.59413,0.58351
460.336,51.82015,-2.18531,0.66335,0.58203
463.336,52.10792,-2.22307,0.75496,0.58054
466.336,52.396,-2.26156,0.75797,0.57905
469.336,52.6845,-2.29333,0.74876,0.57756
472.336,52.97303,-2.32542,0.72975,0.57606
475.336,53.2618,-2.35034,0.70949,0.57456
478.336,53.55196,-2.37751,0.67469,0.57305
481.336,53.8419,-2.39847,0.64499,0.57154
484.336,54.131,-2.42112,0.58668,0.57002
487.336,54.42095,-2.43775,0.54695,0.56851
490.336,54.7113,-2.45019,0.5055,0.56699
493.336,55.00131,-2.467,0.44019,0.56547
496.336,55.2915,-2.47707,0.40067,0.56394
499.336,55.58231,-2.48271,0.35822,0.56241
502.336,55.8738,-2.49092,0.33376,0.56089
505.336,56.16567,-2.49719,0.32728,0.55936
508.336,56.457,-2.50462,0.3139,0.55782
511.336,56.749,-2.50596,0.29197,0.55629
514.336,57.0415,-2.51126,0.29169,0.55476
517.336,57.3341,-2.51519,0.29148,0.55323
520.336,57.6272,-2.51652,0.28079,0.55169
523.336,57.91976,-2.51916,0.27316,0.55016
526.336,58.21291,-2.5218,0.26595,0.54862
529.336,58.5059,-2.52311,0.26105,0.54709
532.336,58.7995,-2.52538,0.27109,0.54556
535.336,59.09358,-2.52888,0.29633,0.54403
538.336,59.3878,-2.52991,0.31752,0.5425
541.336,59.682,-2.53194,0.31259,0.54097
544.336,59.9765,-2.53186,0.31791,0.53944
547.336,60.27157,-2.53463,0.31883,0.53791
550.336,60.5675,-2.53739,0.37262,0.53639
553.336,60.8635,-2.53704,0.41685,0.53487
556.336,61.15961,-2.53966,0.4133,0.53335
559.336,61.4571,-2.53934,0.41921,0.53183
562.336,61.75485,-2.54143,0.43322,0.53031
565.336,62.0519,-2.54341,0.44009,0.5288
568.336,62.3489,-2.5448,0.42898,0.52729
571.336,62.64624,-2.545,0.42171,0.52579
574.336,62.94376,-2.54753,0.42666,0.52429
577.336,63.24216,-2.54758,0.46341,0.52279
580.336,63.54081,-2.55217,0.47744,0.5213
583.336,63.8401,-2.55075,0.50634,0.51981
586.336,64.13846,-2.55342,0.53656,0.51832
589.336,64.43745,-2.55338,0.56115,0.51684
592.336,64.73727,-2.5547,0.57656,0.51536
595.336,65.0372,-2.55631,0.64013,0.51389
598.336,65.3373,-2.55536,0.72396,0.51242
601.336,65.63675,-2.55929,0.80317,0.51096
604.336,65.93681,-2.56041,0.91955,0.50951
607.336,66.23705,-2.56073,1.074,0.50805
610.336,66.53809,-2.56438,1.19253,0.50661
613.336,66.839,-2.5637,1.14825,0.50517
616.336,67.13946,-2.56644,0.86825,0.50373
619.336,67.4405,-2.56553,0.78205,0.5023
622.336,67.74243,-2.57061,0.80431,0.50088
625.336,68.0442,-2.57192,0.83398,0.49947
628.336,68.3457,-2.5743,0.84726,0.49806
631.336,68.64703,-2.57456,0.86569,0.49665
634.336,68.94914,-2.57522,0.90179,0.49525
637.336,69.2521,-2.57587,0.92089,0.49386
640.336,69.55536,-2.58113,0.9615,0.49248
643.336,69.85834,-2.57982,0.9876,0.4911
646.336,70.1623,-2.58024,1.02961,0.48973
649.336,70.46506,-2.58167,1.05683,0.48837
652.336,70.76913,-2.58343,1.12829,0.48702
655.336,71.07248,-2.58496,1.15825,0.48567
658.336,71.37729,-2.58566,1.23561,0.48433
661.336,71.68215,-2.58684,1.29632,0.48299
664.336,71.9866,-2.58564,1.37066,0.48167
667.336,72.29085,-2.58926,1.39697,0.48035
670.336,72.59559,-2.59046,1.44637,0.47904
673.336,72.901,-2.59056,1.50926,0.47773
676.336,73.2063,-2.59056,1.57229,0.47644
679.336,73.5103,-2.5929,1.64752,0.47515
682.336,73.81715,-2.59467,1.81698,0.47387
685.336,74.12278,-2.59668,2.11401,0.4726
688.336,74.429,-2.59844,2.48997,0.47134
691.336,74.73639,-2.60141,2.69877,0.47008
694.336,75.04353,-2.60562,2.58405,0.46884
697.336,75.3498,-2.61096,2.58425,0.4676
700.336,75.65714,-2.61507,2.64504,0.46637
703.336,75.96315,-2.61881,2.6464,0.46515
706.336,76.27042,-2.62152,2.33688,0.46393
709.336,76.57759,-2.62634,2.35013,0.46273
712.336,76.88479,-2.63422,2.33854,0.46153
715.336,77.19224,-2.63421,2.28697,0.46034
718.336,77.4996,-2.63735,2.31758,0.45916
721.336,77.80751,-2.63938,2.30408,0.45799
724.336,78.11546,-2.643,2.36652,0.45682
727.336,78.4243,-2.64563,2.34573,0.45567
730.336,78.73231,-2.64739,2.39204,0.45452
733.336,79.04056,-2.6475,2.40315,0.45339
736.336,79.3489,-2.65309,2.44392,0.45226
739.336,79.6577,-2.65308,2.43892,0.45113
742.336,79.96712,-2.65443,2.43809,0.45002
742.636,79.9983,-2.65544,2.44467,0.44991