Folder: fsri_materials_database/01_Data/Vinyl_Siding/STA/N2/10K_min (part 2)

File: Vinyl_Siding_STA_N2_10KData_213006_R2.csv
##Temp./Â°C,Time/min,Mass loss(subtr.2)/mg,DSC(subtr.2)/mW,Sensit./(uV/mW)
49.307,10.01,0.01952,-0.00370173,0.61831
52.207,12.32907,0.021952,0.27911,0.61984
55.107,12.99992,0.0237996,0.41744,0.62134
58.007,13.5379,0.02481284,0.4986,0.62281
60.907,14.01418,0.02492464,0.56437,0.62426
63.807,14.45403,0.02450786,0.58851,0.62567
66.707,14.86457,0.0269088,0.6258,0.62706
69.607,15.2552,0.02709093,0.66425,0.62841
72.507,15.62754,0.02721038,0.69512,0.62974
75.407,15.9869,0.02893123,0.73061,0.63104
78.307,16.33465,0.02857079,0.75539,0.6323
81.207,16.67127,0.027289,0.80065,0.63354
84.107,16.99931,0.02885732,0.85809,0.63475
87.007,17.31973,0.02875047,0.89732,0.63593
89.907,17.6329,0.02906309,0.93075,0.63708
92.807,17.94019,0.03037958,0.9408,0.6382
95.707,18.24284,0.03039091,0.94484,0.63929
98.607,18.54117,0.03001761,0.97661,0.64035
101.507,18.8345,0.03052593,1.02058,0.64138
104.407,19.1273,0.03070995,1.06405,0.64238
107.307,19.41655,0.02979013,1.1231,0.64335
110.207,19.70443,0.03083397,1.16975,0.64429
113.107,19.98941,0.02951,1.18873,0.64521
116.007,20.2736,0.03258941,1.22056,0.64609
118.907,20.5554,0.03224275,1.23677,0.64694
121.807,20.83523,0.03271608,1.25817,0.64777
124.707,21.11326,0.03257,1.27983,0.64856
127.607,21.38898,0.0300223,1.29697,0.64933
130.507,21.66348,0.03223983,1.32961,0.65006
133.407,21.93599,0.03228357,1.35396,0.65077
136.307,22.20656,0.03225129,1.38134,0.65145
139.207,22.47559,0.03367,1.39541,0.6521
142.107,22.74312,0.03235973,1.42694,0.65272
145.007,23.0095,0.03272154,1.42724,0.65331
147.907,23.2754,0.03375545,1.44629,0.65387
150.807,23.54025,0.03280037,1.48429,0.65441
153.707,23.80378,0.03543139,1.5005,0.65491
156.607,24.06756,0.03228792,1.52755,0.65539
159.507,24.33024,0.03224,1.54259,0.65584
162.407,24.59318,0.03176399,1.53987,0.65626
165.307,24.85599,0.03324,1.56146,0.65665
168.207,25.11809,0.03193982,1.57607,0.65701
171.107,25.38009,0.03192,1.59356,0.65735
174.007,25.64104,0.03322155,1.6117,0.65765
176.907,25.90311,0.03326476,1.6278,0.65793
179.807,26.16379,0.03356,1.64544,0.65818
182.707,26.4241,0.03224,1.64026,0.65841
185.607,26.68416,0.03355999,1.63652,0.6586
188.507,26.94367,0.03008663,1.63174,0.65877
191.407,27.20226,0.03257893,1.6599,0.65892
194.307,27.46064,0.03225001,1.66357,0.65903
197.207,27.71864,0.03126,1.66809,0.65912
200.107,27.9764,0.03102517,1.66863,0.65918
203.007,28.23447,0.02943167,1.6835,0.65922
205.907,28.492,0.02929,1.69936,0.65922
208.807,28.75045,0.02929,1.6966,0.65921
211.707,29.00828,0.02863,1.69239,0.65916
214.607,29.26639,0.0283,1.70153,0.65909
217.507,29.52528,0.02732,1.69947,0.659
220.407,29.78326,0.02599659,1.67632,0.65887
223.307,30.0423,0.02568449,1.71053,0.65873
226.207,30.30075,0.02467988,1.70876,0.65856
229.107,30.5594,0.02336,1.71032,0.65836
232.007,30.81812,0.02170999,1.72757,0.65814
234.907,31.07638,0.01910038,1.73108,0.65789
237.807,31.33465,0.01914066,1.75153,0.65762
240.707,31.5933,0.01842665,1.79723,0.65732
243.607,31.852,0.00972042,1.82592,0.657
246.507,32.11039,0.00579724,1.84048,0.65666
249.407,32.36914,-0.0024835,1.86195,0.65629
252.307,32.62786,-0.009172325,1.87817,0.6559
255.207,32.88625,-0.01338819,1.88297,0.65549
258.107,33.14517,-0.02258683,1.89118,0.65505
261.007,33.40417,-0.02501735,1.90217,0.65459
263.907,33.66326,-0.03331296,1.92588,0.65411
266.807,33.9225,-0.04216391,1.94547,0.6536
269.707,34.18161,-0.05205231,1.9715,0.65307
272.607,34.4412,-0.06537336,1.98249,0.65252
275.507,34.70069,-0.08154345,1.9595,0.65195
278.407,34.96046,-0.10875,2.10074,0.65136
281.307,35.2207,-0.14377,2.46083,0.65075
284.207,35.4818,-0.18523,2.83896,0.65011
287.107,35.7431,-0.24051,3.15591,0.64945
290.007,36.005,-0.30646,3.40554,0.64878
292.907,36.2671,-0.38507,3.59546,0.64808
295.807,36.52947,-0.47218,3.76052,0.64736
298.707,36.79205,-0.57154,3.88332,0.64663
301.607,37.05482,-0.67562,3.91294,0.64587
304.507,37.3177,-0.78304,3.81504,0.64509
307.407,37.58024,-0.8857,3.64237,0.6443
310.307,37.8429,-0.97589,3.4497,0.64348
313.207,38.10524,-1.06018,3.22404,0.64265
316.107,38.36827,-1.12976,3.01985,0.6418
319.007,38.6312,-1.20055,2.8577,0.64093
321.907,38.89436,-1.25933,2.68998,0.64004
324.807,39.1574,-1.30998,2.54789,0.63914
327.707,39.42132,-1.35875,2.3961,0.63822
330.607,39.68614,-1.39956,2.25574,0.63728
333.507,39.9505,-1.43795,2.09902,0.63632
336.407,40.2145,-1.47085,1.92588,0.63535
339.307,40.47927,-1.49593,1.76524,0.63436
342.207,40.74375,-1.51888,1.61429,0.63335
345.107,41.0092,-1.5408,1.46604,0.63233
348.007,41.2741,-1.56337,1.33677,0.6313
350.907,41.53934,-1.57879,1.24216,0.63024
353.807,41.80567,-1.58966,1.16292,0.62918
356.707,42.07165,-1.59934,1.12047,0.6281
359.607,42.3386,-1.60708,1.09968,0.627
362.507,42.60585,-1.61192,1.1121,0.62589
365.407,42.87396,-1.61791,1.12358,0.62477
368.307,43.14236,-1.62414,1.13291,0.62363
371.207,43.41025,-1.62796,1.14115,0.62248
374.107,43.67876,-1.63367,1.15609,0.62131
377.007,43.9474,-1.63907,1.163,0.62014
379.907,44.21728,-1.64299,1.15783,0.61895
382.807,44.4871,-1.6497,1.17624,0.61775
385.707,44.75692,-1.65614,1.19877,0.61653
388.607,45.0274,-1.66501,1.21521,0.61531
391.507,45.29818,-1.67093,1.2321,0.61407
394.407,45.56965,-1.68202,1.24747,0.61282
397.307,45.8417,-1.6941,1.26184,0.61156
400.207,46.1138,-1.70391,1.27469,0.61029
403.107,46.38609,-1.71832,1.28398,0.60901
406.007,46.65849,-1.73142,1.26717,0.60772
408.907,46.93119,-1.74655,1.26476,0.60642
411.807,47.2039,-1.76352,1.24403,0.60511
414.707,47.47609,-1.77432,1.21347,0.60379
417.607,47.7489,-1.79218,1.14645,0.60247
420.507,48.0222,-1.80612,1.1043,0.60113
423.407,48.2956,-1.82162,1.04507,0.59978
426.307,48.56989,-1.83679,0.99954,0.59843
429.207,48.8439,-1.85542,0.95826,0.59707
432.107,49.11837,-1.87101,0.9324,0.5957
435.007,49.39351,-1.88855,0.91189,0.59432
437.907,49.66918,-1.91237,0.92088,0.59294
440.807,49.9453,-1.93161,0.94117,0.59155
443.707,50.22135,-1.95976,0.99564,0.59015
446.607,50.49758,-1.98612,1.08739,0.58875
449.507,50.7741,-2.01726,1.19332,0.58734
452.407,51.05125,-2.05012,1.2656,0.58592
455.307,51.3288,-2.08556,1.37472,0.5845
458.207,51.60682,-2.12348,1.40661,0.58308
461.107,51.88483,-2.15807,1.45926,0.58164
464.007,52.16312,-2.19099,1.55851,0.58021
466.907,52.44158,-2.22586,1.59047,0.57877
469.807,52.72085,-2.2587,1.56356,0.57732
472.707,52.9994,-2.28619,1.52775,0.57587
475.607,53.2791,-2.31287,1.48862,0.57442
478.507,53.55859,-2.33611,1.45595,0.57296
481.407,53.8384,-2.35722,1.4078,0.5715
484.307,54.11821,-2.37788,1.36051,0.57004
487.207,54.3986,-2.39511,1.32715,0.56857
490.107,54.67944,-2.40737,1.28168,0.5671
493.007,54.9607,-2.4198,1.2386,0.56563
495.907,55.24181,-2.43221,1.19147,0.56416
498.807,55.5234,-2.4403,1.16227,0.56268
501.707,55.8051,-2.44497,1.13754,0.56121
504.607,56.087,-2.45003,1.13332,0.55973
507.507,56.3696,-2.45748,1.10955,0.55825
510.407,56.6524,-2.46139,1.11417,0.55677
513.307,56.93466,-2.4669,1.11359,0.55529
516.207,57.21702,-2.46946,1.1061,0.5538
519.107,57.49974,-2.4721,1.12312,0.55232
522.007,57.7827,-2.47363,1.10468,0.55084
524.907,58.0657,-2.47488,1.09749,0.54936
527.807,58.3493,-2.4762,1.09453,0.54787
530.707,58.6336,-2.47817,1.06815,0.54639
533.607,58.91826,-2.4795,1.01822,0.54491
536.507,59.2027,-2.48142,1.01231,0.54343
539.407,59.4871,-2.48313,1.02562,0.54195
542.307,59.7723,-2.48439,1.04197,0.54047
545.207,60.058,-2.4865,1.04897,0.539
548.107,60.34326,-2.48965,1.05364,0.53752
551.007,60.6289,-2.48702,1.09683,0.53605
553.907,60.91531,-2.48965,1.11736,0.53458
556.807,61.2021,-2.49495,1.1667,0.53311
559.707,61.48921,-2.49067,1.20106,0.53164
562.607,61.77632,-2.4938,1.20625,0.53018
565.507,62.06351,-2.49317,1.20915,0.52872
568.407,62.3513,-2.49447,1.21017,0.52726
571.307,62.63941,-2.49689,1.19733,0.5258
574.207,62.92722,-2.49809,1.21018,0.52435
577.107,63.2152,-2.49821,1.1966,0.5229
580.007,63.50322,-2.5023,1.19681,0.52146
582.907,63.79212,-2.50094,1.17753,0.52002
585.807,64.08129,-2.50249,1.2198,0.51858
588.707,64.37108,-2.5038,1.26888,0.51715
591.607,64.6613,-2.50477,1.42005,0.51572
594.507,64.9512,-2.50708,1.56031,0.5143
597.407,65.24207,-2.50627,1.61857,0.51288
600.307,65.53242,-2.5079,1.64942,0.51146
603.207,65.82315,-2.51006,1.7427,0.51005
606.107,66.11341,-2.5127,1.85291,0.50865
609.007,66.40441,-2.51142,1.95219,0.50725
611.907,66.69532,-2.51269,2.01579,0.50585
614.807,66.9863,-2.51467,1.86627,0.50446
617.707,67.27717,-2.51598,1.65562,0.50308
620.607,67.56896,-2.51729,1.62157,0.5017
623.507,67.86027,-2.51864,1.5781,0.50033
626.407,68.15181,-2.52124,1.5854,0.49896
629.307,68.44542,-2.5216,1.59487,0.4976
632.207,68.7389,-2.52421,1.62922,0.49625
635.107,69.0318,-2.52621,1.65043,0.4949
638.007,69.33439,-2.52552,1.64842,0.49355
640.907,69.62783,-2.52667,1.67191,0.49222
643.807,69.9214,-2.52752,1.6867,0.49089
646.707,70.21433,-2.5275,1.71246,0.48956
649.607,70.5077,-2.53013,1.76299,0.48825
652.507,70.8014,-2.53057,1.76772,0.48694
655.407,71.0952,-2.53276,1.80905,0.48564
658.307,71.38924,-2.5331,1.86541,0.48434
661.207,71.6833,-2.53441,1.90926,0.48305
664.107,71.97807,-2.53671,1.92501,0.48177
667.007,72.27301,-2.53598,1.93869,0.48049
669.907,72.56736,-2.53934,1.96843,0.47922
672.807,72.86206,-2.54066,1.97936,0.47796
675.707,73.157,-2.54066,2.06931,0.47671
678.607,73.4525,-2.54196,2.19276,0.47546
681.507,73.74813,-2.54329,2.30596,0.47423
684.407,74.04425,-2.5446,2.54645,0.47299
687.307,74.34025,-2.54869,2.89979,0.47177
690.207,74.63717,-2.54778,3.16681,0.47055
693.107,74.93324,-2.55338,3.11704,0.46935
696.007,75.22945,-2.55602,2.98846,0.46815
698.907,75.52603,-2.55867,3.04096,0.46695
701.807,75.82253,-2.56642,3.10203,0.46577
704.707,76.119,-2.56819,3.08731,0.46459
707.607,76.41557,-2.57078,3.08412,0.46342
710.507,76.712,-2.57616,3.05316,0.46226
713.407,77.00893,-2.58014,2.9636,0.4611
716.307,77.3058,-2.58268,2.86776,0.45996
719.207,77.60351,-2.58482,2.8144,0.45882
722.107,77.90154,-2.58751,2.77437,0.45769
725.007,78.1994,-2.59177,2.75208,0.45657
727.907,78.4974,-2.59243,2.76655,0.45545
730.807,78.79567,-2.58936,2.818,0.45434
733.707,79.0939,-2.59484,2.78863,0.45324
736.607,79.3927,-2.59847,2.78629,0.45215
739.507,79.69157,-2.59818,2.7937,0.45107
742.407,79.98955,-2.59956,2.77035,0.45
742.507,79.9999,-2.59956,2.77391,0.44996