Folder: fsri_materials_database/01_Data/Vinyl_Siding/STA/N2/30K_min

Note: 01_Data/README.md
# Materials and Products Database
## 01_Data

Raw data generated from each apparatus are included here in plain-text format. The data is organized first by material, next by the short name of test apparatus used, and where applicable additional filtering by test settings.

### material.json

Each material directory contains a json file of the same name as the material. This file links the data stored in the repository as well as data and graphs produced by the accompanying scripts (__02_Scripts__) to the respective landing page for the material on the front-end website.

File: Vinyl_Siding_STA_N2_30KData_210207_R1.csv
##Temp./Â°C,Time/min,Mass loss(subtr.2)/mg,DSC(subtr.2)/mW,Sensit./(uV/mW)
50.619,10.00917,0.00767,-0.11135,0.6235
53.519,11.54822,0.007496526,0.20787,0.62347
56.419,11.8932,0.0075417,0.43786,0.62342
59.319,12.1449,0.0059811,0.62817,0.62336
62.219,12.3547,0.00596845,0.80444,0.62328
65.119,12.54141,0.00599952,0.92493,0.6232
68.019,12.7128,0.003715671,0.99077,0.6231
70.919,12.8744,0.006535464,1.04684,0.62299
73.819,13.0288,0.00449209,1.10935,0.62286
76.719,13.1769,0.004776381,1.15143,0.62273
79.619,13.32076,0.00503929,1.21272,0.62258
82.519,13.46061,0.004509774,1.288,0.62242
85.419,13.5965,0.005490619,1.39523,0.62225
88.319,13.7291,0.004378182,1.50481,0.62206
91.219,13.8581,0.004140045,1.57752,0.62187
94.119,13.98385,0.004377263,1.62075,0.62166
97.019,14.10648,0.004874679,1.65908,0.62144
99.919,14.2265,0.0040621,1.71408,0.6212
102.819,14.34394,0.004093441,1.79254,0.62096
105.719,14.4595,0.0040628,1.89198,0.6207
108.619,14.5725,0.0044925,1.9993,0.62043
111.519,14.68345,0.004047335,2.11209,0.62016
114.419,14.79261,0.003380754,2.2411,0.61986
117.319,14.9,0.002879282,2.33307,0.61956
120.219,15.00564,0.004256968,2.40238,0.61925
123.119,15.1097,0.00550854,2.47935,0.61892
126.019,15.2121,0.00415,2.54467,0.61859
128.919,15.3129,0.00413538,2.60522,0.61824
131.819,15.4121,0.00413905,2.67033,0.61788
134.719,15.51034,0.002492577,2.76232,0.61751
137.619,15.607,0.00284977,2.84383,0.61713
140.519,15.7027,0.004196519,2.89592,0.61674
143.419,15.79747,0.002912464,2.97043,0.61634
146.319,15.8912,0.00417042,3.03832,0.61593
149.219,15.98391,0.002844705,3.10305,0.61551
152.119,16.07595,0.002789583,3.17843,0.61507
155.019,16.16733,0.004169957,3.29655,0.61463
157.919,16.25806,0.00327922,3.34382,0.61418
160.819,16.348,0.001538281,3.41526,0.61371
163.719,16.43778,0.00415121,3.49082,0.61324
166.619,16.52683,0.004134341,3.53126,0.61275
169.519,16.6155,0.002850477,3.57607,0.61226
172.419,16.70364,0.002849885,3.6381,0.61176
175.319,16.79105,0.001531284,3.68916,0.61124
178.219,16.87781,0.002464795,3.74962,0.61072
181.119,16.96434,0.003492404,3.7768,0.61019
184.019,17.05039,0.00213384,3.81169,0.60964
186.919,17.13583,0.00263893,3.83524,0.60909
189.819,17.22056,0.00153009,3.85426,0.60853
192.719,17.30499,0.00153,3.88632,0.60796
195.619,17.38898,0.00153,3.93668,0.60738
198.519,17.47256,0.00153,3.96475,0.60679
201.419,17.55576,0.00153,3.99052,0.60619
204.319,17.6387,0.00153,4.00286,0.60558
207.219,17.72137,0.001499235,4.02394,0.60497
210.119,17.80365,0.00219633,4.0477,0.60434
213.019,17.88573,-0.000412062,4.07168,0.60371
215.919,17.9676,-0.00177907,4.11771,0.60306
218.819,18.04924,-0.00175005,4.16559,0.60241
221.719,18.13081,0.000750926,4.18941,0.60175
224.619,18.21186,-0.001750482,4.19399,0.60109
227.519,18.29298,-0.001764494,4.2226,0.60041
230.419,18.3738,-0.002411118,4.26643,0.59973
233.319,18.45443,-0.003064556,4.28076,0.59904
236.219,18.53499,-0.00434793,4.32233,0.59834
239.119,18.61531,-0.00570815,4.32807,0.59763
242.019,18.69545,-0.00694036,4.33516,0.59691
244.919,18.7756,-0.00833024,4.36984,0.59619
247.819,18.85549,-0.008354489,4.38164,0.59546
250.719,18.93519,-0.008340941,4.44646,0.59472
253.619,19.015,-0.01096685,4.46424,0.59397
256.519,19.09449,-0.01132516,4.5266,0.59322
259.419,19.1739,-0.01417548,4.58992,0.59246
262.319,19.25316,-0.0189795,4.68048,0.59169
265.219,19.33251,-0.02522914,4.76542,0.59092
268.119,19.4118,-0.03052379,4.81686,0.59014
271.019,19.491,-0.03485494,4.8742,0.58935
273.919,19.57005,-0.04059257,4.89693,0.58855
276.819,19.64914,-0.04793831,4.94308,0.58775
279.719,19.72831,-0.05431679,5.01779,0.58694
282.619,19.8073,-0.06258494,5.06692,0.58613
285.519,19.88628,-0.07121036,5.07487,0.5853
288.419,19.96529,-0.08110393,5.12027,0.58448
291.319,20.04428,-0.09515967,5.16404,0.58364
294.219,20.1232,-0.11216,5.1523,0.5828
297.119,20.20215,-0.13138,5.24326,0.58196
300.019,20.28106,-0.16177,5.88526,0.5811
302.919,20.36015,-0.20242,6.93432,0.58025
305.819,20.4393,-0.25241,8.01336,0.57938
308.719,20.5186,-0.31292,8.97441,0.57851
311.619,20.59815,-0.38645,9.81317,0.57764
314.519,20.67771,-0.46799,10.51269,0.57676
317.419,20.75724,-0.56065,11.0331,0.57587
320.319,20.83697,-0.66275,11.35763,0.57498
323.219,20.9166,-0.77107,11.51661,0.57408
326.119,20.9962,-0.8806,11.41423,0.57318
329.019,21.07594,-0.98797,11.0575,0.57227
331.919,21.15551,-1.08715,10.5141,0.57136
334.819,21.23529,-1.18043,9.8751,0.57045
337.719,21.31496,-1.26354,9.2239,0.56952
340.619,21.39479,-1.3391,8.574,0.5686
343.519,21.47457,-1.4068,7.91948,0.56767
346.419,21.55446,-1.46463,7.30836,0.56673
349.319,21.6344,-1.51737,6.69789,0.56579
352.219,21.71426,-1.56301,6.10123,0.56485
355.119,21.79447,-1.60521,5.5064,0.5639
358.019,21.87456,-1.6401,4.84436,0.56295
360.919,21.95477,-1.67022,4.18009,0.56199
363.819,22.03519,-1.69594,3.56497,0.56103
366.719,22.11554,-1.71823,3.00653,0.56007
369.619,22.19614,-1.73727,2.54986,0.5591
372.519,22.27684,-1.74884,2.22131,0.55813
375.419,22.35761,-1.75888,2.03237,0.55716
378.319,22.43856,-1.76939,1.98473,0.55618
381.219,22.51974,-1.77611,2.0322,0.5552
384.119,22.60106,-1.78351,2.06548,0.55421
387.019,22.68229,-1.78578,2.09072,0.55322
389.919,22.76425,-1.79057,2.07966,0.55223
392.819,22.84593,-1.79737,2.1096,0.55123
395.719,22.92807,-1.80243,2.1267,0.55024
398.619,23.01,-1.80871,2.13724,0.54924
401.519,23.09222,-1.81309,2.16107,0.54823
404.419,23.17461,-1.81986,2.22119,0.54723
407.319,23.25729,-1.82633,2.27066,0.54622
410.219,23.33999,-1.83612,2.32782,0.54521
413.119,23.4228,-1.84536,2.38697,0.54419
416.019,23.50579,-1.85512,2.43396,0.54318
418.919,23.5889,-1.86812,2.50048,0.54216
421.819,23.67212,-1.88008,2.5627,0.54114
424.719,23.7555,-1.89344,2.62742,0.54011
427.619,23.83904,-1.90874,2.63806,0.53909
430.519,23.92265,-1.92448,2.59567,0.53806
433.419,24.0064,-1.94123,2.55207,0.53703
436.319,24.0903,-1.95733,2.42591,0.536
439.219,24.17451,-1.97632,2.28447,0.53497
442.119,24.25881,-1.99532,2.11707,0.53393
445.019,24.34306,-2.01542,1.94832,0.5329
447.919,24.42752,-2.03513,1.81965,0.53186
450.819,24.51224,-2.05459,1.7249,0.53082
453.719,24.59694,-2.07749,1.67715,0.52978
456.619,24.6819,-2.10127,1.7134,0.52874
459.519,24.76687,-2.12602,1.83694,0.52769
462.419,24.85226,-2.15406,2.00928,0.52665
465.319,24.93766,-2.18368,2.25962,0.5256
468.219,25.02316,-2.21421,2.47934,0.52456
471.119,25.1093,-2.24993,2.67447,0.52351
474.019,25.19537,-2.28374,2.84291,0.52246
476.919,25.28161,-2.31776,3.06886,0.52141
479.819,25.36808,-2.35152,3.27094,0.52036
482.719,25.45474,-2.38506,3.36307,0.51931
485.619,25.54157,-2.41635,3.34072,0.51826
488.519,25.62849,-2.44816,3.27226,0.51721
491.419,25.71586,-2.48134,3.19767,0.51616
494.319,25.80333,-2.50731,3.13181,0.51511
497.219,25.8906,-2.53249,2.99476,0.51406
500.119,25.97835,-2.55514,2.91585,0.513
503.019,26.0661,-2.57784,2.77657,0.51195
505.919,26.1541,-2.59617,2.65483,0.5109
508.819,26.2421,-2.62643,2.50786,0.50984
511.719,26.3301,-2.63096,2.34524,0.50879
514.619,26.4184,-2.64332,2.22018,0.50774
517.519,26.507,-2.65474,2.07152,0.50669
520.419,26.59535,-2.66606,2.02223,0.50563
523.319,26.684,-2.67319,1.88397,0.50458
526.219,26.77273,-2.67258,1.80213,0.50353
529.119,26.8607,-2.69903,1.7529,0.50248
532.019,26.95004,-2.69067,1.72937,0.50143
534.919,27.0392,-2.69466,1.64974,0.50038
537.819,27.12828,-2.69954,1.66102,0.49933
540.719,27.2174,-2.70114,1.59388,0.49828
543.619,27.3068,-2.70293,1.58545,0.49723
546.519,27.3964,-2.70564,1.56895,0.49618
549.419,27.486,-2.70829,1.53075,0.49514
552.319,27.57585,-2.71082,1.51255,0.49409
555.219,27.6659,-2.71229,1.44207,0.49305
558.119,27.75615,-2.71364,1.34409,0.492
561.019,27.84625,-2.7163,1.22995,0.49096
563.919,27.9367,-2.71759,1.2291,0.48992
566.819,28.02737,-2.7201,1.15627,0.48888
569.719,28.1181,-2.7189,1.1147,0.48784
572.619,28.209,-2.72022,1.1019,0.4868
575.519,28.29993,-2.72326,1.10552,0.48577
578.419,28.3909,-2.72417,1.01882,0.48473
581.319,28.4821,-2.72544,0.97029,0.4837
584.219,28.57331,-2.72779,0.96233,0.48266
587.119,28.66445,-2.72779,1.02662,0.48163
590.019,28.75576,-2.72775,1.1108,0.4806
592.919,28.8472,-2.73042,1.1715,0.47958
595.819,28.93883,-2.73174,1.28257,0.47855
598.719,29.03042,-2.73174,1.43948,0.47753
601.619,29.12225,-2.73453,1.64984,0.47651
604.519,29.21439,-2.73448,1.93877,0.47548
607.419,29.30657,-2.7358,2.23697,0.47447
610.319,29.3989,-2.73842,2.70789,0.47345
613.219,29.49127,-2.74101,3.02174,0.47243
616.119,29.5838,-2.74257,2.8103,0.47142
619.019,29.6762,-2.74654,1.92441,0.47041
621.919,29.7688,-2.74588,1.38809,0.4694
624.819,29.8612,-2.74858,1.19849,0.46839
627.719,29.9536,-2.75136,1.10691,0.46739
630.619,30.0464,-2.75136,0.99283,0.46639
633.519,30.1391,-2.754,0.98692,0.46539
636.419,30.23204,-2.75532,0.99596,0.46439
639.319,30.32505,-2.75654,0.95838,0.46339
642.219,30.4183,-2.75785,0.93664,0.4624
645.119,30.51169,-2.75916,0.91285,0.46141
648.019,30.6052,-2.7605,0.86539,0.46042
650.919,30.69868,-2.76311,0.88674,0.45943
653.819,30.79242,-2.7631,0.85343,0.45845
656.719,30.88625,-2.7641,0.8261,0.45747
659.619,30.98,-2.76552,0.80757,0.45649
662.519,31.0741,-2.76777,0.77997,0.45551
665.419,31.1681,-2.76914,0.76002,0.45454
668.319,31.26223,-2.77042,0.71945,0.45357
671.219,31.35646,-2.77286,0.67144,0.4526
674.119,31.4506,-2.77443,0.6565,0.45163
677.019,31.54506,-2.77441,0.66225,0.45067
679.919,31.63935,-2.77703,0.69058,0.44971
682.819,31.73392,-2.77844,0.71834,0.44875
685.719,31.82863,-2.77836,0.80224,0.4478
688.619,31.92322,-2.78014,0.87339,0.44685
691.519,32.01813,-2.7811,0.9967,0.4459
694.419,32.113,-2.78245,0.99647,0.44495
697.319,32.20799,-2.78504,0.91081,0.44401
700.219,32.3031,-2.78635,0.82066,0.44306
703.119,32.3981,-2.78927,0.65626,0.44213
706.019,32.49317,-2.79368,0.57751,0.44119
708.919,32.58825,-2.79371,0.5204,0.44026
711.819,32.68342,-2.796,0.45422,0.43933
714.719,32.77858,-2.79841,0.38148,0.4384
717.619,32.8741,-2.80059,0.28069,0.43748
720.519,32.96974,-2.80231,0.28838,0.43656
723.419,33.0653,-2.80459,0.22081,0.43564
726.319,33.161,-2.80753,0.14094,0.43473
729.219,33.2569,-2.8082,0.09424446,0.43382
731.419,33.33098,-2.80994,0.04124909,0.43313

File: Vinyl_Siding_STA_N2_30KData_210207_R2.csv
##Temp./Â°C,Time/min,Mass loss(subtr.2)/mg,DSC(subtr.2)/mW,Sensit./(uV/mW)
50.604,10.01,-0.00856,-0.007341824,0.6235
53.504,11.54387,-0.01178799,0.4457,0.62347
56.404,11.89372,-0.01223046,0.78613,0.62342
59.304,12.1451,-0.0116359,1.05233,0.62336
62.204,12.35483,-0.01120764,1.30262,0.62328
65.104,12.54172,-0.01032208,1.47074,0.6232
68.004,12.71327,-0.01119211,1.5965,0.6231
70.904,12.87542,-0.01196024,1.66202,0.62299
73.804,13.0296,-0.01459052,1.7648,0.62287
76.704,13.17826,-0.01126924,1.84107,0.62273
79.604,13.32236,-0.01203657,1.95058,0.62258
82.504,13.46199,-0.01327813,2.04756,0.62242
85.404,13.5982,-0.01158529,2.19443,0.62225
88.304,13.73055,-0.01139523,2.34323,0.62206
91.204,13.8597,-0.0115203,2.45622,0.62187
94.104,13.9856,-0.01292619,2.53178,0.62166
97.004,14.1083,-0.01407097,2.59242,0.62144
99.904,14.2286,-0.01264451,2.68867,0.6212
102.804,14.346,-0.01237721,2.79993,0.62096
105.704,14.46106,-0.01265727,2.94563,0.6207
108.604,14.57422,-0.01280092,3.11427,0.62044
111.504,14.6854,-0.01364666,3.29043,0.62016
114.404,14.79449,-0.01148134,3.45376,0.61987
117.304,14.9017,-0.01282874,3.61725,0.61956
120.204,15.0074,-0.01283056,3.76353,0.61925
123.104,15.1112,-0.01272472,3.86553,0.61893
126.004,15.21367,-0.01130856,3.99056,0.61859
128.904,15.31434,-0.01271957,4.10173,0.61824
131.804,15.4136,-0.01410979,4.22251,0.61789
134.704,15.51171,-0.01404478,4.33428,0.61752
137.604,15.60851,-0.01392709,4.4503,0.61714
140.504,15.70421,-0.01415687,4.56632,0.61675
143.404,15.79899,-0.01283021,4.65737,0.61634
146.304,15.8928,-0.01418628,4.77135,0.61593
149.204,15.98572,-0.01282379,4.9239,0.61551
152.104,16.07771,-0.01283398,4.98229,0.61508
155.004,16.16904,-0.01284245,5.07222,0.61463
157.904,16.25975,-0.01414,5.12517,0.61418
160.804,16.34995,-0.01413997,5.20248,0.61372
163.704,16.43952,-0.01415,5.30222,0.61324
166.604,16.5284,-0.01415,5.36612,0.61276
169.504,16.61683,-0.01415365,5.41204,0.61226
172.404,16.70499,-0.01412552,5.53443,0.61176
175.304,16.79267,-0.01415,5.58654,0.61125
178.204,16.87949,-0.01415893,5.66633,0.61072
181.104,16.96606,-0.0141401,5.71804,0.61019
184.004,17.05184,-0.01545857,5.77714,0.60965
186.904,17.13714,-0.01546001,5.86042,0.60909
189.804,17.222,-0.01659268,5.90609,0.60853
192.704,17.30627,-0.0154601,5.9352,0.60796
195.604,17.3903,-0.01546,5.98942,0.60738
198.504,17.47397,-0.01668189,6.03447,0.60679
201.404,17.55695,-0.01815982,6.05152,0.60619
204.304,17.64001,-0.01678001,6.11397,0.60559
207.204,17.72297,-0.01678,6.11368,0.60497
210.104,17.8053,-0.01706036,6.15798,0.60434
213.004,17.88741,-0.01809,6.19566,0.60371
215.904,17.9693,-0.01746505,6.2293,0.60307
218.804,18.05097,-0.01743002,6.27173,0.60242
221.704,18.13239,-0.01875598,6.33502,0.60176
224.604,18.2135,-0.02023426,6.36495,0.60109
227.504,18.29456,-0.02008362,6.39393,0.60041
230.404,18.37527,-0.02006997,6.42186,0.59973
233.304,18.45587,-0.02134564,6.45781,0.59904
236.204,18.53646,-0.0200651,6.47467,0.59834
239.104,18.6168,-0.0214235,6.5235,0.59763
242.004,18.69688,-0.02129643,6.53727,0.59692
244.904,18.77679,-0.02387293,6.56444,0.59619
247.804,18.8568,-0.02519379,6.56887,0.59546
250.704,18.93646,-0.02688064,6.55146,0.59472
253.604,19.016,-0.02742061,6.60029,0.59398
256.504,19.0955,-0.02931917,6.65576,0.59322
259.404,19.17474,-0.03161724,6.73722,0.59246
262.304,19.25408,-0.03489531,6.80236,0.5917
265.204,19.33338,-0.03972606,6.90165,0.59092
268.104,19.4124,-0.04659621,6.96573,0.59014
271.004,19.49149,-0.05313207,7.04095,0.58935
273.904,19.57054,-0.06128257,7.06772,0.58856
276.804,19.6497,-0.06886814,7.12794,0.58775
279.704,19.72873,-0.0738191,7.1148,0.58694
282.604,19.8077,-0.08399927,7.17225,0.58613
285.504,19.88651,-0.09414244,7.21227,0.58531
288.404,19.96547,-0.10735,7.28965,0.58448
291.304,20.04425,-0.12034,7.32762,0.58365
294.204,20.12319,-0.13727,7.34472,0.58281
297.104,20.20191,-0.16535,7.37514,0.58196
300.004,20.28075,-0.19817,7.99759,0.58111
302.904,20.3597,-0.24558,9.19648,0.58025
305.804,20.43884,-0.30581,10.48173,0.57939
308.704,20.5181,-0.37754,11.71119,0.57852
311.604,20.5977,-0.46346,12.77528,0.57764
314.504,20.67713,-0.56106,13.6322,0.57676
317.404,20.7569,-0.67137,14.2944,0.57587
320.304,20.83654,-0.7911,14.77719,0.57498
323.204,20.91629,-0.91999,14.96776,0.57409
326.104,20.99595,-1.05147,14.85017,0.57319
329.004,21.0757,-1.18128,14.4832,0.57228
331.904,21.15536,-1.30492,13.8889,0.57137
334.804,21.23515,-1.41751,13.16775,0.57045
337.704,21.3149,-1.51689,12.35178,0.56953
340.604,21.3946,-1.609,11.57843,0.5686
343.504,21.4745,-1.69094,10.81508,0.56767
346.404,21.55438,-1.76371,10.07296,0.56674
349.304,21.63401,-1.82928,9.35587,0.5658
352.204,21.714,-1.88596,8.60342,0.56486
355.104,21.79406,-1.93681,7.83499,0.56391
358.004,21.87399,-1.9802,7.05621,0.56296
360.904,21.95416,-2.01888,6.24795,0.562
363.804,22.03445,-2.04796,5.4521,0.56104
366.704,22.11482,-2.07468,4.73713,0.56008
369.604,22.19523,-2.09523,4.16488,0.55911
372.504,22.2759,-2.11105,3.77601,0.55814
375.404,22.35669,-2.12396,3.54516,0.55716
378.304,22.43753,-2.13648,3.48243,0.55618
381.204,22.51861,-2.14471,3.53374,0.5552
384.104,22.59988,-2.15235,3.57507,0.55422
387.004,22.68136,-2.1548,3.60444,0.55323
389.904,22.76295,-2.16018,3.61603,0.55223
392.804,22.8448,-2.16873,3.63577,0.55124
395.704,22.92659,-2.1738,3.65584,0.55024
398.604,23.0088,-2.18242,3.68731,0.54924
401.504,23.09103,-2.18911,3.73565,0.54824
404.404,23.1734,-2.19833,3.77098,0.54723
407.304,23.2559,-2.2068,3.83398,0.54622
410.204,23.33851,-2.21548,3.89148,0.54521
413.104,23.42132,-2.22792,3.98704,0.5442
416.004,23.50415,-2.23942,4.0824,0.54318
418.904,23.58713,-2.25263,4.18056,0.54216
421.804,23.67032,-2.27045,4.26937,0.54114
424.704,23.7538,-2.28582,4.3451,0.54012
427.604,23.83729,-2.30208,4.38207,0.53909
430.504,23.9209,-2.32297,4.37393,0.53806
433.404,24.0046,-2.34437,4.30166,0.53704
436.304,24.08858,-2.36576,4.19444,0.536
439.204,24.1726,-2.38663,4.03031,0.53497
442.104,24.25678,-2.40847,3.87325,0.53394
445.004,24.34111,-2.43131,3.67427,0.5329
447.904,24.42557,-2.45448,3.52675,0.53186
450.804,24.51004,-2.47869,3.40487,0.53082
453.704,24.5948,-2.5046,3.36162,0.52978
456.604,24.67972,-2.53189,3.38079,0.52874
459.504,24.76482,-2.56354,3.53583,0.5277
462.404,24.84989,-2.59501,3.74294,0.52665
465.304,24.9353,-2.6326,4.02254,0.52561
468.204,25.02099,-2.66881,4.29011,0.52456
471.104,25.10685,-2.70688,4.51429,0.52352
474.004,25.19294,-2.74754,4.7753,0.52247
476.904,25.27921,-2.78929,5.06044,0.52142
479.804,25.36571,-2.83066,5.32926,0.52037
482.704,25.45254,-2.86956,5.43048,0.51932
485.604,25.53929,-2.90755,5.46839,0.51827
488.504,25.62624,-2.94559,5.44339,0.51722
491.404,25.71344,-2.9792,5.37725,0.51617
494.304,25.8008,-3.01211,5.30678,0.51511
497.204,25.88835,-3.04148,5.18592,0.51406
500.104,25.97595,-3.07213,5.075,0.51301
503.004,26.0638,-3.09732,4.95462,0.51196
505.904,26.1516,-3.12099,4.81965,0.5109
508.804,26.23981,-3.14355,4.67378,0.50985
511.704,26.3281,-3.16081,4.50413,0.5088
514.604,26.41633,-3.17737,4.38686,0.50774
517.504,26.5046,-3.19205,4.2597,0.50669
520.404,26.5932,-3.20402,4.1731,0.50564
523.304,26.6818,-3.21456,4.09164,0.50459
526.204,26.77063,-3.2203,4.00875,0.50354
529.104,26.85953,-3.22738,3.94811,0.50248
532.004,26.94827,-3.23396,3.889,0.50143
534.904,27.03743,-3.23935,3.83916,0.50038
537.804,27.1266,-3.24215,3.82272,0.49933
540.704,27.21589,-3.24655,3.7965,0.49829
543.604,27.3052,-3.24727,3.77648,0.49724
546.504,27.3947,-3.25169,3.75668,0.49619
549.404,27.4843,-3.25356,3.71963,0.49514
552.304,27.574,-3.25615,3.71914,0.4941
555.204,27.6639,-3.25769,3.67093,0.49305
558.104,27.7538,-3.26046,3.69331,0.49201
561.004,27.844,-3.26272,3.68767,0.49097
563.904,27.93427,-3.26235,3.68196,0.48992
566.804,28.0246,-3.26677,3.6679,0.48888
569.704,28.11518,-3.26742,3.67053,0.48785
572.604,28.20595,-3.26984,3.65172,0.48681
575.504,28.2966,-3.27176,3.62508,0.48577
578.404,28.3875,-3.27434,3.63944,0.48474
581.304,28.47863,-3.27568,3.65421,0.4837
584.204,28.5697,-3.27698,3.69214,0.48267
587.104,28.6611,-3.2783,3.72323,0.48164
590.004,28.7524,-3.27967,3.76955,0.48061
592.904,28.8439,-3.28105,3.84109,0.47958
595.804,28.93548,-3.28235,3.96197,0.47856
598.704,29.02733,-3.28324,4.12657,0.47753
601.604,29.11925,-3.28427,4.31351,0.47651
604.504,29.2113,-3.28765,4.59373,0.47549
607.404,29.30353,-3.29026,4.94563,0.47447
610.304,29.39583,-3.29168,5.40423,0.47345
613.204,29.4881,-3.29446,5.74096,0.47244
616.104,29.58045,-3.29717,5.51201,0.47143
619.004,29.673,-3.29845,4.44251,0.47042
621.904,29.7655,-3.30122,3.70734,0.46941
624.804,29.858,-3.30161,3.37989,0.4684
627.704,29.95069,-3.30506,3.22293,0.46739
630.604,30.0435,-3.30539,3.10462,0.46639
633.504,30.1363,-3.30818,3.01719,0.46539
636.404,30.2293,-3.31071,2.95031,0.46439
639.304,30.32235,-3.31208,2.90172,0.4634
642.204,30.4155,-3.3134,2.85195,0.4624
645.104,30.50869,-3.31559,2.80032,0.46141
648.004,30.6021,-3.3169,2.75887,0.46043
650.904,30.69565,-3.31915,2.72562,0.45944
653.804,30.78913,-3.32086,2.65337,0.45845
656.704,30.88305,-3.32148,2.65344,0.45747
659.604,30.97679,-3.32358,2.57646,0.45649
662.504,31.07061,-3.32491,2.55366,0.45552
665.404,31.16488,-3.32632,2.52885,0.45454
668.304,31.25905,-3.33166,2.49343,0.45357
671.204,31.3534,-3.33172,2.52048,0.4526
674.104,31.44769,-3.33357,2.46794,0.45164
677.004,31.542,-3.33456,2.46998,0.45068
679.904,31.63653,-3.33494,2.50525,0.44972
682.804,31.7309,-3.33588,2.52242,0.44876
685.704,31.82528,-3.33855,2.60905,0.4478
688.604,31.92053,-3.34111,2.68561,0.44685
691.504,32.0154,-3.33972,2.78425,0.4459
694.404,32.11016,-3.34236,2.75532,0.44495
697.304,32.20517,-3.34647,2.7819,0.44401
700.204,32.3001,-3.34816,2.73994,0.44307
703.104,32.39523,-3.35008,2.64828,0.44213
706.004,32.49031,-3.35398,2.58123,0.4412
708.904,32.58559,-3.35663,2.49815,0.44026
711.804,32.68095,-3.357,2.40764,0.43933
714.704,32.77619,-3.3604,2.28284,0.43841
717.604,32.87143,-3.3643,2.13083,0.43749
720.504,32.96714,-3.36715,2.02615,0.43656
723.404,33.06303,-3.36815,1.93791,0.43565
726.304,33.15883,-3.37163,1.83207,0.43473
729.204,33.25459,-3.36688,1.72594,0.43382
731.504,33.332,-3.36889,1.64559,0.4331