Folder: fsri_materials_database/01_Data/Vinyl_Siding/STA/N2/30K_min (part 2)

File: Vinyl_Siding_STA_N2_30KData_210607_R3.csv
##Temp./Â°C,Time/min,Mass loss(subtr.2)/mg,DSC(subtr.2)/mW,Sensit./(uV/mW)
50.539,10.01,0.00165,-0.2484,0.6235
53.439,11.54601,0.000249411,0.1806,0.62347
56.339,11.89077,-0.000895749,0.4853,0.62342
59.239,12.14149,-0.0001260656,0.74466,0.62336
62.139,12.35012,-0.000766226,0.97177,0.62329
65.039,12.5365,0.000973247,1.1299,0.6232
67.939,12.7079,-0.0006229717,1.2163,0.6231
70.839,12.86962,-0.00031051,1.26727,0.62299
73.739,13.02338,-0.00142586,1.35154,0.62287
76.639,13.17186,-0.002189317,1.42201,0.62273
79.539,13.3156,-0.00388667,1.48649,0.62258
82.439,13.45527,-0.00248548,1.58734,0.62242
85.339,13.59131,-0.00219649,1.706,0.62225
88.239,13.72355,-0.002440166,1.85164,0.62207
91.139,13.85254,-0.00161408,1.94644,0.62187
94.039,13.97814,-0.0021176,2.01716,0.62166
96.939,14.1011,-0.00321967,2.05679,0.62144
99.839,14.2213,-0.003276602,2.11699,0.62121
102.739,14.3386,-0.002697885,2.21922,0.62097
105.639,14.45379,-0.007219677,2.35834,0.62071
108.539,14.56685,-0.01142575,2.48815,0.62044
111.439,14.67792,-0.01109469,2.64347,0.62016
114.339,14.78701,-0.005899925,2.79529,0.61987
117.239,14.894,-0.00351887,2.93504,0.61957
120.139,14.99983,-0.004043184,3.02809,0.61926
123.039,15.10382,-0.004682897,3.11407,0.61893
125.939,15.20607,-0.004470784,3.2026,0.6186
128.839,15.30675,-0.001529829,3.27818,0.61825
131.739,15.40611,-0.002197133,3.3734,0.61789
134.639,15.50402,-0.004119108,3.4785,0.61752
137.539,15.60091,-0.004511707,3.57108,0.61715
140.439,15.69655,-0.00522582,3.65853,0.61675
143.339,15.7914,-0.00465137,3.72524,0.61635
146.239,15.88507,-0.00327991,3.79603,0.61594
149.139,15.9778,-0.00357453,3.87491,0.61552
152.039,16.07016,-0.004929808,3.95557,0.61509
154.939,16.1614,-0.005977154,4.02469,0.61464
157.839,16.25209,-0.005917962,4.06488,0.61419
160.739,16.34204,-0.00461329,4.12141,0.61373
163.639,16.43143,-0.005919956,4.20522,0.61325
166.539,16.52032,-0.00461033,4.26118,0.61277
169.439,16.6088,-0.005169582,4.3181,0.61227
172.339,16.69656,-0.005929996,4.37916,0.61177
175.239,16.7839,-0.00593,4.43853,0.61126
178.139,16.8706,-0.00593022,4.50534,0.61073
181.039,16.95634,-0.006232694,4.55835,0.6102
183.939,17.04289,-0.005923906,4.61723,0.60966
186.839,17.12827,-0.00480028,4.66698,0.60911
189.739,17.21276,-0.00887647,4.68932,0.60854
192.639,17.29724,-0.008865727,4.72379,0.60797
195.539,17.38116,-0.007645666,4.77324,0.60739
198.439,17.46434,-0.00833508,4.806,0.6068
201.339,17.54792,-0.00834,4.83025,0.60621
204.239,17.63072,-0.0083396,4.84763,0.6056
207.139,17.71337,-0.01031078,4.90359,0.60498
210.039,17.79564,-0.00898412,4.92164,0.60436
212.939,17.8779,-0.01014823,4.94264,0.60372
215.839,17.95949,-0.01063541,4.98128,0.60308
218.739,18.04129,-0.009323375,5.01639,0.60243
221.639,18.1225,-0.01064083,5.05151,0.60177
224.539,18.2037,-0.0105797,5.08741,0.60111
227.439,18.28461,-0.01063976,5.11249,0.60043
230.339,18.36528,-0.01193763,5.1297,0.59975
233.239,18.44593,-0.01195,5.1604,0.59905
236.139,18.52606,-0.01195007,5.18898,0.59835
239.039,18.60666,-0.01330502,5.22942,0.59765
241.939,18.68672,-0.01327,5.25359,0.59693
244.839,18.7666,-0.01317352,5.27875,0.59621
247.739,18.84656,-0.01596652,5.28799,0.59548
250.639,18.92616,-0.01624852,5.32213,0.59474
253.539,19.00583,-0.01853843,5.34424,0.59399
256.439,19.08534,-0.0196048,5.37255,0.59324
259.339,19.1646,-0.02414529,5.44629,0.59248
262.239,19.2439,-0.02792266,5.54938,0.59171
265.139,19.32313,-0.0351412,5.66053,0.59094
268.039,19.40224,-0.03836509,5.71807,0.59016
270.939,19.48133,-0.04407524,5.75076,0.58937
273.839,19.56042,-0.05279527,5.76569,0.58857
276.739,19.63915,-0.05807547,5.80604,0.58777
279.639,19.71814,-0.06885209,5.85193,0.58696
282.539,19.79738,-0.07755777,5.90076,0.58615
285.439,19.87631,-0.08637768,5.95557,0.58533
288.339,19.9553,-0.09822619,6.00372,0.5845
291.239,20.03421,-0.11531,6.05619,0.58367
294.139,20.11295,-0.13068,6.08204,0.58283
297.039,20.19185,-0.15586,6.08573,0.58198
299.939,20.2707,-0.1912,6.72128,0.58113
302.839,20.3495,-0.24026,7.94028,0.58027
305.739,20.42857,-0.30004,9.27661,0.57941
308.639,20.5078,-0.37345,10.5166,0.57854
311.539,20.5873,-0.45895,11.57119,0.57766
314.439,20.66686,-0.55804,12.43759,0.57678
317.339,20.74644,-0.66845,13.0842,0.57589
320.239,20.82601,-0.79082,13.55256,0.575
323.139,20.90563,-0.9189,13.7059,0.57411
326.039,20.98534,-1.05288,13.5794,0.57321
328.939,21.06491,-1.17993,13.05096,0.5723
331.839,21.14454,-1.3024,12.39132,0.57139
334.739,21.22428,-1.41368,11.75277,0.57047
337.639,21.30414,-1.51541,11.01779,0.56955
340.539,21.38385,-1.60909,10.2706,0.56862
343.439,21.46358,-1.68951,9.57113,0.56769
346.339,21.5434,-1.76303,8.90081,0.56676
349.239,21.6233,-1.8286,8.19496,0.56582
352.139,21.70318,-1.88764,7.48259,0.56488
355.039,21.7832,-1.9389,6.72679,0.56393
357.939,21.8633,-1.98443,5.93317,0.56298
360.839,21.94335,-2.02217,5.13767,0.56202
363.739,22.02352,-2.05574,4.33931,0.56106
366.639,22.10379,-2.0823,3.60082,0.5601
369.539,22.18423,-2.10591,2.97932,0.55913
372.439,22.26484,-2.12321,2.5227,0.55816
375.339,22.3456,-2.13754,2.26723,0.55718
378.239,22.42634,-2.14547,2.16173,0.5562
381.139,22.50741,-2.15548,2.18033,0.55522
384.039,22.58849,-2.16153,2.21448,0.55424
386.939,22.66995,-2.16718,2.24912,0.55325
389.839,22.7515,-2.17573,2.26319,0.55226
392.739,22.83314,-2.17911,2.30193,0.55126
395.639,22.91489,-2.18585,2.29406,0.55026
398.539,22.9968,-2.1929,2.3202,0.54926
401.439,23.0789,-2.19941,2.3351,0.54826
404.339,23.1614,-2.20675,2.36536,0.54725
407.239,23.24375,-2.2146,2.4204,0.54625
410.139,23.32634,-2.22566,2.4882,0.54523
413.039,23.40905,-2.2364,2.55073,0.54422
415.939,23.49195,-2.24676,2.6317,0.5432
418.839,23.57514,-2.26015,2.72486,0.54218
421.739,23.6583,-2.27455,2.81338,0.54116
424.639,23.74175,-2.29146,2.87086,0.54014
427.539,23.8253,-2.3115,2.93573,0.53912
430.439,23.90897,-2.32858,2.92175,0.53809
433.339,23.9927,-2.34907,2.89848,0.53706
436.239,24.07648,-2.37087,2.79952,0.53603
439.139,24.16068,-2.38959,2.67201,0.53499
442.039,24.24492,-2.41096,2.48861,0.53396
444.939,24.32924,-2.43368,2.31625,0.53292
447.839,24.41357,-2.45771,2.16336,0.53189
450.739,24.49824,-2.48002,2.06215,0.53085
453.639,24.58288,-2.50884,2.03093,0.52981
456.539,24.66778,-2.53391,2.06895,0.52876
459.439,24.75282,-2.56247,2.21527,0.52772
462.339,24.83809,-2.5963,2.43913,0.52668
465.239,24.92336,-2.63189,2.72224,0.52563
468.139,25.0091,-2.66907,3.01686,0.52459
471.039,25.095,-2.70829,3.26317,0.52354
473.939,25.18125,-2.74951,3.50622,0.52249
476.839,25.26754,-2.78915,3.79227,0.52144
479.739,25.35401,-2.82989,4.03885,0.52039
482.639,25.44065,-2.87126,4.15168,0.51934
485.539,25.52751,-2.91071,4.1685,0.51829
488.439,25.61461,-2.9474,4.10708,0.51724
491.339,25.7018,-2.98444,4.04802,0.51619
494.239,25.78912,-3.01555,3.95159,0.51514
497.139,25.8766,-3.04744,3.82981,0.51408
500.039,25.9642,-3.07766,3.69991,0.51303
502.939,26.05219,-3.10291,3.56007,0.51198
505.839,26.14012,-3.12642,3.376,0.51093
508.739,26.2282,-3.14913,3.19376,0.50987
511.639,26.31638,-3.16867,3.0107,0.50882
514.539,26.4047,-3.18428,2.83618,0.50777
517.439,26.49312,-3.1984,2.69078,0.50672
520.339,26.5816,-3.21076,2.56604,0.50566
523.239,26.6704,-3.22114,2.43829,0.50461
526.139,26.7591,-3.22973,2.33731,0.50356
529.039,26.84808,-3.23594,2.24026,0.50251
531.939,26.93693,-3.24287,2.16976,0.50146
534.839,27.026,-3.24826,2.10978,0.50041
537.739,27.1154,-3.25128,2.0708,0.49936
540.639,27.2046,-3.25568,2.01519,0.49831
543.539,27.2941,-3.2594,1.96637,0.49726
546.439,27.38376,-3.26077,1.93009,0.49621
549.339,27.4733,-3.26458,1.90304,0.49517
552.239,27.5631,-3.26456,1.85897,0.49412
555.139,27.65295,-3.26865,1.84047,0.49308
558.039,27.74284,-3.2715,1.83381,0.49203
560.939,27.83265,-3.27283,1.80098,0.49099
563.839,27.92312,-3.27544,1.82144,0.48995
566.739,28.01339,-3.27742,1.82043,0.48891
569.639,28.1037,-3.27951,1.83354,0.48787
572.539,28.1943,-3.2795,1.82076,0.48683
575.439,28.28482,-3.28207,1.83978,0.48579
578.339,28.3761,-3.28344,1.85179,0.48476
581.239,28.4671,-3.28477,1.93161,0.48373
584.139,28.55818,-3.28608,1.98244,0.48269
587.039,28.6495,-3.28739,2.0556,0.48166
589.939,28.74077,-3.28774,2.14893,0.48063
592.839,28.8323,-3.28906,2.23596,0.47961
595.739,28.92377,-3.29266,2.36097,0.47858
598.639,29.01553,-3.29308,2.53981,0.47756
601.539,29.10732,-3.29478,2.74979,0.47653
604.439,29.1993,-3.29557,3.0473,0.47551
607.339,29.2915,-3.30001,3.46007,0.47449
610.239,29.38375,-3.29891,3.93706,0.47348
613.139,29.47605,-3.30276,4.39391,0.47246
616.039,29.5686,-3.30587,4.3942,0.47145
618.939,29.6611,-3.30688,3.36099,0.47044
621.839,29.75355,-3.30946,2.53455,0.46943
624.739,29.84605,-3.31061,2.20006,0.46842
627.639,29.9388,-3.31368,2.04823,0.46742
630.539,30.0317,-3.31516,1.94846,0.46641
633.439,30.1247,-3.31788,1.92254,0.46541
636.339,30.2177,-3.31968,1.86853,0.46442
639.239,30.31092,-3.32185,1.83177,0.46342
642.139,30.40437,-3.32308,1.78215,0.46243
645.039,30.49768,-3.32441,1.75877,0.46144
647.939,30.59105,-3.32841,1.74994,0.46045
650.839,30.68468,-3.32853,1.76196,0.45946
653.739,30.77838,-3.33061,1.76241,0.45848
656.639,30.87221,-3.33318,1.71171,0.4575
659.539,30.9659,-3.33465,1.67565,0.45652
662.439,31.05987,-3.33599,1.67311,0.45554
665.339,31.15397,-3.33731,1.66987,0.45457
668.239,31.248,-3.33994,1.6313,0.4536
671.139,31.34236,-3.34159,1.59071,0.45263
674.039,31.4367,-3.34283,1.5922,0.45166
676.939,31.5312,-3.34378,1.66037,0.4507
679.839,31.62575,-3.34519,1.62614,0.44974
682.739,31.7204,-3.34784,1.60985,0.44878
685.639,31.81527,-3.34916,1.70354,0.44782
688.539,31.91,-3.35244,1.77214,0.44687
691.439,32.00505,-3.35291,1.84898,0.44592
694.339,32.10013,-3.35509,1.8724,0.44498
697.239,32.1952,-3.35764,1.86085,0.44403
700.139,32.29019,-3.3598,1.7907,0.44309
703.039,32.38532,-3.36148,1.68693,0.44215
705.939,32.48045,-3.36531,1.55591,0.44122
708.839,32.57574,-3.36906,1.44399,0.44028
711.739,32.67103,-3.36857,1.34407,0.43936
714.639,32.76621,-3.37185,1.28776,0.43843
717.539,32.86192,-3.37601,1.27166,0.43751
720.439,32.9572,-3.37865,1.18973,0.43659
723.339,33.05312,-3.38003,1.13922,0.43567
726.239,33.14888,-3.3814,1.06305,0.43475
729.139,33.2447,-3.38452,0.99481,0.43384
731.739,33.3319,-3.38594,0.90784,0.43303