Folder: fsri_materials_database/01_Data/Vinyl_Siding/STA/N2/3K_min

Note: 01_Data/README.md
# Materials and Products Database
## 01_Data

Raw data generated from each apparatus are included here in plain-text format. The data is organized first by material, next by the short name of test apparatus used, and where applicable additional filtering by test settings.

### material.json

Each material directory contains a json file of the same name as the material. This file links the data stored in the repository as well as data and graphs produced by the accompanying scripts (__02_Scripts__) to the respective landing page for the material on the front-end website.

File: Vinyl_Siding_STA_N2_3KData_210107_R1.csv
##Temp./Â°C,Time/min,Mass loss(subtr.2)/mg,DSC(subtr.2)/mW,Sensit./(uV/mW)
48.843,10.01,0.01075,0.01044997,0.58406
51.743,13.89071,0.01595526,0.14951,0.58543
54.643,15.4219,0.01862966,0.17934,0.58677
57.543,16.72675,0.01996817,0.22193,0.5881
60.443,17.91421,0.01952999,0.25338,0.5894
63.343,19.0339,0.02117089,0.26469,0.59068
66.243,20.10635,0.0210848,0.27933,0.59193
69.143,21.15256,0.02084002,0.28753,0.59317
72.043,22.17675,0.02096,0.2988,0.59438
74.943,23.1875,0.0227,0.29429,0.59557
77.843,24.1872,0.02271,0.29878,0.59674
80.743,25.17698,0.02402,0.30711,0.59788
83.643,26.15985,0.02675677,0.34013,0.59901
86.543,27.1335,0.03454948,0.3253,0.60011
89.443,28.09696,0.02616942,0.30334,0.60119
92.343,29.0549,0.02503461,0.29316,0.60224
95.243,30.00757,0.02370489,0.31464,0.60328
98.143,30.95703,0.02599995,0.34534,0.60429
101.043,31.90111,0.02467839,0.36283,0.60528
103.943,32.84212,0.02608764,0.39763,0.60625
106.843,33.78321,0.02661758,0.41505,0.60719
109.743,34.7239,0.02896001,0.43122,0.60811
112.643,35.66024,0.0278574,0.45484,0.60901
115.543,36.59621,0.02785623,0.46222,0.60989
118.443,37.5297,0.0275303,0.46344,0.61075
121.343,38.46345,0.02884929,0.47916,0.61158
124.243,39.3978,0.02752958,0.48482,0.61239
127.143,40.3292,0.02687,0.51651,0.61318
130.043,41.25691,0.02720997,0.50816,0.61395
132.943,42.18303,0.02655001,0.50696,0.61469
135.843,43.10948,0.02819459,0.50081,0.61541
138.743,44.0291,0.0278703,0.50649,0.61611
141.643,44.9491,0.02717805,0.50025,0.61679
144.543,45.86717,0.02585972,0.50894,0.61744
147.443,46.78403,0.02753003,0.52718,0.61807
150.343,47.699,0.02620999,0.53411,0.61868
153.243,48.6117,0.02705075,0.55022,0.61927
156.143,49.52731,0.01565246,0.56373,0.61984
159.043,50.44115,0.02545636,0.58523,0.62038
161.943,51.35417,0.0236901,0.57144,0.6209
164.843,52.26314,0.02434996,0.58186,0.6214
167.743,53.1721,0.02567308,0.58243,0.62187
170.643,54.08433,0.0246354,0.60552,0.62233
173.543,54.9913,0.02532832,0.60204,0.62276
176.443,55.9015,0.02467332,0.60398,0.62317
179.343,56.8113,0.02534429,0.60875,0.62356
182.243,57.721,0.01572271,0.61532,0.62393
185.143,58.63166,0.02337,0.60512,0.62427
188.043,59.5397,0.02403,0.61811,0.62459
190.943,60.4469,0.02276072,0.60664,0.62489
193.843,61.35431,0.02271688,0.62618,0.62517
196.743,62.26205,0.02106005,0.61877,0.62543
199.643,63.17103,0.01974,0.64203,0.62566
202.543,64.07638,0.0190901,0.655,0.62588
205.443,64.98132,0.02062448,0.66369,0.62607
208.343,65.88329,0.01938043,0.65504,0.62624
211.243,66.78746,0.01766,0.65998,0.62639
214.143,67.69091,0.01565189,0.68498,0.62652
217.043,68.59674,0.01205794,0.7032,0.62662
219.943,69.50235,0.007793232,0.7332,0.62671
222.843,70.40982,0.002199999,0.76434,0.62677
225.743,71.31833,-0.0059887,0.78564,0.62681
228.643,72.2243,-0.01483761,0.79085,0.62683
231.543,73.12819,-0.02313124,0.79908,0.62683
234.443,74.03494,-0.03040653,0.81817,0.62681
237.343,74.94236,-0.03957818,0.81574,0.62677
240.243,75.84872,-0.04675106,0.82847,0.62671
243.143,76.7539,-0.05755054,0.84588,0.62663
246.043,77.65963,-0.06917782,0.86104,0.62652
248.943,78.5669,-0.08326801,0.8791,0.6264
251.843,79.47391,-0.09808074,0.88933,0.62625
254.743,80.38194,-0.11934,0.93108,0.62609
257.643,81.29071,-0.15193,1.00373,0.6259
260.543,82.2012,-0.19391,1.14632,0.62569
263.443,83.11058,-0.24968,1.27802,0.62547
266.343,84.02001,-0.32072,1.40211,0.62522
269.243,84.9328,-0.41302,1.53585,0.62495
272.143,85.84583,-0.52102,1.65543,0.62467
275.043,86.75537,-0.64613,1.77693,0.62436
277.943,87.6628,-0.78433,1.83229,0.62403
280.843,88.57273,-0.92838,1.8363,0.62369
283.743,89.4828,-1.07497,1.81043,0.62332
286.643,90.39098,-1.21071,1.73352,0.62293
289.543,91.30082,-1.33508,1.64542,0.62253
292.443,92.21366,-1.44603,1.55005,0.62211
295.343,93.1227,-1.54474,1.47962,0.62166
298.243,94.03684,-1.63164,1.43217,0.6212
301.143,94.94682,-1.71019,1.36933,0.62072
304.043,95.85901,-1.78176,1.32118,0.62022
306.943,96.77056,-1.84583,1.25087,0.6197
309.843,97.686,-1.90499,1.19673,0.61916
312.743,98.6005,-1.95542,1.12466,0.6186
315.643,99.51469,-2.00681,1.05644,0.61803
318.543,100.431,-2.04366,1.00419,0.61743
321.443,101.346,-2.08405,0.92669,0.61682
324.343,102.263,-2.11652,0.87612,0.61619
327.243,103.1821,-2.14383,0.83318,0.61554
330.143,104.098,-2.16575,0.76507,0.61488
333.043,105.015,-2.18666,0.71966,0.61419
335.943,105.938,-2.20217,0.71051,0.61349
338.843,106.859,-2.21281,0.67985,0.61277
341.743,107.783,-2.22312,0.67618,0.61204
344.643,108.705,-2.23035,0.67727,0.61128
347.543,109.634,-2.23682,0.58255,0.61051
350.443,110.558,-2.24373,0.57658,0.60972
353.343,111.481,-2.25031,0.57705,0.60892
356.243,112.405,-2.25821,0.60264,0.6081
359.143,113.333,-2.26748,0.61779,0.60726
362.043,114.262,-2.27548,0.62243,0.6064
364.943,115.19,-2.28685,0.6337,0.60553
367.843,116.1173,-2.29484,0.6248,0.60464
370.743,117.045,-2.30836,0.63238,0.60373
373.643,117.971,-2.32215,0.64702,0.60281
376.543,118.9,-2.33606,0.66421,0.60188
379.443,119.833,-2.35241,0.66501,0.60092
382.343,120.764,-2.36813,0.66613,0.59995
385.243,121.695,-2.38613,0.67786,0.59897
388.143,122.63,-2.40333,0.66221,0.59797
391.043,123.565,-2.4227,0.66231,0.59695
393.943,124.501,-2.43943,0.6446,0.59592
396.843,125.438,-2.45779,0.60696,0.59488
399.743,126.375,-2.47549,0.61394,0.59382
402.643,127.312,-2.4915,0.58177,0.59274
405.543,128.248,-2.5092,0.54923,0.59165
408.443,129.187,-2.52793,0.5511,0.59055
411.343,130.123,-2.54625,0.5268,0.58943
414.243,131.062,-2.5693,0.5264,0.58829
417.143,132.003,-2.59325,0.53132,0.58714
420.043,132.948,-2.62147,0.54562,0.58598
422.943,133.892,-2.65384,0.56835,0.58481
425.843,134.837,-2.6865,0.57976,0.58362
428.743,135.782,-2.72574,0.63554,0.58241
431.643,136.725,-2.77014,0.68197,0.5812
434.543,137.67,-2.82049,0.73268,0.57997
437.443,138.618,-2.87288,0.78484,0.57872
440.343,139.562,-2.92445,0.8293,0.57747
443.243,140.509,-2.97489,0.84918,0.5762
446.143,141.455,-3.02493,0.8703,0.57492
449.043,142.4022,-3.07347,0.87829,0.57362
451.943,143.354,-3.11974,0.91054,0.57232
454.843,144.3054,-3.16041,0.89738,0.571
457.743,145.257,-3.19517,0.86647,0.56966
460.643,146.208,-3.22539,0.85894,0.56832
463.543,147.159,-3.25723,0.83314,0.56696
466.443,148.111,-3.2786,0.81456,0.5656
469.343,149.064,-3.29547,0.77768,0.56422
472.243,150.015,-3.31172,0.75186,0.56283
475.143,150.97,-3.32228,0.74467,0.56143
478.043,151.928,-3.33558,0.73444,0.56001
480.943,152.881,-3.34543,0.75688,0.55859
483.843,153.84,-3.3566,0.75038,0.55715
486.743,154.801,-3.36287,0.74426,0.55571
489.643,155.758,-3.36947,0.72773,0.55425
492.543,156.716,-3.37179,0.73473,0.55278
495.443,157.675,-3.37601,0.72996,0.55131
498.343,158.6322,-3.37815,0.75788,0.54982
501.243,159.596,-3.38261,0.73699,0.54832
504.143,160.555,-3.38524,0.74446,0.54681
507.043,161.519,-3.38952,0.74578,0.5453
509.943,162.483,-3.39116,0.75279,0.54377
512.843,163.446,-3.3928,0.71675,0.54223
515.743,164.41,-3.3961,0.70693,0.54069
518.643,165.378,-3.3986,0.77867,0.53913
521.543,166.34,-3.39807,0.76811,0.53757
524.443,167.307,-3.40104,0.84694,0.53599
527.343,168.278,-3.40202,0.80125,0.53441
530.243,169.248,-3.40367,0.79949,0.53282
533.143,170.2181,-3.40399,0.75661,0.53122
536.043,171.1899,-3.40729,0.7462,0.52962
538.943,172.161,-3.40871,0.71613,0.528
541.843,173.1306,-3.41091,0.73011,0.52638
544.743,174.1,-3.41256,0.8245,0.52475
547.643,175.072,-3.41156,0.83534,0.52311
550.543,176.044,-3.41025,0.866,0.52146
553.443,177.02,-3.41255,0.85422,0.51981
556.343,177.995,-3.41387,0.85363,0.51815
559.243,178.969,-3.41782,0.89043,0.51648
562.143,179.945,-3.41848,0.90214,0.5148
565.043,180.922,-3.42045,0.93873,0.51312
567.943,181.9,-3.42144,0.95622,0.51143
570.843,182.881,-3.42176,0.94406,0.50973
573.743,183.856,-3.42374,0.94153,0.50803
576.643,184.832,-3.4267,0.94469,0.50632
579.543,185.81,-3.42735,0.95858,0.50461
582.443,186.792,-3.42769,0.98375,0.50289
585.343,187.77,-3.42999,0.97732,0.50116
588.243,188.751,-3.43131,0.95161,0.49943
591.143,189.73,-3.43294,0.90753,0.49769
594.043,190.716,-3.43559,0.91418,0.49594
596.943,191.694,-3.43657,0.85856,0.49419
599.843,192.674,-3.43625,0.84173,0.49244
602.743,193.659,-3.44052,0.87924,0.49068
605.643,194.647,-3.44311,0.90715,0.48892
608.543,195.634,-3.44615,0.91811,0.48715
611.443,196.619,-3.44941,0.90064,0.48537
614.343,197.603,-3.4501,0.83222,0.48359
617.243,198.593,-3.45105,0.83858,0.48181
620.143,199.5837,-3.45193,0.87686,0.48002
623.043,200.567,-3.45326,0.87242,0.47823
625.943,201.554,-3.455,0.94573,0.47644
628.843,202.546,-3.45402,0.96058,0.47464
631.743,203.538,-3.45551,0.96625,0.47283
634.643,204.532,-3.45774,1.00216,0.47103
637.543,205.52,-3.46235,0.99528,0.46922
640.443,206.514,-3.46333,1.01004,0.4674
643.343,207.507,-3.46281,0.99567,0.46559
646.243,208.494,-3.46377,0.96178,0.46377
649.143,209.487,-3.46509,0.95234,0.46194
652.043,210.478,-3.46785,0.95639,0.46012
654.943,211.471,-3.46937,0.98174,0.45829
657.843,212.4649,-3.47068,0.97045,0.45646
660.743,213.4611,-3.47069,0.99241,0.45462
663.643,214.459,-3.47398,1.00813,0.45279
666.543,215.458,-3.47661,0.9948,0.45095
669.443,216.458,-3.47793,1.00879,0.44911
672.343,217.458,-3.47859,1.02696,0.44726
675.243,218.453,-3.48117,1.06822,0.44542
678.143,219.454,-3.48582,1.14185,0.44357
681.043,220.452,-3.48879,1.22914,0.44173
683.943,221.454,-3.49076,1.34537,0.43988
686.843,222.453,-3.4948,1.40409,0.43803
689.743,223.45,-3.498,1.51635,0.43617
692.643,224.451,-3.5033,1.47567,0.43432
695.543,225.454,-3.51148,1.38267,0.43247
698.443,226.457,-3.51642,1.32513,0.43061
701.343,227.462,-3.52333,1.34023,0.42875
704.243,228.463,-3.52761,1.39736,0.4269
707.143,229.466,-3.53321,1.38922,0.42504
710.043,230.4673,-3.53375,1.36945,0.42318
712.943,231.472,-3.53793,1.43016,0.42132
715.843,232.4742,-3.54187,1.44149,0.41946
718.743,233.4828,-3.54547,1.42334,0.41761
721.643,234.493,-3.55207,1.38587,0.41575
724.543,235.501,-3.55503,1.43213,0.41389
727.443,236.508,-3.55899,1.48661,0.41203
730.343,237.514,-3.5626,1.56328,0.41017
733.243,238.522,-3.56688,1.55209,0.40831
736.143,239.5282,-3.56984,1.60738,0.40645
739.043,240.539,-3.57214,1.50468,0.4046
741.943,241.551,-3.57412,1.45969,0.40274
744.843,242.5567,-3.57467,1.51264,0.40089
747.043,243.32,-3.56639,1.53199,0.39948