Folder: fsri_materials_database/01_Data/R13_Fiberglass_InsulationA/MCC

Note: 01_Data/README.md
# Materials and Products Database
## 01_Data

Raw data generated from each apparatus are included here in plain-text format. The data is organized first by material, next by the short name of test apparatus used, and where applicable additional filtering by test settings.

### material.json

Each material directory contains a json file of the same name as the material. This file links the data stored in the repository as well as data and graphs produced by the accompanying scripts (__02_Scripts__) to the respective landing page for the material on the front-end website.

File: R13_Fiberglass_InsulationA_MCC_30K_min_220215_R2.txt
Sample ID:	C:\MCC\MCC Cal\Test\R13_Fiberglas_InsulationA_MCC_30K_min_220215_R2.txt
Sample Weight (mg):	4.05
Heating Rate (C/s):	0.5
Combustor Temp (C):	900
N2 Flow Rate (cc/min):	80
O2 Flow Rate (cc/min):	20
Calibration File:	C:\MCC\MCC Cal\Coeff1 JN10440_30_210304.txt.txt
T Correction Coefficients:	0	1.024463	0
Time Shift (s):	14
*
Time (s)	Temperature (C)	N2 flow rate (cc/min)	O2 flow rate (cc/min)	Flow Rate (cc/min)	Oxygen (%)	HRR (W/g)	Heating rate (C/s)
0.000	116.377	80.004	19.993	103.664	20.052	-0.356	0.031
7.500	116.363	80.006	19.993	103.684	20.050	-0.185	0.019
15.001	116.395	80.014	19.995	103.801	20.036	0.942	0.042
22.500	116.840	80.003	19.992	103.906	20.017	2.452	0.095
30.000	117.846	80.008	19.992	103.885	20.013	2.772	0.182
37.500	119.230	80.008	19.993	103.885	20.012	2.844	0.206
45.000	120.869	80.003	19.993	103.909	20.008	3.123	0.247
52.500	122.891	80.010	19.992	103.910	20.007	3.245	0.259
60.000	125.137	80.008	19.994	103.903	20.009	3.103	0.298
67.500	127.630	80.002	19.994	103.920	20.004	3.496	0.325
75.001	130.308	80.002	19.995	103.931	20.002	3.663	0.361
82.500	133.075	80.015	19.993	103.939	20.004	3.502	0.383
90.001	136.030	80.002	19.995	103.937	20.001	3.720	0.418
97.501	139.179	80.000	19.992	103.933	19.999	3.874	0.441
105.000	142.326	80.005	19.995	103.931	20.001	3.718	0.451
112.501	145.632	80.006	19.992	103.938	20.001	3.707	0.425
120.000	149.110	79.997	19.995	103.934	20.000	3.770	0.487
127.501	152.622	80.006	19.992	103.941	20.000	3.824	0.496
135.000	156.152	79.996	19.991	103.934	19.999	3.857	0.481
142.500	159.762	80.000	19.992	103.938	19.999	3.836	0.486
150.001	163.479	80.014	19.990	103.940	19.996	4.133	0.510
157.500	167.224	80.007	19.993	103.928	19.997	4.022	0.500
165.000	170.997	80.007	19.994	103.931	20.002	3.636	0.505
172.500	174.824	80.008	19.993	103.933	20.006	3.301	0.525
180.000	178.702	80.000	19.995	103.921	19.998	3.950	0.594
187.500	182.424	80.001	19.996	103.904	20.000	3.791	0.510
195.000	186.246	79.997	19.993	103.901	20.008	3.140	0.558
202.500	190.087	80.016	19.992	103.903	20.002	3.642	0.524
210.000	193.820	80.010	19.992	103.904	20.006	3.340	0.492
217.500	197.545	80.014	19.993	103.906	20.012	2.800	0.492
225.001	201.264	80.010	19.994	103.892	20.005	3.411	0.517
232.501	204.961	80.009	19.992	103.893	20.001	3.677	0.513
240.001	208.724	80.009	19.995	103.897	20.003	3.578	0.510
247.501	212.334	80.022	20.004	103.935	20.005	3.412	0.487
255.000	216.082	80.009	20.006	103.933	20.002	3.608	0.470
262.500	219.832	80.031	19.999	103.908	20.002	3.603	0.499
270.000	223.510	80.026	20.002	103.912	19.999	3.905	0.478
277.500	227.255	79.993	19.997	103.874	19.991	4.549	0.505
285.000	230.937	80.001	19.995	103.877	19.989	4.679	0.500
292.500	234.658	80.007	19.993	103.884	19.983	5.115	0.491
300.000	238.364	80.005	19.992	103.881	19.978	5.534	0.500
307.500	242.064	80.009	19.994	103.885	19.976	5.748	0.455
315.000	245.868	80.002	19.989	103.900	19.974	5.903	0.504
322.500	249.692	80.009	19.992	103.891	19.967	6.436	0.499
330.000	253.416	80.005	19.992	103.879	19.962	6.808	0.465
337.500	257.286	80.004	19.994	103.896	19.955	7.415	0.510
345.000	261.027	79.998	19.995	103.888	19.944	8.294	0.461
352.500	264.762	80.011	19.996	103.884	19.934	9.082	0.448
360.000	268.531	80.006	19.993	103.858	19.915	10.632	0.461
367.500	272.316	80.032	19.988	103.896	19.904	11.462	0.486
375.000	276.034	80.014	19.994	103.896	19.888	12.728	0.490
382.500	279.751	80.012	19.993	103.904	19.866	14.530	0.475
390.000	283.503	80.002	19.992	103.907	19.846	16.137	0.511
397.500	287.264	80.009	19.994	103.928	19.828	17.594	0.516
405.000	290.979	80.006	19.993	103.938	19.800	19.777	0.525
412.500	294.760	80.004	19.994	103.945	19.776	21.728	0.496
420.000	298.503	80.004	19.993	103.944	19.742	24.441	0.482
427.500	302.223	80.002	19.995	103.947	19.713	26.817	0.483
435.000	306.026	80.007	19.994	103.964	19.680	29.390	0.508
442.500	309.813	80.009	19.995	103.981	19.644	32.286	0.512
450.000	313.645	80.004	19.994	103.978	19.601	35.742	0.507
457.500	317.472	80.016	19.991	104.000	19.558	39.242	0.507
465.000	321.170	80.007	19.994	104.053	19.508	43.217	0.523
472.500	324.966	80.008	19.992	104.019	19.464	46.727	0.502
480.000	328.699	80.006	19.994	104.042	19.416	50.589	0.493
487.500	332.515	80.010	19.991	104.055	19.370	54.313	0.521
495.000	336.270	80.005	19.997	104.058	19.322	58.172	0.483
502.500	340.084	80.008	19.993	104.026	19.271	62.230	0.514
510.000	343.801	80.003	19.992	104.071	19.239	64.827	0.475
517.500	347.647	80.010	19.992	104.061	19.209	67.149	0.540
525.000	351.381	80.008	19.997	104.043	19.211	67.033	0.514
532.500	355.205	80.003	19.994	103.993	19.247	64.082	0.513
540.000	358.964	80.003	19.994	103.945	19.316	58.528	0.493
547.500	362.804	80.009	19.992	103.887	19.431	49.335	0.526
555.000	366.555	80.008	19.992	103.860	19.544	40.286	0.504
562.500	370.407	80.007	19.996	103.825	19.644	32.267	0.501
570.000	374.243	80.004	19.990	103.820	19.711	26.935	0.558
577.500	378.044	80.009	19.990	103.822	19.740	24.597	0.543
585.000	381.848	80.007	19.994	103.817	19.745	24.203	0.516
592.500	385.637	80.006	19.993	103.818	19.743	24.340	0.523
600.000	389.443	80.007	19.994	103.824	19.737	24.835	0.518
607.500	393.300	80.012	19.990	103.830	19.723	25.930	0.507
615.000	397.137	80.006	19.996	103.820	19.711	26.935	0.494
622.500	400.902	80.008	19.995	103.819	19.691	28.514	0.486
630.000	404.671	80.009	19.992	103.818	19.675	29.737	0.486
637.500	408.436	80.010	19.992	103.813	19.653	31.545	0.511
645.000	412.253	80.004	19.992	103.795	19.637	32.806	0.488
652.500	415.987	80.007	19.990	103.798	19.611	34.871	0.509
660.000	419.766	80.002	19.993	103.789	19.588	36.694	0.515
667.500	423.541	80.009	19.995	103.794	19.570	38.204	0.519
675.000	427.274	80.007	19.993	103.788	19.544	40.214	0.524
682.500	431.024	80.007	19.993	103.785	19.525	41.799	0.503
690.000	434.811	80.007	19.993	103.785	19.500	43.762	0.501
697.500	438.654	80.003	19.995	103.788	19.477	45.611	0.499
705.000	442.391	80.009	19.995	103.784	19.454	47.406	0.505
712.501	446.153	80.004	19.992	103.779	19.440	48.556	0.498
720.000	449.937	80.008	19.993	103.783	19.431	49.258	0.498
727.500	453.750	80.007	19.992	103.781	19.425	49.789	0.528
735.000	457.570	80.005	19.993	103.783	19.434	49.077	0.516
742.500	461.462	80.007	19.994	103.778	19.455	47.389	0.534
750.000	465.320	80.005	19.994	103.756	19.486	44.908	0.506
757.500	469.213	80.005	19.995	103.775	19.522	42.003	0.536
765.000	473.043	80.006	19.993	103.774	19.577	37.568	0.522
772.500	476.974	80.006	19.994	103.785	19.642	32.390	0.549
780.000	480.795	80.006	19.994	103.780	19.699	27.834	0.515
787.500	484.651	80.008	19.993	103.787	19.757	23.217	0.489
795.000	488.507	80.007	19.992	103.785	19.804	19.465	0.514
802.500	492.353	80.008	19.993	103.786	19.847	15.998	0.493
810.000	496.239	80.006	19.994	103.786	19.885	12.972	0.508
817.500	500.051	80.006	19.995	103.786	19.912	10.802	0.496
825.000	503.885	80.005	19.993	103.791	19.933	9.176	0.486
832.500	507.707	80.006	19.993	103.789	19.953	7.556	0.505
840.000	511.533	80.007	19.994	103.790	19.966	6.529	0.492
847.500	515.375	80.007	19.994	103.790	19.972	6.040	0.530
855.000	519.239	80.007	19.993	103.789	19.981	5.269	0.493
862.500	523.095	80.006	19.993	103.797	19.989	4.686	0.520
870.000	526.986	80.005	19.992	103.788	19.992	4.395	0.491
877.500	530.782	80.008	19.994	103.784	19.995	4.175	0.511
885.000	534.636	80.009	19.992	103.782	19.998	3.975	0.506
892.500	538.404	80.007	19.993	103.785	20.000	3.799	0.448
900.000	542.250	80.006	19.994	103.787	20.000	3.775	0.516
907.500	546.026	80.006	19.995	103.786	20.001	3.723	0.515
915.000	549.894	80.007	19.993	103.788	20.005	3.415	0.529
922.501	553.690	80.006	19.993	103.789	20.003	3.576	0.535
930.000	557.552	80.006	19.992	103.792	20.007	3.230	0.479
937.500	561.396	80.007	19.994	103.787	20.008	3.145	0.525
945.000	565.234	80.007	19.992	103.783	20.011	2.930	0.512
952.500	569.019	80.007	19.992	103.785	20.011	2.880	0.517
960.000	572.857	80.008	19.993	103.782	20.014	2.674	0.483
967.500	576.756	80.008	19.993	103.782	20.014	2.639	0.486
975.000	580.621	80.006	19.994	103.787	20.015	2.582	0.512
982.500	584.487	80.006	19.994	103.787	20.017	2.450	0.528
990.000	588.339	80.005	19.993	103.788	20.015	2.608	0.528
997.500	592.143	80.006	19.994	103.789	20.012	2.854	0.477
1005.000	596.090	80.006	19.993	103.785	20.018	2.347	0.530
1012.501	599.851	80.008	19.993	103.779	20.017	2.395	0.510
1020.000	603.712	80.007	19.994	103.781	20.016	2.519	0.507
1027.501	607.499	80.006	19.994	103.783	20.016	2.526	0.471
1035.000	611.381	80.007	19.995	103.780	20.017	2.408	0.539
1042.500	615.323	80.011	19.993	103.785	20.020	2.215	0.527
1050.000	619.145	80.007	19.992	103.785	20.017	2.426	0.492
1057.500	623.017	80.006	19.993	103.780	20.019	2.278	0.511
1065.000	626.805	80.007	19.993	103.787	20.022	2.013	0.520
1072.500	630.756	80.008	19.994	103.783	20.019	2.234	0.586
1080.000	634.468	80.005	19.993	103.783	20.021	2.097	0.502
1087.500	638.264	80.007	19.994	103.786	20.024	1.865	0.507
1095.000	642.095	80.007	19.994	103.771	20.023	1.958	0.515
1102.500	645.877	80.007	19.993	103.780	20.023	1.973	0.508
1110.000	649.650	80.006	19.993	103.786	20.020	2.219	0.506
1117.500	652.864	80.007	19.993	103.777	20.016	2.512	-0.151
1125.000	657.238	80.008	19.993	103.785	20.017	2.406	0.481
1132.500	661.136	80.008	19.993	103.782	20.018	2.382	0.552
1140.001	665.046	80.007	19.993	103.770	20.015	2.565	0.507
1147.500	668.899	80.007	19.993	103.782	20.022	2.050	0.541
1155.000	672.746	80.009	19.993	103.783	20.021	2.075	0.487
1162.500	676.744	80.005	19.994	103.769	20.026	1.723	0.531
1170.001	680.644	80.007	19.992	103.777	20.021	2.139	0.518
1177.500	684.469	80.008	19.992	103.781	20.022	2.034	0.491
1185.000	688.336	80.009	19.992	103.781	20.021	2.136	0.552
1192.500	692.142	80.005	19.995	103.780	20.016	2.499	0.543
1200.001	695.976	80.008	19.993	103.777	20.018	2.343	0.502
1207.500	699.842	80.009	19.993	103.777	20.021	2.080	0.517
1215.001	703.702	80.005	19.995	103.775	20.021	2.073	0.502
1222.500	707.495	80.006	19.995	103.770	20.021	2.097	0.504
1230.000	711.296	80.006	19.992	103.777	20.020	2.160	0.519
1237.501	715.081	80.007	19.993	103.773	20.018	2.310	0.536
1245.001	718.854	80.007	19.993	103.781	20.024	1.893	0.532
1252.500	722.656	80.006	19.993	103.782	20.026	1.747	0.493
1260.000	726.453	80.009	19.993	103.787	20.018	2.386	0.508
1267.500	730.245	80.007	19.993	103.772	20.024	1.908	0.529
1275.000	733.979	80.007	19.993	103.778	20.021	2.130	0.533
1282.500	737.805	80.008	19.993	103.781	20.016	2.493	0.474
1290.000	741.668	80.010	19.993	103.777	20.022	2.017	0.531
1293.501	743.438	80.009	19.994	103.774	20.018	2.325	0.502