Folder: fsri_materials_database/01_Data/LDPE/Cone (part 5)

File: LDPE_Cone_HF75Scan_220202_R3.csv
Names,Time,Stack TC,Smoke TC,Exh Press,Smoke Comp,Smoke Meas,CO Meter,CO2 Meter,O2 Meter,Sample Mass,Ext Coeff,Start Test,Flame Verif
Chan Gain,,500,500,1,1,1,1,1,1,1,1,1.0,1.0
Offset,,0,0,0.14021,0,0,0,0,0,0,0,0.0,0.0
Gain,,1,1,25.011,13.3046,13.3037,1,1,1,1.00087,1.10262,1.0,1.0
Units,sec,C,C,Pa,%,%,%,%,%,g,/m,,
Baseline,,44.0122,46.4499,131.506,101.104,101.094,0.00462963,0.109582,20.8866,-2.57091,0.0011653,,
11,2.5,38.9281,40.3567,130.178,101.19,102.231,0.00441683,0.11872,20.8754,895.461,-0.0989713,0.0,0.0
22,5.25,38.896,40.7519,128.111,101.081,102.23,0.0043819,0.118396,20.877,965.803,-0.109301,0.0,0.0
33,8,38.9857,41.3356,130.617,100.916,101.316,0.00429867,0.117678,20.8774,973.499,-0.0382724,0.0,0.0
44,10.75,39.3272,41.9112,133.311,100.797,101.317,0.00414861,0.116961,20.8772,962.63,-0.04972,0.0,0.0
55,13.5,39.5724,41.979,130.241,100.724,101.03,0.00421823,0.11581,20.8786,946.376,-0.0293724,0.0,0.0
66,16.25,39.5059,41.8305,127.615,100.6,99.9373,0.00455159,0.11489,20.8791,930.492,0.0638921,0.0,0.0
77,19,39.9392,42.2395,137.693,100.724,101.181,0.00499458,0.114525,20.8793,921.984,-0.0437429,0.0,0.0
88,21.75,40.2201,42.4822,129.899,100.908,100.615,0.00556593,0.117094,20.8651,906.611,0.0281166,0.0,0.0
99,24.5,40.8728,43.5087,128.485,101.027,101.31,0.00589452,0.131357,20.8218,888.225,-0.0270348,0.0,1.0
110,27.25,41.3547,44.1561,124.785,101.099,100.711,0.00580088,0.158695,20.7637,887.084,0.0371453,0.0,1.0
121,30,42.7936,45.6528,122.088,101.106,97.6999,0.00574613,0.196006,20.7113,892.829,0.331414,0.0,0.0
132,32.75,44.1009,48.3264,122.752,101.05,93.7666,0.00620366,0.235244,20.6245,894.42,0.723494,0.0,0.0
143,35.5,46.3327,51.4637,120.941,100.935,89.7684,0.00713789,0.297306,20.4875,894.33,1.13396,0.0,0.0
154,38.25,49.3664,55.4498,108.389,100.765,88.4692,0.00829859,0.370861,20.3495,894.07,1.25865,0.0,0.0
165,41,52.4666,59.7784,109.504,100.527,84.7543,0.00952665,0.44721,20.1878,893.86,1.65069,0.0,0.0
176,43.75,55.7135,65.0854,103.951,100.235,80.3692,0.0110473,0.5277,20.0248,893.58,2.13645,0.0,0.0
187,46.5,59.5143,70.404,99.6308,100.22,76.9889,0.0133543,0.6342,19.7919,893.319,2.55057,0.0,0.0
198,49.25,64.8092,78.9209,96.1075,100.295,73.3792,0.0164241,0.784282,19.5163,892.909,3.02228,0.0,0.0
209,52,71.3529,88.7083,86.2277,100.377,72.3804,0.0206739,0.968095,19.2254,892.359,3.16277,0.0,0.0
220,54.75,79.5662,100.667,81.4641,100.467,67.109,0.0257114,1.20847,18.7591,891.858,3.90284,0.0,0.0
231,57.5,87.8269,114.367,75.0228,100.583,65.6344,0.0320105,1.4806,18.2699,891.218,4.12887,0.0,0.0
242,60.25,97.8578,129.803,85.9529,100.676,65.4294,0.0396685,1.80339,17.6447,890.397,4.16806,0.0,0.0
253,63,108.946,147.951,63.6416,100.74,65.0088,0.0482247,2.20178,17.0211,889.526,4.2366,0.0,0.0
264,65.75,120.471,166.771,60.5534,100.798,65.6486,0.056942,2.63477,16.248,888.655,4.14744,0.0,0.0
275,68.5,132.157,186.423,60.7694,100.817,66.2385,0.0628246,3.12619,15.4491,887.544,4.06275,0.0,0.0
286,71.25,143.575,206.869,58.6299,100.789,67.6039,0.0672536,3.61812,14.7759,886.664,3.86272,0.0,0.0
297,74,154.823,226.791,70.9095,100.746,64.2297,0.0720778,4.08033,14.1263,885.483,4.3538,0.0,0.0
308,76.75,166.275,247.703,47.6166,100.672,69.6765,0.0763066,4.58506,13.4143,884.251,3.55942,0.0,0.0
319,79.5,176.973,265.958,58.923,100.575,68.815,0.07823,4.99227,12.7853,883.18,3.67035,0.0,0.0
330,82.25,187.924,285.394,46.9816,100.465,70.8096,0.0785176,5.36585,12.2631,881.879,3.38347,0.0,0.0
341,85,196.87,298.97,55.7486,100.337,72.5327,0.0767428,5.62793,11.9674,880.548,3.13853,0.0,0.0
352,87.75,203.604,310.184,45.2146,100.199,72.2753,0.074266,5.85336,11.5888,879.427,3.1596,0.0,0.0
363,90.5,212.767,326.98,78.2461,100.081,74.1688,0.0712712,6.21681,11.0509,878.326,2.89809,0.0,0.0
374,93.25,222.3,342.435,72.2773,99.9574,72.0637,0.0677512,6.56595,10.5935,877.065,3.16464,0.0,0.0
385,96,229.535,354.429,44.2032,99.8481,70.2274,0.0661054,6.86214,10.1424,875.504,3.40373,0.0,0.0
396,98.75,237.128,367.124,41.5432,99.7511,69.7711,0.0668395,7.12499,9.85033,874.383,3.45738,0.0,0.0
407,101.5,243.547,377.644,62.7638,99.6581,69.6261,0.0665632,7.31861,9.55971,872.942,3.46847,0.0,0.0
418,104.25,250.894,388.18,59.1688,99.5952,76.0656,0.0646904,7.48593,9.35242,871.701,2.6068,0.0,0.0
429,107,257.857,400.137,44.6811,99.5554,67.3445,0.0628529,7.66212,9.06317,870.089,3.78077,0.0,0.0
440,109.75,264.279,409.933,57.4865,99.529,68.0655,0.063826,7.85916,8.85292,868.948,3.67519,0.0,0.0
451,112.5,267.242,412.515,65.2109,99.5018,64.4578,0.067738,7.72389,9.10622,867.857,4.19929,0.0,0.0
462,115.25,265.295,403.991,65.9512,99.5233,64.0932,0.0648744,6.91523,10.9336,867.277,4.25624,0.0,0.0
473,118,254.157,378.212,104.8,99.5319,93.294,0.0505546,5.34358,13.9534,867.117,0.625992,0.0,0.0
484,120.75,236.898,345.912,109.024,99.5497,97.5781,0.0348864,3.66827,16.3979,867.066,0.193482,0.0,0.0
495,123.5,219.959,316.28,107.715,99.5737,98.7056,0.023635,2.4459,18.1899,867.016,0.0846945,0.0,0.0
506,126.25,206.823,292.68,115.254,99.5964,99.2541,0.0172171,1.63259,19.2624,866.976,0.0333048,0.0,0.0
517,129,194.86,270.793,110.704,99.6232,99.3093,0.0133001,1.13431,19.9332,866.966,0.0305283,0.0,0.0
528,131.75,183.83,251.469,115.376,99.6756,99.4538,0.0112358,0.82377,20.2782,866.916,0.0215441,0.0,0.0
539,134.5,174.55,234.738,109.028,99.6947,99.0762,0.00992572,0.636368,20.4527,866.916,0.060186,0.0,0.0
550,137.25,166.294,220.079,116.594,99.7012,99.3807,0.00901235,0.507055,20.5654,866.906,0.0311363,0.0,0.0
561,140,158.777,207.034,109.872,99.7401,99.127,0.00839058,0.427647,20.6385,866.816,0.059644,0.0,0.0
572,142.75,151.958,195.579,114.289,99.7665,99.276,0.00809398,0.363188,20.6833,866.766,0.0476755,0.0,0.0
583,145.5,146.797,185.508,116.148,99.797,99.2715,0.00806316,0.319015,20.7092,866.756,0.0510619,0.0,0.0
594,148.25,141.653,176.199,114.783,99.7986,99.6418,0.00803375,0.287386,20.7286,866.726,0.0152112,0.0,0.0
605,151,136.928,167.789,112.341,99.8197,98.8818,0.00800827,0.262681,20.7437,866.676,0.0913145,0.0,0.0
616,153.75,132.966,160.665,115.666,99.8319,98.9276,0.00796101,0.24445,20.7538,866.676,0.0880085,0.0,0.0
627,156.5,129.176,153.705,116.769,99.8676,99.0604,0.00782924,0.230514,20.7613,866.606,0.0784977,0.0,0.0
638,159.25,125.303,147.767,116.775,99.8924,98.8984,0.00775639,0.21911,20.77,866.616,0.0967269,0.0,0.0
649,162,122.631,143.356,112.865,99.9147,98.9625,0.00767141,0.209497,20.7773,866.676,0.0926176,0.0,0.0
660,164.75,120.384,138.387,118.596,99.9354,99.0442,0.00759777,0.200929,20.7852,866.616,0.0866487,0.0,0.0
671,167.5,117.485,133.924,115.044,99.9724,98.3885,0.00762038,0.194453,20.7884,866.546,0.154468,0.0,0.0
682,170.25,114.688,129.638,119.619,100.027,98.4218,0.00773508,0.188978,20.7889,866.576,0.156458,0.0,0.0
693,173,113.731,126.416,115.815,100.071,99.1363,0.00764455,0.183269,20.7937,866.576,0.0908085,0.0,0.0
704,175.75,111.108,123.217,118.795,100.11,98.574,0.00747317,0.17861,20.7977,866.496,0.149591,0.0,0.0
715,178.5,109.135,120.16,118.984,100.15,98.4469,0.00728553,0.174853,20.8025,866.526,0.165911,0.0,0.0
726,181.25,107.305,117.144,117.839,100.206,98.2529,0.00718429,0.170637,20.8082,866.526,0.190407,0.0,0.0
737,184,105.604,115.275,120.28,100.248,96.8717,0.00703639,0.16635,20.8136,866.496,0.331335,0.0,0.0
748,186.75,104.074,112.291,116.11,100.294,96.7913,0.00692986,0.157035,20.8324,866.476,0.343868,0.0,0.0
759,189.5,102.064,109.092,113.915,100.315,96.9801,0.0069292,0.146807,20.8472,866.446,0.327057,0.0,0.0
770,192.25,100.465,107.153,119.575,100.359,96.2136,0.00670996,0.138469,20.8564,866.456,0.407956,0.0,0.0
781,195,100.114,105.679,119.527,100.399,96.5034,0.00633148,0.132751,20.8609,866.436,0.382733,0.0,0.0
792,197.75,98.5703,103.976,118.401,100.442,96.6175,0.00591811,0.128644,20.8635,866.436,0.37545,0.0,0.0
803,200.5,97.0851,101.576,119.819,100.477,96.3727,0.00565601,0.125701,20.8654,866.436,0.40343,0.0,0.0
814,203.25,96.521,100.389,122.064,100.516,97.2509,0.00562011,0.123913,20.8675,866.426,0.319446,0.0,0.0
825,206,95.3565,98.4647,117.812,100.555,96.7182,0.00570634,0.122209,20.8684,866.376,0.376317,0.0,0.0
836,208.75,93.7826,97.4537,116.315,100.581,96.4113,0.00576596,0.121144,20.8701,866.366,0.40952,0.0,0.0
847,211.5,93.3629,95.7825,121.381,100.611,96.607,0.00567826,0.120224,20.8707,866.356,0.392797,0.0,0.0
858,214.25,92.3472,94.7613,118.68,100.63,96.3114,0.00550903,0.11951,20.8706,866.376,0.424268,0.0,0.0
869,217,91.2762,92.8043,119.526,100.669,96.7673,0.00541679,0.118835,20.8696,866.376,0.382296,0.0,0.0
880,219.75,90.2231,92.3599,117.957,100.704,96.6025,0.00523861,0.118455,20.8693,866.386,0.402218,0.0,0.0
891,222.5,89.4664,91.0906,119.107,100.74,97.2793,0.0051404,0.118319,20.8692,866.376,0.338084,0.0,0.0
902,225.25,87.6288,89.2582,120.124,100.757,96.827,0.00521131,0.118273,20.8691,866.316,0.384834,0.0,0.0
913,228,87.9055,89.3007,117.765,100.781,97.0747,0.00521389,0.118075,20.8696,866.326,0.362426,0.0,0.0
924,230.75,87.6001,88.3792,121.467,100.818,96.5688,0.00516861,0.117436,20.8708,866.306,0.416466,0.0,0.0
935,233.5,85.8535,87.0364,122.387,100.851,96.4632,0.00514704,0.116959,20.8729,866.286,0.430277,0.0,0.0
946,236.25,85.8088,86.1599,122.26,100.866,96.8022,0.00519623,0.116095,20.8751,866.256,0.397747,0.0,0.0
957,239,85.2315,85.6839,119.667,100.871,96.4044,0.00520383,0.11509,20.8765,866.276,0.438051,0.0,0.0
968,241.75,84.4879,84.9197,119.65,100.889,96.4287,,0.114656,,866.256,0.437359,0.0,0.0
979,244.5,83.5286,84.2657,120.348,100.902,96.5359,,,,866.286,0.427821,0.0,0.0
990,247.25,82.6627,83.1691,122.821,100.91,96.173,,,,866.226,0.465033,0.0,0.0
1001,250,82.761,82.5262,122.861,100.909,96.1531,,,,866.186,0.466918,0.0,0.0
1010,252.25,82.2152,82.2138,120.258,100.906,96.5664,,,,866.236,0.42516,0.0,0.0