Folder: fsri_materials_database/01_Data/LDPE/Cone

Note: 01_Data/README.md
# Materials and Products Database
## 01_Data

Raw data generated from each apparatus are included here in plain-text format. The data is organized first by material, next by the short name of test apparatus used, and where applicable additional filtering by test settings.

### material.json

Each material directory contains a json file of the same name as the material. This file links the data stored in the repository as well as data and graphs produced by the accompanying scripts (__02_Scripts__) to the respective landing page for the material on the front-end website.

File: LDPE_Cone_HF25Scalar_220202_R1.csv
LABORATORY,FSRI
TEST IDENT,LDPE_HF25_1
OPERATOR,Dow
MATERIAL,LDPE
ORIENTATION,Horizontal
HEAT FLUX,25
SURF AREA,0.01
C FACTOR,0.0415673
SPEC HOLDER DIFF,333.79
SPECIMEN MASS,30
SCAN TIME,0.25
O2 DELAY TIME,11
CO DELAY TIME,11
CO2 DELAY TIME,8
FLOW FACTOR,1
SCAN COUNT,1917
TIME TO IGN,118.5
END OF TEST SCAN,1437
END OF TEST TIME,359.25
TEST STATUS,1
PRE TEST CMT,Dimensions: 100.15 x 100.21 x 3.09 mm
POST TEST CMT,ignore spikes in mass measurment prior to ignition

File: LDPE_Cone_HF25Scalar_220202_R2.csv
LABORATORY,FSRI
TEST IDENT,LDPE_HF25_2
OPERATOR,Dow
MATERIAL,LDPE
ORIENTATION,Horizontal
HEAT FLUX,25
SURF AREA,0.01
C FACTOR,0.0415673
SPEC HOLDER DIFF,331.03
SPECIMEN MASS,30.1
SCAN TIME,0.25
O2 DELAY TIME,11
CO DELAY TIME,11
CO2 DELAY TIME,8
FLOW FACTOR,1
SCAN COUNT,1775
TIME TO IGN,112.5
END OF TEST SCAN,1295
END OF TEST TIME,323.75
TEST STATUS,1
PRE TEST CMT,Dimensions: 100.17 x 100.32 x 3.06 mm
POST TEST CMT,"sample warped prior to ignition and touched the spark ignitor, causing spikes in mass measurement; sample dripped from foil tray (see test pictures) - about 2 grams of the sample remained unburned"

File: LDPE_Cone_HF25Scalar_220202_R3.csv
LABORATORY,FSRI
TEST IDENT,LDPE_HF25_3
OPERATOR,Dow
MATERIAL,LDPE
ORIENTATION,Horizontal
HEAT FLUX,25
SURF AREA,0.01
C FACTOR,0.0415673
SPEC HOLDER DIFF,301.45
SPECIMEN MASS,30
SCAN TIME,0.25
O2 DELAY TIME,11
CO DELAY TIME,11
CO2 DELAY TIME,8
FLOW FACTOR,1
SCAN COUNT,1762
TIME TO IGN,103.5
END OF TEST SCAN,1282
END OF TEST TIME,320.5
TEST STATUS,1
PRE TEST CMT,Dimensions: 99.66 x 100.06 x 3.03 mm
POST TEST CMT,"sample warped prior to ignition and touch the spark ignitor, affecting mass data"

File: LDPE_Cone_HF25Scan_220202_R1.csv
Names,Time,Stack TC,Smoke TC,Exh Press,Smoke Comp,Smoke Meas,CO Meter,CO2 Meter,O2 Meter,Sample Mass,Ext Coeff,Start Test,Flame Verif
Chan Gain,,500,500,1,1,1,1,1,1,1,1,1.0,1.0
Offset,,0,0,0.14021,0,0,0,0,0,0,0,0.0,0.0
Gain,,1,1,25.011,13.3046,13.3037,1,1,1,1.00087,1.10262,1.0,1.0
Units,sec,C,C,Pa,%,%,%,%,%,g,/m,,
Baseline,,14.533,15.5524,146.82,101.01,105.057,0.00481248,0.106204,20.9013,-0.0405771,-0.379881,,
20,4.75,13.3149,14.3221,148.111,101.944,106.239,0.00492109,0.119846,20.8858,930.752,-0.399198,0.0,0.0
40,9.75,13.6547,14.4652,146.881,101.854,106.037,0.00467039,0.119806,20.8894,930.762,-0.389252,0.0,0.0
60,14.75,14.1268,14.8899,146.076,101.512,105.666,0.00464172,0.117207,20.8962,965.092,-0.387979,0.0,0.0
80,19.75,13.4423,14.3257,146.942,101.184,105.867,0.00467162,0.114367,20.9008,992.596,-0.437514,0.0,0.0
100,24.75,14.2452,15.1362,148.332,101.499,105.607,0.00457472,0.112351,20.9011,987.732,-0.383674,0.0,0.0
120,29.75,13.915,14.628,145.448,101.644,106.219,0.00476224,0.111431,20.9012,986.351,-0.425897,0.0,0.0
140,34.75,14.2319,15.0466,145.174,101.248,105.599,0.00485907,0.110311,20.9018,987.552,-0.40691,0.0,0.0
160,39.75,14.1753,15.351,149.196,100.799,105.305,0.0046257,0.109629,20.9025,987.371,-0.42298,0.0,0.0
180,44.75,14.1584,15.2611,146.861,101.067,105.237,0.00480272,0.108411,20.9051,980.065,-0.391074,0.0,0.0
200,49.75,14.4106,15.2253,148.214,101.309,105.78,0.00444833,0.10824,20.9041,965.953,-0.417663,0.0,0.0
220,54.75,14.1745,15.3424,145.269,101.21,105.833,0.00450038,0.10856,20.902,950.179,-0.43199,0.0,0.0
240,59.75,14.4466,15.7467,147.401,100.77,105.166,0.00447383,0.108483,20.903,925.507,-0.412948,0.0,0.0
260,64.75,14.6015,15.6642,148.541,100.231,104.439,0.0046817,0.108341,20.9044,921.724,-0.397733,0.0,0.0
280,69.75,14.1767,15.1405,144.152,100.007,104.144,0.00468677,0.10823,20.9045,923.175,-0.392049,0.0,0.0
300,74.75,14.3555,15.9115,151.258,100.312,104.685,0.00493598,0.108487,20.9014,923.876,-0.412734,0.0,0.0
320,79.75,14.8546,16.1225,148.37,101.02,105.737,0.00505689,0.109653,20.8956,925.057,-0.441407,0.0,0.0
340,84.75,14.877,16.4459,145.612,101.702,106.171,0.00486379,0.111803,20.8919,926.308,-0.415933,0.0,0.0
360,89.75,14.945,16.1001,149.273,101.947,106.412,0.00488407,0.112835,20.8905,928.59,-0.414586,0.0,0.0
380,94.75,15.6373,16.4817,145.828,101.707,106.191,0.00502427,0.1142,20.8885,929.281,-0.417322,0.0,0.0
400,99.75,15.466,16.566,143.354,101.258,105.557,0.0051487,0.115906,20.8834,929.861,-0.402147,0.0,0.0
420,104.75,15.7245,17.282,143.96,101.567,105.738,0.00538006,0.118874,20.8755,930.182,-0.389219,0.0,0.0
440,109.75,15.6689,17.7674,144.846,101.569,105.92,0.00532242,0.122332,20.8697,930.382,-0.405685,0.0,0.0
460,114.75,16.3679,18.3056,144.058,100.792,104.532,0.0054259,0.126485,20.86,930.462,-0.352343,0.0,0.0
480,119.75,15.8654,18.2235,142.76,101.086,104.548,0.00522732,0.133185,20.8418,930.452,-0.325755,0.0,1.0
500,124.75,17.087,19.0289,146.523,101.319,105.127,0.00508901,0.142954,20.8155,930.412,-0.356893,0.0,0.0
520,129.75,17.6487,20.1081,139.863,101.151,104.673,0.00538298,0.15508,20.7936,930.342,-0.331103,0.0,0.0
540,134.75,19.3785,22.3702,137.268,100.786,104.261,0.0053186,0.169198,20.758,930.282,-0.327837,0.0,0.0
560,139.75,20.654,23.795,137.559,100.298,103.536,0.00545593,0.185674,20.735,930.192,-0.307248,0.0,0.0
580,144.75,21.8879,25.5186,140.492,99.9773,101.395,0.00549423,0.204256,20.6952,930.011,-0.13622,0.0,0.0
600,149.75,22.8044,27.8445,137.49,100.032,99.9974,0.0057975,0.22471,20.6603,929.891,0.00338924,0.0,0.0
620,154.75,23.6896,29.5679,134.539,100.476,100.075,0.00621435,0.242749,20.6338,929.721,0.038667,0.0,0.0
640,159.75,25.472,30.5795,139.673,101.117,100.227,0.00657413,0.260385,20.6051,929.591,0.0855608,0.0,0.0
660,164.75,27.18,33.2576,137.1,101.645,98.2212,0.00656687,0.278502,20.5715,929.391,0.331427,0.0,0.0
680,169.75,28.9873,35.3214,130.363,101.889,96.6849,0.0072496,0.30099,20.5185,929.181,0.507059,0.0,0.0
700,174.75,30.8935,38.2348,128.251,101.769,95.6797,0.00792169,0.325597,20.4687,928.951,0.596808,0.0,0.0
720,179.75,33.4084,41.6883,129.301,101.413,92.4143,0.00834531,0.360927,20.3733,928.68,0.898768,0.0,0.0
740,184.75,36.967,46.1554,124.314,101.084,88.118,0.00933892,0.408307,20.2782,928.34,1.32771,0.0,0.0
760,189.75,40.2653,51.7409,120.053,101.503,85.7458,0.0109474,0.471161,20.1203,927.95,1.63167,0.0,0.0
780,194.75,44.7032,57.9674,110.891,101.565,85.5168,0.011882,0.546252,19.9748,927.479,1.66349,0.0,0.0
800,199.75,49.559,65.6515,114.825,101.103,85.4336,0.0127613,0.629267,19.8007,926.899,1.62877,0.0,0.0
820,204.75,54.8274,73.2039,116.024,100.75,83.7048,0.0139007,0.716749,19.6631,926.368,1.79263,0.0,0.0
840,209.75,60.7491,82.4164,103.052,100.933,82.5043,0.0150779,0.805921,19.5296,925.738,1.94992,0.0,0.0
860,214.75,66.5324,89.6518,102.213,101.14,82.8206,0.0161949,0.888403,19.4028,925.117,1.93278,0.0,0.0
880,219.75,72.0397,98.1572,102.829,101.118,79.6839,0.0176361,0.977985,19.2381,924.386,2.30408,0.0,0.0
900,224.75,78.9788,106.931,92.3232,100.829,77.6076,0.0197259,1.0777,19.0484,923.626,2.53178,0.0,0.0
920,229.75,85.4091,117.632,97.8943,100.363,77.0023,0.0213061,1.19003,18.8652,922.845,2.56275,0.0,0.0
940,234.75,91.9645,127.75,99.1713,99.9298,77.58,0.0224879,1.30493,18.6957,921.924,2.44857,0.0,0.0
960,239.75,98.6257,135.551,95.316,99.756,75.2829,0.0245887,1.41065,18.4959,921.054,2.72245,0.0,0.0
980,244.75,105.019,145.925,95.1229,99.9354,76.2362,0.0261554,1.53563,18.3033,920.073,2.61813,0.0,0.0
1000,249.75,111.56,155.78,86.004,100.417,75.2821,0.0289437,1.65506,18.1144,919.102,2.78643,0.0,0.0
1020,254.75,118.654,165.841,81.6778,101.01,76.282,0.0317016,1.78278,17.9136,918.081,2.71577,0.0,0.0
1040,259.75,125.193,175.731,91.5187,101.487,73.4311,0.0326985,1.89938,17.7734,916.97,3.12971,0.0,0.0
1060,264.75,130.657,184.348,72.0429,101.722,74.3645,0.0357117,2.02799,17.5301,915.839,3.02996,0.0,0.0
1080,269.75,138.668,195.345,82.6357,101.701,74.2435,0.0386466,2.16991,17.2918,914.628,3.0437,0.0,0.0
1100,274.75,145.723,206.772,83.663,101.482,69.236,0.0409582,2.32043,17.0425,913.347,3.69823,0.0,0.0
1120,279.75,153.934,219.002,67.9472,101.165,71.4401,0.0448267,2.5052,16.7738,912.106,3.36489,0.0,0.0
1140,284.75,161.209,229.653,68.8234,100.926,73.1888,0.0472614,2.66661,16.5309,910.715,3.1081,0.0,0.0
1160,289.75,168.836,241.522,87.9076,101.264,70.0098,0.0487846,2.83442,16.3043,909.303,3.56993,0.0,0.0
1180,294.75,173.951,250.321,79.7696,101.471,69.0533,0.050507,2.95298,16.1785,907.972,3.72274,0.0,0.0
1200,299.75,179.123,255.84,78.1033,101.402,69.497,0.0501058,3.01112,16.1946,906.651,3.65421,0.0,0.0
1220,304.75,179.998,255.429,72.7597,101.119,70.534,0.0473831,2.94662,16.4933,905.36,3.48397,0.0,0.0
1240,309.75,180.728,252.334,79.3963,100.605,73.8919,0.042054,2.78108,16.9103,904.229,2.98483,0.0,0.0
1260,314.75,176.296,243.746,96.1472,100.631,72.6573,0.0369606,2.51685,17.4791,903.278,3.1503,0.0,0.0
1280,319.75,169.893,229.759,82.3891,100.745,75.7218,0.0306536,2.17914,18.111,902.497,2.76169,0.0,0.0
1300,324.75,160.88,213.789,100.495,100.856,78.206,0.0251432,1.8449,18.6843,901.857,2.4601,0.0,0.0
1320,329.75,151.41,195.715,104.176,100.953,75.6499,0.0223081,1.52787,19.1962,901.376,2.79081,0.0,0.0
1340,334.75,140.441,176.894,115.002,100.981,77.5776,0.0191104,1.23944,19.6202,900.946,2.55005,0.0,0.0
1360,339.75,129.157,158.325,111.702,100.895,77.1549,0.0155101,0.98761,19.9995,900.686,2.59468,0.0,0.0
1380,344.75,118.924,142.264,120.698,100.713,81.9631,0.0115392,0.789071,20.2447,900.456,1.9925,0.0,0.0
1400,349.75,109.573,126.218,128.1,100.423,95.4836,0.00854649,0.617233,20.5507,900.406,0.487878,0.0,0.0
1420,354.75,99.4824,111.943,133.964,100.117,96.3471,0.00684185,0.462483,20.7238,900.406,0.371227,0.0,0.0
1440,359.75,91.2405,99.6299,129.102,99.8449,97.3808,0.00602695,0.35457,20.8161,900.416,0.241696,0.0,0.0
1460,364.75,84.1828,89.3003,131.051,99.6577,97.1242,0.0053716,0.282271,20.8578,900.436,0.249066,0.0,0.0
1480,369.75,78.8689,80.8394,129.489,99.5574,97.5647,0.00518236,0.233725,20.8744,900.446,0.19556,0.0,0.0
1500,374.75,74.8397,74.9995,134.243,99.5826,97.9204,0.00498024,0.200581,20.8856,900.416,0.162811,0.0,0.0
1520,379.75,70.6685,69.2679,130.661,99.7259,97.3276,0.0046707,0.178857,20.8918,900.446,0.235448,0.0,0.0
1540,384.75,67.9242,64.9882,130.647,99.9728,97.6333,0.00469866,0.162399,20.8954,900.446,0.229028,0.0,0.0
1560,389.75,64.9269,61.0093,132.348,100.264,98.1558,0.00472068,0.151227,20.897,900.466,0.205566,0.0,0.0
1580,394.75,62.7768,57.9225,134.787,100.594,99.2967,0.00466003,0.142864,20.8973,900.436,0.12551,0.0,0.0
1600,399.75,60.4221,55.2298,134.471,100.916,100.326,0.00446067,0.136371,20.8993,900.456,0.0567616,0.0,0.0
1620,404.75,58.8096,52.9231,131.588,101.19,101.435,0.00455826,0.131095,20.8996,900.456,-0.023313,0.0,0.0
1640,409.75,57.2909,51.3601,136.362,101.385,101.381,0.00494403,0.127072,20.8996,900.456,0.000409308,0.0,0.0
1660,414.75,55.622,49.5002,133.89,101.515,100.276,0.00498399,0.123856,20.8993,900.446,0.118729,0.0,0.0
1680,419.75,54.3459,48.1748,136.254,101.562,102.342,0.0045764,0.121354,20.8996,900.446,-0.0740834,0.0,0.0
1700,424.75,52.8862,46.7163,135.202,101.551,100.709,0.00436323,0.118992,20.9006,900.456,0.0804784,0.0,0.0
1720,429.75,51.7184,45.253,138.881,101.487,101.172,0.004609,0.117071,20.901,900.436,0.0300168,0.0,0.0
1740,434.75,50.649,44.8157,139.957,101.371,102.157,0.00456856,0.115477,20.9011,900.446,-0.0746847,0.0,0.0
1760,439.75,49.3911,43.0063,137.357,101.223,101.916,0.0042525,0.114167,20.9027,900.456,-0.0659746,0.0,0.0
1780,444.75,48.2098,42.5067,133.103,101.057,101.698,0.00453262,0.113031,20.9043,900.456,-0.0611424,0.0,0.0
1800,449.75,47.6136,41.1915,138.177,100.891,102.283,0.00456787,0.11198,20.9041,900.446,-0.13253,0.0,0.0
1820,454.75,46.5694,40.6869,138.814,100.783,101.859,0.00436224,0.111206,20.9045,900.466,-0.102726,0.0,0.0
1840,459.75,45.8824,40.1075,139.874,100.761,101.667,0.00418867,0.110652,20.9039,900.466,-0.0865397,0.0,0.0
1860,464.75,44.5653,38.9408,139.631,100.998,102.801,0.00453998,0.110276,20.9016,900.456,-0.171125,0.0,0.0
1880,469.75,44.6867,39.1569,141.544,101.104,102.757,,0.109979,,900.466,-0.156818,0.0,0.0
1900,474.75,43.2929,38.1153,136.878,101.186,101.859,,,,900.466,-0.0641092,0.0,0.0
1917,479,43.0428,37.4579,134.625,101.238,103.091,,,,900.486,-0.175447,0.0,0.0

File: LDPE_Cone_HF25Scan_220202_R2.csv
Names,Time,Stack TC,Smoke TC,Exh Press,Smoke Comp,Smoke Meas,CO Meter,CO2 Meter,O2 Meter,Sample Mass,Ext Coeff,Start Test,Flame Verif
Chan Gain,,500,500,1,1,1,1,1,1,1,1,1.0,1.0
Offset,,0,0,0.14021,0,0,0,0,0,0,0,0.0,0.0
Gain,,1,1,25.011,13.3046,13.3037,1,1,1,1.00087,1.10262,1.0,1.0
Units,sec,C,C,Pa,%,%,%,%,%,g,/m,,
Baseline,,25.888,24.8513,142.4,100.644,103.657,0.00431179,0.103298,20.9088,-0.00421201,-0.285214,,
18,4.25,23.1954,22.4965,141.203,99.6041,101.914,0.0044183,0.10895,20.9079,929.711,-0.221753,0.0,0.0
36,8.75,23.0322,22.2833,143.747,99.5591,102.087,0.00446335,0.107918,20.9081,929.741,-0.242493,0.0,0.0
54,13.25,23.3047,22.618,144.358,99.9513,102.402,0.00436888,0.106807,20.9095,929.691,-0.234305,0.0,0.0
72,17.75,23.2213,22.8236,144.476,100.467,102.48,0.00472731,0.105494,20.9098,954.563,-0.191894,0.0,0.0
90,22.25,23.2704,22.9937,143.875,100.792,102.834,0.00472683,0.104492,20.9107,963.03,-0.19403,0.0,0.0
108,26.75,22.7251,22.5013,142.831,100.773,102.733,0.00469931,0.103608,20.911,959.457,-0.186386,0.0,0.0
126,31.25,22.2523,22.505,142.559,100.479,103.086,0.00454865,0.10327,20.9107,951.51,-0.247724,0.0,0.0
144,35.75,22.9902,22.5379,146.409,100.257,102.455,0.00430932,0.102914,20.9107,945.635,-0.209825,0.0,0.0
162,40.25,23.0729,22.8506,143.408,100.845,102.839,0.00443468,0.102596,20.9102,940.471,-0.189308,0.0,0.0
180,44.75,22.6651,22.7105,138.791,101.167,102.934,0.00434303,0.102682,20.9119,938.689,-0.167485,0.0,0.0
198,49.25,22.4541,22.563,140.987,101.038,103.226,0.00447234,0.102948,20.9118,934.515,-0.207189,0.0,0.0
216,53.75,22.6389,22.1562,142.519,100.65,103.124,0.00466151,0.103324,20.9097,929.541,-0.234825,0.0,0.0
234,58.25,22.8234,23.0442,143.463,100.871,103.811,0.00441427,0.103516,20.9086,927.689,-0.277838,0.0,0.0
252,62.75,22.3742,22.1987,141.984,101.142,103.714,0.00432652,0.104006,20.9091,925.077,-0.242861,0.0,0.0
270,67.25,22.41,22.3631,139.342,101.36,103.409,0.00405679,0.1042,20.9081,928.8,-0.193518,0.0,0.0
288,71.75,22.5316,22.518,142.202,101.45,104.15,0.0040838,0.105318,20.906,929.581,-0.254015,0.0,0.0
306,76.25,22.7136,22.9783,141.705,101.421,103.139,0.00434237,0.106524,20.9021,929.641,-0.162384,0.0,0.0
324,80.75,22.4541,22.5525,141.886,101.282,102.938,0.00461742,0.107277,20.901,929.601,-0.156809,0.0,0.0
342,85.25,22.7784,22.9463,143.414,101.068,102.606,0.00484068,0.107694,20.9009,929.551,-0.146086,0.0,0.0
360,89.75,22.4162,22.3995,144.434,100.805,102.891,0.00467312,0.108283,20.8991,929.571,-0.19809,0.0,0.0
378,94.25,22.5858,22.4603,140.916,100.551,102.179,0.00444541,0.10907,20.8957,929.601,-0.155332,0.0,0.0
396,98.75,22.4793,22.98,144.982,100.347,102.433,0.00433848,0.110577,20.8905,929.571,-0.199025,0.0,0.0
414,103.25,22.7065,22.7973,141.621,100.177,101.73,0.00465787,0.112943,20.8849,929.561,-0.148733,0.0,0.0
432,107.75,22.9959,23.3664,147.176,100.052,101.732,0.00514107,0.11692,20.8761,929.541,-0.161086,0.0,0.0
450,112.25,23.3128,24.0656,139.929,99.9229,101.211,0.00500601,0.122279,20.8638,929.501,-0.123846,0.0,1.0
468,116.75,23.8263,24.4276,139.654,99.836,101.083,0.00534267,0.129908,20.8464,929.481,-0.120109,0.0,1.0
486,121.25,23.874,24.8705,140.689,99.7523,102.066,0.00542656,0.139255,20.8287,929.371,-0.221812,0.0,0.0
504,125.75,24.353,25.6719,142.731,99.6983,101.139,0.00544371,0.149991,20.8079,929.341,-0.138813,0.0,0.0
522,130.25,25.0592,26.7242,140.95,99.6711,101.109,0.00514802,0.160547,20.7878,929.271,-0.13854,0.0,0.0
540,134.75,26.3199,28.1438,138.4,99.6492,100.768,0.00523396,0.171707,20.7745,929.181,-0.107989,0.0,0.0
558,139.25,26.7578,28.407,139.84,99.648,99.2967,0.00537711,0.184692,20.7508,929.111,0.0341573,0.0,0.0
576,143.75,27.7237,30.616,136.632,99.635,100.625,0.00525962,0.198447,20.7252,929.01,-0.0956031,0.0,0.0
594,148.25,28.6352,32.1605,134.154,99.6468,98.6552,0.00545998,0.213131,20.7001,928.89,0.0967257,0.0,0.0
612,152.75,30.0526,33.2002,132.452,99.6537,97.6967,0.00564503,0.22922,20.667,928.77,0.191831,0.0,0.0
630,157.25,31.0732,35.0717,131.476,99.6971,96.8956,0.00594125,0.246323,20.6437,928.67,0.275677,0.0,0.0
648,161.75,32.1497,36.4489,129.56,99.7414,95.4503,0.00624114,0.262526,20.6095,928.53,0.42533,0.0,0.0
666,166.25,32.5732,37.3095,129.642,99.8112,95.2635,0.00666277,0.278823,20.5795,928.34,0.451042,0.0,0.0
684,170.75,34.1791,39.4191,129.882,99.9192,93.9116,0.0067262,0.296678,20.5448,928.15,0.599751,0.0,0.0
702,175.25,36.5422,42.8093,132.82,100.028,91.9936,0.00724756,0.323313,20.4776,927.96,0.809893,0.0,0.0
720,179.75,38.3577,45.2454,127.028,100.177,89.1395,0.00842603,0.35677,20.4156,927.689,1.12913,0.0,0.0
738,184.25,40.6303,48.8648,121.87,100.32,88.4156,0.00971448,0.401835,20.3021,927.419,1.2217,0.0,0.0
756,188.75,44.0281,53.2747,115.59,100.468,85.3414,0.0107925,0.461958,20.1745,927.059,1.5783,0.0,0.0
774,193.25,47.2515,58.1483,121.441,100.627,83.6521,0.0116917,0.525413,20.0432,926.709,1.78696,0.0,0.0
792,197.75,51.5652,64.0371,116.594,100.739,82.2554,0.0127968,0.590952,19.9324,926.238,1.96053,0.0,0.0
810,202.25,54.9902,69.2384,118.025,100.872,81.7009,0.0143771,0.660622,19.8139,925.778,2.03878,0.0,0.0
828,206.75,59.372,75.6322,117.761,100.991,78.7107,0.0154556,0.732891,19.6641,925.227,2.41077,0.0,0.0
846,211.25,64.9512,82.8058,110.899,101.097,76.7753,0.0168895,0.820685,19.5064,924.697,2.66178,0.0,0.0
864,215.75,69.9896,90.8397,104.542,101.182,79.1033,0.0176552,0.914533,19.3398,924.036,2.38098,0.0,0.0
882,220.25,75.3596,99.0876,103.568,101.27,77.7599,0.0186502,1.01474,19.1598,923.426,2.55503,0.0,0.0
900,224.75,81.8328,108.805,99.6407,101.329,76.7501,0.0199838,1.12244,18.9996,922.685,2.68703,0.0,0.0
918,229.25,88.8864,118.873,90.1761,101.376,76.1391,0.0219342,1.25019,18.7389,921.954,2.76888,0.0,0.0
936,233.75,95.6861,129.87,85.1514,101.406,75.5257,0.0245083,1.38645,18.5054,921.094,2.84995,0.0,0.0
954,238.25,104.566,143.063,92.5941,101.435,74.9508,0.0284593,1.56589,18.1473,920.193,2.92664,0.0,0.0
972,242.75,111.858,155.324,76.1295,101.44,71.864,0.0314934,1.74211,17.8961,919.172,3.33391,0.0,0.0
990,247.25,121.059,168.333,89.309,101.458,69.4114,0.03489,1.93251,17.5995,918.091,3.67152,0.0,0.0
1008,251.75,129.927,181.835,74.7098,101.463,71.6825,0.040949,2.16196,17.1744,916.95,3.36058,0.0,0.0
1026,256.25,140.483,199.319,62.8646,101.462,70.5835,0.0482174,2.49147,16.4561,915.519,3.50986,0.0,0.0
1044,260.75,152.452,220.3,68.9708,101.448,67.8406,0.0539357,2.87357,15.8935,914.158,3.89194,0.0,0.0
1062,265.25,164.829,241.785,75.7189,101.442,73.9269,0.0561564,3.24431,15.3972,912.786,3.06038,0.0,0.0
1080,269.75,177.793,264.18,60.5808,101.406,73.8327,0.0588132,3.63284,14.7983,911.185,3.06926,0.0,0.0
1098,274.25,189.596,283.128,65.0094,101.384,69.3838,0.0612055,3.9835,14.3663,909.744,3.66828,0.0,0.0
1116,278.75,200.609,300.896,68.2105,101.351,67.988,0.06292,4.30218,13.9594,907.962,3.8617,0.0,0.0
1134,283.25,207.521,311.335,65.8184,101.318,72.9119,0.0636845,4.4446,13.9809,906.521,3.18224,0.0,0.0
1152,287.75,210.227,312.69,65.1681,101.286,67.4139,0.0623759,4.30694,14.4818,905.05,3.93752,0.0,0.0
1170,292.25,209.637,307.376,77.6026,101.23,65.1793,0.0560727,3.929,15.259,903.849,4.25816,0.0,0.0
1188,296.75,203.876,291.753,80.8649,101.173,68.8215,0.0454941,3.4277,16.2365,902.878,3.72686,0.0,0.0
1206,301.25,193.436,271.651,87.165,101.122,72.382,0.0346384,2.76306,17.4837,902.067,3.23408,0.0,0.0
1224,305.75,180.268,246.289,105.659,101.073,81.2587,0.0259102,2.14728,18.4596,901.667,2.11051,0.0,0.0
1242,310.25,164.594,218.235,116.198,101.027,86.585,0.0179137,1.58155,19.5262,901.477,1.49206,0.0,0.0
1260,314.75,146.866,189.454,127.435,100.994,98.5086,0.0113847,1.07188,20.2578,901.456,0.240992,0.0,0.0
1278,319.25,131.044,164.685,125.698,100.948,97.7888,0.00862561,0.727633,20.6111,901.456,0.307572,0.0,0.0
1296,323.75,118.602,144.673,127.881,100.896,97.4072,0.00738566,0.504491,20.7634,901.477,0.340334,0.0,0.0
1314,328.25,108.22,128.146,130.228,100.841,97.4076,0.00661937,0.38152,20.8272,901.477,0.335078,0.0,0.0
1332,332.75,100.516,114.713,133.007,100.823,97.2131,0.00595575,0.299527,20.8559,901.477,0.352692,0.0,0.0
1350,337.25,93.2323,104.001,126.94,100.752,97.7705,0.0057326,0.248981,20.8705,901.506,0.290571,0.0,0.0
1368,341.75,87.8903,95.0848,132.32,100.704,97.5351,0.00535382,0.215483,20.8784,901.506,0.309216,0.0,0.0
1386,346.25,83.2131,88.5154,131.253,100.653,97.5237,0.00517622,0.190109,20.8852,901.497,0.305468,0.0,0.0
1404,350.75,79.0028,82.0212,130.776,100.703,97.3114,0.00511348,0.172828,20.8895,901.506,0.331387,0.0,0.0
1422,355.25,75.3319,75.876,134.709,100.869,97.3292,0.00514446,0.159171,20.8933,901.497,0.345509,0.0,0.0
1440,359.75,72.8592,72.3211,129.501,101,97.0714,0.00501439,0.148979,20.8969,901.506,0.38369,0.0,0.0
1458,364.25,70.1994,68.281,129.364,101.108,98.2512,0.00455141,0.14117,20.9005,901.516,0.277258,0.0,0.0
1476,368.75,67.9819,65.3322,135.536,101.158,98.6223,0.00444592,0.134647,20.9021,901.506,0.245573,0.0,0.0
1494,373.25,65.9081,62.8755,131.817,101.165,98.4668,0.00460826,0.129991,20.9023,901.506,0.261456,0.0,0.0
1512,377.75,64.066,59.8963,133.661,101.095,97.8936,0.00445933,0.12578,20.9042,901.527,0.31129,0.0,0.0
1530,382.25,62.4646,58.1264,133.538,100.948,97.7117,0.00460532,0.122708,20.9052,901.506,0.315128,0.0,0.0
1548,386.75,61.7889,56.2164,136.71,100.695,97.5477,0.00465679,0.120225,20.9056,901.497,0.307149,0.0,0.0
1566,391.25,60.0768,54.7538,138.774,100.338,97.7693,0.00461386,0.118103,20.9057,901.506,0.250813,0.0,0.0
1584,395.75,58.6326,53.3417,137.956,100.298,97.5903,0.00465032,0.116298,20.9051,901.506,0.264667,0.0,0.0
1602,400.25,57.4378,52.1408,138.43,100.399,97.3057,0.00458388,0.115165,20.9036,901.527,0.30266,0.0,0.0
1620,404.75,56.3114,50.7674,132.504,100.515,99.2886,0.00483899,0.114257,20.9018,901.527,0.118724,0.0,0.0
1638,409.25,54.9284,48.2817,134.19,100.651,99.0701,0.00477613,0.113745,20.9009,901.516,0.153144,0.0,0.0
1656,413.75,53.5015,47.621,132.208,100.767,98.3467,0.00450272,0.113191,20.8998,901.506,0.235189,0.0,0.0
1674,418.25,53.0384,47.3672,137.796,100.822,98.8493,0.00445213,0.112133,20.901,901.497,0.191143,0.0,0.0
1692,422.75,51.9032,46.3408,136.503,100.82,99.7149,0.0043947,0.11142,20.9023,901.527,0.106582,0.0,0.0
1710,427.25,51.4599,45.6871,133.803,100.751,98.7567,0.00449425,0.110835,20.9027,901.527,0.193387,0.0,0.0
1728,431.75,50.1716,44.3793,137.967,100.603,98.2923,0.00451759,0.110606,20.9025,901.497,0.224705,0.0,0.0
1746,436.25,49.7811,44.0192,134.199,100.403,99.822,,,,901.477,0.0561449,0.0,0.0
1764,440.75,48.798,43.3563,134.003,100.138,99.4652,,,,901.537,0.0652493,0.0,0.0
1775,443.5,48.3958,43.056,138.934,99.9793,98.7571,,,,901.527,0.118962,0.0,0.0