Folder: fsri_materials_database/01_Data/LDPE/Cone (part 3)

File: LDPE_Cone_HF50Scan_220202_R2.csv
Names,Time,Stack TC,Smoke TC,Exh Press,Smoke Comp,Smoke Meas,CO Meter,CO2 Meter,O2 Meter,Sample Mass,Ext Coeff,Start Test,Flame Verif
Chan Gain,,500,500,1,1,1,1,1,1,1,1,1.0,1.0
Offset,,0,0,0.14021,0,0,0,0,0,0,0,0.0,0.0
Gain,,1,1,25.011,13.3046,13.3037,1,1,1,1.00087,1.10262,1.0,1.0
Units,sec,C,C,Pa,%,%,%,%,%,g,/m,,
Baseline,,31.2643,33.6804,137.454,100.095,102.725,0.00474352,0.109076,20.8916,-1.58443,-0.250777,,
12,2.75,28.0687,29.2463,136.888,101.016,104.243,0.00460008,0.116729,20.8828,896.172,-0.304152,0.0,0.0
24,5.75,27.9376,29.9043,137.277,101.151,103.149,0.00457785,0.116413,20.8839,905.58,-0.189157,0.0,0.0
36,8.75,28.3995,29.173,138.195,101.233,104.59,0.0046709,0.116205,20.8848,936.447,-0.315454,0.0,0.0
48,11.75,28.5751,30.3649,138.532,101.252,104.914,0.00481573,0.11568,20.8864,946.045,-0.343661,0.0,0.0
60,14.75,28.8171,29.9376,140.064,101.233,103.955,0.00479988,0.114716,20.8879,955.313,-0.25663,0.0,0.0
72,17.75,28.3392,30.6672,138.875,101.161,104.059,0.0046343,0.11352,20.89,957.355,-0.273166,0.0,0.0
84,20.75,29.2095,31.1228,135.233,101.052,103.978,0.00445056,0.112352,20.8907,945.705,-0.276102,0.0,0.0
96,23.75,28.8114,30.9099,137.549,100.896,104.108,0.00439941,0.111623,20.8915,926.138,-0.303114,0.0,0.0
108,26.75,29.1109,30.9805,140.37,100.683,103.819,0.00434854,0.111337,20.8916,906.071,-0.296675,0.0,0.0
120,29.75,29.5214,31.1756,140.175,100.432,103.407,0.00442962,0.111485,20.89,893.249,-0.282343,0.0,0.0
132,32.75,29.8109,31.6299,132.216,100.358,103.037,0.004589,0.111841,20.8886,889.886,-0.254807,0.0,0.0
144,35.75,29.1872,31.582,135.958,100.409,103.064,0.00495013,0.112487,20.8866,887.394,-0.252469,0.0,0.0
156,38.75,30.2402,32.0387,134.664,100.48,103.435,0.0052522,0.113919,20.881,896.062,-0.280312,0.0,0.0
168,41.75,29.9301,32.8652,133.555,100.562,103.01,0.00561932,0.119572,20.8597,895.962,-0.232627,0.0,1.0
180,44.75,30.8075,33.026,132.93,100.644,102.777,0.00576933,0.13351,20.8224,895.962,-0.202836,0.0,0.0
192,47.75,31.2273,34.3863,132.001,100.756,102.547,0.005758,0.152753,20.7872,895.882,-0.170385,0.0,0.0
204,50.75,32.8355,36.3458,129.905,100.853,101.649,0.00577109,0.176317,20.7317,895.862,-0.0760361,0.0,0.0
216,53.75,33.8631,37.6485,134.112,100.91,99.6917,0.00582565,0.201595,20.6856,895.761,0.11751,0.0,0.0
228,56.75,35.2622,39.9887,130.04,100.928,97.3881,0.00599828,0.228232,20.6306,895.721,0.345303,0.0,0.0
240,59.75,37.1579,42.4526,124.959,100.912,96.747,0.00649351,0.25973,20.5638,895.551,0.407665,0.0,0.0
252,62.75,38.768,44.7264,123.505,100.839,93.0947,0.00723502,0.298179,20.4836,895.381,0.772863,0.0,0.0
264,65.75,40.8888,48.0153,121.109,100.74,90.4285,0.00826176,0.34153,20.3959,895.171,1.04444,0.0,0.0
276,68.75,43.4922,51.9604,116.575,100.608,88.8102,0.00927432,0.390534,20.3094,894.981,1.20642,0.0,0.0
288,71.75,47.317,57.05,118.362,100.463,85.1745,0.0103042,0.449874,20.1593,894.771,1.59672,0.0,0.0
300,74.75,50.7375,61.951,114.757,100.295,81.2344,0.0113455,0.53162,20.0032,894.41,2.03864,0.0,0.0
312,77.75,54.596,67.7115,106.333,100.111,80.2328,0.0127355,0.618142,19.8247,894.07,2.14088,0.0,0.0
324,80.75,59.513,74.9791,105.935,99.946,77.6624,0.0141475,0.717599,19.6221,893.69,2.43987,0.0,0.0
336,83.75,65.1642,83.3608,97.6462,99.7897,78.0014,0.0161729,0.836881,19.3886,893.229,2.3826,0.0,0.0
348,86.75,70.9499,92.8658,100.718,99.6723,73.8266,0.0186993,0.960532,19.1763,892.819,2.90327,0.0,0.0
360,89.75,77.1917,101.682,92.2881,99.6098,75.5906,0.0215935,1.08438,18.9626,892.328,2.66881,0.0,0.0
372,92.75,84.0208,112.232,81.4083,99.611,71.3305,0.0246393,1.24209,18.6904,891.718,3.22999,0.0,0.0
384,95.75,91.8617,124.018,85.556,99.6671,71.4706,0.0284182,1.41141,18.3857,891.067,3.21645,0.0,0.0
396,98.75,99.4535,136.382,80.4916,99.773,68.1719,0.0326431,1.61178,18.0045,890.537,3.68377,0.0,0.0
408,101.75,108.682,150.833,80.9496,99.9257,69.0172,0.0374141,1.86054,17.5593,889.676,3.57937,0.0,0.0
420,104.75,119.207,167.69,80.4451,100.105,67.949,0.043341,2.14924,17.042,888.805,3.74759,0.0,0.0
432,107.75,127.925,182.899,69.6638,100.29,66.1224,0.0495348,2.47341,16.5068,887.995,4.02899,0.0,0.0
444,110.75,138.234,200.416,63.9957,100.474,68.9542,0.0565057,2.81429,15.9189,887.024,3.64111,0.0,0.0
456,113.75,147.821,217.186,70.3714,100.694,66.055,0.0636436,3.23861,15.2268,885.793,4.07773,0.0,0.0
468,116.75,157.797,234.058,52.9885,100.872,69.8706,0.0711468,3.61683,14.7182,884.632,3.55169,0.0,0.0
480,119.75,168.159,252.801,67.2931,101.056,70.1994,0.0781502,4.14501,13.8635,883.371,3.52389,0.0,0.0
492,122.75,178.665,270.916,72.7238,101.213,68.3529,0.0821661,4.65816,13.1293,882.15,3.79669,0.0,0.0
504,125.75,188.557,288.194,57.2163,101.361,74.9861,0.0828155,5.04841,12.6394,880.889,2.91503,0.0,0.0
516,128.75,198.286,304.374,61.296,101.465,73.2919,0.0823787,5.33199,12.3587,879.567,3.14602,0.0,0.0
528,131.75,205.488,314.571,61.8868,101.531,72.2635,0.0814875,5.44193,12.3329,878.336,3.28893,0.0,0.0
540,134.75,211.382,322.489,58.3986,101.562,75.0027,0.0798737,5.50524,12.2809,877.155,2.93208,0.0,0.0
552,137.75,217.892,332.986,70.4607,101.564,69.3769,0.0778275,5.61922,12.154,875.854,3.68635,0.0,0.0
564,140.75,223.569,340.619,55.0853,101.526,71.592,0.0764697,5.67418,12.1313,874.723,3.37876,0.0,0.0
576,143.75,228.624,346.758,70.5324,101.465,73.622,0.0759845,5.67956,12.1836,873.392,3.10248,0.0,0.0
588,146.75,231.836,350.855,67.5503,101.373,70.9391,0.0751945,5.62749,12.3764,872.221,3.45277,0.0,0.0
600,149.75,233.605,351.569,71.4438,101.267,68.0704,0.07419,5.45536,12.7452,871.09,3.84192,0.0,0.0
612,152.75,234.311,350.5,63.0561,101.153,61.1892,0.0721085,5.24042,13.0788,870.169,4.86183,0.0,0.0
624,155.75,234.27,346.823,71.83,101.032,66.3449,0.0687234,4.94117,13.6703,869.268,4.06781,0.0,0.0
636,158.75,233.074,340.85,68.5334,100.944,62.49,0.0634844,4.55971,14.3071,868.368,4.63831,0.0,0.0
648,161.75,229.202,330.91,83.6493,100.846,65.1748,0.0568429,4.09151,15.052,867.797,4.2221,0.0,0.0
660,164.75,223.006,317.467,84.6156,100.777,68.5823,0.0483649,3.53145,16.0219,867.096,3.72253,0.0,0.0
672,167.75,214.754,300.611,93.5917,100.757,72.8826,0.0386333,2.92808,17.2068,866.746,3.13244,0.0,0.0
684,170.75,204.217,281.066,106.408,100.93,83.9306,0.0294776,2.32344,18.2459,866.586,1.78388,0.0,0.0
696,173.75,190.376,257.277,119.108,101.043,95.1328,0.0209409,1.74935,19.1505,866.466,0.582967,0.0,0.0
708,176.75,175.958,234.049,119.051,101.151,100.23,0.0149261,1.26623,19.9213,866.496,0.0884712,0.0,0.0
720,179.75,163.569,214.155,120.292,101.225,100.086,0.0114758,0.910307,20.3573,866.456,0.109452,0.0,0.0
732,182.75,153.787,197.577,118.5,101.278,99.4757,0.00956298,0.676288,20.5886,866.436,0.173645,0.0,0.0
744,185.75,144.736,182.771,122.062,101.301,99.9049,0.0081094,0.51686,20.7045,866.456,0.134218,0.0,0.0
756,188.75,137.132,169.761,120.229,101.29,99.8046,0.00687941,0.414655,20.7775,866.446,0.142885,0.0,0.0
768,191.75,130.448,158.807,124.155,101.266,99.2321,0.00611911,0.340495,20.8157,866.506,0.196273,0.0,0.0
780,194.75,124.474,148.98,123.606,101.22,99.3312,0.00571545,0.295194,20.8396,866.486,0.1822,0.0,0.0
792,197.75,118.715,140.895,124.942,101.153,99.5667,0.0055609,0.255116,20.8551,866.486,0.152855,0.0,0.0
804,200.75,114.774,133.227,122.476,101.063,99.2934,0.00546623,0.226477,20.8645,866.486,0.170851,0.0,0.0
816,203.75,110.626,126.697,118.444,100.947,98.9362,0.00519913,0.205511,20.8728,866.516,0.194596,0.0,0.0
828,206.75,106.828,120.716,121.589,100.799,98.246,0.00505892,0.189282,20.8786,866.466,0.248136,0.0,0.0
840,209.75,103.585,115.831,121.245,100.619,98.4445,0.00494041,0.177226,20.8789,866.496,0.211297,0.0,0.0
852,212.75,100.788,110.653,121.441,100.42,97.9516,0.00486673,0.166674,20.8801,866.486,0.240699,0.0,0.0
864,215.75,98.2419,106.683,122.527,100.408,97.8388,0.00480042,0.158765,20.8824,866.476,0.250678,0.0,0.0
876,218.75,95.2813,101.831,121.323,100.419,97.9435,0.00483291,0.152058,20.8848,866.466,0.241384,0.0,0.0
888,221.75,93.8202,99.4307,123.355,100.447,97.771,0.00476741,0.146829,20.8859,866.446,0.261176,0.0,0.0
900,224.75,91.8978,96.1024,127.519,100.475,97.7125,0.00472721,0.142211,20.8878,866.416,0.269697,0.0,0.0
912,227.75,90.0221,93.0733,122.477,100.518,97.9001,0.00478016,0.138512,20.8901,866.436,0.255251,0.0,0.0
924,230.75,88.2541,90.841,125.732,100.566,97.5408,0.00466386,0.134907,20.8885,866.436,0.295462,0.0,0.0
936,233.75,86.3976,88.3626,124.867,100.616,98.1579,0.00455825,0.132408,20.8873,866.456,0.239187,0.0,0.0
948,236.75,84.9052,86.6239,125.289,100.666,97.6236,0.00458702,0.129867,20.888,866.436,0.296855,0.0,0.0
960,239.75,83.4102,84.5115,126.483,100.687,97.7888,0.00468996,0.127647,20.8888,866.416,0.282448,0.0,0.0
972,242.75,82.6579,82.4759,126.229,100.739,97.868,0.00472836,0.125623,20.889,866.436,0.279651,0.0,0.0
984,245.75,80.5917,80.5404,126.284,100.775,97.7726,0.00456321,0.123832,20.8904,866.446,0.292515,0.0,0.0
996,248.75,80.3316,79.8591,127.134,100.813,97.9999,0.00441554,0.12252,20.8905,866.436,0.273751,0.0,0.0
1008,251.75,79.1307,78.453,124.826,100.836,98.5078,0.00441906,0.121475,20.8905,866.466,0.225895,0.0,0.0
1020,254.75,77.8204,76.587,125.31,100.863,97.7251,0.00440231,0.120296,20.8888,866.436,0.305668,0.0,0.0
1032,257.75,77.4049,75.7771,125.627,100.873,97.6146,0.00448154,0.11899,20.8889,866.476,0.317576,0.0,0.0
1044,260.75,76.6742,74.8588,126.77,100.894,98.4417,0.00454794,0.11803,20.889,866.436,0.237962,0.0,0.0
1056,263.75,75.706,73.5416,125.809,100.909,98.6658,0.00442888,0.117343,20.889,866.466,0.217448,0.0,0.0
1068,266.75,74.6379,72.8871,124.899,100.935,98.6349,0.00437582,0.11701,20.8886,866.476,0.223002,0.0,0.0
1080,269.75,74.0973,72.2101,129.024,100.913,98.0081,0.00437362,0.116774,20.8883,866.476,0.282487,0.0,0.0
1092,272.75,73.5721,71.223,124.288,100.934,98.2395,0.00430095,0.116756,20.8865,866.426,0.261702,0.0,0.0
1104,275.75,72.083,69.9815,127.69,100.936,98.7108,0.00434646,0.116548,20.8861,866.446,0.215638,0.0,0.0
1116,278.75,71.7584,69.7448,123.889,100.929,98.2622,0.00446536,0.116389,20.8875,866.406,0.258995,0.0,0.0
1128,281.75,71.6902,68.8714,131.562,100.933,99.0474,0.00456244,0.116132,20.8865,866.426,0.182366,0.0,0.0
1140,284.75,70.6273,67.6498,130.73,100.929,98.8513,0.00440615,0.115952,20.886,866.436,0.201144,0.0,0.0
1152,287.75,69.8613,67.6332,128.723,100.93,98.2581,,0.115681,,866.406,0.259474,0.0,0.0
1164,290.75,69.1847,66.7378,127.276,100.926,98.1603,,,,866.446,0.26876,0.0,0.0
1176,293.75,68.4829,65.9771,130.082,100.929,99.2313,,,,866.436,0.164033,0.0,0.0
1185,296,68.2773,65.4161,124.459,100.916,97.7003,,,,866.436,0.313179,0.0,0.0

File: LDPE_Cone_HF50Scan_220202_R3.csv
Names,Time,Stack TC,Smoke TC,Exh Press,Smoke Comp,Smoke Meas,CO Meter,CO2 Meter,O2 Meter,Sample Mass,Ext Coeff,Start Test,Flame Verif
Chan Gain,,500,500,1,1,1,1,1,1,1,1,1.0,1.0
Offset,,0,0,0.14021,0,0,0,0,0,0,0,0.0,0.0
Gain,,1,1,25.011,13.3046,13.3037,1,1,1,1.00087,1.10262,1.0,1.0
Units,sec,C,C,Pa,%,%,%,%,%,g,/m,,
Baseline,,38.8542,39.5654,135.107,100.704,100.183,0.00449386,0.105077,20.901,-1.6828,0.0503756,,
12,2.75,35.192,35.524,134.131,101.162,100.839,0.00459303,0.116768,20.8842,896.592,0.0309294,0.0,0.0
24,5.75,35.1717,35.2001,136.257,101.183,100.554,0.00442606,0.115595,20.8865,935.636,0.0603625,0.0,0.0
36,8.75,35.1095,35.7256,135.573,100.961,100.448,0.00436631,0.114145,20.89,966.994,0.0493069,0.0,0.0
48,11.75,35.2884,35.7609,133.987,100.692,99.4818,0.00436287,0.112298,20.8921,977.423,0.116976,0.0,0.0
60,14.75,35.0582,35.9569,140.116,100.876,99.8915,0.00450199,0.110733,20.8943,974.54,0.0948808,0.0,0.0
72,17.75,35.623,36.4811,138.673,101.1,100.488,0.00463693,0.109709,20.8961,962.159,0.0587318,0.0,0.0
84,20.75,35.5377,36.2523,138.456,101.283,100.797,0.00464506,0.109448,20.8976,942.412,0.0465419,0.0,0.0
96,23.75,35.8941,36.61,135.516,101.426,100.483,0.00464058,0.109508,20.8959,923.025,0.0903802,0.0,0.0
108,26.75,35.8192,36.5785,136.837,101.497,100.912,0.0046009,0.109909,20.8953,899.585,0.0558961,0.0,0.0
120,29.75,35.8327,36.1511,136.285,101.482,101.276,0.00482909,0.11034,20.8943,888.966,0.0196998,0.0,0.0
132,32.75,36.1796,36.9178,138.078,101.404,100.636,0.00503613,0.110936,20.8908,886.343,0.0736061,0.0,0.0
144,35.75,35.7261,36.9142,138.815,101.242,100.186,0.00509838,0.111696,20.8892,896.482,0.101473,0.0,0.0
156,38.75,35.7982,36.6438,136.253,101.065,99.17,0.00546724,0.11439,20.8801,896.412,0.183037,0.0,0.0
168,41.75,36.5016,37.7904,132.679,100.835,99.4258,0.00576308,0.123697,20.8592,896.422,0.136104,0.0,1.0
180,44.75,36.5453,37.8348,131.109,100.624,98.5683,0.00587064,0.139757,20.8152,896.352,0.199645,0.0,1.0
192,47.75,37.4598,39.8,129.436,100.42,98.3186,0.00581736,0.162504,20.7668,896.272,0.204526,0.0,0.0
204,50.75,38.3194,40.4919,130.482,100.226,95.961,0.00574951,0.188401,20.719,896.182,0.420572,0.0,0.0
216,53.75,40.348,43.1168,127.68,100.056,95.2278,0.00576794,0.21561,20.6613,896.112,0.478367,0.0,0.0
228,56.75,41.3214,44.9304,128.387,99.9131,94.5607,0.00591509,0.245279,20.6102,895.982,0.532531,0.0,0.0
240,59.75,43.7257,47.6405,128.628,99.8059,91.582,0.00658846,0.277712,20.5407,895.852,0.831734,0.0,0.0
252,62.75,45.0724,50.086,124.609,99.7405,88.6771,0.0075756,0.317073,20.4645,895.701,1.13716,0.0,0.0
264,65.75,47.3315,53.2194,118.932,99.6878,86.801,0.00851973,0.358823,20.3874,895.521,1.33886,0.0,0.0
276,68.75,50.1372,57.2645,111.961,99.6638,86.5497,0.00961872,0.410678,20.2877,895.271,1.36458,0.0,0.0
288,71.75,52.8155,61.371,111.666,99.6581,83.8542,0.0110303,0.479555,20.1367,895.071,1.67004,0.0,0.0
300,74.75,57.5078,67.845,110.172,99.6553,80.1223,0.0126312,0.571388,19.8999,894.731,2.11009,0.0,0.0
312,77.75,62.2457,75.1754,104.971,99.6638,80.5434,0.0141432,0.688118,19.7055,894.32,2.06023,0.0,0.0
324,80.75,67.3061,82.4896,96.0945,99.689,76.615,0.0162317,0.807437,19.4631,893.93,2.54631,0.0,0.0
336,83.75,73.303,92.0872,100.025,99.7235,74.41,0.0189766,0.949227,19.2036,893.399,2.8321,0.0,0.0
348,86.75,80.4216,102.002,85.7552,99.758,74.6337,0.0214908,1.09533,18.9576,892.899,2.80641,0.0,0.0
360,89.75,86.6373,111.916,86.3017,99.7889,71.2047,0.0242675,1.24872,18.7232,892.379,3.26432,0.0,0.0
372,92.75,94.2824,123.641,79.7543,99.8319,72.4125,0.0277275,1.42293,18.3984,891.758,3.1058,0.0,0.0
384,95.75,102.451,137.462,68.364,99.8859,72.9005,0.0321653,1.63093,17.9789,891.097,3.04607,0.0,0.0
396,98.75,111.66,150.547,78.4094,99.9334,70.6217,0.0377566,1.86896,17.6407,890.337,3.35784,0.0,0.0
408,101.75,120.812,167.268,76.0494,99.9683,69.94,0.0437034,2.13464,17.1241,889.536,3.45503,0.0,0.0
420,104.75,131.541,183.73,65.4818,99.9976,68.6424,0.0483369,2.45786,16.6081,888.695,3.63899,0.0,0.0
432,107.75,141.345,200.922,68.68,100.035,70.0236,0.0528651,2.78489,16.0061,887.674,3.44995,0.0,0.0
444,110.75,153.211,222.378,59.6642,100.061,72.4864,0.0553906,3.20934,15.4001,886.604,3.1181,0.0,0.0
456,113.75,165.485,242.684,85.2713,100.072,69.1808,0.0577011,3.62533,14.8344,885.553,3.57061,0.0,0.0
468,116.75,176.426,262.023,55.2242,100.086,73.3881,0.0606339,4.07597,14.0761,884.422,3.00091,0.0,0.0
480,119.75,187.792,282.796,49.0981,100.127,77.2406,0.0629463,4.47871,13.5251,883.11,2.51006,0.0,0.0
492,122.75,198.021,299.718,46.4847,100.125,76.82,0.0653037,4.8689,12.9578,881.899,2.56264,0.0,0.0
504,125.75,208.958,318.178,62.4936,100.13,77.5138,0.0661361,5.31174,12.2047,880.618,2.47622,0.0,0.0
516,128.75,218.938,336.617,55.6814,100.145,77.0839,0.0650796,5.83067,11.4648,879.267,2.53147,0.0,0.0
528,131.75,230.386,358.597,55.1845,100.162,78.7095,0.0636069,6.4647,10.5402,877.536,2.33122,0.0,0.0
540,134.75,240.699,376.033,59.5306,100.188,74.9617,0.0630623,7.04288,9.75283,876.054,2.80555,0.0,0.0
552,137.75,249.567,392.136,50.5316,100.205,79.1877,0.0639134,7.5918,9.00851,874.283,2.27675,0.0,0.0
564,140.75,257.733,404.485,63.579,100.219,78.9543,0.0668082,8.02502,8.41889,872.912,2.30667,0.0,0.0
576,143.75,264.423,415.684,54.9776,100.244,70.0732,0.0738023,8.24972,8.26466,871.34,3.46331,0.0,0.0
588,146.75,266.894,416.025,56.6423,100.272,67.6209,0.0826239,7.99556,8.94771,870.059,3.81047,0.0,0.0
600,149.75,266.179,409.595,69.86,100.281,58.9907,0.0867883,7.35455,10.2737,868.848,5.13194,0.0,0.0
612,152.75,261.873,396.526,74.3183,100.298,63.0498,0.0802317,6.38212,11.9108,868.047,4.48999,0.0,0.0
624,155.75,255.217,377.962,69.5997,100.318,64.8931,0.0668896,5.34359,13.6528,867.357,4.21324,0.0,0.0
636,158.75,244.796,355.159,95.2366,100.352,72.6553,0.0499357,4.21349,15.4065,867.046,3.12368,0.0,0.0
648,161.75,229.034,324.73,108.205,100.372,94.3923,0.0346435,3.15603,17.2676,866.926,0.594132,0.0,0.0
660,164.75,211.266,294.387,114.754,100.41,98.0365,0.0223648,2.17093,18.8413,866.876,0.231347,0.0,0.0
672,167.75,195.881,267.718,117.301,100.424,99.9735,0.0155041,1.46934,19.7574,866.876,0.0434777,0.0,0.0
684,170.75,183.132,244.588,117.246,100.472,100.138,0.0115507,1.03618,20.2569,866.826,0.0321959,0.0,0.0
696,173.75,170.911,224.658,114.622,100.494,100.749,0.00940585,0.74901,20.5171,866.846,-0.0244533,0.0,0.0
708,176.75,159.989,207.184,118.207,100.54,100.639,0.00830373,0.568515,20.669,866.816,-0.00954871,0.0,0.0
720,179.75,152.394,192.017,119.18,100.557,100.336,0.00746633,0.443277,20.7514,866.826,0.0212829,0.0,0.0
732,182.75,144.289,178.818,119.733,100.599,100.772,0.00643326,0.365238,20.7957,866.856,-0.0165979,0.0,0.0
744,185.75,137.188,167.151,120.641,100.616,99.753,0.00581316,0.307373,20.8292,866.826,0.083348,0.0,0.0
756,188.75,132.029,157.826,120.96,100.655,100.087,0.0055355,0.263856,20.8488,866.826,0.0547497,0.0,0.0
768,191.75,127.375,148.949,117.799,100.691,99.8903,0.00546781,0.232921,20.8638,866.836,0.0772293,0.0,0.0
780,194.75,122.909,141.813,122.198,100.702,99.6905,0.0053414,0.209495,20.8727,866.816,0.0976047,0.0,0.0
792,197.75,118.624,135.258,121.142,100.726,99.3296,0.00521034,0.190977,20.8797,866.846,0.135064,0.0,0.0
804,200.75,114.63,128.907,119.949,100.762,99.7356,0.00490111,0.176361,20.8854,866.836,0.0990028,0.0,0.0
816,203.75,111.138,123.3,120.848,100.754,99.5517,0.00469901,0.165901,20.8856,866.836,0.116153,0.0,0.0
828,206.75,108.67,119.421,121.384,100.768,98.8448,0.00468498,0.157733,20.8849,866.826,0.186398,0.0,0.0
840,209.75,105.61,114.224,121.874,100.778,98.8627,0.00471241,0.150089,20.886,866.836,0.185586,0.0,0.0
852,212.75,102.886,110.59,124.069,100.804,99.2386,0.00471869,0.14403,20.8883,866.856,0.151329,0.0,0.0
864,215.75,100.45,107.204,122.558,100.81,99.2248,0.00485973,0.139333,20.8904,866.786,0.153298,0.0,0.0
876,218.75,98.277,102.845,124.565,100.807,99.2589,0.00494402,0.135387,20.8929,866.816,0.149702,0.0,0.0
888,221.75,96.714,100.947,120.354,100.819,98.6057,0.00488991,0.131902,20.8936,866.836,0.214735,0.0,0.0
900,224.75,95.1149,97.7713,126.384,100.819,98.9345,0.00479284,0.129197,20.8938,866.866,0.182493,0.0,0.0
912,227.75,93.7372,95.759,123.552,100.819,99.0174,0.00460869,0.127308,20.8892,866.826,0.174361,0.0,0.0
924,230.75,92.8757,93.316,123.577,100.811,98.4628,0.00457624,0.125871,20.8859,866.846,0.227984,0.0,0.0
936,233.75,90.7947,91.5614,123.641,100.818,98.6532,0.00445118,0.124915,20.8845,866.816,0.20996,0.0,0.0
948,236.75,89.4097,89.9701,126.084,100.825,98.021,0.00435455,0.124229,20.882,866.816,0.272758,0.0,0.0
960,239.75,88.1981,88.0599,125.507,100.822,97.924,0.00453249,0.123562,20.8805,866.796,0.282104,0.0,0.0
972,242.75,86.3365,86.2924,123.891,100.81,97.8952,0.00468922,0.122453,20.88,866.786,0.283782,0.0,0.0
984,245.75,85.8972,85.2861,125.166,100.813,97.9382,0.00456629,0.121341,20.8813,866.766,0.279843,0.0,0.0
996,248.75,84.456,83.3461,125.989,100.802,97.6617,0.00454645,0.120045,20.8845,866.796,0.306135,0.0,0.0
1008,251.75,83.8578,81.9935,121.69,100.788,97.6516,0.0045715,0.118857,20.8876,866.776,0.305737,0.0,0.0
1020,254.75,82.8983,80.8891,124.391,100.779,97.6865,0.0045526,0.117523,20.8902,866.776,0.301422,0.0,0.0
1032,257.75,81.5266,79.1114,124.001,100.761,97.5996,0.00470986,0.116334,20.8911,866.806,0.308353,0.0,0.0
1044,260.75,81.118,78.6445,125.779,100.727,97.6012,0.00478424,0.115414,20.8924,866.796,0.304878,0.0,0.0
1056,263.75,80.0406,77.7875,126.956,100.712,97.3106,0.00475394,0.114587,20.893,866.786,0.332325,0.0,0.0
1068,266.75,79.8859,76.6957,124.612,100.68,97.4632,0.00469202,0.11384,20.8933,866.746,0.314083,0.0,0.0
1080,269.75,77.8121,75.4481,125.568,100.646,97.3357,0.00461314,0.113235,20.8939,866.756,0.323504,0.0,0.0
1092,272.75,77.2455,75.1411,126.293,100.607,97.1567,0.00445401,0.112933,20.893,866.736,0.337565,0.0,0.0
1104,275.75,77.0731,73.9994,124.091,100.59,96.8847,0.00456615,0.112662,20.8917,866.756,0.363004,0.0,0.0
1116,278.75,76.0749,73.4706,125.658,100.532,96.9768,0.00467728,0.112354,20.8913,866.786,0.348263,0.0,0.0
1128,281.75,75.5489,72.5061,130.11,100.497,97.14,0.00472576,0.111739,20.892,866.756,0.328561,0.0,0.0
1140,284.75,74.8439,71.2674,128.57,100.447,97.127,,0.111201,,866.746,0.325124,0.0,0.0
1152,287.75,73.8558,71.055,126.616,100.382,96.7755,,,,866.726,0.353865,0.0,0.0
1164,290.75,73.0091,70.3328,125.356,100.328,96.57,,,,866.776,0.369291,0.0,0.0
1175,293.5,72.5892,68.9831,124,100.274,96.8936,,,,866.736,0.331652,0.0,0.0

File: LDPE_Cone_HF75Scalar_220202_R1.csv
LABORATORY,FSRI
TEST IDENT,LDPE_HF75_1
OPERATOR,Dow
MATERIAL,LDPE
ORIENTATION,Horizontal
HEAT FLUX,75
SURF AREA,0.01
C FACTOR,0.0415673
SPEC HOLDER DIFF,301
SPECIMEN MASS,30
SCAN TIME,0.25
O2 DELAY TIME,11
CO DELAY TIME,11
CO2 DELAY TIME,8
FLOW FACTOR,1
SCAN COUNT,960
TIME TO IGN,27.5
END OF TEST SCAN,480
END OF TEST TIME,120
TEST STATUS,1
PRE TEST CMT,Dimensions: 99.92 x 100.17 x 3.07 mm
POST TEST CMT,sample dripped in lower collection pan and continued to burn (see test pictures)

File: LDPE_Cone_HF75Scalar_220202_R2.csv
LABORATORY,FSRI
TEST IDENT,LDPE_HF75_2
OPERATOR,Dow
MATERIAL,LDPE
ORIENTATION,Horizontal
HEAT FLUX,75
SURF AREA,0.01
C FACTOR,0.0415673
SPEC HOLDER DIFF,301.4
SPECIMEN MASS,30
SCAN TIME,0.25
O2 DELAY TIME,11
CO DELAY TIME,11
CO2 DELAY TIME,8
FLOW FACTOR,1
SCAN COUNT,946
TIME TO IGN,27
END OF TEST SCAN,466
END OF TEST TIME,116.5
TEST STATUS,1
PRE TEST CMT,Dimensions: 100.12 x 99.98 x 3.06 mm
POST TEST CMT,see test pictures

File: LDPE_Cone_HF75Scalar_220202_R3.csv
LABORATORY,FSRI
TEST IDENT,LDPE_HF75_3
OPERATOR,Dow
MATERIAL,LDPE
ORIENTATION,Horizontal
HEAT FLUX,75
SURF AREA,0.01
C FACTOR,0.0415673
SPEC HOLDER DIFF,300.72
SPECIMEN MASS,30
SCAN TIME,0.25
O2 DELAY TIME,11
CO DELAY TIME,11
CO2 DELAY TIME,8
FLOW FACTOR,1
SCAN COUNT,1010
TIME TO IGN,22.25
END OF TEST SCAN,530
END OF TEST TIME,132.5
TEST STATUS,1
PRE TEST CMT,Dimensions: 99.88 x 100.00 x 3.04 mm