Folder: fsri_materials_database/01_Data/LDPE/Cone (part 4)

File: LDPE_Cone_HF75Scan_220202_R1.csv
Names,Time,Stack TC,Smoke TC,Exh Press,Smoke Comp,Smoke Meas,CO Meter,CO2 Meter,O2 Meter,Sample Mass,Ext Coeff,Start Test,Flame Verif
Chan Gain,,500,500,1,1,1,1,1,1,1,1,1.0,1.0
Offset,,0,0,0.14021,0,0,0,0,0,0,0,0.0,0.0
Gain,,1,1,25.011,13.3046,13.3037,1,1,1,1.00087,1.10262,1.0,1.0
Units,sec,C,C,Pa,%,%,%,%,%,g,/m,,
Baseline,,28.6401,31.9155,138.912,100.505,105.441,0.00453622,0.106403,20.8961,-1.59502,-0.463682,,
10,2.25,26.2499,29.261,137.123,100.603,105.589,0.00469189,0.114318,20.8908,896.242,-0.467848,0.0,0.0
20,4.75,26.9141,29.5627,137.812,100.617,105.642,0.00465629,0.113571,20.8925,933.284,-0.471352,0.0,0.0
30,7.25,27.3229,29.8487,139.756,100.618,104.705,0.00466049,0.113089,20.8939,956.705,-0.385177,0.0,0.0
40,9.75,27.2886,29.9644,136.747,100.637,105.214,0.00465266,0.112555,20.8951,963.801,-0.430258,0.0,0.0
50,12.25,28.492,30.6411,136.815,100.633,105.636,0.00461313,0.111903,20.8955,969.946,-0.46931,0.0,0.0
60,14.75,27.8606,30.3941,137.421,100.606,105.369,0.00472602,0.111389,20.8936,969.316,-0.447434,0.0,0.0
70,17.25,28.4154,30.9389,139.198,100.537,106.069,0.00493742,0.111652,20.891,956.064,-0.518106,0.0,0.0
80,19.75,28.4915,31.0051,136.131,100.462,105.18,0.00518709,0.112665,20.8864,921.774,-0.443919,0.0,0.0
90,22.25,28.2865,31.3886,137.356,100.365,104.788,0.00557323,0.116024,20.8756,900.466,-0.417171,0.0,0.0
100,24.75,28.9558,32.0644,137.237,100.254,103.837,0.00589294,0.123915,20.8537,889.266,-0.339655,0.0,0.0
110,27.25,29.4239,33.2383,133.866,100.12,103.904,0.00571604,0.137847,20.8244,885.683,-0.358828,0.0,1.0
120,29.75,30.3097,33.8763,128.01,99.9813,103.569,0.00554789,0.161113,20.7609,888.405,-0.340984,0.0,1.0
130,32.25,30.8886,35.4725,129.061,99.8246,97.0771,0.00596454,0.192615,20.6777,895.471,0.269939,0.0,1.0
140,34.75,33.322,38.2326,128.802,99.6906,93.9416,0.00692984,0.234284,20.5839,895.742,0.574505,0.0,0.0
150,37.25,35.2494,41.3137,121.778,99.5335,89.6409,0.0079853,0.288651,20.4534,895.631,1.0125,0.0,0.0
160,39.75,38.3631,45.2109,116.83,99.4234,87.8322,0.00925329,0.351571,20.3263,895.371,1.19895,0.0,0.0
170,42.25,41.1395,50.1693,109.079,99.3167,84.4714,0.0106029,0.4233,20.1632,895.231,1.56592,0.0,0.0
180,44.75,44.5447,54.9286,116.238,99.2334,81.4215,0.0120873,0.502155,19.9875,894.981,1.91348,0.0,0.0
190,47.25,48.2659,60.9758,97.7531,99.1944,76.3031,0.0143373,0.589496,19.8382,894.681,2.53765,0.0,0.0
200,49.75,53.653,68.3066,102.058,99.1693,73.4701,0.0170177,0.702336,19.6476,894.32,2.90114,0.0,0.0
210,52.25,60.1556,76.9017,85.3262,99.2046,72.3902,0.0202127,0.847071,19.2904,893.86,3.04782,0.0,0.0
220,54.75,66.6496,87.4242,79.5917,99.2432,71.2574,0.0241611,1.02213,18.9366,893.309,3.20412,0.0,0.0
230,57.25,75.1639,99.3667,89.1769,99.3264,68.357,0.0287789,1.23734,18.4859,892.809,3.61415,0.0,0.0
240,59.75,83.4675,112.055,85.8994,99.4283,64.6385,0.0345875,1.48982,18.0043,892.228,4.16507,0.0,0.0
250,62.25,92.2709,126.488,84.5919,99.5635,65.8098,0.0400736,1.76871,17.4699,891.468,4.00452,0.0,0.0
260,64.75,102.753,143.486,78.3911,99.6975,64.766,0.0475876,2.09506,16.8712,890.727,4.17216,0.0,0.0
270,67.25,113.882,162.124,60.116,99.8603,66.254,0.0561589,2.52633,16.1813,889.826,3.96825,0.0,0.0
280,69.75,126.11,182.954,61.3472,100.028,67.4054,0.0634563,3.03101,15.5372,889.076,3.81787,0.0,0.0
290,72.25,138.826,205.966,53.9457,100.179,65.554,0.0688127,3.58094,14.6095,887.835,4.10183,0.0,0.0
300,74.75,151.417,229.074,77.0859,100.342,68.7764,0.0719582,4.22869,13.5126,886.744,3.65337,0.0,0.0
310,77.25,164.742,256.078,43.5537,100.494,68.0574,0.0750283,4.93903,12.3847,885.583,3.76965,0.0,0.0
320,79.75,176.147,278.499,54.2197,100.646,72.0142,0.0759592,5.57794,11.5119,884.412,3.23773,0.0,0.0
330,82.25,188.533,301.393,58.3735,100.769,72.8607,0.0740097,6.12222,10.807,883.19,3.13648,0.0,0.0
340,84.75,200.525,323.006,51.6108,100.898,82.2286,0.069542,6.72995,9.88579,881.769,1.97899,0.0,0.0
350,87.25,213.169,344.387,52.8328,100.968,81.5892,0.0655563,7.34571,9.10355,880.528,2.06119,0.0,0.0
360,89.75,224.391,364.408,31.9489,101.062,81.5283,0.0640325,7.83487,8.52081,879.147,2.07739,0.0,0.0
370,92.25,233.365,380.27,67.7793,101.112,69.763,0.0667575,8.11306,8.28095,877.836,3.58957,0.0,0.0
380,94.75,237.653,384.625,39.906,101.19,75.1083,0.0715321,8.01081,8.62793,876.595,2.883,0.0,0.0
390,97.25,242.674,389.208,60.7526,101.203,70.4186,0.0762434,7.79192,9.0756,875.484,3.50775,0.0,0.0
400,99.75,246.762,394.113,39.4961,101.228,74.0072,0.0788541,7.59187,9.33445,874.243,3.02941,0.0,0.0
410,102.25,251.609,398.83,53.6358,101.227,65.8723,0.0809102,7.53487,9.4011,872.922,4.15559,0.0,0.0
420,104.75,254.869,402.975,66.7512,101.22,67.1764,0.0819455,7.56634,9.29973,871.751,3.96533,0.0,0.0
430,107.25,259.878,410.404,56.5981,101.212,67.9847,0.0820347,7.6856,9.11923,870.64,3.84886,0.0,0.0
440,109.75,263.117,414.688,58.8383,101.18,68.2864,0.0820147,7.71118,9.1462,869.419,3.80298,0.0,0.0
450,112.25,265.259,414.436,60.6076,101.16,60.9297,0.0823237,7.50958,9.61837,868.448,4.90355,0.0,0.0
460,114.75,265.115,410.544,64.1766,101.11,59.4101,0.078551,7.01138,10.7253,867.547,5.1431,0.0,0.0
470,117.25,259.867,394.974,86.6856,101.064,71.0276,0.0686465,5.95283,12.3914,867.257,3.41118,0.0,0.0
480,119.75,244.428,364.868,108.419,101.008,98.6471,0.0488704,4.79274,14.993,867.257,0.22877,0.0,0.0
490,122.25,226.753,333.001,115.879,100.964,100.303,0.0335813,3.32672,17.3781,867.247,0.0635451,0.0,0.0
500,124.75,211.398,305.7,116.34,100.906,100.196,0.0231807,2.31858,18.8732,867.217,0.0682838,0.0,0.0
510,127.25,198.036,281.516,116.755,100.873,100.476,0.0169975,1.62928,19.7615,867.217,0.0380882,0.0,0.0
520,129.75,186.273,261.859,115.511,100.811,100.091,0.0134466,1.17243,20.1938,867.187,0.0693668,0.0,0.0
530,132.25,175.512,242.65,115.487,100.786,100.207,0.0111999,0.877088,20.4258,867.177,0.0557769,0.0,0.0
540,134.75,166.04,225.459,117.781,100.723,99.9645,0.00993,0.685646,20.5715,867.177,0.0731186,0.0,0.0
550,137.25,159.399,213.109,115.803,100.705,100.113,0.00907368,0.552096,20.6604,867.167,0.0569989,0.0,0.0
560,139.75,151.933,199.772,115.869,100.677,99.8931,0.0083317,0.457129,20.7199,867.107,0.0756289,0.0,0.0
570,142.25,145.42,188.8,119.248,100.637,99.3454,0.00765298,0.387746,20.7651,867.117,0.124942,0.0,0.0
580,144.75,140.171,178.916,119.029,100.599,99.6872,0.00733799,0.333853,20.7937,867.127,0.0880885,0.0,0.0
590,147.25,134.611,169.47,116.261,100.584,99.4522,0.00699973,0.294014,20.8165,867.076,0.109479,0.0,0.0
600,149.75,130.71,161.367,119.974,100.542,99.7035,0.00659697,0.261155,20.8328,867.107,0.0810066,0.0,0.0
610,152.25,125.928,153.688,120.38,100.519,98.9333,0.00634974,0.236642,20.843,867.086,0.153822,0.0,0.0
620,154.75,122.326,147.588,119.325,100.511,98.8286,0.00621092,0.216716,20.8508,867.086,0.163248,0.0,0.0
630,157.25,118.701,141.38,118.733,100.48,98.4465,0.00599798,0.200806,20.8565,867.066,0.19778,0.0,0.0
640,159.75,115.916,136.004,118.425,100.462,98.8862,0.00584904,0.18823,20.8613,867.086,0.152879,0.0,0.0
650,162.25,112.144,130.343,123.339,100.442,98.3605,0.00569508,0.176621,20.867,867.066,0.202564,0.0,0.0
660,164.75,110.89,127.266,120.203,100.457,98.3531,0.00564864,0.167611,20.8706,867.056,0.20469,0.0,0.0
670,167.25,108.013,123.177,122.196,100.411,98.218,0.00561734,0.160121,20.8748,867.056,0.213615,0.0,0.0
680,169.75,104.631,118.693,119.163,100.429,98.127,0.00543341,0.15261,20.8789,867.036,0.224257,0.0,0.0
690,172.25,103.71,115.337,121.186,100.464,98.222,0.00520394,0.146888,20.8811,867.006,0.218299,0.0,0.0
700,174.75,101.991,112.516,118.671,100.504,98.44,0.00511087,0.142268,20.883,867.036,0.200684,0.0,0.0
710,177.25,100.014,109.911,120.166,100.534,98.3499,0.00506331,0.138491,20.885,867.026,0.212435,0.0,0.0
720,179.75,98.9386,107.304,122.415,100.575,98.0296,0.00501882,0.135092,20.8867,867.056,0.247933,0.0,0.0
730,182.25,97.3064,104.959,120.389,100.609,98.2074,0.00501233,0.132321,20.8879,867.026,0.233683,0.0,0.0
740,184.75,95.5605,102.788,119.459,100.639,98.468,0.00490239,0.130037,20.8888,867.006,0.210973,0.0,0.0
750,187.25,94.284,100.43,120.432,100.682,98.22,0.0047347,0.128002,20.8894,866.986,0.239428,0.0,0.0
760,189.75,93.1333,98.5368,121.054,100.687,98.5704,0.00464037,0.126171,20.8857,866.976,0.205493,0.0,0.0
770,192.25,91.3875,96.8169,120.819,100.706,98.1956,0.0046799,0.124129,20.8865,866.976,0.244206,0.0,0.0
780,194.75,91.0722,95.0403,124.123,100.729,98.3531,0.00481933,0.122366,20.8886,866.976,0.230846,0.0,0.0
790,197.25,89.4749,93.5117,118.694,100.75,98.3592,0.00477445,0.120629,20.8909,866.986,0.232236,0.0,0.0
800,199.75,89.017,91.9541,121.207,100.749,98.3998,0.00462942,0.11904,20.8931,866.966,0.228205,0.0,0.0
810,202.25,88.1518,90.5655,124.408,100.759,98.1591,0.00457209,0.117789,20.8956,867.016,0.252835,0.0,0.0
820,204.75,86.3535,89.732,122.908,100.776,98.2914,0.00468126,0.116906,20.8968,866.976,0.2414,0.0,0.0
830,207.25,85.7362,87.8291,121.433,100.786,97.7519,0.00478285,0.116225,20.8972,866.946,0.295693,0.0,0.0
840,209.75,85.108,87.1474,122.192,100.769,98.2898,0.00490753,0.115676,20.8969,866.956,0.240897,0.0,0.0
850,212.25,83.6052,85.1138,127.476,100.773,97.6691,0.00509881,0.115182,20.893,866.956,0.302644,0.0,0.0
860,214.75,83.1221,85.2912,127.59,100.775,98.0292,0.00509099,0.114709,20.8911,866.936,0.267164,0.0,0.0
870,217.25,82.6133,83.2666,122.087,100.766,98.0937,0.00486525,0.113886,20.8919,866.926,0.259939,0.0,0.0
880,219.75,82.0102,83.5018,121.035,100.758,98.3418,0.00471799,0.113346,20.8926,866.936,0.23481,0.0,0.0
890,222.25,81.8907,82.4191,124.268,100.753,97.9191,0.00465804,0.112813,20.8941,866.936,0.275921,0.0,0.0
900,224.75,80.3916,81.9032,126.293,100.734,97.9321,0.00469805,0.112261,20.8951,866.886,0.272885,0.0,0.0
910,227.25,78.8067,79.3187,127.301,100.732,97.9524,0.00473592,0.111793,20.8962,866.986,0.270607,0.0,0.0
920,229.75,79.4929,79.3183,125.703,100.726,97.7052,,0.111452,,866.936,0.294468,0.0,0.0
930,232.25,78.3848,79.2092,122.763,100.699,98.1323,,,,866.906,0.249745,0.0,0.0
940,234.75,77.9337,78.3782,124.463,100.696,97.6958,,,,866.896,0.292584,0.0,0.0
950,237.25,76.8092,77.1818,123.456,100.67,98.6382,,,,866.896,0.197205,0.0,0.0
960,239.75,76.8564,77.1937,122.462,100.676,97.7961,,,,866.886,0.280672,0.0,0.0

File: LDPE_Cone_HF75Scan_220202_R2.csv
Names,Time,Stack TC,Smoke TC,Exh Press,Smoke Comp,Smoke Meas,CO Meter,CO2 Meter,O2 Meter,Sample Mass,Ext Coeff,Start Test,Flame Verif
Chan Gain,,500,500,1,1,1,1,1,1,1,1,1.0,1.0
Offset,,0,0,0.14021,0,0,0,0,0,0,0,0.0,0.0
Gain,,1,1,25.011,13.3046,13.3037,1,1,1,1.00087,1.10262,1.0,1.0
Units,sec,C,C,Pa,%,%,%,%,%,g,/m,,
Baseline,,42.2509,44.7586,132.164,99.8317,102.131,0.00408457,0.106772,20.8941,-2.06121,-0.220062,,
10,2.25,37.4908,39.219,135.806,99.1295,101.594,0.00417763,0.116388,20.8789,920.743,-0.237505,0.0,0.0
20,4.75,37.6243,39.4089,131.13,99.1465,102.768,0.00429497,0.116401,20.8784,991.675,-0.346944,0.0,0.0
30,7.25,38.3094,39.5002,128.338,99.1888,102.45,0.00434481,0.116375,20.8782,1004.55,-0.312861,0.0,0.0
40,9.75,37.9084,40.1524,132.932,99.2379,103.165,0.00428164,0.116337,20.8789,998.942,-0.375373,0.0,0.0
50,12.25,38.5928,39.9068,134.693,99.3037,102.723,0.00409126,0.115854,20.8792,977.763,-0.327424,0.0,0.0
60,14.75,38.6558,39.897,131.565,99.3593,101.27,0.00397903,0.115115,20.8806,959.607,-0.184253,0.0,0.0
70,17.25,37.9861,40.4086,132.503,99.4515,102.824,0.00428274,0.114167,20.8823,942.622,-0.322515,0.0,0.0
80,19.75,38.5899,40.6646,132.592,99.5233,102.283,0.00478183,0.113589,20.8821,920.163,-0.264525,0.0,0.0
90,22.25,38.9677,40.7902,131.606,99.6338,102.066,0.00511138,0.115689,20.8655,898.414,-0.233314,0.0,0.0
100,24.75,39.2634,41.7666,126.087,99.7231,101.284,0.00523884,0.127685,20.8389,888.795,-0.150184,0.0,0.0
110,27.25,40.5008,43.0177,130.575,99.8465,100.775,0.00522652,0.147717,20.8024,883.951,-0.0895172,0.0,1.0
120,29.75,41.2981,44.5419,122.114,99.9549,100.174,0.00521236,0.180592,20.7234,894.34,-0.0211398,0.0,1.0
130,32.25,43.0322,46.3865,121.675,100.073,94.6277,0.00561264,0.219108,20.6357,894.811,0.541194,0.0,0.0
140,34.75,43.9508,48.6164,119.518,100.175,89.392,0.00648716,0.263166,20.5511,895.541,1.10149,0.0,0.0
150,37.25,46.677,51.6381,114.894,100.289,85.1169,0.00790863,0.318677,20.4301,895.521,1.58653,0.0,0.0
160,39.75,48.0717,54.842,114.192,100.389,83.7982,0.00921594,0.380289,20.2992,895.381,1.74721,0.0,0.0
170,42.25,51.5584,59.4076,104.988,100.485,81.8848,0.0106713,0.442132,20.1884,895.141,1.97985,0.0,0.0
180,44.75,54.137,63.2017,99.0362,100.587,78.2982,0.0122854,0.511522,20.0402,894.851,2.42282,0.0,0.0
190,47.25,58.3257,69.0507,99.7338,100.681,75.9645,0.0140187,0.602972,19.8831,894.56,2.72453,0.0,0.0
200,49.75,62.9238,76.2789,96.5509,100.782,74.1132,0.0164275,0.718206,19.6805,894.2,2.97292,0.0,0.0
210,52.25,68.35,84.5547,105.303,100.834,72.106,0.0195773,0.869152,19.3214,893.78,3.24339,0.0,0.0
220,54.75,74.5342,93.9001,87.484,100.909,68.4894,0.0229848,1.05448,18.9809,893.359,3.74838,0.0,0.0
230,57.25,81.8864,105.528,81.9999,100.948,66.541,0.0286147,1.27507,18.5919,892.749,4.03126,0.0,0.0
240,59.75,90.7145,119.337,72.3902,101.015,66.1317,0.0350966,1.53692,18.0323,892.198,4.09734,0.0,0.0
250,62.25,100.776,135.085,92.5674,101.041,63.5626,0.0417262,1.8482,17.5283,891.428,4.48303,0.0,0.0
260,64.75,111.639,151.878,78.4529,101.1,64.4871,0.0490499,2.21048,16.8781,890.527,4.34901,0.0,0.0
270,67.25,121.908,170.831,65.2941,101.102,69.6558,0.0558001,2.64691,16.1225,889.746,3.60344,0.0,0.0
280,69.75,134.288,193.625,57.6476,101.125,66.0229,0.0629135,3.16527,15.3701,888.855,4.12372,0.0,0.0
290,72.25,145.83,213.952,50.6277,101.13,67.1362,0.0680423,3.75776,14.5255,887.825,3.96254,0.0,0.0
300,74.75,159.466,239.95,55.9661,101.121,71.0768,0.0713657,4.39058,13.3765,886.764,3.41001,0.0,0.0
310,77.25,172.791,263.756,58.2223,101.134,78.6465,0.0713133,5.09349,12.333,885.503,2.43237,0.0,0.0
320,79.75,185.85,288.693,50.5827,101.12,81.3939,0.0689012,5.85065,11.2171,884.271,2.09894,0.0,0.0
330,82.25,198.006,311.912,57.5277,101.12,72.35,0.0664897,6.60117,10.2615,882.93,3.23817,0.0,0.0
340,84.75,211.949,338.855,57.6827,101.108,79.6599,0.0647327,7.33185,9.14826,881.439,2.30601,0.0,0.0
350,87.25,223.526,360.227,60.7366,101.111,72.6654,0.0648449,8.02496,8.1879,880.098,3.1952,0.0,0.0
360,89.75,234.914,380.179,64.2171,101.09,82.7171,0.0670942,8.71102,7.39498,878.607,1.9401,0.0,0.0
370,92.25,245.758,399.677,50.6735,101.115,86.7035,0.0748682,9.27675,6.34028,876.945,1.48718,0.0,0.0
380,94.75,258.146,425.287,54.6823,101.107,91.5714,0.0861707,10.0561,5.26742,875.504,0.958144,0.0,0.0
390,97.25,269.866,448.424,54.5044,101.126,82.9379,0.0932486,10.5858,4.52705,873.792,1.91773,0.0,0.0
400,99.75,280.144,445.46,28.5095,101.112,89.8942,0.100272,10.8636,4.12937,872.381,1.1374,0.0,0.0
410,102.25,288.639,440.716,54.9128,101.13,82.6781,0.109229,11.1171,3.73625,870.61,1.9485,0.0,0.0
420,104.75,296.847,439.108,36.6003,101.135,88.5545,0.106985,11.2702,3.55485,869.298,1.28481,0.0,0.0
430,107.25,302.823,438.104,52.439,101.117,78.3352,0.0944308,11.1554,4.09685,867.857,2.46907,0.0,0.0
440,109.75,303.378,437.923,66.3833,101.127,58.5116,0.0856678,10.4024,5.59633,866.876,5.29212,0.0,0.0
450,112.25,297.44,443.281,73.5703,101.125,60.3544,0.0763595,8.83159,8.49342,866.426,4.992,0.0,0.0
460,114.75,283.202,439.675,104.602,101.128,94.2831,0.0594699,6.74867,13.0223,866.366,0.677908,0.0,0.0
470,117.25,261.98,399.061,111.554,101.128,100.005,0.0429506,4.55262,15.8064,866.356,0.108025,0.0,0.0
480,119.75,243.817,364.644,113.838,101.133,100.898,0.0281894,3.12877,17.6764,866.306,0.0225277,0.0,0.0
490,122.25,227.326,334.254,111.952,101.134,101.182,0.0190635,2.03235,19.1004,866.346,-0.00459928,0.0,0.0
500,124.75,213.516,308.828,112.811,101.134,101.194,0.0140393,1.37807,19.8457,866.346,-0.00580251,0.0,0.0
510,127.25,200.862,285.975,116.781,101.119,101.252,0.0110189,0.986352,20.2547,866.306,-0.0127093,0.0,0.0
520,129.75,190.216,266.35,113.941,101.114,101.19,0.00923035,0.735164,20.488,866.316,-0.0072782,0.0,0.0
530,132.25,181.278,249.355,113.498,101.089,101.079,0.00798865,0.573121,20.6121,866.296,0.000990381,0.0,0.0
540,134.75,172.434,233.44,111.278,101.082,101.285,0.00721169,0.459296,20.6994,866.296,-0.019424,0.0,0.0
550,137.25,165.092,219.653,113.846,101.047,100.917,0.00669874,0.379369,20.7519,866.286,0.012464,0.0,0.0
560,139.75,159.104,208.218,111.697,101.002,100.659,0.00621675,0.324121,20.7822,866.276,0.0328888,0.0,0.0
570,142.25,153.512,198.017,113.461,100.947,101.061,0.00593027,0.28271,20.8049,866.306,-0.0109055,0.0,0.0
580,144.75,148.13,187.913,115.53,100.91,100.794,0.00568397,0.250962,20.8233,866.266,0.0110763,0.0,0.0
590,147.25,143.535,179.279,113.57,100.854,100.58,0.00545585,0.225821,20.8375,866.296,0.0262586,0.0,0.0
600,149.75,139.762,171.743,115.876,100.774,100.462,0.00534695,0.205165,20.8462,866.306,0.0299513,0.0,0.0
610,152.25,135.708,164.992,116.825,100.688,100.236,0.00522589,0.19002,20.8518,866.326,0.0435213,0.0,0.0
620,154.75,131.891,158.417,116.527,100.634,99.9593,0.00511281,0.178115,20.8563,866.276,0.0650879,0.0,0.0
630,157.25,128.497,152.634,113.475,100.542,100.093,0.00494435,0.168325,20.8607,866.276,0.0432309,0.0,0.0
640,159.75,126.115,147.627,115.955,100.473,99.6215,0.00479483,0.160501,20.8642,866.256,0.0822837,0.0,0.0
650,162.25,123.318,142.805,116.611,100.398,99.4335,0.00476319,0.154052,20.8664,866.296,0.0933965,0.0,0.0
660,164.75,120.732,138.4,120.253,100.325,99.8269,0.00479096,0.14858,20.8674,866.286,0.0481597,0.0,0.0
670,167.25,118.918,134.745,115.799,100.268,99.1213,0.0047598,0.144447,20.8673,866.296,0.11121,0.0,0.0
680,169.75,116.192,131.109,118.065,100.199,99.1461,0.0046671,0.140409,20.8694,866.266,0.102133,0.0,0.0
690,172.25,113.601,126.95,116.185,100.144,99.613,0.0045942,0.137009,20.8725,866.256,0.0514002,0.0,0.0
700,174.75,112.71,124.063,116.646,100.065,98.7458,0.00443242,0.13413,20.8742,866.236,0.1284,0.0,0.0
710,177.25,110.844,122.045,118.526,100.011,98.8505,0.0043321,0.131737,20.8774,866.266,0.112925,0.0,0.0
720,179.75,109.439,118.68,121.502,99.9695,98.6304,0.00446556,0.129416,20.8799,866.266,0.130433,0.0,0.0
730,182.25,107.672,116.312,117.403,99.903,98.6382,0.0046602,0.126914,20.8822,866.256,0.123232,0.0,0.0
740,184.75,106.582,114.538,119.432,99.8522,98.2699,0.00470499,0.125155,20.8844,866.236,0.154494,0.0,0.0
750,187.25,104.806,112.102,120.2,99.8006,98.2106,0.00461904,0.123548,20.8838,866.276,0.155333,0.0,0.0
760,189.75,104.096,110.594,117.465,99.7381,98.4859,0.00453867,0.122319,20.8821,866.296,0.122201,0.0,0.0
770,192.25,102.684,108.206,120.031,99.6943,98.412,0.004546,0.121124,20.8824,866.286,0.125207,0.0,0.0
780,194.75,102.016,107.014,119.421,99.639,97.7535,0.00460989,0.120037,20.8831,866.236,0.184787,0.0,0.0
790,197.25,100.363,105.202,118.752,99.5834,97.9403,0.00472645,0.11904,20.8833,866.266,0.160925,0.0,0.0
800,199.75,98.5525,103.496,117.878,99.5351,98.1294,0.00476507,0.118315,20.8834,866.266,0.137566,0.0,0.0
810,202.25,98.7111,102.079,120.751,99.4819,97.5927,0.004753,0.117906,20.8834,866.236,0.185443,0.0,0.0
820,204.75,96.5604,100.177,121.679,99.4271,97.3982,0.00478528,0.117533,20.8834,866.236,0.199404,0.0,0.0
830,207.25,96.3268,99.1899,118.967,99.378,97.1725,0.00470832,0.117388,20.8834,866.226,0.217067,0.0,0.0
840,209.75,95.1979,98.1348,116.208,99.3362,97.6784,0.00452964,0.117245,20.8834,866.256,0.162775,0.0,0.0
850,212.25,94.5272,96.972,125.731,99.2842,97.2598,0.00438842,0.117061,20.8797,866.216,0.199249,0.0,0.0
860,214.75,94.2171,95.6057,120.915,99.2675,97.3881,0.00442631,0.116958,20.8779,866.246,0.184878,0.0,0.0
870,217.25,93.196,94.7358,120.022,99.2103,97.0272,0.00449696,0.116734,20.877,866.216,0.215211,0.0,0.0
880,219.75,92.0266,93.5657,120.469,99.1823,96.7621,0.00438084,0.11633,20.8767,866.206,0.238943,0.0,0.0
890,222.25,91.9491,93.1213,118.728,99.1437,97.2976,0.00430701,0.115899,20.8766,866.226,0.1818,0.0,0.0
900,224.75,90.6415,91.4863,119.85,99.1234,96.7543,0.00427123,0.115392,20.8783,866.226,0.233971,0.0,0.0
910,227.25,90.5824,91.4035,122.225,99.1051,96.7129,,0.115081,,866.216,0.236328,0.0,0.0
920,229.75,89.2153,90.5878,120.689,99.1007,96.8169,,,,866.226,0.225504,0.0,0.0
930,232.25,88.9853,89.3898,122.271,99.099,97.1851,,,,866.246,0.188627,0.0,0.0
940,234.75,87.496,87.9488,118.07,99.1043,96.9529,,,,866.186,0.212283,0.0,0.0
946,236.25,87.4611,88.2991,122.93,99.1092,96.6606,,,,866.206,0.241964,0.0,0.0