Folder: fsri_materials_database/01_Data/LDPE/Cone (part 2)

File: LDPE_Cone_HF25Scan_220202_R3.csv
Names,Time,Stack TC,Smoke TC,Exh Press,Smoke Comp,Smoke Meas,CO Meter,CO2 Meter,O2 Meter,Sample Mass,Ext Coeff,Start Test,Flame Verif
Chan Gain,,500,500,1,1,1,1,1,1,1,1,1.0,1.0
Offset,,0,0,0.14021,0,0,0,0,0,0,0,0.0,0.0
Gain,,1,1,25.011,13.3046,13.3037,1,1,1,1.00087,1.10262,1.0,1.0
Units,sec,C,C,Pa,%,%,%,%,%,g,/m,,
Baseline,,24.225,23.8983,142.676,100.463,102.799,0.00463444,0.102111,20.9112,0.00108428,-0.222165,,
18,4.25,21.9848,21.2096,138.933,100.871,102.183,0.00449352,0.106447,20.9049,898.444,-0.125028,0.0,0.0
36,8.75,22.2911,22.1927,145.474,100.708,101.843,0.00465401,0.107975,20.9027,898.444,-0.108396,0.0,0.0
54,13.25,22.3984,22.3091,142.116,100.4,101.707,0.00494599,0.108116,20.9042,898.404,-0.125113,0.0,0.0
72,17.75,22.0685,22.3909,140.165,100.297,102.001,0.0049461,0.106822,20.9071,921.023,-0.163004,0.0,0.0
90,22.25,22.1227,22.2877,141.357,100.898,102.698,0.00461661,0.105256,20.9111,944.134,-0.170988,0.0,0.0
108,26.75,21.8492,22.2125,139.156,101.139,103.018,0.00448071,0.103994,20.9133,951.44,-0.17798,0.0,0.0
126,31.25,22.1504,21.8825,143.59,101.05,102.587,0.00442563,0.103094,20.9108,956.865,-0.146036,0.0,0.0
144,35.75,21.6488,22.0863,144.418,100.705,102.189,0.00423519,0.102507,20.9117,958.056,-0.141541,0.0,0.0
162,40.25,21.9472,22.0138,141.306,100.781,102.178,0.00442411,0.102244,20.9104,955.784,-0.133176,0.0,0.0
180,44.75,22.3373,22.1738,140.962,101.004,102.544,0.00434916,0.10223,20.9118,950.529,-0.14637,0.0,0.0
198,49.25,21.9084,22.308,139.727,101.193,101.805,0.0042535,0.102223,20.911,943.833,-0.0582832,0.0,0.0
216,53.75,21.9955,21.8577,142.918,101.373,102.404,0.00437459,0.102274,20.9113,926.879,-0.0978717,0.0,0.0
234,58.25,22.0793,22.1156,141.887,101.456,102.983,0.00442902,0.102429,20.9114,900.856,-0.1445,0.0,0.0
252,62.75,21.963,22.1734,142.66,101.508,103.304,0.00461577,0.102842,20.9114,887.925,-0.169701,0.0,0.0
270,67.25,21.7265,22.0566,139.903,101.489,102.862,0.00466061,0.103145,20.9112,890.787,-0.129919,0.0,0.0
288,71.75,21.8948,22.3762,144.26,101.436,102.847,0.00442771,0.103517,20.9112,891.948,-0.133615,0.0,0.0
306,76.25,22.0782,22.7033,143.178,101.37,103.557,0.00413397,0.103872,20.9085,891.538,-0.206439,0.0,0.0
324,80.75,21.9727,22.2482,140.84,101.29,102.814,0.00423771,0.10426,20.9064,891.828,-0.14447,0.0,0.0
342,85.25,22.2334,22.129,142.528,101.218,102.934,0.00453698,0.104869,20.9042,893.169,-0.162672,0.0,0.0
360,89.75,22.0516,22.3619,142.141,101.156,102.388,0.0047939,0.105645,20.903,894.811,-0.117048,0.0,0.0
378,94.25,21.5059,22.2719,147.161,101.125,102.879,0.00460145,0.106956,20.9003,896.362,-0.166294,0.0,0.0
396,98.75,22.1208,22.481,138.265,101.123,102.312,0.00477516,0.108447,20.8949,897.773,-0.113055,0.0,0.0
414,103.25,21.4534,22.764,142.725,101.136,102.436,0.00497173,0.111335,20.888,898.154,-0.123512,0.0,1.0
432,107.75,21.868,22.2613,139.904,101.15,102.11,0.00488304,0.116135,20.875,898.194,-0.0913223,0.0,1.0
450,112.25,22.4639,23.7716,141.622,101.193,102.38,0.00501631,0.12317,20.8594,898.174,-0.112825,0.0,0.0
468,116.75,23.0798,24.0198,138.997,101.238,102.734,0.005178,0.132291,20.8453,898.174,-0.141829,0.0,0.0
486,121.25,23.0006,24.4375,135.405,101.288,101.941,0.00544563,0.14117,20.8302,898.094,-0.0620806,0.0,0.0
504,125.75,24.1221,25.8213,138.73,101.359,102.191,0.00531967,0.151581,20.811,898.003,-0.0791138,0.0,0.0
522,130.25,24.6824,26.3355,137.087,101.423,102.632,0.00514109,0.162935,20.7923,898.003,-0.114634,0.0,0.0
540,134.75,25.3697,27.7795,136.051,101.475,101.494,0.00516268,0.176577,20.7641,897.873,-0.00179597,0.0,0.0
558,139.25,26.1869,28.7756,137.704,101.509,100.513,0.00520019,0.192318,20.7355,897.803,0.0953843,0.0,0.0
576,143.75,26.723,29.9371,134.806,101.532,101.384,0.0052263,0.210566,20.7023,897.693,0.0141106,0.0,0.0
594,148.25,29.138,32.8779,128.195,101.504,97.9106,0.00530353,0.231131,20.6644,897.563,0.348645,0.0,0.0
612,152.75,30.7841,34.7005,132.34,101.446,98.7965,0.00579412,0.250378,20.6292,897.413,0.255991,0.0,0.0
630,157.25,31.8587,36.4838,130.54,101.361,97.8915,0.00622374,0.272008,20.5951,897.283,0.336902,0.0,0.0
648,161.75,33.29,38.3199,132.282,101.226,95.9671,0.00653781,0.291338,20.5545,897.053,0.516025,0.0,0.0
666,166.25,35.4866,40.9556,126.811,101.101,94.8275,0.00711838,0.314852,20.514,896.923,0.619615,0.0,0.0
684,170.75,36.9768,43.4486,122.611,100.954,93.5498,0.00789329,0.34602,20.4455,896.702,0.736747,0.0,0.0
702,175.25,39.8431,46.5587,122.945,100.845,89.5353,0.0091015,0.389699,20.3377,896.422,1.1505,0.0,0.0
720,179.75,42.3594,51.3505,121.986,100.733,85.5761,0.0099115,0.445724,20.2229,896.102,1.5772,0.0,0.0
738,184.25,46.4367,56.749,114.828,100.768,85.6885,0.0109179,0.511991,20.085,895.742,1.56784,0.0,0.0
756,188.75,50.5526,62.0455,115.207,100.992,84.2903,0.0117385,0.577824,19.9847,895.331,1.74842,0.0,0.0
774,193.25,54.6131,68.0761,111.445,101.119,83.8222,0.0123302,0.649146,19.8546,894.831,1.81449,0.0,0.0
792,197.75,59.2338,74.1682,110.281,101.192,84.2326,0.012825,0.731062,19.694,894.36,1.77419,0.0,0.0
810,202.25,63.1498,80.5397,105.072,101.18,82.2648,0.0136884,0.813664,19.5517,893.72,2.00175,0.0,0.0
828,206.75,68.7187,87.9596,103.076,101.095,79.9319,0.0148864,0.906468,19.3908,893.199,2.27184,0.0,0.0
846,211.25,74.2894,96.0342,99.8666,100.929,80.5917,0.0160682,0.998198,19.2549,892.559,2.17643,0.0,0.0
864,215.75,79.3717,103.871,103.746,100.693,80.5653,0.0173162,1.0852,19.1065,891.868,2.15697,0.0,0.0
882,220.25,85.0538,111.343,93.6581,100.396,78.9945,0.0180903,1.17173,18.9878,891.178,2.31886,0.0,0.0
900,224.75,90.2188,119.061,98.2469,100.343,78.9312,0.0197002,1.25935,18.828,890.437,2.32149,0.0,0.0
918,229.25,96.7972,128.25,90.9317,100.402,77.0278,0.0217704,1.35655,18.6619,889.646,2.56325,0.0,0.0
936,233.75,102.199,137.306,91.2676,100.471,75.293,0.0245777,1.47739,18.442,888.835,2.79022,0.0,0.0
954,238.25,109.341,147.827,95.1389,100.565,73.8725,0.0278231,1.62601,18.16,887.865,2.98348,0.0,0.0
972,242.75,118.062,160.958,70.8522,100.669,74.5992,0.0319655,1.81614,17.8183,886.854,2.89882,0.0,0.0
990,247.25,125.757,173.564,84.8072,100.772,74.0462,0.0362356,2.03099,17.4499,885.723,2.98069,0.0,0.0
1008,251.75,135.406,189.073,71.314,100.855,71.486,0.0395385,2.24182,17.1173,884.662,3.32893,0.0,0.0
1026,256.25,143.525,202.767,79.5917,100.916,68.9502,0.0435736,2.47278,16.7596,883.421,3.68411,0.0,0.0
1044,260.75,153.111,217.966,80.642,100.944,73.7957,0.0482551,2.75822,16.2902,882.1,3.0299,0.0,0.0
1062,265.25,163.085,234.274,83.0143,100.946,70.9233,0.0536424,3.09929,15.7007,880.628,3.41409,0.0,0.0
1080,269.75,173.291,250.724,73.6573,100.917,71.6472,0.0569329,3.42059,15.2574,879.097,3.31315,0.0,0.0
1098,274.25,184.02,268.892,76.576,100.872,69.2827,0.0601541,3.76011,14.7214,877.766,3.63337,0.0,0.0
1116,278.75,193.979,285.287,66.2199,100.794,73.8396,0.0630039,4.07976,14.2538,876.164,3.00982,0.0,0.0
1134,283.25,201.831,297.243,63.2103,100.698,70.916,0.063537,4.30679,14.0785,874.433,3.39129,0.0,0.0
1152,287.75,205.76,301.583,72.42,100.577,68.7658,0.0602209,4.23061,14.5682,873.122,3.67745,0.0,0.0
1170,292.25,205.304,295.735,77.2538,100.438,69.7256,0.0538,3.83005,15.4774,871.941,3.53003,0.0,0.0
1188,296.75,201.402,285.707,87.8717,100.307,69.5644,0.0450161,3.34211,16.3127,870.87,3.53977,0.0,0.0
1206,301.25,194.382,270.377,89.8112,100.186,73.8802,0.0355768,2.80382,17.2569,870.049,2.94597,0.0,0.0
1224,305.75,183.95,249.501,101.653,100.057,77.1176,0.0278085,2.29766,18.0052,869.459,2.51869,0.0,0.0
1242,310.25,169.82,225.53,112.675,99.957,79.0586,0.0218463,1.73302,19.0305,869.138,2.26859,0.0,0.0
1260,314.75,153.884,198.758,121.999,99.8664,91.7086,0.0157221,1.22249,19.8815,868.998,0.824227,0.0,0.0
1278,319.25,138.032,173.683,125.37,99.7876,96.6289,0.0103709,0.835078,20.4193,868.988,0.311119,0.0,0.0
1296,323.75,124.527,152.716,125.576,99.7263,96.7426,0.00774099,0.56815,20.6942,868.998,0.293802,0.0,0.0
1314,328.25,113.505,135.521,127.093,99.7158,96.4068,0.00644428,0.407437,20.7978,868.998,0.326407,0.0,0.0
1332,332.75,104.357,121.4,129.35,99.6699,96.8152,0.00561191,0.311308,20.845,869.028,0.281065,0.0,0.0
1350,337.25,97.3266,109.937,129.883,99.6943,96.2217,0.00519186,0.252126,20.869,869.038,0.34291,0.0,0.0
1368,341.75,91.1003,100.539,128.36,99.7527,95.9095,0.00505075,0.213286,20.8826,869.028,0.380015,0.0,0.0
1386,346.25,85.4294,92.3796,129.865,99.8632,96.7003,0.00489442,0.187213,20.8887,869.028,0.311287,0.0,0.0
1404,350.75,81.9574,86.041,133.161,100.054,96.8213,0.0047222,0.168274,20.8928,869.048,0.317618,0.0,0.0
1422,355.25,78.8642,80.7407,131.239,100.264,96.3926,0.00457906,0.154894,20.8945,869.038,0.380813,0.0,0.0
1440,359.75,75.7351,76.0709,131.855,100.543,96.8396,0.004662,0.144815,20.8972,869.048,0.362974,0.0,0.0
1458,364.25,72.1693,72.3071,130.319,100.823,97.1766,0.00451982,0.137225,20.8987,869.038,0.356251,0.0,0.0
1476,368.75,70.1586,68.2417,129.882,101.084,97.4888,0.00454408,0.13132,20.9008,869.028,0.350239,0.0,0.0
1494,373.25,67.2053,64.5527,133.258,101.308,98.0357,0.00465232,0.126513,20.9026,869.028,0.317595,0.0,0.0
1512,377.75,65.5185,61.9606,139.017,101.47,98.5586,0.00468295,0.122696,20.9022,869.018,0.281595,0.0,0.0
1530,382.25,64.9313,60.6434,131.336,101.555,98.5517,0.0044825,0.119786,20.9036,869.048,0.290358,0.0,0.0
1548,386.75,62.9413,58.5197,131.511,101.542,99.2979,0.00460553,0.117208,20.9057,869.028,0.2162,0.0,0.0
1566,391.25,61.6265,57.0718,135.5,101.445,98.0893,0.00469312,0.115088,20.9044,869.048,0.325324,0.0,0.0
1584,395.75,60.2072,54.9713,136.741,101.245,98.4542,0.00446233,0.11322,20.9052,869.028,0.270375,0.0,0.0
1602,400.25,58.8385,53.2809,134.074,101.051,97.814,0.00454639,0.112088,20.9055,869.038,0.31492,0.0,0.0
1620,404.75,57.8858,52.2063,134.029,100.858,98.7758,0.00441543,0.111027,20.9057,869.038,0.201762,0.0,0.0
1638,409.25,56.6022,51.2315,131.421,100.749,98.1798,0.00424314,0.110038,20.9056,869.028,0.249859,0.0,0.0
1656,413.75,55.4709,49.932,134.003,101.056,98.4835,0.0039861,0.109309,20.905,869.028,0.249373,0.0,0.0
1674,418.25,54.6619,49.0379,134.832,101.22,98.516,0.00415605,0.10872,20.9049,869.038,0.261909,0.0,0.0
1692,422.75,53.5245,48.01,136.889,101.234,99.5253,0.00432707,0.10815,20.9053,869.038,0.164641,0.0,0.0
1710,427.25,52.4104,46.9201,138.172,101.06,99.9865,0.00429465,0.107475,20.9067,869.028,0.103267,0.0,0.0
1728,431.75,51.7243,46.3327,134.49,100.809,99.2049,,0.106979,,869.038,0.15516,0.0,0.0
1746,436.25,51.0776,45.4883,139.192,100.373,99.2005,,,,869.018,0.113626,0.0,0.0
1762,440.25,50.2817,44.872,135.244,100.401,99.1477,,,,869.038,0.121512,0.0,0.0

File: LDPE_Cone_HF50Scalar_220202_R1.csv
LABORATORY,FSRI
TEST IDENT,LDPE_HF50_1
OPERATOR,Dow
MATERIAL,LDPE
ORIENTATION,Horizontal
HEAT FLUX,50
SURF AREA,0.01
C FACTOR,0.0415673
SPEC HOLDER DIFF,300.86
SPECIMEN MASS,30.1
SCAN TIME,0.25
O2 DELAY TIME,11
CO DELAY TIME,11
CO2 DELAY TIME,8
FLOW FACTOR,1
SCAN COUNT,1204
TIME TO IGN,40.5
END OF TEST SCAN,724
END OF TEST TIME,181
TEST STATUS,1
PRE TEST CMT,Dimensions: 100.17 x 100.13 x 3.04 mm
POST TEST CMT,sample dripped from foil pan

File: LDPE_Cone_HF50Scalar_220202_R2.csv
LABORATORY,FSRI
TEST IDENT,LDPE_HF50_2
OPERATOR,Dow
MATERIAL,LDPE
ORIENTATION,Horizontal
HEAT FLUX,50
SURF AREA,0.01
C FACTOR,0.0415673
SPEC HOLDER DIFF,300.73
SPECIMEN MASS,30
SCAN TIME,0.25
O2 DELAY TIME,11
CO DELAY TIME,11
CO2 DELAY TIME,8
FLOW FACTOR,1
SCAN COUNT,1185
TIME TO IGN,39.75
END OF TEST SCAN,705
END OF TEST TIME,176.25
TEST STATUS,1
PRE TEST CMT,Dimensions: 99.96 x 100.08 x 3.04 mm
POST TEST CMT,sample dripped from foil pan

File: LDPE_Cone_HF50Scalar_220202_R3.csv
LABORATORY,FSRI
TEST IDENT,LDPE_HF50_3
OPERATOR,Dow
MATERIAL,LDPE
ORIENTATION,Horizontal
HEAT FLUX,50
SURF AREA,0.01
C FACTOR,0.0415673
SPEC HOLDER DIFF,301.35
SPECIMEN MASS,30.1
SCAN TIME,0.25
O2 DELAY TIME,11
CO DELAY TIME,11
CO2 DELAY TIME,8
FLOW FACTOR,1
SCAN COUNT,1175
TIME TO IGN,40
END OF TEST SCAN,695
END OF TEST TIME,173.75
TEST STATUS,1
PRE TEST CMT,Dimensions: 100.10 x 100.05 x 3.08 mm
POST TEST CMT,sample spilled from foil pan

File: LDPE_Cone_HF50Scan_220202_R1.csv
Names,Time,Stack TC,Smoke TC,Exh Press,Smoke Comp,Smoke Meas,CO Meter,CO2 Meter,O2 Meter,Sample Mass,Ext Coeff,Start Test,Flame Verif
Chan Gain,,500,500,1,1,1,1,1,1,1,1,1.0,1.0
Offset,,0,0,0.14021,0,0,0,0,0,0,0,0.0,0.0
Gain,,1,1,25.011,13.3046,13.3037,1,1,1,1.00087,1.10262,1.0,1.0
Units,sec,C,C,Pa,%,%,%,%,%,g,/m,,
Baseline,,29.4136,31.6827,138.593,100.433,101.316,0.00481575,0.102945,20.9074,-0.395929,-0.0845501,,
13,3,26.2048,26.7325,138.167,100.407,101.705,0.00440648,0.110061,20.9,897.503,-0.124216,0.0,0.0
26,6.25,26.6147,28.1047,140.381,100.322,102.306,0.0044754,0.109193,20.9021,935.556,-0.189329,0.0,0.0
39,9.5,27.1608,28.0493,140.218,100.329,101.368,0.00457768,0.108279,20.9031,958.636,-0.0996679,0.0,0.0
52,12.75,27.3727,28.723,140.606,100.346,101.945,0.00447164,0.107286,20.9034,962.64,-0.152876,0.0,0.0
65,16,27.2325,28.5332,138.788,100.344,102.839,0.00453292,0.106514,20.9035,960.018,-0.237521,0.0,0.0
78,19.25,26.989,28.9714,141.351,100.366,102.655,0.00452464,0.105971,20.905,951.32,-0.218094,0.0,0.0
91,22.5,28.1819,29.5508,139.203,100.39,101.881,0.00457798,0.105566,20.9039,932.984,-0.142562,0.0,0.0
104,25.75,28.1359,29.9319,137.142,100.419,101.902,0.00457928,0.105617,20.9019,911.385,-0.14175,0.0,0.0
117,29,27.8,30.0517,139.742,100.454,101.662,0.00465684,0.10606,20.8994,895.271,-0.115586,0.0,0.0
130,32.25,28.0586,29.826,138.051,100.508,101.049,0.00481408,0.106802,20.8959,887.985,-0.0520029,0.0,0.0
143,35.5,27.9741,30.0724,132.194,100.558,101.616,0.00519793,0.107833,20.8929,893.349,-0.101217,0.0,0.0
156,38.75,27.732,30.4571,139.287,100.62,100.865,0.00568653,0.10928,20.8872,897.333,-0.0234881,0.0,0.0
169,42,28.23,30.9733,133.261,100.696,101.766,0.00593874,0.115791,20.865,897.273,-0.102236,0.0,1.0
182,45.25,28.4335,31.1698,135.66,100.765,100.954,0.00593816,0.130886,20.823,897.243,-0.0181255,0.0,1.0
195,48.5,30.2218,33.4741,132.955,100.816,100.691,0.00593169,0.150978,20.7789,897.183,0.0119827,0.0,0.0
208,51.75,30.9099,34.1979,128.542,100.868,99.4652,0.00576978,0.172468,20.7392,897.083,0.135467,0.0,0.0
221,55,32.3201,36.7498,127.471,100.912,99.2727,0.00591923,0.198635,20.6901,897.033,0.158441,0.0,0.0
234,58.25,34.0714,38.8365,126.755,100.93,96.0666,0.00628922,0.228896,20.6291,896.872,0.477683,0.0,0.0
247,61.5,36.4223,41.8881,129.552,100.942,92.8365,0.00682883,0.26563,20.5337,896.742,0.809614,0.0,0.0
260,64.75,38.6753,45.7721,122.711,100.931,89.742,0.00770044,0.311264,20.436,896.582,1.13642,0.0,0.0
273,68,41.6302,49.7735,118.897,100.905,88.796,0.00868492,0.361268,20.3255,896.332,1.23642,0.0,0.0
286,71.25,44.4447,53.6931,115.437,100.847,88.5845,0.0096384,0.416644,20.2328,896.102,1.25392,0.0,0.0
299,74.5,48.241,59.0539,118.433,100.788,84.8104,0.0109281,0.474498,20.1078,895.832,1.66939,0.0,0.0
312,77.75,52.0234,64.0035,111.957,100.691,81.4516,0.0120376,0.545283,19.9872,895.521,2.05095,0.0,0.0
325,81,55.6016,70.0465,99.4438,100.609,79.8434,0.0133021,0.625367,19.8138,895.151,2.23591,0.0,0.0
338,84.25,60.85,77.3125,108.588,100.5,78.3822,0.0149881,0.729124,19.602,894.741,2.40412,0.0,0.0
351,87.5,66.9686,86.2164,97.9844,100.404,76.2666,0.0170343,0.838096,19.3715,894.26,2.65955,0.0,0.0
364,90.75,73.3084,95.8016,91.9247,100.301,73.5533,0.0194775,0.963632,19.1364,893.75,2.99997,0.0,0.0
377,94,79.9877,106.598,90.357,100.22,73.2091,0.0231079,1.12191,18.826,893.139,3.03752,0.0,0.0
390,97.25,88.4687,119.368,84.6545,100.127,71.2323,0.0267044,1.31176,18.4426,892.409,3.29334,0.0,0.0
403,100.5,97.0466,132.805,93.6291,100.026,70.2096,0.0317351,1.51983,18.1361,891.638,3.42344,0.0,0.0
416,103.75,107.006,148.122,72.9367,99.9241,67.5828,0.0378303,1.76187,17.6643,890.857,3.78235,0.0,0.0
429,107,117.576,165.899,76.8638,99.8546,65.2556,0.0446037,2.08154,17.0661,889.876,4.11455,0.0,0.0
442,110.25,129.349,186.981,84.4332,99.7986,71.0122,0.0523811,2.48686,16.2372,888.885,3.29144,0.0,0.0
455,113.5,142.595,209.136,78.3613,99.7475,74.3414,0.0609081,3.01895,15.4145,887.825,2.84335,0.0,0.0
468,116.75,156.967,235.898,50.7422,99.7223,70.404,0.0687607,3.65071,14.3437,886.293,3.36723,0.0,0.0
481,120,170.951,261.387,59.4779,99.6987,76.3153,0.0734633,4.29713,13.379,885.022,2.58515,0.0,0.0
494,123.25,185.351,286.743,61.8662,99.6748,75.1396,0.0759614,4.90173,12.6222,883.391,2.733,0.0,0.0
507,126.5,197.719,308.734,76.2158,99.6719,69.8158,0.0766532,5.35545,12.1806,882.03,3.44351,0.0,0.0
520,129.75,205.695,321.447,68.6746,99.6796,69.9773,0.0775209,5.55446,12.1892,880.738,3.4219,0.0,0.0
533,133,210.554,325.984,72.5719,99.7012,64.4984,0.0794025,5.47217,12.5329,879.517,4.21255,0.0,0.0
546,136.25,215.159,331.607,72.2162,99.7056,64.6535,0.0797522,5.34296,12.8198,878.206,4.18976,0.0,0.0
559,139.5,217.98,332.162,61.9402,99.7519,67.9356,0.0772338,5.12829,13.2679,877.125,3.71531,0.0,0.0
572,142.75,219.938,331.805,54.6922,99.797,67.8077,0.0723399,4.87005,13.7432,876.044,3.7379,0.0,0.0
585,146,220.446,329.94,66.7779,99.8636,67.7748,0.0683613,4.6131,14.0717,874.993,3.74905,0.0,0.0
598,149.25,221.515,329.305,67.0313,99.9306,66.5016,0.0664406,4.43577,14.2771,873.932,3.93896,0.0,0.0
611,152.5,223.761,331.09,85.7414,100.028,67.3193,0.0667063,4.34153,14.3651,872.922,3.83015,0.0,0.0
624,155.75,224.087,328.119,65.575,100.107,63.9203,0.0647177,4.23528,14.5399,871.781,4.33891,0.0,0.0
637,159,224.475,325.753,62.457,100.188,65.1151,0.061545,4.10977,14.7472,870.87,4.16763,0.0,0.0
650,162.25,223.275,321.752,68.4372,100.275,66.2154,0.0588389,3.9625,15.0244,869.849,4.01399,0.0,0.0
663,165.5,220.915,313.598,83.586,100.381,67.5657,0.0527077,3.67233,15.7234,869.178,3.8289,0.0,0.0
676,168.75,213.431,298.555,90.8981,100.477,72.3829,0.0432134,3.19664,16.5274,868.668,3.17203,0.0,0.0
689,172,200.527,274.963,109.644,100.582,84.5993,0.0309735,2.54313,18.076,868.468,1.67372,0.0,0.0
702,175.25,184.384,248.78,120.012,100.687,98.7072,0.0217502,1.83664,19.2834,868.488,0.192078,0.0,0.0
715,178.5,169.662,224.582,122.587,100.775,99.9239,0.0148082,1.28224,20.0491,868.478,0.0820379,0.0,0.0
728,181.75,156.665,202.78,120.422,100.834,99.1769,0.0109494,0.904573,20.4559,868.488,0.160305,0.0,0.0
741,185,145.817,185.459,121.905,100.917,99.5102,0.00886498,0.661335,20.6532,868.498,0.135757,0.0,0.0
754,188.25,137.485,170.476,120.858,101.005,99.7323,0.00777892,0.508118,20.7465,868.448,0.122597,0.0,0.0
767,191.5,129.613,157.898,122.855,101.051,99.1696,0.00726019,0.407675,20.7988,868.448,0.181793,0.0,0.0
780,194.75,121.243,145.593,121.369,101.115,99.3089,0.00673715,0.337158,20.8299,868.458,0.174321,0.0,0.0
793,198,117.075,137.446,123.433,101.188,99.3852,0.00624911,0.286927,20.8509,868.448,0.173878,0.0,0.0
806,201.25,111.978,129.644,123.99,101.255,99.2837,0.00600678,0.248768,20.8649,868.438,0.190162,0.0,0.0
819,204.5,107.557,121.556,123.765,101.312,99.1668,0.0057279,0.222469,20.8738,868.448,0.207027,0.0,0.0
832,207.75,103.673,115.469,122.118,101.365,99.4575,0.00545441,0.200871,20.8808,868.438,0.183754,0.0,0.0
845,211,100.279,110.648,121.481,101.443,99.0551,0.00531021,0.185167,20.8868,868.438,0.230397,0.0,0.0
858,214.25,96.8746,105.071,124.494,101.463,99.0539,0.0050205,0.172072,20.8916,868.428,0.232411,0.0,0.0
871,217.5,94.476,100.632,126.613,101.499,98.7051,0.0050926,0.16224,20.8889,868.418,0.270009,0.0,0.0
884,220.75,92.0863,97.3331,126.817,101.547,98.6264,0.00509533,0.154336,20.8892,868.458,0.282255,0.0,0.0
897,224,89.3187,93.7468,124.238,101.557,98.7165,0.00508179,0.147493,20.8919,868.448,0.274388,0.0,0.0
910,227.25,87.5901,91.0246,123.334,101.546,98.3641,0.00500736,0.141949,20.8935,868.468,0.307894,0.0,0.0
923,230.5,86.5248,88.2636,121.526,101.532,98.0552,0.00493493,0.137835,20.8939,868.448,0.337045,0.0,0.0
936,233.75,83.7087,85.1085,125.905,101.478,98.4222,0.00484281,0.134914,20.8928,868.468,0.295765,0.0,0.0
949,237,82.9109,83.181,125.97,101.398,98.6857,0.00459402,0.13228,20.892,868.398,0.262202,0.0,0.0
962,240.25,81.631,81.5606,125.033,101.323,98.0848,0.00467691,0.130439,20.8884,868.408,0.314183,0.0,0.0
975,243.5,80.1571,80.2055,125.69,101.231,98.0032,0.00495391,0.128359,20.8881,868.408,0.313431,0.0,0.0
988,246.75,78.8031,77.612,124.834,101.119,97.6483,0.00486883,0.126494,20.889,868.398,0.337762,0.0,0.0
1001,250,77.9232,77.1473,126.9,101.003,97.5793,0.00475392,0.124183,20.8906,868.408,0.333566,0.0,0.0
1014,253.25,76.5699,74.5608,125.005,100.922,97.2123,0.00463181,0.122278,20.8921,868.408,0.362234,0.0,0.0
1027,256.5,75.8397,73.9554,127.49,100.829,97.8026,0.00455021,0.120559,20.8939,868.408,0.294724,0.0,0.0
1040,259.75,74.6843,72.5917,128.707,100.74,97.1457,0.00446656,0.118884,20.8944,868.378,0.351373,0.0,0.0
1053,263,73.9544,71.6331,128.125,100.844,97.3122,0.00447126,0.117524,20.8971,868.378,0.344828,0.0,0.0
1066,266.25,73.0271,70.3773,129.302,101.031,97.518,0.00471446,0.116079,20.9003,868.378,0.342326,0.0,0.0
1079,269.5,72.0672,69.3835,128.892,101.128,97.6853,0.00480699,0.114835,20.9014,868.368,0.334997,0.0,0.0
1092,272.75,71.2717,68.3826,128.026,101.226,98.179,0.0046924,0.113755,20.9017,868.368,0.295632,0.0,0.0
1105,276,70.0452,67.628,125.429,101.25,97.8944,0.00454428,0.112874,20.9018,868.358,0.325998,0.0,0.0
1118,279.25,69.9339,66.8536,130.566,101.237,97.6349,0.00468926,0.112219,20.9021,868.348,0.350385,0.0,0.0
1131,282.5,69.2105,65.9054,130.738,101.164,97.5038,0.00475151,0.111541,20.9036,868.378,0.356439,0.0,0.0
1144,285.75,67.8893,65.5741,128.088,101.079,98.3077,0.00444483,0.111037,20.9023,868.348,0.268869,0.0,0.0
1157,289,67.8534,64.8044,130.233,100.928,97.5274,0.00429077,0.110627,20.9006,868.368,0.331483,0.0,0.0
1170,292.25,67.0513,63.6084,129.272,100.713,98.2651,,0.110408,,868.338,0.237994,0.0,0.0
1183,295.5,65.6012,62.5747,129.273,100.467,97.6309,,,,868.338,0.276997,0.0,0.0
1196,298.75,65.4533,62.5819,132.126,100.358,96.7876,,,,868.358,0.350339,0.0,0.0
1204,300.75,65.6727,62.3505,127.828,100.381,98.2387,,,,868.388,0.208682,0.0,0.0