Folder: fsri_materials_database/01_Data/LDPE/MCC (part 2)

File: LDPE_MCC_30K_min_210922_R3.txt
Sample ID:	C:\MCC\MCC Cal\Test\LDPE_MCC_30K_min_210922_R3.txt
Sample Weight (mg):	4.31
Heating Rate (C/s):	0.5
Combustor Temp (C):	900
N2 Flow Rate (cc/min):	80
O2 Flow Rate (cc/min):	20
Calibration File:	C:\MCC\MCC Cal\Coeff1 JN10440_30_210304.txt.txt
T Correction Coefficients:	0	1.024463	0
Time Shift (s):	14
*
Time (s)	Temperature (C)	N2 flow rate (cc/min)	O2 flow rate (cc/min)	Flow Rate (cc/min)	Oxygen (%)	HRR (W/g)	Heating rate (C/s)
0.000	109.731	80.005	19.997	100.400	20.056	-0.267	0.005
8.000	109.681	80.006	19.996	100.412	20.050	0.174	0.016
16.000	109.813	80.005	19.996	100.490	20.040	0.915	0.034
24.000	110.272	80.004	19.996	100.533	20.029	1.722	0.087
32.000	111.205	80.006	19.996	100.568	20.025	1.997	0.127
40.000	112.529	80.007	19.994	100.573	20.019	2.423	0.198
48.000	114.236	80.007	19.994	100.583	20.018	2.523	0.232
56.001	116.209	80.004	19.995	100.599	20.012	2.960	0.244
64.000	118.466	80.007	19.995	100.609	20.009	3.173	0.270
72.001	121.067	80.007	19.995	100.609	20.013	2.883	0.347
80.000	123.896	80.004	19.996	100.592	20.013	2.832	0.360
88.000	126.868	80.002	19.996	100.612	20.011	3.035	0.363
96.000	130.030	80.006	19.997	100.612	20.013	2.877	0.403
104.000	133.272	80.006	19.995	100.604	20.010	3.063	0.423
112.000	136.742	80.004	19.996	100.608	20.012	2.942	0.439
120.001	140.277	80.006	19.996	100.606	20.011	3.019	0.493
128.000	143.916	80.007	19.995	100.597	20.012	2.924	0.483
136.000	147.663	80.004	19.995	100.599	20.013	2.878	0.482
144.000	151.469	80.005	19.995	100.576	20.013	2.858	0.486
152.000	155.239	80.005	19.996	100.575	20.014	2.765	0.450
160.000	159.160	80.006	19.995	100.578	20.015	2.682	0.464
168.000	163.089	80.006	19.996	100.572	20.018	2.491	0.493
176.000	167.058	80.007	19.995	100.544	20.018	2.526	0.482
184.000	171.024	80.007	19.997	100.563	20.021	2.306	0.468
192.000	175.071	80.006	19.996	100.551	20.024	2.063	0.510
200.000	179.022	80.004	19.996	100.544	20.020	2.369	0.495
208.000	183.037	80.006	19.996	100.547	20.024	2.061	0.471
216.000	187.100	80.005	19.996	100.535	20.026	1.921	0.505
224.000	191.094	80.004	19.995	100.534	20.023	2.106	0.518
232.001	195.099	80.005	19.995	100.527	20.023	2.139	0.492
240.000	198.981	80.004	19.995	100.516	20.028	1.750	0.468
248.000	202.965	80.006	19.996	100.530	20.029	1.713	0.494
256.000	206.961	80.007	19.995	100.504	20.029	1.711	0.497
264.000	210.917	80.007	19.995	100.499	20.029	1.710	0.479
272.000	214.867	80.007	19.995	100.499	20.027	1.821	0.493
280.000	218.845	80.006	19.996	100.501	20.026	1.876	0.511
288.000	222.757	80.008	19.994	100.495	20.031	1.540	0.482
296.000	226.746	80.006	19.997	100.488	20.031	1.525	0.496
304.000	230.746	80.005	19.996	100.489	20.033	1.428	0.502
312.000	234.687	80.007	19.996	100.487	20.034	1.307	0.490
320.000	238.644	80.006	19.996	100.484	20.030	1.625	0.494
328.000	242.627	80.005	19.995	100.482	20.029	1.689	0.483
336.000	246.612	80.005	19.995	100.475	20.031	1.568	0.507
344.000	250.610	80.007	19.994	100.466	20.034	1.356	0.478
352.000	254.590	80.007	19.994	100.464	20.033	1.435	0.495
360.000	258.602	80.007	19.995	100.463	20.032	1.495	0.499
368.000	262.567	80.007	19.996	100.465	20.036	1.181	0.482
376.001	266.603	80.006	19.995	100.452	20.036	1.155	0.530
384.000	270.603	80.005	19.996	100.461	20.041	0.853	0.518
392.000	274.542	80.005	19.995	100.449	20.042	0.780	0.499
400.000	278.582	80.005	19.995	100.449	20.039	0.946	0.501
408.000	282.477	80.004	19.996	100.438	20.039	0.963	0.505
416.000	286.310	80.005	19.996	100.446	20.039	0.936	0.509
424.000	290.230	80.005	19.996	100.448	20.037	1.108	0.468
432.000	294.236	80.005	19.995	100.453	20.033	1.378	0.500
440.000	298.273	80.007	19.996	100.451	20.037	1.094	0.486
448.000	302.365	80.008	19.995	100.428	20.034	1.344	0.512
456.000	306.515	80.010	19.995	100.432	20.037	1.125	0.536
464.000	310.550	80.005	19.996	100.429	20.035	1.251	0.506
472.000	314.700	80.004	19.996	100.434	20.040	0.880	0.494
480.000	318.774	80.005	19.995	100.423	20.039	0.932	0.523
488.000	322.741	80.005	19.996	100.417	20.042	0.781	0.479
496.000	326.771	80.004	19.997	100.411	20.037	1.111	0.492
504.000	330.771	80.005	19.997	100.418	20.039	0.939	0.464
512.000	334.768	80.007	19.994	100.412	20.039	0.955	0.492
520.000	338.743	80.005	19.996	100.411	20.035	1.279	0.519
528.000	342.668	80.006	19.996	100.415	20.030	1.612	0.503
536.001	346.665	80.009	19.995	100.416	20.036	1.208	0.505
544.000	350.680	80.005	19.995	100.416	20.032	1.474	0.509
552.000	354.769	80.005	19.996	100.414	20.034	1.356	0.532
560.000	358.750	80.006	19.996	100.408	20.034	1.360	0.513
568.000	362.765	80.006	19.995	100.406	20.029	1.677	0.505
576.000	366.720	80.005	19.996	100.409	20.025	2.013	0.489
584.000	370.722	80.004	19.996	100.410	20.026	1.882	0.468
592.001	374.746	80.007	19.997	100.396	20.012	2.896	0.507
600.000	378.775	80.006	19.996	100.381	20.007	3.301	0.503
608.000	382.682	80.006	19.995	100.392	20.000	3.768	0.479
616.001	386.716	80.008	19.996	100.386	19.990	4.535	0.519
624.000	390.681	80.008	19.995	100.372	19.976	5.536	0.519
632.000	394.693	80.006	19.995	100.375	19.963	6.519	0.487
640.000	398.714	80.005	19.995	100.379	19.943	7.914	0.482
648.000	402.739	80.007	19.995	100.371	19.915	10.008	0.499
656.000	406.713	80.004	19.996	100.374	19.886	12.058	0.506
664.000	410.703	80.005	19.996	100.348	19.855	14.339	0.515
672.000	414.666	80.006	19.996	100.354	19.815	17.225	0.485
680.000	418.690	80.004	19.997	100.372	19.759	21.324	0.529
688.000	422.703	80.006	19.999	100.341	19.687	26.517	0.498
696.000	426.766	80.007	19.996	100.333	19.606	32.373	0.506
704.000	430.905	80.008	19.996	100.328	19.476	41.848	0.545
712.000	434.932	80.006	19.997	100.323	19.325	52.779	0.526
720.000	438.924	80.005	19.996	100.317	19.106	68.654	0.507
728.000	442.915	80.007	19.996	100.259	18.843	87.744	0.509
736.000	446.816	80.007	19.995	100.273	18.502	112.412	0.478
744.000	450.771	80.004	19.997	100.221	18.090	142.273	0.503
752.000	454.795	80.006	19.995	100.187	17.592	178.221	0.514
760.000	458.860	80.009	19.996	100.116	16.979	222.615	0.502
768.000	463.003	80.007	19.996	100.081	16.230	276.441	0.517
776.000	467.178	80.006	19.997	99.969	15.344	340.070	0.543
784.000	471.337	80.008	19.997	99.821	14.399	408.204	0.558
792.001	475.469	80.003	19.995	99.680	13.482	473.050	0.505
800.000	479.509	80.006	19.995	99.515	12.737	525.864	0.492
808.000	483.572	80.006	19.996	99.366	12.378	551.296	0.513
816.000	487.602	80.007	19.996	99.253	12.701	528.477	0.486
824.000	491.559	80.006	19.994	99.303	13.826	447.556	0.509
832.001	495.566	80.005	19.996	99.462	15.643	318.233	0.501
840.000	499.651	80.008	19.996	99.573	17.604	177.353	0.522
848.000	503.763	80.003	19.998	99.972	19.032	74.024	0.485
856.001	507.819	80.007	19.996	100.176	19.743	22.411	0.498
864.000	511.829	80.007	19.996	100.247	19.973	5.738	0.492
872.000	515.843	80.005	19.995	100.291	20.029	1.723	0.488
880.000	519.892	80.005	19.997	100.306	20.040	0.882	0.489
888.000	523.920	80.005	19.995	100.333	20.042	0.763	0.508
896.000	528.047	80.008	19.993	100.339	20.047	0.392	0.530
904.000	532.080	80.009	19.994	100.334	20.038	1.006	0.494
912.000	536.436	80.006	19.994	100.326	20.045	0.531	0.548
920.000	540.477	80.007	19.996	100.343	20.053	-0.020	0.505
928.000	544.586	80.011	19.995	100.352	20.051	0.114	0.463
936.000	548.694	80.010	19.997	100.341	20.053	-0.063	0.507
944.000	552.805	80.001	19.996	100.337	20.055	-0.187	0.522
952.000	556.846	80.002	19.996	100.338	20.053	-0.087	0.535
960.001	560.856	80.001	19.997	100.334	20.054	-0.101	0.513
968.000	564.878	80.011	19.998	100.358	20.063	-0.807	0.524
976.000	568.875	80.004	19.997	100.347	20.054	-0.148	0.478
984.000	572.940	80.004	19.997	100.335	20.049	0.227	0.498
992.000	577.064	80.006	19.995	100.346	20.050	0.142	0.519
1000.000	581.057	80.010	19.995	100.362	20.055	-0.213	0.494
1008.000	585.136	80.006	19.996	100.350	20.052	0.047	0.517
1016.000	589.135	80.008	19.997	100.375	20.052	0.036	0.499
1024.000	593.252	80.008	19.996	100.344	20.052	0.051	0.530
1032.000	597.413	80.010	19.996	100.367	20.056	-0.237	0.549
1040.000	601.619	80.007	19.997	100.365	20.050	0.176	0.561
1048.000	605.704	80.006	19.996	100.372	20.051	0.069	0.509
1056.000	609.757	80.005	19.996	100.378	20.051	0.063	0.533
1064.000	613.809	80.007	19.998	100.377	20.049	0.241	0.496
1072.000	617.751	80.004	19.997	100.377	20.050	0.185	0.485
1080.000	621.680	80.007	19.996	100.393	20.047	0.393	0.481
1088.000	625.552	80.007	19.996	100.403	20.049	0.233	0.448
1096.000	629.582	80.008	19.996	100.412	20.048	0.332	0.496
1104.001	633.834	80.008	19.995	100.431	20.045	0.496	0.554
1112.000	638.390	80.009	19.995	100.436	20.044	0.590	0.568
1120.000	643.016	80.005	19.995	100.454	20.045	0.525	0.572
1128.000	647.666	80.006	19.996	100.453	20.045	0.559	0.605
1136.000	652.336	80.006	19.996	100.457	20.041	0.837	0.597
1144.001	656.841	80.006	19.995	100.475	20.037	1.096	0.555
1152.000	661.243	80.006	19.996	100.469	20.039	0.962	0.575
1160.000	665.592	80.007	19.997	100.492	20.040	0.873	0.540
1168.000	669.891	80.007	19.996	100.490	20.034	1.294	0.519
1176.000	674.193	80.009	19.995	100.495	20.031	1.527	0.571
1184.000	678.398	80.008	19.997	100.508	20.029	1.685	0.515
1192.001	682.494	80.009	19.995	100.512	20.033	1.413	0.498
1200.000	686.464	80.008	19.996	100.531	20.031	1.533	0.484
1208.000	690.405	80.007	19.995	100.536	20.027	1.855	0.512
1216.001	694.346	80.008	19.996	100.542	20.026	1.941	0.546
1224.000	698.228	80.006	19.997	100.535	20.025	2.016	0.481
1232.001	702.177	80.006	19.996	100.561	20.018	2.477	0.503
1240.000	706.097	80.006	19.996	100.564	20.015	2.682	0.501
1248.000	710.048	80.006	19.997	100.571	20.021	2.244	0.506
1256.000	714.042	80.005	19.996	100.576	20.017	2.534	0.508
1264.000	718.088	80.006	19.996	100.576	20.012	2.958	0.485
1272.000	722.137	80.008	19.995	100.611	20.013	2.847	0.525
1280.000	726.176	80.008	19.996	100.605	20.017	2.592	0.487
1288.000	730.268	80.007	19.996	100.606	20.015	2.707	0.517
1296.000	734.301	80.006	19.996	100.610	20.010	3.093	0.504
1304.000	738.338	80.007	19.995	100.611	20.010	3.103	0.522
1312.000	742.246	80.005	19.996	100.616	20.012	2.913	0.478
1315.000	743.773	80.005	19.997	100.613	20.010	3.043	0.491