Folder: fsri_materials_database/01_Data/LDPE/MCC

Note: 01_Data/README.md
# Materials and Products Database
## 01_Data

Raw data generated from each apparatus are included here in plain-text format. The data is organized first by material, next by the short name of test apparatus used, and where applicable additional filtering by test settings.

### material.json

Each material directory contains a json file of the same name as the material. This file links the data stored in the repository as well as data and graphs produced by the accompanying scripts (__02_Scripts__) to the respective landing page for the material on the front-end website.

File: LDPE_MCC_30K_min_210922_R1.txt
Sample ID:	C:\MCC\MCC Cal\Test\LDPE_MCC_30K_min_210922_R1.txt
Sample Weight (mg):	4.13
Heating Rate (C/s):	0.5
Combustor Temp (C):	900
N2 Flow Rate (cc/min):	80
O2 Flow Rate (cc/min):	20
Calibration File:	C:\MCC\MCC Cal\Coeff1 JN10440_30_210304.txt.txt
T Correction Coefficients:	0	1.024463	0
Time Shift (s):	14
*
Time (s)	Temperature (C)	N2 flow rate (cc/min)	O2 flow rate (cc/min)	Flow Rate (cc/min)	Oxygen (%)	HRR (W/g)	Heating rate (C/s)
0.000	106.790	80.007	19.997	100.182	20.065	-0.275	0.007
8.000	106.777	80.004	19.996	100.192	20.063	-0.117	-0.003
16.001	106.825	80.004	19.997	100.247	20.051	0.745	0.015
24.001	107.111	80.005	19.997	100.309	20.041	1.488	0.102
32.000	107.789	80.005	19.992	100.342	20.033	2.156	0.068
40.001	108.908	80.003	19.995	100.348	20.031	2.306	0.170
48.000	110.347	80.003	19.995	100.381	20.016	3.401	0.239
56.001	112.138	80.005	19.994	100.420	20.018	3.245	0.232
64.000	114.254	80.004	19.994	100.455	20.012	3.694	0.274
72.001	116.936	80.005	19.996	100.422	20.009	3.927	0.339
80.001	119.767	80.005	19.995	100.455	20.011	3.787	0.370
88.000	123.006	80.005	19.996	100.461	20.015	3.523	0.447
96.000	126.204	80.006	19.995	100.454	20.017	3.373	0.435
104.001	129.649	80.006	19.995	100.440	20.016	3.402	0.439
112.000	133.255	80.006	19.996	100.440	20.013	3.651	0.451
120.000	136.904	80.004	19.996	100.451	20.012	3.684	0.464
128.000	140.700	80.003	19.992	100.435	20.017	3.372	0.494
136.000	144.601	80.004	19.994	100.442	20.015	3.496	0.503
144.000	148.521	80.004	19.996	100.441	20.018	3.294	0.482
152.000	152.500	80.004	19.996	100.426	20.018	3.269	0.466
160.000	156.480	80.005	19.994	100.420	20.017	3.345	0.522
168.000	160.480	80.006	19.995	100.429	20.019	3.221	0.481
176.000	164.472	80.005	19.996	100.425	20.020	3.141	0.548
184.000	168.500	80.007	19.996	100.415	20.024	2.791	0.512
192.000	172.582	80.006	19.995	100.414	20.027	2.609	0.528
200.000	176.565	80.003	19.997	100.399	20.027	2.581	0.507
208.000	180.539	80.004	19.996	100.399	20.031	2.308	0.511
216.000	184.447	80.004	19.995	100.402	20.025	2.757	0.477
224.000	188.446	80.003	19.994	100.404	20.027	2.552	0.487
232.000	192.334	80.002	19.995	100.413	20.026	2.687	0.498
240.000	196.311	80.005	19.996	100.413	20.030	2.357	0.518
248.000	200.163	80.006	19.995	100.397	20.029	2.397	0.513
256.000	204.073	80.007	19.995	100.386	20.029	2.403	0.495
264.000	208.049	80.006	19.996	100.381	20.034	2.036	0.488
272.000	211.988	80.009	19.996	100.378	20.030	2.320	0.489
280.000	215.953	80.005	19.997	100.379	20.032	2.213	0.503
288.001	219.827	80.005	19.995	100.380	20.035	1.991	0.461
296.001	223.752	80.003	19.996	100.380	20.036	1.923	0.476
304.000	227.709	80.004	19.996	100.378	20.039	1.696	0.488
312.000	231.682	80.004	19.995	100.376	20.036	1.876	0.499
320.000	235.686	80.004	19.995	100.378	20.038	1.752	0.519
328.000	239.676	80.007	19.996	100.377	20.034	2.016	0.517
336.000	243.666	80.006	19.996	100.377	20.039	1.647	0.526
344.000	247.698	80.005	19.994	100.380	20.041	1.493	0.519
352.000	251.715	80.006	19.994	100.377	20.037	1.830	0.507
360.000	255.710	80.006	19.996	100.378	20.041	1.548	0.479
368.000	259.713	80.005	19.996	100.377	20.036	1.865	0.506
376.000	263.698	80.003	19.995	100.376	20.037	1.847	0.512
384.000	267.640	80.003	19.996	100.376	20.033	2.104	0.523
392.000	271.681	80.004	19.997	100.356	20.038	1.760	0.478
400.000	275.636	80.003	19.996	100.356	20.036	1.926	0.499
408.000	279.641	80.004	19.996	100.345	20.038	1.727	0.489
416.000	283.618	80.005	19.995	100.352	20.040	1.562	0.538
424.000	287.624	80.004	19.995	100.358	20.038	1.727	0.535
432.000	291.690	80.005	19.994	100.346	20.039	1.704	0.521
440.000	295.688	80.009	19.994	100.344	20.041	1.525	0.532
448.000	299.719	80.004	19.996	100.339	20.042	1.439	0.524
456.000	303.751	80.003	19.996	100.339	20.039	1.669	0.493
464.000	307.785	80.003	19.996	100.353	20.044	1.327	0.541
472.000	311.751	80.005	19.995	100.338	20.044	1.280	0.503
480.000	315.762	80.002	19.997	100.341	20.041	1.496	0.493
488.000	319.760	80.004	19.996	100.351	20.043	1.352	0.503
496.000	323.832	80.006	19.995	100.352	20.042	1.451	0.475
504.000	327.968	80.005	19.995	100.340	20.040	1.620	0.525
512.000	332.035	80.004	19.995	100.339	20.038	1.772	0.524
520.000	336.155	80.006	19.995	100.335	20.041	1.541	0.497
528.000	340.255	80.003	19.994	100.337	20.041	1.513	0.502
536.000	344.307	80.003	19.995	100.335	20.040	1.616	0.508
544.000	348.360	80.004	19.996	100.341	20.038	1.733	0.523
552.000	352.346	80.007	19.995	100.341	20.033	2.093	0.493
560.000	356.398	80.005	19.996	100.327	20.035	1.971	0.510
568.000	360.351	80.002	19.996	100.341	20.035	1.994	0.520
576.000	364.381	80.005	19.997	100.334	20.032	2.198	0.486
584.000	368.410	80.007	19.996	100.333	20.022	2.930	0.505
592.000	372.476	80.006	19.996	100.311	20.023	2.843	0.531
600.000	376.542	80.008	19.996	100.331	20.009	3.980	0.506
608.000	380.633	80.005	19.995	100.344	20.002	4.441	0.473
616.000	384.769	80.004	19.996	100.336	19.995	4.995	0.562
624.000	388.858	80.005	19.996	100.337	19.984	5.855	0.498
632.000	393.069	80.007	19.995	100.306	19.966	7.184	0.542
640.000	397.152	80.004	19.996	100.305	19.951	8.354	0.509
648.000	401.209	80.005	19.996	100.307	19.928	10.072	0.504
656.000	405.212	80.006	19.995	100.297	19.897	12.398	0.442
664.000	409.218	80.005	19.995	100.298	19.863	14.997	0.465
672.000	413.274	80.005	19.997	100.287	19.818	18.407	0.504
680.000	417.327	80.007	19.996	100.303	19.770	22.063	0.505
688.000	421.398	80.006	19.995	100.301	19.707	26.798	0.514
696.000	425.451	80.006	19.996	100.282	19.629	32.723	0.511
704.000	429.505	80.005	19.995	100.270	19.529	40.272	0.520
712.000	433.582	80.005	19.995	100.270	19.392	50.637	0.531
720.000	437.656	80.005	19.995	100.254	19.217	63.942	0.510
728.000	441.682	80.005	19.995	100.242	18.983	81.593	0.505
736.000	445.652	80.004	19.996	100.248	18.641	107.457	0.481
744.000	449.636	80.006	19.996	100.175	18.271	135.447	0.501
752.000	453.653	80.004	19.996	100.145	17.817	169.586	0.526
760.000	457.710	80.006	19.996	100.105	17.262	211.409	0.528
768.000	461.778	80.007	19.997	100.026	16.603	260.991	0.509
776.000	465.742	80.004	19.997	99.947	15.817	319.959	0.526
784.000	469.738	80.006	19.996	99.836	14.953	384.571	0.506
792.000	473.718	80.006	19.995	99.713	14.109	447.909	0.522
800.000	477.747	80.005	19.996	99.582	13.345	504.123	0.519
808.000	481.841	80.004	19.996	99.422	12.840	541.448	0.520
816.000	485.892	80.004	19.994	99.287	12.859	539.733	0.469
824.000	490.061	80.007	19.995	99.284	13.634	482.642	0.549
832.000	494.205	80.006	19.996	99.387	15.195	366.093	0.540
840.000	498.366	80.006	19.996	99.437	17.148	220.023	0.548
848.000	502.487	80.009	19.994	99.821	18.731	100.582	0.514
856.000	506.579	80.007	19.996	100.095	19.601	34.813	0.510
864.000	510.666	80.005	19.997	100.200	19.936	9.444	0.531
872.000	514.742	80.005	19.994	100.230	20.007	4.065	0.520
880.000	518.897	80.004	19.995	100.275	20.032	2.218	0.488
888.000	522.995	80.004	19.996	100.292	20.038	1.779	0.529
896.000	527.013	80.004	19.996	100.298	20.040	1.584	0.489
904.000	531.133	80.008	19.995	100.304	20.042	1.422	0.511
912.000	535.295	80.007	19.996	100.300	20.041	1.496	0.516
920.000	539.386	80.007	19.995	100.299	20.043	1.366	0.537
928.000	543.476	80.006	19.995	100.299	20.040	1.578	0.534
936.000	547.616	80.005	19.995	100.306	20.047	1.055	0.543
944.000	551.798	80.004	19.993	100.330	20.045	1.247	0.511
952.000	556.116	80.002	19.996	100.305	20.045	1.197	0.555
960.000	560.314	80.004	19.997	100.299	20.043	1.331	0.504
968.000	564.488	80.004	19.995	100.298	20.044	1.278	0.538
976.000	568.516	80.005	19.996	100.298	20.044	1.265	0.512
984.000	572.622	80.006	19.998	100.335	20.048	0.955	0.512
992.000	576.668	80.006	19.995	100.315	20.044	1.269	0.502
1000.000	580.752	80.004	19.995	100.302	20.044	1.309	0.531
1008.000	584.758	80.008	19.994	100.308	20.047	1.051	0.494
1016.000	588.800	80.008	19.995	100.302	20.045	1.220	0.498
1024.000	592.863	80.006	19.996	100.315	20.043	1.350	0.514
1032.000	596.887	80.005	19.996	100.304	20.047	1.035	0.509
1040.000	600.895	80.006	19.997	100.307	20.048	0.965	0.552
1048.001	604.866	80.004	19.996	100.316	20.049	0.926	0.500
1056.000	608.859	80.005	19.997	100.321	20.046	1.136	0.524
1064.000	612.888	80.006	19.996	100.328	20.044	1.253	0.503
1072.000	616.990	80.006	19.995	100.334	20.046	1.126	0.500
1080.000	621.081	80.006	19.995	100.343	20.045	1.241	0.486
1088.000	625.114	80.006	19.995	100.342	20.043	1.387	0.511
1096.000	629.156	80.009	19.995	100.337	20.041	1.554	0.514
1104.001	633.106	80.006	19.996	100.333	20.043	1.395	0.499
1112.001	637.041	80.006	19.995	100.338	20.040	1.560	0.496
1120.000	641.013	80.004	19.996	100.346	20.041	1.538	0.505
1128.000	644.923	80.007	19.996	100.342	20.041	1.550	0.504
1136.000	648.857	80.004	19.996	100.371	20.039	1.657	0.473
1144.000	652.864	80.004	19.997	100.357	20.039	1.657	0.458
1152.001	656.868	80.007	19.995	100.378	20.042	1.443	0.516
1160.000	660.969	80.006	19.996	100.364	20.040	1.631	0.499
1168.001	665.038	80.005	19.995	100.371	20.035	1.958	0.517
1176.000	669.201	80.007	19.995	100.376	20.036	1.906	0.499
1184.001	673.310	80.005	19.997	100.378	20.037	1.789	0.521
1192.000	677.431	80.005	19.995	100.380	20.032	2.199	0.489
1200.000	681.545	80.005	19.995	100.387	20.035	1.968	0.525
1208.001	685.673	80.004	19.996	100.384	20.031	2.284	0.556
1216.001	689.746	80.003	19.996	100.390	20.037	1.787	0.509
1224.000	693.786	80.005	19.996	100.396	20.034	2.033	0.515
1232.000	697.892	80.007	19.997	100.412	20.036	1.913	0.507
1240.001	701.914	80.005	19.998	100.408	20.031	2.261	0.508
1248.000	705.962	80.008	19.996	100.408	20.034	2.062	0.484
1256.000	710.040	80.009	19.995	100.414	20.031	2.303	0.489
1264.000	714.088	80.007	19.996	100.417	20.032	2.185	0.501
1272.000	718.092	80.005	19.996	100.410	20.030	2.383	0.469
1280.000	722.155	80.005	19.996	100.419	20.031	2.251	0.528
1288.000	726.127	80.006	19.994	100.417	20.025	2.756	0.489
1296.000	730.075	80.006	19.997	100.417	20.019	3.160	0.512
1304.000	733.942	80.004	19.997	100.423	20.021	3.009	0.506
1312.001	737.860	80.007	19.996	100.417	20.020	3.137	0.477
1320.001	741.756	80.005	19.995	100.429	20.018	3.236	0.499
1323.501	743.557	80.006	19.995	100.426	20.019	3.191	0.526

File: LDPE_MCC_30K_min_210922_R2.txt
Sample ID:	C:\MCC\MCC Cal\Test\LDPE_MCC_30K_min_210922_R2.txt
Sample Weight (mg):	4.45
Heating Rate (C/s):	0.5
Combustor Temp (C):	900
N2 Flow Rate (cc/min):	80
O2 Flow Rate (cc/min):	20
Calibration File:	C:\MCC\MCC Cal\Coeff1 JN10440_30_210304.txt.txt
T Correction Coefficients:	0	1.024463	0
Time Shift (s):	14
*
Time (s)	Temperature (C)	N2 flow rate (cc/min)	O2 flow rate (cc/min)	Flow Rate (cc/min)	Oxygen (%)	HRR (W/g)	Heating rate (C/s)
0.000	108.703	80.005	19.996	100.367	20.048	0.233	0.013
8.000	108.650	80.008	19.996	100.378	20.050	0.088	-0.037
16.000	108.687	80.005	19.996	100.422	20.043	0.620	-0.003
24.000	109.034	80.008	19.997	100.505	20.028	1.655	0.055
32.000	109.743	80.007	19.997	100.524	20.026	1.801	0.099
40.000	110.823	80.004	19.996	100.538	20.021	2.188	0.168
48.000	112.276	80.003	19.997	100.547	20.019	2.326	0.195
56.000	114.071	80.005	19.997	100.574	20.014	2.645	0.234
64.001	116.092	80.004	19.997	100.579	20.009	3.037	0.272
72.000	118.500	80.005	19.997	100.586	20.010	2.919	0.336
80.000	121.088	80.002	19.996	100.608	20.008	3.097	0.345
88.000	124.043	80.006	19.995	100.607	20.006	3.188	0.364
96.001	127.179	80.005	19.997	100.606	20.004	3.370	0.391
104.000	130.493	80.008	19.995	100.589	20.008	3.087	0.423
112.000	133.873	80.004	19.995	100.581	20.008	3.104	0.428
120.000	137.414	80.003	19.995	100.589	20.007	3.163	0.447
128.000	141.066	80.003	19.996	100.580	20.009	3.023	0.437
136.000	144.811	80.004	19.996	100.582	20.007	3.165	0.490
144.000	148.640	80.005	19.996	100.572	20.008	3.069	0.485
152.000	152.487	80.004	19.996	100.567	20.011	2.894	0.487
160.000	156.317	80.003	19.997	100.571	20.010	2.925	0.486
168.000	160.260	80.005	19.995	100.575	20.014	2.688	0.523
176.000	164.148	80.006	19.995	100.543	20.011	2.831	0.495
184.000	168.067	80.004	19.995	100.576	20.015	2.608	0.477
192.000	172.090	80.007	19.995	100.535	20.012	2.804	0.503
200.000	176.054	80.007	19.994	100.558	20.013	2.751	0.518
208.000	180.022	80.005	19.997	100.530	20.012	2.807	0.493
216.000	184.080	80.003	19.997	100.522	20.015	2.606	0.503
224.000	188.071	80.004	19.995	100.539	20.018	2.340	0.482
232.000	192.119	80.003	19.996	100.516	20.017	2.459	0.469
240.000	196.171	80.003	19.997	100.525	20.016	2.526	0.505
248.000	200.206	80.003	19.997	100.531	20.022	2.081	0.523
256.000	204.120	80.005	19.996	100.490	20.020	2.216	0.484
264.000	208.103	80.005	19.995	100.504	20.023	2.045	0.472
272.000	212.097	80.006	19.995	100.497	20.021	2.127	0.533
280.000	215.972	80.005	19.995	100.512	20.024	1.940	0.506
288.000	219.914	80.005	19.996	100.494	20.026	1.827	0.490
296.000	223.814	80.005	19.995	100.493	20.027	1.706	0.479
304.000	227.813	80.006	19.995	100.482	20.026	1.823	0.489
312.000	231.778	80.003	19.995	100.480	20.023	1.992	0.483
320.000	235.727	80.004	19.995	100.507	20.026	1.810	0.479
328.000	239.642	80.005	19.996	100.495	20.030	1.555	0.476
336.000	243.669	80.005	19.995	100.452	20.027	1.702	0.512
344.000	247.615	80.005	19.996	100.478	20.028	1.683	0.498
352.000	251.692	80.006	19.996	100.485	20.029	1.587	0.556
360.000	255.733	80.007	19.995	100.467	20.029	1.624	0.523
368.000	259.750	80.004	19.995	100.480	20.031	1.465	0.522
376.000	263.761	80.004	19.995	100.460	20.032	1.385	0.531
384.000	267.766	80.005	19.996	100.461	20.031	1.482	0.515
392.000	271.760	80.005	19.995	100.454	20.032	1.381	0.493
400.000	275.740	80.005	19.995	100.455	20.037	1.044	0.476
408.000	279.714	80.005	19.997	100.458	20.035	1.155	0.481
416.000	283.645	80.006	19.996	100.452	20.038	0.956	0.471
424.000	287.634	80.006	19.997	100.457	20.035	1.143	0.489
432.000	291.642	80.006	19.997	100.461	20.040	0.839	0.491
440.000	295.678	80.007	19.996	100.442	20.032	1.356	0.486
448.000	299.749	80.006	19.997	100.458	20.036	1.134	0.515
456.000	303.672	80.004	19.998	100.443	20.032	1.400	0.503
464.000	307.679	80.004	19.996	100.452	20.036	1.103	0.491
472.000	311.689	80.005	19.996	100.447	20.037	1.025	0.496
480.000	315.831	80.006	19.996	100.423	20.035	1.197	0.506
488.000	319.861	80.005	19.995	100.436	20.036	1.113	0.478
496.000	323.891	80.005	19.995	100.433	20.035	1.204	0.495
504.000	327.911	80.004	19.997	100.420	20.037	1.044	0.507
512.000	331.973	80.004	19.996	100.428	20.034	1.225	0.506
520.000	336.041	80.007	19.995	100.420	20.037	1.044	0.515
528.000	340.053	80.005	19.995	100.415	20.036	1.099	0.485
536.000	344.052	80.003	19.996	100.411	20.034	1.206	0.508
544.000	348.100	80.004	19.996	100.425	20.037	1.038	0.500
552.000	352.167	80.006	19.995	100.416	20.035	1.172	0.539
560.000	356.162	80.005	19.995	100.418	20.033	1.346	0.451
568.000	360.248	80.005	19.996	100.410	20.026	1.808	0.499
576.000	364.267	80.005	19.995	100.421	20.023	2.015	0.502
584.000	368.297	80.007	19.993	100.411	20.016	2.521	0.511
592.000	372.358	80.006	19.995	100.410	20.015	2.565	0.520
600.000	376.401	80.007	19.997	100.414	20.008	3.053	0.510
608.000	380.432	80.008	19.996	100.412	20.001	3.551	0.507
616.000	384.496	80.005	19.995	100.386	19.994	4.025	0.506
624.000	388.574	80.004	19.994	100.399	19.982	4.869	0.501
632.000	392.638	80.005	19.997	100.383	19.968	5.916	0.507
640.000	396.743	80.004	19.995	100.414	19.948	7.322	0.522
648.000	400.806	80.003	19.993	100.379	19.913	9.765	0.479
656.000	404.832	80.006	19.994	100.378	19.880	12.101	0.490
664.000	408.840	80.006	19.997	100.385	19.852	14.032	0.512
672.000	412.792	80.005	19.995	100.369	19.816	16.548	0.475
680.000	416.767	80.007	19.997	100.374	19.768	19.966	0.492
688.000	420.729	80.007	19.995	100.355	19.702	24.590	0.527
696.000	424.734	80.006	19.996	100.342	19.618	30.483	0.507
704.000	428.727	80.005	19.996	100.354	19.512	37.971	0.495
712.000	432.754	80.004	19.995	100.342	19.377	47.455	0.537
720.000	436.836	80.005	19.997	100.338	19.174	61.724	0.539
728.000	440.833	80.004	19.996	100.317	18.933	78.617	0.487
736.000	444.906	80.004	19.994	100.300	18.617	100.824	0.540
744.000	448.899	80.007	19.995	100.255	18.246	126.851	0.525
752.000	452.894	80.005	19.996	100.226	17.774	159.886	0.493
760.000	456.887	80.006	19.997	100.165	17.192	200.550	0.493
768.000	460.863	80.007	19.996	100.070	16.495	249.286	0.482
776.000	464.854	80.006	19.994	99.998	15.677	306.254	0.492
784.000	468.790	80.005	19.996	99.874	14.773	368.970	0.454
792.000	472.835	80.007	19.997	99.767	13.876	431.047	0.486
800.000	476.896	80.005	19.996	99.708	13.009	490.798	0.511
808.000	480.964	80.004	19.997	99.450	12.394	532.909	0.507
816.000	485.044	80.004	19.996	99.339	12.217	545.235	0.513
824.000	489.221	80.005	19.996	99.238	12.849	501.969	0.514
832.000	493.363	80.006	19.995	99.253	14.296	401.982	0.532
840.000	497.633	80.006	19.996	99.561	16.344	259.572	0.549
848.000	501.888	80.008	19.995	99.697	18.237	127.446	0.560
856.000	506.032	80.007	19.995	100.102	19.395	46.167	0.518
864.000	510.104	80.006	19.996	100.249	19.876	12.374	0.530
872.000	514.169	80.005	19.995	100.268	20.001	3.546	0.512
880.000	518.299	80.006	19.996	100.318	20.028	1.635	0.506
888.000	522.378	80.005	19.996	100.340	20.040	0.795	0.499
896.000	526.418	80.005	19.996	100.353	20.044	0.510	0.466
904.000	530.450	80.004	19.996	100.347	20.040	0.816	0.488
912.000	534.459	80.005	19.997	100.363	20.042	0.650	0.480
920.000	538.509	80.007	19.996	100.368	20.047	0.292	0.490
928.000	542.518	80.006	19.996	100.356	20.046	0.394	0.514
936.000	546.529	80.008	19.996	100.358	20.047	0.332	0.526
944.000	550.549	80.004	19.996	100.350	20.045	0.470	0.519
952.000	554.593	80.005	19.996	100.367	20.047	0.332	0.521
960.000	558.661	80.005	19.995	100.378	20.053	-0.103	0.554
968.000	562.732	80.004	19.995	100.380	20.053	-0.120	0.543
976.000	566.818	80.004	19.996	100.375	20.052	-0.025	0.493
984.000	570.911	80.007	19.996	100.365	20.055	-0.231	0.465
992.000	574.997	80.007	19.996	100.375	20.057	-0.403	0.505
1000.000	579.024	80.007	19.997	100.374	20.053	-0.124	0.488
1008.000	582.979	80.006	19.996	100.360	20.055	-0.245	0.502
1016.000	586.950	80.009	19.995	100.376	20.054	-0.164	0.511
1024.000	590.987	80.006	19.996	100.415	20.052	-0.029	0.538
1032.000	595.052	80.005	19.995	100.384	20.052	-0.054	0.515
1040.000	599.195	80.006	19.995	100.384	20.051	0.065	0.513
1048.000	603.423	80.005	19.996	100.383	20.052	-0.004	0.515
1056.000	607.660	80.006	19.996	100.397	20.046	0.399	0.551
1064.000	611.757	80.005	19.996	100.417	20.046	0.378	0.506
1072.001	615.938	80.007	19.996	100.414	20.045	0.474	0.516
1080.001	620.077	80.006	19.995	100.424	20.041	0.769	0.527
1088.000	624.209	80.006	19.996	100.435	20.044	0.556	0.550
1096.001	628.348	80.008	19.996	100.439	20.044	0.505	0.536
1104.000	632.487	80.006	19.995	100.446	20.041	0.761	0.510
1112.000	636.628	80.006	19.996	100.448	20.036	1.088	0.509
1120.000	640.709	80.006	19.996	100.454	20.039	0.857	0.521
1128.000	644.739	80.007	19.995	100.458	20.036	1.081	0.508
1136.001	648.745	80.006	19.995	100.468	20.034	1.241	0.524
1144.001	652.775	80.004	19.995	100.463	20.037	1.046	0.496
1152.000	656.804	80.006	19.995	100.495	20.038	0.930	0.491
1160.001	660.799	80.006	19.996	100.499	20.027	1.737	0.490
1168.000	664.757	80.007	19.995	100.497	20.024	1.921	0.457
1176.000	668.625	80.008	19.996	100.519	20.028	1.661	0.468
1184.000	672.692	80.009	19.996	100.522	20.023	2.004	0.549
1192.000	676.782	80.005	19.998	100.532	20.027	1.738	0.501
1200.001	680.883	80.007	19.996	100.528	20.018	2.368	0.506
1208.000	685.006	80.006	19.996	100.553	20.021	2.142	0.526
1216.000	689.230	80.006	19.995	100.571	20.020	2.253	0.559
1224.001	693.421	80.005	19.995	100.564	20.016	2.518	0.516
1232.000	697.581	80.006	19.995	100.568	20.014	2.642	0.494
1240.000	701.627	80.008	19.996	100.569	20.017	2.458	0.575
1248.000	705.612	80.007	19.995	100.570	20.015	2.583	0.501
1256.000	709.578	80.007	19.996	100.570	20.014	2.682	0.487
1264.000	713.557	80.008	19.997	100.575	20.013	2.740	0.498
1272.001	717.604	80.005	19.995	100.585	20.013	2.754	0.530
1280.000	721.449	80.005	19.996	100.595	20.008	3.068	0.489
1288.000	725.453	80.006	19.997	100.611	20.010	2.946	0.523
1296.000	729.438	80.005	19.997	100.609	20.007	3.175	0.506
1304.000	733.375	80.005	19.994	100.612	20.006	3.187	0.460
1312.001	737.344	80.007	19.996	100.624	20.005	3.291	0.489
1320.000	741.296	80.007	19.996	100.619	20.007	3.114	0.474
1324.500	743.508	80.007	19.997	100.613	20.006	3.243	0.477