Folder: fsri_materials_database/01_Data/Polyolefin_Carpet_Low_Pile/STA/N2/10K_min (part 2)

File: Polyolefin_Carpet_Low_Pile_STA_N2_10KData_220703_R3.csv
##Temp./Â°C,Time/min,DSC(subtr.2)/(mW/mg),Mass loss(subtr.2)/mg,Sensit./(uV/mW)
49.706,10.00917,0.00780395,0.01448,1.07515
52.906,11.311,0.12531,0.02296709,1.07348
56.106,11.762,0.17611,0.02166427,1.07182
59.306,12.15063,0.20588,0.01895755,1.07015
62.506,12.51328,0.22424,0.0207381,1.06849
65.706,12.86599,0.23696,0.0219355,1.06683
68.906,13.21176,0.24398,0.02364033,1.06517
72.106,13.5523,0.2503,0.02597737,1.06351
75.306,13.8907,0.25901,0.01935468,1.06186
78.506,14.22517,0.26139,0.01856275,1.0602
81.706,14.55499,0.26767,0.02073533,1.05855
84.906,14.88331,0.27236,0.02213358,1.0569
88.106,15.2076,0.27813,0.02346254,1.05525
91.306,15.5287,0.28247,0.0221798,1.0536
94.506,15.84789,0.28354,0.02215939,1.05196
97.706,16.16263,0.28915,0.02083298,1.05031
100.906,16.47865,0.29266,0.02117035,1.04867
104.106,16.79605,0.29474,0.02380667,1.04703
107.306,17.10957,0.29682,0.02149893,1.04539
110.506,17.42359,0.29931,0.02507587,1.04375
113.706,17.73753,0.30222,0.0215304,1.04211
116.906,18.0503,0.30585,0.02281002,1.04048
120.106,18.36199,0.3075,0.02357653,1.03884
123.306,18.67396,0.30858,0.02489999,1.03721
126.506,18.98508,0.31422,0.02391078,1.03558
129.706,19.29552,0.31721,0.02461544,1.03395
132.906,19.60582,0.32421,0.02191243,1.03232
136.106,19.91553,0.33177,0.02202988,1.03069
139.306,20.22499,0.33797,0.02205,1.02907
142.506,20.53517,0.34598,0.02389518,1.02744
145.706,20.8444,0.36129,0.02294179,1.02582
148.906,21.1529,0.38695,0.02351326,1.0242
152.106,21.4607,0.4258,0.02009079,1.02258
155.306,21.76867,0.48609,0.0193094,1.02096
158.506,22.07793,0.57655,0.01902114,1.01934
161.706,22.3868,0.6803,0.02435519,1.01772
164.906,22.69578,0.75834,0.02041657,1.0161
168.106,23.00382,0.63141,0.0207369,1.01449
171.306,23.3107,0.44402,0.02004264,1.01287
174.506,23.61512,0.37904,0.02236485,1.01126
177.706,23.91921,0.36583,0.02040009,1.00964
180.906,24.22315,0.36525,0.01852767,1.00803
184.106,24.52825,0.36709,0.01998793,1.00641
187.306,24.83532,0.36563,0.02039951,1.0048
190.506,25.14086,0.36517,0.02061306,1.00319
193.706,25.44614,0.36904,0.01799051,1.00158
196.906,25.75145,0.36844,0.01679,0.99996
200.106,26.05695,0.37338,0.01546994,0.99835
203.306,26.3618,0.37329,0.01810028,0.99674
206.506,26.6662,0.37484,0.01680196,0.99513
209.706,26.971,0.37729,0.01547062,0.99351
212.906,27.27579,0.37779,0.01940991,0.9919
216.106,27.5804,0.37988,0.01346734,0.99029
219.306,27.8856,0.37969,0.01151647,0.98868
222.506,28.1906,0.38276,0.01424031,0.98706
225.706,28.49548,0.38222,0.01141016,0.98545
228.906,28.80054,0.38618,0.01140098,0.98383
232.106,29.10567,0.38829,0.01549576,0.98222
235.306,29.41214,0.38582,0.01278145,0.9806
238.506,29.71773,0.3893,0.01053286,0.97898
241.706,30.02357,0.38701,0.01284596,0.97737
244.906,30.33182,0.38695,0.01283,0.97575
248.106,30.6403,0.38554,0.01019973,0.97413
251.306,30.94828,0.38568,0.01021166,0.97251
254.506,31.255,0.38769,0.0102973,0.97088
257.706,31.5617,0.38799,0.00629888,0.96926
260.906,31.8679,0.39183,0.008922375,0.96763
264.106,32.17225,0.39297,0.008879955,0.966
267.306,32.47835,0.39456,0.005234433,0.96437
270.506,32.78286,0.3979,0.0038412,0.96274
273.706,33.09,0.39679,0.002531057,0.96111
276.906,33.3954,0.3981,0.005255774,0.95947
280.106,33.70296,0.3977,0.00383727,0.95784
283.306,34.0101,0.39458,-0.000112267,0.9562
286.506,34.3172,0.39428,-0.0001135749,0.95455
289.706,34.62337,0.39664,-0.00105529,0.95291
292.906,34.93011,0.39835,0.00022024,0.95126
296.106,35.2363,0.39931,-0.0001075205,0.94961
299.306,35.5424,0.40182,-0.003757126,0.94796
302.506,35.8487,0.40147,-0.00668979,0.9463
305.706,36.15505,0.40159,-0.008965454,0.94464
308.906,36.46069,0.40289,-0.00975664,0.94298
312.106,36.76723,0.39966,-0.004505412,0.94132
315.306,37.07405,0.40368,-0.01140027,0.93965
318.506,37.38205,0.39986,-0.01075654,0.93797
321.706,37.6898,0.39909,-0.009981553,0.9363
324.906,37.9971,0.40362,-0.01810028,0.93462
328.106,38.30563,0.40023,-0.01612312,0.93294
331.306,38.61484,0.40457,-0.01950444,0.93125
334.506,38.924,0.40437,-0.02439869,0.92956
337.706,39.23303,0.407,-0.02962763,0.92786
340.906,39.5422,0.40258,-0.0297016,0.92616
344.106,39.85172,0.39837,-0.03351634,0.92446
347.306,40.161,0.40325,-0.03699353,0.92275
350.506,40.46946,0.40438,-0.04091846,0.92104
353.706,40.78115,0.40363,-0.04429916,0.91932
356.906,41.0916,0.40448,-0.06086552,0.9176
360.106,41.40286,0.40773,-0.05978005,0.91587
363.306,41.7134,0.41381,-0.06853234,0.91414
366.506,42.0242,0.42497,-0.07706905,0.9124
369.706,42.33445,0.43257,-0.0857862,0.91066
372.906,42.64545,0.43988,-0.09939753,0.90891
376.106,42.95745,0.4532,-0.10855,0.90716
379.306,43.26912,0.46637,-0.12207,0.9054
382.506,43.58065,0.48015,-0.14237,0.90364
385.706,43.8923,0.49117,-0.15165,0.90187
388.906,44.2038,0.50256,-0.17485,0.90009
392.106,44.51517,0.51607,-0.19198,0.89831
395.306,44.82756,0.52884,-0.21771,0.89652
398.506,45.1413,0.54526,-0.23983,0.89473
401.706,45.45387,0.55802,-0.26453,0.89293
404.906,45.76639,0.56993,-0.29067,0.89112
408.106,46.07943,0.58805,-0.31943,0.88931
411.306,46.3926,0.60019,-0.35247,0.88749
414.506,46.70601,0.61644,-0.38229,0.88567
417.706,47.0187,0.63426,-0.42144,0.88384
420.906,47.33113,0.65335,-0.45823,0.882
424.106,47.64345,0.67576,-0.50218,0.88015
427.306,47.95627,0.69286,-0.54938,0.8783
430.506,48.26919,0.71978,-0.59581,0.87644
433.706,48.58317,0.74373,-0.65315,0.87457
436.906,48.89784,0.7692,-0.71748,0.8727
440.106,49.2117,0.79595,-0.77574,0.87082
443.306,49.52915,0.81874,-0.84599,0.86893
446.506,49.84495,0.84002,-0.9272,0.86703
449.706,50.15996,0.86237,-1.01164,0.86513
452.906,50.47464,0.87492,-1.1003,0.86322
456.106,50.7896,0.87879,-1.19975,0.8613
459.306,51.10338,0.87184,-1.30022,0.85937
462.506,51.41823,0.85226,-1.40665,0.85744
465.706,51.73299,0.80977,-1.50999,0.85549
468.906,52.0481,0.7392,-1.6072,0.85354
472.106,52.36358,0.65414,-1.70044,0.85159
475.306,52.6794,0.54693,-1.78147,0.84962
478.506,52.99462,0.39138,-1.83593,0.84764
481.706,53.31064,0.26267,-1.85857,0.84566
484.906,53.62693,0.20152,-1.87203,0.84367
488.106,53.94425,0.17919,-1.87343,0.84167
491.306,54.26119,0.18938,-1.87344,0.83966
494.506,54.57691,0.20464,-1.87344,0.83764
497.706,54.8951,0.18593,-1.87332,0.83562
500.906,55.2139,0.16396,-1.8889,0.83358
504.106,55.53213,0.14457,-1.87819,0.83154
507.306,55.8498,0.14759,-1.88265,0.82949
510.506,56.16704,0.14318,-1.88029,0.82743
513.706,56.48505,0.14467,-1.8821,0.82536
516.906,56.8024,0.14131,-1.88134,0.82328
520.106,57.12065,0.14001,-1.88431,0.82119
523.306,57.43875,0.14021,-1.87838,0.81909
526.506,57.7565,0.1467,-1.88907,0.81699
529.706,58.0747,0.14311,-1.8856,0.81487
532.906,58.3936,0.14956,-1.88847,0.81275
536.106,58.71184,0.15257,-1.88954,0.81061
539.306,59.03099,0.14891,-1.88693,0.80847
542.506,59.35001,0.1531,-1.88824,0.80632
545.706,59.6689,0.15269,-1.89351,0.80416
548.906,59.9883,0.15771,-1.89582,0.80199
552.106,60.30676,0.16123,-1.8909,0.79981
555.306,60.6247,0.16224,-1.89571,0.79762
558.506,60.9435,0.16767,-1.89426,0.79542
561.706,61.26234,0.17373,-1.89834,0.79321
564.906,61.58178,0.17439,-1.90247,0.791
568.106,61.9011,0.18015,-1.90152,0.78877
571.306,62.22116,0.18717,-1.907,0.78653
574.506,62.5413,0.18998,-1.90305,0.78429
577.706,62.8624,0.19397,-1.90881,0.78203
580.906,63.18546,0.19983,-1.91577,0.77977
584.106,63.50544,0.20978,-1.91485,0.77749
587.306,63.8271,0.21788,-1.91755,0.77521
590.506,64.1477,0.2352,-1.92148,0.77292
593.706,64.4662,0.24919,-1.92181,0.77061
596.906,64.78515,0.26351,-1.92626,0.7683
600.106,65.10568,0.29328,-1.9331,0.76598
603.306,65.42789,0.32953,-1.94042,0.76365
606.506,65.7501,0.37285,-1.94505,0.76131
609.706,66.07223,0.41872,-1.95461,0.75895
612.906,66.39438,0.46262,-1.96109,0.75659
616.106,66.71551,0.50197,-1.97124,0.75422
619.306,67.03679,0.52815,-1.98482,0.75185
622.506,67.35809,0.53861,-1.99341,0.74946
625.706,67.67971,0.53513,-2.00704,0.74706
628.906,68.0008,0.51448,-2.01858,0.74465
632.106,68.32226,0.48751,-2.0308,0.74223
635.306,68.6433,0.45226,-2.03975,0.73981
638.506,68.9635,0.41916,-2.04731,0.73737
641.706,69.28501,0.48108,-2.05558,0.73493
644.906,69.6071,0.59934,-2.06257,0.73247
648.106,69.93061,0.69254,-2.08299,0.73001
651.306,70.25265,0.78126,-2.09246,0.72754
654.506,70.57396,0.86191,-2.10589,0.72505
657.706,70.89554,0.94708,-2.12473,0.72256
660.906,71.21724,1.02286,-2.14592,0.72006
664.106,71.53907,1.09015,-2.16466,0.71755
667.306,71.86171,1.15116,-2.18631,0.71503
670.506,72.18382,1.1947,-2.20196,0.71251
673.706,72.5072,1.21436,-2.22408,0.70997
676.906,72.83032,1.21511,-2.24694,0.70743
680.106,73.15422,1.25397,-2.27121,0.70487
683.306,73.47822,1.34296,-2.29387,0.70231
686.506,73.80089,1.44337,-2.3167,0.69974
689.706,74.1237,1.53764,-2.34262,0.69716
692.906,74.44718,1.6263,-2.3759,0.69457
696.106,74.76955,1.71112,-2.40129,0.69197
699.306,75.0934,1.79421,-2.43637,0.68937
702.506,75.41803,1.8659,-2.46982,0.68675
705.706,75.7419,1.92226,-2.5147,0.68413
708.906,76.06545,1.96828,-2.54978,0.6815
712.106,76.3891,2.00453,-2.58805,0.67886
715.306,76.71191,1.99321,-2.62996,0.67621
718.506,77.03511,1.83781,-2.66313,0.67356
721.706,77.35706,0.92196,-2.69498,0.67089
724.906,77.67868,0.15143,-2.70079,0.66822
728.106,78.00219,0.10559,-2.69821,0.66554
731.306,78.32751,0.09161228,-2.69553,0.66286
734.506,78.65287,0.08503027,-2.69818,0.66016
737.706,78.9776,0.07987351,-2.7008,0.65746
740.906,79.3023,0.08351187,-2.70427,0.65475
744.106,79.62687,0.07968993,-2.70203,0.65204
747.306,79.9512,0.0816124,-2.70181,0.64931
750.506,80.27547,0.08309723,-2.69972,0.64658
753.706,80.59987,0.07964142,-2.70288,0.64384
756.906,80.92349,0.07792541,-2.70157,0.6411
760.106,81.249,0.0779132,-2.70091,0.63835
763.306,81.5749,0.07663169,-2.69862,0.63559
766.506,81.8998,0.07818212,-2.69762,0.63282
769.706,82.22476,0.07975326,-2.70023,0.63005
772.906,82.54848,0.08069047,-2.69631,0.62727
776.106,82.87235,0.07842861,-2.69513,0.62449
779.306,83.1972,0.08022529,-2.70612,0.6217
782.506,83.52221,0.07952023,-2.70378,0.6189
785.706,83.84727,0.08101802,-2.69805,0.6161
788.906,84.17129,0.07818245,-2.7009,0.61329
792.106,84.49615,0.07540451,-2.69795,0.61047
795.306,84.8206,0.07162956,-2.6973,0.60765
797.006,84.99299,0.07590452,-2.69565,0.60615