Folder: fsri_materials_database/01_Data/Polyolefin_Carpet_Low_Pile/STA/N2/30K_min (part 2)

File: Polyolefin_Carpet_Low_Pile_STA_N2_30KData_220703_R3.csv
##Temp./Â°C,Time/min,DSC(subtr.2)/mW,Mass loss(subtr.2)/mg,Sensit./(uV/mW)
48.796,10.00667,-0.02172055,-0.02249,1.08889
51.996,10.87783,0.58298,-0.01946379,1.0862
55.196,11.111,1.0199,-0.0221769,1.08352
58.396,11.28997,1.35896,-0.02462282,1.08086
61.596,11.44466,1.64764,-0.02257486,1.07822
64.796,11.58559,1.88327,-0.01818681,1.0756
67.996,11.71728,2.06568,-0.01513674,1.07299
71.196,11.84339,2.23082,-0.01769162,1.0704
74.396,11.96529,2.37733,-0.02500919,1.06783
77.596,12.0844,2.50643,-0.0268356,1.06528
80.796,12.20078,2.6099,-0.02355745,1.06274
83.996,12.3148,2.68666,-0.0266437,1.06022
87.196,12.4277,2.73291,-0.02147933,1.05772
90.396,12.5387,2.79613,-0.01930401,1.05524
93.596,12.64904,2.85428,-0.01970293,1.05277
96.796,12.7583,2.9277,-0.02391094,1.05032
99.996,12.867,2.96701,-0.03137255,1.04789
103.196,12.9751,2.99128,-0.02948047,1.04548
106.396,13.0832,3.02933,-0.02600274,1.04308
109.596,13.19081,3.04494,-0.02927814,1.0407
112.796,13.2981,3.08077,-0.02896983,1.03834
115.996,13.405,3.10492,-0.0262108,1.03599
119.196,13.51186,3.13204,-0.02753,1.03366
122.396,13.61786,3.16791,-0.02889947,1.03135
125.596,13.72369,3.2064,-0.0299007,1.02905
128.796,13.82881,3.26046,-0.02995,1.02677
131.996,13.9337,3.32033,-0.0309571,1.02451
135.196,14.0378,3.37006,-0.03093835,1.02226
138.396,14.14153,3.48274,-0.03093012,1.02003
141.596,14.2446,3.58424,-0.02826664,1.01782
144.796,14.3474,3.78174,-0.02961235,1.01562
147.996,14.4498,4.01401,-0.02970783,1.01344
151.196,14.55192,4.39668,-0.02863,1.01127
154.396,14.65363,4.97708,-0.02863,1.00912
157.596,14.7555,5.77303,-0.03094,1.00698
160.796,14.85706,6.68605,-0.03225091,1.00486
163.996,14.95861,7.35177,-0.03334797,1.00275
167.196,15.0601,6.98263,-0.03224941,1.00066
170.396,15.16071,5.79497,-0.03488192,0.99859
173.596,15.2609,4.90093,-0.03411953,0.99653
176.796,15.3605,4.37824,-0.0348796,0.99448
179.996,15.4597,4.09792,-0.0335701,0.99245
183.196,15.55826,3.96641,-0.03093719,0.99043
186.396,15.6571,3.90154,-0.0289853,0.98842
189.596,15.7554,3.89954,-0.0309589,0.98643
192.796,15.85377,3.90597,-0.03356984,0.98445
195.996,15.95169,3.90288,-0.03364206,0.98249
199.196,16.0497,3.92627,-0.03797656,0.98054
202.396,16.14743,3.95533,-0.0410334,0.9786
205.596,16.2447,3.96563,-0.0377303,0.97668
208.796,16.34238,4.00732,-0.03482091,0.97477
211.996,16.43975,4.01317,-0.04000616,0.97287
215.196,16.53732,4.04436,-0.03894374,0.97098
218.396,16.63472,4.05564,-0.03368014,0.96911
221.596,16.73186,4.05896,-0.03939275,0.96724
224.796,16.82921,4.09236,-0.04002735,0.96539
227.996,16.92632,4.13218,-0.04222998,0.96355
231.196,17.0234,4.15345,-0.03948654,0.96172
234.396,17.12071,4.15846,-0.04080747,0.95991
237.596,17.2176,4.1552,-0.0395414,0.9581
240.796,17.3145,4.17502,-0.03817183,0.95631
243.996,17.41133,4.22619,-0.04181949,0.95452
247.196,17.50804,4.23407,-0.04229786,0.95274
250.396,17.60474,4.23748,-0.04286029,0.95098
253.596,17.70113,4.2421,-0.04103443,0.94922
256.796,17.79772,4.26571,-0.04501547,0.94748
259.996,17.8943,4.2627,-0.04230662,0.94574
263.196,17.99086,4.27642,-0.04374669,0.94401
266.396,18.08721,4.29752,-0.04509,0.94229
269.596,18.18376,4.29964,-0.04641353,0.94058
272.796,18.2802,4.32538,-0.0480651,0.93888
275.996,18.37671,4.34144,-0.04903996,0.93719
279.196,18.47325,4.35421,-0.04903958,0.9355
282.396,18.5698,4.33541,-0.04476356,0.93382
285.596,18.66623,4.35155,-0.04812187,0.93215
288.796,18.76274,4.36194,-0.04849,0.93049
291.996,18.85921,4.37716,-0.04788854,0.92883
295.196,18.95585,4.39185,-0.05090322,0.92718
298.396,19.0525,4.38447,-0.05383037,0.92554
301.596,19.14969,4.39983,-0.05487255,0.9239
304.796,19.24642,4.40581,-0.05386,0.92227
307.996,19.34317,4.39256,-0.05386,0.92064
311.196,19.43988,4.42814,-0.05286997,0.91902
314.396,19.5367,4.41925,-0.05571528,0.9174
317.596,19.634,4.40091,-0.05725248,0.91579
320.796,19.73078,4.42078,-0.06167019,0.91418
323.996,19.82791,4.41242,-0.06329417,0.91258
327.196,19.92515,4.396,-0.0610477,0.91098
330.396,20.02262,4.38211,-0.05881235,0.90939
333.596,20.1201,4.39707,-0.06538633,0.9078
336.796,20.2174,4.35598,-0.06502448,0.90621
339.996,20.31532,4.35731,-0.06341001,0.90463
343.196,20.41309,4.32874,-0.06569902,0.90305
346.396,20.5109,4.34921,-0.06588087,0.90147
349.596,20.6087,4.33731,-0.07152085,0.89989
352.796,20.7069,4.33712,-0.07876086,0.89832
355.996,20.80499,4.35445,-0.07791881,0.89674
359.196,20.90314,4.36216,-0.08326889,0.89517
362.396,21.0015,4.35661,-0.08696812,0.8936
365.596,21.1001,4.39959,-0.09311976,0.89203
368.796,21.19848,4.41552,-0.09481015,0.89047
371.996,21.29725,4.41471,-0.09763314,0.8889
375.196,21.3959,4.4664,-0.10153,0.88733
378.396,21.49465,4.48742,-0.10593,0.88576
381.596,21.5936,4.56545,-0.11146,0.8842
384.796,21.6925,4.63775,-0.11978,0.88263
387.996,21.79157,4.71144,-0.13081,0.88106
391.196,21.89101,4.83064,-0.13919,0.87949
394.396,21.9904,4.94601,-0.15314,0.87792
397.596,22.08973,5.08391,-0.16435,0.87635
400.796,22.1892,5.22485,-0.17839,0.87477
403.996,22.28894,5.39159,-0.19392,0.8732
407.196,22.38847,5.60209,-0.21328,0.87162
410.396,22.48835,5.80463,-0.23655,0.87004
413.596,22.58831,5.99233,-0.26326,0.86846
416.796,22.68834,6.19915,-0.28382,0.86687
419.996,22.78849,6.37789,-0.30213,0.86528
423.196,22.88883,6.58724,-0.33266,0.86369
426.396,22.98909,6.80632,-0.36552,0.86209
429.596,23.08954,6.97795,-0.39297,0.86049
432.796,23.19,7.1753,-0.42738,0.85889
435.996,23.29062,7.3684,-0.46885,0.85728
439.196,23.39098,7.57373,-0.50936,0.85567
442.396,23.4922,7.78587,-0.54826,0.85405
445.596,23.59284,7.97794,-0.58915,0.85243
448.796,23.6938,8.21501,-0.63948,0.8508
451.996,23.79489,8.43691,-0.6858,0.84917
455.196,23.89621,8.66255,-0.74672,0.84753
458.396,23.99767,8.90759,-0.80751,0.84589
461.596,24.09913,9.14634,-0.87184,0.84424
464.796,24.2007,9.41707,-0.9412,0.84258
467.996,24.3022,9.63685,-1.00944,0.84092
471.196,24.40405,9.80556,-1.09078,0.83925
474.396,24.50574,9.93141,-1.17699,0.83757
477.596,24.60814,9.99468,-1.2726,0.83589
480.796,24.71012,9.94757,-1.36612,0.8342
483.996,24.81221,9.74334,-1.46452,0.8325
487.196,24.91416,9.43543,-1.55715,0.83079
490.396,25.01641,8.88435,-1.66165,0.82908
493.596,25.11869,8.11108,-1.75612,0.82736
496.796,25.2207,7.14596,-1.83599,0.82563
499.996,25.32273,5.9004,-1.90744,0.82389
503.196,25.4249,4.45594,-1.9641,0.82214
506.396,25.52684,3.2065,-2.00028,0.82038
509.596,25.62888,2.35224,-2.01332,0.81862
512.796,25.73118,1.82548,-2.02474,0.81685
515.996,25.83362,1.54869,-2.02913,0.81506
519.196,25.9361,1.40584,-2.03117,0.81327
522.396,26.03891,1.335,-2.03031,0.81147
525.596,26.14172,1.28615,-2.0269,0.80966
528.796,26.24455,1.33253,-2.02928,0.80784
531.996,26.34733,1.44914,-2.03809,0.806
535.196,26.45021,1.48914,-2.04148,0.80416
538.396,26.5535,1.40339,-2.04005,0.80231
541.596,26.6568,1.3144,-2.03611,0.80045
544.796,26.76045,1.30449,-2.03764,0.79857
547.996,26.86419,1.22475,-2.03609,0.79669
551.196,26.9681,1.21941,-2.03802,0.7948
554.396,27.0719,1.19199,-2.0393,0.79289
557.596,27.176,1.20073,-2.0406,0.79097
560.796,27.2799,1.20566,-2.04158,0.78904
563.996,27.38438,1.23019,-2.04777,0.7871
567.196,27.48879,1.27761,-2.04908,0.78515
570.396,27.59337,1.32002,-2.05014,0.78319
573.596,27.69792,1.33143,-2.04794,0.78122
576.796,27.80248,1.37502,-2.05201,0.77923
579.996,27.9074,1.41309,-2.05405,0.77723
583.196,28.0122,1.44379,-2.05409,0.77522
586.396,28.1171,1.49229,-2.05498,0.7732
589.596,28.2221,1.56122,-2.05456,0.77116
592.796,28.32728,1.62434,-2.06066,0.76912
595.996,28.43246,1.72058,-2.06474,0.76706
599.196,28.53756,1.82237,-2.06605,0.76499
602.396,28.6427,1.94972,-2.06474,0.7629
605.596,28.748,2.09609,-2.06655,0.76081
608.796,28.85332,2.31183,-2.07362,0.7587
611.996,28.9587,2.55892,-2.08283,0.75657
615.196,29.064,2.86325,-2.08914,0.75444
618.396,29.1696,3.23509,-2.09231,0.75229
621.596,29.275,3.63563,-2.09549,0.75013
624.796,29.38053,4.05473,-2.10068,0.74796
627.996,29.4859,4.48694,-2.11102,0.74577
631.196,29.5915,4.89412,-2.1266,0.74357
634.396,29.6972,5.25709,-2.13424,0.74136
637.596,29.80265,5.53863,-2.14101,0.73913
640.796,29.90858,5.7315,-2.14949,0.73689
643.996,30.01408,5.82807,-2.16164,0.73464
647.196,30.1198,5.79504,-2.1767,0.73237
650.396,30.22547,5.63639,-2.19365,0.73009
653.596,30.33108,5.34984,-2.20255,0.7278
656.796,30.43657,4.9553,-2.21186,0.7255
659.996,30.54203,4.55378,-2.21913,0.72318
663.196,30.64783,4.18953,-2.23109,0.72085
666.396,30.7532,3.94491,-2.24013,0.7185
669.596,30.859,3.99062,-2.24352,0.71614
672.796,30.96507,4.89713,-2.2409,0.71377
675.996,31.0711,5.74148,-2.24737,0.71138
679.196,31.1774,6.42137,-2.25913,0.70899
682.396,31.28373,7.02968,-2.27404,0.70657
685.596,31.3898,7.59356,-2.29216,0.70415
688.796,31.4963,8.10703,-2.30489,0.70171
691.996,31.60265,8.60799,-2.3071,0.69926
695.196,31.7091,9.10329,-2.32021,0.69679
698.396,31.8156,9.59532,-2.3384,0.69432
701.596,31.9221,10.02534,-2.3566,0.69182
704.796,32.0285,10.4449,-2.37888,0.68932
707.996,32.1348,10.7757,-2.39355,0.6868
711.196,32.24196,11.06595,-2.40969,0.68427
714.396,32.3487,11.33498,-2.42874,0.68173
717.596,32.45541,11.7022,-2.44099,0.67917
720.796,32.56208,12.2956,-2.45835,0.6766
723.996,32.66868,13.03393,-2.47639,0.67402
727.196,32.7757,13.8345,-2.50543,0.67143
730.396,32.88258,14.66165,-2.53143,0.66882
733.596,32.98949,15.49479,-2.55927,0.6662
736.796,33.09663,16.33757,-2.58272,0.66357
739.996,33.2038,17.1811,-2.60719,0.66092
743.196,33.31107,17.99125,-2.63711,0.65827
746.396,33.41831,18.6907,-2.66938,0.6556
749.596,33.52547,19.26756,-2.70535,0.65291
752.796,33.6327,19.68112,-2.73868,0.65022
755.996,33.73985,19.91253,-2.76392,0.64751
759.196,33.84684,19.88787,-2.80516,0.6448
762.396,33.95377,19.27233,-2.83773,0.64207
765.596,34.06098,17.06476,-2.88109,0.63933
768.796,34.1674,7.6002,-2.90339,0.63657
771.996,34.27337,2.19247,-2.90395,0.63381
775.196,34.3795,0.70636,-2.90121,0.63103
778.396,34.48639,0.29315,-2.89926,0.62824
781.596,34.59355,0.23883,-2.90132,0.62545
784.796,34.70093,0.2622,-2.90844,0.62264
787.996,34.808,0.31242,-2.90702,0.61981
791.196,34.9154,0.34589,-2.90955,0.61698
793.696,34.9993,0.35848,-2.91338,0.61476