Folder: fsri_materials_database/01_Data/Polyolefin_Carpet_Low_Pile/STA/N2/30K_min

Note: 01_Data/README.md
# Materials and Products Database
## 01_Data

Raw data generated from each apparatus are included here in plain-text format. The data is organized first by material, next by the short name of test apparatus used, and where applicable additional filtering by test settings.

### material.json

Each material directory contains a json file of the same name as the material. This file links the data stored in the repository as well as data and graphs produced by the accompanying scripts (__02_Scripts__) to the respective landing page for the material on the front-end website.

File: Polyolefin_Carpet_Low_Pile_STA_N2_30KData_220303_R1.csv
##Temp./Â°C,Time/min,DSC(subtr.2)/mW,Mass loss(subtr.2)/mg,Sensit./(uV/mW)
48.85,10.00667,-0.01051047,-0.00976,1.08885
51.95,10.86775,0.54334,-0.00854322,1.08624
55.05,11.0962,0.93148,-0.009114747,1.08364
58.15,11.2718,1.25816,-0.00815858,1.08106
61.25,11.42335,1.50563,-0.00703427,1.0785
64.35,11.56104,1.7277,-0.00713809,1.07596
67.45,11.68999,1.91805,-0.008011845,1.07343
70.55,11.81278,2.06532,-0.007258393,1.07092
73.65,11.9314,2.18044,-0.009003232,1.06843
76.75,12.04735,2.27774,-0.009050391,1.06595
79.85,12.16055,2.36335,-0.01118329,1.06349
82.95,12.2721,2.42722,-0.01044662,1.06104
86.05,12.38177,2.48777,-0.00937929,1.05861
89.15,12.4903,2.5516,-0.009232969,1.0562
92.25,12.5975,2.59202,-0.009217476,1.05381
95.35,12.70317,2.6388,-0.008983826,1.05143
98.45,12.80919,2.67077,-0.01031296,1.04906
101.55,12.91408,2.69885,-0.01031228,1.04672
104.65,13.01925,2.73255,-0.01031682,1.04439
107.75,13.1235,2.75968,-0.0109382,1.04207
110.85,13.2276,2.78216,-0.01297241,1.03977
113.95,13.3311,2.80746,-0.01415477,1.03749
117.05,13.4352,2.81619,-0.01169178,1.03522
120.15,13.5385,2.85104,-0.01379583,1.03297
123.25,13.64144,2.87846,-0.01327219,1.03073
126.35,13.744,2.90867,-0.01459,1.02851
129.45,13.8457,2.94431,-0.01459,1.02631
132.55,13.94708,2.99147,-0.01556217,1.02412
135.65,14.0481,3.05998,-0.01426,1.02195
138.75,14.1482,3.13283,-0.01426017,1.01979
141.85,14.2483,3.26456,-0.01359999,1.01764
144.95,14.34781,3.42346,-0.01360003,1.01551
148.05,14.44716,3.66126,-0.01492145,1.0134
151.15,14.54624,4.02897,-0.01458604,1.0113
154.25,14.64499,4.57408,-0.01458998,1.00921
157.35,14.74346,5.30065,-0.01593243,1.00714
160.45,14.84198,6.12568,-0.0159,1.00509
163.55,14.9403,6.79944,-0.01488187,1.00305
166.65,15.03841,6.61025,-0.01327001,1.00102
169.75,15.13633,5.53111,-0.01577477,0.999
172.85,15.23352,4.61389,-0.01689001,0.997
175.95,15.33027,4.07266,-0.01791629,0.99502
179.05,15.42671,3.78293,-0.01689,0.99304
182.15,15.5228,3.6308,-0.01800119,0.99109
185.25,15.6184,3.56386,-0.01689,0.98914
188.35,15.71398,3.53774,-0.01688994,0.98721
191.45,15.80949,3.52019,-0.01919135,0.98528
194.55,15.9043,3.53098,-0.01919,0.98338
197.65,15.99978,3.54787,-0.0198447,0.98148
200.75,16.09456,3.5599,-0.02018,0.9796
203.85,16.18917,3.5758,-0.02018,0.97773
206.95,16.284,3.59782,-0.02015408,0.97587
210.05,16.37875,3.61169,-0.02118287,0.97402
213.15,16.47336,3.62565,-0.02183004,0.97219
216.25,16.5678,3.65631,-0.02182999,0.97036
219.35,16.66234,3.66434,-0.02123102,0.96855
222.45,16.75664,3.68932,-0.02182047,0.96675
225.55,16.85067,3.7002,-0.02182,0.96496
228.65,16.94497,3.72061,-0.0218209,0.96318
231.75,17.0391,3.7347,-0.02314012,0.96141
234.85,17.1333,3.74296,-0.02413,0.95965
237.95,17.2274,3.75798,-0.02413,0.9579
241.05,17.32143,3.76216,-0.02545125,0.95616
244.15,17.41545,3.78442,-0.02412994,0.95443
247.25,17.50931,3.79877,-0.02413098,0.95271
250.35,17.6032,3.81196,-0.02413024,0.951
253.45,17.69695,3.82268,-0.02412525,0.9493
256.55,17.7908,3.83848,-0.02679868,0.94761
259.65,17.88441,3.85192,-0.02808233,0.94593
262.75,17.97805,3.86442,-0.02564282,0.94425
265.85,18.07144,3.87812,-0.02654,0.94259
268.95,18.16549,3.89528,-0.02785825,0.94093
272.05,18.259,3.89196,-0.02917003,0.93928
275.15,18.35281,3.89605,-0.02917,0.93763
278.25,18.44661,3.9076,-0.02917,0.936
281.35,18.5402,3.90118,-0.02917006,0.93437
284.45,18.6341,3.9169,-0.03049,0.93275
287.55,18.72799,3.918,-0.03049741,0.93113
290.65,18.82171,3.92572,-0.0318117,0.92953
293.75,18.9158,3.92121,-0.03181005,0.92792
296.85,19.0096,3.92738,-0.03444369,0.92633
299.95,19.1037,3.94589,-0.03442122,0.92474
303.05,19.19773,3.93351,-0.03523857,0.92316
306.15,19.29138,3.94765,-0.03477,0.92158
309.25,19.38555,3.95181,-0.03608581,0.92
312.35,19.4796,3.96668,-0.03767884,0.91843
315.45,19.5736,3.97766,-0.04073024,0.91687
318.55,19.6676,3.97285,-0.03873808,0.91531
321.65,19.76181,3.97864,-0.04003,0.91376
324.75,19.85608,3.98757,-0.04134963,0.9122
327.85,19.95026,3.99674,-0.0413549,0.91066
330.95,20.0446,4.01094,-0.0437341,0.90911
334.05,20.13896,4.00366,-0.04365069,0.90757
337.15,20.2337,4.00423,-0.04533138,0.90604
340.25,20.3282,4.00817,-0.04759996,0.9045
343.35,20.42278,3.9899,-0.050104,0.90297
346.45,20.51773,3.98183,-0.05154042,0.90144
349.55,20.61259,3.98165,-0.05509759,0.89991
352.65,20.70743,3.99409,-0.05872088,0.89839
355.75,20.80251,4.00079,-0.05995118,0.89686
358.85,20.89755,4.00655,-0.06164696,0.89534
361.95,20.99269,4.03038,-0.06552766,0.89382
365.05,21.088,4.04483,-0.06897609,0.8923
368.15,21.18304,4.06431,-0.07381757,0.89078
371.25,21.27873,4.10981,-0.07930655,0.88926
374.35,21.37421,4.13651,-0.08387678,0.88775
377.45,21.46963,4.17672,-0.08985624,0.88623
380.55,21.56532,4.23672,-0.09495107,0.88471
383.65,21.66085,4.30698,-0.10444,0.88319
386.75,21.75647,4.38051,-0.1127,0.88167
389.85,21.85225,4.48069,-0.11974,0.88015
392.95,21.94817,4.5899,-0.13145,0.87863
396.05,22.0442,4.72854,-0.14309,0.87711
399.15,22.14007,4.85867,-0.15565,0.87558
402.25,22.23617,5.00544,-0.16914,0.87406
405.35,22.33221,5.17299,-0.18516,0.87253
408.45,22.4287,5.33417,-0.20324,0.871
411.55,22.52524,5.50545,-0.22317,0.86947
414.65,22.62179,5.69136,-0.24415,0.86794
417.75,22.71847,5.88617,-0.26896,0.8664
420.85,22.81531,6.07919,-0.29373,0.86486
423.95,22.91216,6.26004,-0.32111,0.86331
427.05,23.00927,6.43794,-0.34915,0.86177
430.15,23.10634,6.62368,-0.38018,0.86022
433.25,23.2038,6.79915,-0.412,0.85866
436.35,23.3012,6.98268,-0.44899,0.8571
439.45,23.39892,7.17114,-0.48522,0.85554
442.55,23.49677,7.34846,-0.52744,0.85398
445.65,23.5945,7.54129,-0.57125,0.8524
448.75,23.6925,7.74324,-0.61357,0.85083
451.85,23.79051,7.94787,-0.66107,0.84924
454.95,23.88862,8.16568,-0.71385,0.84766
458.05,23.98699,8.39235,-0.76921,0.84607
461.15,24.08519,8.60351,-0.82848,0.84447
464.25,24.18359,8.8309,-0.89198,0.84286
467.35,24.28217,9.03535,-0.96436,0.84125
470.45,24.3808,9.21271,-1.04145,0.83964
473.55,24.47951,9.33731,-1.11951,0.83801
476.65,24.578,9.41497,-1.206,0.83639
479.75,24.67699,9.397,-1.29377,0.83475
482.85,24.77581,9.27956,-1.3841,0.83311
485.95,24.87474,9.03348,-1.47766,0.83146
489.05,24.97345,8.60328,-1.56719,0.8298
492.15,25.07234,7.9841,-1.66076,0.82814
495.25,25.17134,7.19295,-1.74659,0.82646
498.35,25.2701,6.21905,-1.8227,0.82478
501.45,25.36877,4.96618,-1.88377,0.82309
504.55,25.46764,3.64414,-1.92317,0.8214
507.65,25.56625,2.64012,-1.947,0.81969
510.75,25.6651,1.96001,-1.95902,0.81798
513.85,25.7644,1.53786,-1.96189,0.81626
516.95,25.86352,1.30623,-1.96327,0.81453
520.05,25.963,1.17227,-1.96198,0.81279
523.15,26.06259,1.09681,-1.96063,0.81104
526.25,26.16205,1.09204,-1.96294,0.80929
529.35,26.2615,1.22015,-1.96463,0.80752
532.45,26.36125,1.31056,-1.96725,0.80574
535.55,26.46123,1.24842,-1.96854,0.80396
538.65,26.5613,1.17761,-1.97007,0.80216
541.75,26.6617,1.1075,-1.97117,0.80036
544.85,26.7622,1.05552,-1.97248,0.79854
547.95,26.8626,0.99485,-1.97387,0.79672
551.05,26.96309,0.93246,-1.9738,0.79488
554.15,27.0636,0.89953,-1.97512,0.79304
557.25,27.1643,0.88929,-1.97644,0.79118
560.35,27.26475,0.91965,-1.97775,0.78931
563.45,27.36559,0.94407,-1.97903,0.78744
566.55,27.46625,0.97908,-1.98103,0.78555
569.65,27.5666,1.00177,-1.98202,0.78365
572.75,27.6677,1.07034,-1.98289,0.78174
575.85,27.7686,1.11041,-1.98498,0.77982
578.95,27.8697,1.14465,-1.9863,0.77789
582.05,27.97073,1.20337,-1.98811,0.77594
585.15,28.07193,1.25226,-1.99158,0.77399
588.25,28.1733,1.29557,-1.9942,0.77202
591.35,28.2746,1.35376,-1.99501,0.77004
594.45,28.3762,1.41425,-1.99552,0.76805
597.55,28.47762,1.48154,-1.99416,0.76605
600.65,28.579,1.56218,-1.99926,0.76404
603.75,28.6806,1.67051,-2.00519,0.76202
606.85,28.7823,1.78152,-2.00911,0.75998
609.95,28.8841,1.92176,-2.01128,0.75793
613.05,28.98572,2.10692,-2.01597,0.75587
616.15,29.08742,2.34829,-2.01651,0.7538
619.25,29.18913,2.62107,-2.0208,0.75172
622.35,29.29092,2.94354,-2.0246,0.74962
625.45,29.3927,3.30312,-2.0311,0.74751
628.55,29.4947,3.67228,-2.03997,0.74539
631.65,29.59664,4.03512,-2.05121,0.74326
634.75,29.69882,4.37368,-2.05995,0.74111
637.85,29.801,4.66588,-2.0662,0.73895
640.95,29.9032,4.91548,-2.07936,0.73678
644.05,30.00549,5.08666,-2.09044,0.7346
647.15,30.10779,5.18429,-2.09855,0.73241
650.25,30.21007,5.18987,-2.10959,0.7302
653.35,30.31243,5.09198,-2.12024,0.72798
656.45,30.4148,4.86937,-2.13109,0.72575
659.55,30.51717,4.56748,-2.13997,0.7235
662.65,30.61942,4.21596,-2.14964,0.72124
665.75,30.72192,3.88846,-2.15471,0.71897
668.85,30.82439,3.65657,-2.16013,0.71669
671.95,30.9271,3.8566,-2.16806,0.7144
675.05,31.02983,4.75526,-2.1746,0.71209
678.15,31.13267,5.54377,-2.18357,0.70977
681.25,31.2356,6.15938,-2.19346,0.70744
684.35,31.33855,6.7184,-2.20359,0.70509
687.45,31.4415,7.2575,-2.21516,0.70274
690.55,31.54467,7.76437,-2.22672,0.70037
693.65,31.6475,8.28205,-2.23762,0.69799
696.75,31.75072,8.75081,-2.25387,0.69559
699.85,31.85383,9.22077,-2.26787,0.69318
702.95,31.95692,9.64867,-2.2851,0.69077
706.05,32.0601,10.05353,-2.30025,0.68833
709.15,32.16329,10.37888,-2.31717,0.68589
712.25,32.26648,10.66623,-2.3343,0.68344
715.35,32.36977,10.9153,-2.35152,0.68097
718.45,32.47306,11.25676,-2.36863,0.67849
721.55,32.5764,11.77539,-2.3889,0.676
724.65,32.68,12.43828,-2.40903,0.67349
727.75,32.78363,13.189,-2.42984,0.67098
730.85,32.88715,13.96374,-2.45524,0.66845
733.95,32.99069,14.7624,-2.48092,0.66591
737.05,33.09448,15.5703,-2.50607,0.66336
740.15,33.19822,16.3447,-2.53065,0.6608
743.25,33.30172,17.10471,-2.55973,0.65822
746.35,33.40553,17.77545,-2.5909,0.65563
749.45,33.50943,18.33703,-2.62409,0.65304
752.55,33.6132,18.74619,-2.65315,0.65043
755.65,33.71672,19.02211,-2.68434,0.64781
758.75,33.82097,19.07,-2.71707,0.64518
761.85,33.92477,18.61877,-2.75063,0.64253
764.95,34.0285,16.66921,-2.78346,0.63988
768.05,34.1319,8.38499,-2.80846,0.63722
771.15,34.23447,2.04812,-2.81454,0.63454
774.25,34.3376,0.24487,-2.81454,0.63185
777.35,34.4411,-0.35851,-2.81658,0.62916
780.45,34.54473,-0.49994,-2.82182,0.62645
783.55,34.6481,-0.48659,-2.82299,0.62373
786.65,34.75208,-0.43197,-2.82245,0.621
789.75,34.85582,-0.41631,-2.82287,0.61826
792.85,34.95995,-0.39781,-2.82442,0.61552
793.95,34.99686,-0.39657,-2.82289,0.61454

File: Polyolefin_Carpet_Low_Pile_STA_N2_30KData_220403_R2.csv
##Temp./Â°C,Time/min,DSC(subtr.2)/mW,Mass loss(subtr.2)/mg,Sensit./(uV/mW)
48.82,10.00667,0.02242184,-0.00614,1.08887
51.92,10.8668,0.67804,-0.00438442,1.08626
55.02,11.09577,1.09881,-0.004997482,1.08367
58.12,11.27171,1.43995,-0.007459498,1.08109
61.22,11.4228,1.70288,-0.006248273,1.07853
64.32,11.56027,1.9425,-0.00624805,1.07598
67.42,11.68871,2.12744,-0.006098023,1.07346
70.52,11.81172,2.28292,-0.005512286,1.07095
73.62,11.9306,2.40735,-0.00417715,1.06845
76.72,12.04604,2.51062,-0.003888602,1.06597
79.82,12.1595,2.58932,-0.003449404,1.06351
82.92,12.27081,2.66677,-0.005174597,1.06107
86.02,12.38021,2.73449,-0.005738496,1.05864
89.12,12.4884,2.79211,-0.00657788,1.05623
92.22,12.59565,2.84831,-0.00594366,1.05383
95.32,12.70149,2.90476,-0.006207356,1.05145
98.42,12.80723,2.94063,-0.007279074,1.04909
101.52,12.91207,2.98277,-0.00706249,1.04674
104.62,13.01689,3.01587,-0.0066389,1.04441
107.72,13.12106,3.04342,-0.006700008,1.04209
110.82,13.22528,3.0825,-0.007787604,1.03979
113.92,13.3292,3.12508,-0.006691273,1.03751
117.02,13.4328,3.14216,-0.00697534,1.03524
120.12,13.5359,3.15958,-0.00667564,1.03299
123.22,13.6387,3.15823,-0.009330513,1.03076
126.32,13.7411,3.15515,-0.008583762,1.02854
129.42,13.84276,3.17688,-0.009555765,1.02633
132.52,13.9442,3.23432,-0.008247311,1.02414
135.62,14.04505,3.30399,-0.00943699,1.02197
138.72,14.14538,3.40123,-0.00954951,1.01981
141.82,14.2452,3.51952,-0.00955,1.01766
144.92,14.34494,3.70288,-0.0108965,1.01553
148.02,14.44408,3.95393,-0.01086993,1.01342
151.12,14.54295,4.31363,-0.01085964,1.01132
154.22,14.6415,4.87342,-0.01086,1.00923
157.32,14.74024,5.59526,-0.01086,1.00716
160.42,14.83875,6.41549,-0.01136424,1.00511
163.52,14.9369,7.06934,-0.01218,1.00307
166.62,15.03524,6.8231,-0.01218027,1.00104
169.72,15.13305,5.73511,-0.01415021,0.99902
172.82,15.23027,4.85313,-0.01152461,0.99702
175.92,15.327,4.32331,-0.01119,0.99504
179.02,15.42332,4.0598,-0.01383818,0.99306
182.12,15.51929,3.90689,-0.01382,0.9911
185.22,15.6151,3.83366,-0.01515768,0.98916
188.32,15.7106,3.79486,-0.01447582,0.98722
191.42,15.806,3.79459,-0.01447995,0.9853
194.52,15.90104,3.80903,-0.01580151,0.98339
197.62,15.9963,3.83142,-0.01447961,0.9815
200.72,16.09117,3.84302,-0.01712002,0.97962
203.82,16.18604,3.85711,-0.0157968,0.97775
206.92,16.2808,3.87257,-0.01581669,0.97589
210.02,16.3755,3.88923,-0.018425,0.97404
213.12,16.47,3.90193,-0.01843,0.9722
216.22,16.5644,3.91849,-0.01850033,0.97038
219.32,16.6589,3.94215,-0.01777267,0.96857
222.42,16.75315,3.95609,-0.0164598,0.96677
225.52,16.8474,3.96171,-0.01777085,0.96498
228.62,16.94141,3.98402,-0.01876,0.9632
231.72,17.0353,3.9916,-0.01876,0.96143
234.82,17.12916,4.01715,-0.0180949,0.95967
237.92,17.22314,4.02075,-0.0181,0.95792
241.02,17.31691,4.038,-0.01810096,0.95618
244.12,17.41078,4.05305,-0.01956835,0.95445
247.22,17.5044,4.05305,-0.02073966,0.95273
250.32,17.5979,4.0685,-0.02073098,0.95102
253.42,17.69156,4.07916,-0.02204,0.94932
256.52,17.78525,4.07653,-0.02202646,0.94763
259.62,17.87888,4.08364,-0.02106,0.94594
262.72,17.97229,4.09596,-0.02106,0.94427
265.82,18.0658,4.09821,-0.02237979,0.9426
268.92,18.15916,4.09854,-0.02368999,0.94094
272.02,18.25282,4.11305,-0.02366943,0.93929
275.12,18.34635,4.11951,-0.02468,0.93765
278.22,18.44005,4.12435,-0.02468,0.93601
281.32,18.53366,4.13348,-0.0237012,0.93439
284.42,18.6268,4.13872,-0.02501,0.93277
287.52,18.72106,4.14774,-0.02634222,0.93115
290.62,18.81469,4.16515,-0.0276404,0.92954
293.72,18.9084,4.15857,-0.02898475,0.92794
296.82,19.0019,4.16703,-0.02869237,0.92634
299.92,19.09595,4.16158,-0.030269,0.92475
303.02,19.18956,4.16394,-0.03027,0.92317
306.12,19.2834,4.16407,-0.03028299,0.92159
309.22,19.37729,4.1735,-0.03290995,0.92002
312.32,19.47114,4.16365,-0.03422,0.91845
315.42,19.56495,4.1647,-0.03422,0.91689
318.52,19.65863,4.17026,-0.03470954,0.91533
321.62,19.75296,4.17274,-0.03685999,0.91377
324.72,19.84714,4.16645,-0.0375684,0.91222
327.82,19.94145,4.16479,-0.03816132,0.91067
330.92,20.03569,4.172,-0.04213137,0.90913
334.02,20.1299,4.16961,-0.04114409,0.90759
337.12,20.22447,4.16862,-0.04245,0.90605
340.22,20.3189,4.15752,-0.04389935,0.90452
343.32,20.4136,4.15636,-0.04683617,0.90298
346.42,20.50824,4.1513,-0.05079226,0.90145
349.52,20.60305,4.16553,-0.05346954,0.89993
352.62,20.6979,4.16145,-0.05474017,0.8984
355.72,20.7928,4.17178,-0.05605826,0.89688
358.82,20.8877,4.18125,-0.05966495,0.89536
361.92,20.9828,4.18218,-0.06239439,0.89384
365.02,21.078,4.20271,-0.06522563,0.89232
368.12,21.17342,4.21465,-0.07097495,0.8908
371.22,21.2687,4.25104,-0.07396453,0.88928
374.32,21.36431,4.27987,-0.08098538,0.88776
377.42,21.45996,4.3242,-0.08631626,0.88624
380.52,21.55544,4.38253,-0.09241144,0.88472
383.62,21.6512,4.44987,-0.10062,0.88321
386.72,21.74709,4.52655,-0.10929,0.88169
389.82,21.8431,4.62006,-0.11731,0.88017
392.92,21.93915,4.71208,-0.12901,0.87864
396.02,22.03533,4.83569,-0.14072,0.87712
399.12,22.13172,4.9766,-0.15154,0.8756
402.22,22.2283,5.13442,-0.16882,0.87407
405.32,22.32471,5.31359,-0.18587,0.87255
408.42,22.42116,5.48351,-0.20494,0.87102
411.52,22.51791,5.66945,-0.22479,0.86949
414.62,22.61453,5.86228,-0.24554,0.86795
417.72,22.7115,6.06143,-0.26925,0.86641
420.82,22.80854,6.24233,-0.29456,0.86487
423.92,22.90568,6.45081,-0.32359,0.86333
427.02,23.00263,6.63796,-0.35135,0.86178
430.12,23.10004,6.82389,-0.38238,0.86023
433.22,23.19739,7.00305,-0.41429,0.85868
436.32,23.29496,7.1781,-0.45021,0.85712
439.42,23.39268,7.36366,-0.48709,0.85556
442.52,23.49036,7.55515,-0.52775,0.85399
445.62,23.58809,7.73573,-0.56961,0.85242
448.72,23.68591,7.94145,-0.61344,0.85084
451.82,23.784,8.16543,-0.66137,0.84926
454.92,23.88202,8.37941,-0.71272,0.84767
458.02,23.9801,8.59456,-0.76885,0.84608
461.12,24.07805,8.81166,-0.8289,0.84448
464.22,24.17651,9.01666,-0.89115,0.84288
467.32,24.27489,9.20671,-0.96042,0.84127
470.42,24.37321,9.37044,-1.03205,0.83965
473.52,24.47158,9.47046,-1.10996,0.83803
476.62,24.5701,9.51379,-1.19168,0.8364
479.72,24.6686,9.48054,-1.27703,0.83477
482.82,24.76718,9.34992,-1.36529,0.83312
485.92,24.86567,9.09302,-1.4579,0.83147
489.02,24.96428,8.66662,-1.54744,0.82982
492.12,25.06302,8.0667,-1.63453,0.82815
495.22,25.1616,7.30968,-1.71561,0.82648
498.32,25.26022,6.35997,-1.78903,0.8248
501.42,25.35879,5.11727,-1.84861,0.82311
504.52,25.4574,3.81701,-1.89098,0.82142
507.62,25.5562,2.81577,-1.91491,0.81971
510.72,25.655,2.12813,-1.92487,0.818
513.82,25.75405,1.72513,-1.92802,0.81628
516.92,25.8533,1.49772,-1.92894,0.81455
520.02,25.95284,1.37627,-1.93026,0.81281
523.12,26.05247,1.32005,-1.93158,0.81106
526.22,26.15224,1.26695,-1.93322,0.8093
529.32,26.2518,1.36466,-1.93552,0.80754
532.42,26.3515,1.47956,-1.93683,0.80576
535.52,26.4516,1.47551,-1.93683,0.80398
538.62,26.55183,1.39684,-1.93815,0.80218
541.72,26.65215,1.32145,-1.93947,0.80037
544.82,26.75232,1.26213,-1.94078,0.79856
547.92,26.8532,1.17878,-1.94077,0.79673
551.02,26.95402,1.12068,-1.94342,0.7949
554.12,27.0548,1.09002,-1.94473,0.79305
557.22,27.1558,1.08474,-1.94605,0.7912
560.32,27.25665,1.10816,-1.94605,0.78933
563.42,27.35763,1.12934,-1.94736,0.78745
566.52,27.4587,1.17361,-1.94868,0.78557
569.62,27.5599,1.21495,-1.95,0.78367
572.72,27.66109,1.24464,-1.95132,0.78176
575.82,27.76243,1.29993,-1.95262,0.77984
578.92,27.86373,1.32412,-1.95395,0.7779
582.02,27.9651,1.3761,-1.95526,0.77596
585.12,28.06649,1.41327,-1.95854,0.77401
588.22,28.16777,1.46373,-1.96053,0.77204
591.32,28.26926,1.52662,-1.96234,0.77006
594.42,28.3706,1.59193,-1.96472,0.76807
597.52,28.47245,1.66793,-1.96623,0.76607
600.62,28.5742,1.76492,-1.96896,0.76406
603.72,28.67585,1.86818,-1.97168,0.76204
606.82,28.7777,1.98061,-1.9749,0.76
609.92,28.8796,2.1339,-1.97651,0.75795
613.02,28.9816,2.34749,-1.97961,0.75589
616.12,29.08343,2.58835,-1.984,0.75382
619.22,29.18539,2.88416,-1.9883,0.75174
622.32,29.2875,3.23843,-1.99419,0.74964
625.42,29.38953,3.60357,-2.00221,0.74753
628.52,29.49157,3.98797,-2.0096,0.74541
631.62,29.59385,4.36782,-2.01686,0.74328
634.72,29.6962,4.72895,-2.02509,0.74113
637.82,29.7984,5.03942,-2.03371,0.73897
640.92,29.9005,5.30012,-2.04392,0.7368
644.02,30.003,5.50217,-2.05572,0.73462
647.12,30.1054,5.59263,-2.06662,0.73243
650.22,30.2078,5.64299,-2.07965,0.73022
653.32,30.3102,5.57341,-2.08903,0.728
656.42,30.4126,5.40346,-2.09848,0.72577
659.52,30.51492,5.09491,-2.1089,0.72352
662.62,30.61719,4.75462,-2.11626,0.72127
665.72,30.7196,4.41987,-2.12448,0.719
668.82,30.8221,4.17785,-2.12958,0.71671
671.92,30.92447,4.41603,-2.1392,0.71442
675.02,31.02715,5.36143,-2.1448,0.71211
678.12,31.1299,6.17161,-2.15414,0.70979
681.22,31.23273,6.84766,-2.16483,0.70746
684.32,31.33555,7.43902,-2.17647,0.70512
687.42,31.4384,8.01683,-2.1893,0.70276
690.52,31.54131,8.56964,-2.19998,0.70039
693.62,31.64443,9.12983,-2.21334,0.69801
696.72,31.74745,9.62823,-2.22757,0.69561
699.82,31.8506,10.13898,-2.24446,0.69321
702.92,31.95378,10.60016,-2.26107,0.69079
706.02,32.05683,11.02773,-2.27839,0.68836
709.12,32.15981,11.38274,-2.29418,0.68592
712.22,32.26299,11.67282,-2.31228,0.68346
715.32,32.36627,11.93822,-2.33074,0.68099
718.42,32.4697,12.29579,-2.34915,0.67851
721.52,32.57305,12.86156,-2.36724,0.67602
724.62,32.6763,13.60299,-2.39066,0.67352
727.72,32.7797,14.41339,-2.41357,0.671
730.82,32.88315,15.23187,-2.43605,0.66847
733.92,32.98676,16.08023,-2.46182,0.66593
737.02,33.09046,16.92952,-2.48848,0.66338
740.12,33.19423,17.76142,-2.51753,0.66082
743.22,33.29753,18.5541,-2.54795,0.65825
746.32,33.40186,19.24149,-2.57931,0.65566
749.42,33.50565,19.76849,-2.61205,0.65306
752.52,33.60946,20.1649,-2.64614,0.65045
755.62,33.71329,20.4032,-2.67874,0.64783
758.72,33.8172,20.406,-2.71395,0.6452
761.82,33.92096,19.56244,-2.74652,0.64256
764.92,34.02451,16.16258,-2.77875,0.63991
768.02,34.1275,5.33509,-2.79978,0.63724
771.12,34.2299,1.56807,-2.80105,0.63457
774.22,34.33354,0.36805,-2.80237,0.63188
777.32,34.4373,-0.04938725,-2.80242,0.62918
780.42,34.5412,-0.12907,-2.80237,0.62648
783.52,34.6452,-0.11687,-2.80303,0.62376
786.62,34.74926,-0.07168615,-2.80304,0.62103
789.72,34.85313,-0.04195719,-2.80369,0.61829
792.82,34.95725,-0.02978895,-2.80355,0.61554
794.02,34.99758,-0.01893724,-2.80374,0.61448