Folder: fsri_materials_database/01_Data/Polyolefin_Carpet_Low_Pile/STA/N2/3K_min

Note: 01_Data/README.md
# Materials and Products Database
## 01_Data

Raw data generated from each apparatus are included here in plain-text format. The data is organized first by material, next by the short name of test apparatus used, and where applicable additional filtering by test settings.

### material.json

Each material directory contains a json file of the same name as the material. This file links the data stored in the repository as well as data and graphs produced by the accompanying scripts (__02_Scripts__) to the respective landing page for the material on the front-end website.

File: Polyolefin_Carpet_Low_Pile_STA_N2_3KData_220403_R1.csv
##Temp./Â°C,Time/min,Mass loss(subtr.)/mg,DSC(subtr.)/(mW/mg),Sensit./(uV/mW)
50.156,10.01667,-0.03982,0.002053339,1.048
53.356,12.31758,-0.04661529,0.05554212,1.04658
56.556,13.52469,-0.05008184,0.06521813,1.04517
59.756,14.6668,-0.05210055,0.06861594,1.04377
62.956,15.77413,-0.05750341,0.07329277,1.04237
66.156,16.86528,-0.06028963,0.07402948,1.04098
69.356,17.94142,-0.06453508,0.07716647,1.03959
72.556,19.01674,-0.06757,0.07706766,1.03821
75.756,20.09084,-0.06854534,0.07461476,1.03683
78.956,21.16788,-0.0731649,0.07497333,1.03545
82.156,22.23591,-0.0751465,0.07677969,1.03409
85.356,23.29942,-0.07777053,0.07937238,1.03272
88.556,24.37315,-0.08073521,0.07637735,1.03136
91.756,25.43375,-0.08236984,0.07882148,1.03001
94.956,26.4984,-0.08534065,0.07631599,1.02866
98.156,27.5648,-0.08861642,0.08081207,1.02731
101.356,28.6292,-0.08993495,0.08005055,1.02597
104.556,29.6817,-0.09331008,0.08325779,1.02463
107.756,30.73935,-0.09455057,0.08299737,1.02329
110.956,31.79948,-0.09685004,0.08190804,1.02196
114.156,32.84675,-0.09685005,0.08433593,1.02064
117.356,33.90609,-0.09947639,0.08306232,1.01931
120.556,34.9668,-0.09882127,0.08146748,1.01799
123.756,36.023,-0.10113,0.08565199,1.01667
126.956,37.07484,-0.10212,0.08667222,1.01536
130.156,38.12449,-0.10475,0.08336514,1.01404
133.356,39.18067,-0.10524,0.08821779,1.01273
136.556,40.23247,-0.10671,0.09576838,1.01142
139.756,41.27956,-0.10837,0.0952582,1.01012
142.956,42.32586,-0.11002,0.0996052,1.00882
146.156,43.37256,-0.10936,0.10193,1.00751
149.356,44.41751,-0.11161,0.10763,1.00621
152.556,45.4616,-0.11097,0.11537,1.00492
155.756,46.50466,-0.11265,0.13136,1.00362
158.956,47.5553,-0.1146,0.15323,1.00233
162.156,48.605,-0.1148,0.19964,1.00103
165.356,49.6517,-0.11625,0.23897,0.99974
168.556,50.69732,-0.11627,0.21349,0.99845
171.756,51.74066,-0.11659,0.12413,0.99716
174.956,52.78141,-0.11824,0.10492,0.99587
178.156,53.8247,-0.11993,0.10376,0.99458
181.356,54.86696,-0.12044,0.1079,0.99329
184.556,55.91049,-0.12011,0.10577,0.992
187.756,56.9537,-0.12104,0.10638,0.99071
190.956,57.98795,-0.12175,0.10902,0.98942
194.156,59.0254,-0.12076,0.11101,0.98812
197.356,60.0638,-0.12407,0.1066,0.98683
200.556,61.1083,-0.12339,0.1086,0.98554
203.756,62.14611,-0.1247,0.10497,0.98425
206.956,63.1838,-0.12507,0.11102,0.98295
210.156,64.21928,-0.12547,0.11197,0.98166
213.356,65.25972,-0.12602,0.10743,0.98036
216.556,66.29573,-0.12778,0.11053,0.97906
219.756,67.33208,-0.12833,0.10799,0.97776
222.956,68.3759,-0.13002,0.10455,0.97646
226.156,69.41586,-0.12833,0.10272,0.97515
229.356,70.45843,-0.13194,0.10379,0.97385
232.556,71.49091,-0.13261,0.10762,0.97254
235.756,72.52686,-0.13294,0.10518,0.97122
238.956,73.57473,-0.13305,0.10419,0.96991
242.156,74.61291,-0.13338,0.10623,0.96859
245.356,75.64975,-0.13569,0.10883,0.96727
248.556,76.69022,-0.13542,0.10783,0.96594
251.756,77.7234,-0.13731,0.10573,0.96461
254.956,78.7632,-0.13601,0.10569,0.96328
258.156,79.80605,-0.13798,0.10771,0.96194
261.356,80.84793,-0.13963,0.10551,0.9606
264.556,81.88544,-0.13865,0.10917,0.95926
267.756,82.92744,-0.14094,0.10439,0.95791
270.956,83.97375,-0.14159,0.10897,0.95656
274.156,85.01403,-0.14358,0.10494,0.9552
277.356,86.0495,-0.14325,0.10727,0.95383
280.556,87.09116,-0.14522,0.10738,0.95247
283.756,88.13166,-0.14685,0.10897,0.95109
286.956,89.16928,-0.1484,0.10868,0.94971
290.156,90.2089,-0.14972,0.10743,0.94833
293.356,91.2515,-0.15136,0.10793,0.94693
296.556,92.29366,-0.1528,0.11075,0.94554
299.756,93.33452,-0.15499,0.10802,0.94413
302.956,94.37555,-0.15882,0.11119,0.94272
306.156,95.4192,-0.16256,0.11225,0.94131
309.356,96.46274,-0.16387,0.11161,0.93989
312.556,97.50581,-0.16815,0.11311,0.93846
315.756,98.54509,-0.17038,0.11535,0.93702
318.956,99.59199,-0.17398,0.11617,0.93558
322.156,100.637,-0.1783,0.12001,0.93412
325.356,101.684,-0.18268,0.1193,0.93267
328.556,102.727,-0.1868,0.12463,0.9312
331.756,103.773,-0.19381,0.12911,0.92972
334.956,104.817,-0.20106,0.12813,0.92824
338.156,105.862,-0.20731,0.12937,0.92675
341.356,106.908,-0.21671,0.12611,0.92525
344.556,107.959,-0.22466,0.12716,0.92375
347.756,109.0117,-0.23548,0.12551,0.92223
350.956,110.062,-0.2444,0.13393,0.92071
354.156,111.105,-0.25801,0.13405,0.91917
357.356,112.157,-0.27053,0.13667,0.91763
360.556,113.208,-0.28555,0.14111,0.91608
363.756,114.252,-0.30143,0.14321,0.91452
366.956,115.302,-0.31743,0.15132,0.91295
370.156,116.354,-0.33664,0.1505,0.91137
373.356,117.401,-0.35554,0.15988,0.90978
376.556,118.452,-0.37588,0.16304,0.90818
379.756,119.5,-0.39882,0.16939,0.90657
382.956,120.547,-0.42265,0.16954,0.90496
386.156,121.5999,-0.44982,0.17456,0.90333
389.356,122.652,-0.47795,0.17741,0.90169
392.556,123.705,-0.50896,0.18539,0.90004
395.756,124.7503,-0.54154,0.19029,0.89838
398.956,125.808,-0.57934,0.19542,0.8967
402.156,126.861,-0.61739,0.20209,0.89502
405.356,127.916,-0.66081,0.21087,0.89333
408.556,128.97,-0.70671,0.21872,0.89162
411.756,130.021,-0.75883,0.23035,0.88991
414.956,131.077,-0.81834,0.24272,0.88818
418.156,132.1343,-0.88543,0.25222,0.88644
421.356,133.195,-0.95853,0.26361,0.88469
424.556,134.252,-1.03833,0.27516,0.88293
427.756,135.302,-1.12915,0.28699,0.88116
430.956,136.356,-1.22656,0.29243,0.87937
434.156,137.422,-1.33419,0.29348,0.87757
437.356,138.481,-1.44754,0.294,0.87576
440.556,139.538,-1.5644,0.2848,0.87394
443.756,140.594,-1.68358,0.2733,0.87211
446.956,141.65,-1.7937,0.24772,0.87026
450.156,142.711,-1.88988,0.21755,0.8684
453.356,143.77,-1.96574,0.16792,0.86653
456.556,144.833,-2.00851,0.10822,0.86465
459.756,145.897,-2.02239,0.08383081,0.86275
462.956,146.951,-2.02503,0.08303774,0.86084
466.156,148.012,-2.02634,0.08434655,0.85892
469.356,149.074,-2.02864,0.06083011,0.85698
472.556,150.132,-2.03029,0.05378704,0.85504
475.756,151.199,-2.03126,0.05286573,0.85308
478.956,152.263,-2.03281,0.05626582,0.8511
482.156,153.324,-2.03305,0.05205227,0.84911
485.356,154.394,-2.03456,0.05386992,0.84711
488.556,155.456,-2.03654,0.05792422,0.8451
491.756,156.516,-2.03885,0.06339153,0.84307
494.956,157.585,-2.03884,0.06278105,0.84103
498.156,158.653,-2.04152,0.06277762,0.83898
501.356,159.716,-2.04311,0.06448518,0.83691
504.556,160.781,-2.04543,0.06509993,0.83483
507.756,161.853,-2.04806,0.06440264,0.83274
510.956,162.9152,-2.05069,0.06245927,0.83063
514.156,163.983,-2.05365,0.06494846,0.82851
517.356,165.048,-2.05629,0.06468706,0.82637
520.556,166.116,-2.05591,0.06124872,0.82422
523.756,167.186,-2.05695,0.06361934,0.82206
526.956,168.25,-2.05958,0.06636706,0.81988
530.156,169.325,-2.06226,0.0635604,0.81769
533.356,170.39,-2.06499,0.06588839,0.81549
536.556,171.461,-2.06616,0.06678483,0.81327
539.756,172.534,-2.06879,0.06660876,0.81104
542.956,173.604,-2.07044,0.06778496,0.80879
546.156,174.673,-2.07471,0.06789645,0.80653
549.356,175.741,-2.07636,0.07167108,0.80426
552.556,176.811,-2.07899,0.07579234,0.80197
555.756,177.879,-2.08169,0.07687693,0.79967
558.956,178.95,-2.08491,0.07804232,0.79735
562.156,180.028,-2.08833,0.07795221,0.79503
565.356,181.101,-2.09384,0.08043294,0.79268
568.556,182.165,-2.09643,0.08624484,0.79033
571.756,183.234,-2.09906,0.09020482,0.78796
574.956,184.302,-2.10236,0.09578786,0.78557
578.156,185.3713,-2.10827,0.1048,0.78317
581.356,186.453,-2.11352,0.11534,0.78076
584.556,187.527,-2.11848,0.12996,0.77834
587.756,188.592,-2.12577,0.14153,0.7759
590.956,189.6707,-2.13297,0.15635,0.77344
594.156,190.748,-2.14252,0.17041,0.77098
597.356,191.82,-2.15397,0.17998,0.7685
600.556,192.8911,-2.16559,0.19287,0.766
603.756,193.966,-2.18012,0.20483,0.7635
606.956,195.038,-2.19462,0.2132,0.76098
610.156,196.1135,-2.21004,0.22684,0.75844
613.356,197.188,-2.22334,0.24148,0.75589
616.556,198.2656,-2.24056,0.26329,0.75333
619.756,199.342,-2.2601,0.28564,0.75076
622.956,200.421,-2.28023,0.31226,0.74817
626.156,201.495,-2.30201,0.33864,0.74557
629.356,202.5624,-2.32428,0.36973,0.74296
632.556,203.65,-2.35068,0.40033,0.74033
635.756,204.7187,-2.37754,0.4169,0.73769
638.956,205.793,-2.40532,0.41544,0.73504
642.156,206.874,-2.43289,0.39668,0.73237
645.356,207.954,-2.46127,0.41526,0.72969
648.556,209.033,-2.4915,0.45537,0.727
651.756,210.104,-2.52264,0.493,0.7243
654.956,211.18,-2.55796,0.52895,0.72158
658.156,212.262,-2.59307,0.57439,0.71886
661.356,213.342,-2.63256,0.6088,0.71612
664.556,214.412,-2.67322,0.64607,0.71336
667.756,215.493,-2.71789,0.67205,0.7106
670.956,216.576,-2.76276,0.68514,0.70782
674.156,217.656,-2.80714,0.67795,0.70503
677.356,218.729,-2.85124,0.62489,0.70223
680.556,219.808,-2.88654,0.39145,0.69942
683.756,220.893,-2.89429,0.03637729,0.69659
686.956,221.973,-2.89498,0.02957839,0.69376
690.156,223.055,-2.89634,0.0243569,0.69091
693.356,224.135,-2.89626,0.02006529,0.68805
696.556,225.2187,-2.89561,0.02150377,0.68518
699.756,226.304,-2.89591,0.01521995,0.6823
702.956,227.383,-2.89692,0.0118141,0.67941
706.156,228.468,-2.8983,0.01573443,0.6765
709.356,229.547,-2.89989,0.01792609,0.67359
712.556,230.6297,-2.89802,0.0208027,0.67067
715.756,231.712,-2.89757,0.02792533,0.66773
718.956,232.788,-2.89953,0.03263956,0.66478
722.156,233.875,-2.90048,0.02949227,0.66183
725.356,234.953,-2.90044,0.03814396,0.65886
728.556,236.038,-2.90086,0.04177906,0.65589
731.756,237.122,-2.90087,0.0438049,0.6529
734.956,238.205,-2.89955,0.04384897,0.64991
738.156,239.288,-2.89978,0.04411195,0.6469
741.356,240.371,-2.90021,0.04806843,0.64389
744.556,241.452,-2.90052,0.05295465,0.64086
747.756,242.536,-2.89958,0.05058785,0.63783
750.956,243.618,-2.89922,0.04676369,0.63479
754.156,244.701,-2.90022,0.048391,0.63174
757.356,245.777,-2.90021,0.04755147,0.62868
760.556,246.862,-2.89869,0.04732028,0.62561
763.756,247.953,-2.89856,0.04837451,0.62254
766.956,249.038,-2.89856,0.05285619,0.61945
770.156,250.117,-2.89692,0.0577703,0.61636
773.356,251.207,-2.89824,0.04896327,0.61326
776.556,252.294,-2.89857,0.04442599,0.61015
779.756,253.379,-2.89679,0.05054038,0.60704
782.956,254.4535,-2.89594,0.04560608,0.60391
786.156,255.541,-2.89527,0.04718439,0.60078
789.356,256.628,-2.89692,0.05254736,0.59764
792.556,257.707,-2.89702,0.04900506,0.5945
795.756,258.793,-2.89692,0.05556775,0.59135
798.956,259.886,-2.89724,0.05372712,0.58819
799.256,259.989,-2.89725,0.05273347,0.58789