Folder: fsri_materials_database/01_Data/Polyester_Fabric/FTIR/ATR

Note: 01_Data/README.md
# Materials and Products Database
## 01_Data

Raw data generated from each apparatus are included here in plain-text format. The data is organized first by material, next by the short name of test apparatus used, and where applicable additional filtering by test settings.

### material.json

Each material directory contains a json file of the same name as the material. This file links the data stored in the repository as well as data and graphs produced by the accompanying scripts (__02_Scripts__) to the respective landing page for the material on the front-end website.

File: Polyester_Fabric_ATR_210608_R3.tst
4497.79,0.01919
4484.29,0.01968
4470.79,0.01934
4457.29,0.01956
4443.79,0.01983
4430.28,0.01959
4416.78,0.01981
4403.28,0.01998
4389.78,0.01984
4376.28,0.01996
4362.78,0.01994
4349.28,0.01992
4335.78,0.02015
4322.28,0.02026
4308.77,0.02036
4295.27,0.02044
4281.77,0.02062
4268.27,0.02043
4254.77,0.02047
4241.27,0.02061
4227.77,0.02065
4214.27,0.02062
4200.77,0.02082
4187.26,0.02068
4173.76,0.02092
4160.26,0.02084
4146.76,0.02082
4133.26,0.02128
4119.76,0.02113
4106.26,0.02141
4092.76,0.02140
4079.26,0.02184
4065.75,0.02143
4052.25,0.02142
4038.75,0.02150
4025.25,0.02198
4011.75,0.02210
3998.25,0.02178
3984.75,0.02217
3971.25,0.02299
3957.75,0.02318
3944.25,0.02413
3930.74,0.02539
3917.24,0.02491
3903.74,0.02892
3890.24,0.02503
3876.74,0.02423
3863.24,0.02811
3849.74,0.02608
3836.24,0.02826
3822.74,0.02776
3809.23,0.02380
3795.73,0.02437
3782.23,0.02385
3768.73,0.02566
3755.23,0.02752
3741.73,0.02868
3728.23,0.02646
3714.73,0.02557
3701.23,0.02379
3687.72,0.02623
3674.22,0.02820
3660.72,0.02337
3647.22,0.02930
3633.72,0.02526
3620.22,0.02801
3606.72,0.02605
3593.22,0.02545
3579.72,0.02438
3566.21,0.02970
3552.71,0.02522
3539.21,0.02366
3525.71,0.02698
3512.21,0.02389
3498.71,0.02369
3485.21,0.02372
3471.71,0.02257
3458.21,0.02317
3444.7,0.02404
3431.2,0.02378
3417.7,0.02349
3404.2,0.02298
3390.7,0.02311
3377.2,0.02270
3363.7,0.02331
3350.2,0.02261
3336.7,0.02345
3323.2,0.02310
3309.69,0.02347
3296.19,0.02320
3282.69,0.02335
3269.19,0.02326
3255.69,0.02338
3242.19,0.02325
3228.69,0.02334
3215.19,0.02334
3201.69,0.02322
3188.18,0.02322
3174.68,0.02341
3161.18,0.02315
3147.68,0.02326
3134.18,0.02362
3120.68,0.02396
3107.18,0.02407
3093.68,0.02401
3080.18,0.02458
3066.67,0.02459
3053.17,0.02476
3039.67,0.02400
3026.17,0.02419
3012.67,0.02516
2999.17,0.02522
2985.67,0.02607
2972.17,0.02850
2958.67,0.02851
2945.16,0.02697
2931.66,0.02654
2918.16,0.02705
2904.66,0.02773
2891.16,0.02661
2877.66,0.02629
2864.16,0.02621
2850.66,0.02639
2837.16,0.02552
2823.66,0.02500
2810.15,0.02519
2796.65,0.02502
2783.15,0.02489
2769.65,0.02482
2756.15,0.02476
2742.65,0.02480
2729.15,0.02467
2715.65,0.02459
2702.15,0.02453
2688.64,0.02451
2675.14,0.02446
2661.64,0.02449
2648.14,0.02403
2634.64,0.02368
2621.14,0.02338
2607.64,0.02301
2594.14,0.02308
2580.64,0.02307
2567.13,0.02286
2553.63,0.02277
2540.13,0.02256
2526.63,0.02246
2513.13,0.02241
2499.63,0.02230
2486.13,0.02219
2472.63,0.02213
2459.13,0.02221
2445.62,0.02196
2432.12,0.02224
2418.62,0.02232
2405.12,0.02249
2391.62,0.02266
2378.12,0.02317
2364.62,0.01700
2351.12,0.02102
2337.62,0.01781
2324.12,0.02145
2310.61,0.02343
2297.11,0.02236
2283.61,0.02201
2270.11,0.02122
2256.61,0.02125
2243.11,0.02094
2229.61,0.02068
2216.11,0.02051
2202.61,0.01996
2189.1,0.01901
2175.6,0.01845
2162.1,0.01834
2148.6,0.01900
2135.1,0.01951
2121.6,0.01969
2108.1,0.01961
2094.6,0.01997
2081.1,0.02014
2067.59,0.02008
2054.09,0.01932
2040.59,0.01917
2027.09,0.01844
2013.59,0.01896
2000.09,0.01858
1986.59,0.01938
1973.09,0.01835
1959.59,0.01969
1946.08,0.02054
1932.58,0.01918
1919.08,0.01995
1905.58,0.01846
1892.08,0.01846
1878.58,0.01721
1865.08,0.01849
1851.58,0.01734
1838.08,0.01833
1824.57,0.01950
1811.07,0.01921
1797.57,0.01973
1784.07,0.01757
1770.57,0.01943
1757.07,0.01802
1743.57,0.03920
1730.07,0.12155
1716.57,0.23206
1703.07,0.14472
1689.56,0.07285
1676.06,0.05662
1662.56,0.04406
1649.06,0.04240
1635.56,0.03758
1622.06,0.03464
1608.56,0.03222
1595.06,0.02878
1581.56,0.03049
1568.05,0.03045
1554.55,0.03255
1541.05,0.03887
1527.55,0.03241
1514.05,0.03181
1500.55,0.03589
1487.05,0.02883
1473.55,0.03928
1460.05,0.03419
1446.54,0.03227
1433.04,0.02895
1419.54,0.03195
1406.04,0.06362
1392.54,0.03583
1379.04,0.03419
1365.54,0.03203
1352.04,0.03020
1338.54,0.08438
1325.03,0.02923
1311.53,0.03530
1298.03,0.05613
1284.53,0.09685
1271.03,0.15524
1257.53,0.21766
1244.03,0.27252
1230.53,0.18509
1217.03,0.10725
1203.53,0.07104
1190.02,0.05084
1176.52,0.04965
1163.02,0.04363
1149.52,0.05068
1136.02,0.09813
1122.52,0.18524
1109.02,0.19510
1095.52,0.23050
1082.02,0.16998
1068.51,0.10000
1055.01,0.07553
1041.51,0.07225
1028.01,0.07164
1014.51,0.13115
1001.01,0.06406
987.508,0.05627
974.007,0.07017
960.506,0.05910
947.005,0.04577
933.503,0.04100
920.002,0.03815
906.501,0.04134
893,0.04375
879.499,0.05723
865.998,0.06207
852.497,0.06241
838.996,0.05505
825.495,0.04180
811.994,0.03912
798.493,0.04036
784.992,0.03741
771.49,0.03130
757.989,0.02670
744.488,0.02981
730.987,0.18722
717.486,0.17142
703.985,0.07437
690.484,0.04951
676.983,0.04507
663.482,0.03944
649.981,0.03571
636.48,0.03564
622.979,0.03426
609.477,0.03377
599.834,0.03461

File: Polyester_Fabric_ATR_210608_R4.tst
4497.79,0.02006
4484.29,0.02042
4470.79,0.02044
4457.29,0.02066
4443.79,0.02093
4430.28,0.02077
4416.78,0.02099
4403.28,0.02095
4389.78,0.02108
4376.28,0.02085
4362.78,0.02093
4349.28,0.02111
4335.78,0.02123
4322.28,0.02129
4308.77,0.02124
4295.27,0.02116
4281.77,0.02123
4268.27,0.02137
4254.77,0.02156
4241.27,0.02134
4227.77,0.02156
4214.27,0.02154
4200.77,0.02169
4187.26,0.02167
4173.76,0.02175
4160.26,0.02188
4146.76,0.02198
4133.26,0.02195
4119.76,0.02196
4106.26,0.02251
4092.76,0.02222
4079.26,0.02243
4065.75,0.02222
4052.25,0.02230
4038.75,0.02230
4025.25,0.02275
4011.75,0.02284
3998.25,0.02265
3984.75,0.02298
3971.25,0.02378
3957.75,0.02380
3944.25,0.02503
3930.74,0.02598
3917.24,0.02584
3903.74,0.03038
3890.24,0.02602
3876.74,0.02500
3863.24,0.02880
3849.74,0.02694
3836.24,0.02901
3822.74,0.02838
3809.23,0.02486
3795.73,0.02525
3782.23,0.02480
3768.73,0.02655
3755.23,0.02846
3741.73,0.02962
3728.23,0.02753
3714.73,0.02639
3701.23,0.02476
3687.72,0.02724
3674.22,0.02918
3660.72,0.02419
3647.22,0.03010
3633.72,0.02618
3620.22,0.02908
3606.72,0.02682
3593.22,0.02618
3579.72,0.02530
3566.21,0.03117
3552.71,0.02622
3539.21,0.02462
3525.71,0.02780
3512.21,0.02472
3498.71,0.02461
3485.21,0.02453
3471.71,0.02357
3458.21,0.02398
3444.7,0.02520
3431.2,0.02470
3417.7,0.02446
3404.2,0.02381
3390.7,0.02405
3377.2,0.02379
3363.7,0.02433
3350.2,0.02375
3336.7,0.02451
3323.2,0.02402
3309.69,0.02451
3296.19,0.02429
3282.69,0.02445
3269.19,0.02434
3255.69,0.02447
3242.19,0.02428
3228.69,0.02441
3215.19,0.02418
3201.69,0.02440
3188.18,0.02426
3174.68,0.02441
3161.18,0.02417
3147.68,0.02429
3134.18,0.02452
3120.68,0.02505
3107.18,0.02489
3093.68,0.02488
3080.18,0.02548
3066.67,0.02567
3053.17,0.02564
3039.67,0.02489
3026.17,0.02492
3012.67,0.02602
2999.17,0.02624
2985.67,0.02698
2972.17,0.02963
2958.67,0.02954
2945.16,0.02807
2931.66,0.02766
2918.16,0.02836
2904.66,0.02871
2891.16,0.02769
2877.66,0.02727
2864.16,0.02719
2850.66,0.02753
2837.16,0.02640
2823.66,0.02595
2810.15,0.02589
2796.65,0.02583
2783.15,0.02574
2769.65,0.02555
2756.15,0.02549
2742.65,0.02546
2729.15,0.02539
2715.65,0.02527
2702.15,0.02524
2688.64,0.02517
2675.14,0.02514
2661.64,0.02510
2648.14,0.02476
2634.64,0.02440
2621.14,0.02414
2607.64,0.02382
2594.14,0.02381
2580.64,0.02372
2567.13,0.02348
2553.63,0.02342
2540.13,0.02332
2526.63,0.02319
2513.13,0.02294
2499.63,0.02300
2486.13,0.02285
2472.63,0.02284
2459.13,0.02273
2445.62,0.02262
2432.12,0.02293
2418.62,0.02297
2405.12,0.02315
2391.62,0.02324
2378.12,0.02366
2364.62,0.01737
2351.12,0.02177
2337.62,0.01855
2324.12,0.02188
2310.61,0.02378
2297.11,0.02300
2283.61,0.02273
2270.11,0.02183
2256.61,0.02178
2243.11,0.02168
2229.61,0.02125
2216.11,0.02067
2202.61,0.02008
2189.1,0.01937
2175.6,0.01909
2162.1,0.01847
2148.6,0.01985
2135.1,0.01998
2121.6,0.02014
2108.1,0.02009
2094.6,0.02042
2081.1,0.02033
2067.59,0.02048
2054.09,0.01972
2040.59,0.01958
2027.09,0.01860
2013.59,0.01933
2000.09,0.01932
1986.59,0.02001
1973.09,0.01926
1959.59,0.02048
1946.08,0.02097
1932.58,0.01944
1919.08,0.02037
1905.58,0.01909
1892.08,0.01920
1878.58,0.01785
1865.08,0.01906
1851.58,0.01785
1838.08,0.01881
1824.57,0.02015
1811.07,0.01975
1797.57,0.02024
1784.07,0.01801
1770.57,0.01992
1757.07,0.01863
1743.57,0.04005
1730.07,0.12219
1716.57,0.22890
1703.07,0.14271
1689.56,0.07365
1676.06,0.05764
1662.56,0.04547
1649.06,0.04402
1635.56,0.03906
1622.06,0.03596
1608.56,0.03338
1595.06,0.02991
1581.56,0.03156
1568.05,0.03151
1554.55,0.03386
1541.05,0.04043
1527.55,0.03372
1514.05,0.03293
1500.55,0.03711
1487.05,0.02977
1473.55,0.04028
1460.05,0.03516
1446.54,0.03332
1433.04,0.02991
1419.54,0.03316
1406.04,0.06451
1392.54,0.03689
1379.04,0.03531
1365.54,0.03308
1352.04,0.03102
1338.54,0.08627
1325.03,0.03029
1311.53,0.03610
1298.03,0.05625
1284.53,0.09565
1271.03,0.15194
1257.53,0.21336
1244.03,0.27197
1230.53,0.19307
1217.03,0.11484
1203.53,0.07637
1190.02,0.05378
1176.52,0.05128
1163.02,0.04441
1149.52,0.05088
1136.02,0.09715
1122.52,0.18576
1109.02,0.19762
1095.52,0.23439
1082.02,0.17758
1068.51,0.10842
1055.01,0.08232
1041.51,0.07769
1028.01,0.07485
1014.51,0.14003
1001.01,0.07127
987.508,0.06217
974.007,0.07578
960.506,0.06583
947.005,0.05129
933.503,0.04580
920.002,0.04247
906.501,0.04519
893,0.04759
879.499,0.06042
865.998,0.06551
852.497,0.06642
838.996,0.05917
825.495,0.04539
811.994,0.04234
798.493,0.04339
784.992,0.04103
771.49,0.03390
757.989,0.02817
744.488,0.03178
730.987,0.18776
717.486,0.17394
703.985,0.07782
690.484,0.05250
676.983,0.04791
663.482,0.04261
649.981,0.03946
636.48,0.03956
622.979,0.03698
609.477,0.03722
599.834,0.03802