Folder: fsri_materials_database/01_Data/Polyester_Fabric/FTIR/IS (part 3)

File: Polyester_Fabric_IS_T_221019_R4.dpt
7497.03,0.02104
7473.88,0.01791
7450.74,0.03044
7427.59,0.01436
7404.45,0.02234
7381.31,0.02208
7358.16,0.02024
7335.02,0.01367
7311.87,0.03165
7288.73,0.02172
7265.58,0.02521
7242.44,0.02153
7219.29,0.01977
7196.15,0.01955
7173,0.02344
7149.86,0.02321
7126.71,0.02320
7103.57,0.02595
7080.42,0.02141
7057.28,0.02151
7034.13,0.02366
7010.99,0.02246
6987.84,0.02115
6964.7,0.02828
6941.55,0.02118
6918.41,0.01935
6895.26,0.02412
6872.12,0.02301
6848.97,0.02699
6825.83,0.01865
6802.68,0.02030
6779.54,0.02381
6756.39,0.02320
6733.25,0.02461
6710.1,0.02531
6686.96,0.01893
6663.81,0.02335
6640.67,0.02181
6617.52,0.02192
6594.38,0.02374
6571.23,0.02705
6548.09,0.01980
6524.94,0.02595
6501.8,0.02112
6478.65,0.02545
6455.51,0.02550
6432.36,0.02515
6409.22,0.02375
6386.07,0.02137
6362.93,0.02189
6339.78,0.02194
6316.64,0.02354
6293.49,0.02347
6270.35,0.02253
6247.2,0.02337
6224.06,0.02114
6200.91,0.02342
6177.77,0.02383
6154.62,0.02020
6131.48,0.02367
6108.33,0.02230
6085.19,0.02562
6062.04,0.02106
6038.9,0.02115
6015.75,0.02141
5992.61,0.02085
5969.46,0.02259
5946.32,0.02100
5923.17,0.02350
5900.03,0.02131
5876.88,0.02160
5853.74,0.02142
5830.59,0.02150
5807.45,0.01967
5784.3,0.02284
5761.16,0.02188
5738.01,0.02091
5714.87,0.02240
5691.72,0.01980
5668.58,0.02240
5645.44,0.02061
5622.29,0.02145
5599.15,0.02057
5576,0.02254
5552.86,0.02171
5529.71,0.02035
5506.57,0.02180
5483.42,0.02203
5460.28,0.02229
5437.13,0.02100
5413.99,0.02241
5390.84,0.02319
5367.7,0.02286
5344.55,0.02283
5321.41,0.02078
5298.26,0.02251
5275.12,0.02137
5251.97,0.02089
5228.83,0.01992
5205.68,0.02128
5182.54,0.02229
5159.39,0.02064
5136.25,0.02063
5113.1,0.02325
5089.96,0.02112
5066.81,0.02264
5043.67,0.02131
5020.52,0.02228
4997.38,0.02166
4974.23,0.02262
4951.09,0.02304
4927.94,0.02307
4904.8,0.02185
4881.65,0.02156
4858.51,0.02222
4835.36,0.02120
4812.22,0.02285
4789.07,0.02279
4765.93,0.02266
4742.78,0.02160
4719.64,0.02194
4696.49,0.02166
4673.35,0.02232
4650.2,0.02277
4627.06,0.02273
4603.91,0.02148
4580.77,0.02278
4557.62,0.02297
4534.48,0.02162
4511.33,0.02239
4488.19,0.02353
4465.04,0.02194
4441.9,0.02151
4418.75,0.02277
4395.61,0.02294
4372.46,0.02285
4349.32,0.02260
4326.17,0.02257
4303.03,0.02263
4279.88,0.02280
4256.74,0.02319
4233.59,0.02241
4210.45,0.02293
4187.3,0.02281
4164.16,0.02361
4141.01,0.02276
4117.87,0.02320
4094.72,0.02251
4071.58,0.02232
4048.43,0.02306
4025.29,0.02233
4002.14,0.02267
3979,0.02299
3955.85,0.02290
3932.71,0.02323
3909.57,0.02292
3886.42,0.02285
3863.28,0.02274
3840.13,0.02341
3816.99,0.02355
3793.84,0.02307
3770.7,0.02310
3747.55,0.02273
3724.41,0.02311
3701.26,0.02271
3678.12,0.02231
3654.97,0.02271
3631.83,0.02282
3608.68,0.02233
3585.54,0.02220
3562.39,0.02133
3539.25,0.02103
3516.1,0.02076
3492.96,0.02104
3469.81,0.02105
3446.67,0.02089
3423.52,0.02074
3400.38,0.02035
3377.23,0.02066
3354.09,0.02022
3330.94,0.02036
3307.8,0.02020
3284.65,0.02057
3261.51,0.02060
3238.36,0.02065
3215.22,0.02114
3192.07,0.02117
3168.93,0.02172
3145.78,0.02171
3122.64,0.02065
3099.49,0.02118
3076.35,0.02115
3053.2,0.02102
3030.06,0.02081
3006.91,0.02143
2983.77,0.02095
2960.62,0.02031
2937.48,0.01957
2914.33,0.02074
2891.19,0.02104
2868.04,0.02081
2844.9,0.02126
2821.75,0.02151
2798.61,0.02187
2775.46,0.02200
2752.32,0.02171
2729.17,0.02182
2706.03,0.02177
2682.88,0.02201
2659.74,0.02163
2636.59,0.02179
2613.45,0.02185
2590.3,0.02169
2567.16,0.02227
2544.01,0.02233
2520.87,0.02200
2497.72,0.02180
2474.58,0.02182
2451.43,0.02169
2428.29,0.02176
2405.14,0.02220
2382,0.02142
2358.85,0.02155
2335.71,0.02179
2312.56,0.02169
2289.42,0.02205
2266.27,0.02130
2243.13,0.02173
2219.98,0.02163
2196.84,0.02162
2173.7,0.02145
2150.55,0.02179
2127.41,0.02166
2104.26,0.02144
2081.12,0.02142
2057.97,0.02147
2034.83,0.02160
2011.68,0.02135
1988.54,0.02131
1965.39,0.02128
1942.25,0.02131
1919.1,0.02150
1895.96,0.02097
1872.81,0.02139
1849.67,0.02074
1826.52,0.02085
1803.38,0.01992
1780.23,0.01974
1757.09,0.01811
1733.94,0.02005
1710.8,0.02107
1687.65,0.01946
1664.51,0.01874
1641.36,0.01879
1618.22,0.01922
1595.07,0.01901
1571.93,0.01883
1548.78,0.01856
1525.64,0.01885
1502.49,0.01914
1479.35,0.01870
1456.2,0.01894
1433.06,0.01928
1409.91,0.01835
1386.77,0.01855
1363.62,0.01876
1340.48,0.01816
1317.33,0.01725
1294.19,0.01805
1271.04,0.01947
1247.9,0.02027
1224.75,0.01927
1201.61,0.01866
1178.46,0.01800
1155.32,0.01763
1132.17,0.01812
1109.03,0.01909
1085.88,0.01811
1062.74,0.01984
1039.59,0.01940
1016.45,0.01969
993.303,0.02087
970.158,0.02035
947.014,0.02023
923.869,0.01957
900.724,0.01918
877.579,0.01926
854.434,0.01876
831.289,0.01833
808.144,0.01892
784.999,0.01903
761.854,0.01798
738.709,0.01889
715.564,0.01754
692.419,0.01872
669.274,0.01664
646.129,0.01755
622.984,0.01407
599.84,0.01796

File: Polyester_Fabric_IS_T_221019_R5.dpt
7497.03,0.02615
7473.88,0.01917
7450.74,0.02334
7427.59,0.03437
7404.45,0.02127
7381.31,0.02964
7358.16,0.02361
7335.02,0.01813
7311.87,0.01461
7288.73,0.02155
7265.58,0.02109
7242.44,0.02574
7219.29,0.01897
7196.15,0.02470
7173,0.02526
7149.86,0.02215
7126.71,0.02311
7103.57,0.02358
7080.42,0.02514
7057.28,0.02493
7034.13,0.01882
7010.99,0.02261
6987.84,0.02129
6964.7,0.02344
6941.55,0.02935
6918.41,0.02445
6895.26,0.02307
6872.12,0.02453
6848.97,0.02623
6825.83,0.02296
6802.68,0.02582
6779.54,0.02426
6756.39,0.02636
6733.25,0.02458
6710.1,0.02398
6686.96,0.01809
6663.81,0.02058
6640.67,0.01802
6617.52,0.02307
6594.38,0.01969
6571.23,0.02142
6548.09,0.02543
6524.94,0.02381
6501.8,0.02432
6478.65,0.02424
6455.51,0.02508
6432.36,0.01759
6409.22,0.02863
6386.07,0.02145
6362.93,0.02528
6339.78,0.02374
6316.64,0.02290
6293.49,0.02089
6270.35,0.02074
6247.2,0.02109
6224.06,0.02251
6200.91,0.02215
6177.77,0.02153
6154.62,0.02156
6131.48,0.02060
6108.33,0.02011
6085.19,0.02024
6062.04,0.02279
6038.9,0.02176
6015.75,0.02291
5992.61,0.02165
5969.46,0.01960
5946.32,0.02029
5923.17,0.02436
5900.03,0.02265
5876.88,0.02434
5853.74,0.02296
5830.59,0.02158
5807.45,0.02188
5784.3,0.02108
5761.16,0.02148
5738.01,0.02105
5714.87,0.02214
5691.72,0.02257
5668.58,0.02246
5645.44,0.02158
5622.29,0.02179
5599.15,0.02221
5576,0.02104
5552.86,0.02251
5529.71,0.02054
5506.57,0.02287
5483.42,0.02365
5460.28,0.02108
5437.13,0.02245
5413.99,0.02233
5390.84,0.02431
5367.7,0.02129
5344.55,0.02153
5321.41,0.02186
5298.26,0.02324
5275.12,0.02069
5251.97,0.02186
5228.83,0.02168
5205.68,0.02157
5182.54,0.02175
5159.39,0.02034
5136.25,0.02226
5113.1,0.02230
5089.96,0.02140
5066.81,0.02327
5043.67,0.02184
5020.52,0.02157
4997.38,0.02236
4974.23,0.02191
4951.09,0.02132
4927.94,0.02201
4904.8,0.02289
4881.65,0.02314
4858.51,0.02241
4835.36,0.02306
4812.22,0.02213
4789.07,0.02240
4765.93,0.02200
4742.78,0.02205
4719.64,0.02190
4696.49,0.02047
4673.35,0.02204
4650.2,0.02225
4627.06,0.02205
4603.91,0.02215
4580.77,0.02273
4557.62,0.02203
4534.48,0.02194
4511.33,0.02249
4488.19,0.02284
4465.04,0.02239
4441.9,0.02209
4418.75,0.02192
4395.61,0.02225
4372.46,0.02234
4349.32,0.02115
4326.17,0.02217
4303.03,0.02264
4279.88,0.02272
4256.74,0.02180
4233.59,0.02261
4210.45,0.02171
4187.3,0.02268
4164.16,0.02323
4141.01,0.02188
4117.87,0.02254
4094.72,0.02305
4071.58,0.02308
4048.43,0.02262
4025.29,0.02208
4002.14,0.02251
3979,0.02203
3955.85,0.02253
3932.71,0.02279
3909.57,0.02232
3886.42,0.02268
3863.28,0.02299
3840.13,0.02328
3816.99,0.02291
3793.84,0.02207
3770.7,0.02231
3747.55,0.02270
3724.41,0.02233
3701.26,0.02263
3678.12,0.02181
3654.97,0.02210
3631.83,0.02236
3608.68,0.02201
3585.54,0.02166
3562.39,0.02069
3539.25,0.02108
3516.1,0.02131
3492.96,0.02060
3469.81,0.02082
3446.67,0.02074
3423.52,0.02087
3400.38,0.02025
3377.23,0.02012
3354.09,0.02035
3330.94,0.02025
3307.8,0.01960
3284.65,0.02117
3261.51,0.02105
3238.36,0.02137
3215.22,0.02093
3192.07,0.02068
3168.93,0.02071
3145.78,0.02090
3122.64,0.02036
3099.49,0.02099
3076.35,0.02109
3053.2,0.02043
3030.06,0.02057
3006.91,0.02082
2983.77,0.02016
2960.62,0.01968
2937.48,0.02031
2914.33,0.01988
2891.19,0.02061
2868.04,0.02017
2844.9,0.02105
2821.75,0.02114
2798.61,0.02165
2775.46,0.02114
2752.32,0.02146
2729.17,0.02105
2706.03,0.02099
2682.88,0.02149
2659.74,0.02115
2636.59,0.02154
2613.45,0.02164
2590.3,0.02157
2567.16,0.02144
2544.01,0.02123
2520.87,0.02156
2497.72,0.02127
2474.58,0.02120
2451.43,0.02149
2428.29,0.02149
2405.14,0.02141
2382,0.02111
2358.85,0.02125
2335.71,0.02150
2312.56,0.02145
2289.42,0.02160
2266.27,0.02144
2243.13,0.02119
2219.98,0.02151
2196.84,0.02095
2173.7,0.02124
2150.55,0.02137
2127.41,0.02112
2104.26,0.02138
2081.12,0.02099
2057.97,0.02132
2034.83,0.02108
2011.68,0.02091
1988.54,0.02129
1965.39,0.02099
1942.25,0.02086
1919.1,0.02140
1895.96,0.02109
1872.81,0.02049
1849.67,0.02073
1826.52,0.02037
1803.38,0.02000
1780.23,0.01929
1757.09,0.01803
1733.94,0.01987
1710.8,0.02062
1687.65,0.01920
1664.51,0.01839
1641.36,0.01827
1618.22,0.01865
1595.07,0.01843
1571.93,0.01863
1548.78,0.01815
1525.64,0.01851
1502.49,0.01876
1479.35,0.01834
1456.2,0.01916
1433.06,0.01862
1409.91,0.01818
1386.77,0.01791
1363.62,0.01839
1340.48,0.01783
1317.33,0.01714
1294.19,0.01762
1271.04,0.01927
1247.9,0.02014
1224.75,0.01914
1201.61,0.01854
1178.46,0.01820
1155.32,0.01761
1132.17,0.01839
1109.03,0.01848
1085.88,0.01860
1062.74,0.01947
1039.59,0.01968
1016.45,0.01933
993.303,0.02071
970.158,0.02046
947.014,0.02031
923.869,0.01957
900.724,0.01969
877.579,0.01864
854.434,0.01911
831.289,0.01854
808.144,0.01802
784.999,0.01862
761.854,0.01878
738.709,0.01847
715.564,0.01741
692.419,0.01802
669.274,0.01771
646.129,0.01870
622.984,0.01700
599.84,0.01400

File: Polyester_Fabric_IS_T_221019_R6.dpt
7497.03,0.02289
7473.88,0.02335
7450.74,0.01889
7427.59,0.02931
7404.45,0.02457
7381.31,0.02028
7358.16,0.03077
7335.02,0.02618
7311.87,0.02046
7288.73,0.02133
7265.58,0.02062
7242.44,0.02730
7219.29,0.02415
7196.15,0.02150
7173,0.02613
7149.86,0.02481
7126.71,0.02839
7103.57,0.02453
7080.42,0.02212
7057.28,0.02890
7034.13,0.02549
7010.99,0.01873
6987.84,0.02298
6964.7,0.02566
6941.55,0.02037
6918.41,0.02136
6895.26,0.02352
6872.12,0.01939
6848.97,0.02379
6825.83,0.01725
6802.68,0.02501
6779.54,0.02207
6756.39,0.02354
6733.25,0.02337
6710.1,0.02538
6686.96,0.02425
6663.81,0.02429
6640.67,0.02181
6617.52,0.01975
6594.38,0.02189
6571.23,0.02562
6548.09,0.02461
6524.94,0.01988
6501.8,0.02561
6478.65,0.01884
6455.51,0.02211
6432.36,0.02170
6409.22,0.02451
6386.07,0.02304
6362.93,0.02120
6339.78,0.02137
6316.64,0.02441
6293.49,0.02146
6270.35,0.02197
6247.2,0.02120
6224.06,0.02079
6200.91,0.02372
6177.77,0.02195
6154.62,0.02567
6131.48,0.02331
6108.33,0.02289
6085.19,0.02231
6062.04,0.02176
6038.9,0.02270
6015.75,0.02377
5992.61,0.01929
5969.46,0.01800
5946.32,0.02167
5923.17,0.02124
5900.03,0.02307
5876.88,0.02069
5853.74,0.02219
5830.59,0.01843
5807.45,0.02531
5784.3,0.02468
5761.16,0.02153
5738.01,0.02097
5714.87,0.02281
5691.72,0.02200
5668.58,0.02170
5645.44,0.02163
5622.29,0.02386
5599.15,0.02302
5576,0.02148
5552.86,0.02336
5529.71,0.02185
5506.57,0.02179
5483.42,0.02126
5460.28,0.02239
5437.13,0.02322
5413.99,0.02410
5390.84,0.02186
5367.7,0.02236
5344.55,0.02147
5321.41,0.02328
5298.26,0.02272
5275.12,0.02316
5251.97,0.02238
5228.83,0.02202
5205.68,0.02268
5182.54,0.02300
5159.39,0.02237
5136.25,0.02216
5113.1,0.02236
5089.96,0.02330
5066.81,0.02241
5043.67,0.02243
5020.52,0.02130
4997.38,0.02142
4974.23,0.02151
4951.09,0.02205
4927.94,0.02330
4904.8,0.02099
4881.65,0.02213
4858.51,0.02181
4835.36,0.02274
4812.22,0.02195
4789.07,0.02170
4765.93,0.02274
4742.78,0.02253
4719.64,0.02221
4696.49,0.02285
4673.35,0.02216
4650.2,0.02241
4627.06,0.02283
4603.91,0.02275
4580.77,0.02275
4557.62,0.02308
4534.48,0.02254
4511.33,0.02259
4488.19,0.02261
4465.04,0.02259
4441.9,0.02306
4418.75,0.02292
4395.61,0.02239
4372.46,0.02262
4349.32,0.02250
4326.17,0.02202
4303.03,0.02238
4279.88,0.02331
4256.74,0.02292
4233.59,0.02403
4210.45,0.02375
4187.3,0.02301
4164.16,0.02330
4141.01,0.02291
4117.87,0.02326
4094.72,0.02312
4071.58,0.02295
4048.43,0.02315
4025.29,0.02332
4002.14,0.02321
3979,0.02287
3955.85,0.02303
3932.71,0.02248
3909.57,0.02343
3886.42,0.02288
3863.28,0.02364
3840.13,0.02406
3816.99,0.02276
3793.84,0.02312
3770.7,0.02349
3747.55,0.02404
3724.41,0.02408
3701.26,0.02272
3678.12,0.02288
3654.97,0.02264
3631.83,0.02220
3608.68,0.02197
3585.54,0.02270
3562.39,0.02206
3539.25,0.02164
3516.1,0.02156
3492.96,0.02148
3469.81,0.02129
3446.67,0.02107
3423.52,0.02117
3400.38,0.02056
3377.23,0.02091
3354.09,0.02092
3330.94,0.02094
3307.8,0.02072
3284.65,0.02056
3261.51,0.02093
3238.36,0.02127
3215.22,0.02140
3192.07,0.02057
3168.93,0.02094
3145.78,0.02196
3122.64,0.02132
3099.49,0.02160
3076.35,0.02116
3053.2,0.02105
3030.06,0.02075
3006.91,0.02074
2983.77,0.02058
2960.62,0.02059
2937.48,0.02020
2914.33,0.02094
2891.19,0.02130
2868.04,0.02139
2844.9,0.02184
2821.75,0.02192
2798.61,0.02202
2775.46,0.02219
2752.32,0.02170
2729.17,0.02158
2706.03,0.02186
2682.88,0.02231
2659.74,0.02172
2636.59,0.02179
2613.45,0.02211
2590.3,0.02210
2567.16,0.02220
2544.01,0.02235
2520.87,0.02209
2497.72,0.02220
2474.58,0.02182
2451.43,0.02187
2428.29,0.02204
2405.14,0.02208
2382,0.02214
2358.85,0.02185
2335.71,0.02178
2312.56,0.02196
2289.42,0.02181
2266.27,0.02164
2243.13,0.02179
2219.98,0.02166
2196.84,0.02200
2173.7,0.02189
2150.55,0.02204
2127.41,0.02199
2104.26,0.02224
2081.12,0.02175
2057.97,0.02160
2034.83,0.02189
2011.68,0.02159
1988.54,0.02190
1965.39,0.02148
1942.25,0.02211
1919.1,0.02156
1895.96,0.02078
1872.81,0.02151
1849.67,0.02154
1826.52,0.02103
1803.38,0.02095
1780.23,0.01982
1757.09,0.01820
1733.94,0.02024
1710.8,0.02092
1687.65,0.01970
1664.51,0.01899
1641.36,0.01886
1618.22,0.01910
1595.07,0.01938
1571.93,0.01870
1548.78,0.01830
1525.64,0.01894
1502.49,0.01917
1479.35,0.01873
1456.2,0.01921
1433.06,0.01888
1409.91,0.01902
1386.77,0.01862
1363.62,0.01855
1340.48,0.01846
1317.33,0.01734
1294.19,0.01825
1271.04,0.01967
1247.9,0.02082
1224.75,0.02008
1201.61,0.01898
1178.46,0.01814
1155.32,0.01776
1132.17,0.01873
1109.03,0.01920
1085.88,0.01915
1062.74,0.02072
1039.59,0.02004
1016.45,0.01966
993.303,0.02159
970.158,0.02031
947.014,0.02011
923.869,0.01966
900.724,0.01948
877.579,0.01943
854.434,0.01832
831.289,0.01949
808.144,0.01885
784.999,0.01848
761.854,0.01800
738.709,0.01912
715.564,0.01857
692.419,0.01736
669.274,0.01795
646.129,0.01765
622.984,0.01460
599.84,0.01564

File: Polyester_Fabric_IS_T_221019_R7.dpt
7497.03,0.03251
7473.88,0.03521
7450.74,0.02611
7427.59,0.02856
7404.45,0.03245
7381.31,0.02620
7358.16,0.01943
7335.02,0.03158
7311.87,0.01926
7288.73,0.02577
7265.58,0.02388
7242.44,0.02386
7219.29,0.02207
7196.15,0.03139
7173,0.02646
7149.86,0.02567
7126.71,0.01970
7103.57,0.02272
7080.42,0.02155
7057.28,0.02562
7034.13,0.02082
7010.99,0.02583
6987.84,0.02548
6964.7,0.02179
6941.55,0.02767
6918.41,0.02210
6895.26,0.02442
6872.12,0.02263
6848.97,0.02756
6825.83,0.02334
6802.68,0.02722
6779.54,0.02600
6756.39,0.02705
6733.25,0.02699
6710.1,0.02289
6686.96,0.02129
6663.81,0.02736
6640.67,0.01929
6617.52,0.02698
6594.38,0.02157
6571.23,0.02449
6548.09,0.01927
6524.94,0.02273
6501.8,0.01975
6478.65,0.02541
6455.51,0.02343
6432.36,0.02402
6409.22,0.01895
6386.07,0.02527
6362.93,0.02469
6339.78,0.02070
6316.64,0.02550
6293.49,0.02173
6270.35,0.01972
6247.2,0.02252
6224.06,0.02133
6200.91,0.02076
6177.77,0.02335
6154.62,0.02153
6131.48,0.02334
6108.33,0.01974
6085.19,0.02315
6062.04,0.02275
6038.9,0.02127
6015.75,0.02091
5992.61,0.02314
5969.46,0.02228
5946.32,0.02156
5923.17,0.02226
5900.03,0.01906
5876.88,0.02240
5853.74,0.02369
5830.59,0.02257
5807.45,0.02207
5784.3,0.02063
5761.16,0.02125
5738.01,0.02274
5714.87,0.02199
5691.72,0.02298
5668.58,0.02271
5645.44,0.02095
5622.29,0.02183
5599.15,0.02167
5576,0.02162
5552.86,0.02177
5529.71,0.02290
5506.57,0.02377
5483.42,0.02129
5460.28,0.02007
5437.13,0.02028
5413.99,0.02065
5390.84,0.02220
5367.7,0.02079
5344.55,0.02209
5321.41,0.02265
5298.26,0.02209
5275.12,0.02202
5251.97,0.02052
5228.83,0.02218
5205.68,0.02149
5182.54,0.02227
5159.39,0.02078
5136.25,0.02159
5113.1,0.02157
5089.96,0.02044
5066.81,0.02288
5043.67,0.02173
5020.52,0.02101
4997.38,0.02213
4974.23,0.02196
4951.09,0.02265
4927.94,0.02092
4904.8,0.02267
4881.65,0.02227
4858.51,0.02102
4835.36,0.02220
4812.22,0.02127
4789.07,0.02257
4765.93,0.02177
4742.78,0.02285
4719.64,0.02207
4696.49,0.02147
4673.35,0.02324
4650.2,0.02231
4627.06,0.02272
4603.91,0.02181
4580.77,0.02200
4557.62,0.02188
4534.48,0.02236
4511.33,0.02145
4488.19,0.02251
4465.04,0.02187
4441.9,0.02222
4418.75,0.02246
4395.61,0.02230
4372.46,0.02240
4349.32,0.02233
4326.17,0.02259
4303.03,0.02311
4279.88,0.02227
4256.74,0.02245
4233.59,0.02168
4210.45,0.02166
4187.3,0.02252
4164.16,0.02256
4141.01,0.02335
4117.87,0.02305
4094.72,0.02219
4071.58,0.02238
4048.43,0.02192
4025.29,0.02199
4002.14,0.02267
3979,0.02233
3955.85,0.02224
3932.71,0.02234
3909.57,0.02260
3886.42,0.02256
3863.28,0.02269
3840.13,0.02329
3816.99,0.02334
3793.84,0.02278
3770.7,0.02214
3747.55,0.02215
3724.41,0.02244
3701.26,0.02284
3678.12,0.02207
3654.97,0.02183
3631.83,0.02204
3608.68,0.02163
3585.54,0.02124
3562.39,0.02090
3539.25,0.02168
3516.1,0.02115
3492.96,0.02076
3469.81,0.02060
3446.67,0.01958
3423.52,0.02099
3400.38,0.01992
3377.23,0.02032
3354.09,0.01985
3330.94,0.02108
3307.8,0.02031
3284.65,0.02054
3261.51,0.02046
3238.36,0.02048
3215.22,0.02086
3192.07,0.02065
3168.93,0.02022
3145.78,0.02033
3122.64,0.02069
3099.49,0.02104
3076.35,0.02060
3053.2,0.02055
3030.06,0.02059
3006.91,0.02087
2983.77,0.02032
2960.62,0.02006
2937.48,0.01993
2914.33,0.02061
2891.19,0.02057
2868.04,0.02078
2844.9,0.02121
2821.75,0.02164
2798.61,0.02143
2775.46,0.02179
2752.32,0.02138
2729.17,0.02174
2706.03,0.02100
2682.88,0.02109
2659.74,0.02110
2636.59,0.02150
2613.45,0.02122
2590.3,0.02163
2567.16,0.02113
2544.01,0.02153
2520.87,0.02127
2497.72,0.02120
2474.58,0.02118
2451.43,0.02141
2428.29,0.02116
2405.14,0.02109
2382,0.02104
2358.85,0.02172
2335.71,0.02140
2312.56,0.02141
2289.42,0.02148
2266.27,0.02114
2243.13,0.02110
2219.98,0.02112
2196.84,0.02099
2173.7,0.02108
2150.55,0.02107
2127.41,0.02084
2104.26,0.02106
2081.12,0.02109
2057.97,0.02097
2034.83,0.02126
2011.68,0.02109
1988.54,0.02079
1965.39,0.02099
1942.25,0.02094
1919.1,0.02084
1895.96,0.02070
1872.81,0.02085
1849.67,0.02060
1826.52,0.02034
1803.38,0.01993
1780.23,0.01926
1757.09,0.01787
1733.94,0.01994
1710.8,0.01993
1687.65,0.01917
1664.51,0.01839
1641.36,0.01823
1618.22,0.01869
1595.07,0.01872
1571.93,0.01829
1548.78,0.01831
1525.64,0.01834
1502.49,0.01834
1479.35,0.01819
1456.2,0.01875
1433.06,0.01877
1409.91,0.01812
1386.77,0.01821
1363.62,0.01818
1340.48,0.01771
1317.33,0.01670
1294.19,0.01747
1271.04,0.01909
1247.9,0.02038
1224.75,0.01920
1201.61,0.01837
1178.46,0.01796
1155.32,0.01746
1132.17,0.01841
1109.03,0.01883
1085.88,0.01848
1062.74,0.01951
1039.59,0.01967
1016.45,0.01944
993.303,0.02157
970.158,0.02083
947.014,0.01960
923.869,0.01953
900.724,0.01910
877.579,0.01885
854.434,0.01857
831.289,0.01864
808.144,0.01833
784.999,0.01850
761.854,0.01808
738.709,0.01864
715.564,0.01769
692.419,0.01781
669.274,0.01803
646.129,0.01708
622.984,0.01817
599.84,0.01469

File: Polyester_Fabric_IS_T_221019_R8.dpt
7497.03,0.02876
7473.88,0.02418
7450.74,0.02793
7427.59,0.02228
7404.45,0.02351
7381.31,0.02563
7358.16,0.01898
7335.02,0.01847
7311.87,0.02476
7288.73,0.01971
7265.58,0.02005
7242.44,0.02025
7219.29,0.02217
7196.15,0.02540
7173,0.02781
7149.86,0.02390
7126.71,0.02747
7103.57,0.02416
7080.42,0.01750
7057.28,0.02260
7034.13,0.02381
7010.99,0.02913
6987.84,0.02682
6964.7,0.01906
6941.55,0.01991
6918.41,0.01970
6895.26,0.02930
6872.12,0.02574
6848.97,0.02289
6825.83,0.01991
6802.68,0.01657
6779.54,0.02551
6756.39,0.02536
6733.25,0.02373
6710.1,0.02583
6686.96,0.02371
6663.81,0.02118
6640.67,0.02541
6617.52,0.02036
6594.38,0.02346
6571.23,0.02239
6548.09,0.02379
6524.94,0.02417
6501.8,0.01939
6478.65,0.02116
6455.51,0.02029
6432.36,0.02231
6409.22,0.01883
6386.07,0.02086
6362.93,0.02123
6339.78,0.02699
6316.64,0.02477
6293.49,0.02541
6270.35,0.02312
6247.2,0.02348
6224.06,0.02291
6200.91,0.02167
6177.77,0.02074
6154.62,0.02468
6131.48,0.02177
6108.33,0.02138
6085.19,0.02374
6062.04,0.01978
6038.9,0.02253
6015.75,0.02056
5992.61,0.02182
5969.46,0.02166
5946.32,0.02358
5923.17,0.02186
5900.03,0.02117
5876.88,0.02299
5853.74,0.02243
5830.59,0.02336
5807.45,0.02322
5784.3,0.02209
5761.16,0.02235
5738.01,0.02376
5714.87,0.02189
5691.72,0.02288
5668.58,0.02117
5645.44,0.02213
5622.29,0.02127
5599.15,0.02294
5576,0.02575
5552.86,0.02148
5529.71,0.02256
5506.57,0.02176
5483.42,0.02159
5460.28,0.02162
5437.13,0.02284
5413.99,0.02098
5390.84,0.01989
5367.7,0.02164
5344.55,0.02172
5321.41,0.02111
5298.26,0.02114
5275.12,0.02151
5251.97,0.02212
5228.83,0.02309
5205.68,0.02352
5182.54,0.02237
5159.39,0.02271
5136.25,0.02261
5113.1,0.02216
5089.96,0.02213
5066.81,0.02202
5043.67,0.02179
5020.52,0.02292
4997.38,0.02270
4974.23,0.02310
4951.09,0.02268
4927.94,0.02239
4904.8,0.02089
4881.65,0.02087
4858.51,0.02293
4835.36,0.02179
4812.22,0.02243
4789.07,0.02273
4765.93,0.02215
4742.78,0.02147
4719.64,0.02250
4696.49,0.02205
4673.35,0.02197
4650.2,0.02284
4627.06,0.02306
4603.91,0.02278
4580.77,0.02247
4557.62,0.02273
4534.48,0.02373
4511.33,0.02297
4488.19,0.02217
4465.04,0.02350
4441.9,0.02207
4418.75,0.02320
4395.61,0.02203
4372.46,0.02308
4349.32,0.02248
4326.17,0.02277
4303.03,0.02272
4279.88,0.02278
4256.74,0.02262
4233.59,0.02265
4210.45,0.02221
4187.3,0.02341
4164.16,0.02302
4141.01,0.02221
4117.87,0.02222
4094.72,0.02344
4071.58,0.02241
4048.43,0.02280
4025.29,0.02290
4002.14,0.02350
3979,0.02291
3955.85,0.02282
3932.71,0.02278
3909.57,0.02296
3886.42,0.02277
3863.28,0.02263
3840.13,0.02335
3816.99,0.02304
3793.84,0.02355
3770.7,0.02322
3747.55,0.02314
3724.41,0.02366
3701.26,0.02249
3678.12,0.02238
3654.97,0.02300
3631.83,0.02249
3608.68,0.02256
3585.54,0.02153
3562.39,0.02131
3539.25,0.02138
3516.1,0.02181
3492.96,0.02178
3469.81,0.02139
3446.67,0.02101
3423.52,0.02159
3400.38,0.02069
3377.23,0.02083
3354.09,0.02080
3330.94,0.02033
3307.8,0.02100
3284.65,0.02038
3261.51,0.02100
3238.36,0.02170
3215.22,0.02149
3192.07,0.02141
3168.93,0.02125
3145.78,0.02143
3122.64,0.02074
3099.49,0.02130
3076.35,0.02174
3053.2,0.02107
3030.06,0.02102
3006.91,0.02057
2983.77,0.01988
2960.62,0.02026
2937.48,0.01993
2914.33,0.02074
2891.19,0.02070
2868.04,0.02079
2844.9,0.02150
2821.75,0.02133
2798.61,0.02172
2775.46,0.02185
2752.32,0.02145
2729.17,0.02198
2706.03,0.02158
2682.88,0.02154
2659.74,0.02200
2636.59,0.02176
2613.45,0.02205
2590.3,0.02162
2567.16,0.02182
2544.01,0.02164
2520.87,0.02176
2497.72,0.02190
2474.58,0.02195
2451.43,0.02208
2428.29,0.02200
2405.14,0.02179
2382,0.02176
2358.85,0.02228
2335.71,0.02152
2312.56,0.02131
2289.42,0.02208
2266.27,0.02198
2243.13,0.02133
2219.98,0.02176
2196.84,0.02173
2173.7,0.02161
2150.55,0.02163
2127.41,0.02137
2104.26,0.02178
2081.12,0.02140
2057.97,0.02143
2034.83,0.02148
2011.68,0.02187
1988.54,0.02183
1965.39,0.02144
1942.25,0.02141
1919.1,0.02153
1895.96,0.02132
1872.81,0.02111
1849.67,0.02085
1826.52,0.02098
1803.38,0.02055
1780.23,0.01980
1757.09,0.01818
1733.94,0.01953
1710.8,0.02104
1687.65,0.01944
1664.51,0.01872
1641.36,0.01904
1618.22,0.01936
1595.07,0.01886
1571.93,0.01824
1548.78,0.01857
1525.64,0.01882
1502.49,0.01897
1479.35,0.01886
1456.2,0.01857
1433.06,0.01884
1409.91,0.01851
1386.77,0.01835
1363.62,0.01800
1340.48,0.01823
1317.33,0.01752
1294.19,0.01793
1271.04,0.01952
1247.9,0.02068
1224.75,0.01926
1201.61,0.01895
1178.46,0.01828
1155.32,0.01825
1132.17,0.01822
1109.03,0.01923
1085.88,0.01832
1062.74,0.01947
1039.59,0.01963
1016.45,0.01967
993.303,0.02171
970.158,0.02049
947.014,0.01992
923.869,0.01970
900.724,0.01984
877.579,0.01964
854.434,0.01872
831.289,0.01841
808.144,0.01883
784.999,0.01842
761.854,0.01872
738.709,0.01964
715.564,0.01811
692.419,0.01780
669.274,0.01828
646.129,0.01670
622.984,0.01645
599.84,0.01824