Folder: fsri_materials_database/01_Data/Polyester_Fabric/FTIR/IS (part 4)

File: Polyester_Fabric_IS_TRANS_MEAS_210623_R1.dpt
5998.34,0.08431
5979.05,0.10480
5959.76,0.11660
5940.48,0.12653
5921.19,0.12466
5901.9,0.14521
5882.61,0.14651
5863.33,0.12487
5844.04,0.13703
5824.75,0.14341
5805.47,0.15012
5786.18,0.14864
5766.89,0.14425
5747.6,0.14678
5728.32,0.15682
5709.03,0.15426
5689.74,0.14507
5670.46,0.16682
5651.17,0.16204
5631.88,0.16292
5612.59,0.16522
5593.31,0.16217
5574.02,0.17294
5554.73,0.17689
5535.44,0.17263
5516.16,0.17176
5496.87,0.16919
5477.58,0.16368
5458.3,0.17226
5439.01,0.18033
5419.72,0.18020
5400.43,0.17657
5381.15,0.17918
5361.86,0.17985
5342.57,0.17751
5323.28,0.17909
5304,0.17527
5284.71,0.17128
5265.42,0.15651
5246.14,0.16208
5226.85,0.15979
5207.56,0.17140
5188.27,0.17253
5168.99,0.17008
5149.7,0.16252
5130.41,0.15655
5111.12,0.16072
5091.84,0.16852
5072.55,0.17267
5053.26,0.17132
5033.98,0.17426
5014.69,0.17170
4995.4,0.17079
4976.11,0.17496
4956.83,0.17426
4937.54,0.16466
4918.25,0.16617
4898.96,0.16711
4879.68,0.16141
4860.39,0.16110
4841.1,0.15927
4821.82,0.15521
4802.53,0.14198
4783.24,0.14843
4763.95,0.14669
4744.67,0.13343
4725.38,0.11061
4706.09,0.09848
4686.8,0.08580
4667.52,0.10749
4648.23,0.10353
4628.94,0.09680
4609.66,0.12465
4590.37,0.11047
4571.08,0.11690
4551.79,0.13487
4532.51,0.13187
4513.22,0.12216
4493.93,0.09634
4474.64,0.08091
4455.36,0.05928
4436.07,0.05663
4416.78,0.06526
4397.5,0.07069
4378.21,0.07339
4358.92,0.07360
4339.63,0.07093
4320.35,0.07015
4301.06,0.06340
4281.77,0.06269
4262.48,0.06701
4243.2,0.06595
4223.91,0.06765
4204.62,0.07221
4185.34,0.06921
4166.05,0.07102
4146.76,0.07467
4127.47,0.06808
4108.19,0.06052
4088.9,0.04903
4069.61,0.06552
4050.33,0.07047
4031.04,0.07853
4011.75,0.07810
3992.46,0.08164
3973.18,0.08439
3953.89,0.08828
3934.6,0.09137
3915.31,0.09242
3896.03,0.10050
3876.74,0.10618
3857.45,0.10980
3838.17,0.11535
3818.88,0.10863
3799.59,0.10200
3780.3,0.10776
3761.02,0.09893
3741.73,0.10845
3722.44,0.11185
3703.15,0.10093
3683.87,0.07051
3664.58,0.06934
3645.29,0.06062
3626.01,0.05750
3606.72,0.06063
3587.43,0.05984
3568.14,0.05053
3548.86,0.04987
3529.57,0.05364
3510.28,0.05297
3490.99,0.05611
3471.71,0.05266
3452.42,0.04690
3433.13,0.04312
3413.85,0.04584
3394.56,0.05551
3375.27,0.05493
3355.98,0.05314
3336.7,0.05050
3317.41,0.05135
3298.12,0.05162
3278.83,0.05219
3259.55,0.05487
3240.26,0.05441
3220.97,0.05436
3201.69,0.05484
3182.4,0.05360
3163.11,0.05378
3143.82,0.05203
3124.54,0.04878
3105.25,0.04748
3085.96,0.04532
3066.67,0.04439
3047.39,0.04667
3028.1,0.04634
3008.81,0.04281
2989.53,0.04290
2970.24,0.04202
2950.95,0.04271
2931.66,0.04425
2912.38,0.04374
2893.09,0.04364
2873.8,0.04390
2854.51,0.04710
2835.23,0.05246
2815.94,0.05376
2796.65,0.05468
2777.37,0.06110
2758.08,0.06220
2738.79,0.06212
2719.5,0.06971
2700.22,0.07499
2680.93,0.07756
2661.64,0.07828
2642.35,0.07285
2623.07,0.06753
2603.78,0.06540
2584.49,0.06139
2565.21,0.06074
2545.92,0.06057
2526.63,0.06177
2507.34,0.06425
2488.06,0.06879
2468.77,0.07687
2449.48,0.07552
2430.2,0.06721
2410.91,0.06024
2391.62,0.05619
2372.33,0.05129
2353.05,0.05572
2333.76,0.05472
2314.47,0.06723
2295.18,0.06283
2275.9,0.06229
2256.61,0.06187
2237.32,0.06746
2218.04,0.07095
2198.75,0.07795
2179.46,0.07632
2160.17,0.06671
2140.89,0.05845
2121.6,0.05465
2102.31,0.05554
2083.02,0.05667
2063.74,0.06627
2044.45,0.07830
2025.16,0.07388
2005.88,0.06505
1986.59,0.05650
1967.3,0.05163
1948.01,0.05176
1928.73,0.05852
1909.44,0.06476
1890.15,0.06812
1870.86,0.06792
1851.58,0.05565
1832.29,0.05061
1813,0.04908
1793.72,0.04952
1774.43,0.04947
1755.14,0.04502
1735.85,0.04684
1716.57,0.04484
1697.28,0.04524
1677.99,0.04513
1658.7,0.04649
1639.42,0.04788
1620.13,0.04672
1600.84,0.04755
1581.56,0.04581
1562.27,0.05046
1542.98,0.05182
1523.69,0.05033
1504.41,0.04575
1485.12,0.04709
1465.83,0.04548
1446.54,0.04609
1427.26,0.04722
1407.97,0.04364
1388.68,0.04520
1369.4,0.04456
1350.11,0.04538
1330.82,0.04494
1311.53,0.04443
1292.25,0.04396
1272.96,0.04394
1253.67,0.04214
1234.38,0.04390
1215.1,0.04325
1195.81,0.04627
1176.52,0.04432
1157.24,0.04666
1137.95,0.04375
1118.66,0.04307
1099.37,0.04462
1080.09,0.04418
1060.8,0.04686
1041.51,0.04747
1022.22,0.04513
1002.94,0.04784
983.65,0.04791
964.363,0.04675
945.076,0.04966
925.789,0.04652
906.501,0.04942
887.214,0.04788
867.927,0.04957
848.64,0.04541
829.352,0.04705
810.065,0.04833
790.778,0.04799
771.49,0.04966
752.203,0.04991
732.916,0.04436
713.629,0.04577
694.341,0.05025
675.054,0.05304
655.767,0.05518
636.48,0.05885
617.192,0.06458
597.905,0.06493
578.618,0.06381
559.331,0.06817
540.043,0.05994
520.756,0.05303
501.469,0.04784
482.182,0.06445
462.894,0.06205
443.607,0.08418
424.32,0.04492
405.033,0.07252
399.246,0.10075

File: Polyester_Fabric_IS_TRANS_MEAS_210623_R3.dpt
5998.34,0.08102
5979.05,0.10528
5959.76,0.11991
5940.48,0.11296
5921.19,0.12245
5901.9,0.14120
5882.61,0.14023
5863.33,0.12897
5844.04,0.13555
5824.75,0.14926
5805.47,0.12617
5786.18,0.13716
5766.89,0.15092
5747.6,0.14587
5728.32,0.15634
5709.03,0.16174
5689.74,0.15913
5670.46,0.15574
5651.17,0.16659
5631.88,0.16150
5612.59,0.16490
5593.31,0.17205
5574.02,0.16709
5554.73,0.16373
5535.44,0.15963
5516.16,0.17029
5496.87,0.16443
5477.58,0.16667
5458.3,0.17042
5439.01,0.17781
5419.72,0.17779
5400.43,0.17363
5381.15,0.17082
5361.86,0.18365
5342.57,0.17910
5323.28,0.17631
5304,0.17714
5284.71,0.17943
5265.42,0.16384
5246.14,0.16067
5226.85,0.16664
5207.56,0.17145
5188.27,0.17317
5168.99,0.16733
5149.7,0.16477
5130.41,0.15561
5111.12,0.15636
5091.84,0.16483
5072.55,0.16922
5053.26,0.17543
5033.98,0.17321
5014.69,0.16967
4995.4,0.17420
4976.11,0.17909
4956.83,0.17229
4937.54,0.17061
4918.25,0.16461
4898.96,0.16794
4879.68,0.16350
4860.39,0.16298
4841.1,0.16252
4821.82,0.15036
4802.53,0.14421
4783.24,0.14352
4763.95,0.14559
4744.67,0.12815
4725.38,0.10766
4706.09,0.09553
4686.8,0.08008
4667.52,0.11048
4648.23,0.10251
4628.94,0.09342
4609.66,0.12453
4590.37,0.10997
4571.08,0.11683
4551.79,0.13282
4532.51,0.13447
4513.22,0.12213
4493.93,0.09805
4474.64,0.07967
4455.36,0.05867
4436.07,0.05534
4416.78,0.06405
4397.5,0.06571
4378.21,0.07597
4358.92,0.07502
4339.63,0.07061
4320.35,0.06985
4301.06,0.06277
4281.77,0.06316
4262.48,0.06676
4243.2,0.06527
4223.91,0.06509
4204.62,0.07008
4185.34,0.06779
4166.05,0.07202
4146.76,0.07572
4127.47,0.06854
4108.19,0.06323
4088.9,0.04926
4069.61,0.06375
4050.33,0.07119
4031.04,0.08193
4011.75,0.07897
3992.46,0.08271
3973.18,0.08279
3953.89,0.08520
3934.6,0.08931
3915.31,0.09282
3896.03,0.10224
3876.74,0.10760
3857.45,0.11202
3838.17,0.11242
3818.88,0.11198
3799.59,0.10635
3780.3,0.10573
3761.02,0.09731
3741.73,0.11108
3722.44,0.11160
3703.15,0.10200
3683.87,0.07012
3664.58,0.07138
3645.29,0.06117
3626.01,0.06059
3606.72,0.06166
3587.43,0.06153
3568.14,0.05508
3548.86,0.04863
3529.57,0.05395
3510.28,0.05503
3490.99,0.05571
3471.71,0.05476
3452.42,0.04639
3433.13,0.04271
3413.85,0.04785
3394.56,0.05589
3375.27,0.05592
3355.98,0.05254
3336.7,0.04883
3317.41,0.05143
3298.12,0.05069
3278.83,0.05434
3259.55,0.05411
3240.26,0.05367
3220.97,0.05594
3201.69,0.05572
3182.4,0.05391
3163.11,0.05339
3143.82,0.05134
3124.54,0.04977
3105.25,0.04731
3085.96,0.04739
3066.67,0.04519
3047.39,0.04588
3028.1,0.04720
3008.81,0.04272
2989.53,0.04260
2970.24,0.04182
2950.95,0.04161
2931.66,0.04359
2912.38,0.04369
2893.09,0.04434
2873.8,0.04631
2854.51,0.04641
2835.23,0.05227
2815.94,0.05422
2796.65,0.05419
2777.37,0.06024
2758.08,0.06084
2738.79,0.06261
2719.5,0.07016
2700.22,0.07579
2680.93,0.07721
2661.64,0.07976
2642.35,0.07209
2623.07,0.06630
2603.78,0.06533
2584.49,0.06101
2565.21,0.06025
2545.92,0.05885
2526.63,0.06110
2507.34,0.06419
2488.06,0.06841
2468.77,0.07527
2449.48,0.07515
2430.2,0.06730
2410.91,0.06068
2391.62,0.05656
2372.33,0.04812
2353.05,0.05588
2333.76,0.05682
2314.47,0.06735
2295.18,0.06209
2275.9,0.06074
2256.61,0.06132
2237.32,0.06793
2218.04,0.07209
2198.75,0.07808
2179.46,0.07712
2160.17,0.06574
2140.89,0.05946
2121.6,0.05526
2102.31,0.05444
2083.02,0.05757
2063.74,0.06737
2044.45,0.07841
2025.16,0.07365
2005.88,0.06448
1986.59,0.05610
1967.3,0.05149
1948.01,0.05066
1928.73,0.05791
1909.44,0.06585
1890.15,0.06756
1870.86,0.06592
1851.58,0.05393
1832.29,0.05026
1813,0.04877
1793.72,0.05065
1774.43,0.05035
1755.14,0.04479
1735.85,0.04417
1716.57,0.04511
1697.28,0.04924
1677.99,0.04555
1658.7,0.04651
1639.42,0.04747
1620.13,0.04770
1600.84,0.04865
1581.56,0.04616
1562.27,0.04887
1542.98,0.05198
1523.69,0.04851
1504.41,0.04485
1485.12,0.04627
1465.83,0.04696
1446.54,0.04613
1427.26,0.04592
1407.97,0.04425
1388.68,0.04537
1369.4,0.04349
1350.11,0.04491
1330.82,0.04597
1311.53,0.04474
1292.25,0.04444
1272.96,0.04501
1253.67,0.04309
1234.38,0.04177
1215.1,0.04668
1195.81,0.04686
1176.52,0.04345
1157.24,0.04596
1137.95,0.04546
1118.66,0.04140
1099.37,0.04541
1080.09,0.04312
1060.8,0.04538
1041.51,0.04610
1022.22,0.04374
1002.94,0.04718
983.65,0.04716
964.363,0.04584
945.076,0.04839
925.789,0.05149
906.501,0.04730
887.214,0.04719
867.927,0.04676
848.64,0.04498
829.352,0.04922
810.065,0.04837
790.778,0.04590
771.49,0.05336
752.203,0.05299
732.916,0.04742
713.629,0.04709
694.341,0.05180
675.054,0.04990
655.767,0.05790
636.48,0.05592
617.192,0.06388
597.905,0.06683
578.618,0.06567
559.331,0.06468
540.043,0.05319
520.756,0.05460
501.469,0.06513
482.182,0.05573
462.894,0.05980
443.607,0.05408
424.32,0.05913
405.033,0.05748
399.246,0.01934