Folder: fsri_materials_database/01_Data/Polyester_Fabric/FTIR/IS

Note: 01_Data/README.md
# Materials and Products Database
## 01_Data

Raw data generated from each apparatus are included here in plain-text format. The data is organized first by material, next by the short name of test apparatus used, and where applicable additional filtering by test settings.

### material.json

Each material directory contains a json file of the same name as the material. This file links the data stored in the repository as well as data and graphs produced by the accompanying scripts (__02_Scripts__) to the respective landing page for the material on the front-end website.

File: Polyester_Fabric_IS_REFLECT_BL_210623_R3.dpt
5996.41,0.02069
5977.12,0.02359
5957.84,0.01226
5938.55,0.01620
5919.26,0.02299
5899.97,0.02043
5880.69,0.01979
5861.4,0.01802
5842.11,0.01704
5822.82,0.01288
5803.54,0.01644
5784.25,0.01884
5764.96,0.01496
5745.68,0.01674
5726.39,0.01648
5707.1,0.01477
5687.81,0.01514
5668.53,0.01593
5649.24,0.01493
5629.95,0.01585
5610.66,0.02073
5591.38,0.01524
5572.09,0.01916
5552.8,0.01314
5533.52,0.01522
5514.23,0.02200
5494.94,0.01517
5475.65,0.01613
5456.37,0.01593
5437.08,0.01255
5417.79,0.01419
5398.5,0.02067
5379.22,0.01363
5359.93,0.01401
5340.64,0.01861
5321.36,0.01877
5302.07,0.01879
5282.78,0.01526
5263.49,0.01097
5244.21,0.01611
5224.92,0.01638
5205.63,0.01597
5186.34,0.01437
5167.06,0.01587
5147.77,0.01266
5128.48,0.01657
5109.2,0.01751
5089.91,0.01502
5070.62,0.01688
5051.33,0.01846
5032.05,0.01577
5012.76,0.01326
4993.47,0.01481
4974.18,0.01662
4954.9,0.01488
4935.61,0.01498
4916.32,0.01695
4897.04,0.01467
4877.75,0.01777
4858.46,0.01437
4839.17,0.01471
4819.89,0.01272
4800.6,0.01533
4781.31,0.01443
4762.02,0.01332
4742.74,0.01410
4723.45,0.01686
4704.16,0.01570
4684.88,0.01452
4665.59,0.01659
4646.3,0.01492
4627.01,0.01522
4607.73,0.01517
4588.44,0.01494
4569.15,0.01543
4549.87,0.01417
4530.58,0.01507
4511.29,0.01582
4492,0.01536
4472.72,0.01440
4453.43,0.01521
4434.14,0.01418
4414.85,0.01512
4395.57,0.01425
4376.28,0.01396
4356.99,0.01448
4337.71,0.01415
4318.42,0.01423
4299.13,0.01441
4279.84,0.01469
4260.56,0.01423
4241.27,0.01467
4221.98,0.01416
4202.69,0.01312
4183.41,0.01384
4164.12,0.01465
4144.83,0.01451
4125.55,0.01360
4106.26,0.01298
4086.97,0.01482
4067.68,0.01413
4048.4,0.01427
4029.11,0.01501
4009.82,0.01415
3990.53,0.01423
3971.25,0.01442
3951.96,0.01407
3932.67,0.01740
3913.39,0.01397
3894.1,0.01407
3874.81,0.01369
3855.52,0.01321
3836.24,0.01318
3816.95,0.01039
3797.66,0.01331
3778.37,0.02161
3759.09,0.01235
3739.8,0.01053
3720.51,0.01612
3701.23,0.01713
3681.94,0.03095
3662.65,0.01780
3643.36,0.01410
3624.08,0.01124
3604.79,0.00770
3585.5,0.00954
3566.21,0.01159
3546.93,0.01161
3527.64,0.01265
3508.35,0.01291
3489.07,0.01312
3469.78,0.01259
3450.49,0.01301
3431.2,0.01302
3411.92,0.01232
3392.63,0.01305
3373.34,0.01228
3354.05,0.01218
3334.77,0.01182
3315.48,0.01189
3296.19,0.01227
3276.91,0.01328
3257.62,0.01270
3238.33,0.01249
3219.04,0.01215
3199.76,0.01283
3180.47,0.01328
3161.18,0.01343
3141.89,0.01273
3122.61,0.01311
3103.32,0.01266
3084.03,0.01305
3064.75,0.01169
3045.46,0.00690
3026.17,0.00620
3006.88,0.00522
2987.6,0.00445
2968.31,0.00715
2949.02,0.01108
2929.74,0.01197
2910.45,0.01179
2891.16,0.01300
2871.87,0.01269
2852.59,0.01325
2833.3,0.01291
2814.01,0.01307
2794.72,0.01290
2775.44,0.01287
2756.15,0.01219
2736.86,0.01258
2717.58,0.01310
2698.29,0.01230
2679,0.01327
2659.71,0.01306
2640.43,0.01335
2621.14,0.01344
2601.85,0.01340
2582.56,0.01327
2563.28,0.01268
2543.99,0.01314
2524.7,0.01318
2505.42,0.01328
2486.13,0.01274
2466.84,0.01317
2447.55,0.01289
2428.27,0.01318
2408.98,0.01334
2389.69,0.04332
2370.4,0.00554
2351.12,0.01008
2331.83,0.00815
2312.54,0.01158
2293.26,0.01261
2273.97,0.01184
2254.68,0.01264
2235.39,0.01284
2216.11,0.01264
2196.82,0.01243
2177.53,0.01260
2158.24,0.01264
2138.96,0.01196
2119.67,0.01247
2100.38,0.01212
2081.1,0.01227
2061.81,0.01231
2042.52,0.01240
2023.23,0.01294
2003.95,0.01134
1984.66,0.01364
1965.37,0.01289
1946.08,0.01299
1926.8,0.01156
1907.51,0.01378
1888.22,0.01466
1868.94,0.01225
1849.65,0.01170
1830.36,0.01169
1811.07,0.01208
1791.79,0.01292
1772.5,0.01133
1753.21,0.01022
1733.92,0.02087
1714.64,0.01900
1695.35,0.00982
1676.06,0.00893
1656.78,0.00750
1637.49,0.01344
1618.2,0.01154
1598.91,0.01107
1579.63,0.01052
1560.34,0.01063
1541.05,0.01029
1521.76,0.01874
1502.48,0.01374
1483.19,0.00935
1463.9,0.00432
1444.62,0.00609
1425.33,0.00137
1406.04,0.00147
1386.75,0.00751
1367.47,0.00507
1348.18,0.00857
1328.89,0.01125
1309.61,0.01011
1290.32,0.01073
1271.03,0.01192
1251.74,0.01197
1232.46,0.01256
1213.17,0.01267
1193.88,0.00946
1174.59,0.00570
1155.31,0.00115
1136.02,0.00122
1116.73,0.00360
1097.45,0.00989
1078.16,0.01052
1058.87,0.01214
1039.58,0.01131
1020.3,0.01251
1001.01,0.01266
981.722,0.00927
962.434,0.00207
943.147,0.00196
923.86,0.00501
904.573,0.01040
885.285,0.00792
865.998,0.00986
846.711,0.01065
827.424,0.01157
808.136,0.01164
788.849,0.00970
769.562,0.01070
750.274,0.00895
730.987,0.01042
711.7,0.00966
692.413,0.01075
673.125,0.01140
653.838,0.01009
634.551,0.01237
615.264,0.01017
595.976,0.00911
576.689,0.01074
557.402,0.01053
538.115,0.01025
518.827,0.01332
499.54,0.00570
480.253,0.01199
460.966,0.00683
441.678,0.01577
422.391,0.01595
403.104,0.00524
399.246,0.03805

File: Polyester_Fabric_IS_REFLECT_BL_210623_R4.dpt
5996.41,0.02384
5977.12,0.01401
5957.84,0.02259
5938.55,0.02089
5919.26,0.01247
5899.97,0.02014
5880.69,0.02232
5861.4,0.01152
5842.11,0.01355
5822.82,0.01816
5803.54,0.01579
5784.25,0.01870
5764.96,0.02166
5745.68,0.01732
5726.39,0.02031
5707.1,0.01747
5687.81,0.01139
5668.53,0.02022
5649.24,0.01772
5629.95,0.02050
5610.66,0.01731
5591.38,0.01906
5572.09,0.01596
5552.8,0.01454
5533.52,0.01899
5514.23,0.01689
5494.94,0.02222
5475.65,0.01832
5456.37,0.01415
5437.08,0.01643
5417.79,0.01701
5398.5,0.01550
5379.22,0.01469
5359.93,0.01569
5340.64,0.01981
5321.36,0.01567
5302.07,0.01425
5282.78,0.01386
5263.49,0.01520
5244.21,0.01661
5224.92,0.01417
5205.63,0.01918
5186.34,0.01677
5167.06,0.01465
5147.77,0.01686
5128.48,0.01477
5109.2,0.01715
5089.91,0.01894
5070.62,0.01731
5051.33,0.01286
5032.05,0.01433
5012.76,0.01852
4993.47,0.01768
4974.18,0.01615
4954.9,0.01780
4935.61,0.01673
4916.32,0.01431
4897.04,0.01469
4877.75,0.01547
4858.46,0.01396
4839.17,0.01695
4819.89,0.01531
4800.6,0.01431
4781.31,0.01505
4762.02,0.01736
4742.74,0.01605
4723.45,0.01436
4704.16,0.01732
4684.88,0.01484
4665.59,0.01564
4646.3,0.01604
4627.01,0.01532
4607.73,0.01580
4588.44,0.01379
4569.15,0.01539
4549.87,0.01569
4530.58,0.01524
4511.29,0.01349
4492,0.01521
4472.72,0.01481
4453.43,0.01431
4434.14,0.01507
4414.85,0.01380
4395.57,0.01380
4376.28,0.01517
4356.99,0.01417
4337.71,0.01402
4318.42,0.01467
4299.13,0.01482
4279.84,0.01384
4260.56,0.01502
4241.27,0.01535
4221.98,0.01408
4202.69,0.01442
4183.41,0.01401
4164.12,0.01508
4144.83,0.01411
4125.55,0.01465
4106.26,0.01288
4086.97,0.01353
4067.68,0.01433
4048.4,0.01270
4029.11,0.01520
4009.82,0.01496
3990.53,0.01444
3971.25,0.01438
3951.96,0.01513
3932.67,0.01718
3913.39,0.01408
3894.1,0.01305
3874.81,0.01352
3855.52,0.01480
3836.24,0.01424
3816.95,0.01031
3797.66,0.01460
3778.37,0.02180
3759.09,0.01106
3739.8,0.01157
3720.51,0.01578
3701.23,0.01711
3681.94,0.03258
3662.65,0.01891
3643.36,0.01361
3624.08,0.01192
3604.79,0.01071
3585.5,0.00930
3566.21,0.01324
3546.93,0.01225
3527.64,0.01313
3508.35,0.01329
3489.07,0.01299
3469.78,0.01333
3450.49,0.01363
3431.2,0.01311
3411.92,0.01255
3392.63,0.01277
3373.34,0.01296
3354.05,0.01248
3334.77,0.01290
3315.48,0.01185
3296.19,0.01263
3276.91,0.01301
3257.62,0.01333
3238.33,0.01260
3219.04,0.01337
3199.76,0.01240
3180.47,0.01354
3161.18,0.01272
3141.89,0.01362
3122.61,0.01292
3103.32,0.01296
3084.03,0.01306
3064.75,0.01280
3045.46,0.00783
3026.17,0.00639
3006.88,0.00585
2987.6,0.00404
2968.31,0.00710
2949.02,0.01189
2929.74,0.01246
2910.45,0.01311
2891.16,0.01267
2871.87,0.01213
2852.59,0.01277
2833.3,0.01285
2814.01,0.01267
2794.72,0.01297
2775.44,0.01277
2756.15,0.01273
2736.86,0.01317
2717.58,0.01275
2698.29,0.01219
2679,0.01313
2659.71,0.01321
2640.43,0.01320
2621.14,0.01325
2601.85,0.01319
2582.56,0.01389
2563.28,0.01315
2543.99,0.01265
2524.7,0.01287
2505.42,0.01341
2486.13,0.01301
2466.84,0.01310
2447.55,0.01314
2428.27,0.01369
2408.98,0.01345
2389.69,0.03407
2370.4,0.00422
2351.12,0.01156
2331.83,0.00755
2312.54,0.01035
2293.26,0.01253
2273.97,0.01213
2254.68,0.01249
2235.39,0.01299
2216.11,0.01253
2196.82,0.01258
2177.53,0.01209
2158.24,0.01239
2138.96,0.01185
2119.67,0.01197
2100.38,0.01205
2081.1,0.01289
2061.81,0.01248
2042.52,0.01301
2023.23,0.01300
2003.95,0.01184
1984.66,0.01323
1965.37,0.01292
1946.08,0.01305
1926.8,0.01185
1907.51,0.01349
1888.22,0.01463
1868.94,0.01203
1849.65,0.01268
1830.36,0.01161
1811.07,0.01257
1791.79,0.01256
1772.5,0.01098
1753.21,0.00954
1733.92,0.01953
1714.64,0.01973
1695.35,0.01048
1676.06,0.00908
1656.78,0.00713
1637.49,0.01263
1618.2,0.01135
1598.91,0.01108
1579.63,0.01048
1560.34,0.01054
1541.05,0.01045
1521.76,0.02021
1502.48,0.01310
1483.19,0.00946
1463.9,0.00519
1444.62,0.00567
1425.33,0.00222
1406.04,0.00246
1386.75,0.00783
1367.47,0.00479
1348.18,0.00938
1328.89,0.01020
1309.61,0.00995
1290.32,0.01073
1271.03,0.01200
1251.74,0.01274
1232.46,0.01118
1213.17,0.01183
1193.88,0.01013
1174.59,0.00452
1155.31,0.00059
1136.02,0.00039
1116.73,0.00535
1097.45,0.00898
1078.16,0.01012
1058.87,0.01228
1039.58,0.01172
1020.3,0.01226
1001.01,0.01333
981.722,0.01087
962.434,0.00348
943.147,0.00245
923.86,0.00430
904.573,0.01078
885.285,0.00959
865.998,0.00852
846.711,0.00920
827.424,0.00925
808.136,0.01167
788.849,0.01142
769.562,0.01173
750.274,0.01194
730.987,0.01021
711.7,0.00825
692.413,0.01198
673.125,0.01149
653.838,0.00859
634.551,0.00980
615.264,0.00892
595.976,0.01199
576.689,0.01003
557.402,0.00731
538.115,0.01127
518.827,0.00933
499.54,0.01169
480.253,0.00685
460.966,0.00001
441.678,0.01230
422.391,0.01802
403.104,0.01839
399.246,0.00658

File: Polyester_Fabric_IS_REFLECT_MEAS_210623_R2.dpt
5996.41,0.68640
5977.12,0.68071
5957.84,0.69338
5938.55,0.69801
5919.26,0.70650
5899.97,0.71644
5880.69,0.71562
5861.4,0.72588
5842.11,0.72714
5822.82,0.72506
5803.54,0.73091
5784.25,0.72660
5764.96,0.72830
5745.68,0.73867
5726.39,0.74862
5707.1,0.74744
5687.81,0.74047
5668.53,0.74189
5649.24,0.74220
5629.95,0.75577
5610.66,0.75209
5591.38,0.74820
5572.09,0.75236
5552.8,0.74995
5533.52,0.74466
5514.23,0.74854
5494.94,0.74375
5475.65,0.73930
5456.37,0.75662
5437.08,0.76323
5417.79,0.76205
5398.5,0.75403
5379.22,0.75279
5359.93,0.76327
5340.64,0.74532
5321.36,0.75175
5302.07,0.75679
5282.78,0.74062
5263.49,0.71552
5244.21,0.71914
5224.92,0.72061
5205.63,0.72805
5186.34,0.74139
5167.06,0.73740
5147.77,0.73799
5128.48,0.74152
5109.2,0.73198
5089.91,0.74771
5070.62,0.75447
5051.33,0.75561
5032.05,0.75449
5012.76,0.74963
4993.47,0.74678
4974.18,0.74768
4954.9,0.75220
4935.61,0.74846
4916.32,0.74275
4897.04,0.74275
4877.75,0.74159
4858.46,0.74249
4839.17,0.73540
4819.89,0.72113
4800.6,0.71799
4781.31,0.71525
4762.02,0.71753
4742.74,0.69945
4723.45,0.66460
4704.16,0.64760
4684.88,0.62730
4665.59,0.66568
4646.3,0.65477
4627.01,0.65301
4607.73,0.68909
4588.44,0.66660
4569.15,0.67979
4549.87,0.69550
4530.58,0.69492
4511.29,0.68023
4492,0.64049
4472.72,0.60942
4453.43,0.56514
4434.14,0.55611
4414.85,0.57739
4395.57,0.58990
4376.28,0.59993
4356.99,0.59865
4337.71,0.58761
4318.42,0.58492
4299.13,0.56401
4279.84,0.56634
4260.56,0.57797
4241.27,0.57344
4221.98,0.57493
4202.69,0.58963
4183.41,0.57765
4164.12,0.58742
4144.83,0.59346
4125.55,0.57677
4106.26,0.55712
4086.97,0.50958
4067.68,0.56990
4048.4,0.58686
4029.11,0.60172
4009.82,0.60079
3990.53,0.60774
3971.25,0.60902
3951.96,0.61749
3932.67,0.61934
3913.39,0.62450
3894.1,0.63585
3874.81,0.64144
3855.52,0.63627
3836.24,0.64662
3816.95,0.63613
3797.66,0.63630
3778.37,0.63703
3759.09,0.61709
3739.8,0.62499
3720.51,0.62720
3701.23,0.60192
3681.94,0.54448
3662.65,0.51495
3643.36,0.47772
3624.08,0.46149
3604.79,0.47126
3585.5,0.46626
3566.21,0.43789
3546.93,0.41895
3527.64,0.43314
3508.35,0.44846
3489.07,0.45373
3469.78,0.44202
3450.49,0.40590
3431.2,0.34866
3411.92,0.42187
3392.63,0.45488
3373.34,0.46227
3354.05,0.45281
3334.77,0.43635
3315.48,0.44906
3296.19,0.44538
3276.91,0.45476
3257.62,0.46070
3238.33,0.45762
3219.04,0.46347
3199.76,0.46484
3180.47,0.46556
3161.18,0.46341
3141.89,0.45087
3122.61,0.43320
3103.32,0.40041
3084.03,0.39108
3064.75,0.37842
3045.46,0.40811
3026.17,0.39829
3006.88,0.32887
2987.6,0.29321
2968.31,0.21644
2949.02,0.28825
2929.74,0.35060
2910.45,0.27984
2891.16,0.33803
2871.87,0.36663
2852.59,0.39165
2833.3,0.46154
2814.01,0.47073
2794.72,0.48436
2775.44,0.50708
2756.15,0.51294
2736.86,0.51946
2717.58,0.54125
2698.29,0.55528
2679,0.55816
2659.71,0.55795
2640.43,0.53429
2621.14,0.52344
2601.85,0.51852
2582.56,0.50005
2563.28,0.49784
2543.99,0.49428
2524.7,0.49872
2505.42,0.51040
2486.13,0.52336
2466.84,0.54033
2447.55,0.53560
2428.27,0.50510
2408.98,0.47195
2389.69,0.44935
2370.4,0.42169
2351.12,0.43718
2331.83,0.45683
2312.54,0.48892
2293.26,0.46972
2273.97,0.46482
2254.68,0.45977
2235.39,0.48234
2216.11,0.49159
2196.82,0.50630
2177.53,0.49074
2158.24,0.44753
2138.96,0.41117
2119.67,0.37863
2100.38,0.37524
2081.1,0.39981
2061.81,0.44676
2042.52,0.47679
2023.23,0.45593
2003.95,0.41441
1984.66,0.36953
1965.37,0.30398
1946.08,0.32419
1926.8,0.37822
1907.51,0.40965
1888.22,0.41882
1868.94,0.40578
1849.65,0.33185
1830.36,0.27444
1811.07,0.25892
1791.79,0.24625
1772.5,0.20564
1753.21,0.10297
1733.92,0.02583
1714.64,0.05072
1695.35,0.14824
1676.06,0.18358
1656.78,0.24112
1637.49,0.26436
1618.2,0.25418
1598.91,0.27470
1579.63,0.19526
1560.34,0.27492
1541.05,0.28544
1521.76,0.24718
1502.48,0.15178
1483.19,0.21177
1463.9,0.15413
1444.62,0.14474
1425.33,0.14940
1406.04,0.06585
1386.75,0.09587
1367.47,0.08659
1348.18,0.04858
1328.89,0.09670
1309.61,0.03752
1290.32,0.03159
1271.03,0.04904
1251.74,0.05357
1232.46,0.08773
1213.17,0.19317
1193.88,0.25199
1174.59,0.17261
1155.31,0.09290
1136.02,0.03917
1116.73,0.04779
1097.45,0.06344
1078.16,0.18625
1058.87,0.27210
1039.58,0.20606
1020.3,0.08990
1001.01,0.32335
981.722,0.24341
962.434,0.26117
943.147,0.35408
923.86,0.35020
904.573,0.26389
885.285,0.22525
865.998,0.20876
846.711,0.16351
827.424,0.25724
808.136,0.25027
788.849,0.22609
769.562,0.26786
750.274,0.22366
730.987,0.05467
711.7,0.22586
692.413,0.28161
673.125,0.26166
653.838,0.27414
634.551,0.25045
615.264,0.26546
595.976,0.25567
576.689,0.23936
557.402,0.20957
538.115,0.15859
518.827,0.12899
499.54,0.09809
480.253,0.12808
460.966,0.11716
441.678,0.05482
422.391,0.09686
403.104,0.07335
399.246,0.04124

File: Polyester_Fabric_IS_REFLECT_MEAS_210623_R3.dpt
5996.41,0.64150
5977.12,0.64353
5957.84,0.65395
5938.55,0.66002
5919.26,0.67767
5899.97,0.68450
5880.69,0.68506
5861.4,0.68331
5842.11,0.68571
5822.82,0.69041
5803.54,0.69762
5784.25,0.68758
5764.96,0.69839
5745.68,0.70811
5726.39,0.71104
5707.1,0.71116
5687.81,0.70582
5668.53,0.71063
5649.24,0.70539
5629.95,0.72177
5610.66,0.71282
5591.38,0.71893
5572.09,0.72750
5552.8,0.72143
5533.52,0.71509
5514.23,0.71503
5494.94,0.71151
5475.65,0.70480
5456.37,0.72094
5437.08,0.72815
5417.79,0.72532
5398.5,0.72306
5379.22,0.71967
5359.93,0.73139
5340.64,0.71406
5321.36,0.72204
5302.07,0.72195
5282.78,0.70991
5263.49,0.68419
5244.21,0.68209
5224.92,0.68692
5205.63,0.69324
5186.34,0.70684
5167.06,0.70465
5147.77,0.70811
5128.48,0.71040
5109.2,0.70150
5089.91,0.71361
5070.62,0.72273
5051.33,0.72487
5032.05,0.72258
5012.76,0.71933
4993.47,0.71866
4974.18,0.71905
4954.9,0.72438
4935.61,0.71610
4916.32,0.71239
4897.04,0.71077
4877.75,0.71271
4858.46,0.71307
4839.17,0.70877
4819.89,0.69106
4800.6,0.68649
4781.31,0.68501
4762.02,0.68816
4742.74,0.66724
4723.45,0.63372
4704.16,0.61720
4684.88,0.59735
4665.59,0.63586
4646.3,0.62361
4627.01,0.62301
4607.73,0.65929
4588.44,0.63749
4569.15,0.64962
4549.87,0.66674
4530.58,0.66593
4511.29,0.65250
4492,0.61064
4472.72,0.58200
4453.43,0.53470
4434.14,0.52632
4414.85,0.54974
4395.57,0.56268
4376.28,0.57037
4356.99,0.56891
4337.71,0.55753
4318.42,0.55644
4299.13,0.53705
4279.84,0.53835
4260.56,0.54864
4241.27,0.54653
4221.98,0.54802
4202.69,0.56125
4183.41,0.54931
4164.12,0.55969
4144.83,0.56438
4125.55,0.54822
4106.26,0.52710
4086.97,0.48057
4067.68,0.54113
4048.4,0.55923
4029.11,0.57198
4009.82,0.57043
3990.53,0.57882
3971.25,0.57921
3951.96,0.58823
3932.67,0.59037
3913.39,0.59509
3894.1,0.60519
3874.81,0.61088
3855.52,0.60483
3836.24,0.61591
3816.95,0.60692
3797.66,0.60620
3778.37,0.60748
3759.09,0.58833
3739.8,0.59214
3720.51,0.59847
3701.23,0.57010
3681.94,0.51087
3662.65,0.48171
3643.36,0.44169
3624.08,0.42572
3604.79,0.43372
3585.5,0.43106
3566.21,0.40267
3546.93,0.38445
3527.64,0.39803
3508.35,0.41489
3489.07,0.42011
3469.78,0.40980
3450.49,0.37519
3431.2,0.32238
3411.92,0.38809
3392.63,0.41858
3373.34,0.43080
3354.05,0.42291
3334.77,0.40750
3315.48,0.42185
3296.19,0.42105
3276.91,0.43007
3257.62,0.43581
3238.33,0.43241
3219.04,0.43882
3199.76,0.44179
3180.47,0.44105
3161.18,0.44008
3141.89,0.42731
3122.61,0.41051
3103.32,0.37875
3084.03,0.37124
3064.75,0.35844
3045.46,0.38783
3026.17,0.37812
3006.88,0.31118
2987.6,0.27735
2968.31,0.20524
2949.02,0.27559
2929.74,0.33858
2910.45,0.26812
2891.16,0.32147
2871.87,0.34822
2852.59,0.37678
2833.3,0.43868
2814.01,0.44893
2794.72,0.46193
2775.44,0.48456
2756.15,0.48968
2736.86,0.49741
2717.58,0.51783
2698.29,0.53143
2679,0.53459
2659.71,0.53463
2640.43,0.51115
2621.14,0.49937
2601.85,0.49289
2582.56,0.47521
2563.28,0.47315
2543.99,0.46857
2524.7,0.47369
2505.42,0.48495
2486.13,0.49846
2466.84,0.51512
2447.55,0.51099
2428.27,0.47960
2408.98,0.44623
2389.69,0.42470
2370.4,0.39763
2351.12,0.41272
2331.83,0.43081
2312.54,0.46322
2293.26,0.44335
2273.97,0.43841
2254.68,0.43363
2235.39,0.45691
2216.11,0.46630
2196.82,0.48145
2177.53,0.46674
2158.24,0.42389
2138.96,0.38807
2119.67,0.35689
2100.38,0.35456
2081.1,0.37800
2061.81,0.42463
2042.52,0.45563
2023.23,0.43458
2003.95,0.39298
1984.66,0.34956
1965.37,0.28506
1946.08,0.30637
1926.8,0.35808
1907.51,0.39032
1888.22,0.39913
1868.94,0.38646
1849.65,0.31441
1830.36,0.25912
1811.07,0.24330
1791.79,0.23224
1772.5,0.19212
1753.21,0.09529
1733.92,0.02610
1714.64,0.04977
1695.35,0.14258
1676.06,0.17396
1656.78,0.23186
1637.49,0.25297
1618.2,0.24170
1598.91,0.26239
1579.63,0.18642
1560.34,0.26254
1541.05,0.26920
1521.76,0.23424
1502.48,0.14401
1483.19,0.19666
1463.9,0.14461
1444.62,0.13540
1425.33,0.14009
1406.04,0.06344
1386.75,0.09197
1367.47,0.08177
1348.18,0.04776
1328.89,0.09071
1309.61,0.03580
1290.32,0.03150
1271.03,0.04809
1251.74,0.05176
1232.46,0.08446
1213.17,0.18363
1193.88,0.22890
1174.59,0.15552
1155.31,0.08286
1136.02,0.03755
1116.73,0.04771
1097.45,0.06312
1078.16,0.17973
1058.87,0.25735
1039.58,0.19506
1020.3,0.08553
1001.01,0.30548
981.722,0.23073
962.434,0.24777
943.147,0.33608
923.86,0.32857
904.573,0.24640
885.285,0.21137
865.998,0.19549
846.711,0.15653
827.424,0.24130
808.136,0.23736
788.849,0.21262
769.562,0.25455
750.274,0.20805
730.987,0.05172
711.7,0.21173
692.413,0.26329
673.125,0.23424
653.838,0.25696
634.551,0.23640
615.264,0.24494
595.976,0.23617
576.689,0.23117
557.402,0.20407
538.115,0.15370
518.827,0.12232
499.54,0.10071
480.253,0.12457
460.966,0.11576
441.678,0.05201
422.391,0.08940
403.104,0.05522
399.246,0.05123

File: Polyester_Fabric_IS_REFLECT_REF_210623_R1.dpt
4497.79,0.99889
4484.29,0.99807
4470.79,0.99642
4457.29,0.99807
4443.79,1.00015
4430.28,0.99738
4416.78,0.99805
4403.28,0.99806
4389.78,0.99711
4376.28,0.99653
4362.78,0.99827
4349.28,1.00056
4335.78,0.99715
4322.28,0.99798
4308.77,0.99665
4295.27,0.99890
4281.77,0.99774
4268.27,0.99842
4254.77,0.99773
4241.27,0.99912
4227.77,0.99687
4214.27,0.99725
4200.77,0.99782
4187.26,0.99951
4173.76,0.99683
4160.26,0.99861
4146.76,0.99718
4133.26,0.99786
4119.76,0.99785
4106.26,0.99931
4092.76,0.99747
4079.26,0.99770
4065.75,0.99833
4052.25,0.99849
4038.75,0.99707
4025.25,0.99794
4011.75,0.99856
3998.25,0.99833
3984.75,0.99771
3971.25,0.99808
3957.75,0.99598
3944.25,0.99706
3930.74,0.99680
3917.24,0.99774
3903.74,0.99594
3890.24,0.99662
3876.74,0.99513
3863.24,0.99797
3849.74,0.99174
3836.24,0.99797
3822.74,0.99702
3809.23,0.99541
3795.73,0.99652
3782.23,0.99571
3768.73,0.99618
3755.23,0.99337
3741.73,0.99027
3728.23,0.99172
3714.73,0.99380
3701.23,0.99649
3687.72,0.99738
3674.22,0.99528
3660.72,0.99625
3647.22,0.99699
3633.72,0.99345
3620.22,0.99551
3606.72,0.99529
3593.22,0.99454
3579.72,0.99378
3566.21,0.99807
3552.71,0.99492
3539.21,0.99458
3525.71,0.99349
3512.21,0.99399
3498.71,0.99342
3485.21,0.99331
3471.71,0.99368
3458.21,0.99543
3444.7,0.99639
3431.2,0.99574
3417.7,0.99522
3404.2,0.99566
3390.7,0.99571
3377.2,0.99539
3363.7,0.99524
3350.2,0.99643
3336.7,0.99582
3323.2,0.99758
3309.69,0.99607
3296.19,0.99601
3282.69,0.99618
3269.19,0.99552
3255.69,0.99691
3242.19,0.99609
3228.69,0.99714
3215.19,0.99562
3201.69,0.99574
3188.18,0.99636
3174.68,0.99733
3161.18,0.99836
3147.68,0.99751
3134.18,0.99783
3120.68,0.99721
3107.18,0.99742
3093.68,0.99695
3080.18,0.99769
3066.67,0.99756
3053.17,0.99732
3039.67,0.99771
3026.17,0.99739
3012.67,0.99676
2999.17,0.99725
2985.67,0.99758
2972.17,0.99770
2958.67,0.99821
2945.16,0.99758
2931.66,0.99688
2918.16,0.99810
2904.66,0.99892
2891.16,0.99823
2877.66,0.99844
2864.16,0.99856
2850.66,0.99809
2837.16,0.99829
2823.66,0.99782
2810.15,0.99843
2796.65,0.99823
2783.15,0.99762
2769.65,0.99856
2756.15,0.99861
2742.65,0.99766
2729.15,0.99781
2715.65,0.99852
2702.15,0.99812
2688.64,0.99830
2675.14,0.99892
2661.64,0.99786
2648.14,0.99847
2634.64,0.99768
2621.14,0.99824
2607.64,0.99769
2594.14,0.99843
2580.64,0.99838
2567.13,0.99857
2553.63,0.99801
2540.13,0.99759
2526.63,0.99842
2513.13,0.99839
2499.63,0.99847
2486.13,0.99849
2472.63,0.99823
2459.13,0.99853
2445.62,0.99872
2432.12,0.99831
2418.62,0.99845
2405.12,0.99837
2391.62,0.99822
2378.12,0.99747
2364.62,0.99739
2351.12,0.99788
2337.62,1.00064
2324.12,0.99690
2310.61,0.99685
2297.11,0.99818
2283.61,0.99856
2270.11,0.99856
2256.61,0.99796
2243.11,0.99784
2229.61,0.99833
2216.11,0.99813
2202.61,0.99810
2189.1,0.99829
2175.6,0.99858
2162.1,0.99776
2148.6,0.99836
2135.1,0.99802
2121.6,0.99780
2108.1,0.99783
2094.6,0.99807
2081.1,0.99760
2067.59,0.99760
2054.09,0.99821
2040.59,0.99812
2027.09,0.99783
2013.59,0.99802
2000.09,0.99803
1986.59,0.99725
1973.09,0.99762
1959.59,0.99882
1946.08,0.99837
1932.58,0.99776
1919.08,0.99744
1905.58,0.99742
1892.08,0.99792
1878.58,0.99814
1865.08,0.99693
1851.58,0.99789
1838.08,0.99745
1824.57,0.99714
1811.07,0.99782
1797.57,0.99558
1784.07,0.99652
1770.57,0.99736
1757.07,0.99600
1743.57,0.99493
1730.07,0.99489
1716.57,0.99825
1703.07,0.99306
1689.56,0.99182
1676.06,0.99537
1662.56,0.99664
1649.06,0.98942
1635.56,1.00058
1622.06,0.99539
1608.56,0.99820
1595.06,0.99855
1581.56,0.99594
1568.05,0.99584
1554.55,0.98885
1541.05,1.00061
1527.55,0.99348
1514.05,0.99227
1500.55,0.99125
1487.05,0.99737
1473.55,0.99983
1460.05,0.99508
1446.54,0.99716
1433.04,0.99518
1419.54,0.99722
1406.04,0.99809
1392.54,0.99604
1379.04,0.99728
1365.54,0.99782
1352.04,0.99871
1338.54,0.99818
1325.03,0.99791
1311.53,0.99851
1298.03,0.99768
1284.53,0.99847
1271.03,0.99796
1257.53,0.99898
1244.03,0.99675
1230.53,0.99752
1217.03,0.99703
1203.53,0.99866
1190.02,0.99773
1176.52,0.99757
1163.02,0.99835
1149.52,0.99831
1136.02,0.99915
1122.52,0.99765
1109.02,0.99768
1095.52,0.99871
1082.02,0.99772
1068.51,0.99679
1055.01,0.99962
1041.51,0.99952
1028.01,0.99837
1014.51,0.99855
1001.01,0.99667
987.508,0.99848
974.007,0.99859
960.506,0.99886
947.005,0.99682
933.503,1.00033
920.002,0.99781
906.501,0.99676
893,0.99948
879.499,0.99757
865.998,0.99535
852.497,0.99923
838.996,0.99842
825.495,0.99709
811.994,0.99694
798.493,0.99856
784.992,0.99518
771.49,0.99457
757.989,0.99858
744.488,0.99885
730.987,0.99822
717.486,0.99698
703.985,0.99967
690.484,0.99774
676.983,0.99870
663.482,1.00316
649.981,0.99399
636.48,0.99717
622.979,0.99672
609.477,0.99682
599.834,0.99457