Folder: fsri_materials_database/01_Data/Polyester_Fabric/FTIR/IS (part 2)

File: Polyester_Fabric_IS_S_221019_R1.dpt
7497.03,0.84268
7473.88,0.83160
7450.74,0.82583
7427.59,0.83656
7404.45,0.82315
7381.31,0.82666
7358.16,0.81893
7335.02,0.81608
7311.87,0.81243
7288.73,0.81766
7265.58,0.81871
7242.44,0.81967
7219.29,0.81548
7196.15,0.81548
7173,0.81212
7149.86,0.80381
7126.71,0.81039
7103.57,0.80600
7080.42,0.80900
7057.28,0.80881
7034.13,0.79350
7010.99,0.80802
6987.84,0.80186
6964.7,0.80580
6941.55,0.80550
6918.41,0.80494
6895.26,0.81307
6872.12,0.80882
6848.97,0.80345
6825.83,0.81140
6802.68,0.80672
6779.54,0.80710
6756.39,0.81204
6733.25,0.81504
6710.1,0.81451
6686.96,0.81147
6663.81,0.81567
6640.67,0.81005
6617.52,0.81770
6594.38,0.81602
6571.23,0.81777
6548.09,0.81485
6524.94,0.82193
6501.8,0.81663
6478.65,0.81667
6455.51,0.81547
6432.36,0.81199
6409.22,0.81596
6386.07,0.82289
6362.93,0.82005
6339.78,0.81869
6316.64,0.81572
6293.49,0.81286
6270.35,0.81486
6247.2,0.81141
6224.06,0.81584
6200.91,0.80599
6177.77,0.80426
6154.62,0.79974
6131.48,0.79537
6108.33,0.77896
6085.19,0.74987
6062.04,0.72275
6038.9,0.69175
6015.75,0.67738
5992.61,0.70787
5969.46,0.71809
5946.32,0.72910
5923.17,0.74613
5900.03,0.75899
5876.88,0.74894
5853.74,0.74496
5830.59,0.75238
5807.45,0.74797
5784.3,0.75103
5761.16,0.75906
5738.01,0.76804
5714.87,0.77268
5691.72,0.77574
5668.58,0.77742
5645.44,0.77949
5622.29,0.78544
5599.15,0.78847
5576,0.78211
5552.86,0.78055
5529.71,0.78124
5506.57,0.78516
5483.42,0.78222
5460.28,0.78335
5437.13,0.79056
5413.99,0.79540
5390.84,0.79460
5367.7,0.79387
5344.55,0.79346
5321.41,0.79648
5298.26,0.79231
5275.12,0.78534
5251.97,0.77701
5228.83,0.77772
5205.68,0.77741
5182.54,0.77848
5159.39,0.77194
5136.25,0.76560
5113.1,0.75941
5089.96,0.77756
5066.81,0.78247
5043.67,0.78313
5020.52,0.78316
4997.38,0.78366
4974.23,0.78401
4951.09,0.78072
4927.94,0.77474
4904.8,0.77128
4881.65,0.76776
4858.51,0.76668
4835.36,0.75562
4812.22,0.74335
4789.07,0.73712
4765.93,0.74268
4742.78,0.72359
4719.64,0.68803
4696.49,0.65878
4673.35,0.68197
4650.2,0.69086
4627.06,0.67906
4603.91,0.71467
4580.77,0.68924
4557.62,0.72506
4534.48,0.72379
4511.33,0.70856
4488.19,0.66122
4465.04,0.61611
4441.9,0.59293
4418.75,0.60380
4395.61,0.61778
4372.46,0.62809
4349.32,0.62206
4326.17,0.61532
4303.03,0.59963
4279.88,0.59641
4256.74,0.60505
4233.59,0.60425
4210.45,0.61472
4187.3,0.61426
4164.16,0.61868
4141.01,0.61968
4117.87,0.60479
4094.72,0.54750
4071.58,0.59253
4048.43,0.61631
4025.29,0.63056
4002.14,0.63132
3979,0.63730
3955.85,0.64546
3932.71,0.65198
3909.57,0.65661
3886.42,0.67290
3863.28,0.68099
3840.13,0.68318
3816.99,0.67705
3793.84,0.67524
3770.7,0.67037
3747.55,0.67869
3724.41,0.67957
3701.26,0.66109
3678.12,0.62769
3654.97,0.61072
3631.83,0.57332
3608.68,0.55041
3585.54,0.51236
3562.39,0.46002
3539.25,0.44203
3516.1,0.44804
3492.96,0.44630
3469.81,0.42594
3446.67,0.37447
3423.52,0.35426
3400.38,0.41949
3377.23,0.42808
3354.09,0.41585
3330.94,0.40279
3307.8,0.41135
3284.65,0.41869
3261.51,0.42638
3238.36,0.42940
3215.22,0.44001
3192.07,0.44145
3168.93,0.44534
3145.78,0.43979
3122.64,0.42429
3099.49,0.39884
3076.35,0.38459
3053.2,0.36769
3030.06,0.41154
3006.91,0.33412
2983.77,0.28400
2960.62,0.24058
2937.48,0.32216
2914.33,0.28285
2891.19,0.32395
2868.04,0.35360
2844.9,0.40170
2821.75,0.46721
2798.61,0.47442
2775.46,0.50623
2752.32,0.51295
2729.17,0.53088
2706.03,0.55027
2682.88,0.56001
2659.74,0.56258
2636.59,0.53501
2613.45,0.53402
2590.3,0.51842
2567.16,0.51471
2544.01,0.51025
2520.87,0.51885
2497.72,0.52873
2474.58,0.55443
2451.43,0.55788
2428.29,0.52802
2405.14,0.49314
2382,0.48431
2358.85,0.51720
2335.71,0.53995
2312.56,0.55150
2289.42,0.50194
2266.27,0.49270
2243.13,0.50491
2219.98,0.52065
2196.84,0.53650
2173.7,0.51479
2150.55,0.46065
2127.41,0.42532
2104.26,0.40646
2081.12,0.43153
2057.97,0.48815
2034.83,0.50769
2011.68,0.46541
1988.54,0.41349
1965.39,0.33598
1942.25,0.36984
1919.1,0.42904
1895.96,0.45244
1872.81,0.44072
1849.67,0.36798
1826.52,0.29782
1803.38,0.28547
1780.23,0.24922
1757.09,0.14504
1733.94,0.03327
1710.8,0.08115
1687.65,0.17563
1664.51,0.23421
1641.36,0.27351
1618.22,0.26939
1595.07,0.29295
1571.93,0.25206
1548.78,0.28459
1525.64,0.25927
1502.49,0.16330
1479.35,0.20296
1456.2,0.15018
1433.06,0.16876
1409.91,0.05909
1386.77,0.10712
1363.62,0.10112
1340.48,0.05805
1317.33,0.06757
1294.19,0.03719
1271.04,0.06053
1247.9,0.06266
1224.75,0.14658
1201.61,0.24647
1178.46,0.19902
1155.32,0.10343
1132.17,0.05434
1109.03,0.06093
1085.88,0.12542
1062.74,0.26907
1039.59,0.20805
1016.45,0.14085
993.303,0.30522
970.158,0.18985
947.014,0.35257
923.869,0.35487
900.724,0.25943
877.579,0.18816
854.434,0.18927
831.289,0.26448
808.144,0.26671
784.999,0.26284
761.854,0.28768
738.709,0.09947
715.564,0.23651
692.419,0.30095
669.274,0.29090
646.129,0.29896
622.984,0.29068
599.84,0.28254

File: Polyester_Fabric_IS_S_221019_R2.dpt
7497.03,0.83227
7473.88,0.83595
7450.74,0.83101
7427.59,0.83484
7404.45,0.83001
7381.31,0.82594
7358.16,0.81871
7335.02,0.81949
7311.87,0.82151
7288.73,0.82681
7265.58,0.81803
7242.44,0.80925
7219.29,0.81090
7196.15,0.81163
7173,0.80494
7149.86,0.81779
7126.71,0.80620
7103.57,0.80794
7080.42,0.80478
7057.28,0.80420
7034.13,0.81001
7010.99,0.80325
6987.84,0.80819
6964.7,0.80386
6941.55,0.81176
6918.41,0.80876
6895.26,0.80433
6872.12,0.80884
6848.97,0.80798
6825.83,0.80748
6802.68,0.80557
6779.54,0.81079
6756.39,0.80872
6733.25,0.80707
6710.1,0.81088
6686.96,0.81137
6663.81,0.81241
6640.67,0.81359
6617.52,0.81531
6594.38,0.81667
6571.23,0.81338
6548.09,0.81177
6524.94,0.81919
6501.8,0.81584
6478.65,0.81670
6455.51,0.81771
6432.36,0.81804
6409.22,0.81474
6386.07,0.81773
6362.93,0.81945
6339.78,0.82009
6316.64,0.81766
6293.49,0.81801
6270.35,0.81342
6247.2,0.81484
6224.06,0.81450
6200.91,0.80764
6177.77,0.80756
6154.62,0.80276
6131.48,0.79561
6108.33,0.78188
6085.19,0.74927
6062.04,0.71953
6038.9,0.69139
6015.75,0.67725
5992.61,0.70463
5969.46,0.71408
5946.32,0.73200
5923.17,0.74998
5900.03,0.75864
5876.88,0.75192
5853.74,0.74811
5830.59,0.74989
5807.45,0.74882
5784.3,0.75097
5761.16,0.75656
5738.01,0.76665
5714.87,0.77232
5691.72,0.77805
5668.58,0.77984
5645.44,0.77973
5622.29,0.78699
5599.15,0.78695
5576,0.78393
5552.86,0.78061
5529.71,0.78207
5506.57,0.78459
5483.42,0.78122
5460.28,0.78573
5437.13,0.79129
5413.99,0.79533
5390.84,0.79645
5367.7,0.79610
5344.55,0.79477
5321.41,0.79392
5298.26,0.79288
5275.12,0.78739
5251.97,0.78001
5228.83,0.77708
5205.68,0.77782
5182.54,0.78066
5159.39,0.77570
5136.25,0.76715
5113.1,0.76164
5089.96,0.77692
5066.81,0.78362
5043.67,0.78480
5020.52,0.78461
4997.38,0.78422
4974.23,0.78534
4951.09,0.77959
4927.94,0.77673
4904.8,0.77001
4881.65,0.76845
4858.51,0.76627
4835.36,0.75679
4812.22,0.74339
4789.07,0.73751
4765.93,0.74442
4742.78,0.72382
4719.64,0.68905
4696.49,0.65990
4673.35,0.68262
4650.2,0.69148
4627.06,0.67901
4603.91,0.71611
4580.77,0.69128
4557.62,0.72490
4534.48,0.72466
4511.33,0.71063
4488.19,0.66239
4465.04,0.61694
4441.9,0.59366
4418.75,0.60466
4395.61,0.61900
4372.46,0.62828
4349.32,0.62255
4326.17,0.61586
4303.03,0.60066
4279.88,0.59664
4256.74,0.60563
4233.59,0.60472
4210.45,0.61554
4187.3,0.61497
4164.16,0.61830
4141.01,0.62073
4117.87,0.60626
4094.72,0.54832
4071.58,0.59297
4048.43,0.61713
4025.29,0.63124
4002.14,0.63201
3979,0.63866
3955.85,0.64657
3932.71,0.65313
3909.57,0.65772
3886.42,0.67388
3863.28,0.68051
3840.13,0.68409
3816.99,0.67783
3793.84,0.67567
3770.7,0.67174
3747.55,0.67927
3724.41,0.67998
3701.26,0.66283
3678.12,0.63079
3654.97,0.62002
3631.83,0.58307
3608.68,0.55788
3585.54,0.51718
3562.39,0.46462
3539.25,0.44584
3516.1,0.45078
3492.96,0.44971
3469.81,0.42842
3446.67,0.37632
3423.52,0.35597
3400.38,0.42116
3377.23,0.42968
3354.09,0.41744
3330.94,0.40375
3307.8,0.41306
3284.65,0.41934
3261.51,0.42854
3238.36,0.43161
3215.22,0.44128
3192.07,0.44316
3168.93,0.44675
3145.78,0.44141
3122.64,0.42567
3099.49,0.39987
3076.35,0.38499
3053.2,0.36887
3030.06,0.41264
3006.91,0.33543
2983.77,0.28402
2960.62,0.24042
2937.48,0.32237
2914.33,0.28316
2891.19,0.32405
2868.04,0.35381
2844.9,0.40255
2821.75,0.46822
2798.61,0.47558
2775.46,0.50692
2752.32,0.51365
2729.17,0.53190
2706.03,0.55188
2682.88,0.56125
2659.74,0.56327
2636.59,0.53629
2613.45,0.53496
2590.3,0.51920
2567.16,0.51614
2544.01,0.51077
2520.87,0.51968
2497.72,0.52923
2474.58,0.55558
2451.43,0.55853
2428.29,0.52926
2405.14,0.49367
2382,0.48506
2358.85,0.51755
2335.71,0.54068
2312.56,0.55212
2289.42,0.50225
2266.27,0.49344
2243.13,0.50536
2219.98,0.52193
2196.84,0.53761
2173.7,0.51587
2150.55,0.46127
2127.41,0.42578
2104.26,0.40695
2081.12,0.43240
2057.97,0.48882
2034.83,0.50861
2011.68,0.46619
1988.54,0.41423
1965.39,0.33662
1942.25,0.37046
1919.1,0.42940
1895.96,0.45304
1872.81,0.44136
1849.67,0.36850
1826.52,0.29822
1803.38,0.28576
1780.23,0.24936
1757.09,0.14511
1733.94,0.03309
1710.8,0.08125
1687.65,0.17561
1664.51,0.23514
1641.36,0.27412
1618.22,0.27019
1595.07,0.29410
1571.93,0.25262
1548.78,0.28507
1525.64,0.25899
1502.49,0.16319
1479.35,0.20302
1456.2,0.14999
1433.06,0.16879
1409.91,0.05889
1386.77,0.10688
1363.62,0.10122
1340.48,0.05806
1317.33,0.06795
1294.19,0.03704
1271.04,0.06081
1247.9,0.06255
1224.75,0.14630
1201.61,0.24709
1178.46,0.19976
1155.32,0.10346
1132.17,0.05427
1109.03,0.06073
1085.88,0.12563
1062.74,0.26881
1039.59,0.20830
1016.45,0.14118
993.303,0.30575
970.158,0.19015
947.014,0.35231
923.869,0.35518
900.724,0.25940
877.579,0.18835
854.434,0.18902
831.289,0.26538
808.144,0.26671
784.999,0.26391
761.854,0.28813
738.709,0.10028
715.564,0.23727
692.419,0.30081
669.274,0.29053
646.129,0.29969
622.984,0.29003
599.84,0.28205

File: Polyester_Fabric_IS_S_221019_R4.dpt
7497.03,0.84490
7473.88,0.83530
7450.74,0.83317
7427.59,0.83460
7404.45,0.81819
7381.31,0.82099
7358.16,0.81824
7335.02,0.82054
7311.87,0.81145
7288.73,0.82355
7265.58,0.81573
7242.44,0.82278
7219.29,0.82176
7196.15,0.81514
7173,0.80869
7149.86,0.81431
7126.71,0.80855
7103.57,0.81795
7080.42,0.80396
7057.28,0.80193
7034.13,0.80532
7010.99,0.80975
6987.84,0.80332
6964.7,0.80046
6941.55,0.81087
6918.41,0.80977
6895.26,0.80927
6872.12,0.80862
6848.97,0.81477
6825.83,0.81099
6802.68,0.81475
6779.54,0.81093
6756.39,0.81172
6733.25,0.80693
6710.1,0.81051
6686.96,0.81584
6663.81,0.80980
6640.67,0.81530
6617.52,0.81608
6594.38,0.81282
6571.23,0.81369
6548.09,0.81896
6524.94,0.81638
6501.8,0.81829
6478.65,0.81653
6455.51,0.82040
6432.36,0.81904
6409.22,0.82093
6386.07,0.81967
6362.93,0.81799
6339.78,0.81714
6316.64,0.81832
6293.49,0.81701
6270.35,0.81807
6247.2,0.82041
6224.06,0.81296
6200.91,0.80489
6177.77,0.80919
6154.62,0.79943
6131.48,0.79241
6108.33,0.78226
6085.19,0.75238
6062.04,0.71907
6038.9,0.69054
6015.75,0.67697
5992.61,0.70900
5969.46,0.71936
5946.32,0.72920
5923.17,0.74536
5900.03,0.75906
5876.88,0.75150
5853.74,0.74759
5830.59,0.75128
5807.45,0.75067
5784.3,0.75249
5761.16,0.75856
5738.01,0.76964
5714.87,0.77854
5691.72,0.77753
5668.58,0.77943
5645.44,0.77926
5622.29,0.78828
5599.15,0.78806
5576,0.78565
5552.86,0.78132
5529.71,0.78421
5506.57,0.78553
5483.42,0.78227
5460.28,0.78614
5437.13,0.79177
5413.99,0.79537
5390.84,0.79635
5367.7,0.79517
5344.55,0.79512
5321.41,0.79656
5298.26,0.79572
5275.12,0.78709
5251.97,0.78229
5228.83,0.78021
5205.68,0.78122
5182.54,0.78106
5159.39,0.77643
5136.25,0.76824
5113.1,0.76416
5089.96,0.77839
5066.81,0.78478
5043.67,0.78540
5020.52,0.78652
4997.38,0.78649
4974.23,0.78695
4951.09,0.78291
4927.94,0.77713
4904.8,0.77116
4881.65,0.76940
4858.51,0.76551
4835.36,0.75609
4812.22,0.74507
4789.07,0.73822
4765.93,0.74431
4742.78,0.72484
4719.64,0.68926
4696.49,0.65834
4673.35,0.68241
4650.2,0.69188
4627.06,0.68044
4603.91,0.71559
4580.77,0.69062
4557.62,0.72576
4534.48,0.72509
4511.33,0.71106
4488.19,0.66305
4465.04,0.61816
4441.9,0.59438
4418.75,0.60533
4395.61,0.61820
4372.46,0.62911
4349.32,0.62296
4326.17,0.61647
4303.03,0.60059
4279.88,0.59640
4256.74,0.60597
4233.59,0.60542
4210.45,0.61610
4187.3,0.61423
4164.16,0.61939
4141.01,0.62083
4117.87,0.60595
4094.72,0.54813
4071.58,0.59339
4048.43,0.61673
4025.29,0.63202
4002.14,0.63359
3979,0.63909
3955.85,0.64722
3932.71,0.65407
3909.57,0.65770
3886.42,0.67500
3863.28,0.68245
3840.13,0.68453
3816.99,0.67823
3793.84,0.67659
3770.7,0.67315
3747.55,0.68057
3724.41,0.68221
3701.26,0.66480
3678.12,0.63688
3654.97,0.63154
3631.83,0.59599
3608.68,0.56644
3585.54,0.52342
3562.39,0.47043
3539.25,0.45057
3516.1,0.45422
3492.96,0.45220
3469.81,0.43118
3446.67,0.37831
3423.52,0.35686
3400.38,0.42269
3377.23,0.43163
3354.09,0.41944
3330.94,0.40546
3307.8,0.41454
3284.65,0.42071
3261.51,0.42967
3238.36,0.43291
3215.22,0.44388
3192.07,0.44517
3168.93,0.44850
3145.78,0.44282
3122.64,0.42728
3099.49,0.40161
3076.35,0.38640
3053.2,0.37006
3030.06,0.41354
3006.91,0.33573
2983.77,0.28523
2960.62,0.24065
2937.48,0.32259
2914.33,0.28388
2891.19,0.32429
2868.04,0.35414
2844.9,0.40294
2821.75,0.46951
2798.61,0.47682
2775.46,0.50836
2752.32,0.51494
2729.17,0.53291
2706.03,0.55268
2682.88,0.56296
2659.74,0.56493
2636.59,0.53700
2613.45,0.53561
2590.3,0.52020
2567.16,0.51684
2544.01,0.51180
2520.87,0.52037
2497.72,0.53012
2474.58,0.55610
2451.43,0.55905
2428.29,0.52996
2405.14,0.49449
2382,0.48567
2358.85,0.51740
2335.71,0.54135
2312.56,0.55309
2289.42,0.50268
2266.27,0.49349
2243.13,0.50614
2219.98,0.52221
2196.84,0.53790
2173.7,0.51671
2150.55,0.46175
2127.41,0.42638
2104.26,0.40706
2081.12,0.43271
2057.97,0.49005
2034.83,0.50955
2011.68,0.46682
1988.54,0.41466
1965.39,0.33708
1942.25,0.37069
1919.1,0.42998
1895.96,0.45372
1872.81,0.44191
1849.67,0.36887
1826.52,0.29851
1803.38,0.28586
1780.23,0.24946
1757.09,0.14498
1733.94,0.03325
1710.8,0.08104
1687.65,0.17593
1664.51,0.23535
1641.36,0.27562
1618.22,0.27161
1595.07,0.29455
1571.93,0.25301
1548.78,0.28557
1525.64,0.25952
1502.49,0.16351
1479.35,0.20298
1456.2,0.15037
1433.06,0.16912
1409.91,0.05895
1386.77,0.10666
1363.62,0.10101
1340.48,0.05818
1317.33,0.06772
1294.19,0.03683
1271.04,0.06029
1247.9,0.06239
1224.75,0.14630
1201.61,0.24681
1178.46,0.19949
1155.32,0.10338
1132.17,0.05319
1109.03,0.06051
1085.88,0.12610
1062.74,0.26883
1039.59,0.20754
1016.45,0.14083
993.303,0.30614
970.158,0.19017
947.014,0.35269
923.869,0.35582
900.724,0.26013
877.579,0.18777
854.434,0.18991
831.289,0.26589
808.144,0.26700
784.999,0.26429
761.854,0.28895
738.709,0.10097
715.564,0.23818
692.419,0.30234
669.274,0.29075
646.129,0.30057
622.984,0.29073
599.84,0.28305

File: Polyester_Fabric_IS_S_221019_R7.dpt
7497.03,0.84655
7473.88,0.82936
7450.74,0.82814
7427.59,0.82461
7404.45,0.82438
7381.31,0.83625
7358.16,0.82341
7335.02,0.82334
7311.87,0.82267
7288.73,0.81528
7265.58,0.82260
7242.44,0.82532
7219.29,0.82116
7196.15,0.81515
7173,0.81005
7149.86,0.81554
7126.71,0.80906
7103.57,0.81233
7080.42,0.81469
7057.28,0.80581
7034.13,0.80233
7010.99,0.80242
6987.84,0.80419
6964.7,0.80300
6941.55,0.80553
6918.41,0.80846
6895.26,0.81156
6872.12,0.81096
6848.97,0.81098
6825.83,0.80866
6802.68,0.80790
6779.54,0.81225
6756.39,0.81225
6733.25,0.81501
6710.1,0.81416
6686.96,0.80633
6663.81,0.81399
6640.67,0.81245
6617.52,0.82082
6594.38,0.82088
6571.23,0.81695
6548.09,0.81331
6524.94,0.81429
6501.8,0.82169
6478.65,0.81927
6455.51,0.81766
6432.36,0.81453
6409.22,0.82053
6386.07,0.81985
6362.93,0.82131
6339.78,0.81809
6316.64,0.81125
6293.49,0.81661
6270.35,0.81327
6247.2,0.81814
6224.06,0.81505
6200.91,0.80505
6177.77,0.80800
6154.62,0.80235
6131.48,0.79693
6108.33,0.77930
6085.19,0.75365
6062.04,0.71984
6038.9,0.69400
6015.75,0.67423
5992.61,0.70441
5969.46,0.71479
5946.32,0.73055
5923.17,0.74737
5900.03,0.76130
5876.88,0.75127
5853.74,0.74681
5830.59,0.75144
5807.45,0.75036
5784.3,0.75170
5761.16,0.75798
5738.01,0.76918
5714.87,0.77345
5691.72,0.77739
5668.58,0.77899
5645.44,0.78232
5622.29,0.78769
5599.15,0.78962
5576,0.78508
5552.86,0.78145
5529.71,0.78227
5506.57,0.78467
5483.42,0.78129
5460.28,0.78763
5437.13,0.79223
5413.99,0.79585
5390.84,0.79587
5367.7,0.79676
5344.55,0.79299
5321.41,0.79876
5298.26,0.79623
5275.12,0.79021
5251.97,0.78386
5228.83,0.78355
5205.68,0.78380
5182.54,0.78098
5159.39,0.77910
5136.25,0.77095
5113.1,0.76289
5089.96,0.78015
5066.81,0.78556
5043.67,0.78787
5020.52,0.78607
4997.38,0.78618
4974.23,0.78623
4951.09,0.78313
4927.94,0.77673
4904.8,0.77175
4881.65,0.76868
4858.51,0.76586
4835.36,0.75710
4812.22,0.74400
4789.07,0.73774
4765.93,0.74373
4742.78,0.72500
4719.64,0.68889
4696.49,0.65850
4673.35,0.68349
4650.2,0.69192
4627.06,0.67992
4603.91,0.71657
4580.77,0.69110
4557.62,0.72652
4534.48,0.72433
4511.33,0.71086
4488.19,0.66261
4465.04,0.61835
4441.9,0.59410
4418.75,0.60460
4395.61,0.61992
4372.46,0.62884
4349.32,0.62376
4326.17,0.61643
4303.03,0.60016
4279.88,0.59614
4256.74,0.60628
4233.59,0.60514
4210.45,0.61658
4187.3,0.61499
4164.16,0.61891
4141.01,0.62090
4117.87,0.60564
4094.72,0.54885
4071.58,0.59379
4048.43,0.61705
4025.29,0.63207
4002.14,0.63286
3979,0.63889
3955.85,0.64729
3932.71,0.65372
3909.57,0.65802
3886.42,0.67540
3863.28,0.68293
3840.13,0.68478
3816.99,0.67862
3793.84,0.67730
3770.7,0.67338
3747.55,0.68172
3724.41,0.68242
3701.26,0.66658
3678.12,0.64088
3654.97,0.64361
3631.83,0.60805
3608.68,0.57588
3585.54,0.52850
3562.39,0.47447
3539.25,0.45424
3516.1,0.45799
3492.96,0.45530
3469.81,0.43307
3446.67,0.37827
3423.52,0.35776
3400.38,0.42504
3377.23,0.43306
3354.09,0.42019
3330.94,0.40529
3307.8,0.41508
3284.65,0.42141
3261.51,0.43042
3238.36,0.43391
3215.22,0.44481
3192.07,0.44667
3168.93,0.44962
3145.78,0.44427
3122.64,0.42829
3099.49,0.40270
3076.35,0.38714
3053.2,0.37032
3030.06,0.41396
3006.91,0.33637
2983.77,0.28522
2960.62,0.24081
2937.48,0.32357
2914.33,0.28385
2891.19,0.32464
2868.04,0.35445
2844.9,0.40346
2821.75,0.46952
2798.61,0.47775
2775.46,0.50919
2752.32,0.51489
2729.17,0.53396
2706.03,0.55347
2682.88,0.56281
2659.74,0.56581
2636.59,0.53789
2613.45,0.53620
2590.3,0.52009
2567.16,0.51707
2544.01,0.51203
2520.87,0.52048
2497.72,0.53051
2474.58,0.55634
2451.43,0.55920
2428.29,0.52987
2405.14,0.49398
2382,0.48572
2358.85,0.51773
2335.71,0.54120
2312.56,0.55306
2289.42,0.50304
2266.27,0.49371
2243.13,0.50635
2219.98,0.52239
2196.84,0.53820
2173.7,0.51659
2150.55,0.46227
2127.41,0.42609
2104.26,0.40756
2081.12,0.43275
2057.97,0.48968
2034.83,0.50998
2011.68,0.46702
1988.54,0.41480
1965.39,0.33733
1942.25,0.37074
1919.1,0.43006
1895.96,0.45397
1872.81,0.44186
1849.67,0.36858
1826.52,0.29837
1803.38,0.28590
1780.23,0.24907
1757.09,0.14469
1733.94,0.03305
1710.8,0.08159
1687.65,0.17571
1664.51,0.23545
1641.36,0.27699
1618.22,0.27238
1595.07,0.29524
1571.93,0.25319
1548.78,0.28564
1525.64,0.25898
1502.49,0.16339
1479.35,0.20319
1456.2,0.15052
1433.06,0.16899
1409.91,0.05903
1386.77,0.10682
1363.62,0.10112
1340.48,0.05840
1317.33,0.06788
1294.19,0.03701
1271.04,0.06042
1247.9,0.06233
1224.75,0.14646
1201.61,0.24650
1178.46,0.19952
1155.32,0.10373
1132.17,0.05420
1109.03,0.06074
1085.88,0.12585
1062.74,0.26925
1039.59,0.20782
1016.45,0.14051
993.303,0.30648
970.158,0.19097
947.014,0.35272
923.869,0.35555
900.724,0.26020
877.579,0.18855
854.434,0.18935
831.289,0.26590
808.144,0.26766
784.999,0.26407
761.854,0.28941
738.709,0.10110
715.564,0.23909
692.419,0.30291
669.274,0.29288
646.129,0.30063
622.984,0.29413
599.84,0.28304

File: Polyester_Fabric_IS_T_221019_R1.dpt
7497.03,0.01837
7473.88,0.01714
7450.74,0.02258
7427.59,0.01796
7404.45,0.02219
7381.31,0.03217
7358.16,0.02105
7335.02,0.02419
7311.87,0.02154
7288.73,0.01989
7265.58,0.02758
7242.44,0.02670
7219.29,0.02117
7196.15,0.03099
7173,0.02161
7149.86,0.02427
7126.71,0.01839
7103.57,0.02720
7080.42,0.02319
7057.28,0.01892
7034.13,0.01998
7010.99,0.02673
6987.84,0.02191
6964.7,0.02485
6941.55,0.02613
6918.41,0.01871
6895.26,0.02421
6872.12,0.02710
6848.97,0.02252
6825.83,0.02305
6802.68,0.02276
6779.54,0.02295
6756.39,0.02147
6733.25,0.02692
6710.1,0.01788
6686.96,0.02336
6663.81,0.01940
6640.67,0.02144
6617.52,0.02239
6594.38,0.01938
6571.23,0.02418
6548.09,0.02299
6524.94,0.02481
6501.8,0.02215
6478.65,0.02187
6455.51,0.02367
6432.36,0.02154
6409.22,0.02027
6386.07,0.01976
6362.93,0.02263
6339.78,0.02570
6316.64,0.02320
6293.49,0.02053
6270.35,0.01970
6247.2,0.02265
6224.06,0.02135
6200.91,0.02237
6177.77,0.02144
6154.62,0.02139
6131.48,0.02234
6108.33,0.02481
6085.19,0.02192
6062.04,0.02007
6038.9,0.02272
6015.75,0.02222
5992.61,0.02235
5969.46,0.02214
5946.32,0.02004
5923.17,0.02366
5900.03,0.02387
5876.88,0.02227
5853.74,0.02250
5830.59,0.02371
5807.45,0.02139
5784.3,0.02042
5761.16,0.02103
5738.01,0.01971
5714.87,0.02140
5691.72,0.02303
5668.58,0.02176
5645.44,0.02268
5622.29,0.02321
5599.15,0.02227
5576,0.02189
5552.86,0.02191
5529.71,0.02106
5506.57,0.02351
5483.42,0.02257
5460.28,0.02314
5437.13,0.02349
5413.99,0.02419
5390.84,0.02364
5367.7,0.02209
5344.55,0.02004
5321.41,0.02219
5298.26,0.02145
5275.12,0.02215
5251.97,0.02200
5228.83,0.02353
5205.68,0.02131
5182.54,0.02107
5159.39,0.02094
5136.25,0.02163
5113.1,0.02192
5089.96,0.02251
5066.81,0.02234
5043.67,0.02187
5020.52,0.02166
4997.38,0.02303
4974.23,0.02124
4951.09,0.02253
4927.94,0.02250
4904.8,0.02170
4881.65,0.02226
4858.51,0.02247
4835.36,0.02208
4812.22,0.02216
4789.07,0.02184
4765.93,0.02281
4742.78,0.02281
4719.64,0.02163
4696.49,0.02224
4673.35,0.02207
4650.2,0.02227
4627.06,0.02232
4603.91,0.02206
4580.77,0.02217
4557.62,0.02183
4534.48,0.02285
4511.33,0.02281
4488.19,0.02369
4465.04,0.02275
4441.9,0.02200
4418.75,0.02248
4395.61,0.02304
4372.46,0.02226
4349.32,0.02290
4326.17,0.02294
4303.03,0.02230
4279.88,0.02279
4256.74,0.02242
4233.59,0.02257
4210.45,0.02267
4187.3,0.02239
4164.16,0.02220
4141.01,0.02308
4117.87,0.02220
4094.72,0.02285
4071.58,0.02264
4048.43,0.02231
4025.29,0.02258
4002.14,0.02272
3979,0.02245
3955.85,0.02243
3932.71,0.02306
3909.57,0.02316
3886.42,0.02308
3863.28,0.02303
3840.13,0.02306
3816.99,0.02330
3793.84,0.02319
3770.7,0.02277
3747.55,0.02245
3724.41,0.02252
3701.26,0.02286
3678.12,0.02224
3654.97,0.02245
3631.83,0.02186
3608.68,0.02198
3585.54,0.02237
3562.39,0.02117
3539.25,0.02162
3516.1,0.02054
3492.96,0.02144
3469.81,0.02132
3446.67,0.02153
3423.52,0.02116
3400.38,0.02064
3377.23,0.02065
3354.09,0.02073
3330.94,0.02114
3307.8,0.02045
3284.65,0.02106
3261.51,0.02105
3238.36,0.02126
3215.22,0.02088
3192.07,0.02099
3168.93,0.02026
3145.78,0.02114
3122.64,0.02064
3099.49,0.02118
3076.35,0.02028
3053.2,0.02077
3030.06,0.02050
3006.91,0.02069
2983.77,0.02076
2960.62,0.02020
2937.48,0.02011
2914.33,0.02038
2891.19,0.02052
2868.04,0.02067
2844.9,0.02150
2821.75,0.02179
2798.61,0.02119
2775.46,0.02174
2752.32,0.02206
2729.17,0.02155
2706.03,0.02157
2682.88,0.02132
2659.74,0.02190
2636.59,0.02156
2613.45,0.02152
2590.3,0.02154
2567.16,0.02162
2544.01,0.02141
2520.87,0.02130
2497.72,0.02157
2474.58,0.02154
2451.43,0.02110
2428.29,0.02160
2405.14,0.02105
2382,0.02167
2358.85,0.02172
2335.71,0.02178
2312.56,0.02159
2289.42,0.02119
2266.27,0.02122
2243.13,0.02151
2219.98,0.02141
2196.84,0.02144
2173.7,0.02148
2150.55,0.02123
2127.41,0.02158
2104.26,0.02135
2081.12,0.02145
2057.97,0.02136
2034.83,0.02169
2011.68,0.02136
1988.54,0.02134
1965.39,0.02120
1942.25,0.02101
1919.1,0.02128
1895.96,0.02099
1872.81,0.02078
1849.67,0.02092
1826.52,0.02058
1803.38,0.02013
1780.23,0.01937
1757.09,0.01795
1733.94,0.01945
1710.8,0.02093
1687.65,0.01938
1664.51,0.01839
1641.36,0.01845
1618.22,0.01901
1595.07,0.01882
1571.93,0.01848
1548.78,0.01859
1525.64,0.01869
1502.49,0.01850
1479.35,0.01890
1456.2,0.01850
1433.06,0.01843
1409.91,0.01880
1386.77,0.01812
1363.62,0.01828
1340.48,0.01774
1317.33,0.01723
1294.19,0.01784
1271.04,0.01974
1247.9,0.02038
1224.75,0.01982
1201.61,0.01818
1178.46,0.01803
1155.32,0.01752
1132.17,0.01791
1109.03,0.01883
1085.88,0.01819
1062.74,0.01956
1039.59,0.01937
1016.45,0.01917
993.303,0.02165
970.158,0.02093
947.014,0.02005
923.869,0.01941
900.724,0.01954
877.579,0.01968
854.434,0.01935
831.289,0.01929
808.144,0.01893
784.999,0.01835
761.854,0.01856
738.709,0.01774
715.564,0.01787
692.419,0.01815
669.274,0.01778
646.129,0.01623
622.984,0.01535
599.84,0.01337