Folder: fsri_materials_database/01_Data/Cotton_Shirt/MCC (part 2)

File: Cotton_Shirt_MCC_30K_min_210709_R3.txt
Sample ID:	C:\MCC\MCC Cal\Test\Cotton_Shirt\Cotton_Shirt_MCC_30K_min_210709_R3.txt
Sample Weight (mg):	4.95
Heating Rate (C/s):	1
Combustor Temp (C):	900
N2 Flow Rate (cc/min):	80
O2 Flow Rate (cc/min):	20
Calibration File:	C:\MCC\MCC Cal\Coeff1 JN10440_30_210304.txt.txt
T Correction Coefficients:	0	1.024463	0
Time Shift (s):	14
*
Time (s)	Temperature (C)	N2 flow rate (cc/min)	O2 flow rate (cc/min)	Flow Rate (cc/min)	Oxygen (%)	HRR (W/g)	Heating rate (C/s)
-0.001	112.319	79.996	19.995	99.923	20.074	0.096	-0.007
4.000	112.238	79.996	19.995	99.914	20.072	0.230	-0.047
8.000	112.255	79.997	19.996	99.920	20.068	0.459	-0.016
12.000	112.237	79.998	19.994	99.993	20.063	0.799	-0.003
15.999	112.329	79.998	19.996	100.065	20.044	1.990	0.025
20.000	112.514	79.997	19.995	100.149	20.029	2.932	0.066
24.000	112.924	79.998	19.995	100.197	20.023	3.299	0.102
28.000	113.583	79.997	19.996	100.236	20.014	3.894	0.184
32.000	114.460	79.998	19.997	100.265	20.009	4.219	0.197
35.999	115.570	79.997	19.995	100.276	20.004	4.493	0.278
40.000	116.848	79.997	19.996	100.278	19.998	4.893	0.352
44.000	118.381	79.995	19.996	100.305	20.002	4.631	0.393
47.999	120.012	79.995	19.995	100.310	19.995	5.103	0.412
51.999	121.836	79.995	19.995	100.328	19.991	5.363	0.478
56.000	123.945	79.996	19.997	100.358	19.989	5.458	0.534
59.999	126.136	79.995	19.997	100.369	19.984	5.798	0.551
64.000	128.555	79.997	19.997	100.386	19.981	5.979	0.610
67.999	131.152	79.997	19.996	100.398	19.985	5.721	0.680
71.999	133.895	79.995	19.996	100.400	19.976	6.265	0.705
75.999	136.842	79.995	19.996	100.403	19.979	6.130	0.727
80.000	139.870	79.995	19.996	100.402	19.977	6.215	0.770
83.999	143.140	79.997	19.995	100.399	19.974	6.397	0.839
87.999	146.469	79.997	19.996	100.396	19.977	6.230	0.822
91.999	149.977	79.997	19.995	100.397	19.979	6.076	0.903
95.999	153.487	79.998	19.995	100.396	19.977	6.252	0.902
99.999	157.131	79.997	19.996	100.387	19.980	6.054	0.929
104.000	160.811	79.998	19.995	100.383	19.983	5.869	0.916
107.999	164.640	79.997	19.995	100.385	19.982	5.911	0.985
111.999	168.519	79.998	19.995	100.369	19.979	6.128	0.957
116.000	172.497	79.998	19.995	100.373	19.982	5.889	0.967
119.999	176.507	79.994	19.996	100.363	19.979	6.103	0.973
123.999	180.549	79.995	19.995	100.360	19.983	5.877	1.021
127.999	184.636	79.995	19.996	100.360	19.981	5.997	1.006
132.000	188.829	79.994	19.995	100.349	19.985	5.735	1.053
136.000	193.007	79.997	19.995	100.341	19.984	5.797	1.062
140.000	197.223	79.995	19.995	100.325	19.988	5.559	1.081
144.000	201.384	79.995	19.997	100.321	19.988	5.549	1.049
148.000	205.649	79.995	19.997	100.317	19.989	5.473	1.085
152.000	209.889	79.994	19.997	100.307	19.986	5.657	1.046
156.000	214.099	79.997	19.997	100.293	19.993	5.240	1.030
160.000	218.328	79.996	19.995	100.291	19.986	5.657	1.076
164.000	222.550	79.998	19.997	100.289	19.986	5.656	1.077
168.000	226.729	79.999	19.995	100.282	19.985	5.720	1.048
172.000	230.966	79.996	19.996	100.280	19.989	5.467	1.046
176.000	235.111	79.996	19.996	100.274	19.987	5.579	1.039
180.000	239.194	79.997	19.995	100.275	19.982	5.904	1.028
184.000	243.368	79.997	19.995	100.271	19.980	6.058	1.057
188.000	247.413	79.998	19.995	100.278	19.972	6.569	1.016
192.000	251.559	79.999	19.993	100.276	19.962	7.180	0.999
196.000	255.603	79.995	19.994	100.278	19.955	7.624	1.034
200.000	259.584	79.994	19.996	100.283	19.940	8.536	1.007
204.000	263.542	79.994	19.996	100.283	19.931	9.152	0.993
208.000	267.583	79.994	19.996	100.282	19.916	10.087	1.004
212.000	271.528	79.994	19.995	100.283	19.903	10.900	0.990
216.000	275.484	79.995	19.996	100.283	19.885	12.060	0.995
220.000	279.418	79.994	19.995	100.278	19.867	13.196	0.976
224.000	283.344	79.995	19.996	100.312	19.852	14.137	0.997
228.000	287.266	79.992	19.996	100.309	19.829	15.605	1.010
232.000	291.163	79.993	19.996	100.317	19.804	17.166	0.970
236.001	295.132	79.995	19.998	100.327	19.776	18.975	0.999
240.000	299.038	79.996	19.997	100.346	19.745	20.896	0.977
244.000	302.966	79.998	19.995	100.358	19.709	23.222	0.980
248.000	306.903	79.997	19.994	100.395	19.667	25.885	0.997
252.000	310.838	79.997	19.995	100.398	19.615	29.193	0.959
256.000	314.794	79.997	19.995	100.431	19.557	32.864	0.952
260.000	318.801	79.996	19.996	100.462	19.489	37.189	0.988
264.000	322.744	79.998	19.995	100.502	19.417	41.758	0.987
268.000	326.784	79.999	19.995	100.534	19.326	47.542	1.016
272.000	330.746	79.998	19.995	100.592	19.210	54.973	0.974
276.000	334.796	79.996	19.994	100.644	19.086	62.937	1.015
280.000	338.812	79.996	19.995	100.728	18.922	73.419	0.976
284.000	342.771	79.995	19.996	100.805	18.733	85.553	1.004
288.000	346.816	79.996	19.996	100.904	18.498	100.622	1.016
292.000	350.792	79.996	19.996	101.012	18.233	117.616	1.018
296.000	354.854	79.997	19.996	101.120	17.928	137.223	1.019
300.000	358.845	79.996	19.996	101.228	17.610	157.523	0.976
304.000	362.823	79.996	19.996	101.310	17.274	178.941	1.006
308.000	366.850	79.995	19.996	101.374	16.956	199.064	1.017
312.000	370.856	79.997	19.998	101.380	16.696	215.279	0.990
316.000	374.890	79.996	19.997	101.334	16.541	224.577	1.007
320.000	378.906	79.996	19.996	101.192	16.533	224.507	1.003
324.000	382.938	79.998	19.996	100.996	16.698	213.487	1.006
328.000	386.987	79.997	19.995	100.741	17.072	189.637	1.002
332.000	391.121	79.995	19.995	100.470	17.600	156.227	1.041
336.000	395.248	79.998	19.995	100.249	18.210	117.769	1.030
340.000	399.362	79.998	19.995	100.140	18.796	80.757	1.027
344.000	403.484	79.998	19.995	100.125	19.261	51.411	1.035
348.000	407.655	79.999	19.995	100.162	19.572	31.788	1.063
352.000	411.710	79.998	19.994	100.185	19.758	20.016	1.050
356.000	415.781	79.996	19.996	100.164	19.854	13.963	1.033
360.000	419.898	79.997	19.995	100.166	19.903	10.884	1.041
364.000	423.948	79.997	19.995	100.161	19.933	8.980	1.010
368.000	428.012	79.997	19.995	100.160	19.943	8.347	1.032
372.000	432.090	79.995	19.995	100.157	19.947	8.140	1.054
376.000	436.139	79.997	19.996	100.162	19.953	7.725	1.010
380.000	440.189	79.995	19.996	100.144	19.957	7.485	1.007
384.000	444.201	79.994	19.997	100.164	19.957	7.476	0.988
388.000	448.215	79.995	19.995	100.159	19.963	7.107	0.982
392.000	452.225	79.996	19.996	100.082	19.956	7.567	0.998
396.000	456.259	79.996	19.996	100.182	19.966	6.897	1.020
400.000	460.266	79.997	19.996	100.157	19.960	7.267	1.003
404.000	464.293	79.996	19.997	100.141	19.962	7.148	0.988
408.000	468.286	79.997	19.997	100.153	19.968	6.800	1.016
412.000	472.288	79.996	19.996	100.156	19.966	6.915	0.979
416.000	476.295	79.997	19.996	100.142	19.968	6.801	0.983
420.000	480.398	79.997	19.995	100.136	19.969	6.705	1.013
424.000	484.384	79.998	19.995	100.123	19.971	6.602	1.042
428.000	488.423	79.998	19.994	100.135	19.974	6.408	1.018
432.000	492.437	79.996	19.997	100.130	19.974	6.393	1.009
436.000	496.439	79.996	19.997	100.098	19.975	6.318	1.001
440.000	500.527	79.996	19.996	100.220	19.989	5.456	1.020
444.000	504.571	79.996	19.996	100.150	19.987	5.590	0.996
448.000	508.342	79.995	19.995	100.126	19.992	5.289	1.042
452.000	512.715	79.997	19.995	100.130	19.990	5.411	0.991
456.000	516.896	79.997	19.995	100.126	19.991	5.340	1.045
460.000	521.007	79.996	19.995	100.126	19.995	5.093	1.047
464.000	525.117	79.995	19.995	100.121	19.999	4.856	1.036
468.000	529.215	79.995	19.995	100.126	20.001	4.694	1.050
472.000	533.331	79.996	19.996	100.121	20.003	4.591	0.998
476.000	537.467	79.997	19.996	100.122	20.001	4.672	1.001
480.000	541.590	79.997	19.996	100.123	20.004	4.510	1.018
484.000	545.724	79.996	19.996	100.119	20.000	4.749	1.005
488.000	549.823	79.996	19.996	100.121	20.006	4.390	1.030
492.000	553.909	79.995	19.997	100.121	20.003	4.574	1.012
496.000	558.005	79.996	19.997	100.116	20.009	4.222	1.004
500.000	562.079	79.995	19.996	100.116	20.007	4.333	1.011
504.000	566.190	79.998	19.995	100.114	20.007	4.322	1.028
508.000	570.253	79.996	19.995	100.100	20.007	4.325	1.008
512.000	574.339	79.995	19.994	100.106	20.012	4.010	1.027
516.000	578.383	79.996	19.995	100.109	20.013	3.960	0.993
520.000	582.438	79.996	19.995	100.109	20.012	4.015	0.989
524.000	586.470	79.995	19.995	100.108	20.010	4.123	1.013
528.000	590.485	79.997	19.995	100.106	20.016	3.774	0.995
532.000	594.484	79.996	19.995	100.100	20.008	4.270	1.001
536.000	598.562	79.997	19.997	100.109	20.009	4.178	1.003
540.000	602.526	79.995	19.995	100.097	20.006	4.409	1.004
544.000	606.539	79.995	19.996	100.102	20.011	4.092	0.994
548.000	610.544	79.995	19.995	100.111	20.011	4.041	1.013
552.000	614.561	79.997	19.996	100.088	20.011	4.040	1.022
556.000	618.589	79.997	19.995	100.114	20.014	3.879	0.986
560.000	622.616	79.997	19.995	100.107	20.014	3.879	1.011
564.000	626.795	79.997	19.995	100.099	20.010	4.103	1.192
568.000	630.674	79.996	19.996	100.093	20.011	4.044	0.939
572.000	634.742	79.997	19.996	100.096	20.007	4.343	1.037
576.000	638.772	79.997	19.996	100.119	20.018	3.629	0.985
580.000	642.849	79.998	19.997	100.107	20.018	3.643	1.042
584.000	646.881	79.996	19.996	100.106	20.014	3.890	1.030
588.000	650.939	79.998	19.996	100.090	20.016	3.772	1.007
592.000	655.039	79.998	19.997	100.093	20.017	3.719	1.028
596.000	659.129	79.997	19.995	100.092	20.012	3.980	1.030
600.000	663.191	79.996	19.994	100.083	20.013	3.939	1.025
604.000	667.289	79.996	19.995	100.094	20.011	4.062	1.025
608.000	671.303	79.995	19.995	100.099	20.016	3.724	1.007
612.000	675.367	79.997	19.996	100.096	20.014	3.866	1.006
616.000	679.466	79.996	19.996	100.087	20.017	3.692	1.022
620.000	683.506	79.995	19.995	100.085	20.016	3.760	1.018
624.000	687.570	79.994	19.996	100.086	20.015	3.839	0.991
628.000	691.587	79.997	19.996	100.102	20.019	3.581	1.013
632.000	695.686	79.996	19.996	100.087	20.012	3.980	1.018
636.000	699.711	79.997	19.996	100.091	20.014	3.884	1.013
640.000	703.785	79.997	19.995	100.040	20.008	4.269	1.027
644.000	707.812	79.998	19.996	100.159	20.014	3.852	0.995
648.000	711.845	79.998	19.996	100.098	20.017	3.703	1.019
652.000	715.890	79.997	19.996	100.087	20.015	3.797	1.006
656.000	719.948	79.998	19.995	100.082	20.017	3.708	1.010
660.000	723.961	79.998	19.995	100.079	20.017	3.675	1.022
664.000	727.962	79.997	19.995	100.075	20.020	3.510	1.000
668.000	732.016	79.995	19.997	100.077	20.017	3.682	1.021
672.000	735.997	79.996	19.997	100.078	20.009	4.175	0.994
673.500	737.490	79.996	19.996	100.038	20.015	3.842	0.988