Folder: fsri_materials_database/01_Data/Fiber_Cement_Board/STA/N2/10K_min (part 2)

File: Fiber_Cement_Board_STA_N2_10KData_210623_R3.csv
##Temp./Â°C,Time/min,Mass loss(subtr.2)/mg,DSC(subtr.2)/mW,Sensit./(uV/mW)
49.356,10.00917,-0.01273,0.01603969,0.61833
52.256,12.30874,-0.01427641,0.27311,0.61986
55.156,12.98135,-0.0155066,0.42272,0.62137
58.056,13.5257,-0.01799023,0.52321,0.62284
60.956,14.00426,-0.02051591,0.62647,0.62428
63.856,14.44413,-0.02194144,0.7223,0.6257
66.756,14.85721,-0.023771,0.80719,0.62708
69.656,15.2482,-0.02720047,0.90457,0.62844
72.556,15.6221,-0.029856,0.9953,0.62976
75.456,15.98144,-0.03376708,1.11262,0.63106
78.356,16.32784,-0.03727856,1.20503,0.63232
81.256,16.66658,-0.04213848,1.2933,0.63356
84.156,16.99587,-0.04530108,1.39135,0.63477
87.056,17.31567,-0.05089405,1.46288,0.63595
89.956,17.62925,-0.05617,1.53405,0.6371
92.856,17.9371,-0.06011016,1.58608,0.63822
95.756,18.23997,-0.06537287,1.63274,0.6393
98.656,18.53766,-0.07063955,1.67793,0.64036
101.556,18.83211,-0.07477154,1.70769,0.64139
104.456,19.12381,-0.08117052,1.73901,0.6424
107.356,19.41296,-0.08610384,1.77546,0.64337
110.256,19.69903,-0.09169997,1.78333,0.64431
113.156,19.98585,-0.09931092,1.79477,0.64522
116.056,20.26882,-0.1009,1.79041,0.6461
118.956,20.5506,-0.10893,1.81583,0.64696
121.856,20.83072,-0.11287,1.81706,0.64778
124.756,21.10843,-0.11758,1.82177,0.64858
127.656,21.3845,-0.12182,1.84279,0.64934
130.556,21.6586,-0.1286,1.85711,0.65008
133.456,21.93049,-0.13841,1.8498,0.65078
136.356,22.2011,-0.13682,1.85316,0.65146
139.256,22.4699,-0.14017,1.84289,0.65211
142.156,22.73751,-0.14435,1.85544,0.65273
145.056,23.00374,-0.14852,1.86719,0.65332
147.956,23.26884,-0.1564,1.86908,0.65388
150.856,23.5334,-0.16032,1.88374,0.65442
153.756,23.79767,-0.16424,1.87084,0.65492
156.656,24.06097,-0.16826,1.87155,0.6554
159.556,24.3232,-0.17333,1.86959,0.65584
162.456,24.5853,-0.17715,1.86828,0.65626
165.356,24.848,-0.17943,1.86323,0.65665
168.256,25.11007,-0.18641,1.83337,0.65702
171.156,25.37199,-0.18931,1.82811,0.65735
174.056,25.63339,-0.19306,1.82571,0.65766
176.956,25.89402,-0.19583,1.80421,0.65794
179.856,26.15505,-0.19985,1.78683,0.65819
182.756,26.41493,-0.20239,1.75843,0.65841
185.656,26.6745,-0.20636,1.74662,0.65861
188.556,26.93345,-0.21038,1.72613,0.65878
191.456,27.19218,-0.21369,1.71018,0.65892
194.356,27.4505,-0.21564,1.69106,0.65903
197.256,27.7088,-0.22068,1.67026,0.65912
200.156,27.96469,-0.22168,1.6385,0.65918
203.056,28.2245,-0.22548,1.63041,0.65922
205.956,28.48225,-0.2288,1.6067,0.65922
208.856,28.74005,-0.23143,1.58557,0.65921
211.756,28.99803,-0.23304,1.55811,0.65916
214.656,29.25563,-0.23607,1.53867,0.65909
217.556,29.51435,-0.23704,1.52713,0.65899
220.456,29.7723,-0.24098,1.50687,0.65887
223.356,30.02985,-0.24233,1.49957,0.65873
226.256,30.28786,-0.24516,1.49938,0.65855
229.156,30.5454,-0.24888,1.49152,0.65836
232.056,30.80384,-0.25123,1.46796,0.65813
234.956,31.06134,-0.25234,1.47527,0.65789
237.856,31.3195,-0.25484,1.47444,0.65761
240.756,31.5785,-0.25869,1.49021,0.65732
243.656,31.837,-0.25809,1.49461,0.657
246.556,32.09613,-0.26204,1.48604,0.65665
249.456,32.3551,-0.26468,1.48115,0.65629
252.356,32.614,-0.26733,1.47853,0.65589
255.256,32.87272,-0.27092,1.49589,0.65548
258.156,33.13146,-0.2739,1.50742,0.65504
261.056,33.39083,-0.27653,1.51093,0.65458
263.956,33.64929,-0.27981,1.5151,0.6541
266.856,33.90912,-0.28343,1.535,0.65359
269.756,34.16858,-0.28606,1.56986,0.65306
272.656,34.4283,-0.29031,1.58518,0.65251
275.556,34.6879,-0.2956,1.60526,0.65194
278.456,34.94743,-0.29926,1.62607,0.65135
281.356,35.20815,-0.30295,1.64203,0.65074
284.256,35.4687,-0.30592,1.66533,0.6501
287.156,35.72971,-0.3125,1.67744,0.64944
290.056,35.99131,-0.31551,1.70808,0.64877
292.956,36.25274,-0.32072,1.71009,0.64807
295.856,36.5136,-0.32503,1.72013,0.64735
298.756,36.77612,-0.3306,1.73773,0.64661
301.656,37.03849,-0.33466,1.73349,0.64586
304.556,37.3001,-0.34133,1.72097,0.64508
307.456,37.56273,-0.34682,1.71586,0.64428
310.356,37.82533,-0.35367,1.71316,0.64347
313.256,38.08822,-0.35901,1.72271,0.64264
316.156,38.351,-0.36499,1.72653,0.64179
319.056,38.6143,-0.37161,1.70377,0.64092
321.956,38.87748,-0.37809,1.69075,0.64003
324.856,39.1411,-0.38613,1.67866,0.63912
327.756,39.40506,-0.39253,1.65777,0.6382
330.656,39.67002,-0.40024,1.63652,0.63726
333.556,39.93503,-0.40811,1.64299,0.6363
336.456,40.19921,-0.41583,1.63194,0.63533
339.356,40.46471,-0.42556,1.61602,0.63434
342.256,40.7309,-0.43126,1.61491,0.63334
345.156,40.99643,-0.43899,1.60174,0.63232
348.056,41.26153,-0.44917,1.59304,0.63128
350.956,41.5281,-0.45794,1.60413,0.63023
353.856,41.79368,-0.46732,1.58517,0.62916
356.756,42.06043,-0.4781,1.58226,0.62808
359.656,42.3275,-0.48696,1.57763,0.62698
362.556,42.59532,-0.49808,1.57091,0.62587
365.456,42.86322,-0.50923,1.55006,0.62475
368.356,43.13131,-0.51883,1.50665,0.62361
371.256,43.3996,-0.52839,1.48403,0.62246
374.156,43.66865,-0.53638,1.45584,0.62129
377.056,43.93772,-0.54458,1.40639,0.62012
379.956,44.20708,-0.5483,1.35836,0.61893
382.856,44.4766,-0.5538,1.32286,0.61773
385.756,44.74658,-0.55724,1.31129,0.61651
388.656,45.01643,-0.55908,1.30059,0.61529
391.556,45.28651,-0.56039,1.28018,0.61405
394.456,45.55701,-0.56434,1.26812,0.6128
397.356,45.8287,-0.56435,1.25463,0.61154
400.256,46.10111,-0.56896,1.22936,0.61027
403.156,46.37301,-0.57158,1.22409,0.60899
406.056,46.6453,-0.57517,1.22975,0.6077
408.956,46.91802,-0.57647,1.19947,0.6064
411.856,47.19082,-0.58025,1.18818,0.60509
414.756,47.46379,-0.58243,1.19103,0.60377
417.656,47.73723,-0.58441,1.16279,0.60244
420.556,48.0105,-0.58442,1.18236,0.60111
423.456,48.28452,-0.58862,1.16042,0.59976
426.356,48.55893,-0.5947,1.15262,0.59841
429.256,48.83327,-0.59525,1.15437,0.59705
432.156,49.1078,-0.5971,1.12898,0.59568
435.056,49.38309,-0.60064,1.12085,0.5943
437.956,49.6584,-0.60196,1.10907,0.59292
440.856,49.93448,-0.60624,1.10642,0.59153
443.756,50.21107,-0.60921,1.10293,0.59013
446.656,50.4884,-0.60986,1.09012,0.58873
449.556,50.76562,-0.61249,1.07577,0.58732
452.456,51.0424,-0.61515,1.0524,0.5859
455.356,51.32101,-0.61775,1.03024,0.58448
458.256,51.59867,-0.62171,1.0113,0.58305
461.156,51.87665,-0.62532,0.99336,0.58162
464.056,52.15548,-0.62429,0.99091,0.58018
466.956,52.43461,-0.62665,0.98272,0.57874
469.856,52.71226,-0.62967,0.97926,0.5773
472.756,52.9925,-0.6319,0.96943,0.57585
475.656,53.27239,-0.63454,0.96289,0.57439
478.556,53.55226,-0.63717,0.94173,0.57294
481.456,53.8322,-0.6398,0.94712,0.57148
484.356,54.1126,-0.64175,0.91363,0.57001
487.256,54.3926,-0.64519,0.89678,0.56855
490.156,54.67276,-0.64519,0.87198,0.56708
493.056,54.95366,-0.64813,0.86747,0.56561
495.956,55.23516,-0.64945,0.84916,0.56413
498.856,55.5171,-0.65362,0.82858,0.56266
501.756,55.79984,-0.65493,0.81106,0.56118
504.656,56.0819,-0.65743,0.81168,0.5597
507.556,56.3643,-0.66162,0.82343,0.55822
510.456,56.64677,-0.66229,0.81733,0.55674
513.356,56.92906,-0.66557,0.79833,0.55526
516.256,57.21219,-0.66821,0.77557,0.55378
519.156,57.4958,-0.67084,0.78322,0.5523
522.056,57.78012,-0.67309,0.74605,0.55081
524.956,58.06507,-0.67482,0.72346,0.54933
527.856,58.3498,-0.6765,0.71176,0.54785
530.756,58.6346,-0.6805,0.72846,0.54637
533.656,58.92,-0.68313,0.71273,0.54488
536.556,59.2051,-0.68379,0.7147,0.5434
539.456,59.491,-0.68664,0.72307,0.54192
542.356,59.77665,-0.69026,0.7038,0.54045
545.256,60.06286,-0.69057,0.67363,0.53897
548.156,60.34848,-0.6929,0.66438,0.5375
551.056,60.6354,-0.69534,0.67087,0.53602
553.956,60.92244,-0.69815,0.67475,0.53455
556.856,61.2096,-0.70079,0.68688,0.53308
559.756,61.49722,-0.70375,0.6603,0.53162
562.656,61.78545,-0.70506,0.63413,0.53015
565.556,62.0739,-0.70816,0.58978,0.52869
568.456,62.3618,-0.71099,0.61856,0.52723
571.356,62.6504,-0.71231,0.65306,0.52578
574.256,62.9395,-0.71293,0.79832,0.52433
577.156,63.22846,-0.71621,0.67141,0.52288
580.056,63.5175,-0.71801,0.61403,0.52144
582.956,63.8064,-0.72095,0.58197,0.51999
585.856,64.09594,-0.71966,0.56757,0.51856
588.756,64.38535,-0.72097,0.5694,0.51713
591.656,64.67506,-0.7221,0.561,0.5157
594.556,64.96505,-0.72581,0.55371,0.51427
597.456,65.25556,-0.72504,0.5447,0.51285
600.356,65.5465,-0.72556,0.55197,0.51144
603.256,65.8372,-0.72853,0.51777,0.51003
606.156,66.128,-0.73184,0.48168,0.50862
609.056,66.4185,-0.73408,0.43197,0.50722
611.956,66.71115,-0.73775,0.40966,0.50583
614.856,67.0026,-0.7384,0.38461,0.50444
617.756,67.29565,-0.74055,0.36288,0.50306
620.656,67.58779,-0.73907,0.37672,0.50168
623.556,67.8794,-0.74171,0.36908,0.5003
626.456,68.1713,-0.74466,0.33484,0.49894
629.356,68.46419,-0.74565,0.30305,0.49758
632.256,68.75757,-0.74603,0.29632,0.49622
635.156,69.05082,-0.74864,0.26723,0.49487
638.056,69.34445,-0.74927,0.27456,0.49353
640.956,69.63847,-0.74994,0.25301,0.4922
643.856,69.93183,-0.74992,0.27403,0.49087
646.756,70.22547,-0.75256,0.29357,0.48954
649.656,70.51911,-0.75256,0.34846,0.48823
652.556,70.81342,-0.7552,0.39021,0.48692
655.456,71.10749,-0.7553,0.40838,0.48561
658.356,71.40245,-0.75803,0.41907,0.48432
661.256,71.6979,-0.7579,0.41042,0.48303
664.156,71.99369,-0.76056,0.44543,0.48175
667.056,72.28885,-0.75826,0.39563,0.48047
669.956,72.5842,-0.7609,0.3722,0.4792
672.856,72.8793,-0.7632,0.29368,0.47794
675.756,73.17384,-0.76326,0.28456,0.47669
678.656,73.47129,-0.76422,0.26102,0.47544
681.556,73.76727,-0.7642,0.21814,0.4742
684.456,74.0632,-0.76418,0.26231,0.47297
687.356,74.3587,-0.7655,0.31997,0.47175
690.256,74.6546,-0.76675,0.23635,0.47053
693.156,74.9506,-0.76834,0.15214,0.46933
696.056,75.24809,-0.76736,0.10176,0.46813
698.956,75.5454,-0.77263,0.08999107,0.46693
701.856,75.84274,-0.77081,0.10353,0.46575
704.756,76.14067,-0.77274,0.1402,0.46457
707.656,76.43865,-0.77274,0.13971,0.4634
710.556,76.7364,-0.77199,0.10393,0.46224
713.456,77.03453,-0.77815,0.11081,0.46108
716.356,77.33312,-0.77723,0.10717,0.45994
719.256,77.63171,-0.77787,0.08973272,0.4588
722.156,77.92975,-0.77734,0.09340806,0.45767
725.056,78.22793,-0.77868,0.07403532,0.45655
727.956,78.52605,-0.7813,0.08298152,0.45543
730.856,78.82443,-0.78078,-0.02260537,0.45433
733.756,79.12314,-0.78164,-0.05544693,0.45323
736.656,79.42148,-0.78236,-0.12877,0.45214
739.556,79.7201,-0.78327,-0.10963,0.45105
742.256,79.99839,-0.7859,-0.007745099,0.45005