Folder: fsri_materials_database/01_Data/Fiber_Cement_Board/STA/N2/10K_min

Note: 01_Data/README.md
# Materials and Products Database
## 01_Data

Raw data generated from each apparatus are included here in plain-text format. The data is organized first by material, next by the short name of test apparatus used, and where applicable additional filtering by test settings.

### material.json

Each material directory contains a json file of the same name as the material. This file links the data stored in the repository as well as data and graphs produced by the accompanying scripts (__02_Scripts__) to the respective landing page for the material on the front-end website.

File: Fiber_Cement_Board_STA_N2_10KData_210622_R1.csv
##Temp./Â°C,Time/min,Mass loss(subtr.2)/mg,DSC(subtr.2)/mW,Sensit./(uV/mW)
49.326,10.01,-0.00275,0.02344381,0.61832
51.826,12.20738,-0.00399784,0.18215,0.61964
54.326,12.83141,-0.004993369,0.27605,0.62094
56.826,13.3209,-0.0066051,0.34216,0.62222
59.326,13.7538,-0.00656842,0.40997,0.62347
61.826,14.1526,-0.007631698,0.46142,0.62471
64.326,14.5251,-0.008026958,0.51959,0.62592
66.826,14.87861,-0.01163033,0.56996,0.62711
69.326,15.21587,-0.0131536,0.62825,0.62828
71.826,15.53987,-0.01381173,0.68239,0.62943
74.326,15.8525,-0.0179774,0.76188,0.63056
76.826,16.15708,-0.01850287,0.81157,0.63166
79.326,16.4523,-0.03012785,0.87679,0.63274
81.826,16.74083,-0.02534001,0.93617,0.6338
84.326,17.02354,-0.02799502,0.99607,0.63484
86.826,17.29995,-0.02927995,1.05466,0.63586
89.326,17.57027,-0.03125856,1.08161,0.63685
91.826,17.8368,-0.03423369,1.14271,0.63782
94.326,18.0995,-0.03975209,1.15628,0.63877
96.826,18.35847,-0.04321901,1.18961,0.6397
99.326,18.61441,-0.04399348,1.19733,0.64061
101.826,18.8676,-0.0483955,1.22124,0.64149
104.326,19.1185,-0.0524249,1.23495,0.64235
106.826,19.36744,-0.05440955,1.25551,0.64319
109.326,19.6148,-0.05967781,1.25812,0.64401
111.826,19.86104,-0.06116496,1.2728,0.64481
114.326,20.1057,-0.06513818,1.28534,0.64558
116.826,20.34875,-0.06768001,1.30791,0.64633
119.326,20.59,-0.07163,1.29699,0.64706
121.826,20.8304,-0.07425811,1.30258,0.64777
124.326,21.06941,-0.07198798,1.31304,0.64846
126.826,21.30769,-0.08058334,1.31273,0.64912
129.326,21.5439,-0.08392672,1.31079,0.64977
131.826,21.77919,-0.08531847,1.3034,0.65039
134.326,22.01282,-0.08928999,1.2924,0.65099
136.826,22.24509,-0.09201996,1.28794,0.65157
139.326,22.47743,-0.0947101,1.27062,0.65213
141.826,22.70843,-0.09993015,1.27886,0.65266
144.326,22.93794,-0.10122,1.27377,0.65317
146.826,23.1668,-0.10268,1.26961,0.65367
149.326,23.3952,-0.10619,1.25802,0.65414
151.826,23.6231,-0.10894,1.25211,0.65459
154.326,23.85032,-0.11089,1.26595,0.65502
156.826,24.07695,-0.112,1.24726,0.65542
159.326,24.30333,-0.11482,1.22716,0.65581
161.826,24.53004,-0.11627,1.23593,0.65617
164.326,24.75611,-0.11891,1.21218,0.65652
166.826,24.9819,-0.12022,1.20237,0.65684
169.326,25.20767,-0.12416,1.18703,0.65714
171.826,25.4329,-0.12548,1.15409,0.65742
174.326,25.65774,-0.12811,1.15626,0.65769
176.826,25.88264,-0.12943,1.1512,0.65793
179.326,26.10698,-0.13239,1.13535,0.65814
181.826,26.3312,-0.13575,1.11815,0.65834
184.326,26.55469,-0.13512,1.1121,0.65852
186.826,26.7782,-0.13787,1.09963,0.65868
189.326,27.00137,-0.1393,1.09606,0.65882
191.826,27.2236,-0.14382,1.0779,0.65893
194.326,27.44697,-0.14381,1.05529,0.65903
196.826,27.6696,-0.14775,1.04544,0.65911
199.326,27.89122,-0.14907,1.02762,0.65917
201.826,28.1139,-0.14907,1.01672,0.6592
204.326,28.3365,-0.15001,1.00256,0.65922
206.826,28.55868,-0.15302,0.99323,0.65922
209.326,28.78102,-0.15335,0.97862,0.6592
211.826,29.00321,-0.15492,0.97622,0.65916
214.326,29.2258,-0.15837,0.95423,0.6591
216.826,29.4481,-0.15839,0.93915,0.65902
219.326,29.6704,-0.16102,0.92749,0.65892
221.826,29.89283,-0.16174,0.93425,0.65881
224.326,30.11532,-0.16229,0.91729,0.65867
226.826,30.3378,-0.16357,0.91996,0.65852
229.326,30.56033,-0.16629,0.9237,0.65834
231.826,30.7839,-0.16761,0.92256,0.65815
234.326,31.00628,-0.16892,0.93496,0.65794
236.826,31.22927,-0.16953,0.94975,0.65771
239.326,31.4522,-0.17301,0.95485,0.65747
241.826,31.67493,-0.17561,0.96454,0.6572
244.326,31.89769,-0.17646,0.96858,0.65692
246.826,32.1207,-0.17692,0.97058,0.65662
249.326,32.34364,-0.17986,0.96881,0.6563
251.826,32.56695,-0.18099,0.96589,0.65597
254.326,32.79016,-0.18362,0.96823,0.65562
256.826,33.01328,-0.18373,0.98394,0.65525
259.326,33.23673,-0.18884,0.98307,0.65486
261.826,33.45975,-0.18764,0.99321,0.65446
264.326,33.68381,-0.19052,1.00978,0.65403
266.826,33.9075,-0.19425,1.02752,0.6536
269.326,34.1319,-0.197,1.02702,0.65314
271.826,34.35613,-0.19831,1.04802,0.65267
274.326,34.58028,-0.19963,1.06348,0.65219
276.826,34.8044,-0.20226,1.06252,0.65169
279.326,35.0289,-0.20486,1.08025,0.65117
281.826,35.2537,-0.20983,1.09604,0.65063
284.326,35.47841,-0.2128,1.08676,0.65008
286.826,35.70301,-0.21405,1.09187,0.64952
289.326,35.9283,-0.21674,1.10211,0.64894
291.826,36.15311,-0.22074,1.11226,0.64834
294.326,36.37914,-0.22619,1.12715,0.64773
296.826,36.60457,-0.22853,1.13159,0.64711
299.326,36.82985,-0.23,1.14006,0.64647
301.826,37.05573,-0.23438,1.14015,0.64581
304.326,37.2826,-0.23769,1.14295,0.64514
306.826,37.50848,-0.24428,1.14028,0.64446
309.326,37.7352,-0.24554,1.15117,0.64376
311.826,37.96199,-0.25215,1.13477,0.64305
314.326,38.18853,-0.25491,1.1323,0.64232
316.826,38.41539,-0.25976,1.11302,0.64159
319.326,38.64245,-0.26239,1.10725,0.64083
321.826,38.86997,-0.26994,1.10734,0.64007
324.326,39.09729,-0.27168,1.09262,0.63929
326.826,39.32546,-0.27825,1.09073,0.6385
329.326,39.55336,-0.28354,1.07863,0.63769
331.826,39.7812,-0.28804,1.07769,0.63688
334.326,40.00979,-0.29197,1.05299,0.63605
336.826,40.2382,-0.29795,1.05188,0.63521
339.326,40.46712,-0.30328,1.03546,0.63435
341.826,40.6959,-0.30792,1.02818,0.63349
344.326,40.92542,-0.31411,1.03129,0.63261
346.826,41.15445,-0.31806,1.0273,0.63172
349.326,41.38388,-0.32579,1.02133,0.63082
351.826,41.6136,-0.33445,1.03775,0.62991
354.326,41.84316,-0.34008,1.03234,0.62899
356.826,42.07322,-0.3484,1.02338,0.62805
359.326,42.30358,-0.35567,1.01008,0.62711
361.826,42.53457,-0.36271,1.01342,0.62615
364.326,42.76501,-0.36672,1.0059,0.62519
366.826,42.99623,-0.37371,0.98058,0.62421
369.326,43.2277,-0.38219,0.95789,0.62323
371.826,43.45945,-0.38746,0.94177,0.62223
374.326,43.6911,-0.39497,0.92205,0.62123
376.826,43.92324,-0.39069,0.88595,0.62021
379.326,44.15547,-0.40088,0.85496,0.61919
381.826,44.38819,-0.40545,0.82892,0.61815
384.326,44.6212,-0.40871,0.83351,0.61711
386.826,44.8547,-0.41035,0.82676,0.61606
389.326,45.08824,-0.41362,0.8058,0.615
391.826,45.32192,-0.41378,0.79394,0.61393
394.326,45.55587,-0.41648,0.79453,0.61286
396.826,45.78998,-0.41626,0.78193,0.61177
399.326,46.02456,-0.42154,0.78693,0.61068
401.826,46.25918,-0.42315,0.77357,0.60958
404.326,46.49411,-0.41771,0.77034,0.60847
406.826,46.72899,-0.42153,0.76253,0.60736
409.326,46.9642,-0.42878,0.75901,0.60623
411.826,47.19947,-0.42591,0.7548,0.6051
414.326,47.43503,-0.42986,0.76202,0.60397
416.826,47.6715,-0.42986,0.7619,0.60282
419.326,47.90785,-0.43249,0.77072,0.60168
421.826,48.1441,-0.43383,0.78249,0.60052
424.326,48.38132,-0.43411,0.77969,0.59936
426.826,48.6182,-0.43679,0.77086,0.59819
429.326,48.85515,-0.43932,0.77489,0.59701
431.826,49.09247,-0.44091,0.79175,0.59583
434.326,49.33023,-0.44402,0.78008,0.59465
436.826,49.56832,-0.44369,0.77787,0.59346
439.326,49.8067,-0.44431,0.78125,0.59226
441.826,50.04468,-0.44932,0.77359,0.59106
444.326,50.2833,-0.44952,0.77807,0.58985
446.826,50.52203,-0.45089,0.77502,0.58864
449.326,50.76096,-0.45213,0.78588,0.58743
451.826,51.00005,-0.45191,0.77697,0.58621
454.326,51.23964,-0.45587,0.77455,0.58498
456.826,51.47886,-0.45728,0.77216,0.58376
459.326,51.71895,-0.4593,0.75163,0.58252
461.826,51.95864,-0.45969,0.75108,0.58129
464.326,52.19865,-0.46227,0.75682,0.58005
466.826,52.4387,-0.46364,0.7526,0.57881
469.326,52.6791,-0.46734,0.75048,0.57756
471.826,52.92009,-0.46573,0.76783,0.57631
474.326,53.1614,-0.46737,0.75485,0.57506
476.826,53.4025,-0.47274,0.75281,0.57381
479.326,53.64402,-0.47182,0.78727,0.57255
481.826,53.8857,-0.47397,0.81949,0.57129
484.326,54.1274,-0.4768,0.81856,0.57003
486.826,54.36996,-0.47824,0.8491,0.56877
489.326,54.61257,-0.47559,0.84985,0.5675
491.826,54.8545,-0.47943,0.86926,0.56623
494.326,55.0973,-0.48196,0.85003,0.56496
496.826,55.33955,-0.48198,0.85139,0.56369
499.326,55.58211,-0.4846,0.83122,0.56242
501.826,55.8253,-0.48524,0.84288,0.56115
504.326,56.0693,-0.4868,0.84441,0.55987
506.826,56.3136,-0.48831,0.84335,0.5586
509.326,56.5579,-0.49063,0.82452,0.55732
511.826,56.8018,-0.49107,0.83693,0.55604
514.326,57.0452,-0.49258,0.84643,0.55476
516.826,57.2902,-0.49392,0.85465,0.55349
519.326,57.53415,-0.49495,0.86433,0.55221
521.826,57.7791,-0.49722,0.87106,0.55093
524.326,58.02391,-0.49885,0.87414,0.54965
526.826,58.2687,-0.50028,0.86385,0.54837
529.326,58.51461,-0.51027,0.85784,0.5471
531.826,58.7606,-0.50203,0.86214,0.54582
534.326,59.0062,-0.5037,0.85858,0.54454
536.826,59.2526,-0.505,0.88689,0.54327
539.326,59.49896,-0.50495,0.88115,0.54199
541.826,59.7451,-0.50895,0.87606,0.54072
544.326,59.99176,-0.50612,0.90573,0.53944
546.826,60.2387,-0.51404,0.90742,0.53817
549.326,60.4862,-0.51369,0.90855,0.5369
551.826,60.73333,-0.51169,0.9408,0.53563
554.326,60.9813,-0.51719,0.93641,0.53436
556.826,61.22908,-0.51983,0.93767,0.5331
559.326,61.4767,-0.52181,0.94148,0.53183
561.826,61.72484,-0.5208,0.95057,0.53057
564.326,61.973,-0.52191,0.95743,0.52931
566.826,62.2217,-0.52184,0.94875,0.52805
569.326,62.47009,-0.52551,0.95872,0.5268
571.826,62.71906,-0.52551,0.99103,0.52554
574.326,62.968,-0.53583,1.1476,0.52429
576.826,63.21689,-0.52486,1.04961,0.52304
579.326,63.46655,-0.53029,0.98336,0.5218
581.826,63.71525,-0.53246,0.96319,0.52056
584.326,63.964,-0.53231,0.96357,0.51932
586.826,64.2132,-0.535,0.97741,0.51808
589.326,64.46254,-0.53373,0.95857,0.51684
591.826,64.7123,-0.53782,0.98559,0.51561
594.326,64.96248,-0.5515,0.93953,0.51439
596.826,65.2133,-0.53721,0.95861,0.51316
599.326,65.46404,-0.54131,0.92872,0.51194
601.826,65.71459,-0.54372,0.93195,0.51072
604.326,65.96519,-0.54679,0.90144,0.50951
606.826,66.21588,-0.54646,0.90407,0.5083
609.326,66.46776,-0.54402,0.88836,0.50709
611.826,66.71928,-0.54545,0.8911,0.50589
614.326,66.97091,-0.54404,0.85993,0.50469
616.826,67.22322,-0.54927,0.84569,0.5035
619.326,67.47507,-0.54657,0.82525,0.50231
621.826,67.727,-0.54611,0.80857,0.50112
624.326,67.97907,-0.54823,0.79514,0.49994
626.826,68.23135,-0.54997,0.78133,0.49876
629.326,68.48394,-0.5536,0.79574,0.49759
631.826,68.73666,-0.55363,0.81331,0.49642
634.326,68.9893,-0.55117,0.80945,0.49526
636.826,69.24214,-0.54629,0.80549,0.4941
639.326,69.49494,-0.55283,0.7531,0.49295
641.826,69.7475,-0.55973,0.75502,0.4918
644.226,69.99051,-0.55337,0.73397,0.4907

File: Fiber_Cement_Board_STA_N2_10KData_210622_R2.csv
##Temp./Â°C,Time/min,Mass loss(subtr.2)/mg,DSC(subtr.2)/mW,Sensit./(uV/mW)
49.342,10.01,-0.02973,0.10488,0.61833
51.842,12.21074,-0.03472416,0.3436,0.61965
54.342,12.83302,-0.03931293,0.46716,0.62095
56.842,13.3246,-0.04023028,0.56987,0.62223
59.342,13.75862,-0.04299549,0.66539,0.62348
61.842,14.1569,-0.04146885,0.73212,0.62472
64.342,14.5298,-0.04673172,0.79596,0.62593
66.842,14.88369,-0.04508956,0.88738,0.62712
69.342,15.22199,-0.04745146,0.95598,0.62829
71.842,15.54635,-0.04993085,1.04618,0.62944
74.342,15.859,-0.05377321,1.13439,0.63056
76.842,16.16437,-0.05642113,1.2202,0.63167
79.342,16.45949,-0.05626999,1.30109,0.63275
81.842,16.74836,-0.05842018,1.38512,0.63381
84.342,17.02939,-0.06242079,1.44702,0.63485
86.842,17.3059,-0.06886461,1.5213,0.63586
89.342,17.57678,-0.07111696,1.56958,0.63686
91.842,17.84296,-0.07405631,1.61439,0.63783
94.342,18.10549,-0.07800373,1.66466,0.63878
96.842,18.36443,-0.0805391,1.68702,0.63971
99.342,18.6201,-0.08721642,1.72692,0.64061
101.842,18.87349,-0.08993238,1.7741,0.64149
104.342,19.12492,-0.09523087,1.78276,0.64236
106.842,19.374,-0.09729975,1.81699,0.6432
109.342,19.62185,-0.10543,1.82314,0.64401
111.842,19.86863,-0.10936,1.84551,0.64481
114.342,20.113,-0.11503,1.87394,0.64559
116.842,20.35598,-0.11943,1.86644,0.64634
119.342,20.5989,-0.12073,1.88443,0.64707
121.842,20.83951,-0.12473,1.89042,0.64778
124.342,21.07868,-0.13316,1.87249,0.64846
126.842,21.31641,-0.13524,1.87659,0.64913
129.342,21.55227,-0.13811,1.8887,0.64977
131.842,21.78734,-0.14625,1.89221,0.65039
134.342,22.0213,-0.1459,1.88802,0.65099
136.842,22.25395,-0.14711,1.88721,0.65157
139.342,22.48529,-0.15154,1.89448,0.65213
141.842,22.7159,-0.15236,1.88584,0.65266
144.342,22.94603,-0.15562,1.89263,0.65318
146.842,23.17493,-0.15855,1.88192,0.65367
149.342,23.40336,-0.16243,1.87996,0.65414
151.842,23.63123,-0.16968,1.88791,0.65459
154.342,23.8584,-0.1745,1.87459,0.65502
156.842,24.08509,-0.17935,1.87131,0.65543
159.342,24.31188,-0.183,1.84396,0.65581
161.842,24.53749,-0.18562,1.8335,0.65618
164.342,24.76342,-0.18992,1.83288,0.65652
166.842,24.9889,-0.19382,1.81854,0.65684
169.342,25.21433,-0.19832,1.82101,0.65715
171.842,25.44024,-0.19845,1.81383,0.65743
174.342,25.6644,-0.20207,1.81312,0.65769
176.842,25.88942,-0.20336,1.79286,0.65793
179.342,26.11392,-0.20837,1.77348,0.65815
181.842,26.3379,-0.20769,1.7547,0.65834
184.342,26.5612,-0.20907,1.75969,0.65852
186.842,26.7845,-0.21321,1.74441,0.65868
189.342,27.00743,-0.21676,1.70628,0.65882
191.842,27.23007,-0.21652,1.70083,0.65894
194.342,27.4524,-0.21618,1.6667,0.65903
196.842,27.67472,-0.21767,1.65161,0.65911
199.342,27.8967,-0.22201,1.62471,0.65917
201.842,28.11921,-0.22168,1.60555,0.6592
204.342,28.3416,-0.22562,1.59743,0.65922
206.842,28.56413,-0.22596,1.58216,0.65922
209.342,28.78657,-0.22857,1.56202,0.6592
211.842,29.0085,-0.2557,1.55836,0.65916
214.342,29.23061,-0.234,1.53964,0.6591
216.842,29.45301,-0.22255,1.49762,0.65902
219.342,29.67581,-0.24039,1.50024,0.65892
221.842,29.89773,-0.24667,1.49012,0.65881
224.342,30.1203,-0.24535,1.47346,0.65867
226.842,30.34341,-0.23751,1.45533,0.65851
229.342,30.5665,-0.2293,1.43594,0.65834
231.842,30.7892,-0.24976,1.43857,0.65815
234.342,31.0114,-0.25305,1.43873,0.65794
236.842,31.23465,-0.25665,1.43825,0.65771
239.342,31.45679,-0.25624,1.44841,0.65746
241.842,31.68015,-0.25864,1.43139,0.6572
244.342,31.90277,-0.26029,1.42352,0.65692
246.842,32.1258,-0.26029,1.42532,0.65662
249.342,32.3491,-0.26292,1.43207,0.6563
251.842,32.57165,-0.26391,1.41977,0.65597
254.342,32.79537,-0.26489,1.41657,0.65561
256.842,33.0186,-0.26676,1.42659,0.65524
259.342,33.24224,-0.26808,1.4123,0.65486
261.842,33.4656,-0.26916,1.4153,0.65445
264.342,33.6891,-0.27334,1.43596,0.65403
266.842,33.9126,-0.27335,1.45024,0.65359
269.342,34.13629,-0.27893,1.46101,0.65314
271.842,34.36,-0.28157,1.46469,0.65267
274.342,34.58446,-0.28189,1.46932,0.65218
276.842,34.80899,-0.28716,1.48941,0.65168
279.342,35.0328,-0.28981,1.50159,0.65116
281.842,35.2573,-0.29374,1.51458,0.65063
284.342,35.48211,-0.29769,1.52412,0.65008
286.842,35.70617,-0.30031,1.524,0.64952
289.342,35.93195,-0.3056,1.54457,0.64893
291.842,36.1571,-0.30987,1.55795,0.64834
294.342,36.38203,-0.31269,1.56248,0.64773
296.842,36.6081,-0.31621,1.5765,0.6471
299.342,36.83396,-0.31941,1.56741,0.64646
301.842,37.05988,-0.32335,1.56651,0.64581
304.342,37.28573,-0.32862,1.55528,0.64514
306.842,37.51171,-0.33126,1.56194,0.64445
309.342,37.738,-0.33522,1.5448,0.64376
311.842,37.96403,-0.33951,1.53665,0.64305
314.342,38.19055,-0.34314,1.52889,0.64232
316.842,38.41749,-0.34729,1.52033,0.64158
319.342,38.6443,-0.35264,1.5033,0.64083
321.842,38.8718,-0.35759,1.47592,0.64006
324.342,39.09942,-0.36317,1.47061,0.63928
326.842,39.3264,-0.36942,1.44484,0.63849
329.342,39.55426,-0.37437,1.45078,0.63769
331.842,39.78236,-0.38194,1.43656,0.63687
334.342,40.01078,-0.3873,1.42156,0.63604
336.842,40.23912,-0.39422,1.40861,0.6352
339.342,40.46775,-0.40137,1.40439,0.63435
341.842,40.69701,-0.40653,1.39973,0.63348
344.342,40.92592,-0.41674,1.38816,0.6326
346.842,41.15579,-0.41965,1.37123,0.63171
349.342,41.3845,-0.42653,1.35817,0.63081
351.842,41.61497,-0.4328,1.35179,0.6299
354.342,41.8449,-0.44061,1.34726,0.62898
356.842,42.07605,-0.44539,1.3272,0.62805
359.342,42.3067,-0.45601,1.32857,0.6271
361.842,42.5374,-0.46507,1.31038,0.62615
364.342,42.76852,-0.46903,1.30018,0.62518
366.842,42.9992,-0.47856,1.28107,0.62421
369.342,43.2303,-0.48668,1.25613,0.62322
371.842,43.46147,-0.4908,1.22322,0.62222
374.342,43.6934,-0.49776,1.19375,0.62122
376.842,43.9259,-0.50399,1.16351,0.6202
379.342,44.1582,-0.50876,1.11481,0.61918
381.842,44.391,-0.51082,1.07932,0.61815
384.342,44.6236,-0.5174,1.08118,0.61711
386.842,44.85706,-0.52004,1.07199,0.61605
389.342,45.09029,-0.52397,1.07298,0.61499
391.842,45.32396,-0.5266,1.04797,0.61393
394.342,45.55778,-0.52924,1.04078,0.61285
396.842,45.79116,-0.53324,1.02532,0.61177
399.342,46.02512,-0.53581,1.01182,0.61067
401.842,46.25949,-0.53713,1.00623,0.60957
404.342,46.49373,-0.53911,0.9911,0.60846
406.842,46.7291,-0.53977,0.99062,0.60735
409.342,46.96515,-0.53978,0.99111,0.60623
411.842,47.20066,-0.53977,0.97079,0.6051
414.342,47.43676,-0.54106,0.9543,0.60396
416.842,47.673,-0.54076,0.94076,0.60282
419.342,47.90914,-0.54042,0.9399,0.60167
421.842,48.14546,-0.54176,0.92672,0.60051
424.342,48.38214,-0.54647,0.92919,0.59935
426.842,48.61909,-0.5499,0.92715,0.59818
429.342,48.85629,-0.55018,0.90354,0.59701
431.842,49.09345,-0.54891,0.90186,0.59583
434.342,49.3314,-0.55085,0.87854,0.59464
436.842,49.5691,-0.55557,0.87529,0.59345
439.342,49.80588,-0.56075,0.86324,0.59225
441.842,50.0443,-0.56626,0.84867,0.59105
444.342,50.28225,-0.562,0.86475,0.58985
446.842,50.5205,-0.56303,0.83864,0.58864
449.342,50.7595,-0.56434,0.84407,0.58742
451.842,50.9987,-0.56792,0.83362,0.5862
454.342,51.23832,-0.57125,0.82166,0.58498
456.842,51.47814,-0.57191,0.81863,0.58375
459.342,51.718,-0.57753,0.81799,0.58252
461.842,51.95769,-0.58025,0.80109,0.58128
464.342,52.1982,-0.58156,0.79958,0.58004
466.842,52.439,-0.58548,0.7923,0.5788
469.342,52.6801,-0.58683,0.79,0.57755
471.842,52.92125,-0.59053,0.79374,0.57631
474.342,53.16209,-0.59077,0.78515,0.57505
476.842,53.4031,-0.59279,0.75762,0.5738
479.342,53.6441,-0.59185,0.7688,0.57254
481.842,53.88581,-0.59269,0.76458,0.57128
484.342,54.1273,-0.59396,0.74114,0.57002
486.842,54.3698,-0.59659,0.71902,0.56876
489.342,54.61232,-0.59527,0.72343,0.56749
491.842,54.85475,-0.59834,0.71374,0.56622
494.342,55.0973,-0.60129,0.70695,0.56495
496.842,55.3402,-0.60262,0.72145,0.56368
499.342,55.58341,-0.60685,0.72161,0.56241
501.842,55.82663,-0.60986,0.70488,0.56114
504.342,56.0705,-0.61019,0.70872,0.55986
506.842,56.31419,-0.61555,0.67605,0.55859
509.342,56.55819,-0.61801,0.6896,0.55731
511.842,56.8027,-0.61908,0.67646,0.55603
514.342,57.04694,-0.62038,0.65638,0.55476
516.842,57.2916,-0.62105,0.64178,0.55348
519.342,57.53623,-0.62105,0.6672,0.5522
521.842,57.7809,-0.61973,0.65348,0.55092
524.342,58.02579,-0.62032,0.654,0.54964
526.842,58.27013,-0.62543,0.6372,0.54837
529.342,58.51591,-0.61731,0.62697,0.54709
531.842,58.7615,-0.62204,0.62422,0.54581
534.342,59.00724,-0.62521,0.62468,0.54453
536.842,59.2534,-0.62384,0.61935,0.54326
539.342,59.50026,-0.62607,0.56822,0.54198
541.842,59.7467,-0.62308,0.55935,0.54071
544.342,59.9934,-0.62734,0.53097,0.53944
546.842,60.24066,-0.62839,0.52452,0.53816
549.342,60.48799,-0.62928,0.50711,0.53689
551.842,60.7359,-0.6319,0.49718,0.53562
554.342,60.9838,-0.64226,0.49373,0.53436
556.842,61.23169,-0.63761,0.49025,0.53309
559.342,61.47889,-0.6409,0.49725,0.53183
561.842,61.72662,-0.64359,0.4824,0.53056
564.342,61.97498,-0.6457,0.48563,0.5293
566.842,62.2244,-0.64745,0.48057,0.52805
569.342,62.4741,-0.64696,0.48722,0.52679
571.842,62.7232,-0.64952,0.52845,0.52554
574.342,62.97269,-0.6511,0.64286,0.52429
576.842,63.2222,-0.65119,0.54122,0.52304
579.342,63.4718,-0.65503,0.46842,0.52179
581.842,63.7214,-0.65722,0.42819,0.52055
584.342,63.97129,-0.65538,0.38609,0.51931
586.842,64.22113,-0.65956,0.3459,0.51807
589.342,64.47085,-0.66128,0.30791,0.51684
591.842,64.7197,-0.66362,0.30061,0.51561
594.342,64.96924,-0.66636,0.28481,0.51438
596.842,65.21932,-0.66867,0.27172,0.51315
599.342,65.46919,-0.66767,0.24224,0.51193
601.842,65.71996,-0.67435,0.22561,0.51072
604.342,65.97049,-0.6711,0.20635,0.5095
606.842,66.2218,-0.67253,0.20985,0.50829
609.342,66.47325,-0.67172,0.197,0.50709
611.842,66.72487,-0.67459,0.16495,0.50588
614.342,66.9774,-0.67272,0.13796,0.50469
616.842,67.22872,-0.67545,0.15756,0.50349
619.342,67.48052,-0.67354,0.12452,0.5023
621.842,67.73257,-0.6713,0.10439,0.50112
624.342,67.98482,-0.67087,0.07091197,0.49993
626.842,68.2369,-0.67502,0.04831772,0.49876
629.342,68.4897,-0.67205,0.009398321,0.49758
631.842,68.7418,-0.67469,-0.009912734,0.49642
634.342,68.9943,-0.67929,-0.03189539,0.49525
636.842,69.24704,-0.68087,-0.06899267,0.49409
639.342,69.5005,-0.68477,-0.08215847,0.49294
641.842,69.7543,-0.68609,-0.10457,0.49179
644.242,69.99814,-0.69004,-0.11541,0.49069