Folder: fsri_materials_database/01_Data/Fiber_Cement_Board/STA/N2/30K_min (part 2)

File: Fiber_Cement_Board_STA_N2_30KData_210624_R3.csv
##Temp./Â°C,Time/min,Mass loss(subtr.2)/mg,DSC(subtr.2)/mW,Sensit./(uV/mW)
50.694,10.01,-0.02381,0.0562874,0.6235
53.194,11.48015,-0.02908356,0.27782,0.62347
55.694,11.80823,-0.01848443,0.46417,0.62343
58.194,12.0444,-0.02771739,0.59344,0.62338
60.694,12.23921,-0.03128433,0.72766,0.62332
63.194,12.4106,-0.03025074,0.85992,0.62326
65.694,12.56794,-0.03231483,0.96497,0.62318
68.194,12.714,-0.03437932,1.07897,0.62309
70.694,12.85363,-0.03403816,1.19994,0.623
73.194,12.9876,-0.0358552,1.30934,0.62289
75.694,13.11704,-0.03595129,1.43605,0.62278
78.194,13.24252,-0.03807333,1.56642,0.62265
80.694,13.3647,-0.04126031,1.7039,0.62252
83.194,13.48444,-0.04395512,1.86825,0.62238
85.694,13.60152,-0.04479039,2.02317,0.62223
88.194,13.71543,-0.04692816,2.17402,0.62207
90.694,13.8272,-0.05009135,2.33581,0.6219
93.194,13.9365,-0.05386778,2.50223,0.62172
95.694,14.0438,-0.05803762,2.65947,0.62154
98.194,14.14886,-0.06067711,2.81337,0.62134
100.694,14.25201,-0.06592448,2.94567,0.62114
103.194,14.3529,-0.06853051,3.10187,0.62093
105.694,14.45235,-0.07223029,3.2127,0.6207
108.194,14.5501,-0.07515024,3.3473,0.62047
110.694,14.64596,-0.07920565,3.44106,0.62024
113.194,14.7412,-0.08334683,3.55748,0.61999
115.694,14.8347,-0.08731116,3.64395,0.61973
118.194,14.92673,-0.0914021,3.71628,0.61947
120.694,15.0175,-0.09687533,3.78313,0.6192
123.194,15.10716,-0.10122,3.86288,0.61892
125.694,15.19571,-0.10387,3.92777,0.61863
128.194,15.2828,-0.10857,3.97786,0.61833
130.694,15.36907,-0.11337,4.02318,0.61802
133.194,15.4541,-0.11749,4.07649,0.61771
135.694,15.53832,-0.12113,4.1129,0.61739
138.194,15.62161,-0.12437,4.14204,0.61706
140.694,15.7041,-0.13007,4.15959,0.61672
143.194,15.78595,-0.13314,4.18074,0.61637
145.694,15.86674,-0.13713,4.21386,0.61602
148.194,15.94708,-0.14061,4.22726,0.61566
150.694,16.0269,-0.14408,4.2255,0.61529
153.194,16.10621,-0.14863,4.26752,0.61491
155.694,16.18486,-0.15247,4.2839,0.61453
158.194,16.2627,-0.15543,4.29104,0.61413
160.694,16.34042,-0.15865,4.2876,0.61373
163.194,16.4179,-0.16293,4.30664,0.61333
165.694,16.4951,-0.16629,4.31276,0.61291
168.194,16.57141,-0.17005,4.30179,0.61249
170.694,16.64767,-0.17156,4.28908,0.61206
173.194,16.7232,-0.17478,4.29961,0.61162
175.694,16.79854,-0.18035,4.28366,0.61118
178.194,16.87361,-0.18169,4.27312,0.61072
180.694,16.94824,-0.18461,4.26739,0.61026
183.194,17.02241,-0.18946,4.25386,0.6098
185.694,17.09614,-0.19145,4.23687,0.60932
188.194,17.1695,-0.19577,4.22275,0.60884
190.694,17.2426,-0.19853,4.2033,0.60836
193.194,17.31531,-0.20198,4.17914,0.60786
195.694,17.38766,-0.20468,4.13927,0.60736
198.194,17.45966,-0.20839,4.11845,0.60685
200.694,17.53169,-0.21009,4.0817,0.60634
203.194,17.60311,-0.21599,4.04781,0.60582
205.694,17.6745,-0.21587,3.99561,0.60529
208.194,17.7456,-0.21819,3.96319,0.60476
210.694,17.81651,-0.22311,3.90845,0.60422
213.194,17.88716,-0.22641,3.87718,0.60367
215.694,17.9578,-0.22793,3.83464,0.60311
218.194,18.02816,-0.22937,3.76265,0.60255
220.694,18.09825,-0.23245,3.72088,0.60199
223.194,18.16776,-0.23489,3.65543,0.60142
225.694,18.2384,-0.23637,3.60524,0.60084
228.194,18.30816,-0.23763,3.56061,0.60025
230.694,18.37769,-0.24089,3.52793,0.59966
233.194,18.44738,-0.24378,3.46384,0.59907
235.694,18.51689,-0.2453,3.4196,0.59846
238.194,18.58594,-0.24967,3.37792,0.59785
240.694,18.6551,-0.25234,3.34874,0.59724
243.194,18.7242,-0.25344,3.28606,0.59662
245.694,18.793,-0.25526,3.2668,0.59599
248.194,18.86179,-0.25665,3.22301,0.59536
250.694,18.93073,-0.25904,3.20627,0.59473
253.194,18.99939,-0.26073,3.20273,0.59408
255.694,19.0679,-0.2633,3.18995,0.59343
258.194,19.1364,-0.26629,3.17824,0.59278
260.694,19.2049,-0.26926,3.19187,0.59212
263.194,19.27339,-0.27452,3.18237,0.59146
265.694,19.34173,-0.26909,3.18022,0.59079
268.194,19.40993,-0.27214,3.16887,0.59011
270.694,19.4783,-0.27598,3.15218,0.58944
273.194,19.54658,-0.27721,3.17489,0.58875
275.694,19.61476,-0.27898,3.20106,0.58806
278.194,19.68291,-0.2832,3.22959,0.58737
280.694,19.75102,-0.28608,3.26446,0.58667
283.194,19.81927,-0.2874,3.2812,0.58596
285.694,19.8875,-0.29002,3.32594,0.58525
288.194,19.95567,-0.29171,3.36855,0.58454
290.694,20.02383,-0.29619,3.40858,0.58382
293.194,20.09208,-0.29975,3.46503,0.5831
295.694,20.1603,-0.30415,3.52808,0.58237
298.194,20.22857,-0.30701,3.55782,0.58164
300.694,20.29675,-0.31203,3.59386,0.5809
303.194,20.36487,-0.31516,3.65437,0.58016
305.694,20.43338,-0.31628,3.69281,0.57942
308.194,20.50155,-0.32113,3.7268,0.57867
310.694,20.56991,-0.32292,3.7545,0.57792
313.194,20.6383,-0.32854,3.79047,0.57716
315.694,20.70656,-0.33354,3.80868,0.5764
318.194,20.77494,-0.33975,3.82732,0.57563
320.694,20.84331,-0.34255,3.83877,0.57486
323.194,20.91163,-0.34784,3.84645,0.57409
325.694,20.98,-0.35156,3.86183,0.57331
328.194,21.04826,-0.35817,3.86618,0.57253
330.694,21.117,-0.3621,3.83822,0.57175
333.194,21.1859,-0.36825,3.82992,0.57096
335.694,21.25441,-0.37319,3.82452,0.57017
338.194,21.3232,-0.3801,3.79591,0.56937
340.694,21.3919,-0.38406,3.77686,0.56857
343.194,21.4608,-0.39015,3.74345,0.56777
345.694,21.52969,-0.39399,3.71788,0.56697
348.194,21.5986,-0.40099,3.707,0.56616
350.694,21.66757,-0.40665,3.66878,0.56535
353.194,21.7366,-0.41466,3.65448,0.56453
355.694,21.8059,-0.42096,3.61895,0.56371
358.194,21.8751,-0.42864,3.59312,0.56289
360.694,21.9444,-0.43425,3.56138,0.56207
363.194,22.01384,-0.44264,3.55919,0.56124
365.694,22.0833,-0.45067,3.52966,0.56041
368.194,22.15297,-0.45936,3.48385,0.55958
370.694,22.22254,-0.46815,3.47652,0.55874
373.194,22.2923,-0.47415,3.45802,0.5579
375.694,22.36219,-0.48226,3.43696,0.55706
378.194,22.43195,-0.49041,3.41268,0.55622
380.694,22.502,-0.50134,3.41264,0.55537
383.194,22.5723,-0.51097,3.37739,0.55452
385.694,22.64262,-0.5181,3.33966,0.55367
388.194,22.71286,-0.52644,3.28634,0.55282
390.694,22.78329,-0.53533,3.22708,0.55196
393.194,22.8537,-0.54378,3.16884,0.55111
395.694,22.9244,-0.55242,3.07896,0.55025
398.194,22.99517,-0.55948,2.97891,0.54938
400.694,23.06605,-0.56488,2.8782,0.54852
403.194,23.13701,-0.57045,2.79438,0.54765
405.694,23.20804,-0.57419,2.7154,0.54678
408.194,23.2791,-0.57562,2.64708,0.54591
410.694,23.3503,-0.57861,2.58669,0.54504
413.194,23.4216,-0.58228,2.53506,0.54417
415.694,23.49275,-0.58354,2.4997,0.54329
418.194,23.56416,-0.58667,2.44836,0.54241
420.694,23.636,-0.58812,2.41452,0.54153
423.194,23.70812,-0.59072,2.38759,0.54065
425.694,23.77991,-0.59319,2.352,0.53977
428.194,23.8517,-0.59505,2.33229,0.53888
430.694,23.92383,-0.5981,2.3256,0.538
433.194,23.99599,-0.60008,2.28621,0.53711
435.694,24.0684,-0.60337,2.26498,0.53622
438.194,24.14084,-0.60402,2.22331,0.53533
440.694,24.21337,-0.60765,2.19265,0.53444
443.194,24.28604,-0.60876,2.14722,0.53355
445.694,24.35896,-0.61251,2.10313,0.53265
448.194,24.43186,-0.61438,2.07001,0.53176
450.694,24.50481,-0.61668,2.05095,0.53086
453.194,24.57809,-0.61842,2.04386,0.52997
455.694,24.65129,-0.62102,2.01114,0.52907
458.194,24.72469,-0.62388,1.98643,0.52817
460.694,24.79834,-0.62627,1.97594,0.52727
463.194,24.872,-0.62786,1.93641,0.52637
465.694,24.9456,-0.63021,1.91591,0.52547
468.194,25.01955,-0.63169,1.88795,0.52457
470.694,25.0935,-0.63318,1.85816,0.52366
473.194,25.16744,-0.63421,1.82292,0.52276
475.694,25.2417,-0.63739,1.79344,0.52186
478.194,25.316,-0.63864,1.77644,0.52095
480.694,25.3905,-0.64156,1.75734,0.52005
483.194,25.4652,-0.64316,1.73597,0.51914
485.694,25.53976,-0.64573,1.70775,0.51824
488.194,25.61446,-0.64795,1.69373,0.51733
490.694,25.68935,-0.6498,1.65799,0.51642
493.194,25.76435,-0.65202,1.61145,0.51552
495.694,25.83965,-0.65484,1.58037,0.51461
498.194,25.91487,-0.6579,1.5614,0.5137
500.694,25.99022,-0.65923,1.54724,0.51279
503.194,26.06565,-0.66054,1.50529,0.51189
505.694,26.14126,-0.6623,1.48996,0.51098
508.194,26.2169,-0.66448,1.4501,0.51007
510.694,26.2928,-0.66576,1.42431,0.50916
513.194,26.3687,-0.66872,1.4029,0.50826
515.694,26.4447,-0.67141,1.35062,0.50735
518.194,26.52096,-0.67431,1.31742,0.50644
520.694,26.5972,-0.67566,1.2857,0.50553
523.194,26.6734,-0.67822,1.28794,0.50463
525.694,26.7499,-0.67984,1.23446,0.50372
528.194,26.8263,-0.68125,1.20374,0.50281
530.694,26.90278,-0.68402,1.18841,0.50191
533.194,26.97953,-0.68533,1.14861,0.501
535.694,27.05615,-0.68668,1.1298,0.5001
538.194,27.1333,-0.68971,1.10721,0.49919
540.694,27.21053,-0.69174,1.07927,0.49829
543.194,27.2881,-0.69337,1.03567,0.49739
545.694,27.36532,-0.69439,0.99796,0.49648
548.194,27.44265,-0.69609,0.95794,0.49558
550.694,27.5202,-0.6974,0.8898,0.49468
553.194,27.5977,-0.69877,0.85407,0.49378
555.694,27.6754,-0.70174,0.8316,0.49288
558.194,27.7531,-0.70209,0.82611,0.49198
560.694,27.831,-0.70281,0.81072,0.49108
563.194,27.90894,-0.70565,0.80382,0.49018
565.694,27.98678,-0.70671,0.80161,0.48928
568.194,28.06515,-0.71116,0.79991,0.48839
570.694,28.14348,-0.71013,0.89069,0.48749
573.194,28.2217,-0.71383,1.14203,0.4866
575.694,28.3,-0.71648,0.98642,0.4857
578.194,28.37857,-0.71779,0.79767,0.48481
580.694,28.45717,-0.7198,0.63393,0.48392
583.194,28.5359,-0.7191,0.51336,0.48303
585.694,28.61464,-0.72176,0.43498,0.48214
588.194,28.6935,-0.72313,0.4006,0.48125
590.694,28.77256,-0.72416,0.34802,0.48037
593.194,28.85142,-0.72755,0.31097,0.47948
595.694,28.93058,-0.73052,0.2847,0.4786
598.194,29.0097,-0.73185,0.29693,0.47771
600.694,29.0889,-0.7338,0.29956,0.47683
603.194,29.1684,-0.73379,0.2882,0.47595
605.694,29.24792,-0.73432,0.27712,0.47507
608.194,29.32743,-0.73545,0.27936,0.47419
610.694,29.4071,-0.73851,0.25814,0.47332
613.194,29.48678,-0.74045,0.22126,0.47244
615.694,29.56625,-0.74107,0.20575,0.47157
618.194,29.64616,-0.74334,0.19671,0.4707
620.694,29.72597,-0.74467,0.24692,0.46983
623.194,29.806,-0.74466,0.25993,0.46896
625.694,29.88604,-0.74764,0.24895,0.46809
628.194,29.96616,-0.74862,0.2309,0.46723
629.194,29.99832,-0.74862,0.21715,0.46688