Folder: fsri_materials_database/01_Data/Fiber_Cement_Board/STA/N2/3K_min

Note: 01_Data/README.md
# Materials and Products Database
## 01_Data

Raw data generated from each apparatus are included here in plain-text format. The data is organized first by material, next by the short name of test apparatus used, and where applicable additional filtering by test settings.

### material.json

Each material directory contains a json file of the same name as the material. This file links the data stored in the repository as well as data and graphs produced by the accompanying scripts (__02_Scripts__) to the respective landing page for the material on the front-end website.

File: Fiber_Cement_Board_STA_N2_3KData_210623_R1.csv
##Temp./Â°C,Time/min,Mass loss(subtr.2)/mg,DSC(subtr.2)/mW,Sensit./(uV/mW)
49.119,10.0158,-0.01623,0.10056,0.5842
51.619,13.6498,-0.02307166,0.18632,0.58537
54.119,15.04055,-0.02732189,0.24585,0.58653
56.619,16.21632,-0.02843128,0.30507,0.58768
59.119,17.28358,-0.03172747,0.3277,0.58881
61.619,18.28603,-0.03609351,0.35538,0.58992
64.119,19.2449,-0.03819354,0.3661,0.59101
66.619,20.17207,-0.04224889,0.41533,0.59209
69.119,21.0807,-0.04695004,0.43359,0.59316
71.619,21.96799,-0.05133803,0.47193,0.5942
74.119,22.8497,-0.05564867,0.50089,0.59523
76.619,23.71483,-0.05988747,0.51982,0.59625
79.119,24.5728,-0.06657377,0.5492,0.59724
81.619,25.42919,-0.06911214,0.56576,0.59822
84.119,26.27989,-0.07567881,0.57432,0.59919
86.619,27.12095,-0.08094365,0.58876,0.60014
89.119,27.9583,-0.08724801,0.5993,0.60107
91.619,28.7853,-0.09146822,0.59473,0.60198
94.119,29.61417,-0.09718045,0.62818,0.60288
96.619,30.4349,-0.10255,0.61223,0.60376
99.119,31.25103,-0.10702,0.61486,0.60462
101.619,32.06364,-0.11221,0.61788,0.60547
104.119,32.8784,-0.11747,0.6261,0.6063
106.619,33.69024,-0.12365,0.61832,0.60712
109.119,34.49418,-0.12744,0.62066,0.60792
111.619,35.30724,-0.13287,0.61769,0.6087
114.119,36.11423,-0.13678,0.6021,0.60946
116.619,36.92196,-0.14204,0.57725,0.61021
119.119,37.72855,-0.14721,0.58973,0.61094
121.619,38.5345,-0.14983,0.57861,0.61166
124.119,39.3374,-0.15576,0.57593,0.61236
126.619,40.1395,-0.16128,0.58121,0.61304
129.119,40.9385,-0.16409,0.57003,0.6137
131.619,41.73749,-0.16936,0.56781,0.61435
134.119,42.53494,-0.1743,0.56304,0.61499
136.619,43.33,-0.17824,0.58413,0.6156
139.119,44.12283,-0.18186,0.56194,0.6162
141.619,44.91471,-0.18647,0.56036,0.61678
144.119,45.7087,-0.18977,0.55275,0.61735
146.619,46.49946,-0.19173,0.54821,0.6179
149.119,47.2886,-0.19667,0.53971,0.61843
151.619,48.07971,-0.19974,0.52576,0.61894
154.119,48.8664,-0.20436,0.51609,0.61944
156.619,49.6561,-0.2083,0.53094,0.61993
159.119,50.44207,-0.21183,0.52484,0.62039
161.619,51.22938,-0.21492,0.49906,0.62084
164.119,52.01348,-0.22015,0.50882,0.62128
166.619,52.7968,-0.22014,0.5105,0.62169
169.119,53.5837,-0.22443,0.50896,0.62209
171.619,54.37021,-0.22668,0.51913,0.62248
174.119,55.15341,-0.22971,0.49788,0.62284
176.619,55.9373,-0.23222,0.50313,0.6232
179.119,56.7195,-0.23549,0.51153,0.62353
181.619,57.5071,-0.23868,0.51729,0.62385
184.119,58.2935,-0.24098,0.49454,0.62415
186.619,59.0762,-0.2352,0.51238,0.62444
189.119,59.85835,-0.24938,0.50331,0.62471
191.619,60.64099,-0.24757,0.53292,0.62496
194.119,61.42156,-0.25193,0.53938,0.6252
196.619,62.20222,-0.25054,0.51652,0.62542
199.119,62.98189,-0.2548,0.512,0.62562
201.619,63.7638,-0.25677,0.50187,0.62581
204.119,64.54261,-0.25974,0.48389,0.62598
206.619,65.3225,-0.26204,0.49631,0.62614
209.119,66.10374,-0.26165,0.50685,0.62628
211.619,66.88099,-0.26662,0.50772,0.62641
214.119,67.66396,-0.26697,0.49698,0.62652
216.619,68.4457,-0.26697,0.48074,0.62661
219.119,69.22208,-0.27026,0.4692,0.62669
221.619,70.00148,-0.27378,0.50858,0.62675
224.119,70.78281,-0.27784,0.511,0.62679
226.619,71.56529,-0.27917,0.51354,0.62682
229.119,72.34761,-0.28169,0.50951,0.62684
231.619,73.13,-0.28463,0.50281,0.62683
234.119,73.913,-0.28731,0.50791,0.62682
236.619,74.69703,-0.29122,0.51887,0.62678
239.119,75.48186,-0.29264,0.52972,0.62674
241.619,76.26252,-0.29693,0.52434,0.62667
244.119,77.04476,-0.29951,0.53499,0.62659
246.619,77.82497,-0.30338,0.55367,0.6265
249.119,78.6066,-0.30526,0.57326,0.62639
251.619,79.38842,-0.30984,0.58394,0.62626
254.119,80.16843,-0.3125,0.58584,0.62612
256.619,80.95415,-0.31517,0.6047,0.62597
259.119,81.73687,-0.31998,0.60896,0.6258
261.619,82.51983,-0.32661,0.64538,0.62561
264.119,83.30194,-0.32331,0.66842,0.62541
266.619,84.08426,-0.33465,0.66291,0.6252
269.119,84.8674,-0.33838,0.67487,0.62496
271.619,85.65129,-0.34323,0.68814,0.62472
274.119,86.43308,-0.34606,0.69891,0.62446
276.619,87.2149,-0.35099,0.70148,0.62418
279.119,88.0018,-0.35658,0.69004,0.62389
281.619,88.78618,-0.36021,0.7138,0.62359
284.119,89.57258,-0.36581,0.72286,0.62327
286.619,90.35814,-0.37004,0.72249,0.62294
289.119,91.14384,-0.37633,0.71853,0.62259
291.619,91.93004,-0.3816,0.7148,0.62223
294.119,92.7148,-0.3871,0.71278,0.62185
296.619,93.5031,-0.39302,0.73337,0.62146
299.119,94.28933,-0.39863,0.72415,0.62106
301.619,95.07821,-0.40493,0.70763,0.62064
304.119,95.86577,-0.41088,0.7221,0.6202
306.619,96.64871,-0.41745,0.69184,0.61976
309.119,97.44021,-0.42471,0.69648,0.6193
311.619,98.22797,-0.43053,0.70287,0.61882
314.119,99.01751,-0.4359,0.69638,0.61833
316.619,99.8079,-0.44393,0.68095,0.61783
319.119,100.6,-0.44928,0.69199,0.61731
321.619,101.39,-0.45686,0.6692,0.61679
324.119,102.182,-0.46473,0.6519,0.61624
326.619,102.973,-0.47302,0.67029,0.61569
329.119,103.764,-0.48084,0.68686,0.61512
331.619,104.556,-0.48929,0.67769,0.61453
334.119,105.348,-0.50113,0.68156,0.61394
336.619,106.144,-0.50693,0.67552,0.61333
339.119,106.938,-0.51643,0.65542,0.6127
341.619,107.732,-0.52573,0.65191,0.61207
344.119,108.528,-0.53508,0.64403,0.61142
346.619,109.323,-0.54425,0.63103,0.61076
349.119,110.121,-0.55136,0.63197,0.61009
351.619,110.921,-0.5632,0.5912,0.6094
354.119,111.72,-0.56731,0.56316,0.6087
356.619,112.516,-0.57245,0.53208,0.60799
359.119,113.315,-0.57509,0.49117,0.60726
361.619,114.112,-0.57815,0.4697,0.60653
364.119,114.913,-0.57952,0.47143,0.60578
366.619,115.715,-0.58342,0.46046,0.60502
369.119,116.514,-0.58639,0.47051,0.60424
371.619,117.314,-0.58802,0.46537,0.60346
374.119,118.115,-0.59209,0.45816,0.60266
376.619,118.915,-0.59142,0.45533,0.60185
379.119,119.72,-0.59363,0.45738,0.60103
381.619,120.524,-0.59583,0.45185,0.6002
384.119,121.33,-0.59994,0.44826,0.59935
386.619,122.1351,-0.60072,0.43628,0.5985
389.119,122.939,-0.60417,0.44323,0.59763
391.619,123.745,-0.60727,0.43439,0.59675
394.119,124.547,-0.61062,0.42448,0.59586
396.619,125.35,-0.6083,0.42045,0.59496
399.119,126.154,-0.61335,0.39713,0.59405
401.619,126.96,-0.61622,0.41362,0.59312
404.119,127.765,-0.61724,0.42927,0.59219
406.619,128.571,-0.62049,0.43448,0.59124
409.119,129.385,-0.62215,0.43151,0.59029
411.619,130.196,-0.62577,0.42701,0.58932
414.119,131.004,-0.6277,0.42066,0.58834
416.619,131.816,-0.62839,0.42866,0.58735
419.119,132.632,-0.63069,0.43999,0.58635
421.619,133.447,-0.63203,0.42692,0.58535
424.119,134.261,-0.63494,0.4316,0.58433
426.619,135.072,-0.63531,0.42475,0.5833
429.119,135.886,-0.63926,0.44557,0.58226
431.619,136.698,-0.64122,0.43281,0.58121
434.119,137.511,-0.64412,0.43848,0.58015
436.619,138.328,-0.64605,0.44432,0.57908
439.119,139.143,-0.64715,0.45909,0.578
441.619,139.961,-0.64978,0.47613,0.57691
444.119,140.783,-0.65242,0.46654,0.57581
446.619,141.601,-0.65499,0.46507,0.57471
449.119,142.4193,-0.65702,0.46971,0.57359
451.619,143.236,-0.65866,0.47128,0.57246
454.119,144.057,-0.66179,0.47501,0.57133
456.619,144.8743,-0.66263,0.46521,0.57018
459.119,145.697,-0.66558,0.46725,0.56903
461.619,146.5199,-0.66595,0.47236,0.56787
464.119,147.341,-0.66854,0.45453,0.56669
466.619,148.162,-0.67051,0.46785,0.56551
469.119,148.982,-0.67347,0.46929,0.56433
471.619,149.8036,-0.67552,0.45776,0.56313
474.119,150.624,-0.67676,0.46055,0.56192
476.619,151.447,-0.67994,0.43358,0.56071
479.119,152.276,-0.67961,0.44707,0.55949
481.619,153.105,-0.68258,0.42582,0.55825
484.119,153.927,-0.68306,0.41521,0.55702
486.619,154.753,-0.68455,0.45419,0.55577
489.119,155.58,-0.68324,0.4612,0.55451
491.619,156.407,-0.68653,0.44516,0.55325
494.119,157.232,-0.6885,0.42432,0.55198
496.619,158.058,-0.69057,0.42396,0.5507
499.119,158.891,-0.69113,0.46074,0.54942
501.619,159.722,-0.69277,0.44281,0.54813
504.119,160.553,-0.69457,0.43367,0.54683
506.619,161.385,-0.69736,0.44296,0.54552
509.119,162.211,-0.69856,0.427,0.5442
511.619,163.043,-0.70134,0.40239,0.54288
514.119,163.877,-0.70302,0.39668,0.54155
516.619,164.71,-0.70293,0.4127,0.54022
519.119,165.54,-0.7063,0.40063,0.53888
521.619,166.373,-0.70601,0.39712,0.53753
524.119,167.209,-0.70946,0.39921,0.53617
526.619,168.044,-0.71024,0.40336,0.53481
529.119,168.881,-0.7112,0.42114,0.53344
531.619,169.717,-0.71252,0.41754,0.53206
534.119,170.554,-0.71779,0.38978,0.53068
536.619,171.388,-0.71861,0.39828,0.5293
539.119,172.222,-0.7207,0.38993,0.5279
541.619,173.063,-0.72268,0.38469,0.5265
544.119,173.903,-0.72468,0.38891,0.5251
546.619,174.744,-0.72635,0.36753,0.52369
549.119,175.5797,-0.72606,0.37624,0.52227
551.619,176.417,-0.72865,0.3646,0.52085
554.119,177.262,-0.73017,0.38691,0.51942
556.619,178.102,-0.72948,0.35636,0.51799
559.119,178.94,-0.73281,0.3557,0.51655
561.619,179.78,-0.73348,0.38141,0.5151
564.119,180.621,-0.73443,0.38551,0.51366
566.619,181.47,-0.73346,0.35969,0.5122
569.119,182.316,-0.73511,0.35253,0.51074
571.619,183.16,-0.73779,0.34181,0.50928
574.119,184.005,-0.73775,0.39317,0.50781
576.619,184.85,-0.73905,0.31343,0.50634
579.119,185.698,-0.73972,0.29315,0.50486
581.619,186.545,-0.74242,0.23465,0.50338
584.119,187.389,-0.74282,0.24366,0.50189
586.619,188.233,-0.7417,0.22703,0.5004
589.119,189.081,-0.74499,0.2013,0.4989
591.619,189.929,-0.74366,0.18221,0.4974
594.119,190.772,-0.74504,0.20441,0.4959
596.619,191.622,-0.74621,0.16307,0.49439
599.119,192.474,-0.74762,0.1456,0.49288
601.619,193.323,-0.74791,0.1632,0.49136
604.119,194.172,-0.74874,0.11545,0.48984
606.619,195.024,-0.74665,0.12256,0.48832
609.119,195.8751,-0.74939,0.11818,0.48679
611.619,196.723,-0.74762,0.12702,0.48526
614.119,197.574,-0.74619,0.1168,0.48373
616.619,198.423,-0.748,0.12539,0.4822
619.119,199.276,-0.74894,0.10908,0.48066
621.619,200.126,-0.74999,0.14058,0.47911
624.119,200.982,-0.74959,0.12477,0.47757
626.619,201.836,-0.74927,0.11875,0.47602
629.119,202.689,-0.75079,0.08772277,0.47447
631.619,203.547,-0.75225,0.09103924,0.47291
634.119,204.404,-0.75273,0.04041871,0.47135
636.619,205.2532,-0.75115,-0.02746147,0.46979
639.119,206.112,-0.75256,-0.03692375,0.46823
641.619,206.969,-0.75452,-0.02022014,0.46667
644.119,207.823,-0.75194,-0.02419863,0.4651
646.619,208.682,-0.75386,-0.02689864,0.46353
649.119,209.54,-0.75552,-0.04462125,0.46196
650.419,209.9896,-0.75288,-0.02672848,0.46114