Folder: fsri_materials_database/01_Data/Bean_Bag_Chair_Outer_Cover/STA/N2/10K_min

Note: 01_Data/README.md
# Materials and Products Database
## 01_Data

Raw data generated from each apparatus are included here in plain-text format. The data is organized first by material, next by the short name of test apparatus used, and where applicable additional filtering by test settings.

### material.json

Each material directory contains a json file of the same name as the material. This file links the data stored in the repository as well as data and graphs produced by the accompanying scripts (__02_Scripts__) to the respective landing page for the material on the front-end website.

File: Bean_Bag_Cover_STA_N2_10KData_220511_R1.csv
##Temp./Â°C,Time/min,Mass loss(subtr.2)/mg,DSC(subtr.2)/(mW/mg),Sensit./(uV/mW)
49.63,10.01,-0.04051,0.01922832,1.0702
52.93,11.33999,-0.04577933,0.11783,1.06929
56.23,11.8001,-0.04621955,0.16574,1.06837
59.53,12.1943,-0.04740669,0.19329,1.06743
62.83,12.56583,-0.04934041,0.21059,1.06649
66.13,12.92633,-0.05128964,0.22523,1.06553
69.43,13.28064,-0.05402,0.23746,1.06456
72.73,13.62899,-0.05666488,0.248,1.06359
76.03,13.97565,-0.05928047,0.26042,1.0626
79.33,14.31701,-0.06060426,0.27055,1.06159
82.63,14.65506,-0.06290619,0.27723,1.06058
85.93,14.9899,-0.06487892,0.28142,1.05956
89.23,15.32196,-0.07151914,0.28481,1.05852
92.53,15.6521,-0.06825477,0.28444,1.05747
95.83,15.97928,-0.07081978,0.28191,1.05642
99.13,16.30484,-0.07344989,0.27686,1.05534
102.43,16.6285,-0.07476831,0.27296,1.05426
105.73,16.95101,-0.07872746,0.26481,1.05317
109.03,17.2736,-0.07936056,0.26033,1.05206
112.33,17.5963,-0.08138548,0.25664,1.05095
115.63,17.91779,-0.08223,0.25199,1.04982
118.93,18.23862,-0.08223189,0.24826,1.04868
122.23,18.55865,-0.08457951,0.2475,1.04752
125.53,18.87964,-0.08485831,0.2473,1.04636
128.83,19.19931,-0.08519002,0.24814,1.04518
132.13,19.51754,-0.08647343,0.2515,1.044
135.43,19.83587,-0.08618004,0.25266,1.0428
138.73,20.15523,-0.08881813,0.25561,1.04158
142.03,20.47302,-0.08880658,0.25419,1.04036
145.33,20.79019,-0.08882001,0.25557,1.03912
148.63,21.10758,-0.08880993,0.25945,1.03788
151.93,21.42442,-0.09065703,0.26145,1.03662
155.23,21.74155,-0.09144891,0.26408,1.03534
158.53,22.05861,-0.09276223,0.26555,1.03406
161.83,22.37499,-0.09245857,0.26832,1.03276
165.13,22.69139,-0.09099599,0.26843,1.03145
168.43,23.0075,-0.09308291,0.27192,1.03013
171.73,23.324,-0.09156599,0.27174,1.0288
175.03,23.64036,-0.09287988,0.27448,1.02745
178.33,23.95635,-0.09288187,0.27713,1.02609
181.63,24.27153,-0.09321029,0.2784,1.02472
184.93,24.58706,-0.09354178,0.28014,1.02334
188.23,24.9021,-0.0950155,0.28307,1.02194
191.53,25.21602,-0.09583999,0.28502,1.02054
194.83,25.53078,-0.09584051,0.28554,1.01911
198.13,25.84497,-0.0965,0.28825,1.01768
201.43,26.15839,-0.09782,0.28963,1.01624
204.73,26.47188,-0.09781994,0.29131,1.01478
208.03,26.78547,-0.09650008,0.29333,1.01331
211.33,27.0995,-0.09782003,0.2952,1.01182
214.63,27.41335,-0.10007,0.29783,1.01033
217.93,27.72755,-0.09913089,0.29848,1.00882
221.23,28.0416,-0.10045,0.30086,1.00729
224.53,28.35548,-0.10309,0.30342,1.00576
227.83,28.6687,-0.10342,0.30627,1.00421
231.13,28.98235,-0.10539,0.3088,1.00265
234.43,29.29465,-0.10671,0.31104,1.00108
237.73,29.6077,-0.11098,0.31573,0.99949
241.03,29.92056,-0.11034,0.31623,0.99789
244.33,30.23384,-0.1156,0.32005,0.99628
247.63,30.54775,-0.11947,0.31955,0.99465
250.93,30.86099,-0.12351,0.32198,0.99302
254.23,31.1768,-0.12757,0.32491,0.99136
257.53,31.49165,-0.12889,0.32743,0.9897
260.83,31.80645,-0.13284,0.33281,0.98802
264.13,32.12014,-0.13547,0.33677,0.98633
267.43,32.43463,-0.14211,0.33946,0.98463
270.73,32.74881,-0.14734,0.34308,0.98291
274.03,33.06296,-0.15261,0.34302,0.98118
277.33,33.37795,-0.16049,0.33943,0.97944
280.63,33.69308,-0.16766,0.33776,0.97768
283.93,34.0082,-0.17543,0.34162,0.97591
287.23,34.32308,-0.18491,0.34664,0.97413
290.53,34.63909,-0.19487,0.351,0.97233
293.83,34.95427,-0.20566,0.35629,0.97052
297.13,35.26998,-0.22231,0.36493,0.9687
300.43,35.58549,-0.23803,0.37035,0.96687
303.73,35.90099,-0.25479,0.38292,0.96502
307.03,36.21753,-0.27917,0.39388,0.96316
310.33,36.5336,-0.30056,0.40895,0.96128
313.63,36.8493,-0.3282,0.42525,0.95939
316.93,37.16482,-0.36061,0.44982,0.95749
320.23,37.48298,-0.39788,0.48296,0.95557
323.53,37.79983,-0.44295,0.52293,0.95364
326.83,38.11727,-0.49485,0.57085,0.9517
330.13,38.43524,-0.55571,0.6318,0.94975
333.43,38.75331,-0.62719,0.71216,0.94778
336.73,39.07022,-0.71322,0.81082,0.9458
340.03,39.38922,-0.81857,0.9297,0.9438
343.33,39.70817,-0.94341,1.0731,0.94179
346.63,40.0276,-1.09478,1.24166,0.93977
349.93,40.34753,-1.27317,1.42119,0.93774
353.23,40.66785,-1.48258,1.59901,0.93569
356.53,40.98891,-1.71801,1.75135,0.93363
359.83,41.30851,-1.97512,1.84055,0.93155
363.13,41.62975,-2.23934,1.84516,0.92946
366.43,41.94894,-2.49844,1.76271,0.92736
369.73,42.26726,-2.7429,1.60483,0.92525
373.03,42.58467,-2.956,1.36087,0.92312
376.33,42.90149,-3.13125,1.02968,0.92098
379.63,43.218,-3.25431,0.64009,0.91882
382.93,43.53374,-3.31861,0.29879,0.91665
386.23,43.85015,-3.35169,0.08399389,0.91447
389.53,44.1667,-3.36487,-0.001606032,0.91228
392.83,44.48441,-3.37143,-0.02534106,0.91007
396.13,44.80207,-3.37536,-0.03451185,0.90785
399.43,45.12084,-3.38172,-0.03859919,0.90562
402.73,45.44082,-3.38363,-0.03912185,0.90337
406.03,45.76116,-3.38767,-0.03902791,0.90112
409.33,46.08163,-3.39298,-0.04180529,0.89884
412.63,46.40229,-3.39681,-0.04171795,0.89656
415.93,46.72282,-3.40205,-0.03971107,0.89426
419.23,47.04404,-3.40473,-0.04072163,0.89195
422.53,47.36564,-3.40735,-0.04395603,0.88963
425.83,47.687,-3.41085,-0.04158343,0.88729
429.13,48.00904,-3.41532,-0.04101271,0.88494
432.43,48.33088,-3.418,-0.0402345,0.88258
435.73,48.6527,-3.42064,-0.04102418,0.8802
439.03,48.97583,-3.42459,-0.04040846,0.87782
442.33,49.29864,-3.42902,-0.03976834,0.87542
445.63,49.6212,-3.4315,-0.03870481,0.87301
448.93,49.94518,-3.43405,-0.0368284,0.87058
452.23,50.2688,-3.43688,-0.03904997,0.86814
455.53,50.59245,-3.44116,-0.03794897,0.86569
458.83,50.9154,-3.4438,-0.03924563,0.86323
462.13,51.23859,-3.44576,-0.03912143,0.86076
465.43,51.56268,-3.44974,-0.03814391,0.85827
468.73,51.88658,-3.4517,-0.03687647,0.85577
472.03,52.21117,-3.45499,-0.0370424,0.85326
475.33,52.53552,-3.45598,-0.03717331,0.85074
478.63,52.85949,-3.45993,-0.03479405,0.8482
481.93,53.18436,-3.46224,-0.03437302,0.84566
485.23,53.5093,-3.46488,-0.0305368,0.8431
488.53,53.83413,-3.46883,-0.01692699,0.84053
491.83,54.1596,-3.47014,-0.004653514,0.83795
495.13,54.4845,-3.47169,-0.000881026,0.83535
498.43,54.80981,-3.47509,-0.004155513,0.83275
501.73,55.13541,-3.47547,-0.009566949,0.83013
505.03,55.46082,-3.48199,-0.008615049,0.8275
508.33,55.7857,-3.48299,-0.01274881,0.82486
511.63,56.11136,-3.48332,-0.02671083,0.82221
514.93,56.43707,-3.48595,-0.04043212,0.81955
518.23,56.7629,-3.48727,-0.05011748,0.81687
521.53,57.08985,-3.48946,-0.05983478,0.81419
524.83,57.41644,-3.49114,-0.06326165,0.81149
528.13,57.7427,-3.49375,-0.06736416,0.80879
531.43,58.06951,-3.49638,-0.06989057,0.80607
534.73,58.39677,-3.49677,-0.07145215,0.80334
538.03,58.72367,-3.4967,-0.07670123,0.8006
541.33,59.0512,-3.49934,-0.07603493,0.79785
544.63,59.37941,-3.50063,-0.08131925,0.79509
547.93,59.70734,-3.50195,-0.07889418,0.79232
551.23,60.0353,-3.5033,-0.07645175,0.78954
554.53,60.3634,-3.50494,-0.07838423,0.78675
557.83,60.69034,-3.50791,-0.07405406,0.78395
561.13,61.0178,-3.51032,-0.07554163,0.78114
564.43,61.3454,-3.50966,-0.07823691,0.77832
567.73,61.67311,-3.50975,-0.07700209,0.77549
571.03,62.00133,-3.5123,-0.07616588,0.77265
574.33,62.32986,-3.51274,-0.07692571,0.7698
577.63,62.658,-3.51504,-0.07646344,0.76694
580.93,62.9861,-3.51669,-0.07381617,0.76407
584.23,63.3148,-3.51702,-0.07536784,0.7612
587.53,63.64383,-3.51834,-0.07213974,0.75831
590.83,63.97257,-3.52196,-0.07259746,0.75541
594.13,64.30142,-3.51967,-0.07003907,0.75251
597.43,64.6319,-3.5203,-0.0700249,0.7496
600.73,64.96165,-3.5226,-0.0654887,0.74667
604.03,65.2924,-3.5223,-0.06803189,0.74374
607.33,65.62346,-3.52456,-0.06931167,0.7408
610.63,65.95323,-3.52718,-0.06386277,0.73786
613.93,66.28392,-3.52659,-0.06405013,0.7349
617.23,66.6139,-3.5259,-0.06281909,0.73194
620.53,66.9444,-3.5299,-0.06363478,0.72896
623.83,67.2736,-3.52987,-0.06304678,0.72598
627.13,67.60295,-3.52915,-0.06133565,0.723
630.43,67.9334,-3.53338,-0.05027828,0.72
633.73,68.2641,-3.53207,-0.05032749,0.717
637.03,68.59437,-3.53333,-0.04608629,0.71399
640.33,68.92527,-3.53339,-0.04275112,0.71097
643.63,69.256,-3.53412,-0.0444147,0.70795
646.93,69.58787,-3.53223,-0.04296232,0.70492
650.23,69.91922,-3.53615,-0.04040536,0.70188
653.53,70.2508,-3.53547,-0.03949079,0.69883
656.83,70.58139,-3.53683,-0.03515349,0.69578
660.13,70.91163,-3.53646,-0.03380375,0.69272
663.43,71.24299,-3.53546,-0.03461653,0.68966
666.73,71.57361,-3.53544,-0.03078041,0.68659
670.03,71.90527,-3.53678,-0.0286289,0.68351
673.33,72.237,-3.53714,-0.02902452,0.68043
676.63,72.56885,-3.53678,-0.02268311,0.67734
679.93,72.9007,-3.53812,-0.01963489,0.67425
683.23,73.23218,-3.53975,-0.02108103,0.67115
686.53,73.56421,-3.53971,-0.01598961,0.66804
689.83,73.89694,-3.54368,-0.01129069,0.66493
693.13,74.22872,-3.5404,-0.01177587,0.66182
696.43,74.5616,-3.5426,-0.01338757,0.6587
699.73,74.8947,-3.54304,-0.01275102,0.65557
703.03,75.22707,-3.54172,-0.0111045,0.65245
706.33,75.5586,-3.54436,-0.01550928,0.64931
709.63,75.89059,-3.54469,-0.01264761,0.64617
712.93,76.22238,-3.54436,-0.01588702,0.64303
716.23,76.55418,-3.54502,-0.01230281,0.63989
719.53,76.88628,-3.54502,-0.01306501,0.63674
722.83,77.21947,-3.54436,-0.01374955,0.63358
726.13,77.55297,-3.54699,-0.01452237,0.63042
729.43,77.886,-3.54635,-0.01475413,0.62726
732.73,78.2187,-3.54469,-0.01605568,0.6241
736.03,78.55155,-3.54733,-0.01495741,0.62093
739.33,78.88436,-3.547,-0.01616769,0.61776
742.63,79.21774,-3.54699,-0.01743993,0.61459
745.93,79.55131,-3.55062,-0.02409988,0.61141
749.23,79.88503,-3.54798,-0.02936971,0.60823
752.53,80.21928,-3.54952,-0.03697696,0.60505
755.83,80.55291,-3.55037,-0.04878143,0.60187
759.13,80.8875,-3.55061,-0.05447306,0.59869
762.43,81.22149,-3.55061,-0.06293848,0.5955
765.73,81.55527,-3.55047,-0.06625086,0.59231
769.03,81.88849,-3.55194,-0.07020543,0.58912
772.33,82.22111,-3.55119,-0.06001201,0.58593
775.63,82.55362,-3.55358,-0.06180616,0.58273
778.93,82.88733,-3.55254,-0.05772421,0.57954
782.23,83.2221,-3.55444,-0.0593373,0.57635
785.53,83.556,-3.5552,-0.05783976,0.57315
788.83,83.89031,-3.55523,-0.06712784,0.56995
792.13,84.22365,-3.55538,-0.06693196,0.56676
795.43,84.55803,-3.55479,-0.07433334,0.56356
798.73,84.89193,-3.55366,-0.07684913,0.56036
799.73,84.99295,-3.55609,-0.07697727,0.55939

File: Bean_Bag_Cover_STA_N2_10KData_220511_R2.csv
##Temp./Â°C,Time/min,Mass loss(subtr.2)/mg,DSC(subtr.2)/(mW/mg),Sensit./(uV/mW)
49.748,10.01,-0.01515,0.01747008,1.07017
52.848,11.3063,-0.01493362,0.11964,1.06931
55.948,11.74802,-0.01535525,0.16559,1.06844
59.048,12.1255,-0.01613329,0.19438,1.06757
62.148,12.47771,-0.0158695,0.21107,1.06668
65.248,12.81868,-0.01734006,0.229,1.06579
68.348,13.15399,-0.01875695,0.23968,1.06488
71.448,13.4842,-0.01996627,0.25015,1.06397
74.548,13.8115,-0.02119453,0.26144,1.06304
77.648,14.13451,-0.02128285,0.27127,1.06211
80.748,14.4544,-0.02392817,0.27834,1.06116
83.848,14.7717,-0.02393272,0.29004,1.0602
86.948,15.08486,-0.02526245,0.29089,1.05924
90.048,15.39605,-0.02656005,0.29524,1.05826
93.148,15.7054,-0.02878323,0.29738,1.05728
96.248,16.012,-0.0291999,0.29581,1.05628
99.348,16.3181,-0.03184944,0.29411,1.05527
102.448,16.62292,-0.03184102,0.29244,1.05426
105.548,16.92669,-0.03281312,0.28696,1.05323
108.648,17.2294,-0.03281035,0.2865,1.05219
111.748,17.53148,-0.03545194,0.28158,1.05114
114.848,17.83363,-0.03579001,0.28127,1.05009
117.948,18.13553,-0.0354526,0.27881,1.04902
121.048,18.43705,-0.0368337,0.27871,1.04794
124.148,18.73829,-0.03789279,0.28127,1.04685
127.248,19.0392,-0.03809001,0.28229,1.04575
130.348,19.33905,-0.03808995,0.28574,1.04464
133.448,19.63862,-0.03678,0.28856,1.04352
136.548,19.9382,-0.03710141,0.29143,1.04239
139.648,20.23749,-0.03710047,0.29469,1.04124
142.748,20.53501,-0.03711,0.29668,1.04009
145.848,20.83334,-0.03709998,0.30046,1.03893
148.948,21.13097,-0.03841904,0.30726,1.03775
152.048,21.42746,-0.03811894,0.31202,1.03657
155.148,21.72499,-0.0383922,0.31498,1.03537
158.248,22.02198,-0.03842001,0.319,1.03417
161.348,22.31875,-0.03850574,0.32276,1.03295
164.448,22.6157,-0.03842157,0.32604,1.03172
167.548,22.91215,-0.0397291,0.32922,1.03049
170.648,23.20845,-0.03944235,0.33245,1.02924
173.748,23.50464,-0.03875018,0.33615,1.02798
176.848,23.80105,-0.03874112,0.33902,1.0267
179.948,24.09706,-0.03874583,0.34216,1.02542
183.048,24.39349,-0.04007,0.3461,1.02413
186.148,24.68891,-0.04138599,0.34882,1.02283
189.248,24.98374,-0.03846405,0.34972,1.02151
192.348,25.28011,-0.03974,0.35079,1.02018
195.448,25.57457,-0.03974,0.35266,1.01885
198.548,25.87003,-0.04040042,0.35691,1.0175
201.648,26.1653,-0.04055746,0.36065,1.01614
204.748,26.4599,-0.04138148,0.36531,1.01477
207.848,26.7551,-0.04103623,0.36631,1.01339
210.948,27.0501,-0.04138,0.36817,1.01199
214.048,27.3448,-0.04238001,0.36924,1.01059
217.148,27.6402,-0.04238,0.37109,1.00917
220.248,27.9347,-0.04369,0.37394,1.00775
223.348,28.22938,-0.04369004,0.3776,1.00631
226.448,28.52485,-0.04432598,0.38085,1.00486
229.548,28.81987,-0.04566718,0.38131,1.0034
232.648,29.1147,-0.04863053,0.38263,1.00193
235.748,29.4099,-0.04994118,0.38621,1.00044
238.848,29.70518,-0.04994014,0.39156,0.99895
241.948,30.00051,-0.05125943,0.39213,0.99744
245.048,30.29608,-0.05389945,0.39744,0.99593
248.148,30.59137,-0.05618524,0.39986,0.9944
251.248,30.8869,-0.06015332,0.40425,0.99286
254.348,31.18226,-0.06213,0.41038,0.9913
257.448,31.477,-0.06475975,0.41379,0.98974
260.548,31.77256,-0.06871988,0.41993,0.98817
263.648,32.06754,-0.07233782,0.4237,0.98658
266.748,32.3628,-0.07591908,0.4281,0.98498
269.848,32.65872,-0.07881267,0.43216,0.98337
272.948,32.95447,-0.08311209,0.43455,0.98175
276.048,33.25,-0.08815998,0.44182,0.98012
279.148,33.54598,-0.09633895,0.44796,0.97847
282.248,33.84151,-0.10032,0.45187,0.97682
285.348,34.13759,-0.10891,0.45535,0.97515
288.448,34.43425,-0.11574,0.45489,0.97347
291.548,34.73039,-0.12592,0.45885,0.97178
294.648,35.02735,-0.13515,0.46667,0.97007
297.748,35.3238,-0.14776,0.47332,0.96836
300.848,35.62015,-0.16106,0.48198,0.96663
303.948,35.9166,-0.17677,0.48867,0.96489
307.048,36.21335,-0.19459,0.50366,0.96315
310.148,36.51086,-0.21622,0.51703,0.96138
313.248,36.80805,-0.23875,0.53438,0.95961
316.348,37.10524,-0.26483,0.55369,0.95783
319.448,37.403,-0.29613,0.57585,0.95603
322.548,37.7008,-0.33251,0.60667,0.95422
325.648,37.99888,-0.37269,0.64544,0.9524
328.748,38.29722,-0.42221,0.68895,0.95057
331.848,38.59517,-0.47949,0.74603,0.94872
334.948,38.8938,-0.54771,0.81854,0.94687
338.048,39.193,-0.62948,0.90787,0.945
341.148,39.49174,-0.72836,1.01429,0.94312
344.248,39.79161,-0.84539,1.13942,0.94123
347.348,40.09195,-0.98342,1.28091,0.93933
350.448,40.39245,-1.14793,1.43281,0.93742
353.548,40.69375,-1.33566,1.5886,0.93549
356.648,40.99561,-1.55142,1.7261,0.93355
359.748,41.2978,-1.78622,1.82914,0.9316
362.848,41.59921,-2.03419,1.87122,0.92964
365.948,41.9001,-2.28388,1.85802,0.92767
369.048,42.2001,-2.52639,1.77339,0.92568
372.148,42.49895,-2.75272,1.61516,0.92369
375.248,42.79717,-2.94828,1.36322,0.92168
378.348,43.09363,-3.09892,1.02637,0.91966
381.448,43.38925,-3.19792,0.65271,0.91763
384.548,43.6854,-3.24897,0.36183,0.91559
387.648,43.98304,-3.26869,0.21329,0.91353
390.748,44.28212,-3.27831,0.16094,0.91147
393.848,44.5816,-3.28363,0.14621,0.90939
396.948,44.8815,-3.28889,0.13708,0.9073
400.048,45.18229,-3.29512,0.13475,0.9052
403.148,45.4831,-3.29895,0.13432,0.90309
406.248,45.78439,-3.30172,0.12941,0.90097
409.348,46.08556,-3.30568,0.12904,0.89883
412.448,46.38728,-3.30974,0.12669,0.89668
415.548,46.68882,-3.31237,0.12635,0.89453
418.648,46.99049,-3.31734,0.12129,0.89236
421.748,47.29214,-3.31896,0.12107,0.89018
424.848,47.59406,-3.32423,0.1201,0.88799
427.948,47.89678,-3.32687,0.11992,0.88578
431.048,48.19915,-3.32818,0.12101,0.88357
434.148,48.50246,-3.33205,0.12217,0.88134
437.248,48.80516,-3.33484,0.12111,0.87911
440.348,49.10859,-3.33872,0.11817,0.87686
443.448,49.4118,-3.34143,0.11628,0.8746
446.548,49.71598,-3.3453,0.11793,0.87233
449.648,50.0196,-3.34827,0.11589,0.87005
452.748,50.3241,-3.35091,0.11671,0.86776
455.848,50.62657,-3.35486,0.11606,0.86546
458.948,50.9309,-3.35783,0.11665,0.86314
462.048,51.23526,-3.3596,0.12094,0.86082
465.148,51.53952,-3.36441,0.12039,0.85848
468.248,51.84359,-3.36701,0.1214,0.85614
471.348,52.1481,-3.36902,0.1225,0.85378
474.448,52.4529,-3.37135,0.12037,0.85141
477.548,52.75846,-3.37386,0.12257,0.84904
480.648,53.06378,-3.3766,0.1223,0.84665
483.748,53.36821,-3.38055,0.12214,0.84425
486.848,53.6729,-3.38188,0.13403,0.84184
489.948,53.97838,-3.38451,0.14622,0.83942
493.048,54.2839,-3.38712,0.1507,0.83699
496.148,54.5893,-3.38978,0.14885,0.83455
499.248,54.8957,-3.39111,0.14724,0.8321
502.348,55.20135,-3.39373,0.14427,0.82964
505.448,55.5067,-3.39493,0.14245,0.82717
508.548,55.81235,-3.39736,0.13851,0.82469
511.648,56.11829,-3.399,0.13433,0.82219
514.748,56.425,-3.40168,0.1307,0.81969
517.848,56.73202,-3.40295,0.12642,0.81718
520.948,57.0389,-3.40427,0.11856,0.81466
524.048,57.3455,-3.4046,0.11253,0.81213
527.148,57.6519,-3.40689,0.09846374,0.80959
530.248,57.95802,-3.40855,0.08202009,0.80704
533.348,58.26523,-3.40888,0.07119092,0.80449
536.448,58.57235,-3.4125,0.06318809,0.80192
539.548,58.8799,-3.41382,0.06001076,0.79934
542.648,59.1878,-3.41382,0.05083368,0.79675
545.748,59.49494,-3.41513,0.04780026,0.79416
548.848,59.8025,-3.41612,0.04863569,0.79155
551.948,60.11045,-3.41642,0.04596115,0.78894
555.048,60.418,-3.41777,0.04705493,0.78631
558.148,60.72515,-3.41908,0.04499129,0.78368
561.248,61.03369,-3.42008,0.04681216,0.78104
564.348,61.34135,-3.42107,0.0476144,0.77839
567.448,61.64935,-3.42239,0.05032933,0.77573
570.548,61.9581,-3.42403,0.04686418,0.77307
573.648,62.26665,-3.4247,0.04894638,0.77039
576.748,62.57499,-3.42667,0.05026491,0.76771
579.848,62.88437,-3.42669,0.04755273,0.76502
582.948,63.194,-3.42698,0.04766591,0.76232
586.048,63.50252,-3.42831,0.04274104,0.75961
589.148,63.81185,-3.42806,0.04467713,0.75689
592.248,64.1219,-3.4293,0.03890271,0.75417
595.348,64.43182,-3.43061,0.04510761,0.75144
598.448,64.74119,-3.43193,0.04664778,0.7487
601.548,65.04992,-3.43292,0.04784176,0.74595
604.648,65.3596,-3.43393,0.05000656,0.74319
607.748,65.66966,-3.43489,0.04876598,0.74043
610.848,65.97957,-3.4349,0.05472804,0.73766
613.948,66.28967,-3.43622,0.05057738,0.73488
617.048,66.59942,-3.43556,0.05317158,0.7321
620.148,66.90944,-3.43589,0.05441417,0.72931
623.248,67.2192,-3.43819,0.05552174,0.72651
626.348,67.52937,-3.43753,0.05612862,0.72371
629.448,67.83927,-3.43786,0.05506006,0.72089
632.548,68.14984,-3.43918,0.05892152,0.71808
635.648,68.46046,-3.43753,0.05970079,0.71525
638.748,68.7714,-3.44017,0.05810327,0.71242
641.848,69.0826,-3.44016,0.06441778,0.70958
644.948,69.3929,-3.44149,0.06275955,0.70674
648.048,69.70545,-3.44116,0.06752909,0.70389
651.148,70.01608,-3.44116,0.06955015,0.70103
654.248,70.327,-3.44248,0.0687113,0.69817
657.348,70.63794,-3.44215,0.06991185,0.6953
660.448,70.94887,-3.44313,0.0694654,0.69243
663.548,71.25928,-3.44445,0.07521556,0.68955
666.648,71.5701,-3.44445,0.0778114,0.68666
669.748,71.88178,-3.44445,0.07997704,0.68378
672.848,72.19367,-3.44478,0.07827604,0.68088
675.948,72.50647,-3.44679,0.07789324,0.67798
679.048,72.819,-3.44481,0.08056667,0.67508
682.148,73.13128,-3.44543,0.08298548,0.67217
685.248,73.44364,-3.44543,0.08179142,0.66925
688.348,73.75572,-3.44544,0.0828964,0.66633
691.448,74.06752,-3.44676,0.08427569,0.66341
694.548,74.3796,-3.4461,0.08923011,0.66048
697.648,74.6922,-3.44742,0.09000655,0.65755
700.748,75.00493,-3.44676,0.0914536,0.65461
703.848,75.31784,-3.4481,0.08945395,0.65167
706.948,75.63144,-3.44774,0.09281418,0.64872
710.048,75.94451,-3.44807,0.09349015,0.64578
713.148,76.25704,-3.44874,0.09040155,0.64282
716.248,76.56931,-3.44807,0.09419123,0.63987
719.348,76.8809,-3.44807,0.09519005,0.63691
722.448,77.1934,-3.44938,0.0972352,0.63395
725.548,77.5061,-3.44708,0.09893372,0.63098
728.648,77.8184,-3.44807,0.09994361,0.62801
731.748,78.13043,-3.44872,0.09882944,0.62504
734.848,78.44311,-3.44873,0.09881043,0.62207
737.948,78.75631,-3.45021,0.10243,0.61909
741.048,79.0694,-3.4494,0.09863593,0.61611
744.148,79.38265,-3.44933,0.09041963,0.61313
747.248,79.69646,-3.44873,0.0947804,0.61014
750.148,79.99033,-3.44972,0.09207538,0.60735