Folder: fsri_materials_database/01_Data/Bean_Bag_Chair_Outer_Cover/STA/N2/10K_min (part 2)

File: Bean_Bag_Outer_Cover_STA_N2_10KData_220512_R3.csv
##Temp./Â°C,Time/min,Mass loss(subtr.2)/mg,DSC(subtr.2)/(mW/mg),Sensit./(uV/mW)
49.805,10.01,0.00264,0.02744787,1.07015
52.805,11.28917,0.004554641,0.14723,1.06932
55.805,11.7223,0.004945299,0.20194,1.06848
58.805,12.08961,0.005946645,0.24012,1.06764
61.805,12.43043,0.00462033,0.26074,1.06678
64.805,12.7611,0.004498089,0.28192,1.06592
67.805,13.08486,0.005912,0.29854,1.06504
70.805,13.40482,0.003647295,0.31372,1.06416
73.805,13.72149,0.00158401,0.32625,1.06326
76.805,14.03509,0.001833741,0.33899,1.06236
79.805,14.346,0.000233516,0.35062,1.06145
82.805,14.6538,-0.001644059,0.3619,1.06053
85.805,14.95819,-0.001792051,0.36924,1.0596
88.805,15.26015,-0.002090334,0.37367,1.05866
91.805,15.56005,-0.006029972,0.37724,1.05771
94.805,15.85776,-0.007371984,0.37769,1.05675
97.805,16.15446,-0.007128351,0.37765,1.05578
100.805,16.44882,-0.009290875,0.37448,1.0548
103.805,16.7441,-0.01000391,0.371,1.05381
106.805,17.03761,-0.00999003,0.3655,1.05281
109.805,17.3305,-0.00866829,0.3631,1.0518
112.805,17.62335,-0.01159258,0.3588,1.05078
115.805,17.91554,-0.01096957,0.35568,1.04976
118.805,18.2077,-0.01017912,0.35676,1.04872
121.805,18.49921,-0.00867077,0.35659,1.04767
124.805,18.7902,-0.00999,0.35718,1.04662
127.805,19.08107,-0.008693453,0.35941,1.04555
130.805,19.371,-0.009990137,0.36166,1.04447
133.805,19.6603,-0.00999483,0.36327,1.04339
136.805,19.9499,-0.0113034,0.36561,1.04229
139.805,20.23921,-0.009315484,0.36988,1.04119
142.805,20.52846,-0.009396618,0.37247,1.04007
145.805,20.8172,-0.008680514,0.37686,1.03894
148.805,21.1056,-0.00833675,0.3817,1.03781
151.805,21.39361,-0.008023713,0.38828,1.03666
154.805,21.68069,-0.007407844,0.38806,1.03551
157.805,21.9691,-0.008724579,0.39608,1.03434
160.805,22.25655,-0.008019663,0.39854,1.03317
163.805,22.54366,-0.006699733,0.40085,1.03198
166.805,22.8307,-0.007984378,0.40529,1.03078
169.805,23.11769,-0.005699753,0.40921,1.02958
172.805,23.40472,-0.007019785,0.41296,1.02836
175.805,23.6904,-0.00703,0.4148,1.02713
178.805,23.97818,-0.007363231,0.41712,1.0259
181.805,24.26422,-0.006039998,0.42043,1.02465
184.805,24.55135,-0.007020091,0.42469,1.02339
187.805,24.83707,-0.007020001,0.4277,1.02212
190.805,25.12272,-0.007986368,0.43158,1.02085
193.805,25.40888,-0.00726491,0.43437,1.01956
196.805,25.69483,-0.00710667,0.43847,1.01826
199.805,25.97851,-0.007470007,0.44083,1.01695
202.805,26.26535,-0.008779895,0.44614,1.01563
205.805,26.55097,-0.008117449,0.44788,1.0143
208.805,26.83638,-0.00742194,0.45191,1.01296
211.805,27.1219,-0.00878,0.45366,1.01161
214.805,27.4063,-0.0101002,0.45919,1.01025
217.805,27.6924,-0.01139558,0.46334,1.00887
220.805,27.9776,-0.00860711,0.46654,1.00749
223.805,28.26241,-0.01195879,0.46886,1.0061
226.805,28.54738,-0.01229,0.47305,1.00469
229.805,28.83261,-0.01359173,0.47597,1.00328
232.805,29.1184,-0.01394002,0.47946,1.00185
235.805,29.4036,-0.01592118,0.48229,1.00042
238.805,29.68975,-0.01886492,0.48572,0.99897
241.805,29.9752,-0.0202146,0.48955,0.99751
244.805,30.26087,-0.02254199,0.49185,0.99605
247.805,30.5465,-0.02418172,0.49781,0.99457
250.805,30.8323,-0.02593681,0.49957,0.99308
253.805,31.1179,-0.02942299,0.50621,0.99158
256.805,31.40322,-0.03342055,0.50866,0.99007
259.805,31.68862,-0.0360233,0.51385,0.98854
262.805,31.97427,-0.04126678,0.5185,0.98701
265.805,32.25967,-0.04228146,0.5255,0.98547
268.805,32.54463,-0.04788252,0.52903,0.98391
271.805,32.8307,-0.05148018,0.53162,0.98235
274.805,33.1173,-0.05667107,0.5343,0.98077
277.805,33.40359,-0.0607357,0.5343,0.97919
280.805,33.68975,-0.06728906,0.53636,0.97759
283.805,33.97659,-0.07412453,0.53838,0.97598
286.805,34.26287,-0.08334223,0.53973,0.97436
289.805,34.54959,-0.09261092,0.54556,0.97273
292.805,34.83656,-0.10328,0.55082,0.97109
295.805,35.1234,-0.11515,0.55938,0.96944
298.805,35.41072,-0.12737,0.56946,0.96777
301.805,35.6978,-0.14122,0.57813,0.9661
304.805,35.98514,-0.15777,0.59069,0.96441
307.805,36.27244,-0.17929,0.60666,0.96272
310.805,36.5598,-0.19934,0.62579,0.96101
313.805,36.84727,-0.22422,0.64328,0.95929
316.805,37.13465,-0.25273,0.67157,0.95756
319.805,37.42235,-0.2867,0.70117,0.95582
322.805,37.71001,-0.32309,0.73709,0.95407
325.805,37.99899,-0.36606,0.78139,0.95231
328.805,38.28698,-0.41795,0.839,0.95053
331.805,38.576,-0.47652,0.90358,0.94875
334.805,38.8654,-0.54867,0.98434,0.94695
337.805,39.15486,-0.63536,1.08462,0.94515
340.805,39.44497,-0.73597,1.19877,0.94333
343.805,39.73447,-0.85523,1.33032,0.9415
346.805,40.02516,-0.99397,1.47881,0.93966
349.805,40.31665,-1.16252,1.6342,0.93781
352.805,40.60785,-1.34884,1.79023,0.93595
355.805,40.89938,-1.56109,1.92119,0.93408
358.805,41.19088,-1.78792,2.00517,0.9322
361.805,41.4816,-2.02905,2.02674,0.9303
364.805,41.77221,-2.26539,1.98316,0.9284
367.805,42.06133,-2.49299,1.87602,0.92648
370.805,42.3508,-2.70428,1.70372,0.92455
373.805,42.63995,-2.8876,1.45731,0.92262
376.805,42.92754,-3.03388,1.14036,0.92067
379.805,43.21413,-3.13418,0.79843,0.91871
382.805,43.50099,-3.19258,0.51001,0.91674
385.805,43.78868,-3.21834,0.33037,0.91476
388.805,44.07754,-3.2351,0.2523,0.91276
391.805,44.36775,-3.23784,0.22486,0.91076
394.805,44.65807,-3.24317,0.21875,0.90875
397.805,44.94908,-3.24849,0.21633,0.90672
400.805,45.24064,-3.25244,0.21622,0.90469
403.805,45.5321,-3.2564,0.21609,0.90264
406.805,45.824,-3.25967,0.21886,0.90058
409.805,46.11623,-3.2636,0.21894,0.89852
412.805,46.40824,-3.2665,0.21673,0.89644
415.805,46.70041,-3.26912,0.21502,0.89435
418.805,46.9927,-3.27275,0.21647,0.89225
421.805,47.28383,-3.2767,0.21554,0.89014
424.805,47.57604,-3.28066,0.21904,0.88802
427.805,47.86851,-3.28329,0.21708,0.88589
430.805,48.1614,-3.28668,0.21998,0.88374
433.805,48.4544,-3.29152,0.21852,0.88159
436.805,48.74845,-3.29284,0.21618,0.87943
439.805,49.04237,-3.29811,0.21733,0.87725
442.805,49.33675,-3.30206,0.21908,0.87507
445.805,49.6306,-3.30432,0.21982,0.87288
448.805,49.92472,-3.30865,0.22178,0.87067
451.805,50.21819,-3.31179,0.2213,0.86846
454.805,50.51266,-3.31455,0.2224,0.86623
457.805,50.8068,-3.31721,0.22539,0.864
460.805,51.10069,-3.31985,0.22446,0.86175
463.805,51.3949,-3.32242,0.22994,0.8595
466.805,51.6892,-3.32512,0.22982,0.85723
469.805,51.98343,-3.32907,0.23259,0.85496
472.805,52.27799,-3.33321,0.23449,0.85267
475.805,52.57376,-3.33362,0.2368,0.85037
478.805,52.8699,-3.33796,0.23615,0.84807
481.805,53.1653,-3.33729,0.23759,0.84575
484.805,53.46085,-3.34125,0.24062,0.84343
487.805,53.75674,-3.34389,0.24453,0.84109
490.805,54.0525,-3.34652,0.24904,0.83875
493.805,54.3477,-3.34914,0.26096,0.83639
496.805,54.6433,-3.35113,0.2676,0.83403
499.805,54.939,-3.35245,0.27223,0.83166
502.805,55.23449,-3.35508,0.27098,0.82927
505.805,55.53086,-3.35772,0.27173,0.82688
508.805,55.82643,-3.35908,0.27272,0.82448
511.805,56.12231,-3.36102,0.27204,0.82207
514.805,56.4186,-3.3617,0.27164,0.81965
517.805,56.71501,-3.36431,0.2665,0.81722
520.805,57.0126,-3.36563,0.26471,0.81478
523.805,57.3096,-3.36595,0.25881,0.81233
526.805,57.60645,-3.36863,0.25082,0.80987
529.805,57.90405,-3.37143,0.2408,0.80741
532.805,58.20097,-3.37026,0.23577,0.80493
535.805,58.49853,-3.37188,0.23318,0.80245
538.805,58.7955,-3.37353,0.23012,0.79996
541.805,59.0928,-3.37518,0.22486,0.79746
544.805,59.39045,-3.37682,0.22454,0.79495
547.805,59.6882,-3.37714,0.22316,0.79243
550.805,59.98656,-3.37979,0.22096,0.7899
553.805,60.28399,-3.38011,0.22002,0.78737
556.805,60.5822,-3.38143,0.21924,0.78482
559.805,60.8808,-3.38144,0.21902,0.78227
562.805,61.17944,-3.38538,0.21993,0.77971
565.805,61.4767,-3.38539,0.22228,0.77714
568.805,61.77612,-3.38737,0.22473,0.77457
571.805,62.0746,-3.38803,0.22125,0.77198
574.805,62.3735,-3.38802,0.22171,0.76939
577.805,62.67261,-3.38934,0.22083,0.76679
580.805,62.97147,-3.39,0.21902,0.76418
583.805,63.2707,-3.38933,0.21945,0.76157
586.805,63.57068,-3.39065,0.2189,0.75895
589.805,63.87005,-3.39065,0.22193,0.75631
592.805,64.16955,-3.39363,0.22597,0.75368
595.805,64.46924,-3.39498,0.2317,0.75103
598.805,64.76833,-3.39527,0.23049,0.74838
601.805,65.06786,-3.39494,0.2318,0.74572
604.805,65.36793,-3.39626,0.23359,0.74305
607.805,65.6678,-3.39724,0.24073,0.74038
610.805,65.96776,-3.39855,0.24124,0.7377
613.805,66.26748,-3.3979,0.24097,0.73501
616.805,66.5676,-3.39922,0.24285,0.73232
619.805,66.8678,-3.40022,0.24281,0.72962
622.805,67.16853,-3.40053,0.24524,0.72691
625.805,67.46931,-3.40119,0.24495,0.7242
628.805,67.76997,-3.40284,0.25406,0.72148
631.805,68.07002,-3.40416,0.25741,0.71875
634.805,68.36978,-3.40416,0.26132,0.71602
637.805,68.67041,-3.40351,0.2664,0.71328
640.805,68.97086,-3.40614,0.27194,0.71054
643.805,69.2715,-3.40416,0.27758,0.70779
646.805,69.572,-3.40647,0.28152,0.70503
649.805,69.87271,-3.40603,0.28353,0.70227
652.805,70.1735,-3.40646,0.28321,0.6995
655.805,70.47444,-3.40709,0.28862,0.69673
658.805,70.77458,-3.40629,0.29178,0.69395
661.805,71.07723,-3.40866,0.29414,0.69117
664.805,71.37869,-3.41053,0.29383,0.68838
667.805,71.68045,-3.41151,0.29912,0.68559
670.805,71.98221,-3.41119,0.30199,0.68279
673.805,72.28358,-3.41142,0.30397,0.67999
676.805,72.5851,-3.41046,0.29833,0.67718
679.805,72.88694,-3.41009,0.30413,0.67436
682.805,73.1888,-3.41075,0.30513,0.67155
685.805,73.48959,-3.41208,0.31173,0.66873
688.805,73.79176,-3.4121,0.31337,0.6659
691.805,74.09439,-3.41084,0.31304,0.66307
694.805,74.39665,-3.41271,0.31296,0.66024
697.805,74.6982,-3.41177,0.31559,0.6574
700.805,75.00044,-3.41042,0.31616,0.65456
703.805,75.30226,-3.41207,0.32119,0.65171
706.805,75.60534,-3.41368,0.32243,0.64886
709.805,75.9075,-3.41106,0.32853,0.64601
712.805,76.21014,-3.41239,0.32504,0.64315
715.805,76.51302,-3.41141,0.32593,0.64029
718.805,76.8161,-3.41273,0.32896,0.63743
721.805,77.11837,-3.41273,0.3279,0.63456
724.805,77.42172,-3.41503,0.33187,0.63169
727.805,77.72465,-3.41503,0.3361,0.62882
730.805,78.02664,-3.41404,0.33538,0.62595
733.805,78.32949,-3.41437,0.33489,0.62307
736.805,78.6323,-3.41534,0.33948,0.62019
739.805,78.93669,-3.41569,0.3413,0.6173
742.805,79.23998,-3.41635,0.34552,0.61442
745.805,79.54442,-3.41667,0.34338,0.61153
748.805,79.84788,-3.41568,0.34646,0.60864
750.305,79.999,-3.41634,0.34946,0.6072