Folder: fsri_materials_database/01_Data/Bean_Bag_Chair_Outer_Cover/STA/N2/30K_min

Note: 01_Data/README.md
# Materials and Products Database
## 01_Data

Raw data generated from each apparatus are included here in plain-text format. The data is organized first by material, next by the short name of test apparatus used, and where applicable additional filtering by test settings.

### material.json

Each material directory contains a json file of the same name as the material. This file links the data stored in the repository as well as data and graphs produced by the accompanying scripts (__02_Scripts__) to the respective landing page for the material on the front-end website.

File: Bean_Bag_Cover_STA_N2_30KData_220512_R2.csv
##Temp./Â°C,Time/min,Mass loss(subtr.2)/mg,DSC(subtr.2)/(mW/mg),Sensit./(uV/mW)
48.571,10.00667,-0.0179,0.005170363,1.054
51.671,10.87595,-0.02015562,0.1314,1.05337
54.771,11.106,-0.01742907,0.23001,1.05271
57.871,11.28245,-0.02186507,0.30767,1.05204
60.971,11.43405,-0.02231526,0.37203,1.05136
64.071,11.57175,-0.02187695,0.42856,1.05065
67.171,11.70015,-0.02218638,0.47882,1.04993
70.271,11.823,-0.02377839,0.51987,1.04919
73.371,11.94007,-0.02502341,0.55995,1.04843
76.471,12.05636,-0.02384607,0.60067,1.04766
79.571,12.16902,-0.02620709,0.63393,1.04687
82.671,12.2798,-0.02547862,0.668,1.04606
85.771,12.38893,-0.02946973,0.70191,1.04523
88.871,12.49665,-0.02955681,0.73141,1.04439
91.971,12.60299,-0.03088144,0.7603,1.04353
95.071,12.70861,-0.0309295,0.78753,1.04266
98.171,12.81352,-0.03116422,0.81154,1.04177
101.271,12.9177,-0.03332964,0.83121,1.04086
104.371,13.0219,-0.03480985,0.84849,1.03993
107.471,13.1257,-0.03612005,0.86094,1.03899
110.571,13.2294,-0.03744411,0.86433,1.03804
113.671,13.3326,-0.03873237,0.86837,1.03706
116.771,13.43566,-0.04106,0.86502,1.03607
119.871,13.538,-0.04283961,0.8645,1.03507
122.971,13.64065,-0.04414,0.85207,1.03404
126.071,13.7425,-0.045459,0.84058,1.033
129.171,13.8438,-0.04481257,0.82683,1.03195
132.271,13.94465,-0.04777766,0.81588,1.03088
135.371,14.04495,-0.04841798,0.80716,1.0298
138.471,14.1452,-0.0483123,0.79916,1.02869
141.571,14.24458,-0.04831,0.79371,1.02758
144.671,14.3436,-0.04830999,0.79163,1.02644
147.771,14.4422,-0.04962991,0.79507,1.0253
150.871,14.54075,-0.05094002,0.79701,1.02413
153.971,14.6386,-0.04962,0.8,1.02296
157.071,14.73634,-0.05026259,0.80626,1.02176
160.171,14.8338,-0.04962,0.81224,1.02055
163.271,14.931,-0.0496011,0.81802,1.01933
166.371,15.0283,-0.04963006,0.82931,1.01809
169.471,15.12476,-0.04963,0.83611,1.01684
172.571,15.22153,-0.05099481,0.8453,1.01557
175.671,15.3178,-0.05095,0.85218,1.01429
178.771,15.4137,-0.05096798,0.86099,1.01299
181.871,15.50944,-0.05226,0.86997,1.01168
184.971,15.60474,-0.05225997,0.87505,1.01035
188.071,15.6999,-0.04939918,0.88464,1.00901
191.171,15.79485,-0.05094,0.8944,1.00765
194.271,15.8897,-0.05226026,0.90043,1.00628
197.371,15.98444,-0.05232088,0.91059,1.0049
200.471,16.07903,-0.05127,0.91823,1.0035
203.571,16.17325,-0.05126546,0.92712,1.00209
206.671,16.26761,-0.05225935,0.93496,1.00067
209.771,16.36175,-0.05390953,0.94389,0.99923
212.871,16.45589,-0.05390972,0.94849,0.99778
215.971,16.55,-0.05259,0.95502,0.99631
219.071,16.64406,-0.05259,0.96329,0.99483
222.171,16.73762,-0.05259,0.96899,0.99334
225.271,16.8319,-0.05258885,0.97462,0.99183
228.371,16.92556,-0.05524349,0.97976,0.99031
231.471,17.01928,-0.05490235,0.98629,0.98878
234.571,17.11275,-0.05655,0.99199,0.98723
237.671,17.2064,-0.05655,0.99571,0.98567
240.771,17.29999,-0.05655,1.00193,0.9841
243.871,17.39339,-0.05786,1.0066,0.98252
246.971,17.48682,-0.05951328,1.01095,0.98092
250.071,17.58022,-0.06181949,1.02314,0.97931
253.171,17.6735,-0.06280016,1.0285,0.97769
256.271,17.76681,-0.06312692,1.03696,0.97605
259.371,17.86015,-0.06576017,1.04414,0.9744
262.471,17.9536,-0.06708029,1.05305,0.97274
265.571,18.04668,-0.06971004,1.06143,0.97107
268.671,18.14009,-0.07234883,1.06755,0.96939
271.771,18.23321,-0.07608061,1.076,0.96769
274.871,18.3265,-0.07872108,1.08178,0.96598
277.971,18.41999,-0.07936813,1.08938,0.96426
281.071,18.51326,-0.08442044,1.09622,0.96253
284.171,18.60641,-0.08716566,1.10174,0.96079
287.271,18.70005,-0.09068307,1.10865,0.95904
290.371,18.79356,-0.09517942,1.11542,0.95727
293.471,18.88706,-0.1011,1.12227,0.95549
296.571,18.98064,-0.10666,1.13005,0.9537
299.671,19.07416,-0.11361,1.1385,0.9519
302.771,19.1679,-0.12067,1.14946,0.95009
305.871,19.2614,-0.12932,1.15631,0.94827
308.971,19.35501,-0.13908,1.17294,0.94644
312.071,19.4487,-0.14755,1.18707,0.94459
315.171,19.5425,-0.15781,1.20423,0.94274
318.271,19.63618,-0.17073,1.22656,0.94087
321.371,19.72993,-0.18369,1.25167,0.939
324.471,19.82348,-0.20161,1.28033,0.93711
327.571,19.91765,-0.21933,1.31819,0.93521
330.671,20.01161,-0.24072,1.36017,0.93331
333.771,20.1058,-0.26554,1.41164,0.93139
336.871,20.19979,-0.29404,1.47173,0.92946
339.971,20.2942,-0.32546,1.54676,0.92752
343.071,20.38839,-0.3623,1.64205,0.92558
346.171,20.48297,-0.40529,1.75856,0.92362
349.271,20.57769,-0.45732,1.90024,0.92165
352.371,20.6725,-0.51712,2.0724,0.91968
355.471,20.76732,-0.58611,2.28249,0.91769
358.571,20.8624,-0.66909,2.53026,0.91569
361.671,20.95784,-0.76662,2.81504,0.91369
364.771,21.05345,-0.88128,3.14216,0.91167
367.871,21.14909,-1.01527,3.49644,0.90965
370.971,21.24485,-1.17007,3.86989,0.90762
374.071,21.34098,-1.34417,4.23949,0.90558
377.171,21.4374,-1.53962,4.57992,0.90352
380.271,21.53376,-1.75103,4.84991,0.90146
383.371,21.63019,-1.97354,5.01442,0.8994
386.471,21.72661,-2.20191,5.05542,0.89732
389.571,21.82255,-2.42537,4.95554,0.89523
392.671,21.91897,-2.64204,4.70803,0.89314
395.771,22.0149,-2.84121,4.29966,0.89103
398.871,22.11039,-3.0176,3.70197,0.88892
401.971,22.2056,-3.16147,2.91392,0.8868
405.071,22.30061,-3.26692,2.01863,0.88468
408.171,22.39524,-3.33205,1.19842,0.88254
411.271,22.4895,-3.36351,0.61943,0.8804
414.371,22.58395,-3.37665,0.29737,0.87824
417.471,22.67905,-3.38384,0.13271,0.87608
420.571,22.77434,-3.38699,0.05541888,0.87392
423.671,22.86983,-3.392,0.01937992,0.87174
426.771,22.96571,-3.39647,-0.00242479,0.86956
429.871,23.0618,-3.40095,-0.01660762,0.86737
432.971,23.1583,-3.40559,-0.02580706,0.86517
436.071,23.2549,-3.40888,-0.02997921,0.86297
439.171,23.35162,-3.4117,-0.03624042,0.86075
442.271,23.44847,-3.41665,-0.04275233,0.85854
445.371,23.5456,-3.4201,-0.04690926,0.85631
448.471,23.64285,-3.42294,-0.04994489,0.85408
451.571,23.74,-3.42558,-0.05316503,0.85184
454.671,23.83751,-3.42797,-0.05790392,0.84959
457.771,23.93502,-3.43257,-0.06355377,0.84734
460.871,24.03292,-3.43685,-0.06562224,0.84508
463.971,24.1308,-3.44005,-0.06579258,0.84281
467.071,24.22857,-3.44309,-0.06722878,0.84054
470.171,24.32667,-3.44522,-0.0683733,0.83826
473.271,24.42483,-3.44785,-0.0681883,0.83597
476.371,24.52308,-3.44927,-0.07094584,0.83368
479.471,24.62124,-3.45313,-0.07026226,0.83138
482.571,24.71971,-3.45718,-0.07252793,0.82908
485.671,24.81825,-3.45933,-0.07051638,0.82677
488.771,24.91678,-3.46114,-0.07064334,0.82445
491.871,25.01526,-3.46258,-0.07043857,0.82213
494.971,25.1137,-3.46642,-0.06970029,0.8198
498.071,25.2127,-3.46905,-0.06640883,0.81747
501.171,25.31128,-3.47328,-0.06627982,0.81513
504.271,25.41023,-3.47531,-0.05998751,0.81278
507.371,25.50894,-3.47717,-0.06068665,0.81043
510.471,25.608,-3.47934,-0.05168732,0.80808
513.571,25.7071,-3.48189,-0.04924192,0.80572
516.671,25.80571,-3.4853,-0.0535403,0.80335
519.771,25.90539,-3.4879,-0.05473095,0.80098
522.871,26.00463,-3.48925,-0.05725555,0.79861
525.971,26.1039,-3.49058,-0.05561798,0.79623
529.071,26.20346,-3.49441,-0.05689998,0.79384
532.171,26.3029,-3.49494,-0.05657612,0.79145
535.271,26.4025,-3.49766,-0.05817901,0.78906
538.371,26.50191,-3.49879,-0.05002885,0.78666
541.471,26.60155,-3.50016,-0.04188555,0.78426
544.571,26.7014,-3.50254,-0.03456209,0.78185
547.671,26.80118,-3.5041,-0.03037143,0.77944
550.771,26.90118,-3.50549,-0.02884768,0.77702
553.871,27.00122,-3.50681,-0.03258311,0.7746
556.971,27.10122,-3.50813,-0.03465289,0.77218
560.071,27.20167,-3.51043,-0.03577868,0.76975
563.171,27.3019,-3.51033,-0.03882941,0.76732
566.271,27.40227,-3.51108,-0.0403436,0.76488
569.371,27.50275,-3.51373,-0.04557742,0.76244
572.471,27.60343,-3.51537,-0.04911515,0.75999
575.571,27.7039,-3.5177,-0.05265797,0.75755
578.671,27.80463,-3.51636,-0.05794887,0.7551
581.771,27.9055,-3.5177,-0.06310717,0.75264
584.871,28.006,-3.51768,-0.0668765,0.75018
587.971,28.10734,-3.52359,-0.07169204,0.74772
591.071,28.20815,-3.51976,-0.07453118,0.74526
594.171,28.3094,-3.52245,-0.07610997,0.74279
597.271,28.41064,-3.52376,-0.07881893,0.74032
600.371,28.5119,-3.52505,-0.07861964,0.73785
603.471,28.61325,-3.52503,-0.07972188,0.73537
606.571,28.71465,-3.52503,-0.08414541,0.73289
609.671,28.8163,-3.52635,-0.08348879,0.73041
612.771,28.9177,-3.52767,-0.08558409,0.72792
615.871,29.01932,-3.52898,-0.08705354,0.72544
618.971,29.12075,-3.52938,-0.08621789,0.72295
622.071,29.22227,-3.5303,-0.08771373,0.72045
625.171,29.3237,-3.53162,-0.08376175,0.71796
628.271,29.4253,-3.53162,-0.08532341,0.71546
631.371,29.52685,-3.53295,-0.08406911,0.71296
634.471,29.62827,-3.53491,-0.08154442,0.71046
637.571,29.73003,-3.53359,-0.07784632,0.70796
640.671,29.8317,-3.53491,-0.07823664,0.70545
643.771,29.93351,-3.53591,-0.07673848,0.70294
646.871,30.0351,-3.53503,-0.07615667,0.70043
649.971,30.13679,-3.53623,-0.07446117,0.69792
653.071,30.2385,-3.53755,-0.07181161,0.69541
656.171,30.34034,-3.53887,-0.0718,0.69289
659.271,30.4423,-3.53755,-0.07233783,0.69038
662.371,30.5442,-3.53886,-0.06947352,0.68786
665.471,30.6461,-3.54011,-0.0685411,0.68534
668.571,30.74782,-3.54004,-0.07117688,0.68282
671.671,30.85015,-3.54018,-0.06624446,0.6803
674.771,30.9519,-3.5415,-0.06657019,0.67777
677.871,31.0542,-3.54282,-0.06838059,0.67525
680.971,31.1566,-3.54314,-0.06848064,0.67272
684.071,31.259,-3.54345,-0.06903768,0.67019
687.171,31.3614,-3.54547,-0.06705832,0.66767
690.271,31.4638,-3.54545,-0.07058025,0.66514
693.371,31.56649,-3.54544,-0.07344083,0.66261
696.471,31.669,-3.5453,-0.07857309,0.66008
699.571,31.7717,-3.54513,-0.07955245,0.65755
702.671,31.87443,-3.54615,-0.07992502,0.65502
705.771,31.97703,-3.54809,-0.07902186,0.65248
708.871,32.07958,-3.54907,-0.0798142,0.64995
711.971,32.18237,-3.54776,-0.07875553,0.64742
715.071,32.28533,-3.54776,-0.07940449,0.64488
718.171,32.38807,-3.54943,-0.08050367,0.64235
721.271,32.49082,-3.54941,-0.0811787,0.63982
724.371,32.59357,-3.55073,-0.07580386,0.63728
727.471,32.69673,-3.55073,-0.07283735,0.63475
730.571,32.79957,-3.55205,-0.0742618,0.63221
733.671,32.9028,-3.55205,-0.07463079,0.62968
736.771,33.00587,-3.55202,-0.0696992,0.62715
739.871,33.10905,-3.55204,-0.07306814,0.62461
742.971,33.2123,-3.55204,-0.07280773,0.62208
746.071,33.31548,-3.55336,-0.07227158,0.61955
746.571,33.33243,-3.55336,-0.07310496,0.61914

File: Bean_Bag_Outer_Cover_STA_N2_30KData_220511_R1.csv
##Temp./Â°C,Time/min,Mass loss(subtr.2)/mg,DSC(subtr.2)/(mW/mg),Sensit./(uV/mW)
48.638,10.00667,-0.00626,0.01455093,1.05399
51.938,10.89349,-0.007812104,0.18828,1.05331
55.238,11.13069,-0.007818784,0.31276,1.05261
58.538,11.3123,-0.00683022,0.40684,1.0519
61.838,11.46974,-0.0059769,0.48454,1.05116
65.138,11.613,-0.006708491,0.55052,1.0504
68.438,11.74755,-0.006582165,0.60829,1.04963
71.738,11.8759,-0.00607357,0.66134,1.04883
75.038,12.00032,-0.007954062,0.70874,1.04802
78.338,12.12152,-0.00744766,0.75222,1.04718
81.638,12.24039,-0.008114917,0.79249,1.04633
84.938,12.35698,-0.008630545,0.82935,1.04546
88.238,12.4718,-0.008547551,0.86618,1.04457
91.538,12.58558,-0.01041705,0.89974,1.04366
94.838,12.69818,-0.01295244,0.9318,1.04273
98.138,12.80985,-0.01295966,0.95808,1.04178
101.438,12.92098,-0.01405167,0.97994,1.04081
104.738,13.0319,-0.0156041,1.00176,1.03982
108.038,13.14264,-0.0156037,1.01539,1.03882
111.338,13.2528,-0.01823063,1.02583,1.0378
114.638,13.36231,-0.01955,1.03274,1.03675
117.938,13.47233,-0.02086998,1.03513,1.03569
121.238,13.5815,-0.01988,1.0322,1.03462
124.538,13.6901,-0.01955781,1.03046,1.03352
127.838,13.79815,-0.02118713,1.02546,1.03241
131.138,13.9056,-0.01987401,1.02344,1.03127
134.438,14.0124,-0.02119,1.02192,1.03012
137.738,14.1189,-0.02250997,1.02286,1.02896
141.038,14.2248,-0.0235035,1.02452,1.02777
144.338,14.33009,-0.02394,1.02977,1.02657
147.638,14.435,-0.02396479,1.0392,1.02535
150.938,14.5396,-0.0229198,1.04733,1.02411
154.238,14.64365,-0.02394,1.05635,1.02285
157.538,14.74745,-0.02260022,1.07004,1.02158
160.838,14.8512,-0.02262,1.08259,1.02029
164.138,14.9544,-0.02129394,1.0928,1.01898
167.438,15.0576,-0.02228992,1.10975,1.01766
170.738,15.16024,-0.02131,1.12534,1.01632
174.038,15.26309,-0.02146051,1.13602,1.01496
177.338,15.36535,-0.02131,1.14728,1.01359
180.638,15.4674,-0.02131001,1.1571,1.0122
183.938,15.56879,-0.02262,1.16951,1.01079
187.238,15.67004,-0.02262,1.18056,1.00937
190.538,15.7713,-0.02262,1.19042,1.00793
193.838,15.87219,-0.02265853,1.20148,1.00648
197.138,15.9728,-0.0213,1.21231,1.00501
200.438,16.07306,-0.02130022,1.22358,1.00352
203.738,16.17379,-0.02262,1.23244,1.00202
207.038,16.27405,-0.02263247,1.24258,1.0005
210.338,16.37464,-0.02361001,1.25451,0.99896
213.638,16.47484,-0.02261955,1.26463,0.99741
216.938,16.5749,-0.02262122,1.27321,0.99585
220.238,16.675,-0.02262461,1.28172,0.99427
223.538,16.7747,-0.02493152,1.28886,0.99267
226.838,16.87463,-0.02525996,1.29731,0.99106
230.138,16.97427,-0.02394064,1.30029,0.98944
233.438,17.07401,-0.02394006,1.30664,0.9878
236.738,17.17351,-0.02525,1.31305,0.98614
240.038,17.27305,-0.02426,1.31729,0.98447
243.338,17.37229,-0.02427305,1.32504,0.98279
246.638,17.47213,-0.02690389,1.33215,0.98109
249.938,17.57157,-0.02949622,1.33599,0.97938
253.238,17.67083,-0.03088829,1.34133,0.97765
256.538,17.77016,-0.0322172,1.35104,0.97591
259.838,17.8694,-0.03212762,1.35518,0.97415
263.138,17.96865,-0.03549818,1.36651,0.97239
266.438,18.06782,-0.03832568,1.37258,0.9706
269.738,18.1668,-0.03963999,1.37864,0.96881
273.038,18.26625,-0.04226843,1.38137,0.967
276.338,18.36552,-0.04491856,1.38544,0.96517
279.638,18.46483,-0.04923246,1.38965,0.96333
282.938,18.56426,-0.05289521,1.39432,0.96148
286.238,18.6635,-0.05645667,1.39815,0.95962
289.538,18.7631,-0.05937777,1.40514,0.95775
292.838,18.8625,-0.06387949,1.41275,0.95586
296.138,18.96184,-0.06956133,1.41569,0.95395
299.438,19.0613,-0.07448442,1.42452,0.95204
302.738,19.16081,-0.08123487,1.43176,0.95011
306.038,19.26053,-0.09020235,1.44172,0.94817
309.338,19.36027,-0.09783931,1.45323,0.94622
312.638,19.45966,-0.10932,1.46606,0.94425
315.938,19.55945,-0.1195,1.48229,0.94228
319.238,19.65931,-0.13151,1.49844,0.94029
322.538,19.75871,-0.14597,1.52285,0.93829
325.838,19.8587,-0.16152,1.54988,0.93628
329.138,19.9583,-0.18087,1.58343,0.93425
332.438,20.05869,-0.20362,1.63153,0.93222
335.738,20.15879,-0.22846,1.688,0.93017
339.038,20.259,-0.25722,1.75607,0.92811
342.338,20.3593,-0.29152,1.84136,0.92604
345.638,20.4599,-0.33435,1.9461,0.92396
348.938,20.56052,-0.38166,2.08175,0.92186
352.238,20.6614,-0.43946,2.25067,0.91976
355.538,20.76238,-0.50726,2.4564,0.91765
358.838,20.86364,-0.58825,2.70479,0.91552
362.138,20.96511,-0.68425,2.99904,0.91339
365.438,21.06673,-0.80041,3.3388,0.91124
368.738,21.16844,-0.93789,3.71921,0.90908
372.038,21.27069,-1.09858,4.12615,0.90692
375.338,21.3731,-1.28376,4.53341,0.90474
378.638,21.47564,-1.48895,4.90312,0.90255
381.938,21.57834,-1.71481,5.19275,0.90035
385.238,21.6811,-1.95284,5.36419,0.89815
388.538,21.78397,-2.19404,5.38352,0.89593
391.838,21.88673,-2.43043,5.24075,0.8937
395.138,21.9892,-2.65587,4.89343,0.89146
398.438,22.09137,-2.85414,4.29991,0.88922
401.738,22.19302,-3.01653,3.42591,0.88696
405.038,22.29399,-3.13057,2.40317,0.8847
408.338,22.39518,-3.19353,1.49072,0.88242
411.638,22.4958,-3.21865,0.91512,0.88014
414.938,22.5967,-3.22989,0.6289,0.87785
418.238,22.69793,-3.23472,0.49262,0.87555
421.538,22.79971,-3.24124,0.43029,0.87324
424.838,22.90181,-3.24393,0.38913,0.87092
428.138,23.0043,-3.24949,0.36448,0.86859
431.438,23.1068,-3.25289,0.34689,0.86626
434.738,23.20926,-3.25539,0.33219,0.86392
438.038,23.31242,-3.25937,0.32123,0.86156
441.338,23.41546,-3.26135,0.30992,0.8592
444.638,23.5187,-3.26543,0.30037,0.85684
447.938,23.62203,-3.2683,0.28988,0.85446
451.238,23.72565,-3.27125,0.28231,0.85208
454.538,23.8293,-3.27505,0.27252,0.84969
457.838,23.9331,-3.27701,0.26923,0.84729
461.138,24.037,-3.28076,0.25925,0.84488
464.438,24.14105,-3.2845,0.25392,0.84247
467.738,24.24537,-3.28714,0.24648,0.84005
471.038,24.34956,-3.28844,0.24058,0.83762
474.338,24.45394,-3.29255,0.23384,0.83518
477.638,24.55848,-3.29536,0.23081,0.83274
480.938,24.66316,-3.29779,0.22481,0.83029
484.238,24.76784,-3.29976,0.22085,0.82783
487.538,24.8724,-3.30372,0.21619,0.82537
490.838,24.97702,-3.30404,0.21141,0.8229
494.138,25.08222,-3.30636,0.20861,0.82043
497.438,25.18736,-3.30822,0.20165,0.81794
500.738,25.29231,-3.31085,0.19795,0.81545
504.038,25.3973,-3.31348,0.1941,0.81296
507.338,25.5027,-3.31744,0.19331,0.81046
510.638,25.608,-3.31942,0.19334,0.80795
513.938,25.71334,-3.32073,0.18824,0.80544
517.238,25.819,-3.32337,0.18125,0.80292
520.538,25.92452,-3.32485,0.1758,0.8004
523.838,26.03021,-3.328,0.17071,0.79787
527.138,26.13607,-3.32995,0.16056,0.79533
530.438,26.24212,-3.33125,0.16006,0.79279
533.738,26.3479,-3.33394,0.16702,0.79024
537.038,26.45397,-3.33615,0.17822,0.78769
540.338,26.5601,-3.33654,0.1857,0.78514
543.638,26.66617,-3.33978,0.18689,0.78257
546.938,26.7724,-3.34181,0.18161,0.78001
550.238,26.8789,-3.34313,0.17811,0.77744
553.538,26.9854,-3.34313,0.1711,0.77486
556.838,27.09202,-3.34309,0.16189,0.77228
560.138,27.19868,-3.34423,0.15472,0.7697
563.438,27.30534,-3.345,0.14759,0.76711
566.738,27.4121,-3.3474,0.13397,0.76451
570.038,27.51913,-3.35005,0.11563,0.76191
573.338,27.62619,-3.35004,0.08565246,0.75931
576.638,27.7332,-3.35136,0.06262549,0.7567
579.938,27.84045,-3.35136,0.04478907,0.75409
583.238,27.94765,-3.354,0.02841698,0.75148
586.538,28.05495,-3.35536,0.009996072,0.74886
589.838,28.1624,-3.35794,-0.00789306,0.74624
593.138,28.26988,-3.35819,-0.02089483,0.74361
596.438,28.3772,-3.35926,-0.03437276,0.74098
599.738,28.48498,-3.36025,-0.04557943,0.73835
603.038,28.59252,-3.36189,-0.05809933,0.73572
606.338,28.7002,-3.36224,-0.06856112,0.73308
609.638,28.80811,-3.3619,-0.07737185,0.73044
612.938,28.91597,-3.36322,-0.091959,0.72779
616.238,29.0237,-3.36355,-0.1021,0.72514
619.538,29.1319,-3.36403,-0.11095,0.72249
622.838,29.23995,-3.36618,-0.12056,0.71984
626.138,29.3479,-3.3675,-0.12423,0.71718
629.438,29.456,-3.36887,-0.12551,0.71452
632.738,29.56434,-3.36882,-0.13239,0.71186
636.038,29.67241,-3.3708,-0.13812,0.70919
639.338,29.78074,-3.37211,-0.13827,0.70653
642.638,29.8891,-3.37061,-0.14239,0.70386
645.938,29.9976,-3.36953,-0.14466,0.70119
649.238,30.1062,-3.37212,-0.14337,0.69852
652.538,30.21463,-3.37343,-0.14809,0.69584
655.838,30.32292,-3.37343,-0.15193,0.69316
659.138,30.432,-3.37473,-0.15697,0.69048
662.438,30.54045,-3.37606,-0.15847,0.6878
665.738,30.6489,-3.37588,-0.15747,0.68512
669.038,30.75791,-3.37505,-0.1609,0.68244
672.338,30.8666,-3.37771,-0.15993,0.67975
675.638,30.97526,-3.37903,-0.15848,0.67707
678.938,31.08413,-3.37909,-0.15051,0.67438
682.238,31.1929,-3.37903,-0.14798,0.67169
685.538,31.30166,-3.38067,-0.14429,0.669
688.838,31.41047,-3.37998,-0.14043,0.66631
692.138,31.51936,-3.37869,-0.14011,0.66361
695.438,31.62824,-3.3787,-0.13438,0.66092
698.738,31.7373,-3.381,-0.13159,0.65823
702.038,31.8464,-3.37969,-0.13066,0.65553
705.338,31.9555,-3.37969,-0.12966,0.65284
708.638,32.06469,-3.38082,-0.12649,0.65014
711.938,32.17391,-3.38199,-0.12023,0.64744
715.238,32.28302,-3.38069,-0.12153,0.64475
718.538,32.3928,-3.38199,-0.11522,0.64205
721.838,32.5023,-3.38199,-0.11365,0.63935
725.138,32.61207,-3.38199,-0.11598,0.63666
728.438,32.7218,-3.38331,-0.11213,0.63396
731.738,32.8314,-3.38331,-0.11276,0.63126
735.038,32.94113,-3.38331,-0.11157,0.62856
738.338,33.0508,-3.38199,-0.11529,0.62587
741.638,33.16025,-3.38199,-0.10529,0.62317
744.938,33.27,-3.38463,-0.10459,0.62047
748.238,33.3799,-3.38561,-0.09928769,0.61778
751.538,33.48961,-3.38693,-0.09854653,0.61508
754.838,33.59963,-3.38693,-0.09290194,0.61238
758.138,33.70968,-3.38561,-0.09300683,0.60969
761.438,33.81975,-3.38594,-0.09150736,0.607
764.738,33.9295,-3.38693,-0.08770151,0.6043
768.038,34.0398,-3.38661,-0.08742695,0.60161
771.338,34.1501,-3.38693,-0.08641682,0.59892
774.638,34.2603,-3.38726,-0.08657222,0.59623
777.938,34.3705,-3.38889,-0.08140632,0.59354
781.238,34.48081,-3.38858,-0.0856014,0.59085
784.538,34.59089,-3.38858,-0.08069253,0.58816
787.838,34.7012,-3.3899,-0.08084857,0.58548
791.138,34.81157,-3.3887,-0.08203107,0.5828
794.438,34.92207,-3.38858,-0.07270115,0.58011
796.738,34.99906,-3.38989,-0.07093785,0.57824