Folder: fsri_materials_database/01_Data/Bean_Bag_Chair_Outer_Cover/STA/N2/30K_min (part 2)

File: Bean_Bag_Outer_Cover_STA_N2_30KData_220513_R3.csv
##Temp./Â°C,Time/min,Mass loss(subtr.2)/mg,DSC(subtr.2)/(mW/mg),Sensit./(uV/mW)
48.616,10.00667,-0.00099,0.01224438,1.05399
51.616,10.8668,-0.002201124,0.19484,1.05338
54.616,11.09332,-0.002311992,0.32413,1.05275
57.616,11.26549,-0.00284695,0.42928,1.0521
60.616,11.41532,-0.00367364,0.51876,1.05144
63.616,11.5498,-0.002541005,0.59664,1.05076
66.616,11.67567,-0.001921258,0.6632,1.05006
69.616,11.79545,-0.003351136,0.72568,1.04935
72.616,11.91014,-0.001612039,0.7821,1.04862
75.616,12.02259,-0.003739604,0.837,1.04787
78.616,12.13222,-0.00496101,0.88309,1.04711
81.616,12.24046,-0.004963653,0.92724,1.04634
84.616,12.3462,-0.005353555,0.97165,1.04554
87.616,12.45112,-0.007958529,1.0124,1.04474
90.616,12.55463,-0.009359039,1.05136,1.04391
93.616,12.6568,-0.01098906,1.08227,1.04307
96.616,12.75923,-0.01095107,1.11349,1.04222
99.616,12.8606,-0.01231077,1.1409,1.04135
102.616,12.96141,-0.014071,1.15978,1.04046
105.616,13.06194,-0.01653784,1.17723,1.03956
108.616,13.1624,-0.01819158,1.18703,1.03864
111.616,13.26273,-0.02014612,1.19228,1.03771
114.616,13.36258,-0.02221336,1.19554,1.03676
117.616,13.46224,-0.02201349,1.19089,1.0358
120.616,13.5617,-0.02329788,1.18804,1.03482
123.616,13.66051,-0.0235,1.18048,1.03383
126.616,13.759,-0.02448868,1.17216,1.03282
129.616,13.85723,-0.02482,1.16675,1.0318
132.616,13.95474,-0.02417158,1.16238,1.03076
135.616,14.05176,-0.02548084,1.1605,1.02971
138.616,14.1486,-0.02678994,1.1609,1.02864
141.616,14.24474,-0.02612889,1.16287,1.02756
144.616,14.3406,-0.02711994,1.16697,1.02647
147.616,14.4362,-0.0257979,1.17734,1.02535
150.616,14.5315,-0.02613,1.18639,1.02423
153.616,14.6264,-0.02744495,1.19589,1.02309
156.616,14.72088,-0.02744652,1.20796,1.02194
159.616,14.81512,-0.02613999,1.218,1.02077
162.616,14.9092,-0.02713255,1.23113,1.01959
165.616,15.0033,-0.02729416,1.24437,1.01839
168.616,15.0972,-0.02626765,1.25781,1.01718
171.616,15.1904,-0.02746837,1.27109,1.01596
174.616,15.28401,-0.02608851,1.28164,1.01472
177.616,15.37698,-0.02745,1.29461,1.01347
180.616,15.46981,-0.02646114,1.30856,1.01221
183.616,15.56231,-0.02646001,1.31867,1.01093
186.616,15.6547,-0.02612791,1.32931,1.00964
189.616,15.74642,-0.02481007,1.34154,1.00834
192.616,15.838,-0.02612965,1.35362,1.00702
195.616,15.9302,-0.02481,1.3647,1.00569
198.616,16.02155,-0.02480996,1.37618,1.00434
201.616,16.11301,-0.0258,1.38812,1.00298
204.616,16.20409,-0.02579491,1.39802,1.00161
207.616,16.29573,-0.02448,1.40975,1.00023
210.616,16.38664,-0.02447989,1.4203,0.99883
213.616,16.47788,-0.02673445,1.431,0.99742
216.616,16.56875,-0.02679,1.44051,0.996
219.616,16.65982,-0.02679,1.44963,0.99457
222.616,16.75039,-0.02679,1.45859,0.99312
225.616,16.84137,-0.02810584,1.46694,0.99166
228.616,16.93202,-0.02811115,1.47337,0.99019
231.616,17.0227,-0.02536939,1.48404,0.98871
234.616,17.11334,-0.02943089,1.48951,0.98721
237.616,17.20382,-0.0311639,1.49694,0.9857
240.616,17.29435,-0.03019,1.50501,0.98418
243.616,17.38476,-0.03019003,1.51189,0.98265
246.616,17.47514,-0.03150992,1.51813,0.9811
249.616,17.56551,-0.03414533,1.52747,0.97955
252.616,17.6558,-0.03548137,1.53903,0.97798
255.616,17.74602,-0.03575618,1.54807,0.9764
258.616,17.8363,-0.03842493,1.55551,0.97481
261.616,17.92657,-0.03974969,1.56749,0.9732
264.616,18.01689,-0.04239759,1.57789,0.97159
267.616,18.10684,-0.04369971,1.58429,0.96996
270.616,18.19716,-0.04668539,1.59616,0.96833
273.616,18.28741,-0.04929737,1.60317,0.96668
276.616,18.37787,-0.05101989,1.61012,0.96502
279.616,18.46823,-0.05438139,1.6153,0.96335
282.616,18.55868,-0.05786212,1.62526,0.96167
285.616,18.6491,-0.06239705,1.63279,0.95997
288.616,18.73955,-0.06839628,1.63981,0.95827
291.616,18.8299,-0.07183567,1.64728,0.95656
294.616,18.92053,-0.07713733,1.65495,0.95483
297.616,19.01114,-0.08119139,1.66501,0.9531
300.616,19.1018,-0.08618215,1.675,0.95135
303.616,19.19238,-0.09421123,1.68546,0.9496
306.616,19.2831,-0.10302,1.69875,0.94783
309.616,19.3738,-0.11235,1.71203,0.94605
312.616,19.4645,-0.12062,1.72858,0.94427
315.616,19.55535,-0.13079,1.74845,0.94247
318.616,19.6461,-0.14415,1.77093,0.94066
321.616,19.73685,-0.15726,1.79508,0.93885
324.616,19.82781,-0.17235,1.82777,0.93702
327.616,19.9187,-0.19095,1.86324,0.93519
330.616,20.00991,-0.21148,1.91239,0.93334
333.616,20.1009,-0.23553,1.96706,0.93149
336.616,20.19214,-0.26104,2.03249,0.92962
339.616,20.28354,-0.29007,2.11773,0.92775
342.616,20.37489,-0.32504,2.21671,0.92586
345.616,20.46636,-0.36577,2.3395,0.92397
348.616,20.5581,-0.41352,2.4919,0.92207
351.616,20.64987,-0.46799,2.67766,0.92016
354.616,20.74178,-0.53431,2.90206,0.91824
357.616,20.83394,-0.61129,3.16519,0.91631
360.616,20.9263,-0.70256,3.46926,0.91437
363.616,21.0187,-0.81132,3.81723,0.91243
366.616,21.11103,-0.93699,4.19569,0.91047
369.616,21.20393,-1.08327,4.60388,0.90851
372.616,21.2971,-1.25143,5.0105,0.90653
375.616,21.39025,-1.4381,5.38419,0.90455
378.616,21.48359,-1.64249,5.67609,0.90256
381.616,21.57682,-1.85701,5.84664,0.90057
384.616,21.67012,-2.07831,5.87272,0.89856
387.616,21.76274,-2.29596,5.74749,0.89655
390.616,21.85651,-2.50829,5.45813,0.89453
393.616,21.94939,-2.69828,4.99755,0.8925
396.616,22.04192,-2.8688,4.34612,0.89046
399.616,22.1342,-3.0048,3.5179,0.88841
402.616,22.22605,-3.10437,2.60583,0.88636
405.616,22.31762,-3.16504,1.79064,0.8843
408.616,22.4091,-3.19683,1.20537,0.88223
411.616,22.50074,-3.21143,0.86489,0.88016
414.616,22.5925,-3.21828,0.69117,0.87807
417.616,22.68458,-3.22296,0.60648,0.87598
420.616,22.7771,-3.22709,0.56583,0.87389
423.616,22.8695,-3.23013,0.54163,0.87178
426.616,22.96261,-3.23458,0.52695,0.86967
429.616,23.0557,-3.23641,0.51892,0.86755
432.616,23.14912,-3.23774,0.51253,0.86542
435.616,23.24259,-3.24034,0.50956,0.86329
438.616,23.33625,-3.24331,0.50498,0.86115
441.616,23.42999,-3.24712,0.50481,0.85901
444.616,23.524,-3.25123,0.50455,0.85685
447.616,23.618,-3.25383,0.50253,0.85469
450.616,23.71221,-3.25751,0.49778,0.85253
453.616,23.80613,-3.25926,0.49685,0.85035
456.616,23.90082,-3.26211,0.49704,0.84818
459.616,23.9953,-3.26376,0.49346,0.84599
462.616,24.08983,-3.26785,0.49172,0.8438
465.616,24.18436,-3.27045,0.49173,0.8416
468.616,24.27913,-3.27309,0.49337,0.8394
471.616,24.37412,-3.27571,0.492,0.83719
474.616,24.46901,-3.27835,0.49117,0.83498
477.616,24.56403,-3.28091,0.49174,0.83276
480.616,24.65924,-3.28231,0.49361,0.83053
483.616,24.75463,-3.28474,0.49506,0.8283
486.616,24.8497,-3.28798,0.49624,0.82606
489.616,24.9453,-3.29166,0.49714,0.82382
492.616,25.04056,-3.29323,0.4997,0.82157
495.616,25.13607,-3.2956,0.50182,0.81931
498.616,25.23166,-3.29833,0.50744,0.81706
501.616,25.32742,-3.30137,0.50768,0.81479
504.616,25.4233,-3.3036,0.5138,0.81252
507.616,25.51886,-3.30493,0.51524,0.81025
510.616,25.61468,-3.30755,0.521,0.80797
513.616,25.71066,-3.30922,0.52216,0.80568
516.616,25.80657,-3.31195,0.51992,0.8034
519.616,25.90237,-3.31458,0.51882,0.8011
522.616,25.9987,-3.3159,0.51919,0.7988
525.616,26.09524,-3.31835,0.51997,0.7965
528.616,26.19125,-3.31985,0.51968,0.79419
531.616,26.28765,-3.32224,0.52314,0.79188
534.616,26.38397,-3.32263,0.52661,0.78957
537.616,26.48047,-3.32446,0.52942,0.78725
540.616,26.5769,-3.32491,0.53432,0.78492
543.616,26.67362,-3.32743,0.5369,0.78259
546.616,26.77017,-3.32996,0.54547,0.78026
549.616,26.86685,-3.33006,0.54989,0.77792
552.616,26.96371,-3.33404,0.55355,0.77558
555.616,27.0606,-3.3327,0.55484,0.77324
558.616,27.1579,-3.33612,0.55394,0.77089
561.616,27.25505,-3.33665,0.55175,0.76854
564.616,27.3522,-3.33764,0.55378,0.76618
567.616,27.44936,-3.33863,0.55236,0.76382
570.616,27.5467,-3.33863,0.55082,0.76146
573.616,27.64398,-3.33949,0.55282,0.75909
576.616,27.74165,-3.34247,0.55259,0.75672
579.616,27.83925,-3.34258,0.55104,0.75435
582.616,27.9369,-3.34256,0.54862,0.75197
585.616,28.0344,-3.3446,0.54967,0.74959
588.616,28.13212,-3.3462,0.54525,0.74721
591.616,28.2299,-3.3462,0.54612,0.74483
594.616,28.3277,-3.34752,0.54485,0.74244
597.616,28.4254,-3.34918,0.54507,0.74005
600.616,28.5231,-3.34917,0.54391,0.73765
603.616,28.62097,-3.35182,0.54257,0.73525
606.616,28.719,-3.3518,0.5407,0.73286
609.616,28.817,-3.35125,0.53924,0.73045
612.616,28.91507,-3.35245,0.53933,0.72805
615.616,29.01312,-3.3551,0.53826,0.72564
618.616,29.11112,-3.35512,0.54094,0.72323
621.616,29.2094,-3.3564,0.54353,0.72082
624.616,29.30769,-3.35641,0.54721,0.71841
627.616,29.40578,-3.35707,0.54865,0.71599
630.616,29.50412,-3.35707,0.55273,0.71357
633.616,29.60262,-3.35849,0.55651,0.71115
636.616,29.70109,-3.3585,0.55537,0.70873
639.616,29.7996,-3.36113,0.55717,0.7063
642.616,29.89793,-3.36245,0.55983,0.70388
645.616,29.99646,-3.36113,0.55775,0.70145
648.616,30.0951,-3.3621,0.56447,0.69902
651.616,30.19352,-3.36245,0.56424,0.69659
654.616,30.29209,-3.36244,0.57081,0.69415
657.616,30.39072,-3.36377,0.57515,0.69172
660.616,30.4893,-3.36377,0.57775,0.68928
663.616,30.5881,-3.36508,0.58231,0.68685
666.616,30.6865,-3.3664,0.58649,0.68441
669.616,30.78541,-3.3664,0.58909,0.68197
672.616,30.88438,-3.36772,0.5895,0.67953
675.616,30.98335,-3.36706,0.58646,0.67708
678.616,31.08238,-3.36838,0.58866,0.67464
681.616,31.1814,-3.36838,0.58898,0.6722
684.616,31.2804,-3.37002,0.59191,0.66975
687.616,31.3794,-3.37002,0.5963,0.6673
690.616,31.47853,-3.37068,0.59669,0.66486
693.616,31.57753,-3.37134,0.6016,0.66241
696.616,31.67675,-3.37002,0.60156,0.65996
699.616,31.77582,-3.37119,0.59968,0.65751
702.616,31.8752,-3.37134,0.59762,0.65506
705.616,31.9745,-3.37265,0.59982,0.65261
708.616,32.0739,-3.37265,0.60663,0.65016
711.616,32.17331,-3.37265,0.608,0.64771
714.616,32.27298,-3.37267,0.6129,0.64526
717.616,32.3726,-3.37266,0.61388,0.6428
720.616,32.47218,-3.37266,0.61571,0.64035
723.616,32.57179,-3.37398,0.61802,0.6379
726.616,32.6715,-3.37464,0.62069,0.63545
729.616,32.7714,-3.37464,0.62076,0.633
732.616,32.87097,-3.37726,0.62249,0.63054
735.616,32.9707,-3.37773,0.62611,0.62809
738.616,33.0704,-3.37727,0.6279,0.62564
741.616,33.17055,-3.37693,0.62994,0.62319
744.616,33.2703,-3.37727,0.63157,0.62073
746.416,33.3304,-3.37727,0.63062,0.61926