Folder: fsri_materials_database/01_Data/Bean_Bag_Chair_Outer_Cover/STA/N2/3K_min

Note: 01_Data/README.md
# Materials and Products Database
## 01_Data

Raw data generated from each apparatus are included here in plain-text format. The data is organized first by material, next by the short name of test apparatus used, and where applicable additional filtering by test settings.

### material.json

Each material directory contains a json file of the same name as the material. This file links the data stored in the repository as well as data and graphs produced by the accompanying scripts (__02_Scripts__) to the respective landing page for the material on the front-end website.

File: Bean_Bag_Outer_Cover_STA_N2_3KData_220512_R1.csv
##Temp./Â°C,Time/min,Mass loss(subtr.2)/mg,DSC(subtr.2)/(mW/mg),Sensit./(uV/mW)
50.234,10.01667,-0.00856,0.03265646,1.05675
53.334,12.2799,-0.007952279,0.09488564,1.0564
56.434,13.45263,-0.007834662,0.10742,1.05603
59.534,14.5613,-0.009049499,0.11692,1.05565
62.634,15.6402,-0.01190487,0.12513,1.05526
65.734,16.69239,-0.01091188,0.13284,1.05485
68.834,17.74195,-0.0139151,0.1351,1.05443
71.934,18.7831,-0.01426201,0.13751,1.05399
75.034,19.81915,-0.01785207,0.13795,1.05353
78.134,20.855,-0.01846894,0.13542,1.05306
81.234,21.89237,-0.02183999,0.1321,1.05257
84.334,22.92616,-0.02184,0.13288,1.05207
87.434,23.954,-0.02447524,0.12941,1.05155
90.534,24.98594,-0.02537935,0.1246,1.05101
93.634,26.02402,-0.0267884,0.12236,1.05046
96.734,27.04703,-0.02753593,0.12437,1.0499
99.834,28.0708,-0.02670965,0.11959,1.04932
102.934,29.09505,-0.02535816,0.12218,1.04872
106.034,30.1215,-0.02625608,0.12406,1.0481
109.134,31.1449,-0.02481,0.1233,1.04747
112.234,32.17102,-0.02579005,0.12336,1.04682
115.334,33.19171,-0.02608436,0.12365,1.04616
118.434,34.21468,-0.02548965,0.12153,1.04548
121.534,35.23483,-0.02448096,0.12476,1.04478
124.634,36.25553,-0.02525998,0.12565,1.04407
127.734,37.27515,-0.02424111,0.12705,1.04334
130.834,38.28958,-0.0234898,0.12927,1.0426
133.934,39.30729,-0.02479999,0.12829,1.04183
137.034,40.3279,-0.02446148,0.13101,1.04106
140.134,41.34729,-0.02245342,0.13386,1.04026
143.234,42.35937,-0.02349,0.13623,1.03945
146.334,43.37109,-0.02116179,0.13429,1.03862
149.434,44.3842,-0.02315962,0.13629,1.03777
152.534,45.39877,-0.02380761,0.13871,1.03691
155.634,46.4105,-0.0228228,0.13718,1.03603
158.734,47.42216,-0.02381999,0.13859,1.03513
161.834,48.43838,-0.02269014,0.14489,1.03421
164.934,49.45104,-0.02275471,0.14462,1.03328
168.034,50.46651,-0.02206004,0.14491,1.03233
171.134,51.47768,-0.02069771,0.14935,1.03137
174.234,52.48445,-0.02271947,0.14885,1.03038
177.334,53.4978,-0.02205064,0.14711,1.02938
180.434,54.51,-0.02107093,0.15207,1.02836
183.534,55.51951,-0.02073933,0.15077,1.02733
186.634,56.52929,-0.02211619,0.1523,1.02627
189.734,57.5381,-0.02073676,0.1548,1.0252
192.834,58.54665,-0.02172853,0.15841,1.02412
195.934,59.55,-0.02139972,0.15827,1.02301
199.034,60.5601,-0.02272,0.16112,1.02189
202.134,61.56414,-0.02503514,0.164,1.02075
205.234,62.5671,-0.0240439,0.16464,1.01959
208.334,63.57461,-0.0250638,0.16569,1.01841
211.434,64.58095,-0.02700654,0.16571,1.01722
214.534,65.58803,-0.02799013,0.16852,1.01601
217.634,66.59025,-0.02861506,0.17076,1.01478
220.734,67.59428,-0.03062,0.17098,1.01353
223.834,68.59989,-0.03160463,0.17249,1.01226
226.934,69.60589,-0.03358737,0.17477,1.01098
230.034,70.612,-0.03489768,0.17606,1.00968
233.134,71.619,-0.03897718,0.1741,1.00836
236.234,72.6256,-0.04146237,0.17561,1.00702
239.334,73.63356,-0.04511053,0.1777,1.00567
242.434,74.63902,-0.04817656,0.17757,1.0043
245.534,75.63999,-0.05299998,0.18355,1.0029
248.634,76.64447,-0.05663033,0.1831,1.0015
251.734,77.65089,-0.05961184,0.18581,1.00007
254.834,78.6514,-0.06653591,0.18857,0.99862
257.934,79.65722,-0.07381523,0.18967,0.99716
261.034,80.66355,-0.0813348,0.19131,0.99568
264.134,81.66747,-0.08826209,0.19415,0.99418
267.234,82.6738,-0.09851781,0.19703,0.99267
270.334,83.67936,-0.10749,0.19997,0.99113
273.434,84.6854,-0.11918,0.20529,0.98958
276.534,85.6939,-0.13093,0.2095,0.98801
279.634,86.70281,-0.14589,0.21186,0.98642
282.734,87.7089,-0.16157,0.21213,0.98481
285.834,88.7149,-0.18038,0.20856,0.98319
288.934,89.72386,-0.2028,0.21279,0.98154
292.034,90.73065,-0.22586,0.21936,0.97988
295.134,91.74116,-0.25508,0.2245,0.9782
298.234,92.7508,-0.28765,0.23574,0.9765
301.334,93.759,-0.32349,0.24458,0.97479
304.434,94.7659,-0.36598,0.25649,0.97306
307.534,95.7731,-0.41833,0.26977,0.97131
310.634,96.78317,-0.47699,0.29264,0.96954
313.734,97.79404,-0.54825,0.31318,0.96775
316.834,98.8073,-0.63602,0.34498,0.96594
319.934,99.81828,-0.73827,0.38272,0.96412
323.034,100.823,-0.86092,0.42719,0.96228
326.134,101.833,-1.00912,0.47779,0.96042
329.234,102.8482,-1.18836,0.53211,0.95854
332.334,103.864,-1.39502,0.58659,0.95665
335.434,104.881,-1.62988,0.62841,0.95474
338.534,105.9008,-1.88723,0.64966,0.95281
341.634,106.916,-2.14775,0.64426,0.95086
344.734,107.922,-2.40192,0.61398,0.9489
347.834,108.9305,-2.64165,0.5648,0.94691
350.934,109.943,-2.85165,0.48685,0.94491
354.034,110.951,-3.02197,0.38983,0.94289
357.134,111.956,-3.1409,0.2748,0.94086
360.234,112.965,-3.20591,0.18016,0.9388
363.334,113.9791,-3.23802,0.12534,0.93673
366.434,114.992,-3.25032,0.10822,0.93465
369.534,116.005,-3.25738,0.11,0.93254
372.634,117.023,-3.26396,0.10745,0.93042
375.734,118.041,-3.26828,0.10588,0.92828
378.834,119.057,-3.27464,0.10361,0.92612
381.934,120.075,-3.27646,0.10169,0.92395
385.034,121.09,-3.27946,0.10015,0.92176
388.134,122.1082,-3.28385,0.10025,0.91955
391.234,123.126,-3.28851,0.09894713,0.91732
394.334,124.1479,-3.29205,0.09670758,0.91508
397.434,125.164,-3.29584,0.09688366,0.91282
400.534,126.184,-3.30052,0.09427592,0.91055
403.634,127.206,-3.30414,0.09299186,0.90826
406.734,128.227,-3.30744,0.09269236,0.90595
409.834,129.245,-3.31167,0.0980477,0.90362
412.934,130.266,-3.31368,0.09917095,0.90128
416.034,131.287,-3.31868,0.1017,0.89892
419.134,132.304,-3.32178,0.09881413,0.89655
422.234,133.323,-3.32544,0.10117,0.89416
425.334,134.342,-3.32986,0.10024,0.89175
428.434,135.368,-3.33236,0.10381,0.88933
431.534,136.39,-3.33498,0.0998075,0.88689
434.634,137.412,-3.33878,0.09976939,0.88443
437.734,138.433,-3.34256,0.10004,0.88196
440.834,139.453,-3.34652,0.0992977,0.87948
443.934,140.476,-3.34981,0.10674,0.87697
447.034,141.5017,-3.3537,0.10487,0.87446
450.134,142.527,-3.35607,0.10698,0.87192
453.234,143.548,-3.35805,0.10473,0.86937
456.334,144.574,-3.36129,0.10224,0.86681
459.434,145.599,-3.36197,0.10624,0.86423
462.534,146.621,-3.36536,0.10584,0.86164
465.634,147.648,-3.36826,0.10318,0.85903
468.734,148.678,-3.37012,0.10301,0.85641
471.834,149.7025,-3.37252,0.10348,0.85377
474.934,150.725,-3.37385,0.10066,0.85112
478.034,151.754,-3.37484,0.09934549,0.84845
481.134,152.785,-3.37814,0.09840222,0.84577
484.234,153.815,-3.37978,0.09825182,0.84307
487.334,154.839,-3.38076,0.09803426,0.84036
490.434,155.87,-3.38308,0.09153705,0.83764
493.534,156.895,-3.38255,0.09209841,0.8349
496.634,157.9245,-3.3854,0.09050102,0.83215
499.734,158.957,-3.38635,0.09432775,0.82938
502.834,159.987,-3.38735,0.09324298,0.8266
505.934,161.015,-3.38834,0.09142466,0.82381
509.034,162.044,-3.38929,0.09251091,0.821
512.134,163.077,-3.39083,0.08966067,0.81818
515.234,164.108,-3.39069,0.09075171,0.81535
518.334,165.14,-3.39343,0.08875507,0.8125
521.434,166.171,-3.39428,0.08603973,0.80965
524.534,167.203,-3.39494,0.08817904,0.80678
527.634,168.2329,-3.39459,0.08768045,0.80389
530.734,169.26,-3.39625,0.083545,0.801
533.834,170.296,-3.39856,0.08633193,0.79809
536.934,171.333,-3.39859,0.08534936,0.79517
540.034,172.367,-3.39987,0.08755715,0.79224
543.134,173.398,-3.39787,0.08491109,0.78929
546.234,174.43,-3.4009,0.08400129,0.78634
549.334,175.4705,-3.40053,0.08348901,0.78337
552.434,176.504,-3.40216,0.08392174,0.78039
555.534,177.539,-3.40153,0.08298046,0.7774
558.634,178.576,-3.40392,0.08005863,0.7744
561.734,179.6084,-3.40416,0.07915692,0.77139
564.834,180.644,-3.40416,0.08151375,0.76836
567.934,181.684,-3.4065,0.08263016,0.76533
571.034,182.717,-3.40548,0.0802587,0.76229
574.134,183.752,-3.40607,0.08302716,0.75923
577.234,184.792,-3.40646,0.08057471,0.75617
580.334,185.829,-3.40746,0.08389996,0.75309
583.434,186.859,-3.40778,0.08328673,0.75001
586.534,187.894,-3.40947,0.08346364,0.74691
589.634,188.93,-3.41041,0.08518649,0.74381
592.734,189.968,-3.41202,0.08573714,0.7407
595.834,191.005,-3.4114,0.08116717,0.73757
598.934,192.0402,-3.41104,0.08658506,0.73444
602.034,193.077,-3.41275,0.08903804,0.7313
605.134,194.115,-3.41272,0.08831722,0.72815
608.234,195.156,-3.41273,0.0930966,0.725
611.334,196.199,-3.41271,0.092564,0.72183
614.434,197.236,-3.41472,0.09727475,0.71865
617.534,198.271,-3.41402,0.09341377,0.71547
620.634,199.312,-3.41535,0.09536457,0.71228
623.734,200.354,-3.4139,0.0924668,0.70908
626.834,201.396,-3.41485,0.09143259,0.70588
629.934,202.4371,-3.41404,0.09372219,0.70266
633.034,203.4778,-3.41615,0.09235859,0.69944
636.134,204.518,-3.41667,0.08768917,0.69621
639.234,205.553,-3.41634,0.08784393,0.69298
642.334,206.601,-3.41699,0.08656411,0.68974
645.434,207.643,-3.41898,0.08877651,0.68649
648.534,208.679,-3.41964,0.08443823,0.68323
651.634,209.721,-3.41894,0.08777426,0.67997
654.734,210.763,-3.42128,0.07991622,0.67671
657.834,211.805,-3.4202,0.08727346,0.67343
660.934,212.846,-3.42183,0.08485296,0.67016
664.034,213.8892,-3.42364,0.0865741,0.66687
667.134,214.932,-3.42562,0.09066711,0.66358
670.234,215.972,-3.42653,0.09055116,0.66029
673.334,217.013,-3.42525,0.08799013,0.65699
676.434,218.063,-3.42458,0.08819226,0.65369
679.534,219.111,-3.42524,0.08853445,0.65038
682.634,220.151,-3.42688,0.0920324,0.64706
685.734,221.193,-3.4261,0.09126358,0.64375
688.834,222.235,-3.42754,0.0906174,0.64042
691.934,223.281,-3.42885,0.09390709,0.6371
695.034,224.327,-3.42787,0.09342702,0.63377
698.134,225.375,-3.42849,0.09204624,0.63044
701.234,226.419,-3.42913,0.09011505,0.6271
704.334,227.462,-3.42992,0.09304861,0.62376
707.434,228.508,-3.42951,0.09311626,0.62042
710.534,229.551,-3.43084,0.09886752,0.61708
713.634,230.596,-3.43018,0.09652656,0.61373
716.734,231.639,-3.43085,0.10163,0.61038
719.834,232.692,-3.43132,0.10164,0.60703
722.934,233.738,-3.42919,0.0942578,0.60367
726.034,234.7834,-3.43138,0.08451546,0.60032
729.134,235.83,-3.43104,0.08920064,0.59696
732.234,236.882,-3.43204,0.09098729,0.5936
735.334,237.931,-3.34102,0.08959775,0.59024
738.434,238.972,-3.3421,0.08470132,0.58688
741.534,240.017,-3.34279,0.08215378,0.58351
744.634,241.068,-3.34278,0.08179598,0.58015
747.734,242.119,-3.34443,0.07562869,0.57679
750.834,243.163,-3.34441,0.07652123,0.57342
751.334,243.332,-3.34509,0.07444823,0.57288