Folder: fsri_materials_database/01_Data/Pine_Lap_Siding_Paint/MCC

Note: 01_Data/README.md
# Materials and Products Database
## 01_Data

Raw data generated from each apparatus are included here in plain-text format. The data is organized first by material, next by the short name of test apparatus used, and where applicable additional filtering by test settings.

### material.json

Each material directory contains a json file of the same name as the material. This file links the data stored in the repository as well as data and graphs produced by the accompanying scripts (__02_Scripts__) to the respective landing page for the material on the front-end website.

File: Pine_Lap_Siding_Paint_MCC_30K_min_211122_O2.txt
Sample ID:	C:\MCC\MCC Cal\Test\PineLap_SidingA_MCC_30K_min_211122_R2.txt
Sample Weight (mg):	4.84
Heating Rate (C/s):	0.5
Combustor Temp (C):	900
N2 Flow Rate (cc/min):	80
O2 Flow Rate (cc/min):	20
Calibration File:	C:\MCC\MCC Cal\Coeff1 JN10440_30_210304.txt.txt
T Correction Coefficients:	0	1.024463	0
Time Shift (s):	14
*
Time (s)	Temperature (C)	N2 flow rate (cc/min)	O2 flow rate (cc/min)	Flow Rate (cc/min)	Oxygen (%)	HRR (W/g)	Heating rate (C/s)
-0.001	106.661	80.009	19.994	103.129	20.009	-0.140	-0.024
8.000	106.683	80.006	19.995	103.125	20.014	-0.446	-0.023
16.000	106.707	80.009	19.991	103.140	20.009	-0.154	0.005
24.000	106.772	80.008	19.996	103.186	19.994	0.856	0.041
32.000	107.089	80.011	19.993	103.296	19.973	2.236	0.059
40.000	107.949	80.011	19.993	103.346	19.967	2.639	0.131
48.000	109.263	80.009	19.996	103.335	19.965	2.784	0.160
55.999	111.031	80.002	19.989	103.354	19.965	2.813	0.254
64.000	113.068	80.007	19.996	103.374	19.959	3.202	0.274
71.999	115.459	80.008	19.994	103.372	19.960	3.120	0.332
80.000	118.073	80.005	19.995	103.383	19.956	3.382	0.323
87.999	120.976	80.005	19.995	103.384	19.958	3.282	0.372
95.999	124.116	80.004	19.996	103.380	19.947	3.970	0.422
104.001	127.409	80.004	19.999	103.427	19.949	3.853	0.440
112.000	130.862	80.005	19.988	103.376	19.947	4.034	0.463
120.000	134.390	80.008	19.996	103.411	19.951	3.765	0.403
127.999	138.106	80.010	19.994	103.415	19.948	3.951	0.491
136.000	141.890	80.007	19.995	103.389	19.950	3.771	0.462
144.000	145.754	80.008	19.993	103.377	19.947	3.988	0.464
152.000	149.665	80.011	19.994	103.382	19.946	4.095	0.556
160.000	153.554	80.005	19.996	103.386	19.949	3.864	0.461
168.000	157.420	80.006	19.995	103.377	19.954	3.547	0.483
176.000	161.378	80.005	19.995	103.382	19.950	3.782	0.478
184.000	165.417	80.005	19.993	103.369	19.953	3.614	0.517
192.000	169.378	80.005	19.993	103.366	19.951	3.747	0.519
200.000	173.345	80.009	19.991	103.371	19.953	3.595	0.468
208.000	177.292	80.009	19.994	103.339	19.955	3.464	0.510
216.000	181.435	80.010	19.994	103.350	19.952	3.682	0.710
224.000	185.247	80.007	19.993	103.333	19.955	3.444	0.504
232.000	189.087	80.009	19.996	103.332	19.956	3.391	0.494
240.000	192.898	80.002	19.995	103.334	19.956	3.382	0.471
248.000	196.705	80.003	20.000	103.364	19.957	3.304	0.474
256.000	200.589	80.005	19.996	103.336	19.952	3.688	0.527
264.000	204.403	80.005	19.994	103.337	19.955	3.472	0.486
272.000	208.266	80.003	19.996	103.335	19.946	4.081	0.499
280.000	212.151	80.006	19.996	103.337	19.954	3.540	0.480
288.000	216.078	80.013	19.994	103.330	19.955	3.468	0.517
296.000	219.978	80.012	19.991	103.334	19.951	3.729	0.500
304.000	223.864	80.010	19.996	103.334	19.951	3.761	0.519
312.000	227.922	80.004	20.000	103.330	19.948	3.948	0.564
320.000	231.898	80.002	19.992	103.336	19.946	4.047	0.523
328.000	235.877	80.006	19.994	103.336	19.940	4.433	0.542
336.000	239.905	80.005	19.993	103.337	19.940	4.482	0.518
344.000	243.930	80.000	19.996	103.337	19.935	4.784	0.510
352.000	247.899	80.005	19.994	103.333	19.936	4.699	0.486
360.000	251.907	80.003	19.998	103.332	19.931	5.087	0.491
368.000	255.925	80.001	20.001	103.324	19.930	5.143	0.468
376.000	259.923	80.004	19.999	103.330	19.925	5.455	0.501
384.000	263.943	80.005	19.995	103.328	19.926	5.370	0.507
392.000	267.961	80.006	20.000	103.318	19.932	5.025	0.540
400.000	272.000	80.011	19.997	103.321	19.934	4.838	0.501
408.000	276.012	80.003	19.994	103.329	19.939	4.501	0.541
416.000	280.055	80.005	19.992	103.315	19.939	4.552	0.501
424.000	284.070	80.008	19.994	103.310	19.944	4.206	0.511
432.000	288.096	80.004	19.995	103.302	19.938	4.617	0.532
440.000	292.187	80.007	19.996	103.308	19.941	4.390	0.506
448.000	296.217	80.008	19.994	103.305	19.939	4.554	0.508
456.000	300.275	80.009	19.994	103.309	19.933	4.939	0.507
464.000	304.360	80.007	19.996	103.323	19.930	5.140	0.513
472.000	308.399	80.006	19.994	103.327	19.920	5.813	0.486
480.000	312.466	80.005	19.994	103.318	19.912	6.341	0.529
488.000	316.457	80.001	19.994	103.301	19.905	6.828	0.508
496.000	320.455	80.006	19.995	103.334	19.893	7.622	0.485
504.000	324.476	80.006	19.995	103.325	19.885	8.138	0.485
512.000	328.389	80.009	19.990	103.328	19.872	8.970	0.469
520.000	332.436	80.003	19.995	103.331	19.868	9.276	0.515
528.000	336.458	80.007	19.996	103.324	19.868	9.290	0.453
536.000	340.464	80.021	19.993	103.303	19.868	9.274	0.531
544.000	344.411	80.011	19.994	103.302	19.871	9.067	0.504
552.000	348.399	80.017	19.993	103.295	19.886	8.077	0.480
560.000	352.389	80.004	19.996	103.293	19.886	8.029	0.503
568.000	356.401	80.009	19.995	103.272	19.893	7.569	0.500
576.000	360.465	80.008	19.996	103.300	19.895	7.472	0.509
584.000	364.475	80.001	19.996	103.280	19.894	7.513	0.520
592.000	368.408	80.007	19.995	103.293	19.890	7.823	0.469
600.000	372.507	80.010	19.994	103.296	19.881	8.410	0.541
608.000	376.510	80.007	19.996	103.277	19.872	8.977	0.520
616.000	380.485	80.008	19.995	103.271	19.864	9.503	0.485
624.000	384.466	80.009	19.995	103.291	19.850	10.480	0.527
632.000	388.548	80.010	19.995	103.283	19.833	11.590	0.511
640.000	392.605	80.009	19.996	103.287	19.819	12.548	0.471
648.000	396.773	80.010	19.996	103.291	19.806	13.413	0.526
656.000	400.821	80.001	19.995	103.290	19.800	13.798	0.505
664.000	404.964	80.010	19.998	103.295	19.791	14.417	0.495
672.000	409.175	80.010	19.994	103.293	19.786	14.747	0.522
680.000	413.256	80.007	19.994	103.280	19.792	14.290	0.497
688.000	417.383	80.004	19.995	103.276	19.803	13.601	0.499
696.000	421.460	80.004	19.996	103.269	19.816	12.695	0.489
704.000	425.525	80.017	19.994	103.271	19.833	11.577	0.488
712.000	429.587	80.006	19.995	103.289	19.848	10.578	0.531
720.000	433.731	80.010	19.995	103.298	19.857	10.011	0.532
728.000	437.983	80.006	19.995	103.296	19.866	9.413	0.499
736.000	442.215	80.005	19.995	103.295	19.868	9.262	0.511
744.000	446.557	80.006	19.995	103.274	19.871	9.029	0.524
752.000	450.792	79.997	19.996	103.287	19.874	8.830	0.552
760.000	454.998	80.007	19.996	103.259	19.872	8.967	0.513
768.000	459.305	80.005	19.996	103.274	19.877	8.640	0.529
776.000	463.475	80.015	19.995	103.262	19.885	8.119	0.521
784.000	467.636	80.005	19.995	103.283	19.888	7.901	0.524
792.000	471.758	80.016	19.994	103.275	19.894	7.496	0.506
800.000	475.882	80.011	19.995	103.270	19.902	6.996	0.528
808.000	479.937	80.009	19.993	103.261	19.908	6.624	0.525
816.000	483.949	80.003	19.996	103.253	19.913	6.284	0.484
824.000	487.953	80.000	19.997	103.272	19.921	5.752	0.499
832.000	491.994	80.016	19.994	103.266	19.928	5.281	0.509
840.000	496.104	80.005	19.996	103.258	19.930	5.142	0.501
848.000	500.175	79.997	19.997	103.275	19.937	4.691	0.506
856.000	504.229	80.000	19.997	103.260	19.942	4.357	0.496
864.000	508.301	80.005	19.994	103.285	19.943	4.254	0.497
872.000	512.343	80.003	19.995	103.268	19.944	4.193	0.520
880.000	516.478	79.997	19.998	103.261	19.946	4.090	0.536
888.000	520.538	80.000	19.996	103.259	19.950	3.805	0.501
896.000	524.682	80.009	19.994	103.261	19.954	3.496	0.521
904.000	528.748	79.998	19.995	103.256	19.953	3.627	0.501
912.000	532.852	80.003	19.995	103.267	19.953	3.563	0.501
920.000	536.985	80.007	19.996	103.248	19.949	3.871	0.532
928.000	541.035	80.002	19.996	103.267	19.951	3.760	0.488
936.000	545.094	80.003	19.996	103.270	19.947	4.004	0.519
944.000	549.208	80.010	19.995	103.271	19.952	3.630	0.514
952.000	553.281	80.023	19.993	103.265	19.952	3.639	0.469
960.000	557.344	80.006	19.995	103.264	19.950	3.796	0.487
968.000	561.472	80.015	19.993	103.265	19.948	3.961	0.521
976.000	565.494	80.010	19.993	103.253	19.947	3.998	0.519
984.000	569.504	79.999	19.998	103.260	19.947	4.001	0.466
992.000	573.620	80.008	19.995	103.260	19.952	3.689	0.505
1000.000	577.777	80.005	19.994	103.269	19.951	3.747	0.546
1008.000	581.768	80.010	19.996	103.260	19.951	3.761	0.511
1016.000	585.891	80.006	19.996	103.260	19.951	3.736	0.526
1024.000	589.900	80.007	19.996	103.283	19.947	3.992	0.521
1031.999	593.928	80.005	19.997	103.265	19.948	3.916	0.508
1039.999	598.013	80.020	19.995	103.255	19.947	4.020	0.515
1047.999	602.009	80.004	19.996	103.258	19.950	3.777	0.457
1055.999	606.153	79.991	19.996	103.268	19.951	3.755	0.534
1063.999	610.181	80.006	19.995	103.265	19.949	3.867	0.478
1071.999	614.288	79.998	19.995	103.263	19.950	3.795	0.529
1079.999	618.365	80.016	19.994	103.272	19.952	3.647	0.484
1087.999	622.368	80.009	19.994	103.286	19.947	3.978	0.496
1096.000	626.397	80.006	19.994	103.288	19.949	3.862	0.494
1103.999	630.352	80.008	19.996	103.280	19.947	4.017	0.487
1112.000	634.344	80.005	19.994	103.297	19.946	4.040	0.487
1119.999	638.251	80.013	19.995	103.289	19.947	3.995	0.458
1128.000	642.136	80.003	19.997	103.300	19.943	4.243	0.495
1136.000	646.164	80.005	19.996	103.293	19.944	4.176	0.522
1143.999	650.186	80.005	19.995	103.318	19.937	4.633	0.534
1152.001	654.286	80.005	19.996	103.323	19.939	4.509	0.501
1159.999	658.391	80.002	19.995	103.332	19.935	4.775	0.538
1167.999	662.511	80.004	19.995	103.329	19.936	4.716	0.548
1175.999	666.628	80.009	19.994	103.337	19.932	5.004	0.533
1183.999	670.712	80.008	19.995	103.340	19.936	4.763	0.556
1192.000	674.748	79.991	19.996	103.353	19.930	5.113	0.503
1200.000	678.800	80.008	19.996	103.367	19.931	5.074	0.494
1208.000	682.788	80.016	19.994	103.359	19.931	5.077	0.513
1215.999	686.744	79.995	19.998	103.372	19.932	4.977	0.499
1223.999	690.632	80.007	19.996	103.378	19.928	5.253	0.468
1231.999	694.543	80.009	19.995	103.402	19.927	5.337	0.510
1239.999	698.350	80.007	19.994	103.418	19.928	5.261	0.469
1247.999	702.274	80.013	19.993	103.438	19.922	5.645	0.504
1255.999	706.281	80.003	19.994	103.433	19.915	6.127	0.507
1263.999	710.401	79.998	19.996	103.451	19.915	6.143	0.532
1271.999	714.703	80.010	19.995	103.469	19.911	6.433	0.560
1280.000	719.086	80.008	19.995	103.484	19.907	6.653	0.556
1288.000	723.421	80.012	19.995	103.506	19.902	6.981	0.572
1295.999	727.678	80.008	19.995	103.527	19.901	7.061	0.546
1303.999	731.882	80.007	19.995	103.538	19.902	6.992	0.540
1312.000	736.099	80.005	19.994	103.544	19.898	7.270	0.530
1320.000	740.212	80.007	19.995	103.569	19.895	7.507	0.469
1325.999	743.342	80.004	19.996	103.577	19.895	7.489	0.522

File: Pine_Lap_Siding_Paint_MCC_30K_min_211122_R3.txt
Sample ID:	C:\MCC\MCC Cal\Test\PineLap_SidingA_MCC_30K_min_211122_R3.txt
Sample Weight (mg):	4.83
Heating Rate (C/s):	0.5
Combustor Temp (C):	900
N2 Flow Rate (cc/min):	80
O2 Flow Rate (cc/min):	20
Calibration File:	C:\MCC\MCC Cal\Coeff1 JN10440_30_210304.txt.txt
T Correction Coefficients:	0	1.024463	0
Time Shift (s):	14
*
Time (s)	Temperature (C)	N2 flow rate (cc/min)	O2 flow rate (cc/min)	Flow Rate (cc/min)	Oxygen (%)	HRR (W/g)	Heating rate (C/s)
0.000	108.766	80.004	19.994	103.137	20.044	0.331	0.005
8.000	108.768	80.005	19.994	103.140	20.045	0.242	-0.002
16.000	108.715	80.004	19.996	103.139	20.042	0.469	-0.023
24.000	108.759	80.006	19.994	103.170	20.041	0.526	-0.014
32.000	109.031	80.007	19.995	103.251	20.024	1.649	0.056
40.001	109.579	80.006	19.996	103.225	20.019	2.006	0.084
48.000	110.384	80.008	19.995	103.273	20.008	2.681	0.127
56.000	111.527	80.008	19.994	103.299	20.005	2.923	0.184
64.000	113.086	80.008	19.994	103.362	19.998	3.354	0.226
72.000	115.096	80.005	19.995	103.396	19.993	3.689	0.261
80.000	117.506	80.005	19.995	103.383	19.994	3.632	0.288
88.000	120.167	80.005	19.995	103.373	19.994	3.659	0.357
96.000	123.195	80.006	19.993	103.373	19.989	3.973	0.375
104.000	126.433	80.005	19.995	103.415	19.991	3.828	0.395
112.000	129.859	80.003	19.995	103.413	19.991	3.875	0.447
120.000	133.523	80.007	19.994	103.406	19.993	3.709	0.464
128.000	137.210	80.005	19.995	103.405	19.988	4.071	0.470
136.000	141.099	80.006	19.995	103.472	19.992	3.801	0.410
144.000	145.081	80.007	19.995	103.386	19.988	4.037	0.495
152.000	149.068	80.005	19.994	103.398	19.990	3.939	0.498
160.000	153.117	80.004	19.995	103.392	19.991	3.843	0.508
168.000	157.135	80.005	19.994	103.371	19.988	4.051	0.481
176.000	161.234	80.005	19.994	103.371	19.990	3.938	0.555
184.000	165.232	80.005	19.995	103.360	19.989	3.955	0.499
192.000	169.292	80.005	19.997	103.367	19.996	3.527	0.551
200.000	173.214	80.006	19.995	103.355	19.991	3.818	0.486
208.000	177.202	80.005	19.996	103.343	19.994	3.648	0.492
216.000	181.109	80.007	19.995	103.331	19.992	3.783	0.484
224.000	185.082	80.009	19.994	103.330	19.993	3.692	0.489
232.000	188.963	80.006	19.996	103.331	19.994	3.677	0.508
240.000	192.832	80.003	19.995	103.327	19.990	3.934	0.483
248.000	196.675	80.006	19.995	103.331	19.989	3.988	0.502
256.000	200.582	80.005	19.994	103.321	19.988	4.029	0.484
264.000	204.490	80.006	19.995	103.326	19.989	3.969	0.506
272.000	208.444	80.005	19.995	103.339	19.992	3.803	0.504
280.001	212.403	80.007	19.994	103.330	19.991	3.853	0.503
288.000	216.379	80.007	19.995	103.320	19.991	3.861	0.473
296.000	220.328	80.006	19.994	103.327	19.990	3.908	0.496
304.000	224.289	80.006	19.995	103.316	19.992	3.788	0.520
312.000	228.264	80.007	19.995	103.298	19.994	3.633	0.551
320.000	232.288	80.005	19.995	103.299	19.986	4.162	0.456
328.000	236.237	80.003	19.994	103.297	19.984	4.347	0.469
336.000	240.238	80.005	19.995	103.331	19.986	4.206	0.472
344.000	244.234	80.005	19.993	103.307	19.986	4.184	0.484
352.000	248.225	80.006	19.995	103.292	19.984	4.313	0.457
360.000	252.307	80.006	19.994	103.293	19.984	4.338	0.498
368.000	256.280	80.007	19.994	103.283	19.983	4.362	0.725
376.000	260.165	80.006	19.994	103.288	19.980	4.568	0.465
384.000	264.054	80.005	19.995	103.295	19.982	4.444	0.489
392.000	267.902	80.009	19.994	103.290	19.984	4.289	0.465
400.000	271.799	80.006	19.995	103.283	19.982	4.451	0.489
408.000	275.596	80.005	19.995	103.288	19.983	4.398	0.454
416.000	279.509	80.006	19.994	103.289	19.984	4.340	0.500
424.000	283.423	80.005	19.996	103.291	19.979	4.670	0.494
432.000	287.385	80.005	19.996	103.287	19.975	4.927	0.490
440.000	291.432	80.005	19.995	103.292	19.977	4.762	0.483
448.000	295.511	80.007	19.994	103.291	19.978	4.694	0.506
456.000	299.584	80.006	19.994	103.288	19.974	4.998	0.495
464.000	303.742	80.005	19.994	103.296	19.977	4.772	0.558
472.000	307.887	80.007	19.995	103.272	19.973	5.050	0.531
480.000	312.074	80.007	19.993	103.290	19.966	5.495	0.550
488.000	316.160	80.006	19.995	103.281	19.962	5.757	0.530
496.000	320.210	80.004	19.995	103.285	19.956	6.186	0.514
504.000	324.312	80.005	19.995	103.293	19.946	6.815	0.519
512.000	328.287	80.005	19.994	103.264	19.937	7.447	0.487
520.000	332.254	80.002	19.995	103.293	19.929	7.950	0.500
528.000	336.227	80.005	19.996	103.287	19.919	8.652	0.459
536.000	340.185	80.006	19.994	103.269	19.923	8.390	0.492
544.000	344.068	80.007	19.994	103.283	19.917	8.761	0.485
552.000	348.101	80.007	19.995	103.272	19.922	8.430	0.489
560.000	352.188	80.007	19.995	103.269	19.923	8.403	0.539
568.000	356.358	80.005	19.994	103.282	19.922	8.429	0.515
576.000	360.485	80.007	19.995	103.279	19.921	8.534	0.493
584.000	364.678	80.005	19.994	103.283	19.924	8.344	0.522
592.000	368.833	80.004	19.994	103.276	19.919	8.626	0.548
600.000	373.023	80.004	19.995	103.280	19.911	9.156	0.569
608.000	377.209	80.005	19.994	103.251	19.902	9.775	0.561
616.000	381.327	80.004	19.995	103.268	19.882	11.143	0.518
624.000	385.338	80.006	19.995	103.256	19.870	11.932	0.512
632.000	389.349	80.007	19.994	103.246	19.850	13.251	0.497
640.000	393.442	80.008	19.994	103.262	19.828	14.718	0.522
648.000	397.418	80.006	19.994	103.251	19.799	16.640	0.509
656.000	401.347	80.006	19.995	103.252	19.778	18.031	0.509
664.000	405.233	80.007	19.994	103.257	19.765	18.939	0.476
672.000	409.206	80.007	19.994	103.249	19.758	19.414	0.537
680.000	413.162	80.004	19.995	103.241	19.765	18.908	0.530
688.000	417.114	80.005	19.995	103.251	19.776	18.182	0.541
696.000	421.135	80.007	19.995	103.292	19.814	15.615	0.505
704.000	425.213	80.008	19.996	103.258	19.839	13.966	0.536
712.000	429.248	80.005	19.994	103.250	19.867	12.104	0.506
720.000	433.362	80.008	19.995	103.251	19.892	10.443	0.491
728.000	437.496	80.008	19.995	103.243	19.910	9.272	0.520
736.000	441.496	80.006	19.995	103.261	19.913	9.021	0.484
744.000	445.542	80.006	19.996	103.252	19.920	8.569	0.517
752.000	449.545	80.006	19.995	103.244	19.926	8.158	0.538
760.000	453.538	80.006	19.994	103.251	19.928	8.079	0.493
768.000	457.685	80.006	19.995	103.254	19.928	8.036	0.532
776.000	461.777	80.007	19.995	103.258	19.926	8.164	0.493
784.000	465.892	80.008	19.995	103.252	19.928	8.064	0.536
792.000	470.017	80.007	19.996	103.256	19.942	7.098	0.546
800.000	474.182	80.008	19.994	103.244	19.943	7.037	0.524
808.000	478.349	80.008	19.995	103.232	19.947	6.784	0.509
816.000	482.440	80.007	19.995	103.223	19.955	6.262	0.495
824.000	486.518	80.006	19.994	103.251	19.960	5.901	0.540
832.000	490.631	80.005	19.994	103.232	19.959	5.971	0.521
840.000	494.706	80.006	19.995	103.248	19.970	5.237	0.518
848.000	498.835	80.005	19.995	103.236	19.975	4.903	0.539
856.000	502.907	80.005	19.994	103.247	19.978	4.703	0.538
864.000	507.041	80.008	19.994	103.221	19.975	4.909	0.512
872.000	511.188	80.006	19.995	103.247	19.987	4.127	0.514
880.000	515.368	80.007	19.996	103.246	19.987	4.095	0.527
888.000	519.504	80.009	19.994	103.250	19.989	3.982	0.553
896.000	523.648	80.006	19.995	103.214	19.987	4.112	0.517
904.000	527.773	80.006	19.996	103.227	19.993	3.688	0.526
912.000	531.891	80.006	19.994	103.229	19.989	3.983	0.515
920.000	536.020	80.006	19.994	103.260	19.996	3.530	0.523
928.000	540.068	80.005	19.994	103.220	19.994	3.658	0.512
936.000	544.122	80.006	19.995	103.228	19.987	4.090	0.495
944.000	548.202	80.006	19.993	103.228	19.990	3.916	0.510
952.000	552.222	80.007	19.994	103.217	19.993	3.736	0.478
960.000	556.279	80.007	19.994	103.241	19.988	4.042	0.482
968.000	560.318	80.008	19.996	103.252	19.993	3.736	0.524
976.000	564.342	80.006	19.995	103.232	19.994	3.630	0.517
984.000	568.464	80.007	19.995	103.229	19.994	3.637	0.506
992.000	572.529	80.006	19.995	103.246	19.997	3.457	0.511
1000.000	576.707	80.006	19.996	103.230	19.996	3.538	0.481
1008.000	580.826	80.006	19.994	103.242	19.997	3.417	0.492
1016.000	584.903	80.007	19.995	103.219	19.992	3.779	0.509
1024.000	588.943	80.007	19.995	103.218	19.992	3.751	0.505
1032.000	592.964	80.009	19.994	103.219	19.989	3.990	0.481
1040.001	597.129	80.006	19.993	103.259	19.990	3.918	0.492
1048.000	601.157	80.007	19.994	103.246	19.993	3.741	0.493
1056.000	605.252	80.009	19.993	103.236	19.994	3.646	0.542
1064.000	609.283	80.007	19.995	103.251	19.990	3.930	0.484
1072.001	613.323	80.006	19.995	103.233	19.995	3.559	0.496
1080.000	617.369	80.006	19.995	103.226	19.989	3.961	0.497
1088.001	621.370	80.006	19.995	103.248	19.990	3.920	0.496
1096.001	625.290	80.003	19.995	103.251	19.985	4.268	0.482
1104.000	629.296	80.006	19.994	103.248	19.989	3.947	0.509
1112.000	633.275	80.008	19.993	103.241	19.985	4.231	0.509
1120.000	637.286	80.006	19.994	103.233	19.989	3.993	0.527
1128.000	641.195	80.006	19.995	103.253	19.984	4.323	0.494
1136.000	645.163	80.009	19.994	103.262	19.985	4.230	0.498
1144.000	649.127	80.008	19.994	103.295	19.984	4.295	0.488
1152.000	653.246	80.006	19.994	103.265	19.984	4.313	0.518
1160.000	657.398	80.005	19.995	103.266	19.986	4.202	0.531
1168.000	661.521	80.006	19.995	103.271	19.982	4.475	0.511
1176.000	665.669	80.006	19.995	103.302	19.977	4.761	0.508
1184.000	669.838	80.004	19.995	103.306	19.979	4.655	0.551
1192.000	673.927	80.007	19.996	103.297	19.975	4.946	0.531
1200.000	677.975	80.006	19.995	103.305	19.973	5.074	0.507
1208.001	682.019	80.005	19.995	103.326	19.969	5.338	0.488
1216.000	686.031	80.009	19.996	103.363	19.969	5.338	0.493
1224.000	690.094	80.006	19.994	103.328	19.966	5.533	0.482
1232.000	694.165	80.006	19.994	103.338	19.965	5.566	0.518
1240.000	698.305	80.006	19.994	103.374	19.960	5.935	0.541
1248.000	702.357	80.005	19.994	103.376	19.961	5.883	0.539
1256.000	706.407	80.005	19.995	103.374	19.957	6.129	0.499
1264.000	710.555	80.007	19.995	103.430	19.957	6.133	0.524
1272.000	714.627	80.008	19.995	103.432	19.952	6.445	0.506
1280.000	718.671	80.006	19.996	103.445	19.951	6.541	0.485
1288.000	722.666	80.006	19.994	103.446	19.946	6.833	0.490
1296.000	726.619	80.006	19.994	103.487	19.942	7.104	0.477
1304.000	730.716	80.009	19.994	103.488	19.941	7.167	0.494
1312.000	734.663	80.005	19.994	103.506	19.940	7.286	0.472
1320.000	738.693	80.005	19.994	103.530	19.936	7.509	0.492
1328.001	742.712	80.006	19.994	103.515	19.933	7.702	0.518
1330.000	743.735	80.005	19.994	103.527	19.933	7.739	0.512