Folder: fsri_materials_database/01_Data/PETG/STA/N2/10K_min (part 2)

File: PETG_STA_N2_10KData_210901_R3.csv
##Temp./Â°C,Time/min,Mass loss(subtr.2)/mg,DSC(subtr.2)/(mW/mg),Sensit./(uV/mW)
49.799,10.00917,-0.01645,-0.000158737,1.03584
52.399,12.35904,-0.02258649,0.05128222,1.03571
54.999,13.06024,-0.02180043,0.07272577,1.03554
57.599,13.61641,-0.0246464,0.08894546,1.03535
60.199,14.1035,-0.02326597,0.10187,1.03512
62.799,14.5466,-0.02337479,0.11551,1.03487
65.399,14.9552,-0.02319145,0.12457,1.03459
67.999,15.3396,-0.02456415,0.13228,1.03428
70.599,15.7035,-0.0240095,0.14089,1.03394
73.199,16.05213,-0.02339724,0.147,1.03358
75.799,16.38891,-0.02433521,0.14785,1.03318
78.399,16.71489,-0.02631537,0.14664,1.03276
80.999,17.02992,-0.02573233,0.14606,1.03231
83.599,17.33693,-0.02576764,0.14565,1.03183
86.199,17.63549,-0.02600196,0.14367,1.03133
88.799,17.92751,-0.02588575,0.14279,1.03079
91.399,18.2142,-0.02719725,0.14391,1.03023
93.999,18.49475,-0.02587568,0.14207,1.02965
96.599,18.77122,-0.02851328,0.14512,1.02904
99.199,19.0435,-0.02832925,0.14736,1.0284
101.799,19.31325,-0.02715866,0.1532,1.02773
104.399,19.58005,-0.02731034,0.15833,1.02704
106.999,19.8443,-0.02862004,0.16553,1.02632
109.599,20.10725,-0.0272886,0.17646,1.02558
112.199,20.3671,-0.02814372,0.18189,1.02481
114.799,20.62606,-0.02862308,0.18919,1.02402
117.399,20.88326,-0.02995326,0.19673,1.0232
119.999,21.13731,-0.03104186,0.20192,1.02235
122.599,21.39124,-0.03125848,0.20938,1.02149
125.199,21.6422,-0.03058734,0.21401,1.02059
127.799,21.89174,-0.02992959,0.21959,1.01968
130.399,22.13951,-0.03160064,0.22303,1.01873
132.999,22.38625,-0.03130965,0.22507,1.01777
135.599,22.63106,-0.02858955,0.23145,1.01678
138.199,22.87472,-0.03122799,0.2359,1.01577
140.799,23.11715,-0.03242848,0.24101,1.01473
143.399,23.35824,-0.03125,0.24314,1.01367
145.999,23.59852,-0.02994002,0.25034,1.01259
148.599,23.83784,-0.03125175,0.24936,1.01149
151.199,24.07749,-0.03022961,0.2529,1.01036
153.799,24.315,-0.02989738,0.25548,1.00921
156.399,24.5532,-0.03257224,0.25918,1.00804
158.999,24.79115,-0.03176885,0.26133,1.00685
161.599,25.02825,-0.03256372,0.26488,1.00564
164.199,25.26462,-0.03130382,0.26865,1.0044
166.799,25.50155,-0.03257988,0.27013,1.00314
169.399,25.73753,-0.03260699,0.27209,1.00187
171.999,25.9736,-0.03322998,0.27489,1.00057
174.599,26.20906,-0.034,0.27875,0.99925
177.199,26.4438,-0.03398001,0.28054,0.99791
179.799,26.6792,-0.03235,0.28115,0.99655
182.399,26.91345,-0.03299834,0.28488,0.99518
184.999,27.1468,-0.03169674,0.28623,0.99378
187.599,27.3806,-0.0334753,0.28914,0.99236
190.199,27.61344,-0.03400115,0.29169,0.99093
192.799,27.846,-0.03434647,0.29497,0.98947
195.399,28.0784,-0.03564099,0.29813,0.988
197.999,28.31042,-0.03495882,0.30097,0.98651
200.599,28.54293,-0.03443627,0.30294,0.985
203.199,28.7747,-0.03426124,0.30692,0.98347
205.799,29.0074,-0.03432893,0.3117,0.98192
208.399,29.23953,-0.03561848,0.31517,0.98036
210.999,29.47155,-0.03563833,0.31926,0.97878
213.599,29.7036,-0.03434179,0.32479,0.97718
216.199,29.9356,-0.03433001,0.33077,0.97557
218.799,30.16791,-0.03564013,0.33641,0.97394
221.399,30.4005,-0.03564,0.3424,0.97229
223.999,30.63271,-0.03433184,0.3493,0.97063
226.599,30.8652,-0.03695899,0.36161,0.96895
229.199,31.09807,-0.03564003,0.37295,0.96725
231.799,31.33098,-0.03544776,0.3898,0.96554
234.399,31.5641,-0.03561553,0.40948,0.96382
236.999,31.7972,-0.03564291,0.44046,0.96208
239.599,32.03032,-0.03432901,0.48109,0.96032
242.199,32.26402,-0.03530629,0.53683,0.95855
244.799,32.49758,-0.03564036,0.60668,0.95677
247.399,32.73186,-0.03696008,0.70363,0.95497
249.999,32.96652,-0.03562498,0.81376,0.95316
252.599,33.2009,-0.03562439,0.8806,0.95134
255.199,33.43497,-0.03466002,0.75662,0.9495
257.799,33.66778,-0.03596396,0.53303,0.94765
260.399,33.90065,-0.03564813,0.43301,0.94578
262.999,34.13363,-0.034928,0.39038,0.94391
265.599,34.36694,-0.03516245,0.37064,0.94202
268.199,34.60088,-0.03629939,0.36035,0.94012
270.799,34.83453,-0.03728996,0.35626,0.93821
273.399,35.0686,-0.03633426,0.35426,0.93628
275.999,35.30194,-0.03630017,0.35187,0.93435
278.599,35.53702,-0.03629959,0.35268,0.9324
281.199,35.77175,-0.03629974,0.35312,0.93044
283.799,36.00625,-0.03762357,0.35102,0.92847
286.399,36.2415,-0.03619033,0.35147,0.9265
288.999,36.4768,-0.0372757,0.34883,0.92451
291.599,36.71257,-0.03762,0.35137,0.92251
294.199,36.9482,-0.03893759,0.35369,0.9205
296.799,37.18356,-0.03763114,0.35342,0.91848
299.399,37.4203,-0.03761,0.35234,0.91645
301.999,37.65716,-0.03884343,0.35354,0.91441
304.599,37.89346,-0.03893,0.35382,0.91237
307.199,38.1307,-0.03992,0.35603,0.91031
309.799,38.36772,-0.0399262,0.35596,0.90825
312.399,38.6055,-0.04013531,0.35638,0.90618
314.999,38.84238,-0.04047517,0.35733,0.9041
317.599,39.07933,-0.03925807,0.35765,0.90201
320.199,39.31828,-0.04057989,0.35629,0.89992
322.799,39.5563,-0.0409001,0.35833,0.89782
325.399,39.79359,-0.03927808,0.35853,0.89571
327.999,40.03286,-0.04119216,0.35582,0.89359
330.599,40.2716,-0.04189011,0.35987,0.89147
333.199,40.51,-0.0419,0.36132,0.88934
335.799,40.74864,-0.04287996,0.36066,0.88721
338.399,40.9881,-0.04158729,0.35961,0.88507
340.999,41.228,-0.04023513,0.36159,0.88292
343.599,41.46837,-0.04124,0.36245,0.88077
346.199,41.70865,-0.04596,0.3623,0.87861
348.799,41.94962,-0.04562505,0.36356,0.87645
351.399,42.19008,-0.04551381,0.36671,0.87428
353.999,42.43088,-0.0494903,0.37019,0.87211
356.599,42.6721,-0.04912454,0.37193,0.86993
359.199,42.91332,-0.04782006,0.37435,0.86775
361.799,43.1545,-0.04810583,0.37577,0.86557
364.399,43.39564,-0.05111,0.37905,0.86338
366.999,43.6363,-0.05234165,0.38355,0.86118
369.599,43.8788,-0.05736003,0.38935,0.85899
372.199,44.1219,-0.05866993,0.39625,0.85679
374.799,44.3642,-0.06032047,0.40356,0.85459
377.399,44.60711,-0.06294441,0.4131,0.85238
379.999,44.84966,-0.06591981,0.4251,0.85017
382.599,45.09284,-0.07541013,0.44704,0.84796
385.199,45.3356,-0.08393458,0.47386,0.84575
387.799,45.57827,-0.09484063,0.50675,0.84353
390.399,45.8213,-0.10911,0.5451,0.84132
392.999,46.06589,-0.12431,0.54145,0.8391
395.599,46.31191,-0.14739,0.51865,0.83688
398.199,46.55735,-0.17192,0.53405,0.83466
400.799,46.8024,-0.2001,0.55809,0.83244
403.399,47.0478,-0.23514,0.5781,0.83021
405.999,47.2937,-0.27588,0.60907,0.82799
408.599,47.5396,-0.32166,0.65197,0.82577
411.199,47.78568,-0.37585,0.67537,0.82354
413.799,48.03148,-0.4408,0.73871,0.82132
416.399,48.27751,-0.51773,0.82341,0.81909
418.999,48.52435,-0.60874,0.91042,0.81687
421.599,48.7714,-0.71314,0.98322,0.81464
424.199,49.01887,-0.83128,1.01085,0.81242
426.799,49.26627,-0.9611,1.07936,0.8102
429.399,49.51395,-1.11477,1.13657,0.80798
431.999,49.7622,-1.28446,1.21823,0.80576
434.599,50.01096,-1.47422,1.25871,0.80354
437.199,50.26016,-1.67663,1.25854,0.80132
439.799,50.50958,-1.89901,1.28251,0.7991
442.399,50.75828,-2.13657,1.29859,0.79689
444.999,51.0092,-2.38163,1.28221,0.79468
447.599,51.25928,-2.63114,1.23038,0.79246
450.199,51.50857,-2.86682,1.12805,0.79026
452.799,51.7575,-3.07088,0.97536,0.78805
455.399,52.00581,-3.22608,0.7788,0.78585
457.999,52.2546,-3.34358,0.57439,0.78365
460.599,52.50218,-3.42863,0.4072,0.78145
463.199,52.7504,-3.48813,0.29913,0.77925
465.799,52.99861,-3.53341,0.22611,0.77706
468.399,53.24776,-3.56878,0.16789,0.77487
470.999,53.49675,-3.59772,0.11642,0.77269
473.599,53.74632,-3.62145,0.08950351,0.77051
476.199,53.9956,-3.64094,0.07792567,0.76833
478.799,54.2444,-3.65632,0.09047132,0.76616
481.399,54.4942,-3.66956,0.06854284,0.76399
483.999,54.7454,-3.6815,0.01633976,0.76182
486.599,54.99385,-3.6911,-0.09257158,0.75966
489.199,55.2455,-3.69894,-0.18566,0.7575
491.799,55.49885,-3.70604,-0.2477,0.75535
494.399,55.75155,-3.71481,-0.24884,0.75321
496.999,56.00504,-3.72206,-0.24025,0.75106
499.599,56.2578,-3.72689,-0.23163,0.74893
502.199,56.51106,-3.73295,-0.22046,0.74679
504.799,56.7646,-3.73689,-0.20531,0.74467
507.399,57.01798,-3.74314,-0.19703,0.74255
509.999,57.2712,-3.74586,-0.19046,0.74043
512.599,57.52469,-3.75021,-0.18573,0.73832
515.199,57.77859,-3.75279,-0.18047,0.73622
517.799,58.0332,-3.75727,-0.17543,0.73412
520.399,58.28715,-3.76135,-0.16891,0.73202
522.999,58.5408,-3.76464,-0.16752,0.72994
525.599,58.79529,-3.76925,-0.16393,0.72786
528.199,59.05013,-3.77055,-0.15776,0.72578
530.799,59.305,-3.77386,-0.15767,0.72371
533.399,59.5603,-3.77649,-0.15797,0.72165
535.999,59.8152,-3.7779,-0.155,0.7196
538.599,60.06977,-3.78516,-0.15119,0.71755
541.199,60.3238,-3.7882,-0.14926,0.71551
543.799,60.57885,-3.79042,-0.14749,0.71347
546.399,60.8345,-3.79173,-0.14988,0.71145
548.999,61.08973,-3.79173,-0.14785,0.70943
551.599,61.3461,-3.79568,-0.14605,0.70741
554.199,61.6026,-3.79798,-0.14452,0.70541
556.799,61.85938,-3.79963,-0.14376,0.70341
559.399,62.1152,-3.80158,-0.14274,0.70142
561.999,62.37177,-3.80445,-0.14226,0.69943
564.599,62.62809,-3.80777,-0.14347,0.69746
567.199,62.88411,-3.80884,-0.14423,0.69549
569.799,63.1412,-3.81144,-0.14536,0.69353
572.399,63.39865,-3.81411,-0.14357,0.69158
574.999,63.65574,-3.81629,-0.14224,0.68963
577.599,63.9133,-3.81776,-0.14741,0.68769
580.199,64.1712,-3.82034,-0.14745,0.68577
582.799,64.42707,-3.82168,-0.14629,0.68385
585.399,64.68454,-3.82431,-0.1527,0.68193
587.999,64.94189,-3.82559,-0.15137,0.68003
590.599,65.19951,-3.82892,-0.15616,0.67813
593.199,65.45782,-3.8309,-0.15596,0.67625
595.799,65.71669,-3.83353,-0.15499,0.67437
598.399,65.97485,-3.83549,-0.15737,0.6725
600.999,66.23344,-3.83681,-0.15825,0.67063
603.599,66.49168,-3.84007,-0.16149,0.66878
606.199,66.75118,-3.84307,-0.15787,0.66694
608.799,67.01009,-3.84438,-0.1614,0.6651
611.399,67.26898,-3.84636,-0.16437,0.66327
613.999,67.528,-3.84764,-0.16717,0.66146
616.599,67.7867,-3.8503,-0.16123,0.65965
619.199,68.04619,-3.85138,-0.16515,0.65785
621.799,68.30548,-3.85362,-0.16838,0.65605
624.399,68.5655,-3.8559,-0.17194,0.65427
626.999,68.82486,-3.85754,-0.16681,0.6525
629.599,69.0855,-3.86016,-0.16148,0.65073
632.199,69.34623,-3.86268,-0.15503,0.64898
634.799,69.60669,-3.86314,-0.15105,0.64723
637.399,69.86614,-3.86715,-0.14638,0.6455
638.699,69.99636,-3.86578,-0.14327,0.64463