Folder: fsri_materials_database/01_Data/PETG/STA/N2/10K_min

Note: 01_Data/README.md
# Materials and Products Database
## 01_Data

Raw data generated from each apparatus are included here in plain-text format. The data is organized first by material, next by the short name of test apparatus used, and where applicable additional filtering by test settings.

### material.json

Each material directory contains a json file of the same name as the material. This file links the data stored in the repository as well as data and graphs produced by the accompanying scripts (__02_Scripts__) to the respective landing page for the material on the front-end website.

File: PETG_STA_N2_10KData_210831_R1.csv
##Temp./Â°C,Time/min,Mass loss(subtr.2)/mg,DSC(subtr.2)/(mW/mg),Sensit./(uV/mW)
49.708,10.00917,-0.01382,-0.006533795,1.03585
52.308,12.37323,-0.01730016,0.04466334,1.03571
54.908,13.07437,-0.01722607,0.0681243,1.03555
57.508,13.63171,-0.01811394,0.08487045,1.03536
60.108,14.1182,-0.01934259,0.09650782,1.03513
62.708,14.56052,-0.01931197,0.11024,1.03488
65.308,14.97042,-0.02078467,0.11979,1.0346
67.908,15.35484,-0.02079611,0.12837,1.03429
70.508,15.7196,-0.02226105,0.13842,1.03396
73.108,16.0684,-0.02088737,0.14426,1.03359
75.708,16.4042,-0.0225463,0.14535,1.0332
78.308,16.72831,-0.02369326,0.1478,1.03277
80.908,17.0434,-0.02373921,0.14734,1.03233
83.508,17.34887,-0.02512219,0.14549,1.03185
86.108,17.6475,-0.02518874,0.14454,1.03134
88.708,17.9393,-0.02545305,0.14305,1.03081
91.308,18.22532,-0.02641947,0.1437,1.03025
93.908,18.50514,-0.02521983,0.14154,1.02967
96.508,18.78183,-0.02710206,0.14419,1.02906
99.108,19.05367,-0.02814081,0.1479,1.02842
101.708,19.32299,-0.02726597,0.15019,1.02776
104.308,19.58955,-0.0266605,0.15639,1.02706
106.908,19.85409,-0.02805156,0.16299,1.02635
109.508,20.11564,-0.02860206,0.1695,1.02561
112.108,20.37583,-0.02927826,0.17606,1.02484
114.708,20.6336,-0.02950773,0.18432,1.02405
117.308,20.8901,-0.0294945,0.19161,1.02323
119.908,21.14483,-0.02946339,0.1994,1.02238
122.508,21.39801,-0.02951118,0.20574,1.02152
125.108,21.64888,-0.03016025,0.20918,1.02062
127.708,21.8981,-0.03083265,0.21353,1.01971
130.308,22.14574,-0.02945709,0.21861,1.01877
132.908,22.3914,-0.03079737,0.22387,1.0178
135.508,22.636,-0.03080324,0.22852,1.01682
138.108,22.87965,-0.03115017,0.23298,1.0158
140.708,23.12146,-0.02974012,0.23707,1.01477
143.308,23.36262,-0.03117284,0.23965,1.01371
145.908,23.6025,-0.03211448,0.24014,1.01263
148.508,23.84173,-0.03079528,0.24458,1.01153
151.108,24.0802,-0.03083096,0.2475,1.0104
153.708,24.31857,-0.03213944,0.25177,1.00925
156.308,24.55566,-0.03212988,0.25442,1.00808
158.908,24.79232,-0.03141167,0.25732,1.00689
161.508,25.0289,-0.03344755,0.25921,1.00568
164.108,25.26476,-0.03213998,0.2602,1.00444
166.708,25.5012,-0.03212657,0.26312,1.00319
169.308,25.73705,-0.03081846,0.26588,1.00191
171.908,25.97235,-0.02983151,0.26657,1.00062
174.508,26.20745,-0.03214692,0.27167,0.9993
177.108,26.442,-0.03219532,0.27229,0.99796
179.708,26.67659,-0.02929857,0.27573,0.9966
182.308,26.91077,-0.030208,0.27707,0.99522
184.908,27.14381,-0.0304897,0.28013,0.99383
187.508,27.3773,-0.03180274,0.28226,0.99241
190.108,27.6092,-0.03114997,0.28457,0.99098
192.708,27.84155,-0.03147834,0.28335,0.98952
195.308,28.07392,-0.03279378,0.2902,0.98805
197.908,28.30627,-0.03278999,0.29264,0.98656
200.508,28.5386,-0.03280042,0.29436,0.98505
203.108,28.7698,-0.03343964,0.29738,0.98352
205.708,29.00197,-0.03280225,0.29948,0.98198
208.308,29.23457,-0.03279264,0.30408,0.98041
210.908,29.4664,-0.03412023,0.30826,0.97883
213.508,29.69833,-0.03411,0.31297,0.97724
216.108,29.93045,-0.03411,0.31648,0.97562
218.708,30.16248,-0.03280183,0.32381,0.97399
221.308,30.3951,-0.03412669,0.32953,0.97235
223.908,30.627,-0.03518196,0.33965,0.97068
226.508,30.86008,-0.03377998,0.35036,0.96901
229.108,31.09243,-0.03378997,0.36629,0.96731
231.708,31.32514,-0.03434704,0.37985,0.9656
234.308,31.55752,-0.03477099,0.40271,0.96388
236.908,31.79053,-0.03513366,0.43061,0.96214
239.508,32.02369,-0.03271747,0.46848,0.96038
242.108,32.2569,-0.03471357,0.52731,0.95862
244.708,32.49031,-0.03532409,0.59753,0.95683
247.308,32.72282,-0.0353096,0.69623,0.95504
249.908,32.9576,-0.03531966,0.80971,0.95323
252.508,33.19133,-0.03366605,0.88272,0.9514
255.108,33.4259,-0.03511714,0.75454,0.94956
257.708,33.65911,-0.03598009,0.527,0.94771
260.308,33.89227,-0.03597987,0.42203,0.94585
262.908,34.125,-0.03597999,0.37977,0.94397
265.508,34.35841,-0.03466,0.36073,0.94209
268.108,34.59253,-0.0353199,0.35016,0.94019
270.708,34.8266,-0.03401,0.34824,0.93827
273.308,35.06077,-0.03598035,0.34557,0.93635
275.908,35.29487,-0.03598,0.34483,0.93442
278.508,35.52945,-0.03399853,0.34375,0.93247
281.108,35.76415,-0.03466517,0.34444,0.93051
283.708,35.99922,-0.03466,0.34545,0.92854
286.308,36.2339,-0.03597,0.34342,0.92656
288.908,36.4694,-0.03467259,0.34206,0.92458
291.508,36.70482,-0.03496832,0.34499,0.92258
294.108,36.94123,-0.03444,0.34606,0.92057
296.708,37.1777,-0.03443832,0.34728,0.91855
299.308,37.41455,-0.03467853,0.34606,0.91652
301.908,37.6511,-0.0360901,0.34528,0.91449
304.508,37.88796,-0.03609213,0.34668,0.91244
307.108,38.125,-0.03608751,0.34636,0.91039
309.708,38.36182,-0.03640899,0.34805,0.90832
312.308,38.59946,-0.03640985,0.34895,0.90625
314.908,38.83665,-0.03525135,0.34612,0.90417
317.508,39.07451,-0.03630971,0.34668,0.90209
320.108,39.31207,-0.0349867,0.35023,0.89999
322.708,39.5497,-0.03494047,0.34812,0.89789
325.308,39.78816,-0.03487998,0.35224,0.89578
327.908,40.0267,-0.03455001,0.35282,0.89367
330.508,40.26495,-0.03389,0.35017,0.89155
333.108,40.50374,-0.03546263,0.35321,0.88942
335.708,40.74277,-0.03421902,0.35325,0.88728
338.308,40.9822,-0.03489,0.35685,0.88514
340.908,41.222,-0.03587,0.35729,0.883
343.508,41.46242,-0.03587421,0.36112,0.88084
346.108,41.70255,-0.03519396,0.36225,0.87869
348.708,41.94277,-0.03652,0.36278,0.87652
351.308,42.1834,-0.03781416,0.36073,0.87436
353.908,42.42398,-0.03784664,0.36296,0.87218
356.508,42.66489,-0.03828276,0.36566,0.87001
359.108,42.90587,-0.03784,0.36836,0.86783
361.708,43.1475,-0.04048118,0.37175,0.86564
364.308,43.3894,-0.04025837,0.37361,0.86345
366.908,43.63135,-0.0418919,0.38138,0.86126
369.508,43.87318,-0.04453,0.38899,0.85906
372.108,44.1154,-0.04718757,0.39649,0.85686
374.708,44.35714,-0.0491342,0.40796,0.85466
377.308,44.60034,-0.05309005,0.41653,0.85246
379.908,44.8431,-0.0576237,0.43062,0.85025
382.508,45.0866,-0.06298008,0.43758,0.84804
385.108,45.33109,-0.0706296,0.43735,0.84583
387.708,45.57592,-0.0804572,0.45208,0.84361
390.308,45.82113,-0.09324262,0.46594,0.8414
392.908,46.0662,-0.11311,0.48091,0.83918
395.508,46.3106,-0.13093,0.49437,0.83696
398.108,46.55601,-0.15124,0.51215,0.83474
400.708,46.80062,-0.17089,0.53332,0.83252
403.308,47.046,-0.19983,0.55696,0.83029
405.908,47.29126,-0.23369,0.58942,0.82807
408.508,47.53774,-0.27339,0.6149,0.82584
411.108,47.78303,-0.31857,0.65569,0.82362
413.708,48.03083,-0.37276,0.68784,0.8214
416.308,48.27697,-0.43695,0.73764,0.81917
418.908,48.5236,-0.51101,0.80094,0.81695
421.508,48.77035,-0.60489,0.87383,0.81472
424.108,49.01766,-0.70909,0.93891,0.8125
426.708,49.265,-0.82795,1.01105,0.81028
429.308,49.51287,-0.96128,1.04449,0.80805
431.908,49.76045,-1.1163,1.12121,0.80583
434.508,50.00813,-1.28296,1.14685,0.80361
437.108,50.25654,-1.46368,1.15588,0.8014
439.708,50.5056,-1.65678,1.16963,0.79918
442.308,50.75397,-1.85516,1.15207,0.79697
444.908,51.00363,-2.05121,1.09747,0.79475
447.508,51.25213,-2.23293,1.00507,0.79254
450.108,51.50023,-2.39245,0.86622,0.79033
452.708,51.74823,-2.52143,0.7121,0.78813
455.308,51.9966,-2.61915,0.55679,0.78592
457.908,52.2455,-2.68766,0.43244,0.78372
460.508,52.49436,-2.73985,0.34348,0.78152
463.108,52.74377,-2.78022,0.27012,0.77933
465.708,52.99335,-2.81197,0.21288,0.77714
468.308,53.2428,-2.83816,0.16016,0.77495
470.908,53.4923,-2.85967,0.11691,0.77277
473.508,53.74208,-2.87924,0.07937957,0.77058
476.108,53.99184,-2.89107,0.04932161,0.76841
478.708,54.24219,-2.90593,0.02885127,0.76623
481.308,54.49221,-2.91459,0.0114606,0.76406
483.908,54.7432,-2.92498,-0.002882937,0.7619
486.508,54.99383,-2.9308,-0.01126847,0.75974
489.108,55.2445,-2.93888,-0.0207574,0.75758
491.708,55.49572,-2.94454,-0.02000987,0.75543
494.308,55.74762,-2.95053,-0.02430355,0.75328
496.908,55.9995,-2.95618,-0.02649889,0.75114
499.508,56.25131,-2.9586,-0.02987521,0.749
502.108,56.50399,-2.96331,-0.03349969,0.74687
504.708,56.75649,-2.96716,-0.03303424,0.74474
507.308,57.0096,-2.97,-0.03478077,0.74262
509.908,57.26269,-2.97429,-0.0343233,0.7405
512.508,57.51556,-2.97754,-0.03443781,0.73839
515.108,57.76875,-2.98149,-0.03990689,0.73629
517.708,58.02248,-2.98376,-0.03864485,0.73419
520.308,58.27669,-2.98379,-0.03290683,0.7321
522.908,58.53091,-2.98646,-0.03403297,0.73001
525.508,58.78447,-2.99047,-0.03323608,0.72793
528.108,59.039,-2.99169,-0.03249937,0.72585
530.708,59.29286,-2.99301,-0.03459289,0.72379
533.308,59.54746,-2.99465,-0.03487594,0.72172
535.908,59.80158,-2.99728,-0.03818205,0.71967
538.508,60.0563,-2.99959,-0.03959698,0.71762
541.108,60.3116,-3.00024,-0.04443562,0.71558
543.708,60.56714,-3.00091,-0.04274964,0.71354
546.308,60.82245,-3.00353,-0.04616581,0.71152
548.908,61.07821,-3.00584,-0.04827632,0.7095
551.508,61.3346,-3.00686,-0.04836178,0.70748
554.108,61.5907,-3.00815,-0.0459138,0.70548
556.708,61.84678,-3.01013,-0.05249699,0.70348
559.308,62.1027,-3.01013,-0.05373459,0.70149
561.908,62.35856,-3.01341,-0.05306849,0.6995
564.508,62.6155,-3.01638,-0.05899329,0.69753
567.108,62.8727,-3.01634,-0.06199024,0.69556
569.708,63.12944,-3.01768,-0.06444832,0.6936
572.308,63.38615,-3.0194,-0.06615477,0.69164
574.908,63.64298,-3.01897,-0.06906998,0.6897
577.508,63.90002,-3.02035,-0.06852377,0.68776
580.108,64.15684,-3.02559,-0.07106861,0.68583
582.708,64.41342,-3.02447,-0.07328857,0.68391
585.308,64.67095,-3.02557,-0.08468977,0.682
587.908,64.9283,-3.02786,-0.08477133,0.6801
590.508,65.18624,-3.02922,-0.0855068,0.6782
593.108,65.4437,-3.03285,-0.08879849,0.67631
595.708,65.70106,-3.03346,-0.08813578,0.67443
598.308,65.95917,-3.03611,-0.08507731,0.67256
600.908,66.21789,-3.03575,-0.08746687,0.6707
603.508,66.47621,-3.03734,-0.08410518,0.66885
606.108,66.73443,-3.04006,-0.08747804,0.667
608.708,66.993,-3.04171,-0.0864329,0.66517
611.308,67.2525,-3.04303,-0.08399476,0.66334
613.908,67.51139,-3.04467,-0.09074262,0.66152
616.508,67.77035,-3.04467,-0.09081282,0.65971
619.108,68.02999,-3.04671,-0.08995849,0.65791
621.708,68.2897,-3.04894,-0.08182161,0.65612
624.308,68.5498,-3.04895,-0.07369126,0.65433
626.908,68.80968,-3.05157,-0.07921027,0.65256
629.508,69.0694,-3.05355,-0.08482355,0.6508
632.108,69.32975,-3.05355,-0.08025829,0.64904
634.708,69.58965,-3.05487,-0.07730169,0.64729
637.308,69.84996,-3.05487,-0.07654715,0.64556
638.708,69.99025,-3.05618,-0.07954132,0.64463

File: PETG_STA_N2_10KData_210901_R2.csv
##Temp./Â°C,Time/min,Mass loss(subtr.2)/mg,DSC(subtr.2)/(mW/mg),Sensit./(uV/mW)
49.239,10.00917,-0.02863,0.02612376,1.03587
51.839,12.32979,-0.03283138,0.08145095,1.03574
54.439,13.03688,-0.03666641,0.10507,1.03558
57.039,13.59312,-0.03657416,0.12201,1.03539
59.639,14.0861,-0.03824908,0.13736,1.03518
62.239,14.5248,-0.03847916,0.14878,1.03493
64.839,14.9367,-0.03869195,0.16066,1.03465
67.439,15.32182,-0.03848638,0.17097,1.03435
70.039,15.6862,-0.04006931,0.17957,1.03402
72.639,16.0343,-0.04134796,0.18756,1.03366
75.239,16.36965,-0.04004652,0.18705,1.03327
77.839,16.6939,-0.04135201,0.18947,1.03285
80.439,17.0077,-0.04137944,0.18794,1.03241
83.039,17.31445,-0.04135973,0.18829,1.03194
85.639,17.61241,-0.04268969,0.18638,1.03144
88.239,17.90361,-0.04268138,0.18554,1.03091
90.839,18.1881,-0.04366029,0.18673,1.03036
93.439,18.46956,-0.04398733,0.18482,1.02978
96.039,18.74709,-0.04402143,0.18842,1.02917
98.639,19.0197,-0.04399001,0.19144,1.02854
101.239,19.28868,-0.04399003,0.19583,1.02788
103.839,19.55487,-0.04407308,0.20325,1.02719
106.439,19.8169,-0.04399213,0.20928,1.02648
109.039,20.08087,-0.04399,0.21627,1.02574
111.639,20.34103,-0.04400113,0.22508,1.02498
114.239,20.59957,-0.04529913,0.23116,1.02419
116.839,20.85576,-0.04518654,0.23888,1.02338
119.439,21.11003,-0.04528389,0.24436,1.02254
122.039,21.36263,-0.04529043,0.25045,1.02167
124.639,21.61269,-0.04395243,0.25666,1.02079
127.239,21.86308,-0.04528979,0.26053,1.01988
129.839,22.11134,-0.0451367,0.2653,1.01894
132.439,22.3578,-0.04530961,0.26915,1.01798
135.039,22.60141,-0.04431652,0.2747,1.017
137.639,22.84577,-0.04529943,0.27894,1.01599
140.239,23.08768,-0.0465779,0.28406,1.01496
142.839,23.32734,-0.04530001,0.28634,1.0139
145.439,23.5683,-0.04663031,0.29042,1.01283
148.039,23.8074,-0.0464692,0.29385,1.01173
150.639,24.0446,-0.04638991,0.29775,1.01061
153.239,24.2826,-0.04530049,0.3011,1.00946
155.839,24.52016,-0.04529788,0.30394,1.0083
158.439,24.7563,-0.04647631,0.30724,1.00711
161.039,24.99269,-0.04532653,0.30896,1.0059
163.639,25.2288,-0.04530927,0.31103,1.00467
166.239,25.46472,-0.04799074,0.3127,1.00342
168.839,25.7001,-0.04661994,0.31655,1.00214
171.439,25.93445,-0.04661911,0.31546,1.00085
174.039,26.16904,-0.04695,0.31928,0.99954
176.639,26.40393,-0.04664353,0.32264,0.9982
179.239,26.63904,-0.04662,0.32595,0.99685
181.839,26.8739,-0.04630201,0.32738,0.99547
184.439,27.10727,-0.04530971,0.33139,0.99408
187.039,27.3403,-0.04597538,0.33284,0.99267
189.639,27.57307,-0.04398382,0.33578,0.99124
192.239,27.8049,-0.0439903,0.33796,0.98979
194.839,28.03742,-0.04461567,0.34037,0.98832
197.439,28.269,-0.04398527,0.34498,0.98683
200.039,28.50125,-0.04494356,0.34998,0.98532
202.639,28.73345,-0.04398987,0.35197,0.9838
205.239,28.9653,-0.04530854,0.35635,0.98226
207.839,29.1974,-0.0453,0.35939,0.9807
210.439,29.42935,-0.04531,0.36268,0.97912
213.039,29.6616,-0.04625625,0.36964,0.97753
215.639,29.894,-0.04529826,0.37355,0.97592
218.239,30.1259,-0.04531,0.38326,0.97429
220.839,30.35786,-0.04531,0.3896,0.97264
223.439,30.58995,-0.04398993,0.39701,0.97099
226.039,30.8222,-0.04529718,0.4069,0.96931
228.639,31.0544,-0.04357206,0.417,0.96762
231.239,31.2868,-0.04531,0.43367,0.96591
233.839,31.51967,-0.04431702,0.45542,0.96419
236.439,31.75246,-0.0453,0.48306,0.96245
239.039,31.9856,-0.0453289,0.52098,0.9607
241.639,32.21867,-0.04531,0.57269,0.95894
244.239,32.45218,-0.04659603,0.64279,0.95716
246.839,32.686,-0.04399118,0.73644,0.95536
249.439,32.9197,-0.04530985,0.84735,0.95355
252.039,33.1541,-0.0448549,0.94568,0.95173
254.639,33.3876,-0.04531,0.87528,0.9499
257.239,33.6205,-0.04398876,0.63835,0.94805
259.839,33.85313,-0.04463776,0.5078,0.94619
262.439,34.08593,-0.04530548,0.44866,0.94431
265.039,34.31897,-0.04498,0.42352,0.94243
267.639,34.55225,-0.04531043,0.41227,0.94053
270.239,34.78632,-0.04563991,0.40754,0.93862
272.839,35.01984,-0.04531001,0.40496,0.9367
275.439,35.25415,-0.04530026,0.4038,0.93476
278.039,35.48855,-0.04498,0.40352,0.93282
280.639,35.723,-0.04398884,0.40578,0.93087
283.239,35.95797,-0.04399,0.40394,0.9289
285.839,36.1936,-0.04399,0.40748,0.92692
288.439,36.42857,-0.04497,0.40805,0.92494
291.039,36.6642,-0.04497017,0.40704,0.92294
293.639,36.89972,-0.04431,0.40701,0.92093
296.239,37.13499,-0.04266416,0.40691,0.91892
298.839,37.37233,-0.04401199,0.40887,0.91689
301.439,37.6088,-0.04267,0.40972,0.91485
304.039,37.845,-0.04266226,0.40953,0.91281
306.639,38.08222,-0.04268002,0.40937,0.91076
309.239,38.31928,-0.04268,0.41134,0.9087
311.839,38.55684,-0.04191673,0.411,0.90663
314.439,38.7943,-0.04135305,0.4122,0.90455
317.039,39.03154,-0.04234002,0.4115,0.90246
319.639,39.26919,-0.0436608,0.41379,0.90037
322.239,39.50721,-0.04168,0.41303,0.89827
324.839,39.74535,-0.04263936,0.41418,0.89616
327.439,39.98373,-0.04268015,0.41614,0.89405
330.039,40.22248,-0.0427756,0.41473,0.89193
332.639,40.4611,-0.04267853,0.41561,0.8898
335.239,40.70061,-0.04268,0.41694,0.88767
337.839,40.9401,-0.04268023,0.41922,0.88553
340.439,41.17975,-0.04366,0.41973,0.88338
343.039,41.41937,-0.0436632,0.42218,0.88123
345.639,41.65951,-0.04365999,0.42341,0.87908
348.239,41.89951,-0.04464439,0.42466,0.87691
350.839,42.13981,-0.04398971,0.42716,0.87475
353.439,42.38067,-0.04593001,0.42892,0.87258
356.039,42.62182,-0.04498029,0.43055,0.8704
358.639,42.86286,-0.04597032,0.43235,0.86822
361.239,43.10432,-0.04748225,0.43703,0.86604
363.839,43.34532,-0.04821121,0.44074,0.86385
366.439,43.58736,-0.04735198,0.44204,0.86166
369.039,43.82955,-0.04727953,0.44749,0.85946
371.639,44.07202,-0.05123051,0.4517,0.85726
374.239,44.31388,-0.05385656,0.45892,0.85506
376.839,44.5568,-0.06258753,0.47076,0.85286
379.439,44.8001,-0.06933031,0.48505,0.85065
382.039,45.04472,-0.07365029,0.49964,0.84844
384.639,45.28822,-0.07744524,0.50418,0.84623
387.239,45.5332,-0.08599515,0.50431,0.84401
389.839,45.7778,-0.10076,0.50894,0.8418
392.439,46.02254,-0.11461,0.52416,0.83958
395.039,46.26717,-0.13422,0.54239,0.83736
397.639,46.51149,-0.15854,0.55552,0.83514
400.239,46.7567,-0.18507,0.57556,0.83292
402.839,47.0015,-0.21667,0.60306,0.83069
405.439,47.24648,-0.25425,0.63608,0.82847
408.039,47.4923,-0.29871,0.65965,0.82625
410.639,47.73751,-0.34896,0.69356,0.82402
413.239,47.98359,-0.40458,0.73512,0.8218
415.839,48.22976,-0.47429,0.78634,0.81957
418.439,48.47575,-0.55376,0.84552,0.81735
421.039,48.72254,-0.64778,0.91882,0.81512
423.639,48.96985,-0.75677,0.97356,0.8129
426.239,49.2171,-0.88088,1.03516,0.81068
428.839,49.4651,-1.02607,1.1144,0.80846
431.439,49.7133,-1.19301,1.20124,0.80623
434.039,49.9617,-1.37323,1.20613,0.80401
436.639,50.20944,-1.57014,1.21848,0.8018
439.239,50.45818,-1.77903,1.25309,0.79958
441.839,50.70713,-1.99505,1.25411,0.79736
444.439,50.9572,-2.21433,1.22505,0.79515
447.039,51.20773,-2.4289,1.16146,0.79294
449.639,51.45735,-2.64224,1.05534,0.79073
452.239,51.70623,-2.82804,0.90694,0.78852
454.839,51.9534,-2.98463,0.72799,0.78632
457.439,52.20016,-3.10132,0.55447,0.78412
460.039,52.4471,-3.18515,0.42142,0.78192
462.639,52.69465,-3.2467,0.33347,0.77973
465.239,52.943,-3.29518,0.26164,0.77753
467.839,53.1918,-3.33146,0.20064,0.77534
470.439,53.44076,-3.36137,0.15085,0.77316
473.039,53.68995,-3.38462,0.10589,0.77098
475.639,53.9407,-3.40622,0.07768035,0.7688
478.239,54.19113,-3.4231,0.04886519,0.76662
480.839,54.44181,-3.4368,0.03022181,0.76445
483.439,54.69282,-3.44811,0.0144664,0.76229
486.039,54.9439,-3.45857,0.001335974,0.76013
488.639,55.19531,-3.46703,-0.006771519,0.75797
491.239,55.44631,-3.4733,-0.01518365,0.75582
493.839,55.69835,-3.4814,-0.01762281,0.75367
496.439,55.9506,-3.48676,-0.0234508,0.75152
499.039,56.2026,-3.49214,-0.02480819,0.74939
501.639,56.4547,-3.49799,-0.02715465,0.74725
504.239,56.70737,-3.50195,-0.03049534,0.74513
506.839,56.9596,-3.50522,-0.03074436,0.743
509.439,57.21278,-3.50986,-0.03242909,0.74089
512.039,57.4664,-3.51314,-0.03252909,0.73877
514.639,57.72003,-3.51675,-0.03081205,0.73667
517.239,57.97351,-3.51973,-0.02996064,0.73457
519.839,58.22758,-3.52366,-0.02854252,0.73247
522.439,58.4816,-3.52561,-0.03118276,0.73039
525.039,58.7353,-3.52893,-0.0296908,0.7283
527.639,58.989,-3.52927,-0.02858857,0.72623
530.239,59.24354,-3.53223,-0.0294765,0.72416
532.839,59.49819,-3.53486,-0.03123465,0.7221
535.439,59.75331,-3.53628,-0.03776126,0.72004
538.039,60.0087,-3.53947,-0.03842336,0.71799
540.639,60.26419,-3.54083,-0.03959891,0.71595
543.239,60.5191,-3.54276,-0.04231087,0.71391
545.839,60.77457,-3.54407,-0.04577734,0.71188
548.439,61.02992,-3.54539,-0.0487083,0.70986
551.039,61.28535,-3.54873,-0.05311084,0.70785
553.639,61.5413,-3.54893,-0.05749182,0.70584
556.239,61.79684,-3.55058,-0.06247871,0.70384
558.839,62.0524,-3.55344,-0.06773081,0.70185
561.439,62.3086,-3.5546,-0.07009777,0.69986
564.039,62.5655,-3.55723,-0.07035654,0.69788
566.639,62.82193,-3.55986,-0.07368427,0.69591
569.239,63.0784,-3.56119,-0.07167161,0.69395
571.839,63.3353,-3.5625,-0.06854492,0.692
574.439,63.5916,-3.56513,-0.07392412,0.69005
577.039,63.8485,-3.56647,-0.0687183,0.68811
579.639,64.10556,-3.56777,-0.06262579,0.68618
582.239,64.36288,-3.56974,-0.06137382,0.68426
584.839,64.6212,-3.57492,-0.05878638,0.68234
587.439,64.87915,-3.57544,-0.06132376,0.68044
590.039,65.13648,-3.5784,-0.05892564,0.67854
592.639,65.39401,-3.57906,-0.05867521,0.67665
595.239,65.6516,-3.57916,-0.05292264,0.67477
597.839,65.9093,-3.58301,-0.05188662,0.6729
600.439,66.1678,-3.58433,-0.04419169,0.67104
603.039,66.42604,-3.58564,-0.0404509,0.66918
605.639,66.68429,-3.58696,-0.04156854,0.66733
608.239,66.94327,-3.58926,-0.03945361,0.6655
610.839,67.20151,-3.59222,-0.04291005,0.66367
613.439,67.46011,-3.59355,-0.04038066,0.66185
616.039,67.71885,-3.59486,-0.03657533,0.66004
618.639,67.97919,-3.59749,-0.03023643,0.65823
621.239,68.2391,-3.59881,-0.02500427,0.65644
623.839,68.4983,-3.60144,-0.02271434,0.65466
626.439,68.75825,-3.6021,-0.01629993,0.65288
629.039,69.01819,-3.60473,-0.01774445,0.65111
631.639,69.27865,-3.60538,-0.02044833,0.64936
634.239,69.53909,-3.60539,-0.01969136,0.64761
636.839,69.7993,-3.60835,-0.01864035,0.64587
638.739,69.99051,-3.60967,-0.01362799,0.6446