Folder: fsri_materials_database/01_Data/PETG/STA/N2/30K_min (part 2)

File: PETG_STA_N2_30KData_210902_R4.csv
##Temp./Â°C,Time/min,DSC(subtr.2)/(mW/mg),Mass loss(subtr.2)/mg,Sensit./(uV/mW)
49.338,10.01,-0.02118988,0.01042,1.05401
51.838,11.54086,0.06313071,0.00778115,1.05405
54.338,11.89034,0.11648,0.009222889,1.05406
56.838,12.1448,0.16056,0.0101164,1.05404
59.338,12.35806,0.19586,0.01007226,1.05399
61.838,12.54813,0.2278,0.009711925,1.05392
64.338,12.72293,0.25469,0.01255317,1.05381
66.838,12.88675,0.27807,0.0110515,1.05367
69.338,13.0429,0.30011,0.008248571,1.0535
71.838,13.19214,0.32207,0.002881943,1.0533
74.338,13.33686,0.33976,0.01008217,1.05307
76.838,13.4764,0.34791,0.00873989,1.05281
79.338,13.61137,0.34986,0.005302569,1.05252
81.838,13.7423,0.34895,0.005445696,1.05221
84.338,13.86905,0.34657,0.006789971,1.05186
86.838,13.9923,0.35089,0.00673904,1.05149
89.338,14.1119,0.35111,0.0073458,1.05109
91.838,14.2281,0.35702,0.0103537,1.05066
94.338,14.3413,0.36094,0.00869668,1.0502
96.838,14.45188,0.36677,0.0072247,1.04971
99.338,14.55991,0.3743,0.004931738,1.0492
101.838,14.66566,0.38622,0.0052993,1.04865
104.338,14.76939,0.39951,0.006218517,1.04808
106.838,14.87115,0.41512,0.008775202,1.04749
109.338,14.9711,0.43485,0.009315077,1.04686
111.838,15.06979,0.45304,0.008888161,1.04621
114.338,15.1669,0.47428,0.009622241,1.04553
116.838,15.26265,0.4937,0.008244907,1.04483
119.338,15.35687,0.51327,0.00832131,1.04409
121.838,15.4498,0.53339,0.009530403,1.04334
124.338,15.54195,0.55231,0.00854422,1.04255
126.838,15.63234,0.57295,0.006677339,1.04174
129.338,15.72184,0.58927,0.006388817,1.04091
131.838,15.81013,0.60578,0.00723263,1.04005
134.338,15.89722,0.62467,0.00745946,1.03916
136.838,15.98381,0.6397,0.009671517,1.03825
139.338,16.0695,0.65608,0.00933272,1.03732
141.838,16.15413,0.66985,0.009995178,1.03636
144.338,16.2381,0.68532,0.01127602,1.03537
146.838,16.32124,0.69651,0.01241189,1.03437
149.338,16.40348,0.71156,0.009765193,1.03333
151.838,16.48517,0.72386,0.009981363,1.03228
154.338,16.56644,0.7372,0.01195338,1.0312
156.838,16.64696,0.74967,0.01195725,1.0301
159.338,16.72711,0.76371,0.009355035,1.02897
161.838,16.80645,0.77488,0.009426529,1.02782
164.338,16.88545,0.78494,0.00749574,1.02665
166.838,16.96406,0.79826,0.00689892,1.02546
169.338,17.04213,0.80844,0.005576166,1.02424
171.838,17.1195,0.82175,0.008842638,1.023
174.338,17.19663,0.83409,0.01024116,1.02174
176.838,17.27335,0.84685,0.01195523,1.02046
179.338,17.34947,0.85519,0.01196739,1.01916
181.838,17.42509,0.87178,0.01280216,1.01783
184.338,17.50027,0.88241,0.01326883,1.01649
186.838,17.57506,0.89563,0.01194987,1.01513
189.338,17.6494,0.90581,0.00933578,1.01374
191.838,17.72321,0.91776,0.009330001,1.01233
194.338,17.79676,0.92963,0.009337453,1.01091
196.838,17.87,0.94819,0.009650354,1.00946
199.338,17.94304,0.95989,0.009650001,1.008
201.838,18.01572,0.97439,0.009685672,1.00652
204.338,18.08822,0.98746,0.00798192,1.00501
206.838,18.1604,1.00308,0.007999997,1.00349
209.338,18.23245,1.01837,0.008192042,1.00195
211.838,18.30421,1.03792,0.00795966,1.00039
214.338,18.3758,1.05631,0.009330221,0.99882
216.838,18.44715,1.08025,0.009337016,0.99722
219.338,18.51835,1.10294,0.009255061,0.99561
221.838,18.58946,1.12941,0.0106355,0.99398
224.338,18.66017,1.16053,0.01194936,0.99234
226.838,18.73079,1.19967,0.01197073,0.99067
229.338,18.80136,1.24443,0.01097752,0.98899
231.838,18.87164,1.29981,0.01063824,0.9873
234.338,18.9419,1.36863,0.01064068,0.98559
236.838,19.01195,1.46013,0.01195857,0.98386
239.338,19.0819,1.5731,0.0130825,0.98211
241.838,19.15156,1.71738,0.01330864,0.98036
244.338,19.22136,1.89226,0.01195998,0.97858
246.838,19.29107,2.09129,0.01197086,0.97679
249.338,19.36066,2.28007,0.009318605,0.97499
251.838,19.43018,2.33951,0.009319797,0.97317
254.338,19.49956,2.18896,0.01063986,0.97134
256.838,19.56861,1.93675,0.01063996,0.96949
259.338,19.63726,1.71833,0.009280256,0.96763
261.838,19.70591,1.54951,0.00767901,0.96576
264.338,19.77448,1.42884,0.008801038,0.96387
266.838,19.84292,1.34763,0.01060483,0.96198
269.338,19.9113,1.29595,0.01119764,0.96006
271.838,19.97952,1.26568,0.0084154,0.95814
274.338,20.0477,1.24538,0.007899994,0.9562
276.838,20.11598,1.23744,0.00798381,0.95426
279.338,20.18425,1.23123,0.01031932,0.95229
281.838,20.25251,1.22628,0.01165239,0.95032
284.338,20.32068,1.22742,0.01161667,0.94834
286.838,20.3888,1.22496,0.01030993,0.94635
289.338,20.45702,1.22714,0.01165769,0.94434
291.838,20.52521,1.2317,0.01189611,0.94233
294.338,20.59335,1.22837,0.01041967,0.9403
296.838,20.6615,1.23263,0.01043331,0.93827
299.338,20.7295,1.23452,0.009000111,0.93622
301.838,20.79753,1.23893,0.008997724,0.93417
304.338,20.86565,1.24038,0.009294329,0.9321
306.838,20.9337,1.2408,0.01071139,0.93003
309.338,21.00158,1.24259,0.01195931,0.92795
311.838,21.06971,1.24975,0.01196792,0.92586
314.338,21.13769,1.25301,0.008863645,0.92376
316.838,21.20553,1.25586,0.006466301,0.92165
319.338,21.27362,1.25767,0.00680619,0.91954
321.838,21.34175,1.25865,0.009322698,0.91742
324.338,21.40984,1.26109,0.00932,0.91529
326.838,21.47806,1.26559,0.00932,0.91315
329.338,21.5462,1.26459,0.009319977,0.91101
331.838,21.6144,1.26823,0.00957337,0.90885
334.338,21.68262,1.27238,0.01029005,0.9067
336.838,21.7509,1.27411,0.01031309,0.90453
339.338,21.8192,1.27717,0.009716585,0.90237
341.838,21.8874,1.28294,0.008979871,0.90019
344.338,21.95598,1.28587,0.00735134,0.89801
346.838,22.02437,1.28885,0.00735006,0.89582
349.338,22.09291,1.28729,0.008273109,0.89363
351.838,22.1615,1.29155,0.0100925,0.89144
354.338,22.23028,1.29344,0.01009001,0.88924
356.838,22.299,1.29577,0.00880563,0.88703
359.338,22.36776,1.3004,0.008770228,0.88482
361.838,22.43659,1.30653,0.00639611,0.88261
364.338,22.50551,1.31127,0.00514677,0.88039
366.838,22.57457,1.31715,0.00515,0.87817
369.338,22.64378,1.32107,0.005153788,0.87595
371.838,22.71292,1.3259,0.004501291,0.87372
374.338,22.7821,1.3292,0.0045,0.87149
376.838,22.85151,1.33918,0.0045,0.86926
379.338,22.92095,1.3413,0.004499986,0.86702
381.838,22.99044,1.35209,0.00309073,0.86479
384.338,23.05997,1.3622,0.001760004,0.86255
386.838,23.1296,1.37168,0.001760001,0.86031
389.338,23.19939,1.39207,0.001750911,0.85806
391.838,23.2693,1.40907,-0.001096525,0.85582
394.338,23.33915,1.43307,-0.00170579,0.85358
396.838,23.40925,1.45009,-0.00306834,0.85133
399.338,23.47937,1.47484,-0.006623088,0.84908
401.838,23.5496,1.50447,-0.01098167,0.84683
404.338,23.6199,1.52739,-0.01644582,0.84459
406.838,23.69033,1.55497,-0.02174817,0.84234
409.338,23.7609,1.57729,-0.03118228,0.84009
411.838,23.83165,1.59934,-0.03899914,0.83784
414.338,23.9024,1.63623,-0.04766316,0.83559
416.838,23.9732,1.7,-0.06175541,0.83335
419.338,24.04423,1.7515,-0.08432777,0.8311
421.838,24.11519,1.79495,-0.11057,0.82885
424.338,24.18617,1.84067,-0.13824,0.82661
426.838,24.2574,1.90379,-0.17071,0.82437
429.338,24.32862,1.98065,-0.20836,0.82212
431.838,24.39992,2.06064,-0.24893,0.81988
434.338,24.47148,2.15336,-0.29708,0.81765
436.838,24.54315,2.26036,-0.35455,0.81541
439.338,24.61487,2.39166,-0.42131,0.81318
441.838,24.6868,2.52038,-0.49631,0.81094
444.338,24.75893,2.65611,-0.58088,0.80871
446.838,24.831,2.80318,-0.67948,0.80649
449.338,24.90351,2.94727,-0.79206,0.80426
451.838,24.97607,3.07147,-0.9213,0.80204
454.338,25.04885,3.17693,-1.06762,0.79983
456.838,25.1218,3.22282,-1.22107,0.79761
459.338,25.19461,3.23045,-1.39023,0.7954
461.838,25.26771,3.22978,-1.60363,0.7932
464.338,25.34094,3.27815,-1.79468,0.79099
466.838,25.41412,3.30557,-2.0042,0.78879
469.338,25.48736,3.26319,-2.21901,0.7866
471.838,25.56103,3.13377,-2.433,0.78441
474.338,25.6345,2.89516,-2.62376,0.78222
476.838,25.70794,2.57525,-2.79642,0.78004
479.338,25.78152,2.19753,-2.92352,0.77787
481.838,25.85492,1.82577,-3.02615,0.77569
484.338,25.92835,1.49608,-3.10419,0.77353
486.838,26.0019,1.21689,-3.16144,0.77137
489.338,26.07529,0.98926,-3.20494,0.76921
491.838,26.14934,0.8005,-3.24061,0.76706
494.338,26.22327,0.64222,-3.26768,0.76492
496.838,26.29737,0.51005,-3.29139,0.76278
499.338,26.37153,0.39711,-3.30794,0.76064
501.838,26.4459,0.30425,-3.32045,0.75852
504.338,26.5206,0.23064,-3.33283,0.75639
506.838,26.59518,0.17084,-3.34327,0.75428
509.338,26.67006,0.12017,-3.35212,0.75217
511.838,26.7446,0.08179791,-3.3605,0.75007
514.338,26.8195,0.05753311,-3.36961,0.74797
516.838,26.89459,0.0370497,-3.3754,0.74588
519.338,26.9698,0.0240576,-3.37974,0.7438
521.838,27.04505,0.01527448,-3.38355,0.74173
524.338,27.1203,0.003543513,-3.39052,0.73966
526.838,27.19582,0.001220784,-3.39728,0.7376
529.338,27.2713,-0.006053359,-3.40134,0.73555
531.838,27.34708,-0.01072516,-3.40271,0.7335
534.338,27.423,-0.01444908,-3.40655,0.73146
536.838,27.499,-0.01845716,-3.40961,0.72943
539.338,27.57497,-0.01965098,-3.41178,0.72741
541.838,27.65093,-0.01921324,-3.4148,0.72539
544.338,27.72703,-0.01922758,-3.41628,0.72338
546.838,27.8034,-0.02118141,-3.41917,0.72138
549.338,27.8797,-0.02008451,-3.42188,0.71939
551.838,27.9561,-0.01867178,-3.42469,0.71741
554.338,28.03262,-0.02261414,-3.42769,0.71543
556.838,28.1093,-0.02329081,-3.42767,0.71347
559.338,28.186,-0.02434079,-3.43046,0.71151
561.838,28.2627,-0.0225459,-3.43346,0.70956
564.338,28.33935,-0.02282732,-3.43448,0.70762
566.838,28.41641,-0.0213841,-3.43804,0.70568
569.338,28.49345,-0.02313224,-3.44073,0.70376
571.838,28.5706,-0.02645117,-3.44217,0.70185
574.338,28.6477,-0.02687111,-3.4433,0.69994
576.838,28.7248,-0.03065639,-3.44528,0.69804
579.338,28.80224,-0.03284196,-3.44638,0.69615
581.838,28.8798,-0.03474917,-3.44667,0.69427
584.338,28.9574,-0.03525107,-3.44972,0.6924
586.838,29.0348,-0.03610653,-3.45206,0.69054
589.338,29.1124,-0.03823746,-3.455,0.68869
591.838,29.18993,-0.04110295,-3.45632,0.68685
594.338,29.26772,-0.03909993,-3.45763,0.68501
596.838,29.3456,-0.04233712,-3.45988,0.68319
599.338,29.4236,-0.04419446,-3.46044,0.68138
601.838,29.50165,-0.04949512,-3.46423,0.67957
604.338,29.57967,-0.055588,-3.46649,0.67777
606.838,29.658,-0.05934142,-3.46853,0.67599
609.338,29.73638,-0.06316361,-3.47079,0.67421
611.838,29.8146,-0.07029559,-3.46947,0.67245
614.338,29.8932,-0.07444636,-3.47081,0.67069
616.838,29.9719,-0.07551828,-3.47226,0.66894
617.738,29.99997,-0.0796711,-3.47233,0.66831