Folder: fsri_materials_database/01_Data/PETG/STA/N2/3K_min

Note: 01_Data/README.md
# Materials and Products Database
## 01_Data

Raw data generated from each apparatus are included here in plain-text format. The data is organized first by material, next by the short name of test apparatus used, and where applicable additional filtering by test settings.

### material.json

Each material directory contains a json file of the same name as the material. This file links the data stored in the repository as well as data and graphs produced by the accompanying scripts (__02_Scripts__) to the respective landing page for the material on the front-end website.

File: PETG_STA_N2_3KData_210831_R1.csv
##Temp./Â°C,Time/min,Mass loss(subtr.2)/mg,DSC(subtr.2)/(mW/mg),Sensit./(uV/mW)
50.033,10.01,0.00692,-0.01525808,0.99771
52.733,14.02281,0.005716558,0.0146653,0.99977
55.433,15.60516,0.005840765,0.02561437,1.00175
58.133,16.90444,0.005591702,0.03282642,1.00365
60.833,18.0705,0.00692001,0.03973765,1.00547
63.533,19.15726,0.00658384,0.04230007,1.00721
66.233,20.195,0.00855523,0.04362376,1.00888
68.933,21.19593,0.008566019,0.04461789,1.01047
71.633,22.1706,0.00687158,0.04299606,1.01198
74.333,23.13233,0.00652764,0.04539966,1.01341
77.033,24.07818,0.007259877,0.04454642,1.01477
79.733,25.01502,0.006260005,0.04246203,1.01605
82.433,25.94349,0.006920184,0.04202053,1.01726
85.133,26.86263,0.00559496,0.04073805,1.01839
87.833,27.7697,0.006260303,0.03963312,1.01944
90.533,28.67492,0.004940086,0.03717543,1.02043
93.233,29.57248,0.00626,0.03901744,1.02133
95.933,30.4643,0.007174403,0.03776025,1.02217
98.633,31.3504,0.006943124,0.04084389,1.02293
101.333,32.23537,0.007275035,0.04268572,1.02362
104.033,33.11696,0.00725,0.04294543,1.02424
106.733,33.99527,0.008891039,0.04635529,1.02478
109.433,34.87086,0.00823,0.0482586,1.02526
112.133,35.74647,0.008522716,0.04992855,1.02566
114.833,36.622,0.008559053,0.05076671,1.026
117.533,37.4962,0.008749635,0.0538821,1.02626
120.233,38.37096,0.008229683,0.05343169,1.02646
122.933,39.24456,0.008226187,0.05583582,1.02658
125.633,40.11757,0.00725003,0.0557511,1.02664
128.333,40.98873,0.00626,0.0571587,1.02663
131.033,41.85785,0.006919939,0.05875061,1.02656
133.733,42.7226,0.00658,0.05980872,1.02642
136.433,43.5862,0.007571621,0.06044902,1.02621
139.133,44.44856,0.00856,0.06102842,1.02594
141.833,45.31007,0.008229978,0.06247988,1.0256
144.533,46.1676,0.007563485,0.06227074,1.0252
147.233,47.0278,0.00674528,0.06318475,1.02474
149.933,47.8883,0.005281799,0.06405106,1.02421
152.633,48.74564,0.00659,0.06408307,1.02362
155.333,49.60226,0.00394963,0.06274927,1.02297
158.033,50.4574,0.005141181,0.06262132,1.02226
160.733,51.31558,0.006305231,0.06448472,1.02148
163.433,52.1717,0.007570323,0.06497792,1.02065
166.133,53.0301,0.006260024,0.06336264,1.01976
168.833,53.8867,0.00758735,0.06445412,1.01881
171.533,54.74326,0.007580012,0.06507977,1.0178
174.233,55.5968,0.007829695,0.06191763,1.01674
176.933,56.45202,0.007569816,0.06478626,1.01561
179.633,57.30591,0.00725,0.06576305,1.01444
182.333,58.16211,0.00691,0.0662304,1.0132
185.033,59.01769,0.00626,0.06694377,1.01191
187.733,59.8708,0.00520656,0.06656199,1.01057
190.433,60.72509,0.004940066,0.06626363,1.00918
193.133,61.5772,0.00592998,0.06666884,1.00773
195.833,62.42804,0.00754936,0.0695465,1.00623
198.533,63.2821,0.008599814,0.06984685,1.00468
201.233,64.1344,0.008883181,0.06896168,1.00308
203.933,64.98674,0.00823,0.06793441,1.00142
206.633,65.83841,0.006362497,0.06951742,0.99972
209.333,66.69355,0.008239416,0.06889276,0.99797
212.033,67.5463,0.00659,0.07387597,0.99618
214.733,68.401,0.00631679,0.07418484,0.99433
217.433,69.25287,0.007236733,0.075496,0.99244
220.133,70.10515,0.008890472,0.07465556,0.9905
222.833,70.9597,0.009549999,0.07860655,0.98852
225.533,71.81277,0.0079,0.07774196,0.9865
228.233,72.6683,0.00791001,0.08273455,0.98443
230.933,73.52351,0.008299176,0.08418675,0.98231
233.633,74.37813,0.0079,0.08901201,0.98016
236.333,75.23475,0.006590001,0.09298311,0.97796
239.033,76.0899,0.007909981,0.10067,0.97573
241.733,76.94451,0.00692,0.1143,0.97345
244.433,77.80078,0.00757,0.13227,0.97113
247.133,78.6566,0.006580071,0.15977,0.96878
249.833,79.5152,0.006249745,0.19786,0.96639
252.533,80.374,0.005524246,0.24613,0.96396
255.233,81.2334,0.004943455,0.27019,0.96149
257.933,82.0887,0.004620401,0.17077,0.95899
260.633,82.94279,0.00429,0.10557,0.95645
263.333,83.79881,0.00453089,0.09172834,0.95388
266.033,84.65374,0.005270036,0.08641138,0.95128
268.733,85.51126,0.00558179,0.08369064,0.94864
271.433,86.36991,0.0055998,0.07934637,0.94598
274.133,87.22797,0.006258527,0.07983545,0.94328
276.833,88.08707,0.00527,0.08152275,0.94055
279.533,88.94644,0.00558999,0.08270326,0.93779
282.233,89.80755,0.00396,0.08294829,0.935
284.933,90.6671,0.00231058,0.083585,0.93218
287.633,91.52815,0.001609605,0.08571731,0.92934
290.333,92.39149,0.00329,0.08542106,0.92646
293.033,93.2521,0.00263,0.08427402,0.92357
295.733,94.1138,0.000673858,0.08452246,0.92064
298.433,94.97718,0.0009999877,0.08460448,0.9177
301.133,95.84107,-0.0009813537,0.08631532,0.91473
303.833,96.7073,0.00165,0.08854376,0.91173
306.533,97.5703,0.001636586,0.08887109,0.90872
309.233,98.43396,-0.0006427659,0.08897574,0.90568
311.933,99.29696,-0.001318511,0.09120141,0.90262
314.633,100.159,-0.001990984,0.09381188,0.89954
317.333,101.025,-0.0002718552,0.09437394,0.89644
320.033,101.891,-0.0009805846,0.09191761,0.89332
322.733,102.759,-0.001685209,0.09525338,0.89019
325.433,103.6253,-0.002966257,0.09620888,0.88704
328.133,104.491,-0.002944615,0.09549907,0.88387
330.833,105.359,-0.003910915,0.09865111,0.88068
333.533,106.229,-0.00592,0.10004,0.87748
336.233,107.096,-0.008220065,0.10065,0.87427
338.933,107.967,-0.00954,0.10059,0.87104
341.633,108.8379,-0.01118153,0.1056,0.8678
344.333,109.709,-0.01480957,0.10474,0.86454
347.033,110.581,-0.01841999,0.10828,0.86128
349.733,111.453,-0.02104931,0.11109,0.858
352.433,112.326,-0.02401374,0.11907,0.85472
355.133,113.201,-0.02664016,0.12558,0.85142
357.833,114.077,-0.03225037,0.13062,0.84812
360.533,114.951,-0.04049637,0.13829,0.8448
363.233,115.827,-0.05173713,0.14709,0.84148
365.933,116.702,-0.06459989,0.1537,0.83815
368.633,117.579,-0.08037175,0.14542,0.83482
371.333,118.457,-0.10059,0.15232,0.83148
374.033,119.337,-0.12417,0.16428,0.82814
376.733,120.217,-0.15041,0.17166,0.82479
379.433,121.095,-0.18434,0.18581,0.82144
382.133,121.974,-0.22719,0.19974,0.81808
384.833,122.854,-0.27658,0.21142,0.81473
387.533,123.733,-0.33539,0.21999,0.81137
390.233,124.61,-0.40055,0.23464,0.80801
392.933,125.488,-0.47508,0.25141,0.80465
395.633,126.37,-0.56361,0.26688,0.80129
398.333,127.252,-0.66554,0.28925,0.79793
401.033,128.135,-0.78822,0.31225,0.79458
403.733,129.0177,-0.92646,0.33593,0.79122
406.433,129.899,-1.08765,0.35527,0.78787
409.133,130.78,-1.27062,0.37546,0.78452
411.833,131.664,-1.48032,0.39174,0.78118
414.533,132.549,-1.70875,0.40388,0.77784
417.233,133.432,-1.95354,0.40795,0.77451
419.933,134.316,-2.20525,0.39983,0.77118
422.633,135.203,-2.44883,0.37395,0.76786
425.333,136.088,-2.66514,0.32778,0.76454
428.033,136.973,-2.84277,0.2722,0.76123
430.733,137.8576,-2.97294,0.20973,0.75793
433.433,138.743,-3.06754,0.166,0.75464
436.133,139.63,-3.13739,0.13518,0.75136
438.833,140.517,-3.19105,0.11091,0.74809
441.533,141.405,-3.22887,0.09316598,0.74483
444.233,142.294,-3.2608,0.07752616,0.74157
446.933,143.182,-3.28494,0.06224261,0.73833
449.633,144.069,-3.30763,0.05784427,0.73511
452.333,144.961,-3.32349,0.05583466,0.73189
455.033,145.851,-3.34027,0.05209308,0.72869
457.733,146.743,-3.35307,0.04813327,0.7255
460.433,147.634,-3.36355,0.0337244,0.72232
463.133,148.524,-3.37219,0.03280907,0.71916
465.833,149.416,-3.37879,0.006665612,0.71601
468.533,150.31,-3.38525,-0.01063785,0.71288
471.233,151.209,-3.39446,-0.02837629,0.70977
473.933,152.105,-3.39873,-0.02916266,0.70667
476.633,152.997,-3.40259,-0.02464676,0.70358
479.333,153.894,-3.40827,-0.01878139,0.70052
482.033,154.791,-3.41287,-0.01527414,0.69747
484.733,155.685,-3.41481,-0.01240248,0.69444
487.433,156.582,-3.42011,-0.008570181,0.69143
490.133,157.479,-3.42242,-0.01061115,0.68843
492.833,158.379,-3.4267,-0.0004118685,0.68546
495.533,159.279,-3.42934,-0.001197707,0.68251
498.233,160.178,-3.43196,-0.000715231,0.67957
500.933,161.079,-3.43788,0.001305839,0.67666
503.633,161.983,-3.43851,0.00373147,0.67376
506.333,162.883,-3.44018,0.00454755,0.67089
509.033,163.781,-3.44414,0.002002608,0.66804
511.733,164.685,-3.44545,0.005766508,0.66521
514.433,165.584,-3.44579,0.005514808,0.66241
517.133,166.488,-3.44672,0.007523509,0.65962
519.833,167.392,-3.45006,0.01109291,0.65686
522.533,168.295,-3.45205,0.009007862,0.65412
525.233,169.195,-3.45496,0.006978429,0.65141
527.933,170.1,-3.46092,0.004171538,0.64872
530.633,171.006,-3.46256,0.004957277,0.64605
533.333,171.909,-3.46257,0.00583446,0.64341
536.033,172.812,-3.46991,-0.001238115,0.6408
538.733,173.72,-3.47025,-0.006934495,0.63821
541.433,174.627,-3.47156,-0.01419353,0.63564
544.133,175.54,-3.46981,-0.01059758,0.6331
546.833,176.448,-3.47409,-0.001090544,0.63059
549.533,177.356,-3.47672,-0.00133208,0.6281
552.233,178.268,-3.48066,-0.005505449,0.62564
554.933,179.18,-3.48101,-0.008801546,0.6232
557.633,180.091,-3.48393,-0.01565128,0.62079
560.333,180.999,-3.48627,-0.01044705,0.61841
563.033,181.906,-3.48889,-0.00773144,0.61606
565.733,182.818,-3.49088,-0.005114802,0.61373
568.433,183.729,-3.49284,-0.004357303,0.61144
571.133,184.641,-3.4958,0.006153053,0.60917
573.833,185.555,-3.49711,0.00410255,0.60692
576.533,186.467,-3.50002,0.001916311,0.60471
579.233,187.379,-3.50236,0.01234575,0.60253
581.933,188.295,-3.50469,0.01649425,0.60037
584.633,189.207,-3.50512,0.01361055,0.59824
587.333,190.12,-3.5105,0.01009717,0.59615
590.033,191.0358,-3.5105,0.01042859,0.59408
592.733,191.952,-3.5128,0.007662395,0.59204
595.433,192.866,-3.51379,0.01444445,0.59003
598.133,193.781,-3.51544,0.01619437,0.58805
600.833,194.694,-3.51644,0.01856043,0.5861
603.533,195.612,-3.52037,0.01956665,0.58418
606.233,196.5265,-3.52169,0.01049423,0.58229
608.933,197.444,-3.52169,0.01663232,0.58042
611.633,198.366,-3.52358,0.02757557,0.57859
614.333,199.282,-3.52654,0.03097921,0.57679
617.033,200.198,-3.52563,0.03077387,0.57502
619.733,201.116,-3.52904,0.03258638,0.57328
622.433,202.034,-3.53068,0.03977368,0.57158
625.133,202.952,-3.53265,0.05243697,0.5699
627.833,203.8711,-3.53331,0.05808925,0.56825
630.533,204.7894,-3.53398,0.05561824,0.56663
633.233,205.706,-3.53594,0.05408323,0.56504
635.933,206.621,-3.53791,0.04926598,0.56349
638.633,207.539,-3.53725,0.05345919,0.56196
641.333,208.46,-3.53627,0.04833395,0.56047
644.033,209.384,-3.537,0.05537419,0.559
645.833,209.9983,-3.53726,0.06435858,0.55804