Folder: fsri_materials_database/01_Data/Lightweight_Gypsum_Wallboard_Unpainted_Paper/MCC

Note: 01_Data/README.md
# Materials and Products Database
## 01_Data

Raw data generated from each apparatus are included here in plain-text format. The data is organized first by material, next by the short name of test apparatus used, and where applicable additional filtering by test settings.

### material.json

Each material directory contains a json file of the same name as the material. This file links the data stored in the repository as well as data and graphs produced by the accompanying scripts (__02_Scripts__) to the respective landing page for the material on the front-end website.

File: Lightweight_Gypsum_Wallboard_Unpainted_Paper_MCC_30K_min_211130_R1.txt
Sample ID:	C:\MCC\MCC Cal\Test\LW_GypBoard_Unpainted_Paper_MCC_30K_min_211130_R1.txt
Sample Weight (mg):	4.13
Heating Rate (C/s):	0.5
Combustor Temp (C):	900
N2 Flow Rate (cc/min):	80
O2 Flow Rate (cc/min):	20
Calibration File:	C:\MCC\MCC Cal\Coeff1 JN10440_30_210304.txt.txt
T Correction Coefficients:	0	1.024463	0
Time Shift (s):	14
*
Time (s)	Temperature (C)	N2 flow rate (cc/min)	O2 flow rate (cc/min)	Flow Rate (cc/min)	Oxygen (%)	HRR (W/g)	Heating rate (C/s)
0.000	111.332	80.006	19.994	103.132	20.058	-0.331	-0.016
8.000	111.366	80.009	19.994	103.135	20.056	-0.165	0.000
16.001	111.297	80.008	19.994	103.134	20.052	0.167	0.001
24.001	111.262	80.007	19.994	103.194	20.048	0.469	-0.022
32.001	111.494	80.008	19.994	103.212	20.041	1.027	0.038
40.001	111.948	80.007	19.994	103.284	20.029	1.912	0.080
48.001	112.754	80.004	19.995	103.305	20.023	2.400	0.112
56.001	113.935	80.006	19.995	103.306	20.021	2.580	0.143
64.001	115.465	80.009	19.993	103.327	20.019	2.726	0.213
72.000	117.341	80.009	19.993	103.330	20.015	3.044	0.280
80.000	119.436	80.007	19.994	103.368	20.011	3.363	0.278
88.001	121.877	80.006	19.995	103.369	20.008	3.538	0.357
96.001	124.578	80.008	19.993	103.372	20.007	3.638	0.359
104.000	127.550	80.006	19.994	103.408	20.005	3.773	0.391
112.001	130.649	80.006	19.995	103.387	20.005	3.833	0.369
120.001	133.980	80.006	19.994	103.383	20.009	3.490	0.423
128.000	137.436	80.006	19.994	103.391	20.004	3.871	0.420
136.000	141.013	80.005	19.994	103.386	20.005	3.774	0.439
144.000	144.731	80.007	19.995	103.373	20.008	3.586	0.459
152.000	148.485	80.004	19.995	103.367	20.005	3.813	0.497
160.000	152.339	80.006	19.994	103.370	20.005	3.783	0.492
168.000	156.153	80.007	19.994	103.372	20.006	3.749	0.495
176.000	160.080	80.007	19.994	103.356	20.007	3.626	0.482
184.000	164.080	80.006	19.994	103.371	20.013	3.211	0.527
192.000	168.069	80.010	19.993	103.357	20.012	3.253	0.497
200.000	172.051	80.010	19.994	103.361	20.011	3.335	0.518
208.000	176.016	80.008	19.995	103.343	20.010	3.392	0.473
216.000	180.018	80.006	19.995	103.336	20.010	3.394	0.517
224.000	184.025	80.007	19.995	103.338	20.006	3.741	0.516
232.000	188.084	80.006	19.995	103.332	20.005	3.777	0.476
240.000	192.062	80.005	19.995	103.333	20.009	3.503	0.492
248.000	196.086	80.005	19.996	103.332	20.009	3.460	0.512
256.000	200.066	80.009	19.994	103.331	20.011	3.342	0.526
264.000	204.010	80.007	19.995	103.328	20.014	3.117	0.498
272.001	208.021	80.008	19.995	103.322	20.009	3.510	0.510
280.000	212.026	80.010	19.995	103.298	20.007	3.672	0.505
288.000	215.959	80.010	19.995	103.305	20.010	3.438	0.486
296.000	219.890	80.008	19.993	103.328	20.007	3.636	0.475
304.000	223.877	80.004	19.995	103.316	20.001	4.149	0.506
312.000	227.874	80.007	19.995	103.313	19.998	4.327	0.487
320.000	231.876	80.008	19.995	103.327	19.995	4.563	0.473
328.000	235.871	80.006	19.995	103.313	19.986	5.320	0.493
336.000	239.821	80.006	19.996	103.317	19.983	5.543	0.473
344.000	243.819	80.009	19.995	103.324	19.978	5.944	0.490
352.000	247.837	80.008	19.994	103.325	19.971	6.450	0.509
360.000	251.927	80.009	19.994	103.324	19.960	7.317	0.539
368.000	256.027	80.010	19.994	103.332	19.955	7.732	0.496
376.000	260.071	80.007	19.995	103.330	19.943	8.617	0.531
384.000	264.073	80.008	19.995	103.337	19.926	9.968	0.493
392.001	268.097	80.007	19.995	103.339	19.911	11.185	0.523
400.000	272.132	80.007	19.995	103.334	19.886	13.141	0.521
408.000	276.146	80.005	19.995	103.364	19.863	14.872	0.484
416.000	280.151	80.008	19.994	103.368	19.838	16.866	0.485
424.000	284.137	80.009	19.994	103.389	19.807	19.300	0.507
432.000	288.167	80.007	19.996	103.396	19.777	21.626	0.500
440.000	292.195	80.007	19.996	103.408	19.736	24.814	0.506
448.000	296.209	80.009	19.994	103.413	19.702	27.454	0.508
456.001	300.184	80.008	19.994	103.428	19.663	30.542	0.475
464.000	304.246	80.006	19.994	103.445	19.627	33.327	0.471
472.000	308.292	80.007	19.994	103.445	19.591	36.151	0.486
480.000	312.326	80.006	19.993	103.449	19.560	38.637	0.516
488.000	316.152	80.006	19.995	103.465	19.526	41.284	0.265
496.000	320.519	80.006	19.994	103.478	19.489	44.149	0.515
504.000	324.485	80.007	19.994	103.488	19.449	47.257	0.512
512.000	328.497	80.006	19.995	103.492	19.405	50.738	0.505
520.000	332.452	80.008	19.995	103.519	19.350	55.077	0.511
528.000	336.427	80.009	19.995	103.535	19.295	59.396	0.486
536.000	340.445	80.009	19.995	103.614	19.225	64.846	0.502
544.001	344.429	80.007	19.994	103.572	19.171	69.092	0.519
552.000	348.477	80.007	19.995	103.594	19.110	73.882	0.535
560.000	352.556	80.006	19.995	103.591	19.077	76.386	0.519
568.000	356.632	80.006	19.994	103.558	19.080	76.152	0.508
576.000	360.734	80.006	19.994	103.502	19.153	70.407	0.505
584.000	364.793	80.006	19.993	103.440	19.277	60.623	0.493
592.000	368.929	80.008	19.994	103.362	19.448	47.265	0.500
600.000	373.000	80.006	19.995	103.293	19.624	33.511	0.505
608.000	377.080	80.007	19.995	103.267	19.775	21.756	0.504
616.000	381.133	80.009	19.994	103.249	19.879	13.612	0.497
624.000	385.223	80.008	19.995	103.269	19.930	9.682	0.520
632.000	389.276	80.005	19.994	103.253	19.955	7.673	0.494
640.000	393.357	80.007	19.994	103.251	19.957	7.534	0.522
648.000	397.392	80.007	19.993	103.255	19.961	7.216	0.484
656.000	401.415	80.004	19.993	103.213	19.960	7.318	0.497
664.000	405.450	80.005	19.994	103.250	19.963	7.071	0.511
672.000	409.460	80.010	19.995	103.250	19.969	6.614	0.472
680.000	413.517	80.007	19.994	103.251	19.966	6.843	0.503
688.000	417.489	80.006	19.994	103.251	19.971	6.451	0.505
696.000	421.609	80.007	19.994	103.251	19.971	6.427	0.542
704.000	425.686	80.007	19.994	103.292	19.973	6.293	0.536
712.000	429.767	80.005	19.995	103.249	19.976	6.040	0.483
720.000	433.928	80.006	19.995	103.248	19.981	5.691	0.499
728.000	438.085	80.007	19.995	103.247	19.987	5.205	0.515
736.000	442.179	80.006	19.994	103.245	19.992	4.837	0.524
744.000	446.244	80.006	19.994	103.249	19.990	4.961	0.493
752.000	450.348	80.006	19.993	103.236	19.994	4.677	0.515
760.000	454.434	80.008	19.995	103.241	19.995	4.590	0.518
768.000	458.525	80.008	19.993	103.248	20.002	4.037	0.522
776.000	462.545	80.009	19.993	103.234	20.001	4.103	0.501
784.000	466.623	80.009	19.994	103.232	20.004	3.855	0.508
792.000	470.707	80.007	19.995	103.255	20.008	3.551	0.513
800.000	474.818	80.006	19.995	103.229	20.011	3.354	0.499
808.000	478.916	80.006	19.994	103.216	20.015	3.042	0.512
816.000	483.022	80.006	19.995	103.230	20.014	3.104	0.506
824.000	487.156	80.008	19.995	103.220	20.014	3.083	0.490
832.000	491.190	80.007	19.995	103.245	20.014	3.128	0.510
840.000	495.330	80.008	19.993	103.232	20.017	2.834	0.543
848.000	499.440	80.008	19.994	103.217	20.017	2.862	0.505
856.000	503.606	80.009	19.993	103.219	20.021	2.586	0.523
864.000	507.667	80.011	19.993	103.224	20.020	2.667	0.466
872.000	511.854	80.008	19.993	103.221	20.019	2.678	0.527
880.000	515.938	80.007	19.995	103.212	20.022	2.464	0.497
888.000	520.040	80.007	19.994	103.230	20.023	2.406	0.496
896.000	524.216	80.007	19.993	103.219	20.028	2.007	0.534
904.000	528.251	80.007	19.995	103.216	20.027	2.113	0.508
912.000	532.368	80.006	19.995	103.217	20.026	2.184	0.529
920.000	536.540	80.008	19.995	103.224	20.022	2.453	0.521
928.000	540.614	80.008	19.994	103.222	20.026	2.171	0.512
936.000	544.692	80.010	19.995	103.224	20.029	1.962	0.516
944.000	548.818	80.009	19.993	103.214	20.032	1.696	0.546
952.000	552.866	80.008	19.994	103.226	20.026	2.197	0.520
960.000	556.975	80.005	19.994	103.218	20.027	2.064	0.521
968.000	560.992	80.005	19.994	103.219	20.031	1.809	0.489
976.000	565.081	80.006	19.993	103.220	20.025	2.229	0.531
984.000	569.174	80.006	19.994	103.212	20.031	1.773	0.486
992.000	573.255	80.008	19.995	103.218	20.030	1.824	0.533
1000.000	577.363	80.007	19.995	103.218	20.032	1.713	0.523
1008.000	581.418	80.009	19.996	103.209	20.034	1.579	0.497
1016.000	585.412	80.008	19.995	103.213	20.026	2.147	0.508
1024.001	589.458	80.010	19.993	103.215	20.030	1.863	0.541
1032.000	593.499	80.008	19.994	103.215	20.031	1.797	0.510
1040.000	597.504	80.006	19.993	103.217	20.036	1.405	0.520
1048.000	601.506	80.006	19.994	103.212	20.032	1.702	0.509
1056.001	605.574	80.006	19.994	103.213	20.033	1.634	0.497
1064.000	609.622	80.008	19.994	103.216	20.029	1.940	0.505
1072.000	613.668	80.006	19.995	103.220	20.032	1.700	0.494
1080.000	617.763	80.007	19.995	103.214	20.035	1.446	0.522
1088.000	621.848	80.007	19.995	103.227	20.031	1.769	0.480
1096.000	625.890	80.008	19.994	103.222	20.037	1.305	0.511
1104.000	629.919	80.006	19.996	103.226	20.032	1.681	0.498
1112.000	633.987	80.010	19.994	103.214	20.031	1.763	0.521
1120.001	638.031	80.008	19.994	103.216	20.035	1.452	0.528
1128.001	642.068	80.007	19.994	103.218	20.030	1.872	0.514
1136.000	646.033	80.008	19.995	103.220	20.029	1.900	0.491
1144.001	649.887	80.007	19.994	103.224	20.027	2.105	0.446
1152.001	653.823	80.007	19.994	103.231	20.033	1.621	0.505
1160.001	657.642	80.006	19.995	103.226	20.028	1.985	0.484
1168.000	661.415	80.008	19.994	103.218	20.033	1.636	0.459
1176.000	665.086	80.007	19.995	103.215	20.031	1.805	0.462
1184.000	669.009	80.007	19.994	103.238	20.034	1.575	0.472
1192.000	673.063	80.008	19.995	103.234	20.032	1.703	0.531
1200.000	677.244	80.008	19.995	103.239	20.026	2.135	0.482
1208.001	681.502	80.006	19.995	103.246	20.025	2.249	0.524
1216.000	685.714	80.006	19.995	103.244	20.026	2.142	0.547
1224.001	689.947	80.006	19.994	103.252	20.030	1.882	0.532
1232.001	694.060	80.006	19.995	103.239	20.031	1.814	0.476
1240.000	698.275	80.006	19.994	103.232	20.025	2.265	0.501
1248.000	702.387	80.008	19.993	103.225	20.029	1.936	0.518
1256.001	706.485	80.008	19.994	103.226	20.025	2.257	0.535
1264.001	710.607	80.008	19.995	103.236	20.027	2.113	0.498
1272.000	714.614	80.008	19.995	103.219	20.025	2.229	0.507
1280.001	718.700	80.008	19.994	103.221	20.025	2.276	0.476
1288.000	722.711	80.006	19.995	103.215	20.026	2.186	0.488
1296.000	726.790	80.005	19.995	103.220	20.024	2.342	0.531
1304.000	730.818	80.007	19.994	103.218	20.027	2.118	0.533
1312.000	734.836	80.007	19.994	103.216	20.026	2.199	0.516
1320.000	738.893	80.006	19.993	103.219	20.022	2.500	0.490
1328.000	742.927	80.008	19.994	103.213	20.021	2.588	0.521
1329.500	743.667	80.008	19.995	103.211	20.023	2.368	0.500