Folder: fsri_materials_database/01_Data/Wood_Veneer_MDF/MCC (part 2)

File: Wood_Veneer_MDF_MCC_30K_min_220315_R3.txt
Sample ID:	C:\MCC\MCC Cal\Test\Wood_Veneer_MDF_MCC_30K_min_220315_R3.txt
Sample Weight (mg):	4.51
Heating Rate (C/s):	0.5
Combustor Temp (C):	900
N2 Flow Rate (cc/min):	80
O2 Flow Rate (cc/min):	20
Calibration File:	C:\MCC\MCC Cal\Coeff1 JN10440_30_210304.txt.txt
T Correction Coefficients:	0	1.024463	0
Time Shift (s):	14
*
Time (s)	Temperature (C)	N2 flow rate (cc/min)	O2 flow rate (cc/min)	Flow Rate (cc/min)	Oxygen (%)	HRR (W/g)	Heating rate (C/s)
-0.001	107.620	80.008	19.998	103.600	20.185	-0.183	-0.017
7.999	107.616	80.010	19.995	103.597	20.183	-0.004	-0.049
15.999	107.686	80.011	19.993	103.604	20.181	0.133	-0.000
23.999	107.673	80.007	19.994	103.692	20.169	0.962	-0.024
31.999	107.953	80.007	19.993	103.714	20.155	2.002	0.045
39.999	108.624	80.007	19.994	103.779	20.150	2.363	0.104
47.999	109.765	80.007	19.994	103.828	20.141	2.983	0.167
56.000	111.317	80.008	19.994	103.829	20.136	3.378	0.230
63.999	113.204	80.004	19.994	103.835	20.137	3.265	0.276
71.999	115.419	80.007	19.992	103.836	20.133	3.589	0.282
79.999	117.879	80.005	19.993	103.855	20.128	3.961	0.314
87.999	120.568	79.998	19.998	103.874	20.125	4.119	0.324
95.999	123.589	80.003	19.994	103.873	20.122	4.403	0.394
103.999	126.744	80.008	19.993	103.888	20.123	4.274	0.414
111.999	130.086	80.005	19.994	103.874	20.120	4.534	0.422
119.999	133.661	80.006	19.994	103.900	20.121	4.417	0.442
127.999	137.368	80.007	19.993	103.879	20.117	4.734	0.476
135.999	141.218	80.005	19.993	103.892	20.117	4.702	0.496
143.999	145.237	80.008	19.994	103.895	20.117	4.712	0.548
151.999	149.228	80.007	19.995	103.879	20.113	4.988	0.534
159.999	153.253	80.007	19.994	103.875	20.119	4.606	0.511
167.999	157.287	80.005	19.994	103.866	20.113	5.015	0.508
175.999	161.357	80.002	19.994	103.874	20.113	5.048	0.529
183.999	165.390	80.005	19.995	103.857	20.115	4.891	0.518
191.999	169.385	80.006	19.993	103.853	20.108	5.343	0.504
199.999	173.372	80.006	19.994	103.856	20.109	5.322	0.502
207.999	177.286	80.007	19.994	103.843	20.103	5.707	0.523
215.999	181.165	80.009	19.993	103.842	20.100	5.960	0.492
223.999	185.108	80.006	19.993	103.847	20.098	6.060	0.496
231.999	189.034	79.998	19.994	103.847	20.090	6.681	0.522
239.999	192.911	80.011	19.995	103.829	20.084	7.090	0.507
247.999	196.807	80.004	19.994	103.856	20.079	7.487	0.467
255.999	200.670	80.011	19.993	103.848	20.071	8.027	0.493
263.999	204.569	80.004	19.995	103.842	20.069	8.186	0.527
271.999	208.518	80.003	19.996	103.849	20.062	8.705	0.492
279.999	212.450	80.018	19.992	103.858	20.055	9.151	0.532
287.999	216.411	80.003	19.994	103.852	20.041	10.199	0.462
296.000	220.523	80.019	19.993	103.865	20.030	10.964	0.543
303.999	224.477	80.003	19.995	103.858	20.021	11.616	0.493
311.999	228.610	80.007	19.993	103.856	20.018	11.814	0.528
319.999	232.666	79.997	19.993	103.854	20.017	11.920	0.503
327.999	236.679	80.015	19.996	103.850	20.014	12.122	0.552
335.999	240.701	80.012	19.994	103.839	20.006	12.679	0.544
343.999	244.662	80.003	19.994	103.849	20.000	13.124	0.497
351.999	248.654	80.007	19.993	103.840	19.990	13.849	0.514
359.999	252.651	80.015	19.993	103.867	19.977	14.779	0.523
367.999	256.562	80.001	19.995	103.867	19.965	15.681	0.507
376.000	260.522	80.015	19.993	103.875	19.949	16.798	0.520
383.999	264.414	80.009	19.991	103.876	19.927	18.393	0.494
391.999	268.422	80.006	19.993	103.879	19.910	19.621	0.496
399.999	272.414	80.007	19.993	103.888	19.888	21.213	0.520
407.999	276.360	80.007	19.994	103.905	19.862	23.060	0.503
415.999	280.338	80.005	19.992	103.911	19.833	25.180	0.497
423.999	284.340	80.004	19.996	103.915	19.807	27.009	0.502
431.999	288.378	80.002	19.992	103.933	19.781	28.918	0.512
439.999	292.456	80.001	19.994	103.934	19.752	30.982	0.506
447.999	296.515	80.014	19.994	103.929	19.723	33.030	0.554
455.999	300.517	80.003	19.995	103.939	19.697	34.955	0.469
464.000	304.516	80.011	19.995	103.939	19.666	37.131	0.500
472.000	308.548	80.004	19.994	103.945	19.637	39.258	0.532
480.000	312.567	80.007	19.993	103.951	19.606	41.467	0.507
487.999	316.601	80.007	19.993	103.963	19.581	43.271	0.487
496.000	320.660	80.006	19.992	103.983	19.545	45.889	0.500
503.999	324.778	80.000	19.995	103.988	19.507	48.659	0.503
511.999	328.863	80.004	19.993	103.998	19.466	51.606	0.509
519.999	333.000	80.011	19.993	104.028	19.417	55.111	0.534
527.999	337.030	79.998	19.995	104.044	19.364	58.934	0.509
535.999	341.125	79.995	19.994	104.069	19.306	63.116	0.499
544.000	345.121	80.010	19.993	104.067	19.249	67.263	0.513
551.999	349.007	79.996	19.995	104.074	19.208	70.162	0.487
559.999	353.054	80.011	19.995	104.052	19.184	71.894	0.545
567.999	356.962	79.999	19.997	104.059	19.189	71.504	0.481
575.999	360.929	80.025	19.990	104.005	19.248	67.225	0.495
583.999	364.856	79.996	19.993	103.951	19.360	59.078	0.509
592.000	368.829	80.005	19.994	103.862	19.514	48.028	0.528
600.000	372.829	80.008	19.994	103.816	19.677	36.293	0.493
608.000	376.846	80.004	19.996	103.783	19.810	26.756	0.509
615.999	380.959	79.999	19.994	103.776	19.894	20.723	0.538
624.000	385.061	80.006	19.994	103.772	19.937	17.656	0.521
631.999	389.168	80.009	19.994	103.781	19.953	16.521	0.545
639.999	393.238	80.012	19.993	103.777	19.964	15.712	0.490
647.999	397.361	80.013	19.993	103.773	19.971	15.190	0.534
656.000	401.413	80.020	19.993	103.773	19.974	15.013	0.472
663.999	405.403	79.997	19.996	103.773	19.976	14.860	0.465
671.999	409.395	80.009	19.993	103.755	19.978	14.715	0.504
679.999	413.279	80.007	19.994	103.760	19.981	14.463	0.470
687.999	417.117	79.996	19.996	103.770	19.987	14.028	0.451
695.999	421.078	80.011	19.993	103.751	19.986	14.137	0.483
703.999	424.929	80.012	19.992	103.762	19.989	13.907	0.492
712.000	428.907	80.009	19.995	103.767	19.989	13.914	0.517
719.999	432.893	80.006	19.993	103.772	19.991	13.736	0.499
728.000	436.936	80.007	19.993	103.750	19.991	13.783	0.486
735.999	440.798	80.006	19.994	103.761	19.995	13.463	0.478
743.999	444.601	80.006	19.994	103.751	19.995	13.513	0.463
752.000	448.453	80.003	19.994	103.754	19.994	13.571	0.503
760.000	452.283	80.007	19.995	103.752	19.995	13.501	0.493
768.000	456.198	80.010	19.993	103.754	20.000	13.100	0.475
775.999	460.180	80.003	19.992	103.755	20.004	12.805	0.493
783.999	464.219	80.010	19.993	103.755	20.001	13.057	0.512
791.999	468.190	80.008	19.993	103.758	20.004	12.837	0.498
799.999	472.252	80.008	19.993	103.761	20.005	12.736	0.489
807.999	476.419	80.008	19.994	103.769	20.004	12.825	0.516
815.999	480.481	80.007	19.993	103.754	20.006	12.659	0.517
823.999	484.510	80.004	19.995	103.753	20.008	12.528	0.455
832.000	488.480	80.007	19.994	103.747	20.003	12.893	0.477
840.000	492.320	80.005	19.994	103.741	20.012	12.256	0.422
847.999	496.276	80.007	19.994	103.741	20.012	12.271	0.487
855.999	500.467	80.009	19.995	103.768	20.005	12.743	0.532
863.999	504.736	80.006	19.994	103.780	20.009	12.477	0.551
871.999	509.154	80.008	19.993	103.762	20.004	12.852	0.567
879.999	513.390	80.008	19.993	103.753	20.004	12.803	0.499
887.999	517.674	80.007	19.994	103.749	20.006	12.656	0.507
895.999	521.822	80.005	19.992	103.749	20.004	12.860	0.524
903.999	525.840	80.007	19.993	103.753	20.011	12.335	0.506
911.999	529.863	80.006	19.994	103.752	20.007	12.621	0.509
919.999	533.868	80.004	19.994	103.763	20.002	12.985	0.475
927.999	538.029	80.006	19.996	103.756	20.002	12.965	0.529
935.999	542.303	80.009	19.994	103.749	20.003	12.934	0.545
943.999	546.451	80.007	19.994	103.758	20.003	12.928	0.515
951.999	550.639	80.008	19.994	103.736	20.002	12.968	0.516
960.000	554.724	80.008	19.993	103.750	19.999	13.175	0.547
968.000	558.892	80.009	19.993	103.751	19.997	13.324	0.534
975.999	563.008	80.007	19.992	103.753	19.998	13.290	0.509
983.999	567.155	80.003	19.995	103.756	19.996	13.377	0.547
991.999	571.371	80.007	19.994	103.745	19.996	13.419	0.517
999.999	575.632	80.008	19.996	103.752	19.997	13.351	0.523
1007.999	579.706	80.004	19.994	103.741	19.995	13.450	0.508
1015.999	583.834	80.008	19.996	103.751	19.996	13.409	0.506
1023.999	587.946	80.009	19.994	103.749	19.985	14.230	0.503
1032.000	592.115	80.008	19.994	103.743	19.984	14.251	0.503
1039.999	596.277	80.008	19.995	103.752	19.987	14.043	0.519
1048.000	600.434	80.008	19.996	103.748	19.984	14.269	0.523
1055.999	604.559	80.004	19.995	103.699	19.986	14.148	0.516
1063.999	608.667	80.008	19.993	103.750	19.982	14.381	0.533
1071.999	612.722	80.008	19.994	103.751	19.979	14.621	0.529
1079.999	616.756	80.010	19.996	103.748	19.974	14.973	0.455
1088.000	620.816	80.007	19.997	103.743	19.974	14.991	0.497
1096.000	624.895	80.014	19.989	103.741	19.973	15.059	0.523
1103.999	629.010	80.009	19.993	103.751	19.972	15.098	0.563
1111.999	633.127	80.004	19.997	103.751	19.969	15.345	0.516
1120.000	637.274	80.008	19.990	103.755	19.967	15.511	0.498
1128.000	641.389	80.008	19.992	103.746	19.965	15.635	0.525
1135.999	645.449	80.010	19.990	103.744	19.967	15.524	0.494
1143.999	649.548	80.007	19.996	103.742	19.973	15.053	0.527
1152.000	653.705	80.007	19.995	103.747	19.967	15.481	0.531
1159.999	657.911	80.006	19.994	103.747	19.967	15.460	0.542
1167.999	662.054	80.007	19.995	103.756	19.965	15.655	0.523
1175.999	666.187	80.003	19.996	103.749	19.965	15.658	0.520
1183.999	670.317	80.007	19.990	103.754	19.966	15.584	0.495
1192.000	674.383	80.007	19.992	103.731	19.958	16.138	0.490
1200.000	678.427	80.005	19.994	103.734	19.957	16.177	0.513
1207.999	682.335	80.015	19.991	103.726	19.961	15.905	0.514
1215.999	686.201	80.011	19.992	103.732	19.958	16.157	0.462
1224.000	690.150	80.009	19.993	103.742	19.954	16.454	0.472
1231.999	694.134	80.008	19.989	103.738	19.950	16.694	0.531
1240.000	698.153	80.007	19.994	103.721	19.951	16.641	0.516
1247.999	702.160	80.006	19.995	103.718	19.950	16.680	0.512
1255.999	706.144	80.006	19.995	103.748	19.947	16.944	0.499
1263.999	710.227	80.010	19.994	103.739	19.946	16.960	0.548
1271.999	714.297	80.010	19.994	103.735	19.944	17.149	0.526
1279.999	718.354	80.009	19.994	103.743	19.936	17.693	0.503
1288.000	722.338	80.009	19.994	103.737	19.935	17.765	0.528
1295.999	726.278	80.010	19.993	103.717	19.935	17.802	0.486
1303.999	730.372	80.008	19.993	103.748	19.937	17.647	0.540
1311.999	734.500	80.006	19.994	103.736	19.933	17.920	0.516
1319.999	738.482	80.007	19.993	103.725	19.935	17.808	0.495
1327.999	742.581	80.007	19.993	103.738	19.931	18.075	0.535
1329.999	743.620	80.007	19.995	103.742	19.939	17.492	0.544