Folder: fsri_materials_database/01_Data/FRP_Panel/Cone (part 2)

File: FRP_Panel_Cone_HF25Scan_220919_R3.csv
Names,Time,Stack TC,Smoke TC,Exh Press,Smoke Comp,Smoke Meas,CO Meter,CO2 Meter,O2 Meter,Sample Mass,Ext Coeff,Start Test,Flame Verif
Chan Gain,,500,500,1,1,1,1,1,1,1,1,1.0,1.0
Offset,,0,0,0.143022,0,0,0,0,0,0,0,0.0,0.0
Gain,,1,1,25.011,14.5176,16.5692,1,1,1,1.00088,1.03055,1.0,1.0
Units,sec,C,C,Pa,%,%,%,%,%,g,/m,,
Baseline,,37.7977,38.2921,149.275,109.38,111.076,0.00032127,0.0464794,20.949,-445.628,-0.138992,,
13,3,35.629,36.133,152.865,109.338,111.173,9.38165e-05,0.0510348,20.9477,86.2961,-0.150447,0.0,0.0
26,6.25,35.5016,36.4639,146.887,109.341,110.526,0.00021501,0.050179,20.9486,86.2961,-0.0974497,0.0,0.0
39,9.5,35.7385,36.4807,146.717,109.352,111.165,0.000372994,0.0491197,20.9501,86.286,-0.148659,0.0,0.0
52,12.75,35.6016,36.0252,149.16,109.353,111.263,0.000413078,0.0479865,20.9509,86.246,-0.156559,0.0,0.0
65,16,35.7892,36.4206,147.991,109.354,110.883,0.000418878,0.0471924,20.9511,86.2961,-0.125534,0.0,0.0
78,19.25,35.4643,36.5072,146.166,109.362,110.967,0.000521905,0.0468123,20.9506,86.286,-0.131642,0.0,0.0
91,22.5,35.4773,36.2258,151.603,109.345,110.859,0.000686157,0.046539,20.9505,86.266,-0.124369,0.0,0.0
104,25.75,35.6085,36.369,148.004,109.342,110.909,0.000708533,0.0465516,20.9504,86.276,-0.128666,0.0,0.0
117,29,35.5751,36.0928,153.024,109.347,110.647,0.000579449,0.0464835,20.9504,86.236,-0.106811,0.0,0.0
130,32.25,35.7379,35.7728,149.612,109.345,111.053,0.000300046,0.046565,20.9504,86.266,-0.140107,0.0,0.0
143,35.5,35.7926,36.3117,147.641,109.344,110.709,0.000247169,0.0465354,20.9504,86.236,-0.112147,0.0,0.0
156,38.75,35.3475,36.0003,151.33,109.341,110.745,0.000499518,0.0462906,20.9504,86.1759,-0.115334,0.0,0.0
169,42,35.5775,36.1605,149.184,109.348,110.741,0.000474501,0.0464615,20.9503,86.206,-0.114419,0.0,0.0
182,45.25,35.5244,36.2089,150.441,109.354,111.326,0.000370798,0.0462125,20.9503,86.186,-0.161501,0.0,0.0
195,48.5,36.0139,36.4889,152.855,109.34,110.815,0.000358502,0.0461511,20.9506,86.216,-0.121148,0.0,0.0
208,51.75,35.5344,35.9337,150.836,109.347,110.977,0.000398455,0.046189,20.9524,86.216,-0.133752,0.0,0.0
221,55,35.3005,36.738,151.123,109.362,111.308,0.000318431,0.0461988,20.9532,86.216,-0.159404,0.0,0.0
234,58.25,35.73,36.7453,149.324,109.359,110.877,0.000244153,0.0461968,20.9534,86.1559,-0.1246,0.0,0.0
247,61.5,35.8051,36.5442,146.638,109.356,110.742,0.000242454,0.0463872,20.9519,86.1259,-0.113846,0.0,0.0
260,64.75,35.7879,36.2311,146.866,109.377,110.305,0.000204116,0.0463936,20.9495,86.0458,-0.0763872,0.0,0.0
273,68,35.5124,36.2319,147.283,109.392,110.864,0.000119612,0.0463311,20.9488,86.0358,-0.120823,0.0,0.0
286,71.25,35.6004,36.335,151.988,109.37,110.587,0.000355388,0.0463056,20.9487,86.1259,-0.100035,0.0,0.0
299,74.5,35.5902,35.9378,153.184,109.386,110.285,0.00072303,0.0468913,20.9474,86.0659,-0.0739656,0.0,0.0
312,77.75,35.9249,36.365,149.808,109.396,110.232,0.000767317,0.047218,20.9466,86.0258,-0.0688116,0.0,0.0
325,81,35.5952,36.3951,143.994,109.389,111.247,0.000945918,0.0537818,20.937,85.9658,-0.152278,0.0,1.0
338,84.25,36.5921,36.6209,146.513,109.383,107.387,0.00159666,0.0943465,20.8807,85.9858,0.166455,0.0,1.0
351,87.5,36.0235,36.1584,134.879,109.39,97.4298,0.00425272,0.186487,20.7539,85.6054,1.04669,0.0,1.0
364,90.75,38.6418,37.2012,134.555,109.394,86.2898,0.010258,0.322189,20.5529,85.3352,2.14469,0.0,0.0
377,94,42.3875,40.0171,130.015,109.4,75.6302,0.0199906,0.483376,20.2892,84.8848,3.33713,0.0,0.0
390,97.25,46.9854,43.429,128.242,109.414,71.9607,0.0346283,0.674288,20.012,84.1642,3.78788,0.0,0.0
403,100.5,52.0788,47.393,111.582,109.408,52.486,0.0495438,0.887793,19.717,83.4135,6.64015,0.0,0.0
416,103.75,58.375,53.342,111.459,109.402,54.0146,0.0643723,1.07939,19.461,82.5428,6.38012,0.0,0.0
429,107,64.9389,58.8816,111.257,109.401,58.7511,0.0693198,1.26606,19.1995,81.5619,5.62024,0.0,0.0
442,110.25,71.7451,66.0907,114.158,109.405,52.0937,0.0664172,1.39006,19.065,80.611,6.70776,0.0,0.0
455,113.5,77.8533,72.1136,100.384,109.407,55.3602,0.0622721,1.4397,19.0123,79.8003,6.15813,0.0,0.0
468,116.75,83.332,77.9066,106.515,109.396,52.6099,0.0588906,1.45819,18.9994,78.8895,6.61788,0.0,0.0
481,120,88.5778,83.4373,102.856,109.393,51.9288,0.0568651,1.45471,19.014,78.0088,6.73539,0.0,0.0
494,123.25,92.7772,88.6551,108.704,109.393,52.8891,0.0552562,1.43432,19.0417,77.198,6.56976,0.0,0.0
507,126.5,96.8487,93.1711,101.708,109.379,52.93,0.0536041,1.39021,19.1124,76.4174,6.56162,0.0,0.0
520,129.75,99.3097,97.4148,110.471,109.375,55.1888,0.0507045,1.34166,19.1656,75.5666,6.18349,0.0,0.0
533,133,102.45,100.971,110.632,109.356,55.7748,0.047085,1.29401,19.227,74.836,6.08643,0.0,0.0
546,136.25,103.574,103.643,112.56,109.319,56.5712,0.0435475,1.21247,19.3578,74.1554,5.95526,0.0,0.0
559,139.5,103.8,105.609,113.873,109.295,61.3248,0.0393194,1.10999,19.5006,73.5248,5.22382,0.0,0.0
572,142.75,104.333,106.671,126.071,109.246,64.7916,0.0350282,1.00119,19.6522,72.9243,4.72272,0.0,0.0
585,146,103.247,106.812,126.358,109.213,69.5315,0.0304039,0.894715,19.7977,72.3938,4.08167,0.0,0.0
598,149.25,101.593,106.055,127.467,109.124,70.9286,0.0261461,0.783625,19.9492,71.9834,3.89453,0.0,0.0
611,152.5,98.8609,105.261,132.4,109.045,77.3165,0.0213225,0.671278,20.0951,71.6331,3.10838,0.0,0.0
624,155.75,96.5171,103.646,132.758,108.952,85.3893,0.0173768,0.566186,20.2385,71.3028,2.20288,0.0,0.0
637,159,93.4132,101.345,134.576,108.86,87.5474,0.0136589,0.475124,20.3676,71.0826,1.96964,0.0,0.0
650,162.25,90.1431,98.927,140.272,108.806,93.8918,0.0101297,0.389783,20.504,70.9325,1.33273,0.0,0.0
663,165.5,85.8125,96.3939,137.604,108.829,100.73,0.00765532,0.32309,20.5932,70.7824,0.699036,0.0,0.0
676,168.75,82.9084,93.2726,142.72,108.853,103.667,0.00610116,0.26701,20.6707,70.6823,0.441267,0.0,0.0
689,172,79.5583,90.7348,147.39,108.879,108.959,0.00531567,0.218675,20.7334,70.5822,-0.00660944,0.0,0.0
702,175.25,76.4609,87.4637,142.705,108.922,111.181,0.00524584,0.175618,20.7913,70.5722,-0.185644,0.0,0.0
715,178.5,73.4712,84.575,146.831,109.011,112.14,0.00574554,0.143474,20.8265,70.4921,-0.2558,0.0,0.0
728,181.75,70.1479,82.0441,146.168,109.02,111.219,0.00623806,0.122904,20.8532,70.4921,-0.180568,0.0,0.0
741,185,66.1813,77.7665,150.398,109.097,111.984,0.00654094,0.111639,20.8672,70.4521,-0.236185,0.0,0.0
754,188.25,63.6225,75.401,145.155,109.157,111.079,0.00700359,0.108093,20.8713,70.4221,-0.157795,0.0,0.0
767,191.5,61.1755,72.6314,148.093,109.241,111.729,0.00708047,0.105736,20.8741,70.372,-0.203625,0.0,0.0
780,194.75,59.3211,70.846,146.562,109.255,111.13,0.0069931,0.104505,20.8758,70.362,-0.153804,0.0,0.0
793,198,57.3246,68.6839,146.04,109.292,111.932,0.00714073,0.103488,20.8771,70.332,-0.215727,0.0,0.0
806,201.25,55.9006,67.0585,145.803,109.291,112.059,0.00689444,0.102409,20.8786,70.322,-0.226159,0.0,0.0
819,204.5,54.5238,65.0029,148.067,109.263,111.566,0.00662044,0.100831,20.8811,70.322,-0.188568,0.0,0.0
832,207.75,53.4121,63.5421,146.889,109.265,111.69,0.0065428,0.0999475,20.8827,70.2719,-0.198458,0.0,0.0
845,211,51.9144,61.9229,145.223,109.296,111.893,0.00667999,0.0995544,20.8827,70.2419,-0.21233,0.0,0.0
858,214.25,50.6185,60.3603,147.857,109.293,111.809,0.00672758,0.0991177,20.8828,70.2319,-0.205761,0.0,0.0
871,217.5,49.7819,59.0071,146.638,109.34,112.029,0.00654197,0.0985681,20.8828,70.1418,-0.219645,0.0,0.0
884,220.75,49.1995,58.1551,145.189,109.339,111.867,0.00622839,0.0973441,20.8846,70.1218,-0.206652,0.0,0.0
897,224,48.2082,56.7507,147.442,109.364,112.412,0.00631641,0.0959844,20.8856,70.1418,-0.248465,0.0,0.0
910,227.25,47.9697,55.717,148.049,109.376,111.777,0.00649094,0.0951529,20.8873,70.0818,-0.196299,0.0,0.0
923,230.5,46.8378,54.379,146.748,109.42,111.75,0.00633591,0.0939765,20.8892,70.0918,-0.190544,0.0,0.0
936,233.75,45.9648,53.5804,150.483,109.46,110.854,0.00597368,0.0928718,20.8919,70.0417,-0.114361,0.0,0.0
949,237,45.9788,52.8134,147.733,109.482,111.925,0.00579101,0.0918474,20.8938,70.0317,-0.199484,0.0,0.0
962,240.25,44.8148,52.2549,145.223,109.541,112.137,0.0057346,0.0912144,20.8949,70.0217,-0.211716,0.0,0.0
975,243.5,44.6142,51.2039,146.324,109.567,112.284,0.00584853,0.0905482,20.8952,69.9717,-0.221491,0.0,0.0
988,246.75,43.8453,50.0475,145.346,109.599,112.523,0.0056925,0.0894452,20.8968,69.9216,-0.238017,0.0,0.0
1001,250,43.4882,49.2851,146.839,109.619,112.043,0.00540444,0.088099,20.8981,69.9416,-0.197699,0.0,0.0
1014,253.25,43.1791,48.5708,149.582,109.65,112.106,0.00531361,0.0877059,20.8985,69.9216,-0.200204,0.0,0.0
1027,256.5,42.8008,47.995,152.315,109.675,111.371,0.00508728,0.0865731,20.8986,69.8716,-0.138677,0.0,0.0
1040,259.75,42.7725,47.4174,149.291,109.684,111.81,0.00482085,0.0855064,20.8997,69.8416,-0.173502,0.0,0.0
1053,263,42.1666,47.1511,149.256,109.706,112.128,0.00477749,0.0839675,20.9017,69.8516,-0.197396,0.0,0.0
1066,266.25,41.8764,46.6451,152.027,109.709,112.605,0.00483727,0.0836825,20.9029,69.7915,-0.235542,0.0,0.0
1079,269.5,41.6074,45.8794,148.528,109.701,112.732,0.00468364,0.0832082,20.9032,69.8115,-0.246419,0.0,0.0
1092,272.75,41.4513,45.2016,144.93,109.718,112.06,0.00447314,0.0824032,20.9043,69.7815,-0.190983,0.0,0.0
1105,276,40.9676,44.8481,150.846,109.727,112.894,0.00432569,0.0814315,20.9058,69.7715,-0.257228,0.0,0.0
1118,279.25,41.6944,44.5261,146.4,109.722,112.027,0.00424139,0.080291,20.9062,69.7815,-0.187925,0.0,0.0
1131,282.5,41.1045,44.0344,145.126,109.729,111.207,0.004199,0.0793547,20.9072,69.7515,-0.120951,0.0,0.0
1144,285.75,40.2783,43.6474,144.881,109.73,112.201,0.00408359,0.0785376,20.9082,69.7114,-0.201371,0.0,0.0
1157,289,40.3104,43.3501,147.538,109.739,111.861,0.00396693,0.0776265,20.9095,69.7114,-0.173068,0.0,0.0
1170,292.25,40.2151,43.4287,150.325,109.723,111.588,,0.0765048,,69.6814,-0.152361,0.0,0.0
1183,295.5,40.0957,42.9321,146.86,109.73,111.995,,,,69.7415,-0.184693,0.0,0.0
1196,298.75,39.4134,42.488,148.444,109.718,111.785,,,,69.8015,-0.168688,0.0,0.0
1209,302,39.4033,42.0095,147.81,109.703,111.706,,,,69.6514,-0.163625,0.0,0.0
1213,303,39.285,42.1941,145.707,109.689,111.851,,,,69.6514,-0.176494,0.0,0.0

File: FRP_Panel_Cone_HF50Scalar_220915_R1.csv
LABORATORY,FSRI
TEST IDENT,FRP_Panel_HF50_1
OPERATOR,Dow
MATERIAL,Fiber Reinforced Plastic Panel
ORIENTATION,Horizontal
HEAT FLUX,50
SURF AREA,0.01
C FACTOR,0.0421844
SPEC HOLDER DIFF,-566
SPECIMEN MASS,33.56
SCAN TIME,0.25
O2 DELAY TIME,11
CO DELAY TIME,11
CO2 DELAY TIME,8
FLOW FACTOR,1
SCAN COUNT,983
TIME TO IGN,29.75
END OF TEST SCAN,503
END OF TEST TIME,125.75
TEST STATUS,1
PRE TEST CMT,Dimensions: 101.89 x 102.50 x 2.07 mm; with calcium silicate substrate

File: FRP_Panel_Cone_HF50Scalar_220919_R2.csv
LABORATORY,FSRI
TEST IDENT,FRP_Panel_HF50_2
OPERATOR,Dow
MATERIAL,Fiber reinforced plastic panel
ORIENTATION,Horizontal
HEAT FLUX,50
SURF AREA,0.01
C FACTOR,0.0402601
SPEC HOLDER DIFF,-566
SPECIMEN MASS,34.81
SCAN TIME,0.25
O2 DELAY TIME,11
CO DELAY TIME,11
CO2 DELAY TIME,8
FLOW FACTOR,1
SCAN COUNT,1299
TIME TO IGN,32.5
END OF TEST SCAN,819
END OF TEST TIME,204.75
TEST STATUS,1
PRE TEST CMT,Dimensions: 102.28 x 101.91 x 2.20 mm

File: FRP_Panel_Cone_HF50Scalar_220919_R3.csv
LABORATORY,FSRI
TEST IDENT,FRP_Panel_HF50_3
OPERATOR,Dow
MATERIAL,Fiber reinforced plastic panel
ORIENTATION,Horizontal
HEAT FLUX,50
SURF AREA,0.01
C FACTOR,0.0402601
SPEC HOLDER DIFF,-566
SPECIMEN MASS,32.37
SCAN TIME,0.25
O2 DELAY TIME,11
CO DELAY TIME,11
CO2 DELAY TIME,8
FLOW FACTOR,1
SCAN COUNT,939
TIME TO IGN,31.5
END OF TEST SCAN,459
END OF TEST TIME,114.75
TEST STATUS,1
PRE TEST CMT,Dimensions: 102.36 x 101.79 x 2.12 mm

File: FRP_Panel_Cone_HF50Scalar_220919_R4.csv
LABORATORY,FSRI
TEST IDENT,FRP_Panel_HF50_4
OPERATOR,Dow
MATERIAL,Fiber reinforced plastic panel
ORIENTATION,Horizontal
HEAT FLUX,50
SURF AREA,0.01
C FACTOR,0.0402601
SPEC HOLDER DIFF,-566
SPECIMEN MASS,33.25
SCAN TIME,0.25
O2 DELAY TIME,11
CO DELAY TIME,11
CO2 DELAY TIME,8
FLOW FACTOR,1
SCAN COUNT,1190
TIME TO IGN,30.5
END OF TEST SCAN,710
END OF TEST TIME,177.5
TEST STATUS,1
PRE TEST CMT,Dimensions: 102.12 x 102.52 x 2.09 mm

File: FRP_Panel_Cone_HF50Scan_220915_R1.csv
Names,Time,Stack TC,Smoke TC,Exh Press,Smoke Comp,Smoke Meas,CO Meter,CO2 Meter,O2 Meter,Sample Mass,Ext Coeff,Start Test,Flame Verif
Chan Gain,,500,500,1,1,1,1,1,1,1,1,1.0,1.0
Offset,,0,0,0.139139,0,0,0,0,0,0,0,0.0,0.0
Gain,,1,1,25.011,13.0826,14.7555,1,1,1,1.00088,1.03743,1.0,1.0
Units,sec,C,C,Pa,%,%,%,%,%,g,/m,,
Baseline,,53.5662,54.8722,140.076,99.5024,104.534,-0.000587638,0.0505188,20.992,-447.372,-0.448891,,
10,2.25,50.9965,52.858,141.333,99.8221,104.33,-0.000427557,0.0522125,20.9911,151.804,-0.401923,0.0,0.0
20,4.75,51.108,51.9497,135.868,99.817,104.897,-0.000584651,0.0517918,20.9925,151.724,-0.451753,0.0,0.0
30,7.25,51.4608,52.2511,138.274,99.8205,105.163,-0.000748819,0.0513353,20.993,151.684,-0.474484,0.0,0.0
40,9.75,51.6659,52.9859,136.84,99.8273,105.134,-0.000832844,0.0511478,20.9932,151.684,-0.471372,0.0,0.0
50,12.25,51.3131,52.141,141.655,99.8345,104.78,-0.000907144,0.0509932,20.9945,151.694,-0.440028,0.0,0.0
60,14.75,51.6342,52.8162,139.268,99.8361,104.239,-0.00073731,0.0507294,20.9952,151.704,-0.392712,0.0,0.0
70,17.25,51.0853,52.6283,140.665,99.8257,104.645,-0.000449796,0.0505336,20.9941,151.674,-0.429049,0.0,0.0
80,19.75,51.6128,52.7708,141.15,99.8385,104.727,-0.000252555,0.0505181,20.9936,151.664,-0.435048,0.0,0.0
90,22.25,51.6228,53.5477,140.549,99.8261,104.263,-0.000125895,0.0504741,20.9934,151.624,-0.395744,0.0,0.0
100,24.75,51.5232,52.6814,142.421,99.8305,104.581,-0.000183903,0.0503871,20.9934,151.624,-0.423089,0.0,0.0
110,27.25,51.5817,52.8343,136.147,99.8194,104.587,-0.000305913,0.0503459,20.9929,151.604,-0.424578,0.0,0.0
120,29.75,51.2241,52.6769,136.448,99.8289,104.089,2.95974e-05,0.0511541,20.9823,151.543,-0.380306,0.0,1.0
130,32.25,52.0041,53.4693,138.469,99.8142,99.2692,0.00126125,0.0676098,20.9304,151.453,0.0498213,0.0,1.0
140,34.75,52.1583,52.5588,131.682,99.8189,85.5107,0.00486226,0.124333,20.7954,151.253,1.40797,0.0,1.0
150,37.25,55.1194,54.1152,126.226,99.8006,72.5969,0.011372,0.229432,20.5655,150.903,2.89619,0.0,0.0
160,39.75,58.7937,56.1858,114.01,99.7982,60.5346,0.0216402,0.35422,20.3272,150.463,4.54955,0.0,0.0
170,42.25,63.731,60.0162,105.604,99.7806,60.5031,0.032819,0.518586,20.0022,149.892,4.55269,0.0,0.0
180,44.75,69.7916,64.2016,107.432,99.781,52.6876,0.0413783,0.698606,19.6996,149.311,5.81142,0.0,0.0
190,47.25,75.6117,69.5286,105.03,99.7694,51.6988,0.0461994,0.860931,19.5001,148.661,5.98279,0.0,0.0
200,49.75,81.7229,74.7449,102.741,99.7551,51.724,0.0492409,0.98183,19.3759,148.03,5.97704,0.0,0.0
210,52.25,86.5365,79.7033,105.299,99.7351,47.9604,0.0512088,1.07502,19.3086,147.37,6.66272,0.0,0.0
220,54.75,90.781,84.7169,103.628,99.7255,47.8928,0.0531312,1.14558,19.2532,146.709,6.67467,0.0,0.0
230,57.25,95.8656,89.042,103.491,99.712,47.1422,0.0549794,1.21183,19.1863,146.069,6.81719,0.0,0.0
240,59.75,100.392,94.2145,101.721,99.682,46.6072,0.0561049,1.28289,19.1169,145.388,6.91832,0.0,0.0
250,62.25,104.651,98.4458,98.1341,99.6596,48.1504,0.0565107,1.33804,19.0556,144.687,6.61984,0.0,0.0
260,64.75,109.236,103.219,98.7332,99.6261,46.111,0.0569294,1.38239,19.0342,144.017,7.01063,0.0,0.0
270,67.25,112.659,107.074,97.0334,99.6197,47.2016,0.0574875,1.40985,19.0307,143.386,6.79731,0.0,0.0
280,69.75,116.127,111.216,105.292,99.5738,45.4387,0.057478,1.42722,19.0352,142.696,7.13951,0.0,0.0
290,72.25,119.104,114.735,104.093,99.5582,47.3444,0.0567406,1.43225,19.0606,142.015,6.76421,0.0,0.0
300,74.75,121.217,117.826,103.51,99.5239,48.9006,0.0550006,1.4261,19.0894,141.385,6.46675,0.0,0.0
310,77.25,123.75,119.793,104.362,99.484,49.3986,0.0526881,1.40885,19.1374,140.764,6.37088,0.0,0.0
320,79.75,124.197,122.913,97.6402,99.4337,49.6486,0.0504919,1.37372,19.2171,140.163,6.32035,0.0,0.0
330,82.25,125.25,124.586,102.24,99.4025,51.5939,0.0485374,1.33504,19.2749,139.603,5.96775,0.0,0.0
340,84.75,126.183,126.192,112.155,99.3247,48.0004,0.0461544,1.28921,19.3629,139.022,6.61759,0.0,0.0
350,87.25,125.483,127.216,108.267,99.274,52.4071,0.0436135,1.22294,19.4868,138.512,5.81365,0.0,0.0
360,89.75,124.963,126.975,111.394,99.2153,54.4537,0.040546,1.14713,19.6147,138.042,5.45964,0.0,0.0
370,92.25,123.296,127.583,115.292,99.1654,54.1714,0.0368283,1.0647,19.775,137.621,5.50237,0.0,0.0
380,94.75,121.562,127.019,118.776,99.1466,57.3748,0.0331271,0.975351,19.8881,137.231,4.97781,0.0,0.0
390,97.25,119.401,125.93,119.436,99.1099,62.6074,0.0285907,0.891505,20.001,136.901,4.18019,0.0,0.0
400,99.75,117.407,124.429,121.071,99.2344,65.75,0.0243532,0.810806,20.1255,136.59,3.74591,0.0,0.0
410,102.25,114.996,123.081,122.294,99.3299,69.2246,0.019876,0.737567,20.2293,136.33,3.28603,0.0,0.0
420,104.75,112.18,121.431,126.968,99.4245,74.1801,0.0165012,0.664232,20.3231,136.08,2.6655,0.0,0.0
430,107.25,109.414,119.785,127.093,99.5051,77.9546,0.0131266,0.600616,20.4012,135.91,2.22123,0.0,0.0
440,109.75,106.978,117.795,127.937,99.6397,85.018,0.00979008,0.532433,20.4931,135.75,1.44419,0.0,0.0
450,112.25,104.295,115.376,130.377,99.7251,91.3848,0.007526,0.475505,20.5917,135.649,0.794803,0.0,0.0
460,114.75,101.327,113.597,132.993,99.8078,99.1562,0.00622376,0.414473,20.6673,135.579,0.0596073,0.0,0.0
470,117.25,98.6513,111.081,133.309,99.8501,101.749,0.00556236,0.361712,20.7255,135.539,-0.171482,0.0,0.0
480,119.75,95.7565,109.232,135.876,99.8828,103.431,0.00563417,0.316118,20.7871,135.509,-0.317693,0.0,0.0
490,122.25,93.1658,106.705,132.225,99.8569,105.148,0.00621313,0.276069,20.8251,135.479,-0.469847,0.0,0.0
500,124.75,90.6693,104.352,143.767,99.8154,105.599,0.00727962,0.244235,20.8521,135.449,-0.5126,0.0,0.0
510,127.25,86.5795,100.385,133.772,99.7507,104.712,0.00841379,0.219712,20.87,135.449,-0.441688,0.0,0.0
520,129.75,84.1247,98.1496,136.979,99.6688,105.353,0.00909514,0.200436,20.8819,135.409,-0.504755,0.0,0.0
530,132.25,82.4193,96.3416,137.848,99.583,105.355,0.0092516,0.185247,20.8921,135.429,-0.512791,0.0,0.0
540,134.75,80.5988,94.4846,133.607,99.4624,104.519,0.00920804,0.172469,20.8987,135.399,-0.451259,0.0,0.0
550,137.25,78.6528,93.027,138.233,99.4572,105.511,0.00911843,0.16293,20.9031,135.349,-0.537739,0.0,0.0
560,139.75,77.5759,91.132,136.146,99.4908,105.469,0.00891193,0.15526,20.9075,135.289,-0.531019,0.0,0.0
570,142.25,75.3968,89.5735,140.336,99.5479,105.007,0.00873353,0.148749,20.9094,135.239,-0.485847,0.0,0.0
580,144.75,73.9963,87.4309,135.567,99.5838,105.034,0.00864996,0.143345,20.9116,135.239,-0.484903,0.0,0.0
590,147.25,72.8952,86.1207,138.571,99.6345,104.969,0.00859717,0.138643,20.9138,135.139,-0.474651,0.0,0.0
600,149.75,71.9041,85.0274,136.392,99.6549,105.31,0.00854291,0.134839,20.9141,135.159,-0.502257,0.0,0.0
610,152.25,71.2348,83.5749,137.525,99.6752,105.04,0.00849151,0.13172,20.9152,135.119,-0.47706,0.0,0.0
620,154.75,70.4149,82.2086,140.948,99.6844,104.977,0.0084408,0.129192,20.9168,135.079,-0.470797,0.0,0.0
630,157.25,69.2369,80.6608,135.755,99.7108,104.885,0.00843352,0.126399,20.918,135.029,-0.460386,0.0,0.0
640,159.75,68.2132,79.9545,137.727,99.7235,105.421,0.00846278,0.124291,20.9187,134.979,-0.505595,0.0,0.0
650,162.25,67.8925,78.9201,138.679,99.7579,105.141,0.00849824,0.122329,20.9193,134.969,-0.478251,0.0,0.0
660,164.75,66.8497,77.9247,137.658,99.7543,104.848,0.0084282,0.120674,20.921,134.959,-0.453171,0.0,0.0
670,167.25,66.5421,76.92,137.273,99.7591,105.212,0.00830141,0.118692,20.9222,134.959,-0.484337,0.0,0.0
680,169.75,65.4452,75.8801,138.057,99.7674,104.563,0.00827059,0.116888,20.9235,134.859,-0.427274,0.0,0.0
690,172.25,64.9367,74.9817,139.199,99.7555,104.617,0.00813734,0.115654,20.924,134.909,-0.433068,0.0,0.0
700,174.75,64.5135,74.1115,139.584,99.7535,104.828,0.00779879,0.11467,20.9229,134.869,-0.451564,0.0,0.0
710,177.25,63.7705,73.0983,135.59,99.7295,105.804,0.00751788,0.113128,20.9238,134.799,-0.538069,0.0,0.0
720,179.75,63.246,72.5112,139.072,99.7175,104.56,0.0074622,0.11138,20.9263,134.679,-0.431553,0.0,0.0
730,182.25,63.3827,71.9289,137.679,99.6804,105.032,0.00753059,0.110185,20.9272,134.619,-0.475883,0.0,0.0
740,184.75,63.0085,71.0035,134.993,99.6636,105.346,0.00760116,0.109576,20.9275,134.719,-0.504645,0.0,0.0
750,187.25,62.7974,70.2459,137.94,99.6077,105.138,0.00745047,0.108712,20.9276,134.709,-0.491684,0.0,0.0
760,189.75,62.1108,69.3134,137.683,99.583,104.191,0.00720809,0.107544,20.929,134.639,-0.411647,0.0,0.0
770,192.25,61.9738,69.3353,138.827,99.5455,104.159,0.00686265,0.106026,20.9306,134.609,-0.412283,0.0,0.0
780,194.75,61.6089,68.5363,138.512,99.5367,105.211,0.0064986,0.104684,20.9311,134.559,-0.504569,0.0,0.0
790,197.25,60.9065,67.9723,134.303,99.5083,104.588,0.00641462,0.103775,20.9323,134.559,-0.453095,0.0,0.0
800,199.75,60.676,67.756,137.278,99.5075,104.34,0.00639422,0.103488,20.9336,134.548,-0.431553,0.0,0.0
810,202.25,61.0102,66.8591,136.285,99.482,104.761,0.00619551,0.102791,20.9346,134.579,-0.470499,0.0,0.0
820,204.75,60.3811,66.2451,138.936,99.4708,105.043,0.00592386,0.101827,20.936,134.488,-0.495976,0.0,0.0
830,207.25,60.1111,66.2796,139.811,99.4492,104.557,0.00546596,0.100878,20.9369,134.468,-0.455757,0.0,0.0
840,209.75,59.9461,65.6314,137.839,99.4093,104.386,0.00506972,0.0998354,20.9386,134.478,-0.444584,0.0,0.0
850,212.25,59.4061,64.9869,137.49,99.3925,104.496,0.00482497,0.0989394,20.9405,134.448,-0.455654,0.0,0.0
860,214.75,59.8292,64.7103,139.229,99.3913,104.945,0.0046781,0.098019,20.9415,134.388,-0.494778,0.0,0.0
870,217.25,59.2853,64.5347,138.376,99.4624,104.943,0.00467856,0.0969581,20.9418,134.368,-0.488156,0.0,0.0
880,219.75,59.3057,64.0449,135.323,99.4968,104.303,0.00458041,0.0965235,20.942,134.388,-0.429318,0.0,0.0
890,222.25,58.6634,63.6735,137.189,99.5618,105.016,0.00425041,0.0955696,20.943,134.318,-0.48535,0.0,0.0
900,224.75,59.2843,63.2449,138.894,99.5918,104.726,0.00387688,0.094445,20.9444,134.338,-0.45741,0.0,0.0
910,227.25,58.7389,62.5394,135.666,99.6513,105.455,0.00369918,0.0935674,20.9449,134.258,-0.515184,0.0,0.0
920,229.75,58.3604,63.0499,136.953,99.6688,104.728,0.00365365,0.0925116,20.9465,134.198,-0.450567,0.0,0.0
930,232.25,58.366,62.2524,138.307,99.7068,104.682,0.00357543,0.0916056,20.9473,134.208,-0.443152,0.0,0.0
940,234.75,57.6844,62.5132,140.274,99.7367,105.059,,0.0907169,,134.198,-0.473125,0.0,0.0
950,237.25,57.8838,61.8459,137.079,99.7658,104.966,,0.0895464,,134.138,-0.462428,0.0,0.0
960,239.75,58.0537,61.3869,138.62,99.7902,104.973,,,,134.188,-0.460792,0.0,0.0
970,242.25,57.8634,61.1363,143.402,99.8054,105.491,,,,134.098,-0.504191,0.0,0.0
980,244.75,57.7982,61.2438,140.623,99.817,105.151,,,,134.118,-0.473721,0.0,0.0
983,245.5,57.658,61.141,137.863,99.8022,104.957,,,,134.138,-0.458295,0.0,0.0