Folder: fsri_materials_database/01_Data/FRP_Panel/Cone

Note: 01_Data/README.md
# Materials and Products Database
## 01_Data

Raw data generated from each apparatus are included here in plain-text format. The data is organized first by material, next by the short name of test apparatus used, and where applicable additional filtering by test settings.

### material.json

Each material directory contains a json file of the same name as the material. This file links the data stored in the repository as well as data and graphs produced by the accompanying scripts (__02_Scripts__) to the respective landing page for the material on the front-end website.

File: FRP_Panel_Cone_HF25Scalar_220919_R1.csv
LABORATORY,FSRI
TEST IDENT,FRP_Panel_HF25_1
OPERATOR,Dow
MATERIAL,Fiber reinforced plastic panel
ORIENTATION,Horizontal
HEAT FLUX,25
SURF AREA,0.01
C FACTOR,0.0402601
SPEC HOLDER DIFF,-566
SPECIMEN MASS,32.59
SCAN TIME,0.25
O2 DELAY TIME,11
CO DELAY TIME,11
CO2 DELAY TIME,8
FLOW FACTOR,1
SCAN COUNT,1214
TIME TO IGN,80
END OF TEST SCAN,734
END OF TEST TIME,183.5
TEST STATUS,1
PRE TEST CMT,Dimensions: 102.22 x 102.50 x 2.00 mm

File: FRP_Panel_Cone_HF25Scalar_220919_R2.csv
LABORATORY,FSRI
TEST IDENT,FRP_Panel_HF25_2
OPERATOR,Dow
MATERIAL,Fiber reinforced plastic panel
ORIENTATION,Horizontal
HEAT FLUX,25
SURF AREA,0.01
C FACTOR,0.0402601
SPEC HOLDER DIFF,-566
SPECIMEN MASS,31.69
SCAN TIME,0.25
O2 DELAY TIME,11
CO DELAY TIME,11
CO2 DELAY TIME,8
FLOW FACTOR,1
SCAN COUNT,1195
TIME TO IGN,79.75
END OF TEST SCAN,715
END OF TEST TIME,178.75
TEST STATUS,1
PRE TEST CMT,Dimensions: 101.95 x 102.56 x 2.00 mm

File: FRP_Panel_Cone_HF25Scalar_220919_R3.csv
LABORATORY,FSRI
TEST IDENT,FRP_Panel_HF25_3
OPERATOR,Dow
MATERIAL,Fiber reinforced plastic panel
ORIENTATION,Horizontal
HEAT FLUX,25
SURF AREA,0.01
C FACTOR,0.0402601
SPEC HOLDER DIFF,-566
SPECIMEN MASS,33.05
SCAN TIME,0.25
O2 DELAY TIME,11
CO DELAY TIME,11
CO2 DELAY TIME,8
FLOW FACTOR,1
SCAN COUNT,1213
TIME TO IGN,80.75
END OF TEST SCAN,733
END OF TEST TIME,183.25
TEST STATUS,1
PRE TEST CMT,Dimensions: 101.94 x 102.50 x 2.07 mm

File: FRP_Panel_Cone_HF25Scan_220919_R1.csv
Names,Time,Stack TC,Smoke TC,Exh Press,Smoke Comp,Smoke Meas,CO Meter,CO2 Meter,O2 Meter,Sample Mass,Ext Coeff,Start Test,Flame Verif
Chan Gain,,500,500,1,1,1,1,1,1,1,1,1.0,1.0
Offset,,0,0,0.143022,0,0,0,0,0,0,0,0.0,0.0
Gain,,1,1,25.011,14.5176,16.5692,1,1,1,1.00088,1.03055,1.0,1.0
Units,sec,C,C,Pa,%,%,%,%,%,g,/m,,
Baseline,,34.9507,35.8513,149.159,109.242,110.387,0.000484467,0.0463551,20.944,-445.306,-0.09422,,
13,3,33.3194,34.4489,149.36,108.718,110.04,0.000483177,0.0547238,20.9361,86.8566,-0.109265,0.0,0.0
26,6.25,33.1084,33.9082,148.157,108.689,109.833,0.000507754,0.0545621,20.9373,86.8465,-0.09465,0.0,0.0
39,9.5,33.5031,34.558,150.5,108.667,109.342,0.000500511,0.053544,20.9404,86.8165,-0.0559906,0.0,0.0
52,12.75,33.1415,33.9519,150.782,108.671,109.559,0.000318297,0.0516107,20.9409,86.8065,-0.0736168,0.0,0.0
65,16,33.0144,34.3264,148.158,108.692,109.81,0.000360382,0.0493932,20.9422,86.7365,-0.0924821,0.0,0.0
78,19.25,33.2978,34.2129,148.934,108.695,109.196,0.000429772,0.0484621,20.942,86.7765,-0.0416204,0.0,0.0
91,22.5,33.3526,34.0914,150.515,108.718,109.617,0.000387069,0.0479367,20.9431,86.7565,-0.0743872,0.0,0.0
104,25.75,32.8177,34.1086,149.322,108.743,109.412,0.000319783,0.047273,20.944,86.7264,-0.0554994,0.0,0.0
117,29,32.873,34.7263,147.27,108.762,109.412,7.05055e-05,0.0468169,20.9451,86.7665,-0.0539159,0.0,0.0
130,32.25,33.4365,34.6798,146.945,108.797,109.688,-7.78358e-05,0.0466323,20.9462,86.7665,-0.0736739,0.0,0.0
143,35.5,33.4716,33.724,148.194,108.829,109.583,0.000123144,0.0466448,20.9465,86.7465,-0.0623519,0.0,0.0
156,38.75,33.4444,34.247,146.888,108.883,109.501,0.000163409,0.0465031,20.9468,86.7465,-0.051218,0.0,0.0
169,42,33.4817,33.9941,144.084,108.937,109.722,1.79001e-05,0.0464604,20.9459,86.7465,-0.0649191,0.0,0.0
182,45.25,33.5337,34.1251,151.43,108.98,109.552,-4.07997e-05,0.0465993,20.9454,86.7264,-0.0473081,0.0,0.0
195,48.5,33.3008,34.2328,147.18,109.035,109.697,0.000188893,0.0471978,20.9453,86.7264,-0.0546775,0.0,0.0
208,51.75,33.086,34.2491,150.859,109.085,109.776,0.000283848,0.0476178,20.9453,86.7064,-0.0571042,0.0,0.0
221,55,33.1601,34.5888,151.681,109.144,110.488,0.000161456,0.0474651,20.9453,86.6664,-0.110657,0.0,0.0
234,58.25,33.2862,34.2272,151.667,109.15,109.434,0.000192288,0.0472318,20.946,86.6864,-0.0234745,0.0,0.0
247,61.5,33.4754,34.4482,150.745,109.177,109.921,0.000179339,0.0471252,20.9469,86.5763,-0.061409,0.0,0.0
260,64.75,33.3322,34.0269,147.756,109.208,109.43,0.000201739,0.0469305,20.9472,86.6163,-0.018372,0.0,0.0
273,68,33.683,34.2226,150.686,109.2,110.051,0.000360057,0.046704,20.9472,86.5863,-0.070187,0.0,0.0
286,71.25,33.45,34.4882,147.952,109.218,109.653,0.000374304,0.0467187,20.9472,86.5263,-0.0359352,0.0,0.0
299,74.5,33.9382,34.4154,149.362,109.235,110.004,0.00036338,0.0468131,20.9472,86.4962,-0.063385,0.0,0.0
312,77.75,33.4635,35.1716,147.612,109.228,109.421,0.000355456,0.046953,20.9464,86.5563,-0.015933,0.0,0.0
325,81,33.9261,34.7329,145.718,109.213,109.884,0.000747933,0.0520089,20.9385,86.5163,-0.0554067,0.0,1.0
338,84.25,34.3695,35.3446,145.193,109.211,108.726,0.00192014,0.0827957,20.8938,86.3761,0.0402604,0.0,1.0
351,87.5,33.9626,33.8032,142.919,109.203,101.592,0.003737,0.15676,20.763,86.1659,0.653118,0.0,1.0
364,90.75,35.9819,35.3269,135.986,109.181,86.7732,0.00752923,0.258175,20.6188,85.9257,2.07653,0.0,0.0
377,94,39.0035,37.2082,131.513,109.184,79.3786,0.0161598,0.394484,20.3853,85.4653,2.882,0.0,0.0
390,97.25,42.1571,39.8158,120.48,109.193,66.3166,0.0260088,0.572123,20.128,84.9048,4.508,0.0,0.0
403,100.5,46.5791,43.0691,126.232,109.196,54.134,0.0407182,0.776694,19.8013,84.1041,6.34313,0.0,0.0
416,103.75,52.2391,47.8755,115.746,109.204,52.2696,0.0530675,0.98524,19.5538,83.2434,6.66064,0.0,0.0
429,107,57.5736,52.4179,111.962,109.214,55.1589,0.0572436,1.13474,19.3564,82.3526,6.17504,0.0,0.0
442,110.25,64.5847,58.861,100.95,109.232,58.3157,0.0549762,1.2374,19.2583,81.5219,5.67345,0.0,0.0
455,113.5,70.736,65.3323,109.427,109.25,55.8587,0.0518128,1.2607,19.2581,80.7512,6.06408,0.0,0.0
468,116.75,75.6217,70.9341,110.762,109.277,55.6474,0.0501534,1.25483,19.2762,79.9805,6.10058,0.0,0.0
481,120,80.5765,75.9252,109.538,109.305,54.1709,0.0482652,1.25092,19.2853,79.1898,6.34602,0.0,0.0
494,123.25,84.7737,80.8344,111.429,109.343,55.9508,0.0468672,1.25041,19.2888,78.4291,6.05689,0.0,0.0
507,126.5,88.4704,85.4422,108.696,109.384,57.1775,0.0457194,1.25329,19.2897,77.6885,5.86424,0.0,0.0
520,129.75,91.9475,89.3299,119.564,109.43,61.4578,0.0447352,1.23103,19.3297,76.9478,5.21545,0.0,0.0
533,133,94.219,92.6159,113.152,109.451,60.4521,0.0427384,1.17409,19.4105,76.2672,5.36633,0.0,0.0
546,136.25,95.8566,95.7906,119.322,109.502,63.6311,0.0403974,1.11538,19.4947,75.6267,4.90726,0.0,0.0
559,139.5,96.7083,97.5198,120.605,109.525,65.5182,0.0383322,1.05423,19.5825,74.9761,4.64497,0.0,0.0
572,142.75,97.4061,98.9106,119.434,109.569,68.2517,0.0359927,0.976026,19.6985,74.4056,4.27908,0.0,0.0
585,146,97.3808,99.4637,122.565,109.571,70.0979,0.0334786,0.896668,19.7926,73.8651,4.03796,0.0,0.0
598,149.25,96.2824,99.6891,117.155,109.587,70.8867,0.0304262,0.819984,19.9033,73.4047,3.93811,0.0,0.0
611,152.5,94.4493,99.6458,128.039,109.603,73.2486,0.0267764,0.736466,20.0017,72.9643,3.6431,0.0,0.0
624,155.75,92.684,98.482,124.629,109.6,78.8795,0.0232851,0.650511,20.1389,72.594,2.97336,0.0,0.0
637,159,90.7409,97.6412,128.63,109.61,77.2933,0.0198265,0.571323,20.2477,72.2937,3.15788,0.0,0.0
650,162.25,87.8848,95.6137,135.523,109.595,82.6213,0.0162486,0.496916,20.3527,72.0035,2.55403,0.0,0.0
663,165.5,85.3357,93.7063,134.681,109.592,88.3235,0.0129937,0.427756,20.4457,71.7532,1.95046,0.0,0.0
676,168.75,82.7558,91.7355,134.968,109.579,94.4874,0.00975916,0.371501,20.5216,71.523,1.33956,0.0,0.0
689,172,79.6623,89.5156,139.817,109.581,101.089,0.00728451,0.313991,20.6056,71.3929,0.729184,0.0,0.0
702,175.25,76.8941,87.1948,143.088,109.585,108.228,0.00556406,0.260231,20.6711,71.3028,0.112624,0.0,0.0
715,178.5,73.8538,84.5022,144.65,109.572,111.476,0.00482463,0.208271,20.7528,71.3028,-0.155764,0.0,0.0
728,181.75,70.8983,81.9264,145.525,109.568,110.966,0.00485221,0.161503,20.8128,71.2828,-0.114624,0.0,0.0
741,185,66.4164,77.9344,146.418,109.547,110.858,0.00522046,0.130076,20.8523,71.2228,-0.107564,0.0,0.0
754,188.25,63.0669,75.171,144.351,109.539,111.095,0.00593673,0.11338,20.8692,71.2428,-0.127498,0.0,0.0
767,191.5,60.8927,72.584,149.614,109.513,111.593,0.00655882,0.10674,20.8745,71.1727,-0.170089,0.0,0.0
780,194.75,58.6465,70.1037,147.198,109.506,111.834,0.00674491,0.10371,20.8766,71.1627,-0.190197,0.0,0.0
793,198,57.2245,67.9288,146.79,109.477,111.891,0.00671119,0.102029,20.8779,71.1027,-0.197192,0.0,0.0
806,201.25,55.1614,66.1782,144.797,109.411,112.406,0.00667063,0.10088,20.8802,71.1127,-0.244096,0.0,0.0
819,204.5,53.8407,64.9901,145.636,109.391,111.177,0.00664755,0.0998799,20.8825,71.0526,-0.146423,0.0,0.0
832,207.75,52.561,63.1019,146.238,109.338,110.86,0.00659377,0.099746,20.8837,71.0126,-0.125002,0.0,0.0
845,211,50.853,61.2526,145.545,109.298,111.418,0.00609499,0.0989397,20.884,71.0126,-0.173665,0.0,0.0
858,214.25,50.012,59.8067,144.308,109.262,111.075,0.00599189,0.0981302,20.8841,70.9625,-0.148774,0.0,0.0
871,217.5,49.1904,58.0393,146.706,109.202,111.129,0.00629108,0.0974692,20.8848,70.9525,-0.1582,0.0,0.0
884,220.75,47.7013,57.1562,147.795,109.17,110.878,0.00634588,0.0966345,20.8848,70.9225,-0.140338,0.0,0.0
897,224,46.6354,55.3573,148.076,109.128,111.091,0.00595868,0.0960981,20.8852,70.8725,-0.161126,0.0,0.0
910,227.25,46.0316,54.5635,146.931,109.122,111.159,0.00592029,0.0954666,20.8868,70.8524,-0.167152,0.0,0.0
923,230.5,45.7003,53.6304,147.364,109.082,111.35,0.00592752,0.0950567,20.8878,70.8224,-0.186029,0.0,0.0
936,233.75,44.5393,52.3639,143.444,109.054,111.678,0.00596657,0.094324,20.8893,70.8124,-0.214936,0.0,0.0
949,237,44.1627,51.5605,147.738,109.032,110.734,0.00593929,0.0932837,20.8904,70.7924,-0.139998,0.0,0.0
962,240.25,43.8697,50.646,144.368,109.019,110.7,0.00591741,0.0920883,20.8905,70.8024,-0.138293,0.0,0.0
975,243.5,43.3617,49.7015,143.612,108.946,111.128,0.00582663,0.0914215,20.8915,70.7624,-0.179304,0.0,0.0
988,246.75,42.6298,49.1221,145.184,108.883,111.502,0.00552275,0.0904942,20.8936,70.6923,-0.214794,0.0,0.0
1001,250,42.2415,48.2896,145.786,108.879,110.475,0.00534668,0.0898339,20.8946,70.6623,-0.131515,0.0,0.0
1014,253.25,42.0495,47.9719,147.499,108.845,110.526,0.00541291,0.0890485,20.8964,70.6823,-0.138526,0.0,0.0
1027,256.5,41.3082,47.2248,146.719,108.807,110.793,0.00561874,0.0884976,20.897,70.6623,-0.163464,0.0,0.0
1040,259.75,40.9909,46.4572,150.109,108.743,109.763,0.005551,0.0880735,20.8978,70.6222,-0.0844471,0.0,0.0
1053,263,40.6258,45.885,146.508,108.689,110.655,0.0054434,0.0870688,20.8991,70.6022,-0.162105,0.0,0.0
1066,266.25,40.9759,44.9939,145.229,108.638,110.589,0.00548757,0.0862603,20.8993,70.6323,-0.160972,0.0,0.0
1079,269.5,40.2326,44.9272,152.065,108.585,110.573,0.00529433,0.0858291,20.899,70.5322,-0.163959,0.0,0.0
1092,272.75,40.1509,44.0444,150.652,108.541,110.31,0.0048603,0.0848482,20.9008,70.5422,-0.146205,0.0,0.0
1105,276,39.7244,43.9892,148.667,108.476,110.751,0.00486867,0.084121,20.9029,70.5222,-0.187619,0.0,0.0
1118,279.25,39.5888,43.5086,147.176,108.398,110.372,0.00476148,0.0837909,20.9034,70.5222,-0.163153,0.0,0.0
1131,282.5,39.7645,43.1227,145.356,108.366,109.807,0.00440267,0.0827354,20.9035,70.4821,-0.119387,0.0,0.0
1144,285.75,38.7354,43.0042,147.511,108.313,110.22,0.00423418,0.082133,20.9035,70.4921,-0.157812,0.0,0.0
1157,289,39.0017,42.379,148.044,108.269,110.09,0.00406221,0.0813518,20.9049,70.4821,-0.150767,0.0,0.0
1170,292.25,38.6234,41.9667,146.251,108.21,110.285,0.00390379,0.0807859,20.9039,70.4221,-0.171701,0.0,0.0
1183,295.5,38.5338,41.3434,145.425,108.143,110.065,,,,70.4221,-0.159245,0.0,0.0
1196,298.75,38.2245,41.3845,144.615,108.111,109.64,,,,70.4521,-0.126916,0.0,0.0
1209,302,38.4293,41.0162,145.276,108.038,110.147,,,,70.372,-0.17483,0.0,0.0
1214,303.25,38.5314,41.2685,150.037,108.035,110.035,,,,70.372,-0.165872,0.0,0.0

File: FRP_Panel_Cone_HF25Scan_220919_R2.csv
Names,Time,Stack TC,Smoke TC,Exh Press,Smoke Comp,Smoke Meas,CO Meter,CO2 Meter,O2 Meter,Sample Mass,Ext Coeff,Start Test,Flame Verif
Chan Gain,,500,500,1,1,1,1,1,1,1,1,1.0,1.0
Offset,,0,0,0.143022,0,0,0,0,0,0,0,0.0,0.0
Gain,,1,1,25.011,14.5176,16.5692,1,1,1,1.00088,1.03055,1.0,1.0
Units,sec,C,C,Pa,%,%,%,%,%,g,/m,,
Baseline,,36.6182,37.2262,149.043,108.916,110.163,0.000370824,0.0470271,20.9479,-445.494,-0.102904,,
13,3,34.6592,35.3534,149.349,108.93,110.274,0.000171937,0.0528793,20.943,78.1189,-0.110886,0.0,0.0
26,6.25,34.5934,35.7325,150.273,108.946,110.513,0.000161509,0.0505026,20.9454,78.0688,-0.129065,0.0,0.0
39,9.5,34.4022,35.2179,145.182,108.934,110.397,0.000324934,0.0486688,20.9472,78.0688,-0.120617,0.0,0.0
52,12.75,34.8609,35.2906,149.763,108.938,110.002,0.000359091,0.0475472,20.9488,78.0688,-0.0878176,0.0,0.0
65,16,34.8908,35.1034,146.884,108.934,110.056,0.000457852,0.0468887,20.9493,78.0588,-0.0926672,0.0,0.0
78,19.25,34.7703,35.5541,152.095,108.924,110.57,0.000441825,0.0467982,20.9492,78.0488,-0.13554,0.0,0.0
91,22.5,34.5156,35.676,147.392,108.928,110.39,0.000284419,0.0463132,20.9487,78.0288,-0.120479,0.0,0.0
104,25.75,34.8106,35.1828,148.053,108.934,109.822,0.000175461,0.0463481,20.9499,78.0488,-0.0734213,0.0,0.0
117,29,34.7298,35.6197,151.436,108.931,109.969,9.81526e-05,0.0460818,20.9501,78.0388,-0.0857041,0.0,0.0
130,32.25,34.4624,35.3922,150.657,108.916,110.048,0.000190409,0.046079,20.9502,78.0388,-0.0935143,0.0,0.0
143,35.5,34.3551,35.3639,152.988,108.928,110.096,0.00039284,0.0459608,20.9502,78.0288,-0.0964252,0.0,0.0
156,38.75,34.9937,35.2915,146.773,108.925,109.867,0.000422455,0.0460008,20.9502,78.0388,-0.0778555,0.0,0.0
169,42,34.526,35.4814,149.631,108.916,110.235,0.000585058,0.0461854,20.9506,78.0188,-0.108792,0.0,0.0
182,45.25,34.6206,35.087,148.199,108.922,109.522,0.000577016,0.0462277,20.9529,77.9787,-0.049735,0.0,0.0
195,48.5,34.8505,35.8148,151.12,108.934,109.9,0.0003571,0.04635,20.9535,77.9487,-0.0797867,0.0,0.0
208,51.75,35.008,35.544,147.79,108.928,109.42,0.000167609,0.0463325,20.9537,77.9487,-0.0407073,0.0,0.0
221,55,34.8992,35.3655,148.415,108.923,109.855,2.68793e-05,0.0463041,20.9531,77.9487,-0.0770452,0.0,0.0
234,58.25,35.0937,35.689,148.278,108.949,109.487,-0.000105951,0.0461862,20.9525,77.9487,-0.0444969,0.0,0.0
247,61.5,34.7634,35.415,145.609,108.939,109.548,-6.22559e-05,0.0463234,20.9523,77.9587,-0.0503922,0.0,0.0
260,64.75,35.4071,35.5862,149.978,108.926,110.464,0.000275738,0.0463704,20.9523,77.8586,-0.126752,0.0,0.0
273,68,34.8627,35.754,151.954,108.937,109.615,0.000326148,0.0463831,20.9521,77.8886,-0.0560827,0.0,0.0
286,71.25,34.9789,35.7367,145.855,108.939,109.569,0.000348244,0.0465237,20.9521,77.9287,-0.052103,0.0,0.0
299,74.5,35.1546,35.3839,149.744,108.928,109.362,0.000372941,0.0468183,20.951,77.8786,-0.0359385,0.0,0.0
312,77.75,35.1778,35.9552,147.67,108.93,109.83,0.000575125,0.0473546,20.9494,77.8586,-0.0743399,0.0,0.0
325,81,35.5821,35.655,147.128,108.941,110.015,0.00120517,0.057325,20.933,77.7785,-0.0887137,0.0,1.0
338,84.25,35.4624,36.0725,142.888,108.93,106.223,0.00208189,0.101964,20.8633,77.6284,0.227515,0.0,1.0
351,87.5,35.2302,35.4288,140.939,108.926,95.1675,0.0041827,0.183874,20.7476,77.4282,1.22062,0.0,1.0
364,90.75,37.8742,36.9387,134.134,108.923,86.3662,0.00966324,0.305924,20.5647,77.108,2.09766,0.0,0.0
377,94,40.5502,38.689,128.246,108.925,73.5843,0.0211128,0.472546,20.3205,76.5875,3.54567,0.0,0.0
390,97.25,45.1053,41.9821,116.273,108.917,66.0056,0.0374572,0.702865,19.9438,75.8969,4.52761,0.0,0.0
403,100.5,51.6257,46.7877,110.88,108.93,59.1349,0.0524982,0.979462,19.5427,74.9861,5.52231,0.0,0.0
416,103.75,58.7241,53.5415,112.661,108.932,56.2799,0.0596036,1.22925,19.2304,74.0853,5.96981,0.0,0.0
429,107,66.9157,60.7377,99.852,108.927,59.2603,0.0595495,1.34765,19.1143,73.2746,5.50294,0.0,0.0
442,110.25,73.7999,66.9953,103.645,108.939,56.0893,0.0579072,1.39939,19.0673,72.4238,6.00107,0.0,0.0
455,113.5,79.5855,73.8777,113.247,108.934,59.1429,0.0551558,1.40981,19.0661,71.503,5.52147,0.0,0.0
468,116.75,85.5511,79.8275,107.198,108.931,54.7822,0.0524715,1.40082,19.0918,70.7023,6.21356,0.0,0.0
481,120,89.9861,85.5971,107.444,108.935,54.6057,0.0514659,1.38559,19.112,69.8816,6.24306,0.0,0.0
494,123.25,93.8701,90.1291,110.613,108.95,52.9973,0.0512098,1.3763,19.1239,69.1209,6.51463,0.0,0.0
507,126.5,98.1981,94.9642,104.887,108.94,55.0148,0.0503132,1.36179,19.1428,68.2702,6.17604,0.0,0.0
520,129.75,100.682,98.9687,113.85,108.933,54.6548,0.0483523,1.33196,19.1844,67.5796,6.23476,0.0,0.0
533,133,103.051,102.274,106.388,108.937,56.5823,0.0457634,1.2762,19.2634,66.8189,5.92181,0.0,0.0
546,136.25,104.299,104.851,108.746,108.941,61.1676,0.0426289,1.21472,19.3457,66.1483,5.21778,0.0,0.0
559,139.5,105.152,106.764,118.722,108.941,64.25,0.0388933,1.11942,19.5052,65.5278,4.7733,0.0,0.0
572,142.75,104.483,107.46,119.217,108.936,61.6065,0.0349101,0.993289,19.6678,64.9573,5.15267,0.0,0.0
585,146,102.912,106.933,124.398,108.945,68.1182,0.0307365,0.865463,19.848,64.4568,4.24509,0.0,0.0
598,149.25,101.32,106.63,130.586,108.949,70.9787,0.0255521,0.742144,20.0115,64.0665,3.8736,0.0,0.0
611,152.5,98.4078,105.135,132.413,108.936,79.2188,0.0207052,0.6281,20.1889,63.7162,2.87965,0.0,0.0
624,155.75,95.3854,103.118,132.841,108.937,84.3764,0.0162143,0.520445,20.3144,63.4759,2.3095,0.0,0.0
637,159,91.4568,100.365,136.417,108.931,90.6399,0.0124249,0.435661,20.4264,63.2558,1.6617,0.0,0.0
650,162.25,88.2006,98.0851,136.873,108.907,99.0914,0.00927855,0.350562,20.5495,63.1056,0.853868,0.0,0.0
663,165.5,84.0898,95.0288,142.131,108.906,103.467,0.00671305,0.280343,20.6526,63.0055,0.463159,0.0,0.0
676,168.75,81.1106,91.8102,141.919,108.895,108.615,0.00527427,0.223383,20.7277,62.8954,0.0232826,0.0,0.0
689,172,77.2197,89.1314,142.591,108.884,110.522,0.00489837,0.178688,20.7879,62.8854,-0.134957,0.0,0.0
702,175.25,74.087,85.8478,143.392,108.855,111.515,0.00512613,0.147601,20.8286,62.8454,-0.218215,0.0,0.0
715,178.5,70.9116,83.4833,142.85,108.861,111.428,0.00556856,0.12573,20.8546,62.7853,-0.210725,0.0,0.0
728,181.75,66.6574,78.766,145.586,108.854,110.979,0.00591357,0.112385,20.8699,62.7653,-0.174812,0.0,0.0
741,185,63.9425,76.6199,148.761,108.829,110.995,0.00642881,0.106502,20.8748,62.7753,-0.178153,0.0,0.0
754,188.25,61.867,73.669,148.886,108.828,110.659,0.00656788,0.104341,20.8776,62.7453,-0.150831,0.0,0.0
767,191.5,59.8435,71.8013,148.107,108.822,111.013,0.00672542,0.102896,20.8793,62.7053,-0.180142,0.0,0.0
780,194.75,57.7463,69.4293,143.342,108.801,111.249,0.00668944,0.10215,20.88,62.6452,-0.201122,0.0,0.0
793,198,55.8804,67.612,144.321,108.759,111.229,0.00642262,0.101899,20.8802,62.6552,-0.203013,0.0,0.0
806,201.25,54.2168,66.0337,145.001,108.778,111.449,0.00635006,0.100916,20.8812,62.5952,-0.219252,0.0,0.0
819,204.5,53.2241,63.8715,144.162,108.783,110.521,0.00655673,0.099771,20.8815,62.6152,-0.143306,0.0,0.0
832,207.75,51.673,62.3732,145.279,108.746,111.358,0.0067006,0.0993142,20.8812,62.5351,-0.214591,0.0,0.0
845,211,50.5997,60.7258,143.281,108.746,110.974,0.00643356,0.0992693,20.8817,62.5151,-0.183304,0.0,0.0
858,214.25,49.7342,59.5338,150.057,108.737,110.513,0.00620786,0.0980509,20.8836,62.455,-0.146433,0.0,0.0
871,217.5,48.9271,58.0169,143.476,108.727,110.561,0.00637239,0.0968104,20.8859,62.4751,-0.151176,0.0,0.0
884,220.75,47.9243,57.0422,146.059,108.719,110.886,0.00637636,0.0964387,20.886,62.4751,-0.178417,0.0,0.0
897,224,47.1074,55.9442,146.447,108.696,110.412,0.00631221,0.096215,20.8858,62.435,-0.141629,0.0,0.0
910,227.25,46.5769,54.7303,143.909,108.696,110.644,0.00615534,0.0949988,20.8877,62.445,-0.160649,0.0,0.0
923,230.5,45.7299,53.2759,147.7,108.677,110.299,0.00588814,0.0934779,20.8912,62.405,-0.13393,0.0,0.0
936,233.75,45.5323,52.6327,149.816,108.654,110.353,0.00583471,0.0922804,20.8924,62.365,-0.140285,0.0,0.0
949,237,45.1786,51.7967,148.953,108.651,110.362,0.00574124,0.091536,20.895,62.345,-0.141288,0.0,0.0
962,240.25,44.4665,51.2113,146.266,108.594,110.854,0.00570332,0.0907974,20.8965,62.3249,-0.186178,0.0,0.0
975,243.5,43.868,50.366,149.716,108.579,110.657,0.0057766,0.0906376,20.8963,62.2649,-0.171372,0.0,0.0
988,246.75,43.8617,49.7469,148.065,108.566,110.535,0.00553214,0.0896578,20.8989,62.2449,-0.162445,0.0,0.0
1001,250,42.7335,48.6562,143.233,108.554,110.45,0.00531837,0.0887442,20.8999,62.2449,-0.156532,0.0,0.0
1014,253.25,42.1361,47.5909,149.3,108.536,109.836,0.00515814,0.0881991,20.8975,62.2349,-0.107699,0.0,0.0
1027,256.5,42.122,47.2609,151.007,108.525,110.764,0.00496047,0.0874571,20.8976,62.1948,-0.184668,0.0,0.0
1040,259.75,42.0493,46.7192,145.797,108.517,110.223,0.00470618,0.086466,20.8986,62.2048,-0.140993,0.0,0.0
1053,263,41.5908,46.1953,146.612,108.499,109.994,0.00468514,0.0860856,20.8993,62.1448,-0.123701,0.0,0.0
1066,266.25,41.4911,45.712,147.276,108.504,109.823,0.00453043,0.0850472,20.901,62.0947,-0.109237,0.0,0.0
1079,269.5,40.9356,44.9065,146.938,108.504,111.17,0.0043916,0.0840521,20.9018,62.1047,-0.219402,0.0,0.0
1092,272.75,40.8263,44.9088,145.229,108.483,110.3,0.0043278,0.0837138,20.9034,62.0947,-0.150174,0.0,0.0
1105,276,40.1463,44.6669,147.251,108.491,109.993,0.00427926,0.0827651,20.9039,62.0647,-0.12432,0.0,0.0
1118,279.25,40.6449,43.2991,145.146,108.504,110.025,0.00417408,0.0816364,20.9055,62.0847,-0.125866,0.0,0.0
1131,282.5,39.9495,43.4592,142.522,108.501,110.334,0.00413732,0.0806269,20.9059,62.0547,-0.151474,0.0,0.0
1144,285.75,40.1031,43.1974,145.211,108.48,110.684,0.00391928,0.0797379,20.9074,62.0147,-0.181873,0.0,0.0
1157,289,39.405,43.0456,144.529,108.471,110.569,,0.0787178,,62.0147,-0.173191,0.0,0.0
1170,292.25,40.1214,42.6565,145.833,108.455,110.393,,,,62.0147,-0.160159,0.0,0.0
1183,295.5,39.1959,42.541,143.861,108.443,110.16,,,,61.9746,-0.142006,0.0,0.0
1195,298.5,39.4518,42.1015,148.235,108.421,109.757,,,,61.9646,-0.110684,0.0,0.0