Folder: fsri_materials_database/01_Data/FRP_Panel/Cone (part 5)

File: FRP_Panel_Cone_HF75Scan_220919_R2.csv
Names,Time,Stack TC,Smoke TC,Exh Press,Smoke Comp,Smoke Meas,CO Meter,CO2 Meter,O2 Meter,Sample Mass,Ext Coeff,Start Test,Flame Verif
Chan Gain,,500,500,1,1,1,1,1,1,1,1,1.0,1.0
Offset,,0,0,0.143022,0,0,0,0,0,0,0,0.0,0.0
Gain,,1,1,25.011,14.5176,16.5692,1,1,1,1.00088,1.03055,1.0,1.0
Units,sec,C,C,Pa,%,%,%,%,%,g,/m,,
Baseline,,64.2082,66.1508,138.253,110.47,116.941,-8.51123e-06,0.0426409,20.9552,-449.26,-0.514551,,
8,1.75,61.7211,62.9145,141.462,109.999,116.943,0.000216663,0.0442303,20.9519,74.2855,-0.553334,0.0,0.0
16,3.75,61.3786,62.9364,137.716,109.96,117.224,9.68106e-05,0.0441636,20.9525,74.2955,-0.578319,0.0,0.0
24,5.75,61.3324,63.3209,137.241,109.917,116.922,1.94875e-05,0.0439218,20.9538,74.2654,-0.558542,0.0,0.0
32,7.75,61.1821,62.9419,140.477,109.885,116.313,3.46499e-06,0.0436553,20.9546,74.2454,-0.513898,0.0,0.0
40,9.75,61.8026,63.3212,138.857,109.857,115.976,-4.02706e-05,0.0434309,20.9549,74.1954,-0.489944,0.0,0.0
48,11.75,61.0873,63.0093,139.6,109.834,115.405,-2.32977e-05,0.0433218,20.9547,74.2054,-0.447231,0.0,0.0
56,13.75,61.298,63.2213,137.832,109.793,116.438,0.000219515,0.0438061,20.9524,74.2154,-0.531183,0.0,0.0
64,15.75,61.4131,63.3598,140.088,109.769,115.973,0.00116553,0.0499957,20.9325,74.1754,-0.497004,0.0,0.0
72,17.75,60.9943,63.4125,129.099,109.749,99.2952,0.00428057,0.1032,20.8486,74.0453,0.904899,0.0,1.0
80,19.75,63.0138,64.3249,123.184,109.714,80.7656,0.0110736,0.225357,20.6728,73.755,2.76917,0.0,1.0
88,21.75,63.4828,64.1561,118.644,109.688,62.8752,0.0223729,0.436284,20.3615,73.3446,5.03061,0.0,1.0
96,23.75,66.5253,66.1701,94.5449,109.667,54.8186,0.0377196,0.752974,19.89,72.7841,6.26846,0.0,0.0
104,25.75,72.7013,70.3308,104.884,109.642,51.2128,0.0514701,1.09138,19.3941,72.1236,6.88149,0.0,0.0
112,27.75,79.1431,75.663,99.494,109.611,53.0316,0.061463,1.39844,19.0081,71.493,6.56345,0.0,0.0
120,29.75,85.4303,82.3553,94.8961,109.591,46.7414,0.0677855,1.61254,18.7763,70.8324,7.70314,0.0,0.0
128,31.75,92.189,88.6226,95.9555,109.548,42.3513,0.0747172,1.78729,18.5651,70.2019,8.59124,0.0,0.0
136,33.75,98.3694,95.4492,85.807,109.523,38.3804,0.0813674,1.92534,18.3769,69.4412,9.47915,0.0,0.0
144,35.75,105.084,101.624,91.0888,109.481,38.9184,0.0864221,2.08093,18.1619,68.7506,9.34984,0.0,0.0
152,37.75,111.366,108.527,92.5826,109.431,36.7254,0.0916131,2.24527,17.9366,67.9699,9.86997,0.0,0.0
160,39.75,118.413,115.479,85.0803,109.391,37.7585,0.0972375,2.37043,17.7548,67.2092,9.61594,0.0,0.0
168,41.75,125.015,122.489,82.3524,109.352,34.5228,0.103359,2.49527,17.599,66.3585,10.4226,0.0,0.0
176,43.75,131.187,129.94,81.8845,109.321,33.9211,0.107853,2.57956,17.492,65.5778,10.579,0.0,0.0
184,45.75,136.852,136.469,85.3192,109.264,32.9603,0.110577,2.63696,17.419,64.8171,10.834,0.0,0.0
192,47.75,142.964,143.001,86.7489,109.244,35.6226,0.112245,2.67519,17.3797,64.0464,10.1302,0.0,0.0
200,49.75,147.415,149.307,79.4039,109.203,36.415,0.112392,2.66774,17.3902,63.2057,9.92792,0.0,0.0
208,51.75,151.94,154.38,86.0718,109.174,35.6898,0.110192,2.62385,17.4325,62.455,10.1073,0.0,0.0
216,53.75,155.858,159.541,91.4491,109.135,39.7674,0.105517,2.53106,17.5025,61.7544,9.12611,0.0,0.0
224,55.75,158.539,164.125,89.2929,109.087,42.8468,0.0949993,2.40247,17.7067,61.1039,8.44795,0.0,0.0
232,57.75,160.366,167.183,92.5894,109.05,45.3478,0.0832386,2.2053,18.0683,60.6034,7.932,0.0,0.0
240,59.75,160.348,168.656,105.367,109.004,53.8887,0.0713254,1.93715,18.4009,60.0129,6.36828,0.0,0.0
248,61.75,159.755,169.789,100.47,108.973,60.5234,0.0591269,1.6454,18.7775,59.7026,5.3161,0.0,0.0
256,63.75,158.374,169.225,115.401,108.935,67.8315,0.0465157,1.31954,19.2201,59.3623,4.28241,0.0,0.0
264,65.75,154.433,167.605,121.373,108.897,80.1795,0.0352432,1.01592,19.6062,59.2022,2.76744,0.0,0.0
272,67.75,150.461,165.05,127.19,108.86,95.3127,0.0245521,0.769615,19.9477,59.052,1.2014,0.0,0.0
280,69.75,146.184,161.325,130.217,108.836,109.245,0.0172364,0.555869,20.2284,58.9319,-0.0339707,0.0,0.0
288,71.75,141.552,157.961,133.438,108.798,115.098,0.0117211,0.399973,20.4769,58.9219,-0.508852,0.0,0.0
296,73.75,137.472,154.547,135.578,108.793,115.469,0.00837945,0.30697,20.6135,58.9419,-0.538437,0.0,0.0
304,75.75,133.205,150.837,133.564,108.759,115.71,0.006372,0.242637,20.6974,58.9319,-0.560059,0.0,0.0
312,77.75,128.176,145.986,133.637,108.729,115.004,0.00507989,0.203488,20.754,58.9119,-0.507246,0.0,0.0
320,79.75,124.516,142.814,133.489,108.727,115.471,0.00432907,0.181907,20.7878,58.9019,-0.544045,0.0,0.0
328,81.75,121.292,139.605,130.151,108.689,114.997,0.00385096,0.168054,20.8095,58.8519,-0.509969,0.0,0.0
336,83.75,118.534,137.095,133.493,108.681,115.791,0.00341123,0.159166,20.8247,58.7718,-0.57286,0.0,0.0
344,85.75,115.572,133.797,131.476,108.648,115.629,0.00316549,0.154213,20.8323,58.7418,-0.562947,0.0,0.0
352,87.75,112.552,131.701,132.367,108.641,115.636,0.00298643,0.15156,20.8367,58.7017,-0.56409,0.0,0.0
360,89.75,110.247,129.258,134.167,108.615,116.091,0.00293626,0.14961,20.8398,58.6717,-0.601809,0.0,0.0
368,91.75,107.934,126.552,132.943,108.598,115.167,0.00289841,0.148782,20.8427,58.5616,-0.530946,0.0,0.0
376,93.75,105.856,124.308,133.636,108.583,116.09,0.00288581,0.148771,20.8449,58.5216,-0.604349,0.0,0.0
384,95.75,103.997,121.94,131.445,108.566,115.136,0.00294951,0.148529,20.8464,58.5416,-0.531103,0.0,0.0
392,97.75,101.729,120.162,138.66,108.58,115.285,0.0029872,0.147744,20.8478,58.5316,-0.541701,0.0,0.0
400,99.75,100.277,118.023,129.722,108.564,115.538,0.00297772,0.146621,20.8491,58.4515,-0.562758,0.0,0.0
408,101.75,98.2119,115.965,136.933,108.549,114.872,0.00291435,0.14563,20.8503,58.4115,-0.511871,0.0,0.0
416,103.75,96.6353,114.411,132.358,108.548,115.001,0.0028513,0.144768,20.8522,58.4015,-0.522086,0.0,0.0
424,105.75,95.295,112.536,128.856,108.53,114.625,0.00283826,0.14463,20.8542,58.3014,-0.493981,0.0,0.0
432,107.75,93.8061,110.496,135.637,108.538,115.115,0.00284807,0.143837,20.8568,58.2513,-0.531839,0.0,0.0
440,109.75,92.4074,109.29,134.849,108.534,115.342,0.00290126,0.143008,20.8579,58.2814,-0.549943,0.0,0.0
448,111.75,91.6416,107.687,135.867,108.536,115.366,0.00292466,0.142089,20.8588,58.2013,-0.551658,0.0,0.0
456,113.75,90.4051,106.132,134.338,108.549,115.291,0.00278225,0.14016,20.8601,58.1513,-0.544761,0.0,0.0
464,115.75,89.0417,104.335,133.515,108.531,115.375,0.00263411,0.138277,20.8606,58.1212,-0.552777,0.0,0.0
472,117.75,88.2902,103.576,134.072,108.538,115.902,0.00264908,0.137064,20.8619,58.0712,-0.593415,0.0,0.0
480,119.75,87.4731,101.825,139.443,108.546,115.648,0.00280003,0.135644,20.8643,58.0412,-0.572928,0.0,0.0
488,121.75,85.8551,100.479,133.76,108.55,115.523,0.0029689,0.134014,20.8664,58.0712,-0.562828,0.0,0.0
496,123.75,85.1391,99.5525,132.011,108.569,115.33,0.00310338,0.132179,20.8689,58.0412,-0.546077,0.0,0.0
504,125.75,84.4603,98.2938,133.216,108.57,115.263,0.00317735,0.130057,20.8707,57.9811,-0.540771,0.0,0.0
512,127.75,83.2907,96.7151,133.277,108.583,115.493,0.00305893,0.128057,20.8728,57.9511,-0.557727,0.0,0.0
520,129.75,82.5251,95.8575,133.228,108.587,115.627,0.00292112,0.126155,20.8739,57.9311,-0.567801,0.0,0.0
528,131.75,82.0402,94.9095,133.04,108.626,115.2,0.00288461,0.124141,20.8755,57.881,-0.531167,0.0,0.0
536,133.75,81.148,94.0418,132.956,108.621,115.817,0.00296791,0.121814,20.8771,57.831,-0.579927,0.0,0.0
544,135.75,80.4829,93.03,134.041,108.649,115.794,0.00318039,0.119944,20.8782,57.8009,-0.575711,0.0,0.0
552,137.75,79.6667,92.1492,134.879,108.665,115.824,0.00333864,0.11854,20.8798,57.7809,-0.576716,0.0,0.0
560,139.75,79.4349,91.0087,134.095,108.689,115.701,0.00333699,0.116826,20.8822,57.7709,-0.56513,0.0,0.0
568,141.75,78.4791,90.3817,134.234,108.715,116.052,0.00325421,0.115448,20.8835,57.7509,-0.590447,0.0,0.0
576,143.75,78.2696,89.183,133.112,108.747,114.882,0.00309496,0.114173,20.8852,57.7109,-0.496149,0.0,0.0
584,145.75,78.0257,88.6242,138.7,108.779,115.432,0.00294021,0.112178,20.887,57.6808,-0.536651,0.0,0.0
592,147.75,77.3182,88.0489,135.749,108.809,116.259,0.00282981,0.110263,20.8883,57.6408,-0.598696,0.0,0.0
600,149.75,77.037,86.8958,135.419,108.848,115.685,0.00272041,0.108615,20.8889,57.6308,-0.550684,0.0,0.0
608,151.75,76.4959,86.2296,133.88,108.881,116.029,0.00256535,0.106848,20.8905,57.6208,-0.574754,0.0,0.0
616,153.75,75.8931,85.3618,135.606,108.933,115.978,0.00241385,0.10539,20.892,57.5807,-0.566508,0.0,0.0
624,155.75,75.2572,85.0824,135.873,108.98,115.901,0.00231039,0.104268,20.8945,57.5707,-0.556619,0.0,0.0
632,157.75,75.3374,84.282,135.48,109.023,116.134,0.00226669,0.10308,20.8955,57.5207,-0.571184,0.0,0.0
640,159.75,74.7411,83.6273,132.527,109.063,116.314,0.00211447,0.102059,20.8959,57.5207,-0.581841,0.0,0.0
648,161.75,74.397,83.2622,131.428,109.107,115.507,0.00197795,0.101254,20.8963,57.4807,-0.515302,0.0,0.0
656,163.75,74.0882,82.6887,134.064,109.155,116.284,0.00195455,0.100101,20.8983,57.4706,-0.571886,0.0,0.0
664,165.75,73.4412,82.3152,139.523,109.164,116.567,0.00197108,0.098489,20.8998,57.4206,-0.5931,0.0,0.0
672,167.75,73.1903,81.688,135.222,109.207,115.894,0.00190472,0.096688,20.9023,57.3906,-0.537273,0.0,0.0
680,169.75,73.0605,80.5321,133.825,109.247,115.986,0.0017795,0.0950608,20.9037,57.3806,-0.541073,0.0,0.0
688,171.75,72.2178,80.494,136.531,109.272,116.52,0.00153524,0.0933333,20.9076,57.3606,-0.580578,0.0,0.0
696,173.75,72.3587,79.8751,134.45,109.295,116.307,0.00137715,0.0913689,20.9111,57.3706,-0.562105,0.0,0.0
704,175.75,72.0159,79.116,135.382,109.335,117.306,0.00121532,0.0895391,20.9149,57.3405,-0.636175,0.0,0.0
712,177.75,72.213,79.4052,134.367,109.335,116.942,0.00108272,0.086944,20.9179,57.3405,-0.608036,0.0,0.0
720,179.75,71.6425,78.7995,136.433,109.354,115.364,0.00103615,0.0842438,20.9215,57.3205,-0.483673,0.0,0.0
728,181.75,71.522,77.98,134.985,109.391,116.783,0.00100249,0.0806397,20.9263,57.2905,-0.591103,0.0,0.0
736,183.75,71.5051,77.9869,131.807,109.408,117.374,0.000803296,0.0772835,20.9299,57.3005,-0.635353,0.0,0.0
744,185.75,71.0176,77.2241,132.399,109.424,116.876,0.000442904,0.0740087,20.9337,57.2705,-0.595594,0.0,0.0
752,187.75,70.8246,77.3507,137.687,109.443,116.231,,0.0707747,,57.2605,-0.54394,0.0,0.0
760,189.75,70.5583,76.4103,139.479,109.456,116.265,,,,57.2505,-0.545551,0.0,0.0
768,191.75,70.0735,75.9728,134.706,109.481,115.741,,,,57.1804,-0.502718,0.0,0.0
776,193.75,69.8699,75.6562,135.972,109.496,116.355,,,,57.2404,-0.549253,0.0,0.0
784,195.75,69.4704,75.5565,135.586,109.515,116.055,,,,57.2004,-0.524354,0.0,0.0
788,196.75,69.6509,75.5599,136.606,109.524,116.557,,,,57.1704,-0.562613,0.0,0.0

File: FRP_Panel_Cone_HF75Scan_220919_R3.csv
Names,Time,Stack TC,Smoke TC,Exh Press,Smoke Comp,Smoke Meas,CO Meter,CO2 Meter,O2 Meter,Sample Mass,Ext Coeff,Start Test,Flame Verif
Chan Gain,,500,500,1,1,1,1,1,1,1,1,1.0,1.0
Offset,,0,0,0.143022,0,0,0,0,0,0,0,0.0,0.0
Gain,,1,1,25.011,14.5176,16.5692,1,1,1,1.00088,1.03055,1.0,1.0
Units,sec,C,C,Pa,%,%,%,%,%,g,/m,,
Baseline,,66.4049,68.4257,137.549,109.679,116.683,6.05519e-05,0.0427628,20.9553,-449.481,-0.559547,,
9,2,63.0238,64.8958,137.438,109.293,115.419,0.000267322,0.0443103,20.955,81.8822,-0.49301,0.0,0.0
18,4.25,63.1384,65.1124,137.199,109.284,115.8,0.000284355,0.0437669,20.9563,81.9022,-0.523519,0.0,0.0
27,6.5,62.5062,64.5139,134.554,109.28,117.268,0.000123849,0.0435193,20.9569,81.8922,-0.637754,0.0,0.0
36,8.75,62.8326,64.5297,137.52,109.275,116.289,-9.83561e-05,0.0431956,20.9571,81.8421,-0.562376,0.0,0.0
45,11,62.8597,64.4426,135.746,109.265,115.675,-0.000215284,0.0429869,20.9564,81.8421,-0.515376,0.0,0.0
54,13.25,62.8183,64.5986,138.45,109.284,115.217,-0.000143309,0.0428807,20.9555,81.8121,-0.477924,0.0,0.0
63,15.5,63.3689,64.6337,139.274,109.256,115.472,9.92793e-05,0.0435701,20.9543,81.8021,-0.500246,0.0,0.0
72,17.75,62.8886,64.7029,135.141,109.252,114.799,0.00150824,0.0584565,20.9298,81.672,-0.447773,0.0,0.0
81,20,63.7215,65.0438,127.783,109.259,86.4142,0.00617815,0.154352,20.7525,81.4218,2.12046,0.0,1.0
90,22.25,65.4775,65.9326,121.947,109.232,69.6635,0.0172726,0.341485,20.5299,81.0715,4.0661,0.0,1.0
99,24.5,66.9825,66.9588,106.518,109.225,58.3996,0.0339511,0.643899,20.2024,80.4909,5.65986,0.0,1.0
108,26.75,73.1674,71.4405,93.2321,109.238,49.93,0.0515278,1.03807,19.5792,79.7603,7.0774,0.0,0.0
117,29,80.9468,77.8248,98.9376,109.227,49.4668,0.062628,1.45508,19.0185,79.0997,7.16074,0.0,0.0
126,31.25,88.478,85.4882,92.5757,109.202,46.9952,0.0704792,1.6924,18.6747,78.3491,7.622,0.0,0.0
135,33.5,96.1591,92.625,96.2982,109.201,44.4472,0.0773766,1.86451,18.4259,77.5584,8.12584,0.0,0.0
144,35.75,103.527,99.7753,87.0778,109.24,37.2174,0.0837567,2.02286,18.2298,76.7476,9.73388,0.0,0.0
153,38,110.647,107.66,88.6235,109.256,35.8668,0.091029,2.18811,18.0214,75.9069,10.0694,0.0,0.0
162,40.25,118.531,115.606,78.7268,109.269,33.7709,0.0983194,2.35737,17.7714,75.0562,10.6148,0.0,0.0
171,42.5,125.892,123.74,76.6561,109.307,35.1852,0.1048,2.49716,17.5889,74.1554,10.2471,0.0,0.0
180,44.75,133.328,132.148,92.5536,109.339,36.0301,0.110987,2.61563,17.4414,73.3046,10.0352,0.0,0.0
189,47,139.965,139.909,79.7649,109.367,33.8736,0.114807,2.67186,17.3732,72.4338,10.5954,0.0,0.0
198,49.25,145.995,147.294,85.9741,109.408,34.4859,0.114561,2.68147,17.3611,71.5331,10.4368,0.0,0.0
207,51.5,150.569,153.583,89.515,109.448,36.0721,0.110462,2.67122,17.3774,70.6122,10.0337,0.0,0.0
216,53.75,155.814,159.656,84.8292,109.471,37.405,0.104544,2.62955,17.454,69.7915,9.70755,0.0,0.0
225,56,159.66,164.807,88.6059,109.539,41.4583,0.0969871,2.49333,17.6212,69.0308,8.78312,0.0,0.0
234,58.25,162.21,169.413,93.8504,109.605,43.9057,0.0869053,2.29768,17.8643,68.3603,8.27008,0.0,0.0
243,60.5,163.025,171.928,94.0717,109.641,44.7309,0.0756281,2.04109,18.2201,67.6897,8.10471,0.0,0.0
252,62.75,162.587,172.86,109.291,109.679,53.241,0.0647392,1.74195,18.6084,67.1992,6.53342,0.0,0.0
261,65,161.041,172.504,109.22,109.717,57.6493,0.0522699,1.4267,19.0349,66.7989,5.81745,0.0,0.0
270,67.25,157.926,170.932,122.216,109.773,68.9005,0.0389887,1.10094,19.5074,66.4886,4.21036,0.0,0.0
279,69.5,153.116,168.314,126.012,109.791,87.7466,0.0282161,0.817616,19.8639,66.2884,2.02609,0.0,0.0
288,71.75,148.779,164.8,130.826,109.8,105.352,0.0183291,0.593587,20.154,66.2684,0.373816,0.0,0.0
297,74,143.804,160.997,128.551,109.851,114.454,0.0115879,0.422182,20.4309,66.2084,-0.371036,0.0,0.0
306,76.25,139.128,156.57,134.105,109.879,116.563,0.00780643,0.301157,20.6162,66.1683,-0.533801,0.0,0.0
315,78.5,134.836,152.803,131.074,109.858,116.382,0.0055051,0.230744,20.7145,66.1283,-0.521501,0.0,0.0
324,80.75,128.713,147.708,132.256,109.879,116.918,0.0042424,0.192061,20.7728,66.0983,-0.561252,0.0,0.0
333,83,124.754,143.886,130.604,109.92,116.447,0.00366726,0.170993,20.8061,66.0182,-0.521503,0.0,0.0
342,85.25,121.59,140.561,131.151,109.955,116.609,0.00347638,0.15991,20.8227,66.0082,-0.531138,0.0,0.0
351,87.5,118.503,137.532,131.59,109.937,116.862,0.00339994,0.15409,20.8333,65.9481,-0.552216,0.0,0.0
360,89.75,115.026,134.026,133.817,109.952,117.013,0.00335442,0.150778,20.8399,65.9381,-0.562623,0.0,0.0
369,92,112.707,131.642,133.463,109.959,116.58,0.00323707,0.148368,20.845,65.8881,-0.528578,0.0,0.0
378,94.25,109.787,128.401,132.635,109.965,116.513,0.00305591,0.146169,20.8458,65.868,-0.522889,0.0,0.0
387,96.5,107.467,125.882,132.839,109.984,116.963,0.00293884,0.144894,20.8474,65.818,-0.556096,0.0,0.0
396,98.75,105.387,123.529,137.498,110.012,117.483,0.00285914,0.144649,20.849,65.7379,-0.594003,0.0,0.0
405,101,102.808,120.871,133.762,110.033,117.258,0.00283626,0.1444,20.8513,65.7479,-0.574923,0.0,0.0
414,103.25,101.184,118.789,134.608,110.038,116.694,0.0027639,0.143601,20.8533,65.6779,-0.530839,0.0,0.0
423,105.5,98.894,116.354,138.195,110.051,116.991,0.00264837,0.142696,20.8547,65.6779,-0.552826,0.0,0.0
432,107.75,96.9567,114.324,133.112,110.063,117.163,0.00260561,0.141851,20.8561,65.5778,-0.565079,0.0,0.0
441,110,96.1068,112.512,132.155,110.049,117.238,0.00263594,0.14072,20.8579,65.5177,-0.572017,0.0,0.0
450,112.25,93.9224,110.751,131.159,110.066,117.036,0.00263377,0.140133,20.8587,65.4377,-0.555103,0.0,0.0
459,114.5,93.0932,109.132,135.431,110.072,117.362,0.00258629,0.138653,20.859,65.4377,-0.579672,0.0,0.0
468,116.75,91.4709,107.297,130.182,110.076,117.383,0.00278729,0.13799,20.8592,65.4076,-0.581055,0.0,0.0
477,119,90.4057,105.998,134.645,110.075,117.093,0.00308996,0.137552,20.8607,65.3776,-0.558748,0.0,0.0
486,121.25,89.2388,104.244,136.378,110.077,117.285,0.00311716,0.13609,20.8616,65.3176,-0.57335,0.0,0.0
495,123.5,88.2354,102.844,135.168,110.097,117.432,0.0029894,0.133612,20.8641,65.2975,-0.583086,0.0,0.0
504,125.75,87.2705,101.356,133.38,110.102,117.253,0.00291014,0.131307,20.8661,65.2175,-0.568859,0.0,0.0
513,128,85.8852,100.058,132.81,110.096,118.2,0.00288937,0.129055,20.8695,65.1274,-0.642054,0.0,0.0
522,130.25,85.0869,98.4465,136.342,110.088,117.704,0.00294126,0.127123,20.8712,65.1875,-0.604691,0.0,0.0
531,132.5,84.6475,97.5802,137.195,110.104,116.875,0.00296639,0.126177,20.8728,65.1875,-0.539543,0.0,0.0
540,134.75,83.2273,95.8143,134.542,110.123,117.331,0.00317592,0.125224,20.8735,65.1274,-0.573112,0.0,0.0
549,137,82.6815,95.0313,134.692,110.092,117.249,0.0034516,0.123729,20.8749,65.0573,-0.569347,0.0,0.0
558,139.25,81.9578,93.9122,133.556,110.109,117.211,0.00354009,0.121824,20.8771,64.9973,-0.565038,0.0,0.0
567,141.5,81.3573,93.0383,132.849,110.103,117.151,0.00344327,0.119731,20.8796,65.0073,-0.560908,0.0,0.0
576,143.75,80.8842,91.9177,137.981,110.09,116.924,0.00323713,0.117936,20.8823,64.9773,-0.544424,0.0,0.0
585,146,79.7584,90.6178,133.42,110.086,117.4,0.0031291,0.116241,20.8844,64.9172,-0.581542,0.0,0.0
594,148.25,79.2136,90.2002,133.38,110.102,117.108,0.00312967,0.114828,20.886,64.9272,-0.557663,0.0,0.0
603,150.5,78.5459,89.0396,136.929,110.089,117.718,0.00308312,0.112713,20.8877,64.8872,-0.605631,0.0,0.0
612,152.75,78.4387,88.1129,134.787,110.084,117.324,0.00302793,0.11022,20.8899,64.7871,-0.575843,0.0,0.0
621,155,77.5002,87.2615,137.171,110.079,117.76,0.00304379,0.108194,20.8914,64.7671,-0.609729,0.0,0.0
630,157.25,76.9401,86.5192,134.703,110.07,117.602,0.00304199,0.107497,20.8925,64.7971,-0.598338,0.0,0.0
639,159.5,76.4976,86.2483,136.704,110.067,117.181,0.00294797,0.106985,20.8929,64.7571,-0.566193,0.0,0.0
648,161.75,76.5945,84.9305,132.249,110.056,117.407,0.00282289,0.105296,20.894,64.8071,-0.584447,0.0,0.0
657,164,76.074,84.7062,135.033,110.061,117.734,0.00272508,0.103238,20.8957,64.7371,-0.609241,0.0,0.0
666,166.25,75.3934,83.7778,134.028,110.056,117.487,0.00272183,0.101544,20.8968,64.717,-0.590675,0.0,0.0
675,168.5,75.0127,83.0799,137.33,110.037,117.143,0.0026589,0.100437,20.8988,64.697,-0.565705,0.0,0.0
684,170.75,74.6588,82.36,136.437,110.035,117.268,0.002429,0.0994493,20.901,64.677,-0.575484,0.0,0.0
693,173,74.4959,82.0054,133.63,110.03,117.54,0.00216954,0.0977547,20.9028,64.657,-0.596868,0.0,0.0
702,175.25,74.4363,81.6584,136.939,110.013,116.461,0.00181295,0.0961883,20.9042,64.617,-0.514953,0.0,0.0
711,177.5,73.6331,80.7306,133.664,109.997,117.245,0.00157112,0.0954402,20.9055,64.5569,-0.576858,0.0,0.0
720,179.75,73.2009,80.2879,132.968,110.006,117.311,0.00151227,0.094771,20.906,64.5469,-0.581235,0.0,0.0
729,182,72.8216,80.252,136.723,109.994,117.518,0.00148181,0.0930198,20.9078,64.4568,-0.59818,0.0,0.0
738,184.25,72.946,79.6871,133.25,109.964,117.491,0.0012536,0.0906226,20.9112,64.4768,-0.598519,0.0,0.0
747,186.5,72.2832,78.6485,134.225,109.952,117.81,0.000948836,0.0877117,20.9142,64.4068,-0.624019,0.0,0.0
756,188.75,72.1598,78.0082,129.635,109.943,116.878,0.000706217,0.0840938,20.9201,64.4068,-0.552952,0.0,0.0
765,191,72.0635,77.9121,138.054,109.913,117.321,,0.0799351,,64.4268,-0.589588,0.0,0.0
774,193.25,71.6648,77.4057,134.302,109.887,117.44,,,,64.4268,-0.600929,0.0,0.0
783,195.5,71.4938,77.1895,137.994,109.875,117.594,,,,64.4268,-0.613776,0.0,0.0
792,197.75,71.0917,76.9855,138.897,109.879,117.244,,,,64.3968,-0.586507,0.0,0.0
800,199.75,71.2028,76.7127,137.043,109.863,117.218,,,,64.3867,-0.585758,0.0,0.0