Folder: fsri_materials_database/01_Data/FRP_Panel/Cone (part 4)

File: FRP_Panel_Cone_HF50Scan_220919_R4.csv
Names,Time,Stack TC,Smoke TC,Exh Press,Smoke Comp,Smoke Meas,CO Meter,CO2 Meter,O2 Meter,Sample Mass,Ext Coeff,Start Test,Flame Verif
Chan Gain,,500,500,1,1,1,1,1,1,1,1,1.0,1.0
Offset,,0,0,0.143022,0,0,0,0,0,0,0,0.0,0.0
Gain,,1,1,25.011,14.5176,16.5692,1,1,1,1.00088,1.03055,1.0,1.0
Units,sec,C,C,Pa,%,%,%,%,%,g,/m,,
Baseline,,51.6137,53.2079,143.374,108.343,113.495,0.000261741,0.043038,20.9505,-447.61,-0.419922,,
13,3,48.9685,50.5162,143.945,108.625,114.342,0.000686372,0.0436062,20.9533,84.4544,-0.463728,0.0,0.0
26,6.25,49.1102,50.6487,145.208,108.653,113.657,0.000709514,0.0433469,20.9535,84.4244,-0.407034,0.0,0.0
39,9.5,49.0249,50.8922,145.195,108.69,114.147,0.000708411,0.0432457,20.9535,84.4344,-0.442825,0.0,0.0
52,12.75,48.9885,50.2465,146.691,108.747,113.82,0.000409237,0.0431236,20.9519,84.4144,-0.41217,0.0,0.0
65,16,49.1018,50.7348,143.126,108.795,113.652,0.00010094,0.0431803,20.9514,84.3944,-0.394806,0.0,0.0
78,19.25,48.9933,50.7842,144.23,108.787,114.102,0.000206794,0.0432058,20.9523,84.3744,-0.431195,0.0,0.0
91,22.5,49.7166,51.256,145.138,108.85,113.747,0.000519258,0.0432603,20.9515,84.3644,-0.397765,0.0,0.0
104,25.75,49.1758,50.7308,143.772,108.914,113.076,0.000615931,0.0432252,20.9502,84.2943,-0.33902,0.0,0.0
117,29,49.1458,50.8643,146.629,108.934,112.948,0.000857869,0.0440607,20.9467,84.2843,-0.327095,0.0,0.0
130,32.25,50.1285,51.0331,132.941,108.968,101.142,0.00346758,0.103175,20.8674,84.0941,0.673721,0.0,1.0
143,35.5,50.9605,51.0324,125.26,109.033,77.7059,0.0127836,0.289036,20.5937,83.7138,3.06201,0.0,1.0
156,38.75,54.7089,53.7354,111.613,109.049,60.1138,0.0275192,0.578916,20.1124,83.0132,5.38377,0.0,0.0
169,42,61.3251,59.6218,102.24,109.111,56.0231,0.0427577,0.953681,19.6811,82.1224,6.026,0.0,0.0
182,45.25,70.6613,67.2643,99.7932,109.171,59.9661,0.0512469,1.26817,19.2211,81.3017,5.41617,0.0,0.0
195,48.5,79.5284,75.0381,99.391,109.188,54.3246,0.0554269,1.43255,19.0102,80.4109,6.31073,0.0,0.0
208,51.75,87.0369,83.397,96.3226,109.221,49.2822,0.061064,1.56434,18.8104,79.41,7.19409,0.0,0.0
221,55,95.4271,91.123,89.2684,109.261,44.3461,0.0664437,1.70966,18.6292,78.4191,8.15142,0.0,0.0
234,58.25,103.169,99.8408,96.286,109.293,40.804,0.0713397,1.82769,18.4655,77.3482,8.90658,0.0,0.0
247,61.5,110.89,107.801,92.984,109.303,43.264,0.076035,1.94513,18.3296,76.2472,8.37822,0.0,0.0
260,64.75,117.912,115.945,85.349,109.342,38.8947,0.079318,2.03135,18.2263,75.1262,9.34383,0.0,0.0
273,68,124.166,123.37,91.7224,109.357,43.8,0.081178,2.07298,18.1771,73.9852,8.27142,0.0,0.0
286,71.25,129.925,130.278,96.1509,109.376,41.6232,0.0799976,2.06986,18.1874,72.9843,8.73378,0.0,0.0
299,74.5,134.381,136.456,97.1118,109.411,43.7014,0.0761488,1.99688,18.2788,71.9234,8.29622,0.0,0.0
312,77.75,137.404,141.207,106.611,109.452,47.8467,0.0686419,1.82585,18.5087,71.0927,7.48041,0.0,0.0
325,81,137.813,143.367,108.762,109.478,52.3581,0.0581677,1.58134,18.844,70.2619,6.66803,0.0,0.0
338,84.25,137.081,144.291,115.3,109.498,56.2779,0.0471069,1.31073,19.1891,69.6814,6.01703,0.0,0.0
351,87.5,134.22,143.418,119.83,109.517,71.6381,0.0369542,1.03707,19.5792,69.201,3.83702,0.0,0.0
364,90.75,129.293,140.381,129.478,109.548,82.7715,0.0260936,0.781359,19.9298,68.9007,2.5337,0.0,0.0
377,94,124.28,136.981,128.571,109.54,95.8911,0.016722,0.558921,20.2699,68.6205,1.203,0.0,0.0
390,97.25,118.915,132.793,135.58,109.557,106.347,0.0108462,0.392439,20.478,68.5204,0.268811,0.0,0.0
403,100.5,113.419,128.045,134.472,109.564,115.112,0.0084554,0.275474,20.6531,68.4904,-0.446578,0.0,0.0
416,103.75,108.576,123.475,140.32,109.563,115.594,0.0083478,0.200712,20.7523,68.4804,-0.484413,0.0,0.0
429,107,103.856,119.152,138.545,109.572,114.949,0.00904605,0.160341,20.8051,68.3502,-0.433049,0.0,0.0
442,110.25,99.4874,115.239,138.613,109.592,116.231,0.00951195,0.14099,20.8279,68.3603,-0.531689,0.0,0.0
455,113.5,95.7193,111.554,135.283,109.606,115.129,0.00941495,0.130497,20.8402,68.3302,-0.444378,0.0,0.0
468,116.75,91.9954,108.004,142.583,109.594,115.63,0.0091627,0.123524,20.849,68.2401,-0.484665,0.0,0.0
481,120,88.8355,104.57,137.413,109.618,115.706,0.00905566,0.119656,20.8543,68.1501,-0.488617,0.0,0.0
494,123.25,86.311,102.034,144.726,109.627,115.08,0.00894343,0.116317,20.8588,68.1901,-0.438808,0.0,0.0
507,126.5,84.1467,98.912,136.563,109.604,115.515,0.00895038,0.114716,20.861,68.1601,-0.474883,0.0,0.0
520,129.75,81.4696,96.7553,136.787,109.619,115.228,0.00890247,0.11287,20.8627,68.1301,-0.451137,0.0,0.0
533,133,79.3666,93.8588,137.063,109.621,115.523,0.00858409,0.1117,20.8658,68.09,-0.474088,0.0,0.0
546,136.25,77.6327,91.8665,143.327,109.625,115.773,0.00859214,0.109628,20.8677,68.0099,-0.493285,0.0,0.0
559,139.5,75.9712,89.3166,138.253,109.605,115.871,0.00869428,0.107912,20.8694,68.03,-0.502585,0.0,0.0
572,142.75,74.1963,87.7104,142.425,109.618,115.984,0.00838897,0.106111,20.8714,67.9699,-0.510358,0.0,0.0
585,146,72.9452,85.7359,141.223,109.626,115.677,0.00826258,0.10446,20.8734,67.9599,-0.485746,0.0,0.0
598,149.25,71.5021,83.8339,139.338,109.61,115.133,0.00825799,0.103269,20.8751,67.9299,-0.444403,0.0,0.0
611,152.5,70.7433,82.4408,138.228,109.597,116.059,0.0082462,0.101661,20.878,67.8898,-0.517906,0.0,0.0
624,155.75,69.5626,80.6734,137.721,109.581,115.578,0.00821335,0.100071,20.8806,67.8498,-0.481649,0.0,0.0
637,159,68.4828,79.0773,137.542,109.565,115.529,0.00816176,0.098084,20.8831,67.8698,-0.47913,0.0,0.0
650,162.25,67.224,77.5122,138.723,109.555,115.673,0.00821144,0.0964948,20.8835,67.8298,-0.491238,0.0,0.0
663,165.5,66.5877,76.4525,137.116,109.548,115.442,0.00812844,0.095046,20.8848,67.8198,-0.473712,0.0,0.0
676,168.75,65.5679,75.0508,139.746,109.53,115.232,0.00807163,0.09348,20.887,67.7697,-0.458761,0.0,0.0
689,172,64.7442,73.8855,134.626,109.492,115.149,0.00803794,0.0918321,20.8889,67.7197,-0.455437,0.0,0.0
702,175.25,64.3413,73.085,143.93,109.485,115.755,0.00825176,0.0908872,20.891,67.7197,-0.503455,0.0,0.0
715,178.5,62.5212,70.9354,140.277,109.462,115.275,0.00836813,0.0894812,20.8945,67.6496,-0.467765,0.0,0.0
728,181.75,61.3383,69.2779,140.426,109.42,114.478,0.00810742,0.0873914,20.8964,67.6496,-0.408497,0.0,0.0
741,185,60.8599,68.9184,138.586,109.389,114.868,0.00818807,0.0865036,20.8986,67.6596,-0.441829,0.0,0.0
754,188.25,60.5138,68.2348,138.62,109.365,115.918,0.0082965,0.0856469,20.8994,67.6096,-0.52612,0.0,0.0
767,191.5,60.4111,66.7293,141.636,109.319,115.293,0.00790515,0.0841959,20.901,67.5796,-0.480984,0.0,0.0
780,194.75,59.4123,66.3048,141.443,109.289,115.254,0.00762143,0.083042,20.9026,67.5896,-0.480383,0.0,0.0
793,198,59.0025,65.8226,138.217,109.264,114.856,0.00735821,0.0822123,20.9039,67.5495,-0.451129,0.0,0.0
806,201.25,58.5412,64.8241,138.606,109.231,115.738,0.00690719,0.0812043,20.9059,67.5095,-0.523061,0.0,0.0
819,204.5,57.9146,64.3895,136.128,109.175,115.123,0.00612177,0.0801344,20.9069,67.5095,-0.479601,0.0,0.0
832,207.75,58.4797,63.8767,138.381,109.148,115.098,0.00537047,0.0787467,20.9091,67.4995,-0.47978,0.0,0.0
845,211,58.1259,62.8968,138.897,109.134,114.574,0.00467859,0.0769916,20.9113,67.4695,-0.439754,0.0,0.0
858,214.25,57.4982,61.8383,138.758,109.093,115.113,0.00414285,0.0743972,20.9147,67.4595,-0.485597,0.0,0.0
871,217.5,57.2243,61.9849,139.803,109.044,114.748,0.00360268,0.0720268,20.9175,67.4494,-0.46096,0.0,0.0
884,220.75,56.7892,61.3384,139.129,109.026,115.187,0.00301186,0.0697741,20.9197,67.4094,-0.496901,0.0,0.0
897,224,56.1939,61.4647,141.124,109.011,114.165,0.00230585,0.0673296,20.9232,67.4194,-0.417631,0.0,0.0
910,227.25,56.3589,60.7183,141.18,108.98,114.661,0.0018811,0.0642196,20.9266,67.3794,-0.459356,0.0,0.0
923,230.5,56.0718,60.4235,141.542,108.976,115.147,0.00146918,0.0605351,20.9313,67.3293,-0.497881,0.0,0.0
936,233.75,55.8358,60.1155,140.845,108.964,114.189,0.000949222,0.0568891,20.9354,67.3794,-0.423408,0.0,0.0
949,237,55.5189,59.4446,141.323,108.95,114.907,0.000713936,0.0539147,20.9405,67.3994,-0.481173,0.0,0.0
962,240.25,55.2221,58.7863,138.348,108.933,115.028,0.000762672,0.051137,20.9425,67.4094,-0.492149,0.0,0.0
975,243.5,55.4162,59.4137,138.554,108.975,114.637,0.000743363,0.0492322,20.9436,67.3694,-0.457884,0.0,0.0
988,246.75,54.5904,58.3258,136.863,109.014,114.118,0.000707763,0.0475581,20.9463,67.3694,-0.413646,0.0,0.0
1001,250,54.8461,58.2195,137.564,109.058,114.765,0.000530719,0.0463256,20.9474,67.3694,-0.461063,0.0,0.0
1014,253.25,54.5877,57.6918,141.451,109.094,114.457,0.000249087,0.0453065,20.9488,67.3794,-0.4338,0.0,0.0
1027,256.5,54.8004,57.0484,141.146,109.136,115.629,0.000257482,0.0446333,20.9475,67.3794,-0.522451,0.0,0.0
1040,259.75,54.2809,57.1852,140.106,109.201,114.409,6.20323e-05,0.0440956,20.9488,67.3694,-0.421161,0.0,0.0
1053,263,54.2993,56.8495,139.326,109.287,114.94,-0.000123916,0.0439653,20.9492,67.3293,-0.455906,0.0,0.0
1066,266.25,54.2654,56.4392,139.987,109.365,115.552,-6.39206e-05,0.0436882,20.9493,67.3594,-0.497488,0.0,0.0
1079,269.5,53.7322,56.3356,140.668,109.42,115.14,-0.000129705,0.043562,20.9493,67.3994,-0.460647,0.0,0.0
1092,272.75,53.6632,56.4662,139.609,109.488,114.956,-0.000132451,0.0434754,20.9492,67.3594,-0.44055,0.0,0.0
1105,276,53.6046,55.882,140.86,109.563,115.373,0.000185687,0.0434475,20.9488,67.3594,-0.467119,0.0,0.0
1118,279.25,53.4139,55.7571,139.307,109.632,114.397,0.000239795,0.0435104,20.9487,67.3494,-0.384588,0.0,0.0
1131,282.5,53.593,55.4537,138.416,109.685,115.516,0.000149779,0.0437042,20.9494,67.3494,-0.468201,0.0,0.0
1144,285.75,53.2765,55.7512,139.744,109.76,115.323,0.00012091,0.043634,20.9493,67.3694,-0.446903,0.0,0.0
1157,289,52.9946,55.1527,142.167,109.803,115.239,,0.0433832,,67.3293,-0.436822,0.0,0.0
1170,292.25,53.3701,55.2058,137.755,109.816,114.878,,,,67.3594,-0.407362,0.0,0.0
1183,295.5,53.1295,55.3442,142.286,109.846,114.769,,,,67.3293,-0.396281,0.0,0.0
1190,297.25,52.7717,54.693,142.08,109.855,115.395,,,,67.3293,-0.444761,0.0,0.0

File: FRP_Panel_Cone_HF75Scalar_220919_R1.csv
LABORATORY,FSRI
TEST IDENT,FRP_Panel_HF75_1
OPERATOR,Dow
MATERIAL,Fiber reinforced plastic panel
ORIENTATION,Horizontal
HEAT FLUX,75
SURF AREA,0.01
C FACTOR,0.0402601
SPEC HOLDER DIFF,-566
SPECIMEN MASS,33.02
SCAN TIME,0.25
O2 DELAY TIME,11
CO DELAY TIME,11
CO2 DELAY TIME,8
FLOW FACTOR,1
SCAN COUNT,812
TIME TO IGN,17.75
END OF TEST SCAN,332
END OF TEST TIME,83
TEST STATUS,1
PRE TEST CMT,Dimensions: 102.62 x 102.52 x 1.96 mm

File: FRP_Panel_Cone_HF75Scalar_220919_R2.csv
LABORATORY,FSRI
TEST IDENT,FRP_Panel_HF75_2
OPERATOR,Dow
MATERIAL,Fiber reinforced plastic panel
ORIENTATION,Horizontal
HEAT FLUX,75
SURF AREA,0.01
C FACTOR,0.0402601
SPEC HOLDER DIFF,-566
SPECIMEN MASS,31.77
SCAN TIME,0.25
O2 DELAY TIME,11
CO DELAY TIME,11
CO2 DELAY TIME,8
FLOW FACTOR,1
SCAN COUNT,788
TIME TO IGN,17
END OF TEST SCAN,308
END OF TEST TIME,77
TEST STATUS,1
PRE TEST CMT,Dimensions: 102.23 x 102.37 x 2.02 mm

File: FRP_Panel_Cone_HF75Scalar_220919_R3.csv
LABORATORY,FSRI
TEST IDENT,FRP_Panel_HF75_3
OPERATOR,Dow
MATERIAL,Fiber reinforced plastic panel
ORIENTATION,Horizontal
HEAT FLUX,75
SURF AREA,0.01
C FACTOR,0.0402601
SPEC HOLDER DIFF,-566
SPECIMEN MASS,32.61
SCAN TIME,0.25
O2 DELAY TIME,11
CO DELAY TIME,11
CO2 DELAY TIME,8
FLOW FACTOR,1
SCAN COUNT,800
TIME TO IGN,18.25
END OF TEST SCAN,320
END OF TEST TIME,80
TEST STATUS,1
PRE TEST CMT,Dimensions: 102.45 x 102.31 x 2.03 mm

File: FRP_Panel_Cone_HF75Scan_220919_R1.csv
Names,Time,Stack TC,Smoke TC,Exh Press,Smoke Comp,Smoke Meas,CO Meter,CO2 Meter,O2 Meter,Sample Mass,Ext Coeff,Start Test,Flame Verif
Chan Gain,,500,500,1,1,1,1,1,1,1,1,1.0,1.0
Offset,,0,0,0.143022,0,0,0,0,0,0,0,0.0,0.0
Gain,,1,1,25.011,14.5176,16.5692,1,1,1,1.00088,1.03055,1.0,1.0
Units,sec,C,C,Pa,%,%,%,%,%,g,/m,,
Baseline,,60.0893,62.474,138.423,109.671,115.874,0.000264601,0.0428893,20.9526,-448.929,-0.497292,,
9,2,57.4503,60.5432,139.074,109.557,115.661,0.000164114,0.0441546,20.9531,83.5436,-0.490109,0.0,0.0
18,4.25,58.2676,60.7189,139.701,109.577,115.56,0.000213699,0.043647,20.9538,83.5236,-0.480593,0.0,0.0
27,6.5,58.3006,60.5897,139.54,109.566,114.934,0.000319375,0.0432892,20.9544,83.5236,-0.432407,0.0,0.0
36,8.75,57.9128,60.5121,139.663,109.553,115.414,0.00041283,0.0431759,20.9547,83.4436,-0.471129,0.0,0.0
45,11,57.3899,60.3492,139.35,109.551,116.053,0.000512638,0.0431521,20.9548,83.4436,-0.521236,0.0,0.0
54,13.25,57.9756,59.9334,138.249,109.564,116.027,0.000632014,0.043126,20.9549,83.3935,-0.518129,0.0,0.0
63,15.5,58.2548,60.4712,136.54,109.549,115.208,0.000786106,0.0433519,20.9536,83.4335,-0.455288,0.0,0.0
72,17.75,58.2444,60.5128,135.664,109.547,114.743,0.0023194,0.059453,20.9302,83.2834,-0.418894,0.0,1.0
81,20,58.8802,61.152,124.879,109.536,87.9069,0.00742459,0.147261,20.7498,83.1032,1.98852,0.0,1.0
90,22.25,60.4672,61.3997,117.909,109.552,66.3338,0.0197312,0.337767,20.4378,82.7429,4.53536,0.0,1.0
99,24.5,62.6808,62.8618,102.228,109.517,51.0424,0.0412503,0.618442,20.063,82.0223,6.90131,0.0,0.0
108,26.75,67.6156,66.1365,103.291,109.504,45.0247,0.0622722,1.03084,19.5267,81.2116,8.0342,0.0,0.0
117,29,74.7565,72.1414,93.4115,109.501,47.6111,0.0750809,1.4221,18.9893,80.4009,7.52906,0.0,0.0
126,31.25,82.9074,79.3985,92.3856,109.485,44.1661,0.0804299,1.6841,18.6519,79.7803,8.20668,0.0,0.0
135,33.5,90.0088,86.4331,89.9974,109.486,39.6688,0.0842061,1.84029,18.4394,78.9396,9.17756,0.0,0.0
144,35.75,97.4699,93.9852,80.3373,109.469,38.3228,0.0883736,1.9856,18.25,78.1789,9.48828,0.0,0.0
153,38,104.736,101.385,105.917,109.447,39.193,0.0925708,2.10747,18.1002,77.3382,9.28351,0.0,0.0
162,40.25,111.954,108.682,84.1728,109.439,32.8845,0.0977525,2.22572,17.9323,76.4474,10.8693,0.0,0.0
171,42.5,119.076,116.719,81.5555,109.43,35.3546,0.103395,2.34009,17.7861,75.5966,10.2138,0.0,0.0
180,44.75,126.158,123.887,84.5651,109.412,36.8139,0.107485,2.44072,17.6659,74.7459,9.84664,0.0,0.0
189,47,132.515,131.209,84.9216,109.42,33.3305,0.110322,2.52952,17.5613,73.8551,10.7459,0.0,0.0
198,49.25,138.929,138.937,82.5814,109.372,36.423,0.109797,2.57019,17.5156,73.1044,9.93984,0.0,0.0
207,51.5,143.891,145.31,84.817,109.35,35.5548,0.106623,2.54245,17.55,72.1736,10.1561,0.0,0.0
216,53.75,148.011,151.118,87.4938,109.347,36.3012,0.10128,2.49252,17.6159,71.2828,9.96809,0.0,0.0
225,56,151.758,155.688,90.7103,109.323,38.0528,0.0948191,2.38925,17.7848,70.5322,9.54015,0.0,0.0
234,58.25,154.014,159.928,87.548,109.299,43.845,0.0859086,2.20741,18.0148,69.8215,8.25727,0.0,0.0
243,60.5,155.164,161.822,96.6623,109.297,43.8187,0.0746798,1.98173,18.312,69.221,8.26258,0.0,0.0
252,62.75,154.563,163.641,102.298,109.258,50.0665,0.0631398,1.71768,18.6992,68.7306,7.0544,0.0,0.0
261,65,153.436,163.347,106.176,109.236,55.2454,0.0516635,1.42287,19.0754,68.2802,6.16271,0.0,0.0
270,67.25,150.196,161.559,119.727,109.215,66.0845,0.0394107,1.12955,19.4748,67.9399,4.54149,0.0,0.0
279,69.5,146.635,159.641,122.676,109.22,81.3678,0.0280093,0.871028,19.8795,67.7797,2.66119,0.0,0.0
288,71.75,141.95,156.413,130.449,109.184,103.152,0.0194396,0.636557,20.1913,67.6496,0.51379,0.0,0.0
297,74,137.657,153.023,131.554,109.163,112.222,0.0137937,0.456235,20.3826,67.6396,-0.249804,0.0,0.0
306,76.25,132.505,149.652,135.375,109.136,114.885,0.00933925,0.334878,20.5635,67.5696,-0.464036,0.0,0.0
315,78.5,128.197,145.495,131.246,109.124,115.327,0.00693671,0.257736,20.6856,67.5195,-0.499774,0.0,0.0
324,80.75,124.448,141.781,131.89,109.089,115.255,0.00546739,0.207652,20.7557,67.4695,-0.497041,0.0,0.0
333,83,120.38,138.406,131.856,109.055,114.97,0.00454745,0.180541,20.7942,67.4394,-0.477473,0.0,0.0
342,85.25,115.423,133.235,133.625,109.122,115.909,0.00402308,0.165802,20.8147,67.3794,-0.545424,0.0,0.0
351,87.5,112.351,130.288,131.531,109.197,116.11,0.00371242,0.156819,20.8266,67.3494,-0.554867,0.0,0.0
360,89.75,109.451,127.818,135.002,109.291,115.387,0.00354958,0.151126,20.8347,67.2793,-0.490701,0.0,0.0
369,92,106.562,125.297,130.965,109.401,116.624,0.0033846,0.147732,20.8399,67.2493,-0.57796,0.0,0.0
378,94.25,103.896,122.676,135.225,109.502,116.916,0.00339152,0.145796,20.8427,67.1992,-0.592206,0.0,0.0
387,96.5,101.7,120.387,133.302,109.578,116.504,0.00353484,0.144655,20.8459,67.1992,-0.554109,0.0,0.0
396,98.75,99.2063,117.313,133.238,109.672,116.279,0.00372991,0.144293,20.8456,67.1492,-0.528888,0.0,0.0
405,101,97.3931,115.425,133.671,109.735,116.545,0.0037798,0.143896,20.8468,67.1392,-0.544357,0.0,0.0
414,103.25,95.8451,113.494,134.193,109.779,116.662,0.00362256,0.143162,20.8485,67.0791,-0.549689,0.0,0.0
423,105.5,94.0493,110.99,134.659,109.8,116.209,0.00336985,0.142612,20.8492,67.0391,-0.512799,0.0,0.0
432,107.75,92.1259,109.219,132.98,109.831,115.606,0.00327855,0.141979,20.8506,67.0191,-0.463276,0.0,0.0
441,110,91.0685,107.069,137.02,109.871,116.39,0.00330881,0.140527,20.8533,66.939,-0.521038,0.0,0.0
450,112.25,89.0669,105.459,134.392,109.898,116.474,0.00342225,0.139123,20.8553,66.909,-0.525293,0.0,0.0
459,114.5,88.215,103.637,132.462,109.929,116.213,0.00347371,0.137924,20.8573,66.8689,-0.502508,0.0,0.0
468,116.75,86.3334,102.3,132.142,109.947,116.489,0.00344024,0.136143,20.8591,66.8289,-0.522538,0.0,0.0
477,119,85.5509,100.897,133.107,109.957,116.664,0.00337818,0.134714,20.8604,66.7588,-0.535266,0.0,0.0
486,121.25,84.5209,98.598,135.785,109.909,116.598,0.00321565,0.133132,20.8623,66.7088,-0.534065,0.0,0.0
495,123.5,83.665,97.902,133.937,109.892,117.135,0.00314588,0.131595,20.8648,66.6888,-0.576952,0.0,0.0
504,125.75,82.4988,96.8535,133.602,109.909,116.764,0.00320542,0.130123,20.8679,66.6487,-0.546954,0.0,0.0
513,128,81.5011,95.3591,135.844,109.931,116.531,0.00328045,0.128417,20.8701,66.6387,-0.527066,0.0,0.0
522,130.25,80.6252,93.7788,134.956,109.951,116.238,0.00350768,0.126397,20.8722,66.5887,-0.502686,0.0,0.0
531,132.5,79.9207,92.7335,134.921,109.974,116.07,0.00381242,0.124607,20.8732,66.5687,-0.487691,0.0,0.0
540,134.75,79.2626,92.0031,140.187,110.005,115.956,0.00387512,0.122865,20.8748,66.5286,-0.476313,0.0,0.0
549,137,78.2657,90.7105,135.499,109.999,116.263,0.00374887,0.121149,20.8761,66.4586,-0.50072,0.0,0.0
558,139.25,77.8211,90.2628,136.066,109.993,115.598,0.00365791,0.119033,20.8788,66.4386,-0.449268,0.0,0.0
567,141.5,76.8771,88.5348,133.567,110.007,115.618,0.00362714,0.117183,20.8801,66.4085,-0.449645,0.0,0.0
576,143.75,76.3804,87.7535,138.27,110.002,116.364,0.00376525,0.115321,20.8817,66.3985,-0.508249,0.0,0.0
585,146,75.9501,87.0009,133.809,109.997,116.177,0.00400758,0.113314,20.883,66.3685,-0.494179,0.0,0.0
594,148.25,75.0595,85.7278,134.736,109.991,116.547,0.0040424,0.111879,20.885,66.3385,-0.523405,0.0,0.0
603,150.5,75.1162,85.3825,134.058,110.008,116.878,0.00377091,0.110523,20.8863,66.3385,-0.547637,0.0,0.0
612,152.75,73.7722,84.0778,140.402,109.98,116.054,0.00348604,0.108399,20.8887,66.3185,-0.48596,0.0,0.0
621,155,74.0382,83.5244,134.374,109.966,116.361,0.0033106,0.106375,20.8905,66.2484,-0.511039,0.0,0.0
630,157.25,73.1542,82.6535,136.196,109.98,115.705,0.00322981,0.104742,20.8933,66.2584,-0.458736,0.0,0.0
639,159.5,72.6984,81.888,133.231,109.955,116.356,0.00324568,0.103416,20.8955,66.1883,-0.511517,0.0,0.0
648,161.75,72.293,81.3902,138.105,109.945,116.421,0.00325173,0.102237,20.8966,66.1883,-0.517382,0.0,0.0
657,164,72.1248,80.5837,136.002,109.922,116.492,0.00317086,0.100725,20.8975,66.1683,-0.524738,0.0,0.0
666,166.25,72.0911,79.9676,135.55,109.925,115.633,0.00302961,0.0989387,20.8991,66.1283,-0.45768,0.0,0.0
675,168.5,71.6148,79.6543,131.642,109.915,115.226,0.00285021,0.0976478,20.9004,66.1183,-0.426564,0.0,0.0
684,170.75,70.7764,79.0269,135.585,109.871,116.312,0.00258584,0.0960438,20.9022,66.0882,-0.514986,0.0,0.0
693,173,70.6441,78.2441,133.61,109.852,117.066,0.00234333,0.0947566,20.9035,66.0782,-0.57496,0.0,0.0
702,175.25,70.1534,77.8683,134.005,109.826,116.484,0.00214688,0.0932154,20.9055,66.0782,-0.532056,0.0,0.0
711,177.5,69.9611,77.5433,136.054,109.784,116.807,0.00198495,0.0916114,20.9077,66.0382,-0.560562,0.0,0.0
720,179.75,69.8022,76.6305,133.403,109.757,115.981,0.00191045,0.0900685,20.9114,65.9882,-0.498617,0.0,0.0
729,182,69.3512,76.3384,135.627,109.727,115.663,0.00171062,0.0878519,20.9136,65.9882,-0.476274,0.0,0.0
738,184.25,69.2013,75.561,137.341,109.689,115.279,0.00144326,0.0852569,20.9167,65.9581,-0.449295,0.0,0.0
747,186.5,68.6846,75.3403,135.041,109.633,115.289,0.00123676,0.0825882,20.9198,65.9581,-0.454765,0.0,0.0
756,188.75,68.0789,74.947,134.149,109.583,115.807,0.00102338,0.0799334,20.9235,65.9281,-0.499367,0.0,0.0
765,191,68.2934,74.4767,133.131,109.56,116.263,0.000804382,0.0772764,20.9263,65.9281,-0.536762,0.0,0.0
774,193.25,67.8484,74.3084,135.004,109.495,116.402,,0.0739329,,65.9081,-0.553018,0.0,0.0
783,195.5,67.8225,73.9719,133.077,109.497,115.283,,,,65.8781,-0.465549,0.0,0.0
792,197.75,68.0462,73.6018,133.549,109.541,115.792,,,,65.8881,-0.501653,0.0,0.0
801,200,67.8623,73.5435,136.318,109.556,116.027,,,,65.828,-0.518751,0.0,0.0
810,202.25,67.3302,72.674,137.394,109.576,115.23,,,,65.818,-0.4548,0.0,0.0
812,202.75,67.8759,72.9879,138.539,109.586,116.315,,,,65.808,-0.538766,0.0,0.0