Folder: fsri_materials_database/01_Data/FRP_Panel/MCC

Note: 01_Data/README.md
# Materials and Products Database
## 01_Data

Raw data generated from each apparatus are included here in plain-text format. The data is organized first by material, next by the short name of test apparatus used, and where applicable additional filtering by test settings.

### material.json

Each material directory contains a json file of the same name as the material. This file links the data stored in the repository as well as data and graphs produced by the accompanying scripts (__02_Scripts__) to the respective landing page for the material on the front-end website.

File: FRP_Panel_MCC_30K_min_211029_R1.txt
Sample ID:	C:\MCC\MCC Cal\Test\FRP_Panel_MCC_30K_min_211029_R1.txt
Sample Weight (mg):	4.6
Heating Rate (C/s):	0.5
Combustor Temp (C):	900
N2 Flow Rate (cc/min):	80
O2 Flow Rate (cc/min):	20
Calibration File:	C:\MCC\MCC Cal\Coeff1 JN10440_30_210304.txt.txt
T Correction Coefficients:	0	1.024463	0
Time Shift (s):	14
*
Time (s)	Temperature (C)	N2 flow rate (cc/min)	O2 flow rate (cc/min)	Flow Rate (cc/min)	Oxygen (%)	HRR (W/g)	Heating rate (C/s)
0.001	107.706	79.994	19.998	102.914	20.052	0.006	-0.006
8.000	107.700	79.993	19.995	102.909	20.052	0.014	0.002
16.000	107.746	79.992	19.998	102.949	20.047	0.327	0.041
24.000	107.914	79.993	19.995	103.030	20.030	1.530	0.018
32.000	108.515	79.994	19.996	103.048	20.022	2.069	0.088
40.001	109.502	79.993	19.995	103.090	20.016	2.495	0.154
48.000	110.868	79.992	19.996	103.136	20.012	2.819	0.170
56.000	112.725	79.996	19.999	103.164	20.008	3.087	0.238
64.001	114.980	79.994	19.996	103.168	20.006	3.196	0.295
72.000	117.491	79.990	19.995	103.193	20.001	3.586	0.374
80.000	120.424	79.993	19.996	103.201	20.005	3.322	0.402
88.000	123.639	79.993	19.996	103.189	20.002	3.512	0.440
96.000	127.020	79.991	19.996	103.199	20.004	3.367	0.428
104.001	130.584	79.992	19.997	103.181	20.003	3.396	0.457
112.000	134.333	79.994	19.995	103.187	20.005	3.260	0.465
120.001	138.197	79.995	19.994	103.172	20.002	3.491	0.506
128.000	142.159	79.994	19.995	103.166	20.003	3.438	0.489
136.000	146.139	79.993	19.995	103.165	20.003	3.415	0.498
144.000	150.156	79.992	19.995	103.163	20.003	3.418	0.513
152.000	154.113	79.994	19.996	103.161	20.003	3.450	0.467
160.000	158.071	79.993	19.995	103.163	20.003	3.445	0.494
168.000	162.069	79.993	19.996	103.149	20.002	3.504	0.515
176.000	166.048	79.991	19.996	103.163	19.998	3.771	0.522
184.000	169.969	79.993	19.995	103.164	19.994	4.083	0.513
192.000	173.940	79.993	19.996	103.164	19.997	3.859	0.509
200.000	177.969	79.992	19.997	103.144	19.992	4.174	0.520
208.000	181.976	79.996	19.996	103.156	19.989	4.417	0.479
216.000	186.043	79.993	19.994	103.130	19.982	4.907	0.521
224.000	190.044	79.990	19.995	103.132	19.982	4.865	0.508
232.000	194.075	79.992	19.996	103.130	19.979	5.136	0.507
240.000	198.085	79.992	19.995	103.131	19.979	5.079	0.507
248.000	202.018	79.992	19.995	103.129	19.977	5.249	0.502
256.000	205.979	79.991	19.997	103.124	19.975	5.415	0.486
264.000	209.908	79.992	19.997	103.120	19.972	5.593	0.508
272.000	213.845	79.993	19.996	103.123	19.964	6.154	0.467
280.000	217.770	79.993	19.996	103.104	19.960	6.415	0.479
288.000	221.714	79.992	19.997	103.114	19.953	6.907	0.470
296.000	225.646	79.994	19.996	103.119	19.948	7.242	0.482
304.000	229.622	79.991	19.996	103.110	19.952	7.025	0.462
312.000	233.591	79.994	19.995	103.099	19.943	7.612	0.485
320.000	237.558	79.992	19.995	103.104	19.946	7.430	0.491
328.000	241.476	79.993	19.994	103.103	19.947	7.308	0.505
336.000	245.431	79.995	19.994	103.088	19.952	7.020	0.526
344.000	249.353	79.992	19.995	103.096	19.954	6.862	0.494
352.000	253.436	79.992	19.996	103.095	19.950	7.146	0.523
360.000	257.380	79.991	19.997	103.096	19.948	7.288	0.478
368.001	261.420	79.994	19.997	103.090	19.943	7.635	0.528
376.000	265.479	79.992	19.996	103.086	19.937	8.031	0.535
384.000	269.519	79.992	19.995	103.086	19.932	8.360	0.490
392.000	273.610	79.994	19.995	103.087	19.934	8.240	0.522
400.000	277.707	79.993	19.995	103.086	19.934	8.232	0.503
408.000	281.840	79.992	19.995	103.090	19.939	7.917	0.545
416.000	285.927	79.993	19.995	103.090	19.949	7.198	0.494
424.000	290.017	79.994	19.995	103.091	19.952	6.998	0.506
432.000	294.154	79.993	19.994	103.086	19.959	6.506	0.480
440.000	298.211	79.993	19.996	103.070	19.966	6.021	0.502
448.000	302.269	79.996	19.996	103.085	19.970	5.711	0.518
456.000	306.327	79.994	19.997	103.087	19.971	5.654	0.503
464.000	310.309	79.992	19.997	103.081	19.975	5.357	0.486
472.000	314.395	79.994	19.995	103.080	19.973	5.531	0.503
480.000	318.405	79.991	19.995	103.082	19.969	5.801	0.510
488.000	322.373	79.990	19.996	103.078	19.965	6.097	0.520
496.000	326.376	79.994	19.995	103.076	19.959	6.473	0.540
504.000	330.355	79.995	19.995	103.082	19.954	6.881	0.513
512.000	334.367	79.996	19.994	103.083	19.944	7.546	0.482
520.000	338.395	79.993	19.996	103.084	19.937	8.033	0.484
528.000	342.396	79.994	19.995	103.083	19.926	8.810	0.513
536.000	346.414	79.993	19.995	103.083	19.910	9.899	0.506
544.000	350.458	79.991	19.996	103.088	19.901	10.582	0.506
552.000	354.532	79.992	19.996	103.077	19.889	11.412	0.500
560.000	358.573	79.991	19.996	103.091	19.867	12.916	0.517
568.000	362.631	79.992	19.996	103.087	19.846	14.377	0.506
576.000	366.690	79.993	19.996	103.087	19.818	16.326	0.482
584.000	370.726	79.995	19.994	103.094	19.790	18.335	0.526
592.000	374.780	79.994	19.996	103.090	19.748	21.229	0.502
600.000	378.797	79.993	19.996	103.092	19.708	24.027	0.517
608.000	382.829	79.996	19.996	103.097	19.656	27.673	0.541
616.001	386.860	79.991	19.996	103.128	19.591	32.264	0.493
624.001	390.931	79.992	19.996	103.130	19.519	37.314	0.495
632.000	394.973	79.993	19.996	103.137	19.431	43.477	0.515
640.000	399.015	79.992	19.996	103.150	19.328	50.676	0.523
648.000	403.011	79.992	19.995	103.164	19.208	59.031	0.503
656.000	407.111	79.993	19.995	103.169	19.067	68.960	0.520
664.000	411.066	79.994	19.995	103.172	18.925	78.889	0.512
672.000	415.042	79.994	19.994	103.206	18.788	88.451	0.496
680.000	419.043	79.995	19.994	103.212	18.679	96.125	0.490
688.000	423.051	79.996	19.994	103.212	18.611	100.870	0.481
696.000	427.145	79.993	19.996	103.204	18.611	100.825	0.535
704.000	431.170	79.993	19.998	103.204	18.684	95.706	0.503
712.000	435.163	79.993	19.996	103.171	18.823	85.968	0.476
720.000	439.138	79.992	19.996	103.166	19.016	72.434	0.476
728.000	443.209	79.992	19.996	103.142	19.240	56.797	0.535
736.000	447.230	79.993	19.996	103.127	19.461	41.288	0.494
744.000	451.307	79.995	19.995	103.092	19.664	27.151	0.502
752.000	455.321	79.994	19.995	103.092	19.805	17.238	0.509
760.000	459.320	79.994	19.995	103.061	19.899	10.666	0.506
768.000	463.284	79.995	19.994	103.052	19.946	7.385	0.503
776.000	467.290	79.994	19.995	103.049	19.973	5.514	0.521
784.000	471.353	79.993	19.995	103.048	19.985	4.668	0.483
792.000	475.447	79.993	19.995	103.045	19.994	4.076	0.489
800.000	479.478	79.992	19.996	103.051	20.003	3.419	0.498
808.000	483.557	79.991	19.997	103.045	20.002	3.499	0.485
816.000	487.634	79.994	19.997	103.040	20.004	3.322	0.496
824.000	491.740	79.995	19.997	103.043	20.002	3.489	0.511
832.000	495.886	79.993	19.994	103.033	20.000	3.612	0.530
840.000	499.971	79.995	19.995	103.035	20.001	3.597	0.511
848.000	504.056	79.994	19.995	103.045	20.003	3.446	0.506
856.000	508.181	79.992	19.995	103.047	20.004	3.318	0.497
864.000	512.295	79.992	19.995	103.050	20.005	3.291	0.494
872.000	516.478	79.991	19.996	103.051	20.010	2.937	0.521
880.000	520.636	79.993	19.996	103.044	20.006	3.187	0.492
888.000	524.798	79.991	19.996	103.045	20.008	3.067	0.530
896.000	528.969	79.994	19.997	103.041	20.009	2.980	0.526
904.000	533.094	79.994	19.997	103.039	20.013	2.717	0.522
912.000	537.319	79.994	19.996	103.034	20.009	2.994	0.520
920.000	541.484	79.994	19.996	103.045	20.012	2.785	0.552
928.000	545.575	79.995	19.996	103.035	20.011	2.831	0.509
936.000	549.727	79.992	19.996	103.040	20.013	2.715	0.558
944.000	553.813	79.995	19.997	103.019	20.015	2.616	0.536
952.000	557.908	79.994	19.997	103.029	20.018	2.351	0.522
960.000	561.995	79.993	19.996	103.019	20.019	2.335	0.519
968.000	566.100	79.992	19.994	103.041	20.016	2.545	0.521
976.000	570.214	79.996	19.996	103.043	20.016	2.545	0.554
984.000	574.377	79.993	19.995	103.039	20.019	2.327	0.554
992.000	578.458	79.993	19.997	103.014	20.016	2.486	0.528
1000.000	582.536	79.995	19.996	103.029	20.015	2.602	0.537
1008.000	586.602	79.994	19.997	103.031	20.016	2.516	0.488
1016.000	590.690	79.992	19.995	103.027	20.018	2.390	0.495
1024.000	594.836	79.992	19.996	103.013	20.016	2.531	0.512
1032.000	598.929	79.993	19.996	103.037	20.015	2.594	0.531
1040.000	602.957	79.993	19.995	103.030	20.019	2.331	0.480
1048.000	606.999	79.993	19.997	103.035	20.015	2.565	0.493
1056.000	610.984	79.994	19.997	103.036	20.019	2.306	0.458
1064.000	615.050	79.995	19.995	103.039	20.014	2.641	0.503
1072.000	619.033	79.996	19.996	103.010	20.017	2.470	0.491
1080.000	623.021	79.994	19.998	103.032	20.013	2.725	0.509
1088.000	626.883	79.995	19.993	103.009	20.016	2.547	0.475
1096.001	631.035	79.994	19.995	103.046	20.014	2.620	0.534
1104.000	635.389	79.994	19.994	103.052	20.014	2.635	0.540
1112.000	639.875	79.993	19.996	103.052	20.012	2.776	0.535
1120.000	644.327	79.991	19.996	103.051	20.012	2.804	0.548
1128.000	648.762	79.993	19.995	103.054	20.009	2.988	0.565
1136.000	653.107	79.995	19.996	103.051	20.007	3.131	0.522
1144.000	657.533	79.996	19.996	103.059	20.009	2.996	0.549
1152.000	661.853	79.994	19.995	103.048	20.009	3.029	0.535
1160.000	666.099	79.995	19.995	103.072	20.007	3.154	0.556
1168.000	670.327	79.993	19.995	103.084	20.008	3.069	0.504
1176.001	674.512	79.992	19.995	103.088	20.007	3.140	0.530
1184.000	678.718	79.994	19.993	103.086	20.008	3.085	0.550
1192.001	682.833	79.992	20.000	103.093	20.008	3.079	0.526
1200.001	686.911	79.994	19.994	103.093	20.007	3.178	0.482
1208.000	690.978	79.997	19.995	103.113	20.001	3.586	0.490
1216.000	695.067	79.995	19.996	103.124	20.000	3.639	0.522
1224.000	699.104	79.994	19.998	103.129	20.003	3.397	0.822
1232.000	703.173	79.996	19.995	103.129	20.000	3.660	0.522
1240.001	707.310	79.996	19.994	103.153	19.995	3.999	0.477
1248.000	711.509	79.993	19.996	103.165	19.993	4.103	0.541
1256.000	715.718	79.994	19.997	103.165	19.993	4.135	0.550
1264.000	719.874	79.990	20.000	103.200	19.987	4.573	0.514
1272.000	724.012	79.992	19.997	103.200	19.991	4.285	0.538
1280.000	728.135	79.996	19.997	103.207	19.982	4.887	0.513
1288.000	732.197	79.994	19.996	103.205	19.982	4.892	0.520
1296.000	736.204	79.995	19.997	103.238	19.983	4.806	0.508
1304.000	740.213	79.994	19.996	103.238	19.974	5.455	0.513
1311.000	743.713	79.995	19.996	103.243	19.975	5.366	0.493

File: FRP_Panel_MCC_30K_min_211029_R2.txt
Sample ID:	C:\MCC\MCC Cal\Test\FRP_Panel_MCC_30K_min_211029_R2.txt
Sample Weight (mg):	4.56
Heating Rate (C/s):	0.5
Combustor Temp (C):	900
N2 Flow Rate (cc/min):	80
O2 Flow Rate (cc/min):	20
Calibration File:	C:\MCC\MCC Cal\Coeff1 JN10440_30_210304.txt.txt
T Correction Coefficients:	0	1.024463	0
Time Shift (s):	14
*
Time (s)	Temperature (C)	N2 flow rate (cc/min)	O2 flow rate (cc/min)	Flow Rate (cc/min)	Oxygen (%)	HRR (W/g)	Heating rate (C/s)
0.000	108.356	79.996	19.996	102.925	20.074	-0.631	-0.021
8.000	108.427	80.005	19.993	102.932	20.074	-0.628	0.003
16.001	108.344	79.984	19.996	102.966	20.062	0.182	-0.010
24.000	108.615	79.995	19.995	103.071	20.051	0.996	0.048
32.000	109.236	79.987	19.996	103.102	20.042	1.608	0.094
40.000	110.279	79.985	19.998	103.093	20.040	1.771	0.140
48.000	111.603	80.000	19.995	103.087	20.039	1.795	0.172
56.000	113.065	79.992	19.997	103.117	20.034	2.163	0.207
64.000	114.934	79.999	19.995	103.160	20.027	2.656	0.256
72.000	117.193	79.990	19.996	103.156	20.027	2.644	0.303
80.000	119.686	80.000	19.994	103.175	20.024	2.891	0.323
88.000	122.524	79.993	19.995	103.179	20.023	2.957	0.359
96.000	125.550	79.982	19.997	103.169	20.020	3.164	0.367
104.000	128.825	79.998	19.995	103.172	20.021	3.083	0.408
112.000	132.203	80.020	20.002	103.204	20.025	2.836	0.448
120.000	135.727	79.983	19.997	103.165	20.021	3.101	0.428
128.000	139.383	79.996	19.996	103.187	20.018	3.320	0.465
136.000	143.087	79.986	19.996	103.163	20.020	3.190	0.505
144.000	146.913	79.995	19.996	103.171	20.021	3.114	0.468
152.000	150.814	79.993	19.996	103.167	20.018	3.296	0.486
160.000	154.786	79.992	19.996	103.158	20.015	3.482	0.480
168.000	158.696	79.976	19.994	103.170	20.017	3.375	0.515
176.000	162.626	79.992	19.997	103.166	20.015	3.502	0.486
184.000	166.628	79.988	19.995	103.155	20.010	3.868	0.504
192.001	170.607	80.007	19.995	103.165	20.013	3.691	0.502
200.000	174.521	80.010	19.993	103.148	20.010	3.845	0.502
208.000	178.495	79.993	19.995	103.151	20.001	4.517	0.484
216.001	182.498	79.987	19.997	103.146	20.001	4.537	0.510
224.000	186.473	79.985	19.996	103.134	19.995	4.916	0.513
232.000	190.411	80.011	19.993	103.141	19.994	5.028	0.508
240.000	194.316	79.993	19.996	103.136	19.991	5.229	0.503
248.000	198.214	80.012	20.003	103.155	19.992	5.124	0.448
256.000	202.131	80.007	20.002	103.155	19.988	5.437	0.536
264.000	205.962	80.020	20.001	103.155	19.984	5.670	0.503
272.000	209.816	80.008	20.002	103.141	19.986	5.541	0.504
280.000	213.642	80.020	20.002	103.149	19.976	6.270	0.502
288.000	217.479	80.002	20.004	103.147	19.971	6.591	0.475
296.000	221.365	80.025	20.001	103.155	19.963	7.170	0.518
304.000	225.245	80.010	20.004	103.139	19.960	7.403	0.448
312.000	229.311	80.013	20.003	103.166	19.957	7.576	0.490
320.000	233.377	79.996	20.005	103.154	19.949	8.189	0.513
328.000	237.481	80.012	20.003	103.150	19.951	8.021	0.525
336.000	241.514	80.011	20.002	103.143	19.951	8.016	0.497
344.000	245.619	80.011	20.002	103.132	19.950	8.132	0.495
352.000	249.689	80.012	20.003	103.128	19.951	8.043	0.537
360.000	253.777	80.015	20.002	103.140	19.942	8.654	0.507
368.000	257.752	80.013	20.003	103.125	19.941	8.733	0.487
376.000	261.792	80.010	20.003	103.150	19.938	8.972	0.499
384.000	265.834	80.010	20.003	103.129	19.933	9.294	0.478
392.000	269.875	80.009	20.005	103.125	19.929	9.610	0.506
400.000	273.963	80.020	20.001	103.128	19.930	9.499	0.484
408.000	278.025	80.012	20.002	103.111	19.932	9.401	0.539
416.000	282.023	80.010	20.003	103.123	19.936	9.084	0.460
424.000	286.113	80.012	20.002	103.125	19.941	8.710	0.522
432.000	290.144	80.012	20.002	103.115	19.944	8.516	0.510
440.000	294.178	80.014	20.001	103.121	19.952	7.959	0.508
448.000	298.169	80.011	20.002	103.111	19.952	7.932	0.492
456.000	302.121	80.012	20.002	103.112	19.958	7.517	0.462
464.000	306.075	80.012	20.003	103.118	19.959	7.471	0.477
472.000	310.117	79.992	20.001	103.088	19.960	7.383	0.517
480.000	314.128	79.991	19.998	103.087	19.955	7.755	0.510
488.000	318.133	79.991	19.997	103.087	19.952	7.939	0.466
496.000	322.097	79.994	19.995	103.089	19.947	8.285	0.478
504.000	326.176	79.988	19.996	103.088	19.942	8.652	0.511
512.000	330.154	79.994	19.996	103.084	19.935	9.132	0.504
520.000	334.258	79.996	19.995	103.085	19.927	9.690	0.522
528.000	338.269	79.993	19.995	103.084	19.914	10.623	0.527
536.000	342.309	79.988	20.004	103.103	19.906	11.191	0.513
544.000	346.308	79.991	19.997	103.091	19.892	12.187	0.472
552.000	350.350	79.992	19.995	103.094	19.874	13.428	0.498
560.000	354.488	79.991	19.995	103.090	19.864	14.157	0.518
568.000	358.512	79.994	19.996	103.087	19.843	15.651	0.486
576.000	362.567	79.992	19.995	103.086	19.818	17.411	0.499
584.000	366.638	79.993	19.996	103.088	19.791	19.313	0.518
592.000	370.654	79.992	19.995	103.085	19.759	21.603	0.502
600.000	374.753	79.994	19.995	103.085	19.724	24.032	0.539
608.000	378.781	79.990	19.997	103.096	19.681	27.077	0.509
616.000	382.855	79.989	19.995	103.111	19.630	30.664	0.526
624.000	386.893	79.991	19.996	103.120	19.566	35.203	0.473
632.000	390.983	79.993	19.995	103.129	19.489	40.647	0.483
640.001	395.123	79.993	19.996	103.144	19.401	46.869	0.525
648.000	399.204	79.993	19.996	103.145	19.294	54.436	0.497
656.000	403.270	79.999	19.997	103.158	19.169	63.259	0.510
664.000	407.314	79.992	19.995	103.164	19.035	72.671	0.525
672.000	411.326	79.994	19.994	103.176	18.896	82.518	0.481
680.000	415.240	79.993	19.996	103.171	18.766	91.723	0.488
688.000	419.220	79.991	19.995	103.184	18.669	98.583	0.491
696.000	423.237	79.991	19.996	103.194	18.618	102.184	0.500
704.000	427.212	79.993	19.996	103.176	18.629	101.353	0.519
712.000	431.160	79.993	19.996	103.169	18.710	95.619	0.509
720.000	435.150	79.991	19.997	103.163	18.854	85.442	0.480
728.000	439.263	79.993	19.997	103.149	19.049	71.641	0.520
736.000	443.319	79.992	19.995	103.128	19.273	55.862	0.485
744.000	447.461	79.992	19.996	103.093	19.490	40.504	0.529
752.000	451.583	79.992	19.995	103.089	19.679	27.232	0.524
760.000	455.696	79.997	19.994	103.072	19.807	18.163	0.542
768.000	459.678	79.992	19.996	103.051	19.890	12.292	0.509
776.000	463.683	79.990	19.996	103.046	19.932	9.396	0.478
784.000	467.763	79.995	19.996	103.035	19.955	7.734	0.523
792.000	471.752	79.992	19.995	103.015	19.970	6.698	0.505
800.000	475.830	79.993	19.995	103.023	19.977	6.166	0.504
808.000	479.777	79.993	19.996	103.027	19.983	5.733	0.504
816.000	483.744	79.993	19.995	103.033	19.986	5.546	0.499
824.000	487.686	79.994	19.995	103.016	19.990	5.274	0.457
832.000	491.656	79.990	19.995	103.014	19.986	5.555	0.462
840.000	495.752	79.997	19.995	103.014	19.987	5.511	0.519
848.000	499.806	79.996	19.995	103.015	19.987	5.511	0.494
856.000	503.918	79.993	19.995	103.029	19.989	5.353	0.499
864.000	507.988	79.993	19.995	103.020	19.988	5.395	0.514
872.000	512.196	79.994	19.996	103.037	19.993	5.043	0.501
880.000	516.423	79.993	19.995	103.032	19.996	4.837	0.515
888.000	520.656	79.995	19.996	103.022	19.999	4.648	0.515
896.000	524.763	79.994	19.996	103.007	19.998	4.740	0.521
904.000	528.813	79.994	19.995	103.013	20.005	4.182	0.555
912.000	532.798	79.995	19.996	103.011	20.010	3.854	0.507
920.001	536.826	79.996	19.997	103.008	20.010	3.840	0.464
928.000	540.912	79.993	19.997	103.011	20.015	3.479	0.500
936.000	544.966	79.993	19.996	103.011	20.017	3.398	0.511
944.000	549.034	79.992	19.995	103.013	20.020	3.191	0.537
952.000	553.117	79.993	19.995	103.008	20.017	3.348	0.500
960.000	557.209	79.991	19.996	103.009	20.019	3.226	0.515
968.000	561.318	79.992	19.995	103.010	20.022	2.999	0.516
976.000	565.390	79.995	19.995	103.032	20.029	2.496	0.501
984.000	569.460	79.993	19.995	103.009	20.028	2.608	0.510
992.000	573.518	79.995	19.996	103.011	20.032	2.322	0.508
1000.000	577.461	79.995	19.996	103.013	20.028	2.628	0.487
1008.000	581.345	79.993	19.996	103.010	20.028	2.624	0.477
1016.000	585.199	79.992	19.997	103.007	20.029	2.543	0.457
1024.000	589.249	79.992	19.996	103.016	20.028	2.595	0.527
1032.000	593.484	79.993	19.995	103.014	20.031	2.399	0.568
1040.000	597.878	79.993	19.995	103.037	20.033	2.210	0.528
1048.000	602.489	79.992	19.996	103.032	20.028	2.567	0.572
1056.000	607.118	79.995	19.995	103.047	20.031	2.415	0.546
1064.000	611.712	79.993	19.994	103.033	20.030	2.472	0.546
1072.001	616.272	79.993	19.993	103.020	20.030	2.450	0.566
1080.000	620.649	79.996	19.996	103.008	20.033	2.261	0.548
1088.001	624.895	79.992	19.995	103.018	20.034	2.140	0.498
1096.000	629.122	79.992	19.995	103.016	20.030	2.448	0.508
1104.000	633.279	79.994	19.995	103.031	20.035	2.135	0.514
1112.000	637.393	79.990	19.996	103.035	20.033	2.247	0.521
1120.001	641.451	79.991	19.994	103.031	20.031	2.354	0.512
1128.001	645.412	79.992	19.994	103.017	20.031	2.348	0.511
1136.000	649.417	79.994	19.995	103.046	20.030	2.420	0.513
1144.000	653.371	79.993	19.995	103.048	20.030	2.437	0.509
1152.000	657.344	79.995	19.995	103.047	20.032	2.346	0.480
1160.000	661.344	79.998	19.994	103.050	20.030	2.477	0.485
1168.000	665.332	79.993	19.995	103.058	20.030	2.432	0.508
1176.001	669.368	79.992	19.996	103.073	20.030	2.448	0.496
1184.000	673.553	79.993	19.996	103.088	20.023	2.932	0.529
1192.001	677.914	79.991	19.995	103.085	20.024	2.847	0.557
1200.000	682.322	79.990	19.995	103.095	20.024	2.875	0.542
1208.000	686.722	79.995	19.994	103.094	20.023	2.977	0.545
1216.000	691.088	79.995	19.995	103.104	20.017	3.378	0.563
1224.000	695.908	79.992	19.995	103.123	20.019	3.254	0.498
1232.000	699.873	79.994	19.995	103.127	20.014	3.560	0.538
1240.000	704.148	79.997	19.996	103.137	20.009	3.948	0.533
1248.000	708.307	79.992	19.996	103.145	20.009	3.968	0.509
1256.000	712.552	79.992	19.996	103.167	20.006	4.127	0.548
1264.000	716.686	79.993	19.995	103.167	20.003	4.390	0.515
1272.000	720.752	79.994	19.996	103.165	19.997	4.774	0.495
1280.000	724.812	79.992	19.997	103.177	19.995	4.935	0.473
1288.000	728.860	79.992	19.996	103.195	19.996	4.888	0.481
1296.000	732.979	79.996	19.995	103.200	19.992	5.157	0.510
1304.000	736.987	79.994	19.995	103.215	19.991	5.238	0.522
1312.001	740.988	79.993	19.994	103.215	19.986	5.541	0.507
1317.001	743.503	79.995	19.995	103.222	19.986	5.597	0.524