Folder: fsri_materials_database/01_Data/FRP_Panel/MCC (part 2)

File: FRP_Panel_MCC_30K_min_211101_R3.txt
Sample ID:	C:\MCC\MCC Cal\Test\FRP_Panel_MCC_30K_min_211101_R3.txt
Sample Weight (mg):	4.76
Heating Rate (C/s):	0.5
Combustor Temp (C):	900
N2 Flow Rate (cc/min):	80
O2 Flow Rate (cc/min):	20
Calibration File:	C:\MCC\MCC Cal\Coeff1 JN10440_30_210304.txt.txt
T Correction Coefficients:	0	1.024463	0
Time Shift (s):	14
*
Time (s)	Temperature (C)	N2 flow rate (cc/min)	O2 flow rate (cc/min)	Flow Rate (cc/min)	Oxygen (%)	HRR (W/g)	Heating rate (C/s)
0.000	107.551	80.001	19.991	102.964	20.324	0.363	0.003
7.999	107.542	80.001	19.991	102.978	20.325	0.285	0.015
16.000	107.532	79.999	19.995	102.976	20.328	0.122	0.006
24.000	107.608	79.998	19.998	103.025	20.322	0.510	0.013
32.000	107.912	80.002	19.993	103.126	20.307	1.544	0.028
39.999	108.729	80.000	19.994	103.151	20.298	2.153	0.113
47.999	109.939	79.999	19.995	103.162	20.293	2.510	0.158
55.999	111.479	80.000	19.993	103.164	20.290	2.692	0.208
63.999	113.331	79.997	19.994	103.192	20.284	3.057	0.257
71.999	115.526	80.001	19.992	103.205	20.286	2.965	0.293
80.000	117.942	79.997	19.995	103.198	20.284	3.105	0.310
88.000	120.638	79.996	19.993	103.201	20.286	2.957	0.340
95.999	123.485	79.998	19.995	103.200	20.281	3.283	0.314
103.999	126.517	79.995	19.996	103.211	20.283	3.138	0.380
111.999	129.709	80.000	19.993	103.199	20.282	3.253	0.388
119.999	132.920	80.000	19.995	103.197	20.284	3.115	0.434
128.000	136.282	79.998	19.993	103.203	20.278	3.479	0.455
136.000	139.729	79.998	19.991	103.225	20.279	3.438	0.445
144.000	143.345	79.997	19.997	103.217	20.276	3.635	0.444
152.000	147.048	79.997	19.998	103.224	20.277	3.546	0.463
160.000	150.840	80.001	19.996	103.205	20.280	3.382	0.481
167.999	154.630	79.999	19.993	103.239	20.273	3.832	0.477
175.999	158.522	79.998	19.995	103.211	20.273	3.860	0.471
183.999	162.429	80.000	19.998	103.193	20.270	4.053	0.508
192.000	166.333	79.999	19.992	103.197	20.269	4.120	0.524
199.999	170.286	79.998	19.994	103.195	20.259	4.810	0.513
208.000	174.147	80.001	19.995	103.200	20.261	4.677	0.461
215.999	178.176	79.997	19.994	103.196	20.255	5.052	0.491
224.000	182.170	79.996	19.995	103.188	20.256	4.968	0.503
231.999	186.169	79.999	19.993	103.197	20.254	5.145	0.514
239.999	190.139	79.999	19.996	103.180	20.248	5.555	0.490
247.999	194.084	80.001	19.996	103.178	20.244	5.771	0.476
256.000	198.047	79.998	19.996	103.167	20.241	6.023	0.482
264.000	201.948	79.993	20.005	103.184	20.238	6.230	0.483
272.000	205.904	80.005	19.992	103.162	20.234	6.438	0.491
280.000	209.878	79.995	19.999	103.162	20.229	6.818	0.494
288.000	213.826	79.998	19.993	103.168	20.224	7.167	0.482
296.000	217.789	80.000	19.994	103.161	20.213	7.892	0.532
304.000	221.740	80.000	19.993	103.160	20.207	8.309	0.494
312.000	225.747	79.995	19.996	103.159	20.203	8.530	0.461
320.000	229.901	79.997	19.995	103.156	20.202	8.636	0.547
328.000	233.917	80.000	19.997	103.156	20.206	8.385	0.509
336.000	237.986	79.999	19.993	103.154	20.206	8.358	0.521
344.000	241.919	80.001	19.994	103.146	20.209	8.142	0.472
352.000	245.990	80.001	19.994	103.140	20.212	7.984	0.513
360.000	249.980	80.000	19.995	103.136	20.214	7.796	0.451
368.000	253.982	79.997	19.995	103.140	20.210	8.101	0.469
376.000	257.976	79.998	19.991	103.129	20.205	8.424	0.520
384.000	261.920	80.003	19.987	103.140	20.205	8.404	0.489
392.000	265.861	79.997	19.998	103.125	20.199	8.838	0.506
400.000	269.840	79.997	19.994	103.142	20.202	8.660	0.501
408.000	273.867	80.001	19.995	103.140	20.198	8.883	0.512
416.000	277.836	79.998	19.995	103.144	20.208	8.258	0.516
424.000	281.830	80.001	19.991	103.124	20.210	8.064	0.525
432.000	285.839	79.995	20.002	103.145	20.223	7.213	0.503
440.000	289.821	80.002	19.992	103.142	20.222	7.292	0.493
448.000	293.862	80.000	19.991	103.134	20.231	6.675	0.490
456.000	297.892	79.996	19.996	103.122	20.235	6.376	0.490
464.000	301.983	79.999	19.993	103.123	20.234	6.458	0.508
472.000	306.026	79.993	19.997	103.124	20.234	6.459	0.500
480.000	310.087	80.000	19.994	103.125	20.234	6.464	0.495
488.000	314.142	79.997	19.992	103.123	20.231	6.644	0.512
496.000	318.125	79.999	19.994	103.122	20.230	6.720	0.487
504.000	322.080	80.004	19.993	103.117	20.220	7.392	0.512
512.000	326.037	80.005	19.996	103.119	20.214	7.796	0.502
520.000	329.926	79.996	19.995	103.116	20.209	8.176	0.504
528.000	333.847	79.999	19.994	103.125	20.200	8.794	0.497
536.000	337.872	80.001	19.992	103.122	20.190	9.458	0.508
544.000	341.860	79.998	19.993	103.123	20.177	10.345	0.470
552.000	345.839	79.998	19.994	103.133	20.164	11.230	0.541
560.000	349.856	80.004	19.992	103.119	20.144	12.526	0.528
568.000	354.054	80.000	19.993	103.143	20.120	14.143	0.516
576.000	358.204	79.998	19.995	103.146	20.103	15.347	0.529
584.000	362.401	80.001	19.994	103.150	20.072	17.427	0.521
592.000	366.619	80.004	19.991	103.143	20.039	19.645	0.516
600.000	370.827	80.000	19.995	103.153	20.001	22.195	0.539
608.000	375.010	79.998	19.993	103.159	19.957	25.195	0.517
616.000	379.058	79.996	19.995	103.160	19.905	28.704	0.485
624.000	383.226	79.998	19.993	103.164	19.840	33.078	0.544
632.000	386.976	79.999	19.995	103.188	19.761	38.489	0.372
640.000	391.173	79.999	19.995	103.196	19.667	44.808	0.529
648.000	395.335	80.002	19.992	103.210	19.562	51.938	0.551
656.000	399.521	80.000	19.994	103.231	19.436	60.492	0.508
664.000	403.873	80.002	19.997	103.237	19.289	70.408	0.520
672.000	408.238	80.000	19.996	103.256	19.134	80.935	0.545
680.000	412.578	80.000	19.995	103.252	18.977	91.532	0.531
688.000	416.861	79.998	19.994	103.272	18.853	99.968	0.548
696.000	421.094	79.998	19.994	103.263	18.780	104.898	0.540
704.000	425.318	79.998	19.998	103.248	18.796	103.751	0.552
712.000	429.483	80.001	19.992	103.238	18.896	97.019	0.521
720.000	433.697	79.999	19.994	103.231	19.072	85.065	0.555
728.000	437.741	79.999	19.995	103.199	19.304	69.342	0.493
736.000	441.770	80.001	19.992	103.164	19.561	51.957	0.511
744.000	445.781	80.001	19.990	103.146	19.800	35.813	0.523
752.000	449.711	80.005	19.992	103.124	19.990	22.957	0.482
760.000	453.644	79.999	19.995	103.115	20.110	14.870	0.504
768.000	457.523	79.997	19.997	103.087	20.184	9.835	0.525
776.000	461.426	79.999	19.995	103.092	20.219	7.481	0.474
784.000	465.341	79.999	19.995	103.093	20.239	6.134	0.496
792.000	469.290	79.996	19.996	103.096	20.248	5.537	0.515
800.000	473.272	79.996	19.996	103.081	20.253	5.164	0.500
808.000	477.258	79.999	19.993	103.087	20.255	5.065	0.534
816.000	481.221	79.999	19.993	103.084	20.255	5.070	0.464
824.000	485.349	79.999	19.995	103.091	20.254	5.097	0.496
832.000	489.409	80.002	19.994	103.083	20.249	5.434	0.484
840.000	493.512	80.001	19.994	103.091	20.252	5.221	0.496
848.000	497.598	79.999	19.995	103.085	20.249	5.446	0.530
856.000	501.746	79.999	19.995	103.084	20.250	5.405	0.533
864.000	505.819	79.998	19.994	103.098	20.250	5.412	0.504
872.000	509.860	79.998	19.994	103.090	20.250	5.393	0.513
880.000	513.950	79.998	19.995	103.076	20.253	5.161	0.548
888.000	518.089	79.999	19.995	103.080	20.256	4.974	0.525
896.000	522.234	80.001	19.994	103.082	20.261	4.642	0.541
904.000	526.294	80.000	19.994	103.077	20.267	4.229	0.482
912.000	530.474	80.000	19.995	103.078	20.267	4.256	0.521
920.000	534.558	80.001	19.993	103.080	20.270	4.023	0.486
928.000	538.775	79.998	19.994	103.082	20.271	3.962	0.491
936.000	542.883	80.000	19.993	103.085	20.271	3.961	0.510
944.000	546.955	79.998	19.996	103.080	20.273	3.844	0.483
952.000	551.106	79.999	19.995	103.085	20.277	3.542	0.538
960.000	555.223	79.997	19.994	103.077	20.275	3.722	0.536
968.000	559.351	79.999	19.995	103.080	20.278	3.479	0.520
976.000	563.443	80.000	19.996	103.077	20.277	3.567	0.505
984.000	567.559	80.000	19.996	103.077	20.277	3.591	0.519
992.000	571.672	79.999	19.995	103.080	20.276	3.610	0.505
1000.000	575.877	79.999	19.993	103.083	20.275	3.667	0.528
1008.000	579.956	80.000	19.995	103.082	20.277	3.557	0.528
1016.000	584.060	79.998	19.994	103.088	20.272	3.874	0.511
1024.000	588.174	79.998	19.995	103.099	20.277	3.552	0.521
1031.999	592.212	79.999	19.994	103.077	20.276	3.596	0.504
1039.999	596.419	79.999	19.996	103.076	20.271	3.941	0.545
1048.001	600.491	79.998	19.994	103.081	20.273	3.830	0.525
1055.999	604.537	79.999	19.995	103.085	20.270	4.034	0.518
1063.999	608.594	79.998	19.996	103.082	20.270	4.030	0.493
1072.000	612.697	79.998	19.994	103.098	20.269	4.073	0.539
1079.999	616.747	80.001	19.994	103.080	20.269	4.099	0.513
1087.999	620.804	80.000	19.994	103.077	20.266	4.293	0.501
1095.999	624.889	79.999	19.995	103.074	20.265	4.363	0.495
1104.001	628.981	79.997	19.995	103.075	20.262	4.552	0.530
1111.999	633.038	79.999	19.995	103.096	20.261	4.649	0.530
1119.999	637.091	79.997	19.994	103.107	20.262	4.577	0.519
1127.999	641.170	79.997	19.995	103.117	20.261	4.671	0.501
1135.999	645.164	79.998	19.994	103.110	20.264	4.415	0.480
1143.999	649.189	80.000	19.995	103.112	20.256	4.993	0.528
1151.999	653.233	80.000	19.995	103.115	20.255	5.044	0.474
1159.999	657.250	80.000	19.995	103.115	20.252	5.229	0.496
1167.999	661.267	80.002	19.995	103.119	20.253	5.168	0.487
1175.999	665.231	79.998	19.994	103.139	20.248	5.516	0.499
1184.000	669.309	79.999	19.994	103.154	20.246	5.672	0.494
1191.999	673.372	79.999	19.995	103.161	20.241	5.978	0.512
1200.000	677.484	79.997	19.994	103.164	20.239	6.156	0.522
1207.999	681.511	79.998	19.994	103.156	20.236	6.311	0.503
1216.001	685.560	79.999	19.994	103.171	20.230	6.708	0.540
1223.999	689.605	80.000	19.995	103.192	20.228	6.848	0.494
1231.999	693.661	79.998	19.994	103.199	20.225	7.088	0.509
1239.999	697.676	80.000	19.995	103.227	20.221	7.353	0.473
1247.999	701.787	80.002	19.995	103.230	20.216	7.668	0.502
1255.999	705.784	79.998	19.996	103.238	20.213	7.903	0.501
1263.999	709.874	79.998	19.996	103.267	20.210	8.106	0.511
1271.999	713.915	79.999	19.994	103.265	20.204	8.475	0.501
1279.999	717.987	79.999	19.994	103.273	20.198	8.892	0.497
1287.999	722.050	79.999	19.994	103.290	20.197	8.982	0.502
1295.999	726.076	79.999	19.995	103.308	20.194	9.180	0.513
1304.000	730.074	80.000	19.994	103.325	20.188	9.624	0.505
1312.000	734.182	79.999	19.994	103.319	20.188	9.574	0.516
1320.000	738.135	79.998	19.994	103.327	20.182	10.004	0.500
1328.001	742.195	80.000	19.994	103.320	20.180	10.139	0.521
1330.500	743.498	80.001	19.995	103.329	20.176	10.374	0.519