Folder: fsri_materials_database/01_Data/R30_Fiberglass_Insulation/Cone

Note: 01_Data/README.md
# Materials and Products Database
## 01_Data

Raw data generated from each apparatus are included here in plain-text format. The data is organized first by material, next by the short name of test apparatus used, and where applicable additional filtering by test settings.

### material.json

Each material directory contains a json file of the same name as the material. This file links the data stored in the repository as well as data and graphs produced by the accompanying scripts (__02_Scripts__) to the respective landing page for the material on the front-end website.

File: R30_Fiberglass_Insulation_Cone_HF25Scalar_220502_R1.csv
LABORATORY,FSRI
TEST IDENT,R30Insulation_HF25_1
OPERATOR,Dow
MATERIAL,R30 Fiberglass Insulation
ORIENTATION,Horizontal
HEAT FLUX,25
SURF AREA,0.01
C FACTOR,0.0411223
SPEC HOLDER DIFF,-566
SPECIMEN MASS,3
SCAN TIME,0.25
O2 DELAY TIME,11
CO DELAY TIME,11
CO2 DELAY TIME,8
FLOW FACTOR,1
SCAN COUNT,7798
TIME TO IGN,0
END OF TEST SCAN,7318
END OF TEST TIME,1829.5
TEST STATUS,1
PRE TEST CMT,Dimensions: 97 x 101 x 45 mm
POST TEST CMT,No ignition. Test ended after 30 minutes.

File: R30_Fiberglass_Insulation_Cone_HF25Scalar_220502_R2.csv
LABORATORY,FSRI
TEST IDENT,R30Insulation_HF25_2
OPERATOR,Dow
MATERIAL,R30 Fiberglass Insulation
ORIENTATION,Horizontal
HEAT FLUX,25
SURF AREA,0.01
C FACTOR,0.0411223
SPEC HOLDER DIFF,-566
SPECIMEN MASS,5.55
SCAN TIME,0.25
O2 DELAY TIME,11
CO DELAY TIME,11
CO2 DELAY TIME,8
FLOW FACTOR,1
SCAN COUNT,2885
TIME TO IGN,0
END OF TEST SCAN,2405
END OF TEST TIME,601.25
TEST STATUS,1
PRE TEST CMT,Dimensions: 108 x 105 x 40 mm
POST TEST CMT,No ignition. Test ended after 10 minutes. No mass loss after 10 minutes in replicate R1.

File: R30_Fiberglass_Insulation_Cone_HF25Scan_220502_R2.csv
Names,Time,Stack TC,Smoke TC,Exh Press,Smoke Comp,Smoke Meas,CO Meter,CO2 Meter,O2 Meter,Sample Mass,Ext Coeff,Start Test,Flame Verif
Chan Gain,,500,500,1,1,1,1,1,1,1,1,1.0,1.0
Offset,,0,0,0.134537,0,0,0,0,0,0,0,0.0,0.0
Gain,,1,1,25.011,14.8585,16.6522,1,1,1,1.00087,1.0138,1.0,1.0
Units,sec,C,C,Pa,%,%,%,%,%,g,/m,,
Baseline,,21.9505,22.5205,140.097,112.015,113.977,0.000311038,0.0507932,21.0078,-834.187,-0.154393,,
31,7.5,19.8145,20.3581,139.708,112.004,113.551,0.000582116,0.0561264,21.0002,-331.667,-0.121958,0.0,0.0
62,15.25,20.5488,20.6444,137.92,112.008,114.468,0.000924068,0.0519682,21.0075,-331.728,-0.193185,0.0,0.0
93,23,20.4884,21.1319,138.097,112.014,113.971,0.000777194,0.0510879,21.01,-331.778,-0.15398,0.0,0.0
124,30.75,20.7763,21.2436,139.707,112.02,114.133,0.000586681,0.0509911,21.0098,-331.828,-0.166189,0.0,0.0
155,38.5,20.8689,21.1284,142.78,112.022,114.103,0.000817578,0.0511875,21.0108,-331.838,-0.163712,0.0,0.0
186,46.25,20.8338,21.1601,139.323,112.047,114.302,0.0010547,0.0512356,21.0131,-331.868,-0.177169,0.0,0.0
217,54,21.1749,21.2053,139.809,112.041,114.186,0.00072263,0.0515036,21.0116,-331.888,-0.16865,0.0,0.0
248,61.75,21.4622,21.4288,138.447,112.025,114.11,0.00087464,0.0513644,21.0099,-331.908,-0.16405,0.0,0.0
279,69.5,21.6873,21.5053,142.44,112.02,113.646,0.000908565,0.0513426,21.0101,-331.918,-0.128177,0.0,0.0
310,77.25,21.2499,22.0992,141.115,112.006,114.365,0.000703785,0.0509933,21.0103,-331.938,-0.185381,0.0,0.0
341,85,21.7706,22.6104,140.367,112.002,114.046,0.000841199,0.0508411,21.0098,-331.928,-0.160819,0.0,0.0
372,92.75,21.5547,22.3007,137.595,111.987,114.274,0.000867243,0.0507669,21.0099,-331.948,-0.179782,0.0,0.0
403,100.5,21.6051,22.104,139.325,111.998,114.023,0.00054344,0.0504796,21.0119,-331.948,-0.159284,0.0,0.0
434,108.25,22.1391,22.3998,137.671,112.003,113.956,0.00044816,0.0503812,21.0126,-331.948,-0.153734,0.0,0.0
465,116,22.3594,22.4928,137.913,112.004,114.209,0.000168018,0.0503289,21.0105,-331.938,-0.173347,0.0,0.0
496,123.75,21.7449,22.559,138.139,112.022,114.652,0.000436906,0.0502417,21.0141,-331.958,-0.206345,0.0,0.0
527,131.5,21.9846,22.4106,141.799,112.038,114.238,0.000564696,0.0501951,21.0113,-331.958,-0.172981,0.0,0.0
558,139.25,21.8909,22.7564,141.966,112.046,113.865,0.000589225,0.0500378,21.011,-331.968,-0.143213,0.0,0.0
589,147,21.9774,22.7172,139.834,112.05,114.012,0.000238311,0.0499593,21.0102,-331.968,-0.154424,0.0,0.0
620,154.75,22.1458,22.7657,141.193,112.087,113.972,0.000372515,0.0499697,21.0144,-331.958,-0.148305,0.0,0.0
651,162.5,21.9793,23.1827,137.907,112.104,114.127,0.000371597,0.0498581,21.0148,-331.978,-0.15906,0.0,0.0
682,170.25,21.9824,22.8237,138.677,112.137,114.879,0.000300985,0.0498717,21.014,-331.978,-0.214848,0.0,0.0
713,178,22.3638,23.1457,137.745,112.18,114.287,-0.000104498,0.0497355,21.0111,-331.988,-0.165483,0.0,0.0
744,185.75,22.388,22.6381,144.441,112.215,114.93,0.000207984,0.0497687,21.0127,-331.968,-0.212598,0.0,0.0
775,193.5,22.2214,22.717,139.626,112.223,114.833,0.000348362,0.0496857,21.0132,-331.998,-0.204398,0.0,0.0
806,201.25,21.7753,22.5789,136.568,112.209,114.46,0.000385121,0.0497284,21.0117,-332.008,-0.176578,0.0,0.0
837,209,22.1852,23.2521,139.332,112.197,114.293,-9.59506e-05,0.0497249,21.0116,-331.988,-0.164625,0.0,0.0
868,216.75,22.3567,23.1371,137.836,112.205,114.247,0.00020591,0.0495102,21.0098,-331.998,-0.160382,0.0,0.0
899,224.5,22.2454,23.0759,141.148,112.185,114.24,0.000145934,0.0497229,21.01,-331.998,-0.16137,0.0,0.0
930,232.25,22.2667,22.9745,140.134,112.134,114.409,0.000157445,0.0496696,21.01,-331.998,-0.1786,0.0,0.0
961,240,22.4557,23.0951,140.615,112.064,114.317,0.000534131,0.0496037,21.0093,-331.998,-0.177023,0.0,0.0
992,247.75,22.1297,23.4102,136.485,111.99,114.895,0.000488153,0.0496941,21.0124,-332.008,-0.227762,0.0,0.0
1023,255.5,22.3103,23.2105,140.11,111.916,113.837,0.000430208,0.0495546,21.0117,-332.008,-0.151285,0.0,0.0
1054,263.25,21.8368,23.1813,140.078,111.848,113.816,0.000377398,0.0495345,21.0115,-331.988,-0.155104,0.0,0.0
1085,271,22.3836,23.0868,139.375,111.782,113.718,3.78737e-05,0.0495585,21.0126,-331.998,-0.152738,0.0,0.0
1116,278.75,22.1516,23.1428,136.416,111.714,113.672,6.13589e-05,0.0496093,21.0138,-332.008,-0.154573,0.0,0.0
1147,286.5,22.2925,22.7715,138.781,111.629,114.001,0.000103106,0.0495945,21.0118,-332.008,-0.186972,0.0,0.0
1178,294.25,22.527,23.2014,136.699,111.56,113.572,-8.19408e-05,0.0495712,21.0097,-331.998,-0.158943,0.0,0.0
1209,302,22.2264,23.5553,136.659,111.486,113.364,6.78028e-05,0.0495871,21.0095,-332.018,-0.148586,0.0,0.0
1240,309.75,22.3906,23.1801,138.139,111.431,113.614,0.000182305,0.0495637,21.01,-332.028,-0.172593,0.0,0.0
1271,317.5,22.3462,23.2145,139.658,111.379,113.567,0.000225895,0.0495339,21.012,-332.028,-0.172983,0.0,0.0
1302,325.25,22.7126,23.0975,136.042,111.352,113.043,0.000431769,0.0495655,21.0121,-332.038,-0.134029,0.0,0.0
1333,333,22.5732,23.3809,139.833,111.327,113.287,0.000159153,0.0494586,21.0128,-332.038,-0.155194,0.0,0.0
1364,340.75,22.4255,23.2332,139.933,111.314,113.796,0.000466354,0.0494591,21.0124,-332.018,-0.196127,0.0,0.0
1395,348.5,22.2957,23.4262,137.407,111.306,113.423,-5.87086e-05,0.049359,21.0115,-332.018,-0.167545,0.0,0.0
1426,356.25,22.5101,23.1724,138.917,111.34,113.076,0.00040186,0.049384,21.0111,-332.028,-0.137569,0.0,0.0
1457,364,22.1459,23.3311,143.252,111.381,113.301,0.000102918,0.0494376,21.0104,-332.028,-0.151961,0.0,0.0
1488,371.75,22.4115,22.9828,137.387,111.402,113.811,0.00010746,0.0495893,21.0084,-332.028,-0.19029,0.0,0.0
1519,379.5,22.2128,23.4599,137.491,111.42,113.707,0.000287971,0.0496246,21.0107,-332.038,-0.180698,0.0,0.0
1550,387.25,22.4715,23.0853,142.808,111.461,113.374,7.03538e-05,0.0496291,21.011,-332.058,-0.151293,0.0,0.0
1581,395,22.6985,23.2864,138.794,111.501,113.33,-7.33244e-05,0.0495929,21.011,-332.048,-0.144682,0.0,0.0
1612,402.75,22.5357,23.3206,137.889,111.526,113.919,-0.000185122,0.0497272,21.0109,-332.028,-0.188795,0.0,0.0
1643,410.5,22.7014,23.1651,139.328,111.375,113.583,-0.000130512,0.0493223,21.0096,-332.048,-0.174618,0.0,0.0
1674,418.25,22.3079,22.6429,141.193,111.396,113.735,0.000132935,0.0494276,21.0109,-332.018,-0.184805,0.0,0.0
1705,426,22.3243,23.7091,135.731,111.392,114.062,0.00036932,0.049453,21.0117,-332.038,-0.21068,0.0,0.0
1736,433.75,22.7254,23.1285,137.997,111.394,113.437,3.39194e-05,0.0495635,21.0115,-332.048,-0.161592,0.0,0.0
1767,441.5,21.9452,23.7303,140.119,111.392,114.022,0.000245067,0.0496686,21.0101,-332.048,-0.207513,0.0,0.0
1798,449.25,22.8208,23.2026,138.924,111.389,113.44,0.000164289,0.0495621,21.009,-332.048,-0.162229,0.0,0.0
1829,457,22.5159,23.4311,140.951,111.405,113.539,0.000207286,0.0495703,21.0095,-332.058,-0.168727,0.0,0.0
1860,464.75,22.5501,23.285,140.056,111.422,113.323,-4.82985e-05,0.0494909,21.0097,-332.038,-0.150454,0.0,0.0
1891,472.5,22.5076,23.2789,137.257,111.458,113.154,-0.000188035,0.0494679,21.0109,-332.048,-0.13431,0.0,0.0
1922,480.25,22.9512,23.3633,135.573,111.496,113.733,-0.000142761,0.0494807,21.0113,-332.028,-0.176686,0.0,0.0
1953,488,22.6453,23.1044,137.304,111.54,113.604,0.000148753,0.0494517,21.0118,-332.048,-0.163044,0.0,0.0
1984,495.75,22.3387,23.1646,138.934,111.61,113.64,0.000123252,0.0495574,21.0096,-332.058,-0.160298,0.0,0.0
2015,503.5,22.486,23.1922,136.246,111.69,114.129,-6.01986e-05,0.0492294,21.0087,-332.048,-0.192157,0.0,0.0
2046,511.25,23.3028,23.1846,140.496,111.755,114.172,0.000193754,0.0492937,21.0085,-332.068,-0.190288,0.0,0.0
2077,519,22.2863,23.4047,138.54,111.835,113.91,9.69158e-05,0.0494421,21.0096,-332.078,-0.163488,0.0,0.0
2108,526.75,22.627,23.4724,139.085,111.914,113.729,-0.000128391,0.0493535,21.01,-332.068,-0.143085,0.0,0.0
2139,534.5,22.8117,23.4919,141.879,112.016,113.974,0.000440177,0.0496438,21.01,-332.068,-0.154113,0.0,0.0
2170,542.25,22.9815,23.595,138.924,112.118,114.403,0.000502612,0.0494924,21.0078,-332.048,-0.179421,0.0,0.0
2201,550,22.642,23.2072,140.333,112.223,114.579,5.90176e-05,0.0495852,21.0086,-332.058,-0.184813,0.0,0.0
2232,557.75,22.3838,23.2612,140.231,112.327,114.258,0.000166387,0.0492998,21.0094,-332.058,-0.151626,0.0,0.0
2263,565.5,22.7015,23.1561,139.024,112.414,114.537,0.00033763,0.049243,21.0099,-332.058,-0.166349,0.0,0.0
2294,573.25,22.2007,23.0707,138.084,112.461,114.715,-2.12422e-05,0.0493278,21.01,-332.058,-0.176494,0.0,0.0
2325,581,22.1007,23.7569,140.183,112.528,114.024,-0.00012165,0.0492377,21.0092,-332.058,-0.117409,0.0,0.0
2356,588.75,22.3191,23.2512,136.541,112.602,114.823,-0.000136502,0.0493196,21.0094,-332.068,-0.173733,0.0,0.0
2387,596.5,22.1856,23.3616,141.019,112.653,115.103,-9.03155e-05,0.0492826,21.0095,-332.068,-0.191347,0.0,0.0
2418,604.25,21.6465,22.1422,136.656,112.696,114.957,-0.000179824,0.0494285,21.0089,-332.068,-0.176632,0.0,0.0
2449,612,22.1271,22.1225,137.932,112.731,114.79,0.000175983,0.0494124,21.008,-332.058,-0.160974,0.0,0.0
2480,619.75,21.8463,22.0221,137.256,112.733,114.721,0.000292565,0.0495809,21.0064,-332.078,-0.155442,0.0,0.0
2511,627.5,21.7917,22.9143,138.484,112.75,114.841,0.000133421,0.0494164,21.0071,-332.068,-0.163411,0.0,0.0
2542,635.25,21.3151,22.3866,137.793,112.752,115.027,0.00037925,0.0493656,21.0087,-332.068,-0.177696,0.0,0.0
2573,643,21.8692,22.3298,139.716,112.741,114.992,-5.08518e-05,0.0493741,21.009,-332.058,-0.175842,0.0,0.0
2604,650.75,21.2182,22.6215,138.333,112.685,115.003,0.000166837,0.0493526,21.0095,-332.058,-0.181032,0.0,0.0
2635,658.5,21.7816,22.2635,138.193,112.613,114.781,0.000405304,0.0493588,21.0073,-332.058,-0.16961,0.0,0.0
2666,666.25,21.82,22.1186,139.579,112.538,114.741,0.000107419,0.049199,21.007,-332.048,-0.17237,0.0,0.0
2697,674,21.397,22.4125,139.43,112.445,114.658,-0.000146264,0.0491609,21.0063,-332.078,-0.173332,0.0,0.0
2728,681.75,21.5655,22.2384,138.358,112.407,114.025,0.000432419,0.049208,21.0069,-332.058,-0.127025,0.0,0.0
2759,689.5,21.6881,22.5729,137.733,112.38,114.87,-4.22978e-05,0.0492558,21.007,-332.058,-0.194847,0.0,0.0
2790,697.25,21.5238,22.28,140.605,112.324,114.251,-3.2185e-05,0.0490435,21.007,-332.058,-0.151252,0.0,0.0
2821,705,21.6288,22.438,138.078,112.244,114.186,-6.40919e-06,0.0491077,21.0089,-332.048,-0.152544,0.0,0.0
2852,712.75,21.725,22.5902,141.712,112.192,114.314,,0.0491201,,-332.068,-0.16668,0.0,0.0
2883,720.5,21.5083,22.2494,140.026,112.158,114.163,,,,-332.068,-0.157552,0.0,0.0
2885,721,21.9814,22.4132,137.841,112.183,114.233,,,,-332.078,-0.161,0.0,0.0

File: R30_Fiberglass_Insulation_Cone_HF50Scalar_220503_R2.csv
LABORATORY,FSRI
TEST IDENT,R30Insulation_HF50_2
OPERATOR,Dow
MATERIAL,R30 Fiberglass Insulation
ORIENTATION,Horizontal
HEAT FLUX,50
SURF AREA,0.01
C FACTOR,0.0417509
SPEC HOLDER DIFF,-566
SPECIMEN MASS,4.28
SCAN TIME,0.25
O2 DELAY TIME,11
CO DELAY TIME,11
CO2 DELAY TIME,8
FLOW FACTOR,1
SCAN COUNT,2887
TIME TO IGN,0
END OF TEST SCAN,2407
END OF TEST TIME,601.75
TEST STATUS,1
PRE TEST CMT,Dimensions: 109 x 99 x 50 mm
POST TEST CMT,No ignition. Test ended after 10 minutes. No mass loss after 10 minutes in replicate R1.

File: R30_Fiberglass_Insulation_Cone_HF50Scalar_220503_R3.csv
LABORATORY,FSRI
TEST IDENT,R30Insulation_HF50_3
OPERATOR,Dow
MATERIAL,R30 Fiberglass Insulation
ORIENTATION,Horizontal
HEAT FLUX,50
SURF AREA,0.01
C FACTOR,0.0417509
SPEC HOLDER DIFF,-566
SPECIMEN MASS,6.06
SCAN TIME,0.25
O2 DELAY TIME,11
CO DELAY TIME,11
CO2 DELAY TIME,8
FLOW FACTOR,1
SCAN COUNT,2883
TIME TO IGN,0
END OF TEST SCAN,2403
END OF TEST TIME,600.75
TEST STATUS,1
PRE TEST CMT,Dimensions: 101 x 112 x 54 mm
POST TEST CMT,No ignition. Test ended after 10 minutes. No mass loss after 10 minutes in replicate R1.

File: R30_Fiberglass_Insulation_Cone_HF75Scalar_220503_R1.csv
LABORATORY,FSRI
TEST IDENT,R30Insulation_HF75_1
OPERATOR,Dow
MATERIAL,R30 Fiberglass Insulation
ORIENTATION,Horizontal
HEAT FLUX,75
SURF AREA,0.01
C FACTOR,0.0417509
SPEC HOLDER DIFF,-566
SPECIMEN MASS,4.39
SCAN TIME,0.25
O2 DELAY TIME,11
CO DELAY TIME,11
CO2 DELAY TIME,8
FLOW FACTOR,1
SCAN COUNT,7685
TIME TO IGN,0
END OF TEST SCAN,7205
END OF TEST TIME,1801.25
TEST STATUS,1
PRE TEST CMT,Dimensions: 110 x 100 x 54 mm
POST TEST CMT,Within the first minute of exposure the sample shriveled significantly (see post test pictures).No ignition. Test ended after 30 minutes.

File: R30_Fiberglass_Insulation_Cone_HF75Scan_220503_R2.csv
Names,Time,Stack TC,Smoke TC,Exh Press,Smoke Comp,Smoke Meas,CO Meter,CO2 Meter,O2 Meter,Sample Mass,Ext Coeff,Start Test,Flame Verif
Chan Gain,,500,500,1,1,1,1,1,1,1,1,1.0,1.0
Offset,,0,0,0.135741,0,0,0,0,0,0,0,0.0,0.0
Gain,,1,1,25.011,14.8585,16.6522,1,1,1,1.00087,1.0138,1.0,1.0
Units,sec,C,C,Pa,%,%,%,%,%,g,/m,,
Baseline,,46.2936,48.0322,131.988,113.361,118.958,0.00070459,0.0484402,21.0027,-4.38701,-0.428512,,
31,7.5,44.2481,46.0875,131.025,113.338,118.763,0.0037256,0.0582502,20.9959,492.217,-0.415796,0.0,0.0
62,15.25,44.8984,46.8216,129.24,113.298,119.105,0.00429508,0.0601121,20.9939,492.087,-0.4445,0.0,0.0
93,23,45.9621,47.2365,131.868,113.251,118.427,0.00382972,0.0602038,20.9927,492.046,-0.397439,0.0,0.0
124,30.75,46.5004,47.6704,127.916,113.216,119.03,0.00404425,0.0610193,20.9924,492.066,-0.445363,0.0,0.0
155,38.5,46.2141,48.2481,135.217,113.178,119.828,0.00414708,0.0626886,20.9903,491.946,-0.507693,0.0,0.0
186,46.25,46.5154,48.2878,133.783,113.13,119.328,0.00331566,0.0620752,20.9895,491.906,-0.474354,0.0,0.0
217,54,47.1283,48.9415,127.787,113.09,119.943,0.00201614,0.0589239,20.9951,491.916,-0.523237,0.0,0.0
248,61.75,47.2309,48.8897,131.654,113.068,118.2,0.00162466,0.0554801,20.9989,491.926,-0.394764,0.0,0.0
279,69.5,47.0129,48.5667,128.876,113.037,119.108,0.00126648,0.0523374,21.0055,491.986,-0.465253,0.0,0.0
310,77.25,47.0992,49.0074,129.339,113.006,119.109,0.00112967,0.0502964,21.0086,491.936,-0.467717,0.0,0.0
341,85,46.8549,49.0275,134.95,112.958,119.042,0.00112902,0.0490888,21.0111,491.936,-0.466526,0.0,0.0
372,92.75,46.4871,49.0071,129.229,112.908,118.466,0.000622033,0.0483259,21.0095,491.916,-0.427262,0.0,0.0
403,100.5,47.3007,48.6896,131.273,113.003,118.751,0.00034585,0.0481735,21.0095,491.916,-0.441214,0.0,0.0
434,108.25,46.8767,48.861,127.766,113.067,120.661,0.000657459,0.0480523,21.0107,491.886,-0.578064,0.0,0.0
465,116,47.3056,48.8088,130.583,113.137,119.101,0.000336883,0.0478879,21.0108,491.876,-0.456838,0.0,0.0
496,123.75,46.8292,49.6841,133.24,113.188,120.115,0.00058424,0.0477678,21.0103,491.876,-0.52823,0.0,0.0
527,131.5,46.8867,48.7269,133.137,113.243,119.801,0.000627783,0.0477195,21.0103,491.876,-0.5006,0.0,0.0
558,139.25,46.4395,48.7548,131.738,113.301,118.963,0.000849762,0.04737,21.0108,491.866,-0.433653,0.0,0.0
589,147,47.255,49.3633,132.503,113.341,120.45,0.000125308,0.0470239,21.0111,491.896,-0.54099,0.0,0.0
620,154.75,47.1863,49.0353,128.366,113.345,119.811,0.000398764,0.0471331,21.012,491.856,-0.493383,0.0,0.0
651,162.5,47.5579,48.9615,129.781,113.371,119.909,0.000305929,0.0471829,21.0113,491.856,-0.498669,0.0,0.0
682,170.25,46.4776,49.4504,130.831,113.368,119.032,0.000410829,0.0470304,21.0106,491.876,-0.433553,0.0,0.0
713,178,47.442,49.1602,130.726,113.374,119.867,0.000626164,0.0470418,21.01,491.866,-0.495253,0.0,0.0
744,185.75,47.3911,49.1969,131.175,113.382,119.357,0.000737904,0.0472914,21.0111,491.836,-0.456717,0.0,0.0
775,193.5,47.1915,49.2259,129.942,113.372,119.118,0.000570868,0.0470018,21.0104,491.876,-0.439647,0.0,0.0
806,201.25,47.2645,49.8043,126.992,113.36,119.981,0.000494035,0.0470229,21.0103,491.856,-0.504835,0.0,0.0
837,209,47.376,49.2041,134.748,113.331,119.205,0.000446077,0.0471139,21.0118,491.896,-0.449409,0.0,0.0
868,216.75,47.4759,49.6181,130.139,113.311,119.103,0.000491149,0.0469313,21.0139,491.876,-0.443388,0.0,0.0
899,224.5,47.4939,49.2981,128.887,113.326,119.491,0.000489275,0.0468406,21.0136,491.856,-0.471082,0.0,0.0
930,232.25,47.626,49.8272,131.247,113.327,119.769,0.000713818,0.0468855,21.0122,491.846,-0.491673,0.0,0.0
961,240,47.8015,49.4704,129.249,113.321,118.549,0.000296057,0.0469568,21.0109,491.846,-0.401111,0.0,0.0
992,247.75,47.2312,49.0817,131.178,113.314,119.575,0.000644511,0.0469433,21.0096,491.866,-0.478246,0.0,0.0
1023,255.5,47.9519,49.6532,129.654,113.303,118.598,0.000592247,0.0470067,21.012,491.866,-0.406158,0.0,0.0
1054,263.25,47.8904,49.6615,134.61,113.281,119.132,0.000376152,0.0469878,21.0116,491.816,-0.447825,0.0,0.0
1085,271,47.4335,49.358,132.911,113.28,120.403,0.000505179,0.0468318,21.0114,491.816,-0.542308,0.0,0.0
1116,278.75,47.8502,49.5577,131.983,113.275,120.559,0.000443747,0.0469723,21.0108,491.856,-0.554251,0.0,0.0
1147,286.5,47.641,49.6142,131.906,113.259,119.578,0.000374371,0.0472032,21.0112,491.846,-0.482817,0.0,0.0
1178,294.25,47.6595,49.4072,132.863,113.242,118.661,0.000299056,0.0471561,21.0116,491.846,-0.415726,0.0,0.0
1209,302,47.7481,49.5906,132.457,113.22,118.768,0.000545663,0.0472046,21.0121,491.816,-0.425432,0.0,0.0
1240,309.75,47.309,49.7746,127.748,113.184,119.675,0.000512271,0.0473189,21.0093,491.826,-0.495943,0.0,0.0
1271,317.5,47.4904,49.397,128.201,113.124,118.571,0.000390754,0.047545,21.011,491.846,-0.418171,0.0,0.0
1302,325.25,47.6309,49.3964,128.347,113.067,118.157,0.00060766,0.0474499,21.0147,491.866,-0.391582,0.0,0.0
1333,333,47.5607,49.7637,126.268,112.997,118.554,0.000365502,0.0473027,21.0143,491.846,-0.4269,0.0,0.0
1364,340.75,47.785,49.8112,132.229,112.973,118.691,0.000393597,0.0474813,21.012,491.856,-0.439076,0.0,0.0
1395,348.5,47.8693,49.4773,133.067,112.917,118.548,0.000431975,0.0475749,21.0118,491.826,-0.432797,0.0,0.0
1426,356.25,47.3555,49.5647,131.681,112.934,119.946,0.000598572,0.0476139,21.0123,491.856,-0.535665,0.0,0.0
1457,364,47.2167,49.2661,133.036,112.942,118.914,0.000532736,0.0476473,21.0123,491.816,-0.458203,0.0,0.0
1488,371.75,47.6095,49.4358,131.244,112.977,118.697,0.000367593,0.0476454,21.0094,491.836,-0.439247,0.0,0.0
1519,379.5,47.4975,49.5657,131.334,113.016,119.195,0.000314744,0.0476009,21.0111,491.846,-0.473415,0.0,0.0
1550,387.25,47.8153,48.9608,131.4,113.05,119.236,0.000266183,0.0475384,21.0116,491.826,-0.473737,0.0,0.0
1581,395,47.9979,49.6384,127.806,113.093,119.445,0.000311794,0.0475463,21.0097,491.826,-0.486022,0.0,0.0
1612,402.75,47.7784,49.6372,131.639,113.128,119.728,0.000233252,0.0472686,21.0114,491.836,-0.504288,0.0,0.0
1643,410.5,47.5509,49.7849,128.487,113.172,119.013,0.000619159,0.0474262,21.0115,491.816,-0.447492,0.0,0.0
1674,418.25,48.0573,49.2871,133.772,113.196,119.578,0.00049781,0.0474764,21.0125,491.796,-0.487801,0.0,0.0
1705,426,47.6146,50.2414,131.164,113.227,118.844,0.000524145,0.0477339,21.0124,491.816,-0.430566,0.0,0.0
1736,433.75,47.7492,49.8243,127.788,113.24,120.391,0.000312076,0.0477437,21.0128,491.796,-0.544576,0.0,0.0
1767,441.5,47.5143,49.4728,129.948,113.267,119.227,0.000464926,0.0478804,21.0106,491.816,-0.456021,0.0,0.0
1798,449.25,47.4703,49.6097,132.973,113.334,118.953,0.000395482,0.0478212,21.0106,491.846,-0.430336,0.0,0.0
1829,457,47.7872,49.7705,130.054,113.388,119.166,0.00028364,0.0478902,21.0104,491.846,-0.442044,0.0,0.0
1860,464.75,47.7149,49.9191,132.994,113.45,119.817,0.000277538,0.0476503,21.0093,491.816,-0.485586,0.0,0.0
1891,472.5,48.3758,49.7967,130.922,113.507,119.414,0.000475031,0.0475431,21.0106,491.826,-0.451219,0.0,0.0
1922,480.25,47.8527,49.5838,129.279,113.542,119.404,0.000374779,0.0475146,21.0108,491.816,-0.447655,0.0,0.0
1953,488,47.8959,49.8494,131.963,113.605,119.679,0.000570008,0.0475277,21.012,491.836,-0.463244,0.0,0.0
1984,495.75,47.7624,49.5902,135.743,113.661,120.578,0.000492451,0.0476802,21.0105,491.776,-0.525358,0.0,0.0
2015,503.5,47.9033,49.7411,132.18,113.722,119.617,0.000398964,0.0476087,21.0109,491.836,-0.449374,0.0,0.0
2046,511.25,47.3235,49.2377,132.036,113.785,119.998,0.000440608,0.0477788,21.0115,491.816,-0.472737,0.0,0.0
2077,519,47.4126,49.349,131.273,113.813,119.75,0.000511267,0.0478108,21.0109,491.816,-0.452251,0.0,0.0
2108,526.75,47.4326,49.9871,130.858,113.836,120.327,0.000247991,0.0478435,21.0114,491.816,-0.49314,0.0,0.0
2139,534.5,48.1414,49.4957,134.436,113.853,119.993,0.000437755,0.0477854,21.0118,491.826,-0.467118,0.0,0.0
2170,542.25,47.6002,49.6075,128.96,113.872,121.802,0.000282344,0.047867,21.011,491.816,-0.598674,0.0,0.0
2201,550,48.3951,49.9954,130.419,113.879,121.276,0.000375056,0.0476737,21.0118,491.806,-0.559658,0.0,0.0
2232,557.75,48.5455,49.7689,135.289,113.889,119.492,0.000346555,0.047576,21.0124,491.826,-0.427073,0.0,0.0
2263,565.5,48.202,50.124,128.371,113.913,120.883,0.000537665,0.0476815,21.0124,491.826,-0.528113,0.0,0.0
2294,573.25,48.3555,49.8311,127.907,113.919,120.492,0.000749279,0.0480862,21.0133,491.856,-0.498893,0.0,0.0
2325,581,47.5755,50.1164,133.383,113.901,119.992,0.000800142,0.0485016,21.015,491.836,-0.463253,0.0,0.0
2356,588.75,47.9858,50.0088,132.144,113.915,119.807,0.000422882,0.0487939,21.0138,491.846,-0.448471,0.0,0.0
2387,596.5,47.6207,49.6592,128.937,113.907,119.951,0.000257356,0.048833,21.0113,491.836,-0.459779,0.0,0.0
2418,604.25,46.2825,47.7794,131.221,113.912,119.834,9.27631e-05,0.0486873,21.0085,491.846,-0.450718,0.0,0.0
2449,612,46.1076,47.9766,129.79,113.911,119.653,0.000336011,0.0490183,21.0078,491.836,-0.437355,0.0,0.0
2480,619.75,46.4749,48.1657,130.504,113.92,120.018,0.000310982,0.049442,21.0077,491.846,-0.463724,0.0,0.0
2511,627.5,45.9807,48.1792,135.012,113.917,120.321,0.000192342,0.0497509,21.0086,491.876,-0.486388,0.0,0.0
2542,635.25,46.0062,47.7214,130.537,113.92,120.064,0.00033768,0.0494288,21.0079,491.866,-0.467148,0.0,0.0
2573,643,46.5626,47.6589,131.534,113.921,120.121,0.000328859,0.0490877,21.0095,491.856,-0.471257,0.0,0.0
2604,650.75,46.1479,47.995,129.648,113.915,120.759,0.000368144,0.049186,21.0118,491.876,-0.518882,0.0,0.0
2635,658.5,46.0909,47.8401,128.043,113.901,120.499,0.000356382,0.0492624,21.0108,491.846,-0.500797,0.0,0.0
2666,666.25,46.1396,48.3008,129.245,113.875,120.878,0.000279198,0.0489179,21.0093,491.876,-0.530714,0.0,0.0
2697,674,46.2914,48.162,132.93,113.872,120.753,5.29251e-05,0.0487097,21.0085,491.836,-0.521833,0.0,0.0
2728,681.75,45.912,47.6511,129.69,113.863,120.748,0.000310257,0.0485445,21.0106,491.866,-0.522132,0.0,0.0
2759,689.5,46.1299,48.1622,130.454,113.843,120.026,0.000174263,0.0481338,21.0131,491.896,-0.470309,0.0,0.0
2790,697.25,45.8222,48.1679,129.698,113.832,120.382,0.000209276,0.0480483,21.0118,491.866,-0.497515,0.0,0.0
2821,705,46.4233,48.1929,130.986,113.825,120.1,0.000699584,0.0480355,21.0114,491.806,-0.477186,0.0,0.0
2852,712.75,46.2799,48.3314,131.156,113.822,119.892,,0.0478228,,491.826,-0.462066,0.0,0.0
2883,720.5,46.752,47.6643,134.316,113.829,120.556,,,,491.836,-0.510628,0.0,0.0
2885,721,46.2026,47.8317,130.11,113.808,120.273,,,,491.826,-0.491352,0.0,0.0