Folder: fsri_materials_database/01_Data/Microfiber_Sofa_Polystyrene/MCC

Note: 01_Data/README.md
# Materials and Products Database
## 01_Data

Raw data generated from each apparatus are included here in plain-text format. The data is organized first by material, next by the short name of test apparatus used, and where applicable additional filtering by test settings.

### material.json

Each material directory contains a json file of the same name as the material. This file links the data stored in the repository as well as data and graphs produced by the accompanying scripts (__02_Scripts__) to the respective landing page for the material on the front-end website.

File: Microfiber_Sofa_Polystyrene_MCC_30K_min_220301_R1.txt
Sample ID:	C:\MCC\MCC Cal\Test\Polystyrene_81C_MCC_30K_min_220301_R1.txt
Sample Weight (mg):	4.1
Heating Rate (C/s):	0.5
Combustor Temp (C):	900
N2 Flow Rate (cc/min):	80
O2 Flow Rate (cc/min):	20
Calibration File:	C:\MCC\MCC Cal\Coeff1 JN10440_30_210304.txt.txt
T Correction Coefficients:	0	1.024463	0
Time Shift (s):	14
*
Time (s)	Temperature (C)	N2 flow rate (cc/min)	O2 flow rate (cc/min)	Flow Rate (cc/min)	Oxygen (%)	HRR (W/g)	Heating rate (C/s)
0.000	110.212	80.012	19.994	103.812	20.017	0.067	0.020
8.000	110.386	80.012	19.994	103.811	20.012	0.469	-0.007
16.000	110.603	80.013	19.994	103.862	20.008	0.804	0.009
24.000	111.031	80.013	19.992	103.912	20.003	1.215	0.067
32.000	111.815	80.013	19.993	103.873	20.003	1.198	0.101
40.000	112.709	80.013	19.994	103.921	19.989	2.259	0.099
48.000	113.936	80.013	19.993	103.980	19.979	3.079	0.185
56.000	115.577	80.012	19.994	103.998	19.973	3.528	0.212
64.001	117.579	80.011	19.994	103.997	19.970	3.807	0.284
72.001	119.898	80.012	19.995	104.013	19.967	4.048	0.301
80.000	122.582	80.012	19.994	104.019	19.972	3.652	0.357
88.000	125.602	80.011	19.993	104.017	19.970	3.791	0.410
96.000	128.861	80.012	19.993	104.026	19.972	3.608	0.429
104.000	132.241	80.012	19.993	104.028	19.962	4.416	0.446
112.000	135.785	80.011	19.993	104.039	19.963	4.327	0.433
120.000	139.444	80.013	19.992	104.024	19.963	4.375	0.482
128.000	143.315	80.015	19.992	104.019	19.966	4.123	0.495
136.000	147.237	80.010	19.993	104.016	19.967	4.050	0.514
144.000	151.207	80.011	19.995	104.017	19.972	3.618	0.429
152.000	155.404	80.011	19.993	104.014	19.973	3.579	0.501
160.000	159.464	80.012	19.994	104.003	19.972	3.672	0.506
168.000	163.501	80.009	19.995	103.984	19.972	3.657	0.480
176.000	167.592	80.011	19.994	103.981	19.973	3.583	0.516
184.000	171.648	80.014	19.993	103.982	19.976	3.334	0.492
192.000	175.691	80.012	19.995	103.975	19.975	3.388	0.519
200.000	179.715	80.012	19.993	103.969	19.977	3.239	0.496
208.000	183.702	80.013	19.994	103.965	19.973	3.522	0.490
216.000	187.711	80.012	19.993	103.975	19.978	3.165	0.495
224.000	191.703	80.012	19.994	103.953	19.974	3.444	0.502
232.000	195.641	80.011	19.994	103.945	19.979	3.113	0.485
240.000	199.580	80.031	20.001	103.966	19.977	3.210	0.502
248.000	203.558	80.009	19.992	103.944	19.980	2.998	0.496
256.000	207.447	80.011	19.995	103.943	19.974	3.452	0.513
264.000	211.426	80.012	19.994	103.937	19.975	3.439	0.496
272.000	215.312	80.012	19.994	103.939	19.973	3.584	0.508
280.000	219.297	80.012	19.994	103.938	19.975	3.378	0.476
288.000	223.226	80.012	19.994	103.939	19.976	3.333	0.500
296.000	227.232	80.013	19.993	103.938	19.971	3.740	0.479
304.000	231.295	80.011	19.994	103.932	19.975	3.419	0.479
312.000	235.277	80.011	19.995	103.943	19.970	3.824	0.498
320.000	239.285	80.012	19.993	103.936	19.967	4.037	0.491
328.000	243.245	80.012	19.993	103.931	19.963	4.314	0.517
336.000	247.245	80.010	19.995	103.923	19.959	4.664	0.506
344.001	251.251	80.013	19.994	103.922	19.966	4.087	0.453
352.000	255.323	80.012	19.994	103.907	19.961	4.515	0.517
360.000	259.406	80.012	19.995	103.908	19.966	4.089	0.468
368.000	263.359	80.012	19.994	103.905	19.964	4.288	0.498
376.000	267.433	80.012	19.994	103.908	19.961	4.514	0.508
384.000	271.445	80.011	19.994	103.903	19.957	4.858	0.514
392.000	275.449	80.012	19.993	103.898	19.957	4.823	0.461
400.000	279.504	80.012	19.994	103.900	19.953	5.165	0.508
408.000	283.479	80.012	19.993	103.899	19.943	5.915	0.533
416.000	287.454	80.011	19.993	103.900	19.945	5.742	0.498
424.000	291.487	80.011	19.993	103.900	19.940	6.140	0.480
432.000	295.572	80.014	19.995	103.897	19.934	6.633	0.500
440.000	299.529	80.013	19.994	103.891	19.928	7.098	0.463
448.000	303.601	80.013	19.994	103.901	19.922	7.581	0.485
456.000	307.601	80.012	19.994	103.890	19.917	7.980	0.478
464.000	311.662	80.010	19.994	103.892	19.910	8.566	0.491
472.000	315.696	80.012	19.994	103.895	19.901	9.238	0.492
480.000	319.704	80.014	19.994	103.892	19.886	10.412	0.503
488.000	323.696	80.010	19.994	103.900	19.877	11.182	0.482
496.000	327.706	80.011	19.994	103.899	19.856	12.847	0.502
504.000	331.679	80.013	19.992	103.897	19.835	14.448	0.475
512.000	335.686	80.014	19.992	103.892	19.809	16.488	0.479
520.000	339.699	80.011	19.994	103.898	19.770	19.584	0.525
528.000	343.717	80.012	19.993	103.888	19.724	23.277	0.478
536.000	347.820	80.014	19.993	103.884	19.715	23.940	0.482
544.000	351.918	80.011	19.995	103.899	19.703	24.905	0.524
552.000	356.090	80.012	19.996	103.895	19.674	27.231	0.513
560.000	360.186	80.011	19.995	103.902	19.629	30.750	0.536
568.000	364.230	80.012	19.993	103.903	19.554	36.704	0.512
576.000	368.307	80.010	19.994	103.905	19.469	43.432	0.537
584.000	372.287	80.010	19.995	103.901	19.355	52.415	0.506
592.000	376.315	80.013	19.994	103.910	19.204	64.408	0.491
600.000	380.386	80.012	19.992	103.901	19.075	74.617	0.557
608.000	384.357	80.012	19.994	103.954	18.891	89.095	0.478
616.000	388.367	80.013	19.994	103.930	18.591	112.943	0.500
624.000	392.289	80.011	19.994	103.988	18.277	137.743	0.499
632.000	396.307	80.010	19.994	103.942	17.866	170.306	0.447
640.000	400.206	80.011	19.994	104.019	17.391	208.162	0.465
648.000	404.080	80.010	19.994	104.040	16.772	256.772	0.443
656.000	408.444	80.010	19.994	103.863	16.036	315.474	0.847
664.000	412.271	80.012	19.993	104.117	15.476	359.660	0.515
672.000	416.213	80.012	19.994	104.091	14.881	407.023	0.450
680.000	420.238	80.011	19.993	104.141	14.635	425.158	0.473
688.000	424.256	80.012	19.993	104.483	13.928	484.529	0.509
696.000	428.399	80.013	19.992	103.890	14.670	423.827	0.538
704.000	432.664	80.011	19.993	104.197	15.539	354.808	0.563
712.000	437.007	80.010	19.994	104.129	16.602	270.582	0.542
720.000	441.328	80.011	19.994	104.089	17.683	184.804	0.558
728.000	445.640	80.011	19.993	104.047	18.554	115.808	0.547
736.000	449.822	80.009	19.993	103.976	19.137	69.672	0.540
744.000	454.004	80.010	19.995	103.901	19.476	42.874	0.498
752.000	458.246	80.011	19.993	103.865	19.657	28.515	0.522
760.000	462.293	80.013	19.994	103.864	19.768	19.765	0.475
768.000	466.258	80.011	19.994	103.869	19.835	14.439	0.506
776.001	470.291	80.013	19.994	103.858	19.890	10.149	0.540
784.000	474.264	80.013	19.993	103.858	19.936	6.492	0.518
792.000	478.257	80.012	19.995	103.861	19.965	4.216	0.508
800.000	482.284	80.012	19.994	103.857	19.971	3.680	0.498
808.000	486.357	80.011	19.992	103.858	19.974	3.492	0.506
816.000	490.468	80.010	19.993	103.860	19.974	3.451	0.521
824.000	494.628	80.010	19.994	103.852	19.979	3.108	0.534
832.000	498.759	80.011	19.993	103.851	19.975	3.371	0.507
840.000	502.935	80.010	19.994	103.840	19.977	3.207	0.546
848.001	507.064	80.011	19.995	103.849	19.980	3.012	0.511
856.000	511.227	80.013	19.993	103.837	19.980	2.975	0.514
864.000	515.471	80.013	19.994	103.848	19.979	3.109	0.549
872.000	519.621	80.011	19.993	103.838	19.978	3.170	0.526
880.000	523.820	80.011	19.993	103.852	19.968	3.925	0.551
888.000	528.019	80.011	19.993	103.852	19.979	3.060	0.542
896.000	532.176	80.012	19.994	103.847	19.980	3.032	0.497
904.000	536.455	80.009	19.994	103.847	19.978	3.136	0.568
912.000	540.614	80.012	19.995	103.843	19.977	3.274	0.496
920.000	544.717	80.012	19.995	103.848	19.983	2.805	0.525
928.000	548.794	80.013	19.995	103.837	19.979	3.099	0.488
936.000	553.034	80.012	19.995	103.846	19.983	2.753	0.517
944.000	557.159	80.013	19.993	103.840	19.983	2.729	0.492
952.000	561.287	80.011	19.993	103.849	19.979	3.077	0.497
960.000	565.358	80.010	19.994	103.859	19.981	2.926	0.494
968.000	569.425	80.010	19.994	103.844	19.976	3.337	0.507
976.000	573.521	80.011	19.993	103.838	19.978	3.174	0.526
984.000	577.586	80.010	19.994	103.851	19.978	3.151	0.526
992.000	581.673	80.012	19.994	103.840	19.980	2.975	0.505
1000.000	585.730	80.013	19.995	103.838	19.981	2.911	0.503
1008.000	589.790	80.012	19.994	103.843	19.983	2.774	0.458
1016.001	593.853	80.012	19.994	103.850	19.978	3.174	0.513
1024.000	597.896	80.013	19.993	103.846	19.980	2.976	0.508
1032.000	601.975	80.009	19.995	103.857	19.973	3.531	0.514
1040.000	606.087	80.011	19.994	103.840	19.978	3.157	0.506
1048.000	610.161	80.011	19.993	103.836	19.976	3.312	0.552
1056.000	614.283	80.012	19.993	103.841	19.973	3.575	0.512
1064.000	618.396	80.011	19.994	103.846	19.978	3.192	0.501
1072.001	622.545	80.012	19.993	103.846	19.978	3.200	0.522
1080.000	626.577	80.015	19.994	103.829	19.978	3.153	0.488
1088.001	630.563	80.011	19.994	103.846	19.974	3.482	0.505
1096.000	634.633	80.013	19.993	103.860	19.974	3.496	0.542
1104.000	638.703	80.015	19.994	103.847	19.969	3.881	0.506
1112.001	642.771	80.012	19.994	103.842	19.977	3.202	0.502
1120.000	646.795	80.011	19.995	103.842	19.980	2.988	0.508
1128.000	650.914	80.011	19.995	103.848	19.977	3.244	0.528
1136.000	655.111	80.012	19.995	103.847	19.977	3.226	0.504
1144.000	659.250	80.011	19.993	103.853	19.975	3.407	0.523
1152.000	663.353	80.011	19.995	103.841	19.976	3.356	0.517
1160.000	667.457	80.013	19.993	103.832	19.978	3.183	0.532
1168.000	671.541	80.012	19.993	103.846	19.974	3.449	0.498
1176.000	675.677	80.012	19.993	103.831	19.974	3.468	0.509
1184.001	679.746	80.013	19.994	103.841	19.974	3.511	0.511
1192.000	683.653	80.012	19.994	103.825	19.970	3.786	0.501
1200.000	687.571	80.011	19.993	103.826	19.973	3.578	0.517
1208.000	691.507	80.010	19.993	103.837	19.972	3.615	0.486
1216.001	695.593	80.010	19.994	103.829	19.971	3.686	0.517
1224.000	699.625	80.011	19.994	103.829	19.965	4.166	0.473
1232.000	703.779	80.011	19.994	103.837	19.966	4.077	0.552
1240.000	707.929	80.013	19.994	103.831	19.972	3.613	0.497
1248.000	712.167	80.013	19.993	103.828	19.969	3.893	0.576
1256.000	716.478	80.012	19.994	103.830	19.971	3.739	0.552
1264.000	720.687	80.016	19.992	103.839	19.967	4.039	0.497
1272.000	724.879	80.013	19.994	103.848	19.966	4.079	0.510
1280.000	729.009	80.010	19.993	103.845	19.964	4.254	0.503
1288.000	733.123	80.011	19.994	103.845	19.968	3.936	0.513
1296.000	737.211	80.012	19.993	103.828	19.969	3.900	0.509
1304.000	741.286	80.011	19.994	103.832	19.964	4.269	0.507
1312.000	745.279	80.010	19.995	103.832	19.972	3.662	0.449