Folder: fsri_materials_database/01_Data/Hemp_Sheets/Cone

Note: 01_Data/README.md
# Materials and Products Database
## 01_Data

Raw data generated from each apparatus are included here in plain-text format. The data is organized first by material, next by the short name of test apparatus used, and where applicable additional filtering by test settings.

### material.json

Each material directory contains a json file of the same name as the material. This file links the data stored in the repository as well as data and graphs produced by the accompanying scripts (__02_Scripts__) to the respective landing page for the material on the front-end website.

File: Hemp_Sheet_Cone_HF25Scalar_220524_R1.csv
LABORATORY,FSRI
TEST IDENT,Hemp_Sheet_25_1
OPERATOR,Dow
MATERIAL,Hemp Sheet
ORIENTATION,Horizontal
HEAT FLUX,25
SURF AREA,0.00884
C FACTOR,0.0417695
SPEC HOLDER DIFF,-566
SPECIMEN MASS,1.77
SCAN TIME,0.25
O2 DELAY TIME,11
CO DELAY TIME,11
CO2 DELAY TIME,8
FLOW FACTOR,1
SCAN COUNT,640
TIME TO IGN,14
END OF TEST SCAN,160
END OF TEST TIME,40
TEST STATUS,1
PRE TEST CMT,Dimensions: 103 x 103 x 0.30 mm; with frame; with calcium silicate substrate

File: Hemp_Sheet_Cone_HF25Scalar_220524_R3.csv
LABORATORY,FSRI
TEST IDENT,Hemp_Sheet_25_3
OPERATOR,Dow
MATERIAL,Hemp Sheet
ORIENTATION,Horizontal
HEAT FLUX,25
SURF AREA,0.00884
C FACTOR,0.0417695
SPEC HOLDER DIFF,-566
SPECIMEN MASS,1.71
SCAN TIME,0.25
O2 DELAY TIME,11
CO DELAY TIME,11
CO2 DELAY TIME,8
FLOW FACTOR,1
SCAN COUNT,630
TIME TO IGN,13.75
END OF TEST SCAN,150
END OF TEST TIME,37.5
TEST STATUS,1
PRE TEST CMT,Dimensions: 101 x 100 x 0.30 mm; with frame; with calcium silicate substrate

File: Hemp_Sheet_Cone_HF25Scan_220524_R2.csv
Names,Time,Stack TC,Smoke TC,Exh Press,Smoke Comp,Smoke Meas,CO Meter,CO2 Meter,O2 Meter,Sample Mass,Ext Coeff,Start Test,Flame Verif
Chan Gain,,500,500,1,1,1,1,1,1,1,1,1.0,1.0
Offset,,0,0,0.139323,0,0,0,0,0,0,0,0.0,0.0
Gain,,1,1,25.011,13.8491,15.2622,1,1,1,1.00087,1.03118,1.0,1.0
Units,sec,C,C,Pa,%,%,%,%,%,g,/m,,
Baseline,,23.3891,23.9943,146.028,105.132,104.973,0.000264809,0.0420669,21.0027,-452.384,0.0137725,,
7,1.5,20.4907,21.5867,140.584,104.942,104.729,9.34387e-05,0.0502156,20.9942,575.401,0.0184428,0.0,0.0
14,3.25,20.8303,21.7155,143.278,104.955,105.162,0.00014747,0.0506289,20.9942,575.551,-0.017876,0.0,0.0
21,5,19.9757,20.355,149.297,104.96,104.655,0.000175646,0.0513776,20.9932,575.421,0.0263316,0.0,0.0
28,6.75,19.9531,20.6843,145.262,104.967,104.569,0.000201074,0.051798,20.9932,575.441,0.0343606,0.0,0.0
35,8.5,19.8916,20.9898,143.065,104.968,104.249,0.000223413,0.0513528,20.9937,575.471,0.0621187,0.0,0.0
42,10.25,20.2967,20.5191,151.585,104.981,104.059,0.000285495,0.0502361,20.994,575.411,0.0797515,0.0,0.0
49,12,20.2384,20.6253,146.31,104.98,103.571,0.000464545,0.0495922,20.9946,575.461,0.122286,0.0,0.0
56,13.75,19.7027,20.8133,145.068,104.987,102.843,0.000854922,0.0508762,20.9925,575.471,0.186636,0.0,0.0
63,15.5,20.1127,20.4326,139.858,104.975,106.615,0.00128496,0.0864199,20.9339,575.341,-0.140191,0.0,1.0
70,17.25,21.2179,20.953,133.616,104.967,108.667,0.00163399,0.166919,20.8159,575.141,-0.313339,0.0,1.0
77,19,22.3431,21.2583,123.954,104.982,109.691,0.00186818,0.271302,20.7133,574.93,-0.396957,0.0,1.0
84,20.75,22.8679,20.8638,124.733,104.988,109.614,0.00200848,0.351467,20.6466,574.68,-0.390069,0.0,0.0
91,22.5,25.4367,22.6732,125.981,105.004,109.384,0.0021234,0.392736,20.6137,574.45,-0.369642,0.0,0.0
98,24.25,27.005,24.2211,129.547,104.978,106.509,0.00249531,0.383755,20.6163,574.3,-0.130962,0.0,0.0
105,26,27.5925,25.6207,140.21,104.996,105.639,0.00329389,0.338438,20.6723,574.25,-0.0552748,0.0,0.0
112,27.75,27.8979,26.0523,147.337,104.988,105.665,0.00470003,0.2647,20.7495,574.22,-0.0581231,0.0,0.0
119,29.5,27.9093,26.4966,139.858,104.999,105.185,0.00612617,0.20281,20.8183,574.24,-0.0159752,0.0,0.0
126,31.25,27.3411,26.1124,146.778,104.996,105.281,0.00722032,0.158484,20.8659,574.24,-0.0245934,0.0,0.0
133,33,26.5975,26.3463,142.866,105.009,105.462,0.00779702,0.128717,20.8964,574.23,-0.0389377,0.0,0.0
140,34.75,26.2608,26.5847,141.44,105.012,105.193,0.00784411,0.110467,20.9185,574.2,-0.0155269,0.0,0.0
147,36.5,25.9048,26.1758,144.046,105.01,105.23,0.00755823,0.0970702,20.9361,574.21,-0.0189527,0.0,0.0
154,38.25,25.7465,25.7904,147.395,104.99,105.702,0.00707646,0.0866879,20.9493,574.21,-0.0611303,0.0,0.0
161,40,24.7287,25.2467,146.559,104.978,104.922,0.00652724,0.0785053,20.9593,574.17,0.00485969,0.0,0.0
168,41.75,23.2587,24.3889,145.388,104.999,105.057,0.00577024,0.07175,20.9667,574.14,-0.00506999,0.0,0.0
175,43.5,24.2438,24.0286,144.682,104.987,104.768,0.00501059,0.0661307,20.9724,574.16,0.0188485,0.0,0.0
182,45.25,24.2227,24.8775,144.48,104.973,105.018,0.00420122,0.0613727,20.9792,574.18,-0.00392211,0.0,0.0
189,47,23.7795,24.821,146.485,104.955,104.857,0.00357789,0.0575605,20.9844,574.07,0.00843919,0.0,0.0
196,48.75,23.9617,24.1391,146.899,104.959,104.664,0.00283235,0.0545035,20.9891,574.08,0.0254531,0.0,0.0
203,50.5,23.5127,24.1027,146.371,104.945,104.847,0.00217833,0.0515944,20.9922,574.14,0.00844996,0.0,0.0
210,52.25,23.0276,23.8059,146.374,104.931,105.158,0.00160079,0.0493344,20.9956,574.18,-0.0195546,0.0,0.0
217,54,23.0199,24.3214,144.205,104.903,104.714,0.00118254,0.0475214,20.9983,574.16,0.0163786,0.0,0.0
224,55.75,22.6097,23.5719,144.908,104.908,105.123,0.000967106,0.0463119,20.9996,574.16,-0.0185135,0.0,0.0
231,57.5,23.0245,23.6436,147.368,104.924,104.873,0.000866628,0.045426,21.0002,574.19,0.00437794,0.0,0.0
238,59.25,22.6445,23.8235,142.599,104.966,104.923,0.000737106,0.0449396,21.0005,574.18,0.0037237,0.0,0.0
245,61,22.4755,23.3634,145.966,105.022,104.944,0.000590465,0.0446448,21.0007,574.18,0.00671858,0.0,0.0
252,62.75,21.9208,23.4541,146.054,105.073,105.247,0.000486347,0.0443195,21.0018,574.21,-0.0149706,0.0,0.0
259,64.5,22.4711,23.4804,141.675,105.144,105.157,0.000463797,0.0438724,21.0025,574.22,-0.00116734,0.0,0.0
266,66.25,22.25,23.2595,148.934,105.187,104.822,0.000450091,0.0435974,21.0028,574.21,0.0314329,0.0,0.0
273,68,22.2123,23.234,142.111,105.233,105.199,0.000422476,0.0434148,21.0038,574.23,0.00293251,0.0,0.0
280,69.75,21.893,23.2837,145.091,105.29,105.312,0.000405191,0.0431914,21.0046,574.2,-0.00188723,0.0,0.0
287,71.5,21.8729,22.5154,143.653,105.318,105.281,0.000380785,0.0430828,21.0054,574.21,0.00318906,0.0,0.0
294,73.25,21.0639,23.1796,147.136,105.361,105.603,0.000357797,0.0430053,21.0048,574.23,-0.0207623,0.0,0.0
301,75,21.1203,22.4649,150.043,105.4,105.277,0.000359041,0.042856,21.0045,574.23,0.0105849,0.0,0.0
308,76.75,21.6615,22.4832,141.881,105.421,105.022,0.000407935,0.0427845,21.0045,574.24,0.0343155,0.0,0.0
315,78.5,20.9915,22.3529,146.555,105.433,105.229,0.000475155,0.0426655,21.0048,574.21,0.0174969,0.0,0.0
322,80.25,21.2285,22.6413,146.485,105.448,105.443,0.000508648,0.0425494,21.0045,574.19,0.00040759,0.0,0.0
329,82,20.99,22.0127,141.079,105.457,105.5,0.000450838,0.0425465,21.0041,574.23,-0.00374465,0.0,0.0
336,83.75,21.031,22.1722,146.33,105.463,105.215,0.000332399,0.0426184,21.0049,574.21,0.0212758,0.0,0.0
343,85.5,20.934,22.107,145.153,105.427,105.653,0.000252851,0.0425572,21.0055,574.21,-0.0193715,0.0,0.0
350,87.25,21.267,22.4458,144.131,105.405,105.22,0.000209961,0.0424697,21.0058,574.2,0.0159438,0.0,0.0
357,89,20.641,22.0955,145.274,105.368,105.655,0.000165658,0.0425084,21.0053,574.19,-0.0246486,0.0,0.0
364,90.75,21.2297,21.9909,147.941,105.317,105.044,0.00010293,0.0426409,21.0045,574.17,0.0235045,0.0,0.0
371,92.5,20.6939,21.7791,144.076,105.254,105.139,6.03668e-05,0.0426817,21.0041,574.19,0.00984065,0.0,0.0
378,94.25,20.6151,22.0178,144.724,105.188,105.079,3.44563e-05,0.0426004,21.0037,574.21,0.0094184,0.0,0.0
385,96,20.1488,22.0914,142.314,105.12,105.276,2.57807e-05,0.0425306,21.0045,574.18,-0.0134548,0.0,0.0
392,97.75,20.3553,21.5107,146.64,105.035,104.723,4.42366e-05,0.0424792,21.005,574.16,0.0268595,0.0,0.0
399,99.5,20.7215,21.7308,148.503,104.924,104.676,7.06103e-05,0.0424569,21.0052,574.18,0.0214275,0.0,0.0
406,101.25,20.2216,21.5078,143.122,104.838,104.46,0.000173013,0.0426183,21.0051,574.18,0.0327191,0.0,0.0
413,103,19.8,22.044,143.062,104.735,104.771,0.000293938,0.042614,21.0047,574.16,-0.00312115,0.0,0.0
420,104.75,20.3705,21.2493,145.173,104.592,104.727,0.000331401,0.0424524,21.0041,574.14,-0.01165,0.0,0.0
427,106.5,20.5368,21.7058,145.365,104.578,104.724,0.000337703,0.0424267,21.0036,574.14,-0.0126115,0.0,0.0
434,108.25,20.5055,21.5757,142.427,104.565,104.293,0.000366009,0.0425308,21.0033,574.16,0.0235088,0.0,0.0
441,110,20.0494,21.8495,146.562,104.586,104.553,0.000470792,0.0425182,21.0032,574.17,0.00286353,0.0,0.0
448,111.75,20.4083,21.8904,145.638,104.606,104.732,0.00057816,0.0425107,21.0032,574.14,-0.0108467,0.0,0.0
455,113.5,20.3831,21.8303,145.073,104.619,104.648,0.000586485,0.042497,21.0031,574.11,-0.00258291,0.0,0.0
462,115.25,20.859,21.7801,148.448,104.63,104.611,0.000594402,0.0425916,21.0031,574.12,0.00170141,0.0,0.0
469,117,19.6007,20.9529,147.716,104.603,104.463,0.000585959,0.0427088,21.0034,574.1,0.0121067,0.0,0.0
476,118.75,20.0118,21.3424,143.328,104.589,104.78,0.00048599,0.0434629,21.0036,574.11,-0.016451,0.0,0.0
483,120.5,20.011,21.1667,146.753,104.592,104.467,0.000332279,0.045387,21.0022,574.13,0.0107928,0.0,0.0
490,122.25,19.921,20.6907,145.343,104.595,104.86,0.000194573,0.0465073,21.0019,574.08,-0.022929,0.0,0.0
497,124,20.3963,21.5593,144.818,104.606,104.407,0.000150586,0.0464171,21.0025,574.14,0.0171988,0.0,0.0
504,125.75,20.2746,20.6943,146.472,104.609,104.312,0.000112016,0.0458527,21.0029,574.1,0.0257306,0.0,0.0
511,127.5,20.1461,21.1147,143.388,104.625,104.532,1.32222e-05,0.0453172,21.0035,574.09,0.00811169,0.0,0.0
518,129.25,20.4714,21.4246,146.516,104.639,104.138,-4.52626e-05,0.0446998,21.0037,574.11,0.0434032,0.0,0.0
525,131,19.9187,21.0548,143.456,104.632,104.623,1.05513e-05,0.0440693,21.0039,574.11,0.000724592,0.0,0.0
532,132.75,20.1048,21.0644,145.143,104.629,104.545,0.000107484,0.0436096,21.0039,574.09,0.00727563,0.0,0.0
539,134.5,20.4538,21.5803,144.571,104.66,104.338,0.000144531,0.0432248,21.0039,574.1,0.0278539,0.0,0.0
546,136.25,19.9989,20.9555,145.887,104.652,104.69,0.000134021,0.0430919,21.0046,574.13,-0.00328296,0.0,0.0
553,138,20.2372,21.2878,142.747,104.649,104.56,0.000153875,0.0429408,21.0055,574.13,0.00774,0.0,0.0
560,139.75,20.4963,21.3933,141.461,104.635,104.659,0.000180071,0.0428919,21.0059,574.15,-0.00207975,0.0,0.0
567,141.5,20.1509,21.2883,146.113,104.648,104.724,0.000167712,0.0429162,21.0058,574.16,-0.00658545,0.0,0.0
574,143.25,20.4446,21.1532,144.282,104.655,104.633,0.000156059,0.0428396,21.0058,574.18,0.00185126,0.0,0.0
581,145,20.0386,21.1366,143.577,104.649,104.638,0.000122088,0.0428177,21.0051,574.17,0.00101032,0.0,0.0
588,146.75,20.0374,21.2038,144.382,104.65,104.763,7.28417e-05,0.0428146,21.0042,574.21,-0.00977742,0.0,0.0
595,148.5,19.9936,20.97,147.132,104.647,104.468,,0.0427309,,574.17,0.015496,0.0,0.0
602,150.25,20.1975,20.4607,142.409,104.652,104.516,,0.0426387,,574.17,0.0117082,0.0,0.0
609,152,19.69,21.1304,147.74,104.652,104.483,,,,574.14,0.0146466,0.0,0.0
616,153.75,20.2211,21.1365,146.078,104.647,104.072,,,,574.16,0.0497668,0.0,0.0
623,155.5,20.0967,20.9468,143.25,104.621,104.51,,,,574.15,0.00960583,0.0,0.0
630,157.25,19.7689,20.8975,144.862,104.647,104.638,,,,574.14,0.000787129,0.0,0.0
637,159,19.5559,20.4444,143.895,104.646,104.48,,,,574.14,0.0143775,0.0,0.0

File: Hemp_Sheet_Cone_HF25Scan_220524_R3.csv
Names,Time,Stack TC,Smoke TC,Exh Press,Smoke Comp,Smoke Meas,CO Meter,CO2 Meter,O2 Meter,Sample Mass,Ext Coeff,Start Test,Flame Verif
Chan Gain,,500,500,1,1,1,1,1,1,1,1,1.0,1.0
Offset,,0,0,0.139323,0,0,0,0,0,0,0,0.0,0.0
Gain,,1,1,25.011,13.8491,15.2622,1,1,1,1.00087,1.03118,1.0,1.0
Units,sec,C,C,Pa,%,%,%,%,%,g,/m,,
Baseline,,24.0041,24.7222,145.874,104.878,104.658,0.000285402,0.0434353,21.0017,-452.392,0.0190202,,
7,1.5,21.5903,22.2694,144.576,105.261,105.262,0.000357848,0.0491307,20.9949,564.371,-7.87166e-05,0.0,0.0
14,3.25,21.574,22.5623,145.68,105.299,105.191,0.000379347,0.0496685,20.9949,564.311,0.00931823,0.0,0.0
21,5,22.1979,22.7779,151.049,105.346,105.224,0.000397685,0.0502223,20.9949,564.341,0.0105041,0.0,0.0
28,6.75,21.7345,22.5843,145.173,105.377,104.911,0.000379348,0.0500728,20.9949,564.331,0.0401359,0.0,0.0
35,8.5,22.3382,22.8726,144.201,105.413,104.32,0.000355056,0.0495221,20.9949,564.331,0.094324,0.0,0.0
42,10.25,22.3492,23.0509,143.879,105.446,104.394,0.000456724,0.0493576,20.9937,564.261,0.090694,0.0,0.0
49,12,22.6554,22.9979,146.364,105.45,103.804,0.000667861,0.0520589,20.9889,564.251,0.142333,0.0,0.0
56,13.75,22.5756,23.0596,138.448,105.453,106.542,0.00089177,0.075394,20.9662,564.101,-0.0929258,0.0,1.0
63,15.5,22.851,23.2086,136.312,105.468,107.759,0.00109449,0.141788,20.8812,564.121,-0.194363,0.0,1.0
70,17.25,24.0802,23.7091,128.736,105.474,110.568,0.00135533,0.231716,20.7708,563.671,-0.426629,0.0,1.0
77,19,24.6463,23.1989,128.215,105.466,109.159,0.00161582,0.324014,20.6809,563.521,-0.311388,0.0,0.0
84,20.75,26.317,24.8473,127.348,105.458,110.528,0.00190424,0.377842,20.6381,563.3,-0.424729,0.0,0.0
91,22.5,28.7314,26.2118,135.07,105.456,107.805,0.00201485,0.378843,20.6388,563.18,-0.199209,0.0,0.0
98,24.25,29.8397,27.2228,132.333,105.455,106.903,0.00222312,0.333121,20.6883,563.1,-0.123379,0.0,0.0
105,26,30.1985,27.8762,140.807,105.428,107.039,0.00264784,0.280173,20.7363,562.98,-0.13716,0.0,0.0
112,27.75,29.7079,27.875,142.028,105.415,106.281,0.0034405,0.233403,20.7793,562.92,-0.0740171,0.0,0.0
119,29.5,29.9146,28.9246,141.063,105.392,105.947,0.00457158,0.198052,20.8269,562.88,-0.0474722,0.0,0.0
126,31.25,29.7283,28.2406,143.496,105.368,105.799,0.00569763,0.164876,20.8646,562.89,-0.0369258,0.0,0.0
133,33,29.1397,28.8101,140.674,105.341,105.668,0.00650233,0.139715,20.8904,562.88,-0.0279713,0.0,0.0
140,34.75,29.2988,28.8346,144.71,105.319,105.444,0.00704275,0.119524,20.9116,562.85,-0.0108132,0.0,0.0
147,36.5,28.6388,28.3726,145.739,105.27,105.222,0.00726281,0.104204,20.9288,562.85,0.00413004,0.0,0.0
154,38.25,27.2653,27.3061,143.285,105.213,105.267,0.00730878,0.0929441,20.944,562.87,-0.00458018,0.0,0.0
161,40,26.3216,26.8845,139.675,105.181,105.047,0.00729978,0.0854136,20.9531,562.88,0.0115671,0.0,0.0
168,41.75,26.0331,25.6606,143.573,105.132,104.992,0.00714225,0.0805431,20.9587,562.86,0.012084,0.0,0.0
175,43.5,25.8338,26.5273,145.028,105.076,105.182,0.00677183,0.0769814,20.9613,562.84,-0.00907418,0.0,0.0
182,45.25,25.8574,26.7612,143.905,105.005,105.105,0.00630866,0.0736299,20.9641,562.84,-0.00865322,0.0,0.0
189,47,25.8416,25.5659,142.204,104.954,104.737,0.00580169,0.0691594,20.9685,562.85,0.0187033,0.0,0.0
196,48.75,25.7222,26.3325,144.376,104.902,104.991,0.0049661,0.0645664,20.9736,562.84,-0.00767863,0.0,0.0
203,50.5,25.1446,26.4291,142.934,104.931,105.245,0.00402013,0.0600651,20.9812,562.85,-0.0270806,0.0,0.0
210,52.25,25.0067,25.6235,142.012,104.953,104.642,0.0031484,0.0555709,20.9887,562.84,0.0268767,0.0,0.0
217,54,24.6349,25.7883,142.544,104.979,105.009,0.00249568,0.0518876,20.9934,562.87,-0.00265032,0.0,0.0
224,55.75,24.5885,25.2858,145.614,105.016,104.961,0.00205966,0.0493377,20.9972,562.88,0.00472713,0.0,0.0
231,57.5,24.1377,24.8853,144.805,105.036,104.78,0.00169336,0.0473904,20.9999,562.85,0.022102,0.0,0.0
238,59.25,23.6194,25.5801,142.447,105.048,104.948,0.00132049,0.0458525,21.0028,562.86,0.00858139,0.0,0.0
245,61,23.6693,25.0373,149.096,105.074,104.923,0.00106448,0.044703,21.0043,562.81,0.0130015,0.0,0.0
252,62.75,23.9077,24.7297,142.834,105.114,104.912,0.00082282,0.0439009,21.005,562.84,0.0174625,0.0,0.0
259,64.5,23.304,25.1394,143.657,105.147,105.367,0.000623371,0.0432358,21.0054,562.84,-0.0188911,0.0,0.0
266,66.25,23.3384,24.7386,144.897,105.164,105.062,0.000542805,0.0427804,21.0061,562.81,0.00875483,0.0,0.0
273,68,22.8371,24.605,143.475,105.193,105.044,0.000558107,0.0425598,21.007,562.83,0.0127861,0.0,0.0
280,69.75,22.6013,24.594,145.402,105.23,105.077,0.000549122,0.0423025,21.0064,562.8,0.0131802,0.0,0.0
287,71.5,22.8198,24.3253,143.339,105.255,105.202,0.000454351,0.042124,21.0062,562.81,0.00454391,0.0,0.0
294,73.25,22.6836,24.4214,145.467,105.285,105.368,0.000330419,0.042013,21.006,562.83,-0.00708616,0.0,0.0
301,75,21.8703,24.3329,144.169,105.316,105.555,0.000276629,0.0417227,21.0052,562.82,-0.0205321,0.0,0.0
308,76.75,22.4083,24.0783,146.876,105.354,104.908,0.000305695,0.0416085,21.0044,562.79,0.0383816,0.0,0.0
315,78.5,23.0578,24.2037,143.534,105.399,105.437,0.000331003,0.0416032,21.0035,562.78,-0.00323927,0.0,0.0
322,80.25,22.4914,23.9808,145.713,105.425,105.456,0.000365785,0.0416051,21.0036,562.79,-0.00270533,0.0,0.0
329,82,22.2764,23.4412,144.602,105.449,105.434,0.000421548,0.0416624,21.0043,562.82,0.00127555,0.0,0.0
336,83.75,22.0094,23.6314,144.543,105.472,105.295,0.000433665,0.0415746,21.0047,562.81,0.0151128,0.0,0.0
343,85.5,22.3969,23.1214,140.142,105.496,105.291,0.000417276,0.0414724,21.0049,562.84,0.017611,0.0,0.0
350,87.25,22.5777,23.2155,143.396,105.537,105.343,0.000414246,0.0413919,21.005,562.86,0.0166843,0.0,0.0
357,89,22.157,23.334,141.056,105.568,105.457,0.000400522,0.0414184,21.0052,562.8,0.00957567,0.0,0.0
364,90.75,21.3366,23.3769,147.674,105.577,105.52,0.000330866,0.0414235,21.0055,562.74,0.00486401,0.0,0.0
371,92.5,21.7196,23.3829,142.646,105.603,105.584,0.000246752,0.0414259,21.0056,562.8,0.00167984,0.0,0.0
378,94.25,21.7536,23.1436,146.18,105.64,105.433,0.000191942,0.0413905,21.0057,562.78,0.0176917,0.0,0.0
385,96,21.7366,23.2648,147.751,105.669,105.205,0.000150393,0.0413599,21.0057,562.81,0.03983,0.0,0.0
392,97.75,22.103,23.3256,143.621,105.671,105.607,0.00012566,0.0413444,21.0057,562.82,0.00551601,0.0,0.0
399,99.5,21.6319,22.9628,145.936,105.701,105.791,0.000135009,0.0413132,21.0051,562.76,-0.00766353,0.0,0.0
406,101.25,21.9489,23.1125,148.677,105.706,105.845,0.000145143,0.0413571,21.0042,562.77,-0.0119204,0.0,0.0
413,103,21.6898,22.5939,146.734,105.732,105.447,0.000179271,0.0414434,21.0038,562.81,0.0244144,0.0,0.0
420,104.75,21.3881,22.5552,144.282,105.731,105.939,0.000192074,0.0414218,21.0036,562.83,-0.0177879,0.0,0.0
427,106.5,21.2472,22.2003,146.932,105.723,105.68,0.000128944,0.041437,21.0035,562.8,0.0037043,0.0,0.0
434,108.25,21.6712,22.5859,147.16,105.736,105.522,9.99534e-05,0.0414143,21.0035,562.81,0.0183137,0.0,0.0
441,110,21.4608,22.8921,144.485,105.755,105.441,0.000131516,0.0414751,21.0036,562.79,0.0268896,0.0,0.0
448,111.75,21.2582,22.702,148.56,105.765,105.861,0.000218814,0.0413919,21.0036,562.8,-0.00821178,0.0,0.0
455,113.5,21.4838,22.4656,143.107,105.759,105.503,0.000272263,0.0412827,21.0035,562.83,0.0219385,0.0,0.0
462,115.25,21.2012,22.4171,143.773,105.755,105.476,0.000232053,0.041285,21.0035,562.84,0.0239304,0.0,0.0
469,117,21.6645,22.5596,145.993,105.767,105.719,0.000144499,0.0412997,21.0034,562.82,0.00407615,0.0,0.0
476,118.75,21.4921,22.8855,146.525,105.787,105.896,9.84405e-05,0.0413041,21.0034,562.85,-0.0093559,0.0,0.0
483,120.5,21.7536,22.0394,145.3,105.774,105.572,0.000117431,0.0412094,21.0034,562.81,0.0172558,0.0,0.0
490,122.25,21.5267,22.1286,141.963,105.754,105.689,0.000179538,0.041122,21.0034,562.8,0.00558605,0.0,0.0
497,124,20.9521,22.3293,145.485,105.756,106.006,0.000270151,0.041112,21.0034,562.79,-0.0213789,0.0,0.0
504,125.75,20.9978,22.9142,151.65,105.764,105.931,0.000371376,0.0411877,21.0034,562.84,-0.0143275,0.0,0.0
511,127.5,21.4084,22.4343,148.796,105.761,105.744,0.000348096,0.0413294,21.0034,562.82,0.00149441,0.0,0.0
518,129.25,20.8753,22.2783,146.724,105.756,105.507,0.000249643,0.041383,21.0034,562.84,0.0213264,0.0,0.0
525,131,21.3926,22.4899,146.004,105.747,105.63,0.000173993,0.041446,21.0032,562.84,0.00995483,0.0,0.0
532,132.75,21.0606,22.3298,140.942,105.76,106.204,0.000208575,0.0415241,21.0029,562.85,-0.0379295,0.0,0.0
539,134.5,21.4144,22.4599,143.935,105.753,105.684,0.000286901,0.0415317,21.0044,562.81,0.00583606,0.0,0.0
546,136.25,21.5295,21.8228,143.835,105.752,105.782,0.000315657,0.0414947,21.0044,562.88,-0.0025279,0.0,0.0
553,138,20.7275,22.0182,146.547,105.749,105.812,0.000299153,0.0415449,21.0044,562.85,-0.00533001,0.0,0.0
560,139.75,21.1261,22.1658,142.97,105.753,106.016,0.000246087,0.0415707,21.005,562.84,-0.0224274,0.0,0.0
567,141.5,21.4013,22.4818,145.434,105.755,105.544,0.000193239,0.0416007,21.006,562.85,0.0180996,0.0,0.0
574,143.25,21.2862,22.2498,146.878,105.754,105.662,0.000136036,0.0416794,21.0056,562.84,0.00785851,0.0,0.0
581,145,20.634,22.1452,145.588,105.761,105.973,6.70094e-05,0.0416801,21.0054,562.87,-0.0180834,0.0,0.0
588,146.75,21.2111,21.9499,141.941,105.739,105.78,,0.0417497,,562.86,-0.00356558,0.0,0.0
595,148.5,21.0387,22.1454,144.845,105.73,105.689,,0.04183,,562.87,0.00352106,0.0,0.0
602,150.25,20.9094,21.9767,143.212,105.732,105.808,,,,562.88,-0.00645758,0.0,0.0
609,152,20.8329,22.3196,142.369,105.731,105.479,,,,562.85,0.0215533,0.0,0.0
616,153.75,21.5182,22.0396,143.112,105.71,105.719,,,,562.86,-0.000765629,0.0,0.0
623,155.5,20.9395,22.0782,147.128,105.7,105.714,,,,562.83,-0.00119862,0.0,0.0
630,157.25,21.4977,22.1998,146.732,105.696,105.299,,,,562.87,0.034019,0.0,0.0

File: Hemp_Sheet_Cone_HF50Scalar_220524_R1.csv
LABORATORY,FSRI
TEST IDENT,Hemp_Sheet_50_1
OPERATOR,Dow
MATERIAL,Hemp Sheet
ORIENTATION,Horizontal
HEAT FLUX,50
SURF AREA,0.00884
C FACTOR,0.0417695
SPEC HOLDER DIFF,-566
SPECIMEN MASS,1.76
SCAN TIME,0.25
O2 DELAY TIME,11
CO DELAY TIME,11
CO2 DELAY TIME,8
FLOW FACTOR,1
SCAN COUNT,572
TIME TO IGN,4.75
END OF TEST SCAN,92
END OF TEST TIME,23
TEST STATUS,1
PRE TEST CMT,Dimensions: 100 x 102 x 0.32 mm; with frame; with calcium silicate substrate

File: Hemp_Sheet_Cone_HF75Scalar_220524_R2.csv
LABORATORY,FSRI
TEST IDENT,Hemp_Sheet_75_2
OPERATOR,Dow
MATERIAL,Hemp Sheet
ORIENTATION,Horizontal
HEAT FLUX,75
SURF AREA,0.00884
C FACTOR,0.0417695
SPEC HOLDER DIFF,-566
SPECIMEN MASS,1.7
SCAN TIME,0.25
O2 DELAY TIME,11
CO DELAY TIME,11
CO2 DELAY TIME,8
FLOW FACTOR,1
SCAN COUNT,558
TIME TO IGN,3
END OF TEST SCAN,78
END OF TEST TIME,19.5
TEST STATUS,1
PRE TEST CMT,Dimensions: 102 x 99 x 0.34 mm; with frame; with calcium silicate substrate

File: Hemp_Sheet_Cone_HF75Scalar_220524_R3.csv
LABORATORY,FSRI
TEST IDENT,Hemp_Sheet_75_3
OPERATOR,Dow
MATERIAL,Hemp Sheet
ORIENTATION,Horizontal
HEAT FLUX,75
SURF AREA,0.00884
C FACTOR,0.0417695
SPEC HOLDER DIFF,-566
SPECIMEN MASS,1.73
SCAN TIME,0.25
O2 DELAY TIME,11
CO DELAY TIME,11
CO2 DELAY TIME,8
FLOW FACTOR,1
SCAN COUNT,557
TIME TO IGN,2.5
END OF TEST SCAN,77
END OF TEST TIME,19.25
TEST STATUS,1
PRE TEST CMT,Dimensions: 103 x 102 x 0.33 mm; with frame; with calcium silicate substrate