Folder: fsri_materials_database/01_Data/Ext_Plywood/STA/N2/10K_min (part 2)

File: Ext_Plywood_STA_N2_10KData_22253_R3.csv
##Temp./°C,Time/min,Mass loss(subtr.)/mg,DSC(subtr.2)/(mW/mg),Integral(DSC (subtr.2), 2, 199.3..406.4°C)/%,DTG(subtr.)/(mg/min),Sensit./(uV/mW)
49.699,10.01,-0.02677,0.02365368,            ,0.0,1.07516,,
54.899,11.61386,-0.02579426,0.17416,            ,-0.002014668,1.07245,,
60.099,12.25137,-0.02938493,0.22946,            ,-0.004015047,1.06974,,
65.299,12.8309,-0.03121609,0.26071,            ,-0.02087457,1.06704,,
70.499,13.39221,-0.03356093,0.28543,            ,0.002470264,1.06435,,
75.699,13.94051,-0.04074999,0.31106,            ,-0.03934412,1.06165,,
80.899,14.47954,-0.04047788,0.32907,            ,-0.0213283,1.05897,,
86.099,15.00963,-0.04507798,0.33989,            ,-0.01583676,1.05628,,
91.299,15.5313,-0.04730551,0.34394,            ,0.009582914,1.05361,,
96.499,16.0477,-0.05077886,0.33739,            ,0.01124729,1.05093,,
101.699,16.56056,-0.05247872,0.32662,            ,-0.02336828,1.04826,,
106.899,17.0708,-0.05476744,0.31221,            ,-0.02269943,1.0456,,
112.099,17.57902,-0.05606,0.30252,            ,4.700566e-10,1.04293,,
117.299,18.08705,-0.05737083,0.29634,            ,0.00154444,1.04028,,
122.499,18.59423,-0.05473974,0.29544,            ,0.0007682373,1.03762,,
127.699,19.10068,-0.05606003,0.29746,            ,0.003599732,1.03497,,
132.899,19.6051,-0.05700374,0.30533,            ,-0.02400134,1.03232,,
138.099,20.1062,-0.05715037,0.31089,            ,-0.0007752461,1.02968,,
143.299,20.6068,-0.05682,0.3129,            ,-4.489374e-07,1.02704,,
148.499,21.10655,-0.05913,0.32169,            ,-0.000389438,1.0244,,
153.699,21.60594,-0.06045355,0.32723,            ,0.02101102,1.02177,,
158.899,22.10727,-0.05951188,0.33158,            ,0.01619508,1.01914,,
164.099,22.60697,-0.06120726,0.34466,            ,0.004669452,1.01651,,
169.299,23.10642,-0.06153949,0.34744,            ,-0.00113582,1.01388,,
174.499,23.60517,-0.06476257,0.35908,            ,-0.01129055,1.01126,,
179.699,24.10285,-0.06812667,0.36886,            ,-0.00900185,1.00864,,
184.899,24.5989,-0.07229291,0.37811,            ,0.01000065,1.00601,,
190.099,25.09423,-0.07493737,0.38625,            ,-0.01814145,1.00339,,
195.299,25.59018,-0.08040994,0.39223,            ,0.01374689,1.00077,,
200.499,26.0866,-0.08603668,0.3959,1.353481e-02,-0.008773935,0.99815,,
205.699,26.5827,-0.09252807,0.39629,     0.22023,-0.02077246,0.99553,,
210.899,27.07798,-0.10179,0.39861,     0.63330,-0.01035046,0.99291,,
216.099,27.57415,-0.11268,0.39563,     1.17030,-0.006108263,0.99029,,
221.299,28.0706,-0.12705,0.40162,     1.91951,-0.04127456,0.98767,,
226.499,28.56611,-0.13821,0.4034,     2.89161,-0.03425333,0.98505,,
231.699,29.0631,-0.1571,0.40918,     4.11990,-0.03040772,0.98242,,
236.899,29.5587,-0.17213,0.41268,     5.56218,-0.01809967,0.9798,,
242.099,30.0557,-0.19554,0.4127,     7.21260,-0.03943165,0.97717,,
247.299,30.55272,-0.21611,0.41378,     9.07966,-0.03060647,0.97454,,
252.499,31.04962,-0.23832,0.41175,    11.10641,-0.05817177,0.9719,,
257.699,31.5469,-0.26431,0.41264,    13.27437,-0.05136461,0.96926,,
262.899,32.04209,-0.29698,0.4108,    15.57860,-0.08381299,0.96662,,
268.099,32.53823,-0.33367,0.40977,    18.04838,-0.05091365,0.96397,,
273.299,33.03416,-0.37494,0.40346,    20.60652,-0.09002534,0.96132,,
278.499,33.53219,-0.42708,0.39836,    23.27121,-0.12718,0.95866,,
283.699,34.03069,-0.49015,0.39466,    26.03919,-0.12172,0.95599,,
288.899,34.5295,-0.55886,0.39479,    28.94821,-0.17609,0.95332,,
294.099,35.02921,-0.63952,0.39846,    32.07579,-0.17763,0.95065,,
299.299,35.52787,-0.72932,0.40452,    35.44405,-0.17582,0.94796,,
304.499,36.02653,-0.832,0.41419,    39.10647,-0.22746,0.94527,,
309.699,36.52517,-0.94664,0.42209,    43.07989,-0.25069,0.94257,,
314.899,37.02347,-1.06739,0.42701,    47.36595,-0.29218,0.93986,,
320.099,37.52352,-1.2063,0.43202,    51.89812,-0.27295,0.93714,,
325.299,38.02368,-1.35215,0.43438,    56.61390,-0.29907,0.93441,,
330.499,38.5259,-1.51002,0.43924,    61.62550,-0.32612,0.93167,,
335.699,39.02828,-1.67579,0.4469,    66.91082,-0.34091,0.92893,,
340.899,39.53087,-1.84207,0.4399,    72.38685,-0.30761,0.92617,,
346.099,40.0332,-2.00502,0.41328,    77.78099,-0.31684,0.9234,,
351.299,40.53536,-2.15861,0.37211,    82.76920,-0.28782,0.92061,,
356.499,41.03642,-2.29062,0.30899,    87.02693,-0.24194,0.91782,,
361.699,41.5389,-2.39702,0.23574,    90.28745,-0.19511,0.91501,,
366.899,42.0426,-2.47449,0.17612,    92.59849,-0.12715,0.91219,,
372.099,42.54691,-2.52917,0.13831,    94.25639,-0.08769388,0.90935,,
377.299,43.04894,-2.56532,0.12394,    95.67395,-0.07424543,0.90651,,
382.499,43.54822,-2.59076,0.11161,    97.06188,-0.03258951,0.90364,,
387.699,44.05087,-2.61328,0.08461914,    98.28689,-0.01179937,0.90076,,
392.899,44.55573,-2.63431,0.05548824,    99.21526,-0.04015315,0.89787,,
398.099,45.06269,-2.65354,0.02181141,    99.75875,-0.01600027,0.89496,,
403.299,45.5696,-2.67481,-0.001706291,    99.97445,-0.02730558,0.89203,,
408.499,46.07745,-2.69392,-0.02354758,            ,-0.01522537,0.88909,,
413.699,46.5854,-2.71259,-0.02943858,            ,-0.04291519,0.88613,,
418.899,47.09393,-2.73443,-0.0271018,            ,-0.00943612,0.88315,,
424.099,47.60248,-2.75004,-0.02466192,            ,-0.0385266,0.88016,,
429.299,48.1123,-2.76658,-0.02131867,            ,-0.04252335,0.87714,,
434.499,48.62316,-2.78195,-0.01550376,            ,-0.02993691,0.87411,,
439.699,49.13588,-2.79419,-0.006827045,            ,-0.03956791,0.87106,,
444.899,49.6485,-2.81192,0.007456205,            ,-0.0136315,0.86799,,
450.099,50.1592,-2.82298,0.01253811,            ,-0.02885086,0.86489,,
455.299,50.67002,-2.83528,0.02295283,            ,-0.008205961,0.86178,,
460.499,51.18175,-2.84734,0.0281225,            ,-0.02757144,0.85865,,
465.699,51.69405,-2.85677,0.03574797,            ,-0.02445816,0.8555,,
470.899,52.20883,-2.8659,0.03526172,            ,-0.02209894,0.85233,,
476.099,52.72283,-2.87662,0.03940561,            ,-0.03196351,0.84913,,
481.299,53.23715,-2.88523,0.03951473,            ,-0.02409756,0.84591,,
486.499,53.7516,-2.89255,0.04424012,            ,-0.02679249,0.84267,,
491.699,54.26566,-2.89977,0.04510211,            ,-0.02333226,0.83941,,
496.899,54.78,-2.90977,0.04574493,            ,-0.07659665,0.83613,,
502.099,55.29515,-2.91481,0.04578938,            ,-0.014463,0.83282,,
507.299,55.8101,-2.9227,0.04883897,            ,-0.01761367,0.82949,,
512.499,56.3245,-2.92938,0.08405131,            ,-0.01298179,0.82614,,
517.699,56.8406,-2.93431,0.09839995,            ,-0.01662973,0.82276,,
522.899,57.3568,-2.94089,0.11084,            ,-0.008718449,0.81936,,
528.099,57.874,-2.94978,0.11837,            ,-0.02437938,0.81594,,
533.299,58.39365,-2.95473,0.12341,            ,-0.01364401,0.81249,,
538.499,58.913,-2.95868,0.10331,            ,-0.002042623,0.80901,,
543.699,59.43231,-2.96455,0.07313705,            ,0.02105699,0.80552,,
548.899,59.951,-2.97118,0.06512866,            ,-0.000973522,0.80199,,
554.099,60.4707,-2.97512,0.06455155,            ,-0.01775862,0.79845,,
559.299,60.9907,-2.97908,0.06629028,            ,-0.02350692,0.79488,,
564.499,61.5104,-2.98268,0.06254323,            ,0.02224686,0.79128,,
569.699,62.0315,-2.98599,0.06198735,            ,0.01146876,0.78766,,
574.899,62.5529,-2.9927,0.0578232,            ,-0.02334753,0.78401,,
580.099,63.07431,-2.99619,0.06204735,            ,-2.06582e-06,0.78034,,
585.299,63.59593,-3.00014,0.06485017,            ,0.001058117,0.77664,,
590.499,64.11723,-3.00409,0.07129902,            ,-0.00756777,0.77292,,
595.699,64.6386,-3.00773,0.08443944,            ,0.01081674,0.76917,,
600.899,65.15972,-3.01098,0.10604,            ,-0.02237659,0.7654,,
606.099,65.6821,-3.01494,0.12452,            ,-9.16219e-07,0.7616,,
611.299,66.20404,-3.01889,0.12265,            ,0.00281749,0.75778,,
616.499,66.72589,-3.02085,0.12133,            ,-0.00609592,0.75393,,
621.699,67.24863,-3.02515,0.12797,            ,-0.02755923,0.75006,,
626.899,67.77284,-3.02728,0.132,            ,-0.02085084,0.74616,,
632.099,68.29605,-3.02994,0.13081,            ,-0.02124951,0.74224,,
637.299,68.8194,-3.03349,0.1321,            ,1.577644e-05,0.73829,,
642.499,69.342,-3.03594,0.13493,            ,-0.03397772,0.73432,,
647.699,69.8651,-3.03871,0.13534,            ,0.0001904167,0.73032,,
652.899,70.39059,-3.0404,0.13649,            ,4.323832e-06,0.7263,,
658.099,70.91569,-3.0414,0.13726,            ,0.01395202,0.72226,,
663.299,71.43966,-3.04368,0.13752,            ,0.0001401075,0.71819,,
668.499,71.9636,-3.04598,0.14237,            ,-4.34141e-07,0.71409,,
673.699,72.48817,-3.04829,0.13729,            ,4.26019e-14,0.70998,,
678.899,73.01171,-3.05073,0.13961,            ,-0.02472812,0.70584,,
684.099,73.53729,-3.05388,0.13772,            ,-0.00387786,0.70167,,
689.299,74.0646,-3.05488,0.13528,            ,-0.01534819,0.69749,,
694.499,74.59093,-3.05783,0.13359,            ,2.494514e-08,0.69328,,
699.699,75.11667,-3.05652,0.13597,            ,-0.002884705,0.68904,,
704.899,75.64277,-3.06079,0.13011,            ,-0.0005989536,0.68479,,
710.099,76.16811,-3.06212,0.12825,            ,-0.00125001,0.68052,,
715.299,76.69435,-3.06342,0.12458,            ,-0.00177982,0.67622,,
720.499,77.22125,-3.06604,0.11303,            ,-0.00272753,0.6719,,
725.699,77.74969,-3.06507,0.10957,            ,-0.01596937,0.66756,,
730.899,78.27673,-3.07176,0.10451,            ,-0.001476765,0.6632,,
736.099,78.80368,-3.07045,0.09740058,            ,-7.06698e-09,0.65882,,
741.299,79.33019,-3.07308,0.09298591,            ,0.005152568,0.65442,,
746.499,79.85825,-3.0734,0.08863517,            ,-3.24352e-05,0.65,,
751.699,80.3867,-3.07572,0.08543635,            ,-0.00558099,0.64556,,
756.899,80.91685,-3.07538,0.08024838,            ,-1.79556e-07,0.64111,,
762.099,81.44516,-3.07787,0.07775142,            ,0.01183398,0.63663,,
767.299,81.9724,-3.07868,0.0778443,            ,-0.01145812,0.63214,,
772.499,82.5004,-3.08131,0.07252443,            ,-0.00398456,0.62763,,
777.699,83.02808,-3.0813,0.06501064,            ,4.103341e-06,0.6231,,
782.899,83.55671,-3.08451,0.06517343,            ,-0.01462638,0.61856,,
788.099,84.086,-3.08394,0.06425954,            ,-0.000795478,0.614,,
793.299,84.61578,-3.08887,0.06857944,            ,-0.009459359,0.60942,,
796.999,84.99271,-3.08854,0.06783821,            ,0.00749659,0.60616,,