Folder: fsri_materials_database/01_Data/Ext_Plywood/STA/N2/30K_min (part 2)

File: Ext_Plywood_STA_N2_30KData_22253_R3.csv
##Temp./°C,Time/min,Mass loss(subtr.2)/mg,DSC(subtr.2)/(mW/mg),Integral(DSC (subtr.2), 2, 175.8..427.3°C)/%,DTG(subtr.2)/(mg/min),Sensit./(uV/mW)
48.688,10.00917,-0.03937,0.02774647,            ,-0.05149187,1.08898,,
53.888,11.02885,-0.0412301,0.24532,            ,0.03703051,1.08461,,
59.088,11.327,-0.04432254,0.38478,            ,0.04700288,1.08029,,
64.288,11.56519,-0.04209584,0.496,            ,0.004832083,1.07601,,
69.488,11.77696,-0.04371431,0.5857,            ,0.00599935,1.07178,,
74.688,11.9763,-0.04584842,0.66661,            ,-0.01244095,1.0676,,
79.888,12.1669,-0.04831232,0.74299,            ,-0.01674177,1.06346,,
85.088,12.35212,-0.04824529,0.81322,            ,0.02126895,1.05937,,
90.288,12.53307,-0.05145156,0.87279,            ,-0.03241861,1.05532,,
95.488,12.71108,-0.05486715,0.92223,            ,-0.01357795,1.05132,,
100.688,12.88723,-0.05925527,0.95911,            ,-0.03210257,1.04737,,
105.888,13.062,-0.06317408,0.97151,            ,-0.00286966,1.04346,,
111.088,13.23618,-0.06611199,0.96896,            ,-0.04163004,1.0396,,
116.288,13.40962,-0.06699948,0.95251,            ,0.01243148,1.03578,,
121.488,13.5819,-0.06734003,0.9247,            ,-2.45543e-05,1.032,,
126.688,13.7529,-0.07195126,0.90518,            ,-0.0321393,1.02827,,
131.888,13.92249,-0.07193286,0.88829,            ,0.01323395,1.02459,,
137.088,14.09096,-0.07064004,0.88536,            ,0.00189257,1.02094,,
142.288,14.25806,-0.07292506,0.88818,            ,-0.02622397,1.01734,,
147.488,14.42419,-0.07293717,0.89915,            ,0.005403515,1.01378,,
152.688,14.5895,-0.07523709,0.91371,            ,-0.02020104,1.01026,,
157.888,14.754,-0.07787118,0.93516,            ,0.004035431,1.00679,,
163.088,14.9179,-0.07695257,0.9556,            ,0.01255218,1.00335,,
168.288,15.0814,-0.07688675,0.97969,            ,-0.01584263,0.99995,,
173.488,15.24416,-0.07747359,1.00158,0.000000e+00,0.01141978,0.99659,,
178.688,15.40616,-0.07889301,1.02457,2.992836e-02,-0.02131972,0.99327,,
183.888,15.5673,-0.08150008,1.04956,     0.23491,-0.01711382,0.98999,,
189.088,15.7278,-0.08413001,1.07379,     0.63427,-0.000215193,0.98675,,
194.288,15.88752,-0.08676827,1.09575,     1.22391,-0.02275845,0.98354,,
199.488,16.04675,-0.09073156,1.11876,     2.00243,-0.00464904,0.98036,,
204.688,16.2055,-0.0917032,1.13978,     2.96112,-0.008730579,0.97722,,
209.888,16.3641,-0.09627794,1.15401,     4.09186,-0.05746343,0.97412,,
215.088,16.52255,-0.10207,1.15919,     5.36203,0.01012565,0.97104,,
220.288,16.68071,-0.1095,1.16184,     6.73275,-0.05190389,0.968,,
225.488,16.8386,-0.11693,1.16178,     8.20025,-0.04946566,0.96499,,
230.688,16.99629,-0.12597,1.16876,     9.77346,-0.08625371,0.96201,,
235.888,17.15367,-0.13954,1.17998,    11.47238,-0.0918012,0.95906,,
241.088,17.31106,-0.15007,1.1893,    13.30333,-0.07882472,0.95614,,
246.288,17.4684,-0.16423,1.20198,    15.27822,-0.0834584,0.95325,,
251.488,17.62562,-0.18256,1.21167,    17.39744,-0.09371745,0.95038,,
256.688,17.78281,-0.19793,1.22366,    19.65301,-0.12589,0.94754,,
261.888,17.94004,-0.217,1.23083,    22.04306,-0.14629,0.94472,,
267.088,18.09721,-0.24026,1.23871,    24.55758,-0.14033,0.94192,,
272.288,18.2545,-0.26409,1.2378,    27.18001,-0.20316,0.93915,,
277.488,18.41154,-0.2926,1.23583,    29.89213,-0.15827,0.9364,,
282.688,18.569,-0.32092,1.2259,    32.68362,-0.19855,0.93367,,
287.888,18.7263,-0.3548,1.21807,    35.52778,-0.24522,0.93096,,
293.088,18.8838,-0.39654,1.20245,    38.41644,-0.28081,0.92827,,
298.288,19.04116,-0.44502,1.1808,    41.32785,-0.36324,0.92559,,
303.488,19.19869,-0.50098,1.16278,    44.25316,-0.3584,0.92293,,
308.688,19.3562,-0.56532,1.14232,    47.19058,-0.45844,0.92029,,
313.888,19.51384,-0.63997,1.13418,    50.17200,-0.49809,0.91766,,
319.088,19.67156,-0.72353,1.13659,    53.23487,-0.55926,0.91504,,
324.288,19.82941,-0.81778,1.14103,    56.41603,-0.61487,0.91244,,
329.488,19.9876,-0.92077,1.15042,    59.73066,-0.69376,0.90984,,
334.688,20.14602,-1.03433,1.1578,    63.17848,-0.75652,0.90726,,
339.888,20.30461,-1.16231,1.15992,    66.73837,-0.82976,0.90468,,
345.088,20.46332,-1.29785,1.15442,    70.38837,-0.88986,0.90211,,
350.288,20.62246,-1.44506,1.13899,    74.11173,-0.96461,0.89955,,
355.488,20.78187,-1.60256,1.11832,    77.86249,-1.00032,0.89699,,
360.688,20.94144,-1.76563,1.08171,    81.60523,-1.02867,0.89444,,
365.888,21.10128,-1.93176,1.00777,    85.22447,-0.99999,0.89189,,
371.088,21.26093,-2.0922,0.90022,    88.56819,-0.96635,0.88934,,
376.288,21.42099,-2.23571,0.7567,    91.49217,-0.84356,0.8868,,
381.488,21.58119,-2.36161,0.59863,    93.89531,-0.70898,0.88425,,
386.688,21.74165,-2.45566,0.44812,    95.76867,-0.56511,0.8817,,
391.888,21.90221,-2.53021,0.32211,    97.16774,-0.35856,0.87915,,
397.088,22.06332,-2.57807,0.21553,    98.18967,-0.22787,0.8766,,
402.288,22.22476,-2.61082,0.12804,    98.90617,-0.16673,0.87404,,
407.488,22.3865,-2.63835,0.05415243,    99.40471,-0.15207,0.87148,,
412.688,22.54842,-2.66024,-0.0070716,    99.72594,-0.11484,0.86891,,
417.888,22.71061,-2.67946,-0.0581735,    99.90580,-0.13866,0.86633,,
423.088,22.87295,-2.69692,-0.1055,    99.98379,-0.18431,0.86374,,
428.288,23.03565,-2.71856,-0.13694,   100,-0.12209,0.86115,,
433.488,23.1986,-2.73431,-0.15886,            ,-0.09417988,0.85854,,
438.688,23.36167,-2.75224,-0.16445,            ,-0.082513,0.85593,,
443.888,23.52521,-2.76888,-0.16168,            ,-0.12083,0.8533,,
449.088,23.68921,-2.788,-0.14407,            ,-0.10472,0.85065,,
454.288,23.85349,-2.80262,-0.12035,            ,-0.07401645,0.848,,
459.488,24.01821,-2.81883,-0.09034056,            ,-0.09242115,0.84532,,
464.688,24.18307,-2.83147,-0.05594524,            ,-0.08750495,0.84264,,
469.888,24.34821,-2.84289,-0.02473604,            ,-0.07665271,0.83993,,
475.088,24.51388,-2.85476,0.008107494,            ,-0.05705334,0.83721,,
480.288,24.67955,-2.86623,0.03284726,            ,-0.06452026,0.83447,,
485.488,24.8453,-2.88051,0.05418795,            ,-0.06338472,0.8317,,
490.688,25.01126,-2.88732,0.0682214,            ,-0.03650887,0.82892,,
495.888,25.17759,-2.89266,0.07903089,            ,-0.05123788,0.82612,,
501.088,25.3441,-2.90158,0.08621559,            ,-0.05539703,0.82329,,
506.288,25.51089,-2.91103,0.09360755,            ,-0.0602548,0.82044,,
511.488,25.6779,-2.91886,0.09829437,            ,-0.03761877,0.81757,,
516.688,25.8452,-2.92408,0.10137,            ,-0.03604382,0.81468,,
521.888,26.01268,-2.93298,0.10559,            ,-0.06219901,0.81176,,
527.088,26.1804,-2.94294,0.10608,            ,-0.03858345,0.80881,,
532.288,26.34875,-2.94704,0.10553,            ,-0.02881573,0.80584,,
537.488,26.5171,-2.95318,0.10867,            ,-0.05063112,0.80284,,
542.688,26.68577,-2.95993,0.11135,            ,-0.06772661,0.79981,,
547.888,26.85438,-2.96634,0.10634,            ,-0.00160841,0.79675,,
553.088,27.02328,-2.97051,0.10552,            ,-0.01314398,0.79367,,
558.288,27.19225,-2.97821,0.11179,            ,-0.04200577,0.79056,,
563.488,27.3615,-2.98443,0.13755,            ,-0.02315172,0.78741,,
568.688,27.53084,-2.98686,0.15598,            ,0.003235864,0.78424,,
573.888,27.70024,-2.99071,0.16539,            ,-0.0359976,0.78104,,
579.088,27.87015,-2.99629,0.17705,            ,-0.02982355,0.7778,,
584.288,28.0404,-3.00081,0.1759,            ,-0.02819651,0.77453,,
589.488,28.2111,-3.00567,0.16478,            ,0.009510469,0.77123,,
594.688,28.3818,-3.00858,0.16094,            ,-0.06153008,0.7679,,
599.888,28.5527,-3.01384,0.16505,            ,-0.05211633,0.76454,,
605.088,28.7237,-3.01516,0.1666,            ,0.001982239,0.76114,,
610.288,28.8947,-3.01699,0.16701,            ,-0.03184608,0.75771,,
615.488,29.06587,-3.02351,0.17457,            ,-0.02598768,0.75424,,
620.688,29.23732,-3.02693,0.17526,            ,-0.02515836,0.75074,,
625.888,29.40895,-3.02876,0.18149,            ,-0.00858184,0.74721,,
631.088,29.5807,-3.03311,0.18713,            ,-0.03438159,0.74364,,
636.288,29.75233,-3.03434,0.19373,            ,0.0005034396,0.74004,,
641.488,29.92415,-3.03983,0.2019,            ,-0.03632726,0.73641,,
646.688,30.09613,-3.04236,0.20951,            ,-0.003061131,0.73273,,
651.888,30.26802,-3.04433,0.21303,            ,-0.003735371,0.72903,,
657.088,30.44016,-3.04499,0.21492,            ,-0.02494219,0.72529,,
662.288,30.6123,-3.04891,0.22457,            ,-0.01839731,0.72151,,
667.488,30.7846,-3.05152,0.22401,            ,-0.02331358,0.7177,,
672.688,30.9569,-3.05365,0.226,            ,-0.005463959,0.71385,,
677.888,31.1294,-3.05522,0.2181,            ,-0.0296979,0.70997,,
683.088,31.30201,-3.05745,0.21657,            ,-0.01490307,0.70605,,
688.288,31.4746,-3.05998,0.21225,            ,-0.03172753,0.7021,,
693.488,31.6474,-3.06078,0.20743,            ,0.005850645,0.69811,,
698.688,31.82028,-3.06477,0.19966,            ,-0.01850088,0.69409,,
703.888,31.99328,-3.0644,0.19222,            ,0.001699344,0.69003,,
709.088,32.16664,-3.06473,0.18457,            ,-0.004915847,0.68594,,
714.288,32.33985,-3.06621,0.17925,            ,-0.06134186,0.68181,,
719.488,32.51354,-3.07142,0.17531,            ,-0.01166842,0.67766,,
724.688,32.687,-3.07285,0.16239,            ,0.01482853,0.67346,,
729.888,32.86085,-3.07289,0.155,            ,-0.02149059,0.66923,,
735.088,33.03451,-3.07524,0.14253,            ,-0.02695557,0.66497,,
740.288,33.2085,-3.07695,0.13378,            ,0.02361114,0.66068,,
745.488,33.38238,-3.07822,0.12445,            ,-0.00291046,0.65635,,
750.688,33.5565,-3.07697,0.11441,            ,0.02850099,0.652,,
755.888,33.73101,-3.08013,0.10333,            ,-0.0367332,0.64761,,
761.088,33.9054,-3.08397,0.0991698,            ,-0.01901609,0.64318,,
766.288,34.08,-3.0864,0.08994582,            ,-0.05422789,0.63873,,
771.488,34.2549,-3.08734,0.07936269,            ,-0.0174081,0.63425,,
776.688,34.4297,-3.08831,0.07370941,            ,-2.269275e-05,0.62973,,
781.888,34.60452,-3.08996,0.06482066,            ,-0.00524087,0.62519,,
787.088,34.77933,-3.09127,0.06112767,            ,-0.01547037,0.62062,,
792.288,34.95425,-3.09088,0.05444498,            ,0.002971617,0.61601,,
793.588,34.99785,-3.09128,0.0542874,            ,-0.01404938,0.61486,,