Folder: fsri_materials_database/01_Data/Ext_Plywood/STA/N2/30K_min

Note: 01_Data/README.md
# Materials and Products Database
## 01_Data

Raw data generated from each apparatus are included here in plain-text format. The data is organized first by material, next by the short name of test apparatus used, and where applicable additional filtering by test settings.

### material.json

Each material directory contains a json file of the same name as the material. This file links the data stored in the repository as well as data and graphs produced by the accompanying scripts (__02_Scripts__) to the respective landing page for the material on the front-end website.

File: Ext_Plywood_STA_N2_30KData_22253_R1.csv
##Temp./°C,Time/min,Mass loss(subtr.2)/mg,DSC(subtr.2)/(mW/mg),Integral(DSC (subtr.2), 2, 175.8..427.3°C)/%,DTG(subtr.2)/(mg/min),Sensit./(uV/mW)
48.751,10.01,0.00559,0.01328796,            ,0.0,1.08893,,
53.851,11.02426,0.00663363,0.27225,            ,0.02902417,1.08464,,
58.951,11.3184,0.005496359,0.43281,            ,-0.01257799,1.0804,,
64.051,11.5531,0.0076927,0.55807,            ,9.524497e-05,1.0762,,
69.151,11.76178,0.005139782,0.65962,            ,-0.0113682,1.07205,,
74.251,11.95771,0.004332356,0.74824,            ,0.002278731,1.06795,,
79.351,12.1447,0.00333038,0.82887,            ,-0.02292617,1.06388,,
84.451,12.32734,0.001869784,0.90108,            ,-0.01556218,1.05987,,
89.551,12.50539,-0.001010482,0.96111,            ,-0.01248975,1.05589,,
94.651,12.68038,-0.002308063,1.01029,            ,0.002268066,1.05196,,
99.751,12.8534,-0.00455598,1.04771,            ,-0.02742111,1.04808,,
104.851,13.0254,-0.007569758,1.06657,            ,-0.000718466,1.04424,,
109.951,13.19656,-0.01019309,1.06455,            ,-0.02048156,1.04044,,
115.051,13.36706,-0.01151971,1.05047,            ,0.004228264,1.03668,,
120.151,13.53694,-0.01284511,1.03369,            ,-0.0261664,1.03297,,
125.251,13.7052,-0.01682897,1.01672,            ,0.01789761,1.0293,,
130.351,13.8722,-0.01684096,1.00536,            ,-0.01290055,1.02567,,
135.451,14.03785,-0.01942295,1.00507,            ,-0.006123737,1.02208,,
140.551,14.20243,-0.01809975,1.01412,            ,-0.004006816,1.01854,,
145.651,14.36573,-0.01909738,1.02654,            ,-0.0002743789,1.01503,,
150.751,14.5281,-0.02072487,1.04788,            ,-0.01049763,1.01157,,
155.851,14.689,-0.02073,1.06737,            ,-0.0001234,1.00814,,
160.951,14.8504,-0.02204,1.0948,            ,-3.50705e-08,1.00476,,
166.051,15.0106,-0.02204,1.11937,            ,-7.882698e-09,1.00141,,
171.151,15.17044,-0.02335741,1.14744,            ,-0.005058885,0.9981,,
176.251,15.32974,-0.02468011,1.176,4.930357e-04,-0.00154194,0.99483,,
181.351,15.4878,-0.02468006,1.20067,     0.11204,-0.000180911,0.99159,,
186.451,15.6455,-0.02728175,1.22732,     0.41629,-0.02631379,0.98839,,
191.551,15.8018,-0.02831124,1.25084,     0.90703,-0.02209464,0.98522,,
196.651,15.95831,-0.03092508,1.27658,     1.58496,-0.01018475,0.98209,,
201.751,16.11424,-0.03557888,1.29647,     2.43431,-0.02482797,0.97899,,
206.851,16.26984,-0.03891736,1.31303,     3.44190,-0.03173614,0.97593,,
211.951,16.42537,-0.04405717,1.31958,     4.58280,-0.0105809,0.97289,,
217.051,16.58042,-0.04915693,1.326,     5.83988,-0.04689603,0.96989,,
222.151,16.73528,-0.05571098,1.33244,     7.20572,-0.04368262,0.96692,,
227.251,16.88981,-0.06490774,1.33864,     8.67397,-0.05826285,0.96398,,
232.351,17.0442,-0.07456328,1.34782,    10.25770,-0.07501134,0.96107,,
237.451,17.1985,-0.08560471,1.35693,    11.96409,-0.07626803,0.95818,,
242.551,17.35267,-0.09677293,1.37111,    13.80550,-0.08908233,0.95532,,
247.651,17.5068,-0.11119,1.38315,    15.78117,-0.1059,0.95249,,
252.751,17.66088,-0.12733,1.39475,    17.88641,-0.11042,0.94969,,
257.851,17.81486,-0.14546,1.40223,    20.11807,-0.12732,0.9469,,
262.951,17.96901,-0.16516,1.40866,    22.46768,-0.12868,0.94414,,
268.051,18.123,-0.18474,1.41312,    24.92268,-0.13483,0.94141,,
273.151,18.27695,-0.20792,1.41271,    27.47094,-0.16242,0.93869,,
278.251,18.43123,-0.23437,1.40998,    30.10339,-0.17227,0.936,,
283.351,18.5855,-0.26452,1.4017,    32.80427,-0.1938,0.93332,,
288.451,18.7398,-0.29865,1.39145,    35.55702,-0.2408,0.93067,,
293.551,18.8941,-0.33886,1.37497,    38.34872,-0.27353,0.92803,,
298.651,19.0484,-0.38672,1.36251,    41.16777,-0.3259,0.9254,,
303.751,19.20284,-0.44224,1.34473,    44.01700,-0.38191,0.9228,,
308.851,19.3575,-0.50913,1.33417,    46.90540,-0.44211,0.92021,,
313.951,19.51225,-0.58145,1.32961,    49.85002,-0.51404,0.91763,,
319.051,19.6671,-0.66627,1.33235,    52.88282,-0.57559,0.91506,,
324.151,19.82222,-0.75911,1.34547,    56.03969,-0.6322,0.9125,,
329.251,19.97754,-0.86291,1.35639,    59.33460,-0.70671,0.90996,,
334.351,20.1331,-0.97536,1.36764,    62.77253,-0.78316,0.90742,,
339.451,20.28901,-1.09812,1.37363,    66.33952,-0.82186,0.9049,,
344.551,20.44497,-1.23046,1.37241,    70.00776,-0.89875,0.90238,,
349.651,20.60118,-1.37492,1.3659,    73.75815,-0.94225,0.89986,,
354.751,20.7575,-1.52702,1.3441,    77.54349,-1.01466,0.89735,,
359.851,20.91403,-1.68846,1.30019,    81.30384,-1.03606,0.89485,,
364.951,21.0712,-1.85305,1.22834,    84.94672,-1.02034,0.89235,,
370.051,21.2283,-2.01034,1.11675,    88.32134,-0.97339,0.88985,,
375.151,21.38557,-2.15785,0.97346,    91.28858,-0.86292,0.88735,,
380.251,21.54306,-2.28188,0.81055,    93.74241,-0.71499,0.88486,,
385.351,21.70056,-2.3818,0.65504,    95.65506,-0.53874,0.88236,,
390.451,21.8584,-2.45639,0.51302,    97.07374,-0.41082,0.87986,,
395.551,22.01652,-2.50827,0.39989,    98.08166,-0.27581,0.87735,,
400.651,22.17481,-2.54638,0.31253,    98.79142,-0.20189,0.87485,,
405.751,22.33342,-2.57229,0.2413,    99.29203,-0.13553,0.87233,,
410.851,22.4924,-2.59326,0.18352,    99.63484,-0.11768,0.86982,,
415.951,22.65128,-2.61157,0.12973,    99.85140,-0.12409,0.86729,,
421.051,22.81097,-2.63103,0.0841198,    99.95818,-0.10413,0.86476,,
426.151,22.97048,-2.65029,0.04655992,    99.99682,-0.1073,0.86222,,
431.251,23.13018,-2.66923,0.02319755,            ,-0.12799,0.85967,,
436.351,23.29029,-2.6848,0.01361379,            ,-0.08198502,0.8571,,
441.451,23.45064,-2.7024,0.02224519,            ,-0.09783735,0.85453,,
446.551,23.61139,-2.71721,0.03298867,            ,-0.09066422,0.85195,,
451.651,23.77236,-2.73374,0.05808383,            ,-0.09589003,0.84935,,
456.751,23.93355,-2.74754,0.08921218,            ,-0.07457829,0.84673,,
461.851,24.09495,-2.76105,0.12479,            ,-0.08340927,0.84411,,
466.951,24.25682,-2.77349,0.15738,            ,-0.08595342,0.84146,,
472.051,24.41889,-2.78592,0.18717,            ,-0.08134033,0.8388,,
477.151,24.58108,-2.79582,0.21675,            ,-0.08383458,0.83612,,
482.251,24.74354,-2.80685,0.23394,            ,-0.06641853,0.83343,,
487.351,24.9058,-2.81479,0.25439,            ,-0.04727221,0.83071,,
492.451,25.06918,-2.8252,0.27106,            ,-0.08917105,0.82797,,
497.551,25.23226,-2.83366,0.28091,            ,-0.04184751,0.82522,,
502.651,25.39588,-2.84116,0.28836,            ,-0.04182485,0.82244,,
507.751,25.55949,-2.84915,0.29609,            ,-0.03886123,0.81964,,
512.851,25.72329,-2.85701,0.30306,            ,-0.04290636,0.81682,,
517.951,25.88738,-2.86295,0.3053,            ,-0.051043,0.81397,,
523.051,26.05164,-2.87013,0.30826,            ,-0.03380407,0.8111,,
528.151,26.21595,-2.87566,0.31175,            ,-0.03114956,0.8082,,
533.251,26.3806,-2.88381,0.31415,            ,-0.03128153,0.80528,,
538.351,26.54549,-2.88799,0.32171,            ,-0.03398434,0.80234,,
543.451,26.71054,-2.89098,0.32531,            ,-0.08191767,0.79936,,
548.551,26.8756,-2.90091,0.32739,            ,-0.02717485,0.79636,,
553.651,27.04095,-2.90589,0.33323,            ,-0.03080926,0.79333,,
558.751,27.20658,-2.91051,0.33545,            ,-0.0184108,0.79028,,
563.851,27.37245,-2.91613,0.33617,            ,-0.02228486,0.78719,,
568.951,27.5385,-2.92019,0.34246,            ,-0.02354476,0.78408,,
574.051,27.70474,-2.92635,0.35375,            ,-0.05133539,0.78093,,
579.151,27.8712,-2.93017,0.37535,            ,-0.04834264,0.77776,,
584.251,28.03807,-2.93462,0.39094,            ,-0.02975602,0.77456,,
589.351,28.2048,-2.94016,0.40842,            ,-0.03218044,0.77132,,
594.451,28.37195,-2.94435,0.42185,            ,-0.0339175,0.76805,,
599.551,28.539,-2.94848,0.42532,            ,-0.03478229,0.76476,,
604.651,28.7066,-2.95297,0.42736,            ,-0.02541919,0.76143,,
609.751,28.8744,-2.95559,0.42663,            ,-0.01468249,0.75806,,
614.851,29.04215,-2.95956,0.4321,            ,-0.0285263,0.75467,,
619.951,29.2105,-2.96349,0.43889,            ,-0.007291291,0.75124,,
625.051,29.3787,-2.9665,0.44667,            ,-0.03870943,0.74778,,
630.151,29.5473,-2.97193,0.4548,            ,0.008702351,0.74429,,
635.251,29.71592,-2.97087,0.46243,            ,-0.008341431,0.74076,,
640.351,29.88464,-2.97626,0.47467,            ,-0.0249927,0.7372,,
645.451,30.05374,-2.97918,0.48511,            ,-0.00568007,0.73361,,
650.551,30.22255,-2.98186,0.4984,            ,-0.02088907,0.72998,,
655.651,30.3915,-2.98319,0.51233,            ,-0.02320113,0.72632,,
660.751,30.56022,-2.98575,0.5203,            ,-0.008556009,0.72263,,
665.851,30.72924,-2.98806,0.52428,            ,-0.002946766,0.7189,,
670.951,30.8982,-2.99071,0.52844,            ,0.01501432,0.71514,,
676.051,31.06724,-2.99322,0.52684,            ,-0.02615042,0.71134,,
681.151,31.23609,-2.99476,0.53052,            ,-0.002743685,0.70751,,
686.251,31.4052,-2.99806,0.52657,            ,-0.02017334,0.70365,,
691.351,31.5747,-2.99805,0.52171,            ,-0.000922281,0.69975,,
696.451,31.7439,-3.00167,0.5201,            ,-0.004995169,0.69582,,
701.551,31.91406,-3.00428,0.51454,            ,-0.01786126,0.69186,,
706.651,32.08403,-3.00433,0.51034,            ,0.01515201,0.68786,,
711.751,32.25424,-3.00699,0.50615,            ,-0.0323602,0.68383,,
716.851,32.42456,-3.00984,0.50206,            ,-0.01982594,0.67977,,
721.951,32.59472,-3.0111,0.49335,            ,-0.002483096,0.67567,,
727.051,32.7654,-3.01242,0.49329,            ,-2.115478e-06,0.67155,,
732.151,32.93614,-3.01524,0.48551,            ,-0.02053037,0.66738,,
737.251,33.10691,-3.01384,0.47677,            ,-0.009514389,0.66319,,
742.351,33.27809,-3.01615,0.46922,            ,-0.01245871,0.65897,,
747.451,33.4491,-3.01778,0.45961,            ,-0.02512633,0.65471,,
752.551,33.62022,-3.02075,0.45179,            ,0.0001671669,0.65043,,
757.651,33.7915,-3.02076,0.44075,            ,-1.427853e-07,0.64611,,
762.751,33.9627,-3.02208,0.43223,            ,-0.0110525,0.64176,,
767.851,34.13425,-3.02471,0.42915,            ,-0.00200206,0.63739,,
772.951,34.3057,-3.02471,0.41715,            ,-0.002002335,0.63298,,
778.051,34.4771,-3.02601,0.41251,            ,-0.01895649,0.62855,,
783.151,34.64804,-3.02832,0.41099,            ,-0.00265345,0.62408,,
788.251,34.81985,-3.03095,0.40009,            ,0.00558144,0.61959,,
793.351,34.99176,-3.03095,0.39647,            ,-0.03392998,0.61507,,
793.551,34.99839,-3.03095,0.39707,            ,-0.0369338,0.61489,,

File: Ext_Plywood_STA_N2_30KData_22253_R2.csv
##Temp./°C,Time/min,Mass loss(subtr.2)/mg,DSC(subtr.2)/(mW/mg),Integral(DSC (subtr.2), 2, 175.8..427.3°C)/%,DTG(subtr.2)/(mg/min),Sensit./(uV/mW)
48.795,10.00917,-0.08019,0.00983684,            ,-0.03073776,1.08889,,
53.995,11.02915,-0.08511841,0.20168,            ,-0.01776455,1.08452,,
59.195,11.32685,-0.09061042,0.33281,            ,-0.01845303,1.0802,,
64.395,11.56403,-0.09184314,0.43499,            ,-0.01000623,1.07592,,
69.595,11.7758,-0.09147301,0.51703,            ,-0.03278968,1.07169,,
74.795,11.9742,-0.0953417,0.58741,            ,-0.02512785,1.06751,,
79.995,12.16468,-0.09568861,0.6551,            ,-0.01188336,1.06337,,
85.195,12.3498,-0.09872255,0.71301,            ,-0.02224336,1.05928,,
90.395,12.53055,-0.1032,0.76641,            ,0.004371423,1.05524,,
95.595,12.709,-0.10453,0.80761,            ,-0.0261786,1.05124,,
100.795,12.8851,-0.11067,0.83046,            ,-0.04451282,1.04729,,
105.995,13.06043,-0.11273,0.8375,            ,-0.01087745,1.04338,,
111.195,13.23415,-0.1167,0.82701,            ,-0.0290396,1.03952,,
116.395,13.40877,-0.11669,0.80255,            ,-0.01427484,1.0357,,
121.595,13.5817,-0.12038,0.77462,            ,-0.0241182,1.03193,,
126.795,13.753,-0.12205,0.75006,            ,-0.02490353,1.0282,,
131.995,13.923,-0.12515,0.73429,            ,-0.00208647,1.02451,,
137.195,14.09185,-0.12447,0.72719,            ,-0.02268307,1.02087,,
142.395,14.2592,-0.12581,0.73188,            ,-0.03714627,1.01727,,
147.595,14.42494,-0.12943,0.7411,            ,-0.000829714,1.01371,,
152.795,14.5909,-0.12943,0.75684,            ,-1.642989e-05,1.01019,,
157.995,14.7556,-0.13065,0.77056,            ,-0.02187932,1.00672,,
163.195,14.91956,-0.13206,0.79146,            ,-0.005032257,1.00328,,
168.395,15.0828,-0.13256,0.81476,            ,-0.02377784,0.99988,,
173.595,15.2456,-0.13486,0.83319,0.000000e+00,-0.02394357,0.99653,,
178.795,15.4076,-0.13567,0.8559,3.457700e-02,0.00188862,0.99321,,
183.995,15.5685,-0.13832,0.87854,     0.24787,-0.00340591,0.98993,,
189.195,15.7288,-0.13897,0.90137,     0.65312,-0.01627987,0.98668,,
194.395,15.88825,-0.14502,0.92203,     1.24322,-0.01728457,0.98347,,
199.595,16.04747,-0.14833,0.94431,     2.01781,-0.03348919,0.9803,,
204.795,16.2063,-0.15434,0.96009,     2.96354,-0.02933463,0.97716,,
209.995,16.36482,-0.15904,0.96895,     4.05877,-0.0292324,0.97405,,
215.195,16.52321,-0.1643,0.97338,     5.27487,-0.04845351,0.97098,,
220.395,16.68101,-0.16942,0.97527,     6.59745,-0.0377309,0.96794,,
225.595,16.8388,-0.17703,0.97764,     8.02156,-0.05905656,0.96493,,
230.795,16.9966,-0.19054,0.98197,     9.55071,-0.07978512,0.96195,,
235.995,17.15407,-0.20075,0.99379,    11.20595,-0.0793488,0.959,,
241.195,17.31149,-0.21605,1.00398,    13.00134,-0.08312172,0.95608,,
246.395,17.46872,-0.22932,1.01576,    14.93846,-0.09269623,0.95319,,
251.595,17.62581,-0.24458,1.02975,    17.02114,-0.11288,0.95032,,
256.795,17.78303,-0.2659,1.03743,    19.24285,-0.13183,0.94748,,
261.995,17.94003,-0.28561,1.04279,    21.58962,-0.1281,0.94466,,
267.195,18.0971,-0.30456,1.04572,    24.05128,-0.12478,0.94187,,
272.395,18.25405,-0.33159,1.04617,    26.60655,-0.16042,0.93909,,
277.595,18.41093,-0.3571,1.04088,    29.24406,-0.17967,0.93634,,
282.795,18.5684,-0.38763,1.03353,    31.95954,-0.20766,0.93361,,
287.995,18.72543,-0.42401,1.02159,    34.72084,-0.33607,0.9309,,
293.195,18.88276,-0.46838,1.00378,    37.52879,-0.27861,0.92821,,
298.395,19.0399,-0.5152,0.98198,    40.34984,-0.32051,0.92554,,
303.595,19.19738,-0.57213,0.96271,    43.18885,-0.39704,0.92288,,
308.795,19.35426,-0.63821,0.94949,    46.04474,-0.45183,0.92023,,
313.995,19.5125,-0.71364,0.94286,    48.97946,-0.53089,0.9176,,
319.195,19.67021,-0.80252,0.94667,    51.99542,-0.58212,0.91499,,
324.395,19.82824,-0.89849,0.95657,    55.14218,-0.6697,0.91238,,
329.595,19.98645,-1.00307,0.97107,    58.44520,-0.67497,0.90979,,
334.795,20.14507,-1.11852,0.98404,    61.90890,-0.77048,0.9072,,
339.995,20.30389,-1.24514,0.99337,    65.51873,-0.8501,0.90463,,
345.195,20.46293,-1.3854,0.99969,    69.26128,-0.91765,0.90206,,
350.395,20.62223,-1.53431,0.99324,    73.10640,-0.96444,0.8995,,
355.595,20.78195,-1.69211,0.97138,    77.01087,-1.01738,0.89694,,
360.795,20.94119,-1.85662,0.92519,    80.86721,-1.0545,0.89439,,
365.995,21.10162,-2.02408,0.85204,    84.60904,-1.04828,0.89184,,
371.195,21.2617,-2.18643,0.73894,    88.05608,-0.95074,0.88929,,
376.395,21.42181,-2.3295,0.59308,    91.06836,-0.82012,0.88674,,
381.595,21.58239,-2.44787,0.43707,    93.56243,-0.63067,0.8842,,
386.795,21.7429,-2.54129,0.28347,    95.51211,-0.47666,0.88165,,
391.995,21.9036,-2.6059,0.15314,    96.98236,-0.35547,0.8791,,
397.195,22.0645,-2.6535,0.04490309,    98.06037,-0.23692,0.87655,,
402.395,22.2256,-2.68592,-0.04228182,    98.82946,-0.1862,0.87399,,
407.595,22.38726,-2.71011,-0.11685,    99.36930,-0.14218,0.87142,,
412.795,22.54908,-2.73458,-0.1849,    99.71910,-0.13389,0.86885,,
417.995,22.71111,-2.75364,-0.24179,    99.91080,-0.09951549,0.86628,,
423.195,22.87341,-2.77451,-0.28995,    99.98932,-0.13461,0.86369,,
428.395,23.03622,-2.79319,-0.32287,   100,-0.11251,0.8611,,
433.595,23.19923,-2.81116,-0.34212,            ,-0.13318,0.85849,,
438.795,23.36277,-2.82706,-0.35062,            ,-0.08371528,0.85587,,
443.995,23.52636,-2.84248,-0.34595,            ,-0.08650009,0.85324,,
449.195,23.69032,-2.86126,-0.32812,            ,-0.08372734,0.8506,,
454.395,23.85436,-2.87604,-0.29803,            ,-0.13424,0.84794,,
459.595,24.01931,-2.89059,-0.2601,            ,-0.13592,0.84527,,
464.795,24.1841,-2.90795,-0.22827,            ,-0.10256,0.84258,,
469.995,24.34901,-2.91743,-0.19714,            ,-0.04628484,0.83988,,
475.195,24.51444,-2.93056,-0.16931,            ,-0.07302231,0.83715,,
480.395,24.6802,-2.94102,-0.14302,            ,-0.05462015,0.83441,,
485.595,24.84627,-2.94936,-0.12436,            ,-0.03949397,0.83165,,
490.795,25.01269,-2.95766,-0.11072,            ,-0.09764397,0.82886,,
495.995,25.17944,-2.96934,-0.09647114,            ,-0.08310875,0.82606,,
501.195,25.34627,-2.97766,-0.09129792,            ,-0.001419862,0.82323,,
506.395,25.5133,-2.98427,-0.08275494,            ,-0.06374718,0.82039,,
511.595,25.68061,-2.9915,-0.07512353,            ,-0.04068474,0.81751,,
516.795,25.84812,-2.99971,-0.07241181,            ,-0.03374581,0.81462,,
521.995,26.0158,-3.00399,-0.06767375,            ,-0.03031712,0.8117,,
527.195,26.1835,-3.01143,-0.06494409,            ,-0.05396993,0.80875,,
532.395,26.35156,-3.018,-0.05926824,            ,-0.0313884,0.80577,,
537.595,26.5201,-3.02625,-0.055511,            ,-0.07170363,0.80277,,
542.795,26.6887,-3.0336,-0.05671526,            ,-0.02102679,0.79975,,
547.995,26.8571,-3.03896,-0.04895772,            ,-0.02549209,0.79669,,
553.195,27.0259,-3.04291,-0.0478872,            ,-0.01909157,0.79361,,
558.395,27.1946,-3.04895,-0.04432884,            ,-0.05618207,0.79049,,
563.595,27.36373,-3.05891,-0.04038808,            ,-0.01528365,0.78735,,
568.795,27.53283,-3.05895,-0.03547958,            ,-0.01423524,0.78417,,
573.995,27.70212,-3.06494,-0.02127463,            ,-0.02442726,0.78097,,
579.195,27.87175,-3.06752,0.0009700686,            ,-0.02778706,0.77773,,
584.395,28.04154,-3.07274,0.02015739,            ,-0.02878205,0.77446,,
589.595,28.21142,-3.07783,0.03218994,            ,-0.008213899,0.77116,,
594.795,28.382,-3.08367,0.03976768,            ,-0.03344725,0.76783,,
599.995,28.55252,-3.08704,0.04633392,            ,-0.03864334,0.76447,,
605.195,28.72325,-3.09415,0.04535067,            ,0.02644443,0.76107,,
610.395,28.8942,-3.09404,0.0464332,            ,-0.04858035,0.75764,,
615.595,29.06543,-3.09995,0.04867417,            ,0.00546679,0.75417,,
620.795,29.2368,-3.0986,0.0517489,            ,-0.02521111,0.75067,,
625.995,29.4081,-3.10617,0.05754123,            ,-0.02740369,0.74714,,
631.195,29.57961,-3.10931,0.06739574,            ,-0.03034005,0.74357,,
636.395,29.7514,-3.11311,0.07710465,            ,-0.002332522,0.73997,,
641.595,29.92328,-3.11727,0.08036978,            ,-0.0135383,0.73633,,
646.795,30.09525,-3.11863,0.09240416,            ,-0.01535997,0.73266,,
651.995,30.26747,-3.12043,0.09929368,            ,-0.02907709,0.72895,,
657.195,30.4398,-3.12385,0.1098,            ,-0.02710694,0.72521,,
662.395,30.61208,-3.12786,0.11286,            ,-0.02067311,0.72143,,
667.595,30.7845,-3.13051,0.119,            ,-0.001796788,0.71762,,
672.795,30.9569,-3.13405,0.12081,            ,-0.03770168,0.71377,,
677.995,31.12945,-3.13736,0.11476,            ,0.004432661,0.70989,,
683.195,31.30248,-3.14069,0.11331,            ,-0.03990733,0.70597,,
688.395,31.47535,-3.14416,0.10741,            ,-1.055074e-06,0.70202,,
693.595,31.64842,-3.14515,0.10214,            ,-0.000472506,0.69803,,
698.795,31.8214,-3.14724,0.09629064,            ,-0.03922079,0.69401,,
703.995,31.9948,-3.1514,0.08672738,            ,0.000753756,0.68995,,
709.195,32.1682,-3.1501,0.079121,            ,0.005894951,0.68586,,
714.395,32.34155,-3.15125,0.06959322,            ,-0.01910481,0.68173,,
719.595,32.5152,-3.15236,0.06159942,            ,-0.009668847,0.67757,,
724.795,32.689,-3.15216,0.05586593,            ,-0.02922586,0.67338,,
729.995,32.86296,-3.15632,0.05061951,            ,0.018734,0.66915,,
735.195,33.03737,-3.15633,0.04019735,            ,-0.0009729143,0.66489,,
740.395,33.21135,-3.15792,0.03508939,            ,-0.02358681,0.66059,,
745.595,33.38628,-3.1587,0.02974066,            ,-0.02068593,0.65627,,
750.795,33.56053,-3.15908,0.01726896,            ,0.01039638,0.65191,,
755.995,33.73527,-3.16358,0.01437803,            ,-0.00850512,0.64752,,
761.195,33.9099,-3.16494,0.00767203,            ,-0.02826064,0.64309,,
766.395,34.08483,-3.16916,-0.00196333,            ,-0.00372071,0.63864,,
771.595,34.25955,-3.17028,-0.009916166,            ,-0.01364825,0.63415,,
776.795,34.43432,-3.17287,-0.0194052,            ,-0.02027455,0.62964,,
781.995,34.60906,-3.1742,-0.02346188,            ,-0.01610904,0.6251,,
787.195,34.78378,-3.17444,-0.03021397,            ,0.01407454,0.62052,,
792.395,34.9585,-3.17424,-0.03712441,            ,0.01357622,0.61592,,
793.595,34.99889,-3.17388,-0.04021999,            ,0.003046617,0.61485,,