Folder: fsri_materials_database/01_Data/Polyester_Carpet_MedPile/MCC

Note: 01_Data/README.md
# Materials and Products Database
## 01_Data

Raw data generated from each apparatus are included here in plain-text format. The data is organized first by material, next by the short name of test apparatus used, and where applicable additional filtering by test settings.

### material.json

Each material directory contains a json file of the same name as the material. This file links the data stored in the repository as well as data and graphs produced by the accompanying scripts (__02_Scripts__) to the respective landing page for the material on the front-end website.

File: Polyester_Carpet_MedPile_MCC_30K_min_211029_R1.txt
Sample ID:	C:\MCC\MCC Cal\Test\Polyester_Carpet_MedPile_MCC_30K_min_211029_R1.txt
Sample Weight (mg):	4.64
Heating Rate (C/s):	0.5
Combustor Temp (C):	900
N2 Flow Rate (cc/min):	80
O2 Flow Rate (cc/min):	20
Calibration File:	C:\MCC\MCC Cal\Coeff1 JN10440_30_210304.txt.txt
T Correction Coefficients:	0	1.024463	0
Time Shift (s):	14
*
Time (s)	Temperature (C)	N2 flow rate (cc/min)	O2 flow rate (cc/min)	Flow Rate (cc/min)	Oxygen (%)	HRR (W/g)	Heating rate (C/s)
0.000	109.447	79.992	19.998	102.897	20.040	0.172	-0.023
8.000	109.403	79.994	19.995	102.902	20.037	0.392	-0.003
16.000	109.376	79.992	19.996	102.920	20.041	0.099	0.009
24.000	109.422	79.992	19.995	102.911	20.034	0.639	0.040
32.001	109.689	79.992	19.996	103.007	20.024	1.285	0.045
40.000	110.295	79.991	19.996	103.053	20.013	2.035	0.093
48.000	111.277	79.991	19.995	103.081	20.008	2.435	0.155
56.000	112.600	79.992	19.995	103.086	20.004	2.688	0.189
64.000	114.350	79.992	19.996	103.124	20.000	2.982	0.240
72.000	116.371	79.992	19.995	103.137	19.996	3.280	0.269
80.001	118.697	79.993	19.995	103.205	19.993	3.423	0.346
88.000	121.346	79.993	19.995	103.154	19.990	3.683	0.352
96.000	124.296	79.993	19.996	103.165	19.988	3.793	0.383
104.000	127.483	79.993	19.995	103.197	19.987	3.904	0.389
112.000	130.884	79.992	19.995	103.138	19.986	3.918	0.438
120.001	134.473	79.992	19.996	103.189	19.986	3.919	0.417
128.000	138.291	79.991	19.998	103.150	19.991	3.571	0.476
136.000	142.138	79.992	19.997	103.141	19.989	3.738	0.468
144.000	146.110	79.994	19.996	103.177	19.993	3.479	0.516
152.000	150.075	79.992	19.996	103.154	19.992	3.493	0.493
160.000	154.151	79.992	19.995	103.156	19.997	3.194	0.513
168.000	158.156	79.993	19.995	103.125	19.991	3.611	0.521
176.000	162.208	79.991	19.996	103.168	19.996	3.267	0.530
184.000	166.199	79.992	19.996	103.125	19.998	3.110	0.503
192.000	170.152	79.992	19.995	103.115	19.995	3.302	0.486
200.000	174.105	79.993	19.995	103.128	19.999	3.008	0.497
208.000	178.023	79.991	19.995	103.105	20.002	2.839	0.496
216.000	181.989	79.993	19.996	103.093	20.001	2.925	0.498
224.000	185.892	79.993	19.996	103.099	20.000	2.946	0.478
232.000	189.875	79.992	19.997	103.104	20.002	2.831	0.522
240.000	193.736	79.993	19.998	103.088	20.003	2.766	0.525
248.000	197.625	79.995	19.995	103.087	20.007	2.476	0.478
256.000	201.548	79.992	19.996	103.094	20.002	2.818	0.482
264.000	205.554	79.991	19.996	103.089	20.003	2.768	0.513
272.000	209.536	79.991	19.996	103.094	20.008	2.384	0.488
280.000	213.496	79.993	19.995	103.120	20.006	2.563	0.495
288.000	217.503	79.994	19.995	103.081	20.008	2.408	0.495
296.000	221.463	79.991	19.996	103.161	20.014	2.029	0.490
304.000	225.441	79.995	19.995	103.070	20.008	2.440	0.497
312.000	229.442	79.995	19.995	103.117	20.011	2.198	0.502
320.000	233.487	79.994	19.994	103.086	20.009	2.318	0.489
328.000	237.567	79.994	19.995	103.103	20.011	2.204	0.554
336.000	241.578	79.993	19.995	103.117	20.014	2.030	0.498
344.000	245.666	79.994	19.996	103.095	20.015	1.956	0.514
352.000	249.705	79.993	19.996	103.086	20.013	2.095	0.510
360.000	253.693	79.992	19.996	103.071	20.013	2.099	0.482
368.000	257.654	79.992	19.995	103.082	20.017	1.782	0.495
376.000	261.564	79.992	19.997	103.080	20.017	1.788	0.499
384.000	265.516	79.995	19.995	103.045	20.013	2.034	0.499
392.000	269.408	79.991	19.995	103.076	20.017	1.790	0.511
400.000	273.401	79.994	19.995	103.076	20.015	1.914	0.509
408.000	277.343	79.994	19.995	103.066	20.011	2.182	0.475
416.000	281.250	79.992	19.998	103.086	20.015	1.899	0.515
424.000	285.212	79.996	19.997	103.086	20.017	1.817	0.494
432.000	289.216	79.995	19.995	103.050	20.013	2.067	0.462
440.000	293.237	79.992	19.996	103.049	20.017	1.786	0.516
448.000	297.151	79.991	19.996	103.063	20.011	2.206	0.528
456.000	301.105	79.993	19.996	103.066	20.011	2.174	0.471
464.000	305.049	79.994	19.995	103.051	20.010	2.308	0.520
472.000	309.067	79.993	19.996	103.063	20.005	2.596	0.517
480.000	313.023	79.995	19.996	103.056	20.010	2.310	0.458
488.000	316.968	79.994	19.997	103.046	20.012	2.110	0.496
496.000	320.957	79.992	19.996	103.048	19.999	3.039	0.488
504.000	324.937	79.994	19.995	103.070	20.001	2.876	0.480
512.000	329.041	79.993	19.995	103.079	19.998	3.092	0.526
520.000	333.167	79.991	19.996	103.054	19.993	3.434	0.533
528.000	337.341	79.991	19.996	103.047	19.985	3.979	0.499
536.001	341.432	79.993	19.995	103.075	19.985	4.006	0.490
544.000	345.517	79.995	19.994	103.049	19.975	4.701	0.508
552.000	349.598	79.994	19.997	103.039	19.965	5.359	0.551
560.000	353.636	79.996	19.996	103.048	19.960	5.755	0.501
568.000	357.574	79.993	19.995	103.062	19.943	6.902	0.491
576.000	361.564	79.990	19.995	103.050	19.931	7.749	0.506
584.000	365.461	79.991	19.996	103.050	19.913	8.976	0.469
592.000	369.391	79.993	19.996	103.059	19.895	10.271	0.508
600.000	373.267	79.991	19.996	103.055	19.873	11.780	0.504
608.000	377.199	79.992	19.995	103.075	19.847	13.595	0.499
616.000	381.097	79.992	19.995	103.086	19.817	15.641	0.446
624.000	385.139	79.993	19.995	103.096	19.783	18.024	0.491
632.000	389.215	79.993	19.996	103.087	19.750	20.306	0.506
640.000	393.277	79.995	19.996	103.089	19.705	23.420	0.503
648.000	397.339	79.992	19.995	103.097	19.665	26.216	0.499
656.001	401.333	79.991	19.996	103.131	19.616	29.621	0.484
664.000	405.397	79.991	19.996	103.158	19.559	33.581	0.490
672.000	409.593	79.993	19.997	103.164	19.489	38.402	0.537
680.000	413.916	79.991	19.997	103.165	19.402	44.485	0.553
688.000	418.300	79.993	19.995	103.218	19.302	51.401	0.565
696.000	422.695	79.994	19.994	103.214	19.187	59.433	0.522
704.000	427.177	79.991	19.994	103.238	19.064	67.989	0.567
712.000	431.512	79.991	19.995	103.261	18.939	76.675	0.503
720.000	435.944	79.995	19.994	103.337	18.824	84.718	0.546
728.000	440.289	79.994	19.995	103.347	18.714	92.372	0.552
736.000	444.450	79.991	19.998	103.360	18.637	97.684	0.531
744.000	448.660	79.992	19.997	103.362	18.615	99.222	0.521
752.000	452.795	79.992	19.995	103.338	18.681	94.557	0.539
760.000	456.875	79.991	19.996	103.291	18.860	82.094	0.502
768.000	460.952	79.992	19.996	103.225	19.084	66.528	0.482
776.000	464.993	79.992	19.995	103.160	19.311	50.746	0.511
784.000	469.025	79.994	19.996	103.104	19.430	42.435	0.518
792.000	473.038	79.995	19.995	103.072	19.442	41.651	0.507
800.000	477.095	79.994	19.994	103.017	19.396	44.774	0.487
808.000	481.178	79.993	19.995	103.003	19.350	47.974	0.516
816.000	485.172	79.993	19.995	102.932	19.444	41.481	0.472
824.000	489.150	79.993	19.996	102.968	19.652	27.095	0.490
832.000	493.003	79.992	19.997	103.003	19.831	14.669	0.476
840.000	496.931	79.991	19.995	103.027	19.934	7.543	0.469
848.000	500.810	79.993	19.996	103.043	19.978	4.514	0.461
856.000	504.655	79.993	19.997	103.038	19.992	3.539	0.488
864.000	508.494	79.992	19.995	103.010	19.990	3.651	0.487
872.000	512.444	79.995	19.995	103.023	19.994	3.354	0.492
880.000	516.431	79.994	19.996	103.035	19.996	3.247	0.513
888.000	520.482	79.992	19.997	103.019	20.003	2.753	0.506
896.000	524.491	79.993	19.995	103.013	19.998	3.123	0.512
904.000	528.515	79.993	19.995	103.037	19.997	3.184	0.497
912.000	532.571	79.992	19.995	103.064	19.995	3.336	0.498
920.000	536.643	79.991	19.996	103.052	20.001	2.921	0.510
928.000	540.655	79.995	19.996	103.041	20.006	2.583	0.507
936.000	544.688	79.992	19.996	103.028	20.009	2.313	0.508
944.000	548.678	79.993	19.996	103.011	20.004	2.695	0.496
952.000	552.693	79.993	19.996	103.015	20.000	2.962	0.466
960.000	556.756	79.994	19.996	103.032	19.996	3.233	0.509
968.000	560.872	79.991	19.995	103.037	19.994	3.410	0.526
976.000	564.980	79.991	19.996	103.044	19.991	3.589	0.533
984.000	569.153	79.994	19.996	103.025	19.987	3.886	0.538
992.000	573.351	79.993	19.995	103.010	19.979	4.391	0.521
1000.000	577.540	79.992	19.996	103.050	19.970	5.015	0.540
1008.000	581.631	79.991	19.996	103.061	19.957	5.979	0.518
1016.000	585.739	79.994	19.996	103.076	19.935	7.456	0.525
1024.001	589.875	79.993	19.997	103.082	19.905	9.559	0.526
1032.000	594.039	79.994	19.996	103.082	19.863	12.452	0.544
1040.000	598.108	79.993	19.996	103.069	19.821	15.372	0.538
1048.000	602.200	79.993	19.995	103.087	19.775	18.544	0.542
1056.000	606.347	79.992	19.997	103.088	19.740	20.970	0.520
1064.000	610.405	79.993	19.996	103.098	19.717	22.615	0.505
1072.000	614.572	79.993	19.996	103.090	19.720	22.407	0.527
1080.000	618.828	79.992	19.994	103.092	19.744	20.737	0.547
1088.000	623.107	79.994	19.995	103.080	19.819	15.518	0.522
1096.001	627.433	79.991	20.000	103.052	19.925	8.132	0.544
1104.001	631.696	79.994	19.995	103.047	19.979	4.424	0.549
1112.001	635.939	79.994	19.996	103.025	19.999	3.063	0.545
1120.000	640.047	79.992	19.997	103.030	20.004	2.709	0.496
1128.000	643.962	79.993	19.996	103.025	20.003	2.764	0.472
1136.001	647.829	79.992	19.996	103.015	20.002	2.848	0.464
1144.000	651.708	79.993	19.995	103.049	20.004	2.665	0.474
1152.001	655.632	79.990	19.996	103.055	20.002	2.820	0.473
1160.001	659.481	79.994	19.994	103.053	20.003	2.757	0.447
1168.000	663.366	79.994	19.993	103.049	20.000	2.994	0.510
1176.000	667.382	79.993	19.996	103.078	20.000	2.976	0.541
1184.000	671.439	79.994	19.997	103.050	19.999	3.045	0.504
1192.000	675.545	79.995	19.996	103.072	19.997	3.157	0.540
1200.000	679.718	79.990	19.997	103.076	19.998	3.113	0.503
1208.000	683.922	79.991	19.997	103.127	19.990	3.661	0.507
1216.000	688.136	79.991	19.995	103.113	19.988	3.791	0.547
1224.000	692.208	79.992	19.995	103.129	19.979	4.430	0.457
1232.001	696.437	79.991	19.996	103.153	19.979	4.458	0.487
1240.000	700.506	79.992	19.996	103.157	19.972	4.882	0.505
1248.000	704.441	79.995	19.995	103.149	19.974	4.742	0.493
1256.000	708.410	79.994	19.995	103.168	19.977	4.548	0.502
1264.000	712.330	79.994	19.996	103.173	19.975	4.707	0.498
1272.000	716.373	79.995	19.995	103.169	19.975	4.693	0.500
1280.000	720.181	79.991	19.996	103.203	19.975	4.679	0.459
1288.001	723.998	79.991	19.996	103.165	19.977	4.554	0.461
1296.001	727.826	79.991	19.998	103.151	19.984	4.056	0.472
1304.000	731.659	79.992	19.997	103.104	19.990	3.687	0.497
1312.000	735.577	79.993	19.996	103.046	20.005	2.612	0.495
1320.000	739.560	79.993	19.995	103.043	20.011	2.177	0.517
1328.000	743.587	79.994	19.997	102.976	20.012	2.165	0.500

File: Polyester_Carpet_MedPile_MCC_30K_min_211029_R2.txt
Sample ID:	C:\MCC\MCC Cal\Test\Polyester_Carpet_MedPile_MCC_30K_min_211029_R2.txt
Sample Weight (mg):	4.17
Heating Rate (C/s):	0.5
Combustor Temp (C):	900
N2 Flow Rate (cc/min):	80
O2 Flow Rate (cc/min):	20
Calibration File:	C:\MCC\MCC Cal\Coeff1 JN10440_30_210304.txt.txt
T Correction Coefficients:	0	1.024463	0
Time Shift (s):	14
*
Time (s)	Temperature (C)	N2 flow rate (cc/min)	O2 flow rate (cc/min)	Flow Rate (cc/min)	Oxygen (%)	HRR (W/g)	Heating rate (C/s)
0.000	108.847	79.996	19.996	102.883	20.094	0.099	0.019
8.001	108.843	79.999	19.995	102.881	20.094	0.136	-0.006
16.000	108.804	79.967	19.997	102.903	20.090	0.388	-0.020
24.000	108.950	79.992	19.994	102.909	20.090	0.462	0.048
32.001	109.141	79.997	19.993	102.957	20.083	0.991	0.040
40.000	109.538	80.005	19.996	103.035	20.068	2.150	0.043
48.000	110.403	80.000	19.993	103.088	20.061	2.698	0.125
56.000	111.685	79.989	19.996	103.086	20.054	3.190	0.211
64.000	113.336	80.002	19.995	103.086	20.056	3.058	0.216
72.000	115.371	79.995	19.994	103.128	20.051	3.446	0.270
80.000	117.676	79.998	19.995	103.128	20.049	3.625	0.294
88.000	120.301	79.996	19.994	103.126	20.047	3.781	0.352
96.000	123.205	79.989	19.995	103.136	20.049	3.570	0.372
104.000	126.329	79.987	19.995	103.149	20.048	3.679	0.409
112.000	129.698	80.001	19.993	103.144	20.045	3.895	0.485
120.000	133.098	79.990	19.996	103.130	20.047	3.710	0.413
128.001	136.714	79.991	19.995	103.160	20.044	4.015	0.470
136.001	140.510	79.997	19.996	103.173	20.046	3.857	0.468
144.000	144.562	79.996	19.995	103.147	20.041	4.175	0.504
152.001	148.597	79.990	19.994	103.145	20.045	3.899	0.507
160.000	152.732	79.994	19.996	103.133	20.050	3.513	0.487
168.000	156.815	79.998	19.995	103.132	20.050	3.550	0.515
176.000	160.954	79.994	19.995	103.126	20.052	3.384	0.496
184.001	165.005	79.991	19.996	103.124	20.054	3.195	0.489
192.000	169.107	79.991	19.996	103.097	20.054	3.226	0.491
200.000	173.122	79.992	19.994	103.102	20.053	3.250	0.473
208.000	177.142	79.992	19.995	103.094	20.051	3.401	0.504
216.001	181.059	79.993	19.995	103.098	20.054	3.232	0.481
224.000	185.042	79.994	19.995	103.086	20.052	3.343	0.501
232.000	188.950	79.995	19.997	103.092	20.050	3.483	0.473
240.000	192.825	79.993	19.996	103.097	20.055	3.113	0.476
248.001	196.671	79.995	19.996	103.082	20.053	3.312	0.479
256.000	200.625	79.991	19.995	103.082	20.053	3.267	0.443
264.000	204.537	79.993	19.995	103.077	20.055	3.104	0.501
272.000	208.445	79.991	19.996	103.074	20.052	3.392	0.473
280.000	212.390	79.991	19.997	103.086	20.053	3.254	0.480
288.000	216.308	79.991	19.996	103.086	20.056	3.012	0.503
296.000	220.279	79.991	19.995	103.057	20.055	3.092	0.496
304.000	224.206	79.993	19.995	103.068	20.053	3.314	0.487
312.000	228.177	79.992	19.995	103.071	20.057	2.985	0.513
320.000	232.178	79.995	19.995	103.067	20.056	3.080	0.504
328.000	236.174	79.995	19.995	103.050	20.059	2.825	0.519
336.000	240.171	79.991	19.996	103.054	20.063	2.532	0.497
344.000	244.208	79.991	19.995	103.057	20.062	2.581	0.495
352.000	248.221	79.993	19.996	103.045	20.059	2.842	0.489
360.000	252.296	79.992	19.997	103.048	20.061	2.665	0.518
368.000	256.289	79.990	19.996	103.048	20.059	2.823	0.518
376.000	260.270	79.993	19.995	103.034	20.061	2.650	0.501
384.000	264.272	79.995	19.995	103.039	20.064	2.430	0.503
392.000	268.232	79.993	19.995	103.058	20.058	2.862	0.478
400.000	272.314	79.994	19.996	103.046	20.062	2.603	0.529
408.001	276.291	79.994	19.995	103.047	20.057	2.935	0.481
416.000	280.303	79.992	19.995	103.047	20.058	2.866	0.491
424.000	284.332	79.993	19.995	103.035	20.053	3.263	0.529
432.000	288.359	79.994	19.995	103.040	20.059	2.824	0.543
440.000	292.310	79.993	19.997	103.036	20.057	2.932	0.488
448.000	296.340	79.991	19.996	103.020	20.056	3.017	0.495
456.000	300.361	79.993	19.996	103.020	20.055	3.106	0.492
464.000	304.387	79.991	19.997	103.032	20.058	2.920	0.522
472.000	308.379	79.993	19.994	103.030	20.053	3.265	0.519
480.000	312.500	79.994	19.995	103.024	20.055	3.162	0.506
488.000	316.534	79.995	19.995	103.036	20.048	3.656	0.503
496.000	320.545	79.993	19.995	103.025	20.050	3.496	0.505
504.000	324.599	79.993	19.995	103.014	20.045	3.884	0.465
512.000	328.618	79.992	19.995	103.014	20.043	4.055	0.502
520.000	332.643	79.991	19.996	103.036	20.040	4.271	0.526
528.000	336.659	79.991	19.996	103.033	20.038	4.441	0.482
536.000	340.714	79.993	19.996	103.022	20.026	5.387	0.512
544.001	344.659	79.993	19.996	103.023	20.020	5.787	0.487
552.000	348.659	79.992	19.995	103.027	20.014	6.289	0.493
560.000	352.681	79.996	19.995	103.008	20.004	7.027	0.494
568.000	356.775	79.995	19.996	103.041	19.996	7.684	0.515
576.000	360.840	79.991	19.994	103.037	19.981	8.794	0.506
584.000	364.871	79.993	19.995	103.007	19.963	10.243	0.514
592.000	368.994	79.992	19.996	103.027	19.946	11.540	0.524
600.000	373.005	79.992	19.996	103.028	19.925	13.147	0.498
608.000	377.060	79.993	19.995	103.027	19.899	15.114	0.492
616.000	381.099	79.995	19.996	103.035	19.873	17.174	0.504
624.000	385.141	79.994	19.995	103.052	19.840	19.678	0.548
632.000	389.154	79.993	19.996	103.049	19.807	22.229	0.495
640.000	393.203	79.994	19.995	103.047	19.773	24.870	0.496
648.000	397.267	79.994	19.995	103.053	19.734	27.869	0.491
656.000	401.320	79.992	19.996	103.068	19.691	31.199	0.512
664.000	405.377	79.992	19.996	103.083	19.642	34.965	0.530
672.000	409.414	79.992	19.996	103.091	19.584	39.466	0.524
680.000	413.393	79.992	19.995	103.123	19.517	44.621	0.503
688.000	417.422	79.994	19.996	103.130	19.437	50.862	0.538
696.000	421.484	79.994	19.994	103.165	19.348	57.690	0.520
704.000	425.515	79.994	19.995	103.172	19.248	65.451	0.522
712.000	429.573	79.993	19.997	103.202	19.155	72.626	0.508
720.000	433.607	79.995	19.996	103.233	19.071	79.144	0.504
728.000	437.649	79.992	19.995	103.246	18.981	86.098	0.489
736.000	441.713	79.994	19.995	103.274	18.906	91.891	0.505
744.001	445.744	79.994	19.995	103.283	18.866	95.044	0.478
752.000	449.726	79.991	19.995	103.283	18.888	93.298	0.491
760.000	453.767	79.993	19.996	103.245	18.989	85.401	0.499
768.000	457.789	79.993	19.994	103.207	19.164	71.859	0.512
776.000	461.850	79.993	19.995	103.133	19.345	57.892	0.491
784.000	465.922	79.993	19.995	103.101	19.502	45.742	0.493
792.000	470.025	79.994	19.994	103.045	19.552	41.897	0.535
800.000	474.173	79.996	19.995	103.023	19.530	43.593	0.531
808.000	478.249	79.991	19.997	102.998	19.473	47.973	0.547
816.000	482.320	79.993	19.996	102.941	19.484	47.110	0.487
824.000	486.374	79.994	19.996	102.935	19.602	37.994	0.506
832.000	490.485	79.993	19.996	102.969	19.760	25.819	0.505
840.000	494.582	79.991	19.996	102.988	19.900	15.075	0.530
848.000	498.649	79.993	19.996	102.999	19.977	9.100	0.508
856.000	502.691	79.994	19.995	102.985	20.009	6.644	0.504
864.000	506.688	79.992	19.995	103.009	20.020	5.788	0.500
872.000	510.729	79.995	19.996	102.989	20.022	5.690	0.506
880.000	514.807	79.995	19.995	103.012	20.019	5.905	0.554
888.000	518.904	79.992	19.995	102.993	20.019	5.872	0.499
896.000	522.975	79.992	19.995	103.008	20.018	6.007	0.506
904.000	527.131	79.994	19.995	103.012	20.021	5.771	0.494
912.000	531.203	79.990	19.996	103.021	20.022	5.643	0.492
920.000	535.345	79.992	19.996	103.013	20.017	6.023	0.529
928.000	539.457	79.994	19.996	103.009	20.015	6.170	0.502
936.000	543.565	79.994	19.994	103.012	20.018	5.940	0.488
944.000	547.663	79.994	19.996	103.010	20.020	5.842	0.544
952.000	551.779	79.994	19.996	103.009	20.020	5.810	0.511
960.000	555.824	79.995	19.996	103.006	20.016	6.121	0.487
968.000	559.936	79.992	19.995	103.010	20.017	6.030	0.515
976.000	564.027	79.991	19.995	103.020	20.013	6.391	0.510
984.000	568.104	79.992	19.996	103.012	20.010	6.596	0.521
992.001	572.165	79.991	19.995	103.008	20.006	6.888	0.505
1000.000	576.338	79.991	19.994	103.015	19.997	7.587	0.493
1008.000	580.453	79.993	19.995	103.017	19.985	8.499	0.530
1016.000	584.495	79.993	19.997	103.041	19.971	9.583	0.517
1024.000	588.521	79.992	19.996	103.022	19.943	11.733	0.485
1032.000	592.557	79.995	19.994	103.044	19.906	14.635	0.527
1040.001	596.617	79.994	19.996	103.049	19.860	18.185	0.538
1048.001	600.663	79.992	19.996	103.052	19.824	20.913	0.508
1056.000	604.733	79.993	19.996	103.068	19.786	23.890	0.523
1064.000	608.802	79.993	19.996	103.078	19.764	25.535	0.509
1072.001	612.944	79.991	19.997	103.075	19.754	26.363	0.530
1080.000	617.083	79.993	19.996	103.070	19.776	24.656	0.531
1088.000	621.158	79.993	19.995	103.059	19.829	20.532	0.517
1096.000	625.256	79.993	19.996	103.044	19.918	13.651	0.513
1104.000	629.310	79.993	19.996	103.039	19.988	8.289	0.556
1112.000	633.316	79.995	19.995	102.996	20.015	6.233	0.512
1120.001	637.348	79.993	19.995	103.010	20.020	5.806	0.491
1128.000	641.292	79.992	19.996	103.005	20.024	5.547	0.493
1136.000	645.251	79.991	19.996	103.016	20.024	5.521	0.496
1144.000	649.219	79.991	19.996	103.027	20.023	5.628	0.484
1152.000	653.213	79.990	19.996	103.012	20.015	6.227	0.457
1160.001	657.177	79.991	19.997	103.033	20.013	6.337	0.502
1168.000	661.169	79.994	19.994	103.035	20.016	6.130	0.483
1176.000	665.201	79.995	19.995	103.044	20.014	6.307	0.497
1184.000	669.151	79.995	19.995	103.050	20.012	6.420	0.500
1192.000	673.066	79.995	19.995	103.057	20.010	6.559	0.480
1200.001	676.974	79.992	19.994	103.070	20.014	6.273	0.481
1208.000	680.834	79.993	19.994	103.087	20.010	6.599	0.448
1216.000	684.741	79.993	19.995	103.095	20.008	6.773	0.493
1224.001	688.606	79.991	19.996	103.099	20.008	6.767	0.435
1232.000	692.644	79.989	19.997	103.110	20.002	7.183	0.512
1240.000	696.789	79.996	19.991	103.127	20.001	7.289	0.500
1248.001	700.929	79.994	19.996	103.125	20.000	7.408	0.536
1256.000	704.976	79.993	19.999	103.138	19.995	7.735	0.498
1264.000	709.012	79.994	19.994	103.159	19.992	8.020	0.507
1272.001	713.035	79.996	19.995	103.166	19.989	8.193	0.491
1280.001	717.086	79.992	19.995	103.166	19.986	8.427	0.519
1288.000	721.077	79.991	19.994	103.162	19.985	8.535	0.512
1296.000	725.007	79.994	19.996	103.152	19.988	8.275	0.509
1304.000	729.243	79.993	19.996	103.128	19.994	7.827	0.589
1312.000	733.737	79.991	19.996	103.065	19.999	7.423	0.564
1320.000	738.444	79.992	19.996	103.041	20.013	6.362	0.590
1327.000	742.579	79.994	19.995	103.008	20.017	6.059	0.617