Folder: fsri_materials_database/01_Data/Bean_Bag_Chair_Beads/MCC (part 2)

File: Bean_Bag_Chair_Beads_MCC_30K_min_220315_R3.txt
Sample ID:	C:\MCC\MCC Cal\Test\Bean_Bag_Chair_Beads_MCC_30K_min_220315_R3.txt
Sample Weight (mg):	4.44
Heating Rate (C/s):	0.5
Combustor Temp (C):	900
N2 Flow Rate (cc/min):	80
O2 Flow Rate (cc/min):	20
Calibration File:	C:\MCC\MCC Cal\Coeff1 JN10440_30_210304.txt.txt
T Correction Coefficients:	0	1.024463	0
Time Shift (s):	14
*
Time (s)	Temperature (C)	N2 flow rate (cc/min)	O2 flow rate (cc/min)	Flow Rate (cc/min)	Oxygen (%)	HRR (W/g)	Heating rate (C/s)
0.000	108.205	80.013	19.994	103.746	19.926	0.020	-0.005
8.000	108.156	80.011	19.992	103.752	19.930	-0.244	-0.000
16.000	108.198	80.012	19.994	103.753	19.922	0.315	-0.002
24.000	108.201	80.012	19.993	103.756	19.921	0.447	-0.026
32.000	108.308	80.009	19.993	103.784	19.920	0.498	-0.001
40.000	108.488	80.011	19.994	103.786	19.910	1.212	0.042
48.000	108.884	80.012	19.994	103.847	19.907	1.445	0.033
56.000	109.686	80.012	19.993	103.935	19.890	2.711	0.116
64.000	110.875	80.011	19.994	103.933	19.892	2.533	0.184
72.000	112.481	80.011	19.994	103.948	19.889	2.735	0.229
80.001	114.345	80.014	19.993	103.981	19.880	3.391	0.259
88.000	116.497	80.012	19.993	103.983	19.877	3.627	0.287
96.000	118.973	80.011	19.993	103.986	19.870	4.141	0.342
104.000	121.760	80.012	19.993	104.008	19.868	4.276	0.387
112.000	124.757	80.012	19.994	103.987	19.867	4.338	0.379
120.000	128.051	80.012	19.993	103.994	19.865	4.487	0.418
128.000	131.481	80.010	19.994	104.008	19.863	4.635	0.438
136.000	135.123	80.013	19.993	104.148	19.870	4.174	0.479
144.000	138.835	80.012	19.993	104.015	19.866	4.414	0.437
152.000	142.632	80.012	19.994	103.989	19.867	4.339	0.460
160.000	146.567	80.013	19.994	103.979	19.865	4.521	0.452
168.000	150.505	80.012	19.994	103.979	19.866	4.472	0.471
176.000	154.413	80.010	19.994	103.979	19.868	4.291	0.468
184.000	158.389	80.011	19.993	103.983	19.867	4.349	0.479
192.000	162.389	80.011	19.993	103.979	19.866	4.406	0.528
200.000	166.337	80.012	19.993	103.985	19.868	4.263	0.467
208.000	170.348	80.012	19.993	103.983	19.869	4.222	0.525
216.001	174.322	80.013	19.993	103.987	19.870	4.148	0.464
224.000	178.295	80.014	19.993	103.982	19.871	4.061	0.497
232.000	182.198	80.011	19.994	103.955	19.871	4.102	0.491
240.000	186.130	80.012	19.995	103.949	19.868	4.283	0.474
248.000	190.057	80.014	19.993	103.942	19.870	4.151	0.496
256.000	193.965	80.013	19.994	103.924	19.872	4.005	0.521
264.000	197.904	80.009	19.994	103.938	19.869	4.188	0.480
272.000	201.811	80.009	19.995	103.944	19.871	4.057	0.446
280.000	205.776	80.013	19.993	103.946	19.872	4.033	0.513
288.000	209.794	80.011	19.993	103.946	19.869	4.192	0.539
296.000	213.732	80.012	19.994	103.945	19.868	4.259	0.500
304.000	217.672	80.013	19.994	103.942	19.870	4.178	0.534
312.000	221.610	80.013	19.993	103.942	19.868	4.264	0.478
320.000	225.545	80.013	19.993	103.944	19.867	4.397	0.460
328.000	229.504	80.012	19.993	103.945	19.865	4.544	0.510
336.000	233.406	80.013	19.994	103.944	19.871	4.079	0.484
344.000	237.394	80.011	19.993	103.942	19.862	4.723	0.505
352.000	241.329	80.012	19.993	103.946	19.867	4.331	0.473
360.000	245.228	80.011	19.993	103.941	19.862	4.740	0.468
368.000	249.244	80.012	19.994	103.928	19.863	4.686	0.478
376.000	253.267	80.012	19.995	103.929	19.861	4.769	0.491
384.000	257.283	80.012	19.994	103.916	19.862	4.694	0.545
392.000	261.163	80.012	19.993	103.908	19.859	4.926	0.484
400.000	265.124	80.013	19.993	103.924	19.855	5.212	0.482
408.000	269.007	80.012	19.994	103.929	19.857	5.127	0.490
416.000	273.006	80.013	19.993	103.926	19.853	5.363	0.518
424.000	276.935	80.016	19.993	103.925	19.855	5.258	0.466
432.000	280.989	80.011	19.994	103.919	19.851	5.558	0.518
440.000	285.007	80.011	19.994	103.907	19.841	6.236	0.482
448.000	289.004	80.013	19.994	103.925	19.837	6.575	0.487
456.000	293.034	80.013	19.994	103.925	19.836	6.625	0.527
464.000	297.000	80.009	19.995	103.913	19.821	7.695	0.523
472.000	301.008	80.011	19.994	103.932	19.813	8.318	0.457
480.000	305.044	80.013	19.993	103.907	19.799	9.327	0.492
488.000	309.048	80.011	19.994	103.909	19.784	10.419	0.528
496.000	313.154	80.013	19.993	103.907	19.779	10.811	0.523
504.000	317.173	80.014	19.993	103.913	19.770	11.459	0.486
512.000	321.207	80.012	19.993	103.908	19.759	12.236	0.512
520.000	325.197	80.010	19.993	103.906	19.747	13.134	0.531
528.000	329.190	80.012	19.993	103.912	19.740	13.651	0.466
536.000	333.265	80.013	19.994	103.919	19.720	15.100	0.519
544.000	337.293	80.011	19.993	103.907	19.703	16.313	0.498
552.000	341.289	80.011	19.995	103.916	19.682	17.833	0.509
560.000	345.280	80.013	19.994	103.921	19.651	20.137	0.509
568.000	349.271	80.014	19.993	103.912	19.616	22.681	0.523
576.000	353.317	80.012	19.994	103.901	19.572	25.935	0.524
584.000	357.371	80.014	19.993	103.920	19.520	29.721	0.512
592.000	361.394	80.014	19.994	103.929	19.452	34.677	0.520
600.000	365.339	80.012	19.993	103.941	19.365	41.061	0.525
608.000	369.386	80.013	19.992	103.936	19.257	48.933	0.497
616.000	373.371	80.016	19.992	103.937	19.119	59.011	0.505
624.000	377.321	80.008	19.994	103.948	18.930	72.821	0.491
632.000	381.281	80.011	19.994	103.958	18.726	87.765	0.493
640.000	385.289	80.013	19.995	103.980	18.475	106.098	0.478
648.000	389.226	80.012	19.993	104.011	18.153	129.669	0.507
656.000	393.187	80.011	19.995	104.020	17.738	160.164	0.494
664.000	397.279	80.012	19.996	104.052	17.288	193.074	0.508
672.000	401.294	80.012	19.993	104.024	16.690	236.521	0.487
680.001	405.234	80.010	19.994	104.043	15.917	293.053	0.511
688.000	409.243	80.011	19.994	104.104	15.329	336.429	0.504
696.000	413.171	80.013	19.994	104.260	14.821	373.668	0.502
704.000	417.162	80.011	19.997	104.153	14.317	410.633	0.500
712.000	421.187	80.013	19.994	104.145	14.039	431.178	0.521
720.000	425.245	80.006	19.994	104.190	14.095	427.023	0.513
728.000	429.359	80.020	19.994	104.158	14.603	389.757	0.522
736.000	433.569	80.006	19.998	104.236	15.470	326.161	0.535
744.000	437.961	80.010	19.994	104.151	16.531	248.391	0.557
752.000	442.333	80.014	19.994	104.101	17.574	172.031	0.571
760.000	446.740	80.012	19.993	104.076	18.406	111.105	0.564
768.000	451.122	80.009	19.993	104.017	18.972	69.747	0.546
776.000	455.508	80.014	19.991	103.963	19.311	44.988	0.544
784.000	459.820	80.017	19.988	103.904	19.502	30.985	0.537
792.000	463.996	80.008	19.995	103.905	19.620	22.419	0.532
800.000	468.209	80.015	19.992	103.916	19.688	17.418	0.530
808.000	472.433	80.015	19.992	103.911	19.744	13.370	0.529
816.000	476.620	80.014	19.992	103.904	19.799	9.356	0.529
824.000	480.755	80.012	19.991	103.916	19.824	7.510	0.530
832.000	484.914	80.019	19.993	103.900	19.832	6.952	0.530
840.000	489.040	80.016	19.992	103.904	19.828	7.196	0.534
848.000	493.173	80.017	19.993	103.903	19.832	6.937	0.523
856.000	497.238	80.004	19.997	103.887	19.832	6.898	0.548
864.000	501.295	80.016	19.994	103.867	19.835	6.676	0.519
872.000	505.346	80.011	19.995	103.867	19.832	6.934	0.520
880.000	509.417	80.012	19.993	103.865	19.830	7.093	0.487
888.000	513.489	80.011	19.993	103.871	19.831	6.985	0.526
896.000	517.610	80.012	19.994	103.874	19.830	7.035	0.500
904.000	521.724	80.014	19.993	103.863	19.834	6.753	0.520
912.000	525.801	80.013	19.994	103.869	19.835	6.677	0.515
920.000	529.878	80.014	19.994	103.865	19.832	6.898	0.493
928.000	533.943	80.014	19.994	103.872	19.833	6.857	0.478
936.000	538.040	80.012	19.994	103.872	19.832	6.928	0.497
944.000	542.135	80.011	19.994	103.876	19.829	7.165	0.482
952.000	546.138	80.012	19.993	103.870	19.829	7.157	0.487
960.000	550.245	80.012	19.995	103.872	19.826	7.383	0.521
968.000	554.296	80.011	19.996	103.880	19.821	7.688	0.505
976.000	558.369	80.012	19.995	103.866	19.824	7.504	0.520
984.000	562.452	80.014	19.994	103.868	19.825	7.427	0.493
992.000	566.442	80.014	19.994	103.861	19.828	7.218	0.508
1000.000	570.474	80.013	19.994	103.873	19.826	7.364	0.496
1008.000	574.588	80.013	19.993	103.869	19.826	7.379	0.538
1016.000	578.597	80.017	19.993	103.884	19.823	7.571	0.526
1024.001	582.719	80.013	19.993	103.885	19.821	7.705	0.529
1032.000	586.716	80.011	19.994	103.881	19.818	7.954	0.531
1040.001	590.868	80.012	19.994	103.877	19.814	8.216	0.493
1048.001	595.048	80.013	19.994	103.883	19.818	7.943	0.543
1056.000	599.290	80.012	19.995	103.886	19.819	7.867	0.549
1064.000	603.545	80.013	19.995	103.879	19.814	8.250	0.501
1072.000	607.762	80.013	19.995	103.880	19.814	8.226	0.512
1080.000	611.901	80.013	19.993	103.890	19.815	8.159	0.524
1088.000	616.168	80.014	19.994	103.889	19.811	8.462	0.548
1096.000	620.369	80.014	19.993	103.873	19.813	8.295	0.575
1104.000	624.528	80.015	19.993	103.872	19.811	8.434	0.527
1112.000	628.679	80.012	19.993	103.851	19.815	8.127	0.519
1120.001	632.812	80.013	19.994	103.863	19.815	8.189	0.515
1128.000	636.921	80.014	19.995	103.862	19.812	8.379	0.506
1136.000	641.052	80.012	19.994	103.879	19.815	8.183	0.535
1144.000	645.065	80.013	19.994	103.865	19.814	8.225	0.510
1152.001	649.134	80.014	19.994	103.856	19.816	8.067	0.523
1160.000	653.183	80.014	19.994	103.850	19.813	8.324	0.520
1168.000	657.184	80.013	19.995	103.861	19.813	8.306	0.490
1176.001	661.178	80.014	19.995	103.862	19.812	8.355	0.507
1184.000	665.207	80.017	19.993	103.862	19.810	8.507	0.534
1192.000	669.190	80.014	19.994	103.862	19.810	8.497	0.475
1200.000	673.252	80.013	19.995	103.866	19.810	8.548	0.500
1208.000	677.310	80.014	19.994	103.867	19.812	8.352	0.487
1216.000	681.353	80.014	19.993	103.868	19.811	8.459	0.501
1224.000	685.378	80.012	19.994	103.869	19.807	8.773	0.503
1232.001	689.378	80.014	19.995	103.866	19.805	8.884	0.506
1240.000	693.374	80.015	19.994	103.863	19.801	9.188	0.542
1248.000	697.393	80.014	19.993	103.865	19.803	9.003	0.493
1256.000	701.447	80.014	19.995	103.863	19.803	9.039	0.566
1264.000	705.441	80.016	19.995	103.863	19.802	9.109	0.488
1272.000	709.528	80.015	19.995	103.865	19.801	9.166	0.534
1280.000	713.495	80.013	19.993	103.867	19.800	9.266	0.499
1288.000	717.576	80.014	19.993	103.873	19.797	9.493	0.487
1296.001	721.525	80.013	19.994	103.885	19.799	9.341	0.504
1304.000	725.549	80.014	19.994	103.865	19.797	9.434	0.522
1312.001	729.653	80.013	19.993	103.882	19.796	9.544	0.503
1320.001	733.708	80.016	19.993	103.875	19.793	9.761	0.507
1328.000	737.687	80.016	19.994	103.881	19.792	9.865	0.510
1336.000	741.684	80.014	19.994	103.897	19.792	9.841	0.483
1340.000	743.700	80.014	19.995	103.890	19.786	10.307	0.500