Folder: fsri_materials_database/01_Data/Polyolefin_Carpet_Low_Pile/HFM

Note: 01_Data/README.md
# Materials and Products Database
## 01_Data

Raw data generated from each apparatus are included here in plain-text format. The data is organized first by material, next by the short name of test apparatus used, and where applicable additional filtering by test settings.

### material.json

Each material directory contains a json file of the same name as the material. This file links the data stored in the repository as well as data and graphs produced by the accompanying scripts (__02_Scripts__) to the respective landing page for the material on the front-end website.

File: Polyolefin_Carpet_Low_Pile_Density_Dry_R1.csv
,Polyolefin_Carpet_Low_Pile_DRY_1
Sample Mass [g],56.5
Sample Volume [cm3],268.4
Sample Density [kg/m3],210

File: Polyolefin_Carpet_Low_Pile_Density_Dry_R2.csv
,Polyolefin_Carpet_Low_Pile_DRY_2
Sample Mass [g],58.4
Sample Volume [cm3],270.5
Sample Density [kg/m3],216

File: Polyolefin_Carpet_Low_Pile_Density_Dry_R3.csv
,Polyolefin_Carpet_Low_Pile_DRY_3
Sample Mass [g],57.1
Sample Volume [cm3],264.7
Sample Density [kg/m3],216

File: Polyolefin_Carpet_Low_Pile_Density_Wet_R2.csv
,Polyolefin_Carpet_Low_Pile_WET_2
Sample Mass [g],58.3
Sample Volume [cm3],270.5
Sample Density [kg/m3],216

File: Polyolefin_Carpet_Low_Pile_Density_Wet_R3.csv
,Polyolefin_Carpet_Low_Pile_WET_3
Sample Mass [g],57.2
Sample Volume [cm3],264.7
Sample Density [kg/m3],216