Folder: fsri_materials_database/01_Data/Exterior_Plywood/HFM

Note: 01_Data/README.md
# Materials and Products Database
## 01_Data

Raw data generated from each apparatus are included here in plain-text format. The data is organized first by material, next by the short name of test apparatus used, and where applicable additional filtering by test settings.

### material.json

Each material directory contains a json file of the same name as the material. This file links the data stored in the repository as well as data and graphs produced by the accompanying scripts (__02_Scripts__) to the respective landing page for the material on the front-end website.

File: Exterior_Plywood_Density_Wet_R1.csv
,Exterior_Plywood_1_WET
Sample Mass [g],305.1
Sample Volume [cm3],602.0
Sample Density [kg/m3],507

File: Exterior_Plywood_Density_Wet_R2.csv
,Exterior_Plywood_2_WET
Sample Mass [g],324.3
Sample Volume [cm3],602.0
Sample Density [kg/m3],539

File: Exterior_Plywood_Density_Wet_R3.csv
,Exterior_Plywood_3_WET
Sample Mass [g],316.4
Sample Volume [cm3],602.6
Sample Density [kg/m3],525

File: Exterior_Plywood_Ignition_Temp_Properties.csv
Thermal Conductivity (W/m-K),0.121
Heat Capacity (J/kg-K),1656.0
Density (kg/m3),523.667