Folder: fsri_materials_database/02_Data/Polyester_Batting/Cone

Note: README.md
# fsri_materials_database
Database of Contemporary Material Properties for Fire Investigation Analysis

File: Polyester_Batting_Cone_HF25Scalar_210324_R2.csv
LABORATORY,FSRI
TEST IDENT,PEbat_H25_2V2
OPERATOR,Morrissey
MATERIAL,1.75'' PE Batting
ORIENTATION,Horizontal
HEAT FLUX,25
SURF AREA,0.01
C FACTOR,0.0386052
SPEC HOLDER DIFF,-96.5
SPECIMEN MASS,6.1
SCAN TIME,0.25
O2 DELAY TIME,11
CO DELAY TIME,11
CO2 DELAY TIME,8
FLOW FACTOR,1
SCAN COUNT,4670
TIME TO IGN,994
END OF TEST SCAN,4190
END OF TEST TIME,1047.5
TEST STATUS,1
PRE TEST CMT,test w/o retainer grid or frame
POST TEST CMT,foil folded up towards end of test after igntion. approx half of smple remaining was covered.

File: Polyester_Batting_Cone_HF25Scan_210324_R2.csv
Names,Time,Stack TC,Smoke TC,Exh Press,Smoke Comp,Smoke Meas,CO Meter,CO2 Meter,O2 Meter,Sample Mass,Ext Coeff,Start Test,Flame Verif
Chan Gain,,500,500,1,1,1,1,1,1,1,1,1.0,1.0
Offset,,0,0,0.194005,0,0,0,0,0,0,0,0.0,0.0
Gain,,1,1,25.011,13.5067,16.616,1,1,1,1.00091,1.04608,1.0,1.0
Units,sec,C,C,Pa,%,%,%,%,%,g,/m,,
Baseline,,19.69,20.9658,167.571,101.23,100.441,0.000543829,0.093223,20.8133,-1.3423,0.0717426,,
49,12,17.7966,19.3147,169.933,100.824,99.8718,0.000398039,0.100051,20.7825,475.102,0.0870816,0.0,0.0
98,24.25,17.6184,19.1945,163.068,100.529,99.712,0.000638266,0.0946768,20.7927,475.153,0.0749074,0.0,0.0
147,36.5,18.6057,19.4846,164.715,100.231,99.2871,0.000590767,0.0925749,20.7943,475.143,0.0868161,0.0,0.0
196,48.75,18.0067,19.8194,169.471,100.051,99.1811,0.000341485,0.0916878,20.7954,475.122,0.0801095,0.0,0.0
245,61,18.2636,19.7918,167.259,100.059,99.1441,0.000313086,0.091912,20.7953,475.112,0.0842531,0.0,0.0
294,73.25,18.4112,19.9241,168.369,100.267,99.3819,0.000220601,0.0934981,20.7905,475.102,0.081376,0.0,0.0
343,85.5,18.7871,20.1249,163.625,100.599,99.6821,0.000368789,0.0945102,20.783,475.122,0.0839799,0.0,0.0
392,97.75,18.5438,19.9303,166.356,101.011,100.19,0.000639993,0.0953167,20.7808,475.082,0.0748477,0.0,0.0
441,110,18.5108,20.2409,168.062,101.484,100.453,4.31064e-05,0.0965435,20.7789,475.062,0.0937083,0.0,0.0
490,122.25,17.974,20.355,170.358,101.817,100.736,0.000308813,0.0971671,20.7764,475.082,0.0979626,0.0,0.0
539,134.5,18.8264,20.5121,165.392,101.946,100.795,0.000316353,0.100368,20.764,475.052,0.104263,0.0,0.0
588,146.75,19.0635,20.6838,174.043,101.82,100.616,0.000396656,0.100607,20.7668,475.042,0.10913,0.0,0.0
637,159,18.9817,20.4046,167.965,101.547,100.361,0.000384289,0.0995107,20.7687,475.032,0.107806,0.0,0.0
686,171.25,19.0346,20.9694,166.423,101.25,100.346,0.000445532,0.096782,20.784,475.012,0.0822845,0.0,0.0
735,183.5,19.1448,21.2237,165.999,101.32,99.8753,0.000313971,0.0966433,20.7815,475.042,0.131812,0.0,0.0
784,195.75,19.2039,20.7663,166.308,101.642,100.603,0.000119359,0.0953226,20.784,475.002,0.0943081,0.0,0.0
833,208,19.2616,20.6007,170.874,101.635,100.272,0.000414454,0.0929467,20.7913,474.982,0.12389,0.0,0.0
882,220.25,19.2728,20.9446,169.371,101.343,99.9144,0.000116958,0.0923389,20.7944,474.972,0.13024,0.0,0.0
931,232.5,19.7072,21.0717,170.693,100.764,99.5721,0.000666131,0.0927801,20.7907,474.962,0.109216,0.0,0.0
980,244.75,19.5727,21.2016,169.716,100.844,99.6324,0.000153388,0.0936753,20.7886,474.912,0.110936,0.0,0.0
1029,257,19.7378,21.374,167.201,101.079,99.7724,0.000321734,0.0938151,20.7885,474.902,0.11941,0.0,0.0
1078,269.25,19.3805,21.0719,173.507,101.283,99.89,0.000401648,0.0937199,20.7866,474.922,0.127063,0.0,0.0
1127,281.5,19.1647,21.0417,166.663,101.351,99.8839,0.000294065,0.0945659,20.7835,474.892,0.133781,0.0,0.0
1176,293.75,19.6234,21.2842,164.665,101.271,99.6319,0.000261667,0.0943357,20.7843,474.852,0.149719,0.0,0.0
1225,306,19.8708,21.5858,163.73,101.041,99.461,0.000493617,0.0936701,20.7865,474.832,0.144608,0.0,0.0
1274,318.25,19.316,21.2398,166.601,100.715,99.0929,0.000513181,0.0931133,20.7897,474.792,0.149016,0.0,0.0
1323,330.5,19.2936,21.7018,162.125,100.326,98.8753,0.000432709,0.0935901,20.7865,474.772,0.133624,0.0,0.0
1372,342.75,19.5179,21.695,166.141,100.077,98.6142,0.000392116,0.0930907,20.7906,474.772,0.135091,0.0,0.0
1421,355,19.4038,20.9509,166.666,100.033,98.0919,0.000819743,0.0932802,20.7891,474.772,0.179775,0.0,0.0
1470,367.25,19.3341,21.3764,167.575,100.235,98.7374,0.000508985,0.0931401,20.7884,474.732,0.138097,0.0,0.0
1519,379.5,19.6778,21.4112,163.356,100.583,98.9352,0.000438007,0.0952153,20.787,474.732,0.151567,0.0,0.0
1568,391.75,20.2195,21.6978,166.311,101.024,99.3976,0.000542724,0.0971999,20.7802,474.702,0.148961,0.0,0.0
1617,404,20.3363,21.2923,166.719,101.434,99.7866,0.000481851,0.0967672,20.7847,474.672,0.150265,0.0,0.0
1666,416.25,20.4417,22.1751,166.492,101.717,100.14,0.000391474,0.0966361,20.786,474.652,0.143367,0.0,0.0
1715,428.5,20.9412,21.9513,165.318,101.918,100.206,0.00088404,0.0950566,20.7878,474.612,0.155446,0.0,0.0
1764,440.75,20.5596,22.1364,164.8,101.971,100.102,0.000524308,0.100939,20.7793,474.602,0.169729,0.0,0.0
1813,453,19.9637,22.267,164.341,101.896,100.368,0.000404065,0.0979501,20.7859,474.552,0.138604,0.0,0.0
1862,465.25,20.032,22.402,169.632,101.726,99.9975,0.000452966,0.0963191,20.7822,474.562,0.157213,0.0,0.0
1911,477.5,20.1865,22.4075,171.509,101.503,99.8003,0.000687948,0.0965286,20.7793,474.512,0.155269,0.0,0.0
1960,489.75,21.119,21.9361,171.696,101.322,99.6628,0.00038802,0.0959047,20.7786,474.492,0.151464,0.0,0.0
2009,502,20.5187,22.2353,163.363,101.159,99.4326,0.000296191,0.0968414,20.7815,474.472,0.157928,0.0,0.0
2058,514.25,20.4234,22.6636,162.313,101.477,99.9742,0.000144767,0.0946904,20.7852,474.432,0.136943,0.0,0.0
2107,526.5,20.119,22.0076,163.242,101.672,99.7343,0.000472465,0.0965179,20.775,474.432,0.176522,0.0,0.0
2156,538.75,20.8797,21.8747,163.77,101.715,99.9438,0.000807155,0.0970883,20.7736,474.392,0.161217,0.0,0.0
2205,551,20.5819,22.7703,170.883,101.653,100.146,0.000410037,0.0989987,20.7743,474.352,0.137043,0.0,0.0
2254,563.25,20.6208,22.6437,164.511,101.481,99.8089,0.000419238,0.099393,20.7724,474.332,0.152464,0.0,0.0
2303,575.5,20.5517,22.5809,171.039,101.248,99.6309,0.000672568,0.10027,20.7679,474.292,0.147722,0.0,0.0
2352,587.75,20.3252,22.1254,170.709,101.001,99.3708,0.000573262,0.101723,20.7615,474.262,0.149345,0.0,0.0
2401,600,20.5716,22.4277,169.274,100.772,99.0427,0.000704386,0.101693,20.7624,474.262,0.158845,0.0,0.0
2450,612.25,20.7683,22.1338,162.862,100.806,99.1289,0.000495364,0.100729,20.7665,474.232,0.15394,0.0,0.0
2499,624.5,20.2252,22.3701,165.073,100.831,99.4113,0.000436673,0.102271,20.7613,474.202,0.130121,0.0,0.0
2548,636.75,20.6455,22.6107,165.821,100.878,99.2171,0.00019978,0.102136,20.7592,474.142,0.152303,0.0,0.0
2597,649,20.6313,22.6314,166.699,100.921,99.3637,0.000443536,0.10164,20.7574,474.122,0.142695,0.0,0.0
2646,661.25,20.1362,22.5802,167.28,100.96,99.28,0.00027713,0.100396,20.7616,474.112,0.153984,0.0,0.0
2695,673.5,20.2737,22.2712,165.742,101.004,99.1304,0.000512289,0.100677,20.7593,474.112,0.171791,0.0,0.0
2744,685.75,20.7284,21.9664,165.505,101.046,99.3246,9.83848e-05,0.0993635,20.7639,474.042,0.157688,0.0,0.0
2793,698,20.8042,22.3518,164.863,101.108,99.4732,0.000374788,0.100183,20.7602,474.032,0.149547,0.0,0.0
2842,710.25,20.7204,22.7766,165.844,101.13,98.7567,0.000589046,0.102122,20.7533,474.001,0.217902,0.0,0.0
2891,722.5,20.3694,22.3244,161.301,101.163,99.5604,0.000686067,0.103218,20.751,473.961,0.146517,0.0,0.0
2940,734.75,20.6955,22.5211,167.125,101.218,99.6557,0.000604955,0.103041,20.75,473.941,0.142707,0.0,0.0
2989,747,20.6434,22.7573,164.338,101.223,99.7754,0.000418292,0.103754,20.7463,473.911,0.132143,0.0,0.0
3038,759.25,20.2646,22.1333,165.653,101.249,99.7769,0.000568052,0.102975,20.7493,473.901,0.134432,0.0,0.0
3087,771.5,20.8305,22.5344,166.731,101.258,99.8292,0.000542809,0.102735,20.7489,473.851,0.130451,0.0,0.0
3136,783.75,20.6137,22.2421,164.078,101.295,99.7166,0.000669817,0.102204,20.7527,473.831,0.144128,0.0,0.0
3185,796,20.7876,22.7542,164.071,101.305,99.7967,0.000178996,0.101923,20.7544,473.781,0.137616,0.0,0.0
3234,808.25,20.7086,22.4931,169.423,101.304,99.818,0.000712747,0.102353,20.7486,473.801,0.135622,0.0,0.0
3283,820.5,21.0499,22.324,165.944,101.314,99.5989,0.000576326,0.102239,20.7495,473.741,0.15664,0.0,0.0
3332,832.75,20.832,22.8121,168.532,101.315,99.5472,0.000980407,0.102894,20.7482,473.761,0.161555,0.0,0.0
3381,845,20.9513,23.0981,165.747,101.315,99.8175,0.000221567,0.103727,20.7431,473.711,0.136639,0.0,0.0
3430,857.25,21.0618,22.7624,164.205,101.305,99.9103,0.00024295,0.102743,20.7469,473.691,0.127216,0.0,0.0
3479,869.5,21.0152,22.646,165.076,101.273,99.7536,0.000517103,0.102035,20.7472,473.681,0.138742,0.0,0.0
3528,881.75,20.5267,22.7531,162.662,101.263,99.7749,0.000458854,0.10316,20.7416,473.651,0.135813,0.0,0.0
3577,894,20.8505,22.5195,171.438,101.276,99.8266,0.000425742,0.103691,20.7428,473.601,0.132252,0.0,0.0
3626,906.25,20.7746,22.3269,161.574,101.302,99.7359,0.000495421,0.102634,20.7464,473.591,0.142989,0.0,0.0
3675,918.5,20.558,22.7298,165.789,101.315,99.6806,0.000238129,0.102751,20.7464,473.561,0.149196,0.0,0.0
3724,930.75,20.827,22.03,168.018,101.334,99.671,0.00047424,0.102027,20.7497,473.571,0.151801,0.0,0.0
3773,943,20.7083,22.5201,163.158,101.335,99.7338,0.000875183,0.102908,20.743,473.531,0.146124,0.0,0.0
3822,955.25,20.8495,22.1284,164.703,101.347,99.8185,0.000374801,0.102608,20.7438,473.521,0.139457,0.0,0.0
3871,967.5,20.5275,22.3746,165.649,101.359,99.7911,0.000442658,0.102878,20.7454,473.471,0.143057,0.0,0.0
3920,979.75,20.9868,22.6708,161.463,101.349,99.8763,0.000394912,0.106361,20.7346,473.451,0.134294,0.0,0.0
3969,992,20.4664,22.4229,168.017,101.352,99.7678,0.000580706,0.110074,20.7298,473.381,0.144567,0.0,0.0
4018,1004.25,26.33,33.0769,150.478,101.339,74.6319,0.0179501,0.477969,20.2197,471.829,2.80703,0.0,0.0
4067,1016.5,32.8025,41.2701,157.179,101.322,89.6044,0.0157644,0.517487,20.3062,470.368,1.12777,0.0,0.0
4116,1028.75,29.5149,35.6892,167.645,101.289,97.457,0.00521266,0.313548,20.5411,469.838,0.353925,0.0,0.0
4165,1041,25.8991,29.1164,166.777,101.23,100.498,0.00153255,0.164061,20.6957,469.848,0.0665623,0.0,0.0
4214,1053.25,22.7587,24.3324,170.126,101.149,100.569,0.000416939,0.120969,20.7275,469.878,0.0527557,0.0,0.0
4263,1065.5,21.4101,22.795,165.37,101.072,100.316,-3.76599e-05,0.108381,20.7328,469.908,0.0689152,0.0,0.0
4312,1077.75,20.9563,21.9857,165.608,100.997,100.059,0.000305135,0.106476,20.7292,469.908,0.0855634,0.0,0.0
4361,1090,20.2484,21.1632,166.176,100.942,100.191,0.000155579,0.106995,20.7267,469.888,0.0684994,0.0,0.0
4410,1102.25,20.311,21.3258,166.736,100.857,100.056,0.000356444,0.107794,20.7222,469.898,0.0731854,0.0,0.0
4459,1114.5,19.2779,20.8761,165.383,100.813,100.065,-3.6675e-05,0.109393,20.7177,469.908,0.0682964,0.0,0.0
4508,1126.75,19.4362,20.7627,165.588,100.74,99.889,0.000128014,0.109092,20.7194,469.918,0.0778418,0.0,0.0
4557,1139,19.0519,20.438,169.422,100.666,99.9874,0.000229268,0.108177,20.7218,469.888,0.0620478,0.0,0.0
4606,1151.25,19.5667,20.4789,167.923,100.549,99.7714,5.2889e-05,0.10804,20.7215,469.898,0.0712546,0.0,0.0
4655,1163.5,19.0086,20.6419,170.283,100.45,99.5574,,,,469.908,0.0819246,0.0,0.0
4670,1167.25,18.9928,20.1208,169.984,100.383,99.4859,,,,469.898,0.0824146,0.0,0.0

File: Polyester_Batting_Cone_HF50Scalar_210326_R3.csv
LABORATORY,FSRI
TEST IDENT,PEbat_HF50_3
OPERATOR,Dow
MATERIAL,"PE batting, 1.75 inch thick"
ORIENTATION,Horizontal
HEAT FLUX,50
SURF AREA,0.01
C FACTOR,0.0386052
SPEC HOLDER DIFF,-85.82
SPECIMEN MASS,6.41
SCAN TIME,0.25
O2 DELAY TIME,11
CO DELAY TIME,11
CO2 DELAY TIME,8
FLOW FACTOR,1
SCAN COUNT,815
TIME TO IGN,49.25
END OF TEST SCAN,335
END OF TEST TIME,83.75
TEST STATUS,1
PRE TEST CMT,without frame or grid
POST TEST CMT,same as other replicates

File: Polyester_Batting_Cone_HF50Scan_210326_R1.csv
Names,Time,Stack TC,Smoke TC,Exh Press,Smoke Comp,Smoke Meas,CO Meter,CO2 Meter,O2 Meter,Sample Mass,Ext Coeff,Start Test,Flame Verif
Chan Gain,,500,500,1,1,1,1,1,1,1,1,1.0,1.0
Offset,,0,0,0.138348,0,0,0,0,0,0,0,0.0,0.0
Gain,,1,1,25.011,13.5067,16.616,1,1,1,1.00091,1.04608,1.0,1.0
Units,sec,C,C,Pa,%,%,%,%,%,g,/m,,
Baseline,,32.4263,34.4698,162.486,101.121,98.4176,-0.00137247,0.0456747,20.9619,0.00154307,0.248669,,
8,1.75,30.1543,32.0136,161.984,101.116,98.4631,-0.00129337,0.0477074,20.9548,474.282,0.243951,0.0,0.0
16,3.75,30.6297,31.588,162.463,101.121,98.4068,-0.00130852,0.0499573,20.9511,474.272,0.249685,0.0,0.0
24,5.75,30.8576,32.1688,161.496,101.133,99.1593,-0.00135104,0.0526024,20.9486,474.242,0.180867,0.0,0.0
32,7.75,30.4369,32.9342,161.466,101.164,98.5209,-0.00140992,0.0551523,20.9459,474.222,0.242941,0.0,0.0
40,9.75,30.7422,32.5975,166.335,101.163,98.4555,-0.00136618,0.0572354,20.9425,474.222,0.248961,0.0,0.0
48,11.75,31.2712,33.2488,165.766,101.168,98.2516,-0.00122788,0.058654,20.9409,474.212,0.268427,0.0,0.0
56,13.75,30.8655,33.0451,157.67,101.176,98.3059,-0.00108068,0.05963,20.9413,474.192,0.264035,0.0,0.0
64,15.75,31.2514,33.4931,161.651,101.19,97.4195,-0.000950957,0.0600268,20.9416,474.192,0.348454,0.0,0.0
72,17.75,31.2201,33.7696,162.896,101.209,97.7907,-0.000904001,0.0598264,20.9436,474.192,0.315315,0.0,0.0
80,19.75,31.2349,33.5594,162.927,101.229,98.1573,-0.000945564,0.0592584,20.9465,474.212,0.282735,0.0,0.0
88,21.75,31.563,33.6347,160.824,101.238,97.6964,-0.00105094,0.0583367,20.9478,474.192,0.326748,0.0,0.0
96,23.75,31.5541,34.0024,163.301,101.266,97.4053,-0.00109698,0.057032,20.9504,474.192,0.356629,0.0,0.0
104,25.75,31.2923,34.0158,163.387,101.284,97.1061,-0.000935718,0.0555824,20.9522,474.162,0.386538,0.0,0.0
112,27.75,31.8864,34.1826,163.501,101.3,95.6513,-0.000688044,0.0543863,20.9529,474.162,0.52647,0.0,0.0
120,29.75,31.8967,34.1943,161.441,101.322,95.9165,-0.000433369,0.0541182,20.9533,474.132,0.503079,0.0,0.0
128,31.75,31.9363,33.6217,161.775,101.344,94.9171,-0.00010853,0.0556501,20.9478,474.062,0.601212,0.0,0.0
136,33.75,32.0753,34.2689,160.258,101.369,93.6276,0.000289669,0.0585464,20.9379,474.062,0.728932,0.0,0.0
144,35.75,31.5832,34.4382,159.567,101.395,94.4531,0.000814224,0.062792,20.9307,473.991,0.650804,0.0,0.0
152,37.75,31.7224,35.5241,151.937,101.44,86.3175,0.00298185,0.074242,20.9109,473.691,1.48133,0.0,1.0
160,39.75,33.7679,37.4204,148.797,101.457,72.4165,0.006352,0.1316,20.7628,473.241,3.09418,0.0,1.0
168,41.75,34.2804,39.6771,145.268,101.48,76.8859,0.00964014,0.226466,20.6011,472.931,2.54672,0.0,0.0
176,43.75,36.6821,42.6357,142.399,101.503,69.0626,0.0128811,0.312288,20.4928,472.54,3.53352,0.0,0.0
184,45.75,39.209,46.5678,142.179,101.528,64.6972,0.0167557,0.396286,20.3756,472.13,4.13488,0.0,0.0
192,47.75,41.3844,49.8418,137.65,101.548,66.1723,0.0208858,0.478991,20.2704,471.719,3.92984,0.0,0.0
200,49.75,43.3401,53.8286,150.286,101.593,64.6125,0.0247623,0.554807,20.2005,471.329,4.15278,0.0,0.0
208,51.75,45.8675,56.5695,136.658,101.601,55.1312,0.0281998,0.613254,20.1458,470.789,5.60975,0.0,0.0
216,53.75,47.6799,60.1092,132.542,101.62,59.2334,0.0308961,0.678536,20.0677,470.338,4.95289,0.0,0.0
224,55.75,49.4514,63.0558,136.36,101.639,55.9105,0.032748,0.742111,20.0173,469.868,5.48436,0.0,0.0
232,57.75,52.2399,66.9377,127.188,101.661,61.8667,0.0333823,0.807493,19.96,469.407,4.55745,0.0,0.0
240,59.75,54.4134,69.8027,141.802,101.696,72.8815,0.0314987,0.841955,19.9457,469.107,3.05708,0.0,0.0
248,61.75,54.4331,69.8149,146.984,101.697,79.2296,0.0256,0.81424,20.0326,468.927,2.29077,0.0,0.0
256,63.75,53.0754,67.8694,154.553,101.717,91.5501,0.0189191,0.725648,20.2119,468.847,0.966309,0.0,0.0
264,65.75,51.7658,64.809,155.218,101.73,98.0072,0.0126817,0.616081,20.4323,468.857,0.342063,0.0,0.0
272,67.75,50.2267,62.6345,158.036,101.765,100.107,0.00880187,0.495721,20.5911,468.857,0.150774,0.0,0.0
280,69.75,48.2966,58.9134,158.92,101.762,99.1553,0.00601261,0.409465,20.7091,468.877,0.238137,0.0,0.0
288,71.75,46.8934,57.1206,160.777,101.791,99.639,0.0043948,0.329376,20.7878,468.897,0.196043,0.0,0.0
296,73.75,45.3563,54.8314,156.815,101.806,99.7217,0.00337353,0.269037,20.8347,468.877,0.189809,0.0,0.0
304,75.75,44.8715,53.3171,158.133,101.838,99.2151,0.0025342,0.223374,20.8632,468.897,0.239438,0.0,0.0
312,77.75,43.4645,51.1576,160.235,101.857,99.4402,0.00184294,0.188936,20.881,468.907,0.220348,0.0,0.0
320,79.75,43.2318,50.2832,157.479,101.874,99.2683,0.00116536,0.16424,20.894,468.907,0.237783,0.0,0.0
328,81.75,42.1796,49.1212,161.67,101.889,99.5929,0.00065765,0.143809,20.9061,468.937,0.209132,0.0,0.0
336,83.75,41.3694,47.9112,158.84,101.922,99.4849,0.000332338,0.127056,20.9139,468.927,0.222058,0.0,0.0
344,85.75,40.8608,46.0269,157.666,101.96,99.2764,0.000192566,0.114452,20.9206,468.917,0.244715,0.0,0.0
352,87.75,40.1397,45.567,153.532,101.969,99.6233,0.000153709,0.103878,20.9277,468.897,0.213565,0.0,0.0
360,89.75,39.5252,44.7178,160.745,101.99,99.2835,1.30004e-05,0.094764,20.9343,468.897,0.246804,0.0,0.0
368,91.75,39.0677,43.9741,156.756,102.019,100.109,-0.000184978,0.0872453,20.9386,468.897,0.173464,0.0,0.0
376,93.75,38.5604,42.9666,156.508,102.04,99.3667,-0.000254235,0.081378,20.9412,468.897,0.243607,0.0,0.0
384,95.75,38.2167,42.4162,155.531,102.057,99.605,-0.000183703,0.0769195,20.9439,468.917,0.223181,0.0,0.0
392,97.75,37.6149,42.0382,160.099,102.076,100.073,-0.000110036,0.0725871,20.9453,468.907,0.181878,0.0,0.0
400,99.75,37.2958,41.6325,156.615,102.109,100.634,-0.000123284,0.0690071,20.9471,468.907,0.133468,0.0,0.0
408,101.75,38.037,40.8204,159.586,102.118,99.7871,-0.000263982,0.0662991,20.9486,468.907,0.21191,0.0,0.0
416,103.75,36.9666,40.5824,163.464,102.157,100.51,-0.000402305,0.0638814,20.9498,468.917,0.149145,0.0,0.0
424,105.75,37.3025,39.7285,157.022,102.166,99.8799,-0.000478989,0.0618286,20.9503,468.897,0.207676,0.0,0.0
432,107.75,36.6918,39.6991,159.762,102.174,100.751,-0.0005409,0.0602638,20.9518,468.907,0.128775,0.0,0.0
440,109.75,36.2412,39.5315,159.012,102.196,99.5807,-0.000552181,0.0587728,20.9525,468.897,0.237905,0.0,0.0
448,111.75,36.1272,39.1941,165.037,102.212,100.094,-0.00052313,0.0574731,20.9528,468.907,0.192136,0.0,0.0
456,113.75,36.2734,38.5569,164.459,102.228,99.9828,-0.000564513,0.0563646,20.953,468.897,0.203812,0.0,0.0
464,115.75,35.4701,38.6567,163.451,102.254,100.027,-0.00064055,0.0554689,20.9545,468.887,0.201975,0.0,0.0
472,117.75,35.1625,38.6499,161.638,102.266,100.448,-0.000698148,0.0544979,20.9555,468.897,0.164639,0.0,0.0
480,119.75,35.9786,38.2806,159.805,102.276,99.5903,-0.000810751,0.053653,20.956,468.917,0.244157,0.0,0.0
488,121.75,35.2397,38.0047,163.097,102.285,100,-0.00093729,0.053155,20.9561,468.897,0.207334,0.0,0.0
496,123.75,35.5338,37.8531,157.641,102.3,100.673,-0.00103845,0.0525638,20.9576,468.907,0.147044,0.0,0.0
504,125.75,35.6,38.0237,158.965,102.308,99.8667,-0.00105392,0.0519448,20.9582,468.897,0.22165,0.0,0.0
512,127.75,35.4066,38.1815,159.78,102.31,99.5589,-0.00097494,0.0513943,20.9581,468.907,0.25016,0.0,0.0
520,129.75,35.0311,37.9219,161.66,102.317,100.24,-0.000836416,0.0508502,20.9575,468.897,0.188236,0.0,0.0
528,131.75,34.514,37.472,161.339,102.32,100.559,-0.000707361,0.0506135,20.9563,468.897,0.15926,0.0,0.0
536,133.75,34.8217,37.5862,159.333,102.31,99.604,-0.000708252,0.0503653,20.9558,468.897,0.245964,0.0,0.0
544,135.75,34.6209,36.8015,160.017,102.313,99.9037,-0.000759369,0.0499254,20.9556,468.887,0.218694,0.0,0.0
552,137.75,34.9051,37.1363,158.668,102.321,100.738,-0.000773685,0.0496951,20.9555,468.877,0.143051,0.0,0.0
560,139.75,34.8336,37.0739,157.579,102.321,99.349,-0.000787835,0.0495487,20.9557,468.867,0.270454,0.0,0.0
568,141.75,34.3781,36.9809,159.481,102.312,100.288,-0.000764678,0.0494386,20.9569,468.887,0.183394,0.0,0.0
576,143.75,34.4118,36.5498,161.746,102.312,99.8895,-0.000682981,0.0493584,20.9574,468.897,0.219925,0.0,0.0
584,145.75,34.5391,36.9204,157.558,102.3,99.71,-0.000623729,0.0492798,20.9563,468.907,0.235319,0.0,0.0
592,147.75,34.3514,37.02,160.771,102.299,99.7927,-0.0005518,0.0490752,20.9558,468.877,0.227642,0.0,0.0
600,149.75,34.2762,36.8165,160.9,102.287,100.785,-0.000483457,0.048914,20.9558,468.887,0.135698,0.0,0.0
608,151.75,34.5246,36.6713,159.555,102.274,100.184,-0.000490175,0.0489974,20.9569,468.887,0.18946,0.0,0.0
616,153.75,34.0687,36.8666,154.175,102.262,100.205,-0.000626215,0.0490075,20.9598,468.897,0.186438,0.0,0.0
624,155.75,34.225,36.6488,160.303,102.25,99.9062,-0.000770989,0.0489809,20.9601,468.877,0.212803,0.0,0.0
632,157.75,34.2162,36.5863,159.333,102.236,100.356,-0.000839616,0.0490337,20.9603,468.887,0.170374,0.0,0.0
640,159.75,33.9842,36.3921,160.615,102.231,99.7455,-0.000881733,0.0488774,20.9604,468.897,0.22584,0.0,0.0
648,161.75,34.3589,36.5104,152.931,102.208,99.3936,-0.000815459,0.0487429,20.9604,468.887,0.256236,0.0,0.0
656,163.75,34.2034,36.5257,161.435,102.199,99.6958,-0.000619994,0.0487319,20.9604,468.887,0.227563,0.0,0.0
664,165.75,34.0845,36.7404,163.628,102.173,100.129,-0.000539023,0.0491167,20.9604,468.917,0.185376,0.0,0.0
672,167.75,33.6176,36.4166,159.864,102.14,99.7414,-0.000660937,0.0497302,20.9602,468.907,0.218069,0.0,0.0
680,169.75,33.6057,36.6947,159.443,102.129,100.184,-0.000843049,0.0507232,20.959,468.897,0.176434,0.0,0.0
688,171.75,34.2749,36.2054,161.779,102.098,99.8976,-0.000889068,0.0525231,20.955,468.897,0.199935,0.0,0.0
696,173.75,33.918,36.7386,157.306,102.082,99.5903,-0.000747038,0.0545015,20.9515,468.887,0.226723,0.0,0.0
704,175.75,34.0729,35.7345,161.456,102.068,99.8109,-0.000622493,0.0557103,20.9499,468.877,0.205236,0.0,0.0
712,177.75,33.5929,36.1453,158.405,102.042,100.094,-0.000466343,0.056283,20.9489,468.877,0.176877,0.0,0.0
720,179.75,33.9844,36.8886,161.544,102.013,99.2435,,0.0564324,,468.877,0.252584,0.0,0.0
728,181.75,34.3837,36.2272,158.433,101.987,99.104,,,,468.867,0.263112,0.0,0.0
736,183.75,34.1464,36.5167,159.238,101.987,100.032,,,,468.867,0.17763,0.0,0.0
744,185.75,34.4137,36.7325,164.266,101.961,99.6304,,,,468.867,0.21217,0.0,0.0
752,187.75,33.4021,35.9729,162.036,101.933,100.148,,,,468.857,0.162171,0.0,0.0
758,189.25,34.5502,35.6264,161.716,101.932,99.5579,,,,468.857,0.216253,0.0,0.0