Folder: fsri_materials_database/02_Data/Polyester_Batting/Cone (part 2)

File: Polyester_Batting_Cone_HF75Scan_210325_R1.csv
Names,Time,Stack TC,Smoke TC,Exh Press,Smoke Comp,Smoke Meas,CO Meter,CO2 Meter,O2 Meter,Sample Mass,Ext Coeff,Start Test,Flame Verif
Chan Gain,,500,500,1,1,1,1,1,1,1,1,1.0,1.0
Offset,,0,0,0.138348,0,0,0,0,0,0,0,0.0,0.0
Gain,,1,1,25.011,13.5067,16.616,1,1,1,1.00091,1.04608,1.0,1.0
Units,sec,C,C,Pa,%,%,%,%,%,g,/m,,
Baseline,,40.4277,43.8252,157.739,102.255,99.8053,-0.000853605,0.0833478,20.8606,-1.7654,0.222541,,
8,1.75,35.7766,38.3085,159.894,102.24,99.5381,-0.000676007,0.0922626,20.854,475.082,0.245752,0.0,0.0
16,3.75,36.7864,38.872,157.538,102.234,99.7151,-0.000589438,0.092018,20.8559,474.992,0.228898,0.0,0.0
24,5.75,36.6486,39.2741,156.086,102.243,99.5832,-0.000477504,0.0911641,20.8581,475.032,0.241853,0.0,0.0
32,7.75,37.2587,40.2321,160.659,102.26,99.7673,-0.000358237,0.0901036,20.859,474.952,0.22646,0.0,0.0
40,9.75,37.5758,39.7452,155.965,102.242,99.0995,-0.000250063,0.0891555,20.8594,474.922,0.2865,0.0,0.0
48,11.75,37.7141,40.6849,155.591,102.24,98.6857,-9.74138e-05,0.08814,20.8598,474.922,0.324672,0.0,0.0
56,13.75,37.9069,40.6788,158.385,102.234,96.7203,0.0002716,0.0873303,20.8586,474.932,0.508751,0.0,0.0
64,15.75,38.0243,41.3942,153.14,102.244,95.5438,0.00118086,0.0896371,20.846,474.622,0.621934,0.0,1.0
72,17.75,38.6371,43.3772,148.702,102.261,89.004,0.00245323,0.104553,20.7908,474.632,1.27407,0.0,1.0
80,19.75,39.7017,44.2924,146.236,102.266,82.52,0.0043187,0.150126,20.6868,474.182,1.96864,0.0,1.0
88,21.75,40.1546,46.7041,149.703,102.274,73.4205,0.00711544,0.214605,20.5947,473.841,3.04142,0.0,0.0
96,23.75,42.5296,50.6648,140.026,102.267,59.1406,0.0127055,0.291694,20.4829,473.501,5.02549,0.0,0.0
104,25.75,45.8435,55.6422,137.212,102.273,58.5144,0.0187914,0.400161,20.3111,472.951,5.12373,0.0,0.0
112,27.75,48.9791,60.2482,134.366,102.279,56.1803,0.0245322,0.514852,20.1391,472.51,5.49773,0.0,0.0
120,29.75,51.3204,64.3605,138.774,102.276,53.7504,0.0280143,0.627531,20.0299,472.05,5.9032,0.0,0.0
128,31.75,53.768,68.389,130.562,102.277,52.3199,0.0305623,0.714504,19.9572,471.589,6.15083,0.0,0.0
136,33.75,55.8702,71.8603,131.498,102.284,51.86,0.0327319,0.79778,19.8734,471.109,6.23244,0.0,0.0
144,35.75,58.7169,75.5562,126.513,102.288,53.5815,0.0339083,0.871071,19.8038,470.568,5.93315,0.0,0.0
152,37.75,60.4778,77.8361,140.579,102.287,64.7286,0.0319445,0.934104,19.7794,470.158,4.19883,0.0,0.0
160,39.75,60.6982,78.6557,140.151,102.288,68.3396,0.0277284,0.947553,19.8363,469.858,3.70074,0.0,0.0
168,41.75,60.9901,78.7472,142.825,102.285,73.998,0.0228053,0.915252,19.9386,469.628,2.97056,0.0,0.0
176,43.75,61.1123,78.0097,144.203,102.283,77.4959,0.0180213,0.852861,20.0507,469.407,2.54653,0.0,0.0
184,45.75,60.4468,76.5998,143.916,102.287,81.661,0.0142869,0.776507,20.1795,469.227,2.06647,0.0,0.0
192,47.75,59.8208,75.2719,146.604,102.298,85.8982,0.0113908,0.685326,20.2976,469.157,1.60329,0.0,0.0
200,49.75,58.4949,73.4421,148.4,102.301,93.1666,0.00868492,0.593389,20.4049,469.077,0.858234,0.0,0.0
208,51.75,57.4555,71.078,153.626,102.298,97.3678,0.00671016,0.509821,20.4907,469.027,0.453219,0.0,0.0
216,53.75,56.0186,68.5972,154.303,102.297,99.6233,0.00557244,0.432255,20.5837,469.047,0.243044,0.0,0.0
224,55.75,54.8319,66.2446,154.108,102.314,100.124,0.00510323,0.36323,20.6553,469.027,0.19853,0.0,0.0
232,57.75,53.4778,64.1731,153.155,102.305,99.8165,0.00493973,0.305699,20.7018,469.067,0.225932,0.0,0.0
240,59.75,52.1266,61.6849,152.891,102.302,99.9864,0.00498395,0.262377,20.7348,469.037,0.210069,0.0,0.0
248,61.75,50.1933,60.0349,151.868,102.298,100.438,0.00528662,0.226774,20.7583,469.027,0.168367,0.0,0.0
256,63.75,49.8528,58.8987,150.495,102.301,100.164,0.00565518,0.200207,20.7733,468.997,0.193713,0.0,0.0
264,65.75,49.4242,56.8675,157.062,102.309,100.197,0.00583228,0.180782,20.7839,468.987,0.191443,0.0,0.0
272,67.75,48.5716,56.3429,154.191,102.297,100.065,0.00571831,0.165727,20.7922,468.937,0.202407,0.0,0.0
280,69.75,47.8607,55.0546,157.013,102.298,100.054,0.00555142,0.153733,20.7978,468.947,0.203466,0.0,0.0
288,71.75,47.1463,54.41,155.677,102.305,100.365,0.00547142,0.144554,20.8019,468.957,0.175668,0.0,0.0
296,73.75,46.6167,53.3604,154.222,102.303,100.24,0.00547609,0.137999,20.806,468.987,0.186978,0.0,0.0
304,75.75,46.9575,52.3138,155.423,102.305,100.201,0.00553058,0.132091,20.8099,468.957,0.190701,0.0,0.0
312,77.75,46.4578,51.8617,154.809,102.312,100.48,0.00561301,0.127869,20.8136,468.977,0.165825,0.0,0.0
320,79.75,45.1598,51.1717,158.891,102.305,100.102,0.00570157,0.123981,20.8165,468.937,0.199678,0.0,0.0
328,81.75,45.4133,50.6214,156.319,102.301,100.137,0.00569737,0.120714,20.819,468.907,0.196175,0.0,0.0
336,83.75,44.8082,49.8336,155.529,102.309,100.218,0.00558043,0.118219,20.8202,468.907,0.189502,0.0,0.0
344,85.75,44.5134,49.5461,154.093,102.308,100.036,0.00558075,0.116284,20.8217,468.847,0.206065,0.0,0.0
352,87.75,44.3821,49.3174,152.043,102.301,100.222,0.00568524,0.114668,20.8225,468.887,0.188428,0.0,0.0
360,89.75,44.2623,48.7145,154.755,102.31,100.183,0.00566467,0.113338,20.8239,468.877,0.192817,0.0,0.0
368,91.75,43.7327,48.5816,153.795,102.321,100.401,0.0054635,0.112416,20.8249,468.907,0.173782,0.0,0.0
376,93.75,43.3472,47.952,155.943,102.31,100.296,0.00533893,0.111569,20.8253,468.867,0.182419,0.0,0.0
384,95.75,43.3139,47.5604,156.69,102.321,100.455,0.00540612,0.111009,20.8261,468.827,0.168862,0.0,0.0
392,97.75,42.845,47.2085,154.851,102.324,100.026,0.00551722,0.110637,20.8268,468.827,0.208473,0.0,0.0
400,99.75,43.1818,47.4893,155.905,102.337,99.9316,0.00559897,0.110179,20.8271,468.807,0.218239,0.0,0.0
408,101.75,43.0736,47.4661,154.721,102.313,100.073,0.00555235,0.109781,20.8272,468.827,0.20316,0.0,0.0
416,103.75,42.9718,47.289,154.643,102.325,99.7435,0.00542343,0.109278,20.8273,468.837,0.234494,0.0,0.0
424,105.75,42.4993,47.2019,156.295,102.317,100.129,0.00530125,0.108805,20.8271,468.857,0.19836,0.0,0.0
432,107.75,42.7265,46.7823,158.429,102.348,100.094,0.00522913,0.108225,20.8267,468.877,0.204386,0.0,0.0
440,109.75,42.4971,46.6959,157.189,102.326,99.8094,0.0052539,0.107827,20.8266,468.837,0.228543,0.0,0.0
448,111.75,42.7676,46.7166,157.27,102.329,99.9559,0.00528079,0.107554,20.8267,468.837,0.215302,0.0,0.0
456,113.75,42.0865,46.3979,153.393,102.325,100.385,0.00525065,0.107283,20.8279,468.777,0.175625,0.0,0.0
464,115.75,42.5183,46.7023,159.376,102.315,100.201,0.00526544,0.107096,20.8284,468.837,0.191543,0.0,0.0
472,117.75,42.8781,46.3656,155.738,102.318,100.029,0.00518397,0.106757,20.8286,468.807,0.20764,0.0,0.0
480,119.75,42.9889,46.4094,155.057,102.335,99.959,0.00494293,0.106365,20.8302,468.787,0.215577,0.0,0.0
488,121.75,42.6702,46.3881,151.16,102.317,100.188,0.00492737,0.106088,20.831,468.837,0.192944,0.0,0.0
496,123.75,42.3308,46.5139,153.078,102.315,100.323,0.00502627,0.105744,20.8313,468.727,0.180367,0.0,0.0
504,125.75,42.2802,46.5628,154.502,102.316,100.064,0.00504022,0.105325,20.8331,468.717,0.204246,0.0,0.0
512,127.75,41.8783,45.9191,157.665,102.309,100.341,0.00485908,0.10475,20.8349,468.757,0.178226,0.0,0.0
520,129.75,42.5981,46.515,159.474,102.317,100.228,0.00477225,0.104392,20.8357,468.747,0.18935,0.0,0.0
528,131.75,42.034,46.5755,157.421,102.307,100.002,0.00480682,0.104045,20.836,468.747,0.209108,0.0,0.0
536,133.75,42.2239,46.2295,155.512,102.317,100.423,0.00474945,0.103888,20.8361,468.707,0.171457,0.0,0.0
544,135.75,41.9217,45.7028,152.656,102.303,100.515,0.00460192,0.103687,20.8362,468.707,0.161817,0.0,0.0
552,137.75,41.8367,46.6946,155.032,102.296,100.414,0.00455625,0.103567,20.8362,468.687,0.170443,0.0,0.0
560,139.75,41.9628,45.9172,154.755,102.3,100.015,0.00457204,0.103654,20.8362,468.677,0.20728,0.0,0.0
568,141.75,41.5929,46.1552,152.414,102.298,100.239,0.00449253,0.103489,20.8354,468.657,0.186582,0.0,0.0
576,143.75,42.0914,45.6969,157.95,102.299,100.031,0.00434819,0.103273,20.8359,468.637,0.205717,0.0,0.0
584,145.75,41.7249,46.263,153.748,102.301,100.267,0.00434058,0.102983,20.8361,468.607,0.184297,0.0,0.0
592,147.75,42.0572,46.1419,153.12,102.299,100.173,0.00434568,0.10269,20.8371,468.627,0.192693,0.0,0.0
600,149.75,42.3004,46.1619,157.521,102.306,99.9174,0.0042394,0.102324,20.8375,468.617,0.216808,0.0,0.0
608,151.75,41.3253,45.7685,149.104,102.291,100.133,0.00412425,0.101775,20.8392,468.627,0.195706,0.0,0.0
616,153.75,41.5584,45.6209,155.353,102.293,100.514,0.00409037,0.101105,20.8402,468.597,0.161022,0.0,0.0
624,155.75,41.9682,45.2949,156.089,102.297,99.9935,0.00401918,0.1003,20.8406,468.597,0.208975,0.0,0.0
632,157.75,41.6546,45.6768,155.773,102.288,100.284,0.00381179,0.0995606,20.8408,468.587,0.181582,0.0,0.0
640,159.75,41.2939,45.6852,155.37,102.29,100.087,0.00363678,0.0987883,20.8412,468.557,0.199787,0.0,0.0
648,161.75,41.79,45.4023,156.781,102.272,100.412,0.0036037,0.0983199,20.8415,468.536,0.168409,0.0,0.0
656,163.75,41.5864,45.7245,154.647,102.279,99.7703,0.00354723,0.0980116,20.8429,468.577,0.227845,0.0,0.0
664,165.75,41.9522,45.5344,153.866,102.276,99.8956,0.00333743,0.0976431,20.844,468.547,0.216074,0.0,0.0
672,167.75,41.3606,44.8599,151.883,102.278,100.187,,0.0971759,,468.587,0.189561,0.0,0.0
680,169.75,41.2109,45.5566,156.603,102.268,99.9767,,0.0966391,,468.547,0.207922,0.0,0.0
688,171.75,41.6808,45.0248,157.921,102.264,99.8043,,,,468.587,0.223427,0.0,0.0
696,173.75,41.3157,45.7248,155.104,102.269,100.258,,,,468.567,0.182285,0.0,0.0
704,175.75,41.3157,45.7901,154.131,102.263,99.8565,,,,468.567,0.218515,0.0,0.0
712,177.75,41.4142,45.1642,157.805,102.256,99.923,,,,468.577,0.211784,0.0,0.0
715,178.5,41.6355,45.6059,155.419,102.239,100.308,,,,468.587,0.174992,0.0,0.0