Folder: fsri_materials_database/01_Data/Countertop_Plastic_LaminateB/MCC

Note: 01_Data/README.md
# Materials and Products Database
## 01_Data

Raw data generated from each apparatus are included here in plain-text format. The data is organized first by material, next by the short name of test apparatus used, and where applicable additional filtering by test settings.

### material.json

Each material directory contains a json file of the same name as the material. This file links the data stored in the repository as well as data and graphs produced by the accompanying scripts (__02_Scripts__) to the respective landing page for the material on the front-end website.

File: Countertop_Plastic_LaminateB_MCC_30K_min_211215_R1.txt
Sample ID:	C:\MCC\MCC Cal\Test\Countertop_Plastic_LaminateB_MCC_30K_min_211215_R1.txt
Sample Weight (mg):	4.52
Heating Rate (C/s):	0.5
Combustor Temp (C):	900
N2 Flow Rate (cc/min):	80
O2 Flow Rate (cc/min):	20
Calibration File:	C:\MCC\MCC Cal\Coeff1 JN10440_30_210304.txt.txt
T Correction Coefficients:	0	1.024463	0
Time Shift (s):	14
*
Time (s)	Temperature (C)	N2 flow rate (cc/min)	O2 flow rate (cc/min)	Flow Rate (cc/min)	Oxygen (%)	HRR (W/g)	Heating rate (C/s)
0.000	109.723	80.003	19.996	102.990	20.388	-0.130	0.050
8.000	109.696	79.999	19.996	102.994	20.390	-0.254	-0.017
16.000	109.737	80.003	19.995	103.013	20.383	0.211	-0.001
24.000	109.957	80.002	19.997	103.075	20.372	1.020	0.027
32.000	110.345	80.003	19.994	103.145	20.366	1.397	0.086
39.999	111.207	80.006	19.995	103.185	20.357	2.079	0.127
47.999	112.521	80.013	19.994	103.230	20.346	2.874	0.187
55.999	114.282	80.008	19.994	103.265	20.339	3.337	0.246
64.000	116.476	80.002	19.993	103.281	20.338	3.392	0.331
71.999	118.967	80.001	19.995	103.284	20.336	3.547	0.368
79.999	121.924	80.005	19.994	103.284	20.330	3.961	0.463
87.999	125.044	80.005	19.993	103.287	20.333	3.768	0.412
96.000	128.476	80.002	19.995	103.290	20.330	4.011	0.421
103.999	132.085	80.001	19.996	103.290	20.332	3.827	0.466
111.999	135.816	80.007	19.995	103.286	20.331	3.935	0.486
119.999	139.688	80.005	19.995	103.291	20.327	4.240	0.465
128.000	143.705	80.004	19.995	103.282	20.332	3.820	0.525
136.000	147.697	80.002	19.996	103.281	20.331	3.929	0.507
144.000	151.799	80.003	19.995	103.278	20.326	4.257	0.482
152.000	155.804	80.001	19.993	103.258	20.331	3.891	0.484
160.000	159.863	80.005	19.993	103.253	20.331	3.932	0.508
168.000	163.868	80.008	19.993	103.255	20.331	3.887	0.493
176.000	167.952	80.004	19.993	103.252	20.331	3.895	0.523
184.000	171.881	80.000	19.996	103.254	20.328	4.171	0.469
192.000	175.887	79.999	19.995	103.255	20.318	4.832	0.484
200.000	179.817	80.000	19.995	103.222	20.317	4.908	0.475
208.000	183.727	80.008	19.997	103.242	20.320	4.739	0.494
216.000	187.700	80.005	19.994	103.247	20.312	5.266	0.493
224.000	191.575	80.007	19.995	103.247	20.311	5.365	0.468
232.000	195.517	80.004	19.995	103.247	20.306	5.695	0.520
240.000	199.408	80.004	19.995	103.238	20.303	5.885	0.468
248.000	203.364	80.006	19.992	103.249	20.300	6.114	0.479
256.000	207.344	80.002	19.994	103.242	20.299	6.205	0.490
264.000	211.312	80.008	19.993	103.246	20.292	6.704	0.530
272.000	215.283	80.008	19.991	103.243	20.295	6.498	0.473
280.000	219.280	80.004	19.994	103.240	20.294	6.579	0.504
288.000	223.296	79.999	19.995	103.235	20.285	7.214	0.543
296.000	227.316	80.005	19.997	103.236	20.280	7.564	0.521
304.000	231.325	79.996	19.992	103.243	20.266	8.551	0.521
312.000	235.259	80.008	19.993	103.248	20.255	9.305	0.500
320.000	239.179	80.000	19.995	103.242	20.252	9.565	0.463
328.000	243.114	80.006	19.996	103.249	20.239	10.487	0.516
336.000	247.132	80.003	19.996	103.247	20.231	11.063	0.508
344.001	251.157	80.012	19.993	103.247	20.216	12.111	0.504
352.000	255.157	80.006	19.995	103.248	20.202	13.127	0.510
360.000	259.110	79.993	19.997	103.251	20.180	14.665	0.479
368.000	263.068	80.002	19.995	103.259	20.166	15.670	0.482
376.000	267.044	80.006	19.992	103.263	20.140	17.528	0.521
384.000	271.055	80.013	19.995	103.293	20.120	18.981	0.496
392.000	275.020	80.012	19.992	103.285	20.095	20.740	0.499
400.000	279.022	80.032	19.992	103.290	20.068	22.641	0.505
408.000	282.940	80.003	19.995	103.292	20.041	24.579	0.482
416.000	286.963	80.018	19.997	103.302	20.016	26.376	0.527
424.000	290.938	80.015	19.992	103.312	19.993	28.067	0.502
432.000	294.908	80.003	19.998	103.325	19.970	29.707	0.516
440.000	298.901	80.002	19.998	103.328	19.935	32.163	0.495
448.000	303.000	80.004	19.994	103.332	19.908	34.124	0.529
456.000	306.984	80.008	19.993	103.344	19.876	36.379	0.499
464.000	311.049	80.002	19.993	103.362	19.843	38.780	0.521
472.000	315.099	80.005	19.998	103.367	19.807	41.298	0.508
480.000	319.139	80.006	19.992	103.366	19.771	43.862	0.522
488.000	323.096	80.016	19.994	103.366	19.728	46.964	0.505
496.000	327.119	80.002	19.996	103.399	19.697	49.187	0.498
504.000	331.152	80.007	20.000	103.403	19.661	51.721	0.511
512.000	335.177	79.987	19.998	103.400	19.619	54.767	0.488
520.000	339.276	79.982	19.999	103.426	19.571	58.160	0.538
528.000	343.270	80.005	19.996	103.435	19.522	61.675	0.503
536.000	347.270	80.006	19.998	103.445	19.468	65.529	0.492
544.000	351.199	80.001	19.996	103.467	19.421	68.941	0.460
552.000	355.250	80.003	19.996	103.485	19.380	71.838	0.503
560.000	359.345	80.006	19.994	103.485	19.347	74.221	0.506
568.000	363.409	80.005	19.995	103.456	19.351	73.868	0.523
576.000	367.505	80.004	19.994	103.415	19.388	71.167	0.544
584.000	371.668	80.003	19.995	103.364	19.479	64.696	0.509
592.000	375.797	80.008	19.995	103.287	19.630	53.874	0.505
600.000	379.901	80.004	19.996	103.235	19.806	41.292	0.505
608.000	384.029	80.001	19.998	103.206	19.967	29.845	0.539
616.000	388.120	80.004	19.995	103.179	20.077	22.028	0.500
624.000	392.184	80.005	19.995	103.173	20.144	17.251	0.506
632.000	396.308	80.003	19.994	103.175	20.174	15.072	0.499
640.000	400.414	80.003	19.995	103.175	20.184	14.418	0.525
648.000	404.374	80.007	19.995	103.175	20.190	13.925	0.483
656.000	408.428	80.006	19.995	103.174	20.192	13.834	0.493
664.000	412.402	80.006	19.994	103.169	20.201	13.210	0.498
672.000	416.418	80.006	19.995	103.163	20.200	13.255	0.502
680.000	420.462	80.005	19.996	103.170	20.202	13.094	0.510
688.000	424.478	80.004	19.996	103.172	20.207	12.741	0.514
696.000	428.465	80.002	19.995	103.169	20.207	12.735	0.493
704.000	432.616	80.004	19.994	103.170	20.209	12.585	0.516
712.000	436.750	80.003	19.995	103.168	20.215	12.146	0.516
720.000	440.863	80.005	19.995	103.169	20.217	12.010	0.510
728.000	445.034	80.006	19.994	103.169	20.220	11.824	0.494
736.000	449.075	80.006	19.995	103.166	20.222	11.676	0.483
744.000	453.163	80.007	19.995	103.164	20.219	11.866	0.487
752.000	457.250	80.007	19.995	103.147	20.221	11.781	0.516
760.000	461.296	80.005	19.996	103.167	20.222	11.693	0.528
768.000	465.274	80.002	19.996	103.168	20.223	11.616	0.508
776.000	469.347	80.004	19.995	103.171	20.225	11.493	0.501
784.000	473.409	80.003	19.995	103.156	20.224	11.508	0.518
792.000	477.562	80.002	19.996	103.161	20.223	11.616	0.531
800.000	481.632	80.005	19.996	103.156	20.224	11.530	0.530
808.000	485.686	80.006	19.995	103.142	20.229	11.205	0.489
816.000	489.807	80.005	19.995	103.158	20.225	11.478	0.496
824.000	493.896	80.004	19.994	103.147	20.224	11.530	0.534
832.000	498.011	80.007	19.995	103.159	20.223	11.624	0.531
840.000	502.058	80.006	19.994	103.157	20.222	11.701	0.488
848.000	506.108	80.002	19.994	103.151	20.219	11.888	0.497
856.000	510.254	80.004	19.996	103.152	20.219	11.880	0.527
864.000	514.356	80.004	19.997	103.153	20.215	12.163	0.539
872.000	518.452	80.003	19.994	103.139	20.209	12.633	0.467
880.000	522.371	80.003	19.995	103.136	20.209	12.589	0.469
888.000	526.422	80.007	19.995	103.136	20.214	12.282	0.075
896.000	530.716	80.006	19.995	103.149	20.208	12.650	0.492
904.000	534.921	80.005	19.994	103.159	20.203	13.065	0.539
912.000	539.067	80.006	19.994	103.161	20.208	12.698	0.549
920.000	543.224	80.006	19.994	103.145	20.204	12.977	0.517
928.000	547.440	80.005	19.994	103.138	20.203	13.005	0.520
936.000	551.628	80.005	19.994	103.141	20.203	13.044	0.524
944.000	555.817	80.005	19.995	103.146	20.202	13.078	0.495
952.000	559.976	80.004	19.996	103.153	20.196	13.518	0.537
960.000	564.125	80.003	19.994	103.148	20.198	13.385	0.517
968.000	568.199	80.005	19.993	103.159	20.195	13.608	0.542
976.000	572.235	80.005	19.996	103.145	20.190	13.939	0.485
984.000	576.308	80.005	19.997	103.138	20.189	14.033	0.505
992.000	580.275	80.008	19.995	103.144	20.190	13.968	0.492
1000.000	584.307	80.008	19.995	103.154	20.184	14.389	0.498
1008.000	588.309	80.005	19.996	103.159	20.183	14.451	0.482
1016.000	592.505	80.004	19.995	103.145	20.180	14.633	0.520
1024.000	596.762	80.005	19.995	103.151	20.181	14.582	0.539
1032.000	600.959	80.006	19.994	103.150	20.175	15.036	0.525
1040.000	605.145	80.005	19.994	103.143	20.176	14.962	0.514
1048.001	609.349	80.005	19.996	103.138	20.170	15.414	0.554
1056.000	613.414	80.006	19.995	103.140	20.165	15.763	0.483
1063.999	617.548	80.007	19.993	103.139	20.164	15.790	0.511
1071.999	621.596	80.005	19.995	103.136	20.163	15.868	0.509
1079.999	625.679	80.008	19.996	103.146	20.161	15.989	0.551
1088.001	629.697	80.004	19.995	103.144	20.161	15.996	0.521
1095.999	633.746	80.005	19.994	103.148	20.157	16.339	0.486
1104.000	637.828	80.005	19.995	103.151	20.153	16.592	0.483
1112.001	641.860	80.005	19.995	103.144	20.153	16.581	0.490
1120.000	645.871	80.004	19.996	103.140	20.152	16.666	0.506
1128.000	649.934	80.004	19.995	103.135	20.148	16.947	0.530
1136.000	653.946	80.006	19.996	103.144	20.145	17.150	0.491
1144.000	658.075	80.005	19.995	103.131	20.144	17.249	0.484
1152.000	662.180	80.005	19.994	103.141	20.145	17.173	0.509
1160.000	666.316	80.006	19.995	103.142	20.142	17.383	0.506
1167.999	670.394	80.004	19.995	103.137	20.138	17.672	0.488
1176.001	674.532	80.002	19.996	103.133	20.138	17.678	0.522
1184.001	678.666	80.005	19.994	103.134	20.137	17.698	0.513
1191.999	682.736	80.006	19.993	103.133	20.134	17.925	0.507
1200.000	686.898	80.005	19.994	103.139	20.133	17.989	0.499
1207.999	691.160	80.005	19.994	103.142	20.131	18.144	0.545
1215.999	695.408	80.005	19.994	103.154	20.129	18.319	0.562
1223.999	699.651	80.005	19.994	103.149	20.127	18.477	0.516
1231.999	703.899	80.007	19.994	103.146	20.124	18.674	0.519
1240.000	708.037	80.008	19.995	103.138	20.123	18.747	0.511
1247.999	712.214	80.007	19.993	103.140	20.118	19.118	0.520
1256.000	716.298	80.005	19.996	103.128	20.118	19.115	0.497
1263.999	720.412	80.005	19.996	103.138	20.118	19.082	0.525
1271.999	724.439	80.005	19.994	103.138	20.111	19.575	0.475
1279.999	728.518	80.006	19.994	103.134	20.106	19.931	0.516
1288.000	732.532	80.005	19.995	103.137	20.106	19.968	0.518
1295.999	736.600	80.006	19.994	103.139	20.106	19.950	0.520
1303.999	740.589	80.005	19.994	103.139	20.101	20.323	0.474
1310.000	743.625	80.006	19.995	103.135	20.102	20.228	0.496