Folder: fsri_materials_database/01_Data/Laminate_Flooring/MCC (part 2)

File: Laminate_Flooring_MCC_30K_min_211108_R3.txt
Sample ID:	C:\MCC\MCC Cal\Test\Laminate_Flooring_MCC_30K_min_211108_R3.txt
Sample Weight (mg):	4.41
Heating Rate (C/s):	0.5
Combustor Temp (C):	900
N2 Flow Rate (cc/min):	80
O2 Flow Rate (cc/min):	20
Calibration File:	C:\MCC\MCC Cal\Coeff1 JN10440_30_210304.txt.txt
T Correction Coefficients:	0	1.024463	0
Time Shift (s):	14
*
Time (s)	Temperature (C)	N2 flow rate (cc/min)	O2 flow rate (cc/min)	Flow Rate (cc/min)	Oxygen (%)	HRR (W/g)	Heating rate (C/s)
-0.001	108.919	80.003	19.995	103.029	20.042	0.038	0.005
8.000	108.871	80.004	19.997	103.063	20.038	0.377	0.001
16.000	108.945	80.004	19.995	103.081	20.028	1.053	0.027
24.000	109.227	80.002	19.995	103.104	20.013	2.144	0.056
32.000	109.920	80.003	19.995	103.214	20.003	2.938	0.122
39.999	111.074	80.002	19.995	103.226	19.995	3.500	0.187
47.999	112.601	80.002	19.996	103.270	19.994	3.532	0.220
55.999	114.612	80.003	19.995	103.263	19.983	4.331	0.265
64.000	116.902	80.003	19.995	103.267	19.987	4.049	0.308
71.999	119.422	80.005	19.996	103.266	19.980	4.554	0.313
79.999	122.267	80.003	19.996	103.267	19.979	4.625	0.353
87.999	125.222	80.003	19.994	103.272	19.978	4.718	0.357
96.000	128.482	80.004	19.996	103.292	19.977	4.821	0.401
104.000	131.793	80.003	19.996	103.280	19.973	5.070	0.461
111.999	135.223	80.001	19.996	103.281	19.970	5.347	0.406
119.999	138.865	80.002	19.994	103.292	19.971	5.271	0.456
127.999	142.568	80.002	19.995	103.269	19.968	5.442	0.459
136.000	146.371	80.001	19.996	103.290	19.970	5.317	0.457
144.000	150.299	80.001	19.995	103.288	19.970	5.282	0.502
152.000	154.193	80.004	19.995	103.273	19.965	5.662	0.512
160.000	158.095	80.005	19.994	103.274	19.967	5.510	0.486
168.000	162.127	80.003	19.996	103.265	19.969	5.390	0.568
176.000	166.172	80.004	19.996	103.263	19.967	5.538	0.507
184.000	170.210	80.007	19.994	103.260	19.966	5.592	0.516
192.000	174.186	80.004	19.995	103.245	19.962	5.866	0.492
200.000	178.174	80.001	19.996	103.252	19.964	5.727	0.475
208.000	182.235	80.002	19.996	103.238	19.960	6.030	0.530
216.000	186.240	80.003	19.995	103.235	19.959	6.096	0.523
224.000	190.223	80.001	19.994	103.239	19.957	6.281	0.503
232.000	194.113	80.002	19.995	103.216	19.957	6.247	0.507
240.000	197.914	80.005	19.995	103.224	19.955	6.423	0.473
248.000	201.668	80.005	19.994	103.222	19.954	6.467	0.473
256.000	205.438	80.004	19.995	103.224	19.951	6.723	0.483
264.000	209.162	80.003	19.996	103.221	19.946	7.096	0.457
272.000	212.904	80.005	19.995	103.222	19.941	7.426	0.445
280.000	216.743	80.004	19.995	103.224	19.935	7.855	0.497
288.000	220.482	80.002	19.995	103.226	19.932	8.083	0.444
296.000	224.328	80.001	19.997	103.224	19.925	8.625	0.452
304.000	228.235	80.003	19.996	103.218	19.925	8.629	0.503
312.000	232.167	80.003	19.995	103.221	19.914	9.430	0.498
320.000	236.136	80.003	19.995	103.211	19.910	9.701	0.508
328.000	240.034	80.004	19.995	103.221	19.903	10.171	0.484
336.000	244.034	80.004	19.996	103.211	19.900	10.391	0.488
344.000	248.073	80.004	19.995	103.222	19.903	10.222	0.484
352.000	252.180	80.005	19.994	103.214	19.902	10.302	0.526
360.000	256.206	80.006	19.995	103.216	19.901	10.328	0.500
368.000	260.184	80.003	19.995	103.216	19.904	10.149	0.502
376.000	264.149	80.004	19.996	103.222	19.908	9.868	0.507
384.000	268.133	80.003	19.995	103.228	19.913	9.482	0.502
392.000	272.174	80.002	19.996	103.240	19.917	9.203	0.509
400.000	276.103	80.001	19.996	103.261	19.916	9.270	0.491
408.000	280.057	80.004	19.994	103.294	19.913	9.475	0.482
416.000	284.031	80.006	19.995	103.303	19.900	10.469	0.499
424.000	287.936	80.004	19.994	103.319	19.865	12.955	0.507
432.000	291.872	80.004	19.995	103.304	19.856	13.612	0.478
440.000	295.772	80.005	19.993	103.275	19.872	12.451	0.510
448.000	299.619	80.005	19.993	103.245	19.890	11.177	0.470
456.000	303.716	80.003	19.995	103.226	19.907	9.896	0.587
464.000	307.660	80.004	19.995	103.199	19.918	9.117	0.481
472.000	311.817	80.003	19.995	103.188	19.926	8.495	0.525
480.000	315.946	80.002	19.995	103.181	19.932	8.063	0.517
488.000	320.067	80.002	19.995	103.173	19.940	7.467	0.510
496.000	324.053	80.002	19.996	103.173	19.937	7.710	0.481
504.000	328.045	80.004	19.996	103.180	19.936	7.794	0.517
512.000	332.197	80.005	19.994	103.176	19.934	7.906	0.515
520.000	336.212	80.004	19.993	103.176	19.937	7.692	0.514
528.000	340.312	80.005	19.994	103.182	19.938	7.624	0.519
536.000	344.362	80.003	19.995	103.181	19.939	7.546	0.492
544.000	348.461	80.002	19.993	103.185	19.937	7.696	0.517
552.000	352.579	80.004	19.995	103.170	19.936	7.826	0.538
560.000	356.680	80.003	19.994	103.166	19.931	8.153	0.487
568.000	360.680	80.001	19.995	103.171	19.935	7.871	0.482
576.000	364.772	80.003	19.995	103.159	19.930	8.213	0.543
584.000	368.858	80.003	19.995	103.166	19.926	8.519	0.518
592.000	372.901	80.002	19.996	103.154	19.928	8.379	0.508
600.000	376.969	80.004	19.996	103.145	19.923	8.703	0.519
608.000	380.975	80.006	19.995	103.153	19.922	8.820	0.472
616.000	385.068	80.005	19.994	103.151	19.921	8.854	0.510
624.000	389.049	80.003	19.996	103.151	19.917	9.140	0.514
632.000	393.038	80.002	19.995	103.149	19.914	9.401	0.504
640.000	397.035	80.004	19.995	103.148	19.907	9.932	0.506
648.000	401.036	80.003	19.995	103.147	19.902	10.286	0.475
656.000	405.006	80.003	19.995	103.148	19.898	10.557	0.494
664.000	408.921	80.003	19.997	103.145	19.892	10.968	0.465
672.000	412.849	80.004	19.995	103.145	19.886	11.433	0.454
680.000	416.698	80.003	19.997	103.146	19.874	12.339	0.462
688.000	420.603	80.004	19.996	103.148	19.863	13.109	0.506
696.000	424.445	80.005	19.995	103.158	19.849	14.142	0.474
704.000	428.480	80.005	19.994	103.149	19.829	15.590	0.495
712.000	432.555	80.004	19.994	103.154	19.808	17.134	0.536
720.000	436.724	80.003	19.994	103.153	19.782	19.026	0.520
728.000	440.891	80.005	19.995	103.144	19.749	21.445	0.506
736.000	445.035	80.003	19.995	103.155	19.713	24.039	0.532
744.000	449.143	80.004	19.994	103.149	19.680	26.461	0.506
752.000	453.238	80.005	19.995	103.148	19.640	29.398	0.503
760.000	457.259	80.004	19.996	103.147	19.624	30.566	0.470
768.000	461.329	80.004	19.994	103.147	19.614	31.251	0.515
776.000	465.266	80.005	19.995	103.144	19.607	31.821	0.472
784.000	469.193	80.006	19.995	103.139	19.626	30.392	0.495
792.000	473.110	80.004	19.998	103.155	19.644	29.083	0.507
800.000	477.338	80.004	19.995	103.155	19.672	27.056	0.530
808.000	481.652	80.003	19.995	103.154	19.698	25.142	0.537
816.000	486.067	80.005	19.994	103.167	19.723	23.370	0.549
824.000	490.511	80.004	19.994	103.152	19.753	21.146	0.561
832.000	495.036	80.003	19.996	103.151	19.778	19.296	0.610
840.000	499.446	80.005	19.995	103.154	19.808	17.125	0.534
848.000	503.901	80.005	19.995	103.145	19.830	15.492	0.567
856.000	508.207	80.007	19.996	103.144	19.859	13.371	0.541
864.000	512.479	80.008	19.996	103.143	19.872	12.483	0.505
872.000	516.732	80.006	19.996	103.143	19.880	11.904	0.518
880.000	520.929	80.004	19.996	103.147	19.892	11.026	0.519
888.000	525.070	80.003	19.996	103.144	19.894	10.836	0.540
896.000	529.108	80.003	19.995	103.145	19.900	10.405	0.509
904.000	533.125	80.004	19.995	103.148	19.905	10.047	0.506
912.000	537.124	80.004	19.996	103.145	19.910	9.716	0.488
920.000	541.033	80.005	19.995	103.149	19.910	9.657	0.486
928.000	544.953	80.005	19.995	103.157	19.912	9.515	0.498
936.000	548.881	80.004	19.995	103.163	19.910	9.701	0.471
944.000	552.856	80.006	19.995	103.178	19.914	9.380	0.476
952.000	556.875	80.006	19.996	103.172	19.915	9.323	0.500
960.000	560.932	80.005	19.996	103.182	19.917	9.209	0.488
968.000	564.948	80.003	19.995	103.185	19.916	9.242	0.502
976.000	568.977	80.002	19.996	103.182	19.915	9.343	0.508
984.000	573.068	80.004	19.997	103.179	19.916	9.222	0.525
992.000	577.172	80.005	19.995	103.156	19.918	9.081	0.510
1000.000	581.274	80.004	19.995	103.144	19.916	9.279	0.494
1008.000	585.277	80.005	19.995	103.136	19.919	9.027	0.516
1016.000	589.253	80.005	19.995	103.145	19.921	8.878	0.509
1024.000	593.263	80.005	19.995	103.144	19.921	8.854	0.513
1031.999	597.333	80.005	19.993	103.147	19.919	9.058	0.522
1039.999	601.360	80.007	19.995	103.145	19.921	8.888	0.508
1047.999	605.394	80.003	19.996	103.151	19.916	9.273	0.518
1056.000	609.496	80.004	19.996	103.156	19.919	9.026	0.514
1064.001	613.538	80.005	19.995	103.160	19.914	9.381	0.505
1071.999	617.572	80.005	19.996	103.164	19.913	9.490	0.514
1079.999	621.633	80.001	19.996	103.182	19.917	9.159	0.550
1087.999	625.847	80.004	19.996	103.184	19.911	9.629	0.525
1095.999	630.157	80.004	19.996	103.188	19.912	9.527	0.536
1104.000	634.495	80.005	19.995	103.197	19.909	9.794	0.575
1111.999	638.869	80.005	19.995	103.205	19.906	10.011	0.515
1119.999	643.142	80.007	19.995	103.219	19.901	10.324	0.533
1127.999	647.435	80.006	19.994	103.225	19.902	10.278	0.525
1135.999	651.705	80.004	19.994	103.244	19.900	10.425	0.520
1143.999	655.960	80.004	19.995	103.261	19.896	10.732	0.533
1151.999	660.116	80.005	19.995	103.268	19.897	10.643	0.496
1159.999	664.253	80.004	19.995	103.287	19.892	11.035	0.537
1167.999	668.366	80.002	19.996	103.303	19.893	10.967	0.511
1175.999	672.452	80.005	19.996	103.314	19.886	11.472	0.514
1183.999	676.483	80.007	19.996	103.353	19.889	11.229	0.487
1191.999	680.486	80.006	19.996	103.340	19.878	12.030	0.494
1199.999	684.396	80.006	19.995	103.364	19.878	12.074	0.472
1207.999	688.402	80.007	19.995	103.376	19.871	12.559	0.511
1215.999	692.362	80.001	19.994	103.394	19.869	12.680	0.498
1223.999	696.372	80.004	19.996	103.413	19.869	12.695	0.504
1231.999	700.444	80.004	19.995	103.405	19.871	12.593	0.532
1239.999	704.450	80.005	19.996	103.380	19.859	13.427	0.504
1247.999	708.552	80.004	19.996	103.394	19.864	13.068	0.492
1256.000	712.652	80.003	19.996	103.384	19.864	13.088	0.527
1263.999	716.731	80.004	19.994	103.362	19.867	12.873	0.494
1271.999	720.852	80.006	19.996	103.377	19.873	12.384	0.514
1279.999	724.896	80.005	19.996	103.345	19.878	12.033	0.479
1287.999	729.019	80.005	19.995	103.302	19.885	11.547	0.478
1295.999	733.101	80.007	19.995	103.254	19.896	10.685	0.492
1303.999	737.168	80.003	19.995	103.186	19.905	10.055	0.499
1311.999	741.248	80.004	19.996	103.145	19.913	9.462	0.516
1316.499	743.545	80.004	19.996	103.130	19.918	9.132	0.497