Folder: fsri_materials_database/01_Data/Face_Shield/Cone (part 2)

File: Face_Shield_Cone_HF100-FrameScan_201103_R1.csv
Names,Time,Stack TC,Smoke TC,Exh Press,Smoke Comp,Smoke Meas,CO Meter,CO2 Meter,O2 Meter,Sample Mass,Ext Coeff,Start Test,Flame Verif
Chan Gain,,500,500,1,1,1,1,1,1,1,1,1.0,1.0
Offset,,0,0,0.134413,0,0,0,0,0,0,0,0.0,0.0
Gain,,1,1,25.011,13.8462,17.0661,1,1,1,1.0009,1.04998,1.0,1.0
Units,sec,C,C,Pa,%,%,%,%,%,g,/m,,
Baseline,,40.0615,45.3727,174.353,103.044,104.852,0.0042145,0.079564,20.98,-939.361,-0.160126,,
8,1.75,37.7436,41.6754,168.249,102.438,104.727,0.00428417,0.091261,20.9661,15.4238,-0.203539,0.0,0.0
16,3.75,38.1091,42.212,170.223,102.442,104.788,0.00416733,0.0885811,20.969,15.4538,-0.208609,0.0,0.0
24,5.75,38.3543,42.9187,175.932,102.482,104.755,0.00405504,0.0860766,20.9727,15.4038,-0.202032,0.0,0.0
32,7.75,38.4956,43.186,172.375,102.474,104.554,0.00402453,0.0838215,20.9757,15.4038,-0.185053,0.0,0.0
40,9.75,38.0862,43.0651,175.974,102.493,104.424,0.0040363,0.0822567,20.977,15.4138,-0.171875,0.0,0.0
48,11.75,38.9368,43.8602,171.453,102.492,104.101,0.00406415,0.0813972,20.9776,15.4038,-0.143426,0.0,0.0
56,13.75,39.3084,43.6866,166.219,102.513,104.489,0.00410902,0.0807724,20.9778,15.4038,-0.175831,0.0,0.0
64,15.75,38.9839,43.9379,174.152,102.523,104.37,0.00416175,0.0806347,20.977,15.3738,-0.164401,0.0,0.0
72,17.75,39.0977,44.5371,176.793,102.548,103.63,0.00453182,0.0810706,20.9767,15.3638,-0.0966558,0.0,0.0
80,19.75,39.6124,44.1718,171.85,102.554,102.128,0.00545542,0.0815195,20.976,15.3437,0.0383882,0.0,0.0
88,21.75,38.9635,44.4701,172.643,102.578,98.7934,0.00686851,0.0916023,20.9548,15.2937,0.346233,0.0,0.0
96,23.75,39.9483,45.6981,159.184,102.596,74.6233,0.00968388,0.165509,20.8744,15.0835,2.93214,0.0,1.0
104,25.75,42.0029,49.1903,159.249,102.612,61.395,0.0131016,0.275535,20.77,14.8333,4.73071,0.0,1.0
112,27.75,44.4465,53.556,156.209,102.634,56.6816,0.0179544,0.382829,20.6286,14.5731,5.46835,0.0,1.0
120,29.75,47.9444,58.136,157,102.644,53.9312,0.0214466,0.464576,20.5097,14.2328,5.92744,0.0,0.0
128,31.75,50.0137,61.7416,158.565,102.667,54.9801,0.0232995,0.510347,20.4436,14.0025,5.75207,0.0,0.0
136,33.75,52.2027,64.5452,154.763,102.677,58.8263,0.0223243,0.520462,20.4357,15.4338,5.13015,0.0,0.0
144,35.75,52.9984,65.8916,171.017,102.705,97.9876,0.0191347,0.444744,20.5396,-729.944,0.43307,0.0,0.0
152,37.75,51.1099,61.9115,177.328,102.733,99.9116,0.0156188,0.348202,20.626,-939.432,0.256522,0.0,0.0
160,39.75,48.6734,58.3296,178.037,102.751,103.405,0.0120478,0.271194,20.7208,-939.452,-0.058438,0.0,0.0
168,41.75,46.7831,55.0151,170.672,102.782,104.622,0.00924457,0.205971,20.8106,-939.502,-0.163378,0.0,0.0
176,43.75,46.1945,54.1818,173.799,102.797,104.824,0.00777844,0.163054,20.8722,-939.462,-0.179872,0.0,0.0
184,45.75,45.4983,53.4348,174.822,102.831,104.64,0.00658466,0.135117,20.9095,-939.422,-0.160667,0.0,0.0
192,47.75,44.9962,52.5384,173.796,102.85,104.353,0.00583673,0.116552,20.9342,-939.442,-0.133594,0.0,0.0
200,49.75,44.8819,51.8573,176.966,102.887,104.653,0.00535359,0.105564,20.9483,-939.462,-0.156781,0.0,0.0
208,51.75,44.172,50.8673,172.564,102.911,104.797,0.00499741,0.0992226,20.9569,-939.422,-0.167276,0.0,0.0
216,53.75,43.6426,49.9306,169.642,102.941,104.749,0.00459547,0.0941812,20.9637,-939.452,-0.160416,0.0,0.0
224,55.75,43.3122,49.4315,174.394,102.978,104.674,0.00421569,0.0902131,20.9679,-939.482,-0.150447,0.0,0.0
232,57.75,43.2595,48.2544,174.881,102.997,105.104,0.00400503,0.0870654,20.9716,-939.442,-0.186485,0.0,0.0
240,59.75,42.368,48.8264,174.697,103.014,105.435,0.00393118,0.0848965,20.9745,-939.472,-0.213955,0.0,0.0
248,61.75,42.3929,47.9484,171.135,103.038,105.293,0.00383807,0.0833713,20.9771,-939.462,-0.199411,0.0,0.0
256,63.75,41.7988,47.9623,176.405,103.068,105.484,0.00376545,0.081921,20.9787,-939.432,-0.213396,0.0,0.0
264,65.75,41.7417,47.7736,172.183,103.077,104.736,0.00383999,0.0808041,20.9804,-939.432,-0.147068,0.0,0.0
272,67.75,41.3836,47.5509,172.014,103.104,105.184,0.00395594,0.0801228,20.9814,-939.482,-0.183956,0.0,0.0
280,69.75,40.8591,46.5406,169.776,103.132,104.816,0.00404299,0.0795155,20.9818,-939.482,-0.149119,0.0,0.0
288,71.75,40.9235,46.2096,173.233,103.15,105.006,0.00405769,0.0791249,20.983,-939.462,-0.164308,0.0,0.0
296,73.75,41.2339,46.2771,174.668,103.175,105.068,0.00405333,0.0789679,20.9841,-939.482,-0.167395,0.0,0.0
304,75.75,40.7209,46.3161,171.76,103.186,105.2,0.00397525,0.0786592,20.9845,-939.462,-0.178041,0.0,0.0
312,77.75,40.6961,46.2767,174.303,103.188,105.122,0.00380919,0.0783981,20.9847,-939.482,-0.171048,0.0,0.0
320,79.75,41.4028,46.5402,171.676,103.212,104.943,0.00372064,0.0781833,20.9848,-939.482,-0.153196,0.0,0.0
328,81.75,40.1274,45.1747,168.082,103.221,105.771,0.00376066,0.0780294,20.9848,-939.472,-0.224798,0.0,0.0
336,83.75,40.9248,46.3251,176.089,103.216,105.052,0.00394027,0.077953,20.9848,-939.482,-0.162405,0.0,0.0
344,85.75,40.4057,45.9522,175.675,103.229,105.246,0.004134,0.0779657,20.9848,-939.512,-0.178207,0.0,0.0
352,87.75,41.0869,46.0403,169.863,103.224,104.756,0.00426242,0.0778376,20.9851,-939.492,-0.135707,0.0,0.0
360,89.75,39.8938,45.3635,175.084,103.232,105.178,0.00420206,0.0776692,20.9862,-939.472,-0.172053,0.0,0.0
368,91.75,40.6894,45.509,173.946,103.229,105.352,0.00405842,0.0776078,20.9863,-939.442,-0.187539,0.0,0.0
376,93.75,40.4379,45.3073,176.386,103.206,104.629,0.00399049,0.0775427,20.9863,-939.492,-0.12612,0.0,0.0
384,95.75,40.4838,45.1281,170.883,103.197,105.112,0.00396823,0.0774778,20.9854,-939.532,-0.169359,0.0,0.0
392,97.75,40.1747,44.9641,170.956,103.191,104.93,0.00397572,0.0775413,20.9851,-939.502,-0.15393,0.0,0.0
400,99.75,40.1997,45.4488,173.044,103.163,104.928,0.00400999,0.0776694,20.985,-939.472,-0.156162,0.0,0.0
408,101.75,40.7601,44.9598,179.12,103.139,104.597,0.00391682,0.0777738,20.9852,-939.472,-0.129358,0.0,0.0
416,103.75,40.7906,44.7586,173.837,103.119,104.343,0.00385672,0.0781499,20.9855,-939.512,-0.108724,0.0,0.0
424,105.75,40.6634,45.1778,172.031,103.102,105.608,0.00386767,0.0786212,20.9844,-939.512,-0.221185,0.0,0.0
432,107.75,40.6201,45.4997,175.017,103.073,104.527,0.00389473,0.0790491,20.9838,-939.492,-0.128978,0.0,0.0
440,109.75,40.5215,45.3748,175.355,103.04,105.565,0.00394459,0.0793569,20.9836,-939.532,-0.22301,0.0,0.0
448,111.75,40.2579,45.6149,169.081,103.011,104.989,0.00394463,0.0795807,20.9832,-939.542,-0.175221,0.0,0.0
456,113.75,40.5851,45.5137,179.738,102.978,104.892,0.00392967,0.0795418,20.9828,-939.532,-0.169629,0.0,0.0
464,115.75,40.572,45.8714,171.181,102.95,104.909,0.00391344,0.0793864,20.9836,-939.562,-0.173587,0.0,0.0
472,117.75,40.1063,45.9647,174.66,102.926,104.95,0.0038789,0.0791837,20.9843,-939.542,-0.179437,0.0,0.0
480,119.75,41.0017,45.8985,173.214,102.885,104.781,0.00380284,0.0790021,20.9853,-939.502,-0.168201,0.0,0.0
488,121.75,40.7927,45.8014,171.627,102.836,104.429,0.00369715,0.0788772,20.9858,-939.512,-0.14159,0.0,0.0
496,123.75,40.2217,45.9949,175.66,102.805,105.028,0.0035668,0.078781,20.986,-939.532,-0.196982,0.0,0.0
504,125.75,40.4892,45.7042,174.041,102.758,104.568,0.00345446,0.0787082,20.9861,-939.522,-0.160767,0.0,0.0
512,127.75,40.7506,45.6325,172.441,102.706,104.741,0.00347011,0.0785538,20.9861,-939.542,-0.180683,0.0,0.0
520,129.75,40.4994,46.1858,171.643,102.67,104.361,0.00363703,0.0783497,20.9861,-939.542,-0.150494,0.0,0.0
528,131.75,40.4957,45.8946,172.572,102.62,105.243,0.00384285,0.0780601,20.9861,-939.532,-0.232505,0.0,0.0
536,133.75,40.5558,45.3847,176.33,102.575,104.903,0.00400076,0.077948,20.9855,-939.562,-0.206631,0.0,0.0
544,135.75,40.4658,46.0873,173.263,102.542,104.186,0.00410747,0.0778396,20.985,-939.542,-0.146576,0.0,0.0
552,137.75,40.7891,46.0993,173.397,102.496,104.459,0.00409898,0.0778566,20.9857,-939.552,-0.174686,0.0,0.0
560,139.75,41.1305,45.6566,168.212,102.462,104.726,0.00402215,0.07781,20.9859,-939.522,-0.201253,0.0,0.0
568,141.75,40.6542,45.2439,172.037,102.434,104.931,0.00400354,0.0779264,20.9861,-939.532,-0.221782,0.0,0.0
576,143.75,40.6089,45.8888,174.743,102.382,104.136,0.00405959,0.0779646,20.9861,-939.552,-0.156474,0.0,0.0
584,145.75,40.726,45.39,170.934,102.354,104.638,0.00399136,0.0778619,20.9861,-939.552,-0.203283,0.0,0.0
592,147.75,40.3726,45.6312,179.52,102.304,103.959,0.0038015,0.0779381,20.9859,-939.552,-0.147873,0.0,0.0
600,149.75,40.4733,45.4334,170.97,102.274,104.008,0.00367848,0.0781254,20.9854,-939.562,-0.154873,0.0,0.0
608,151.75,40.5253,45.684,176.819,102.25,103.982,0.00368909,0.0782434,20.9854,-939.582,-0.154774,0.0,0.0
616,153.75,40.3951,45.4871,175.596,102.205,104.212,0.00374804,0.0783562,20.9845,-939.572,-0.179132,0.0,0.0
624,155.75,40.7923,45.5609,178.027,102.168,103.896,0.0038067,0.0783983,20.9841,-939.582,-0.154507,0.0,0.0
632,157.75,40.3547,45.6087,175.281,102.142,104.566,0.00380127,0.0782848,20.9851,-939.572,-0.216017,0.0,0.0
640,159.75,40.0261,45.5792,171.978,102.124,103.991,0.00377494,0.0782518,20.9857,-939.572,-0.166861,0.0,0.0
648,161.75,40.5841,45.8013,174.192,102.075,104.035,0.00381541,0.078252,20.9859,-939.542,-0.175127,0.0,0.0
656,163.75,41.1756,45.8186,175.161,102.05,103.836,0.00389516,0.0784421,20.9861,-939.572,-0.159869,0.0,0.0
664,165.75,40.6053,45.8476,176.233,102.02,104.002,0.00392855,0.0787306,20.9856,-939.612,-0.177134,0.0,0.0
672,167.75,41.0343,45.7401,175.583,101.98,103.734,0.00399258,0.0788731,20.9849,-939.622,-0.157104,0.0,0.0
680,169.75,40.722,45.4685,170.647,101.943,103.688,0.00411113,0.0789552,20.9834,-939.612,-0.156308,0.0,0.0
688,171.75,40.6674,46.3502,172.292,101.911,103.573,0.00406711,0.0788442,20.9833,-939.602,-0.148981,0.0,0.0
696,173.75,41.0728,46.0897,174.323,101.875,103.828,0.00383452,0.0787536,20.9838,-939.622,-0.174847,0.0,0.0
704,175.75,40.6551,45.884,168.264,101.839,103.879,0.00358148,0.0786824,20.9833,-939.622,-0.18266,0.0,0.0
712,177.75,40.7814,45.9257,171.654,101.811,103.98,,0.0785183,,-939.562,-0.194136,0.0,0.0
720,179.75,40.4934,45.6967,174.662,101.756,103.789,,0.0785265,,-939.602,-0.182199,0.0,0.0
728,181.75,40.6514,45.86,174.303,101.706,103.731,,,,-939.592,-0.181543,0.0,0.0
736,183.75,40.7364,46.2529,169.89,101.667,103.769,,,,-939.612,-0.188478,0.0,0.0
744,185.75,40.7244,45.8194,175.068,101.624,103.725,,,,-939.602,-0.188499,0.0,0.0
752,187.75,40.9981,45.9503,170.279,101.586,104.389,,,,-939.642,-0.250724,0.0,0.0
755,188.5,40.7281,46.1151,172.688,101.557,103.496,,,,-939.622,-0.17422,0.0,0.0