Folder: fsri_materials_database/01_Data/Face_Shield/Cone

Note: 01_Data/README.md
# Materials and Products Database
## 01_Data

Raw data generated from each apparatus are included here in plain-text format. The data is organized first by material, next by the short name of test apparatus used, and where applicable additional filtering by test settings.

### material.json

Each material directory contains a json file of the same name as the material. This file links the data stored in the repository as well as data and graphs produced by the accompanying scripts (__02_Scripts__) to the respective landing page for the material on the front-end website.

File: Face_Shield_Cone_HF50-FrameScalar_201103_R1.csv
LABORATORY,FSRI
TEST IDENT,FaceShield_HF50_1
OPERATOR,Dow
MATERIAL,Phoenix Arizona Face Shield
ORIENTATION,Horizontal
HEAT FLUX,50
SURF AREA,0.01
C FACTOR,0.0377677
SPEC HOLDER DIFF,336.62
SPECIMEN MASS,56.66
SCAN TIME,0.25
O2 DELAY TIME,11
CO DELAY TIME,11
CO2 DELAY TIME,8
FLOW FACTOR,1
SCAN COUNT,935
TIME TO IGN,85
END OF TEST SCAN,455
END OF TEST TIME,113.75
TEST STATUS,1
,
POST TEST CMT,Sample removed about 13 seconds after igntion

File: Face_Shield_Cone_HF50-FrameScan_201103_R1.csv
Names,Time,Stack TC,Smoke TC,Exh Press,Smoke Comp,Smoke Meas,CO Meter,CO2 Meter,O2 Meter,Sample Mass,Ext Coeff,Start Test,Flame Verif
Chan Gain,,500,500,1,1,1,1,1,1,1,1,1.0,1.0
Offset,,0,0,0.134413,0,0,0,0,0,0,0,0.0,0.0
Gain,,1,1,25.011,13.8462,17.0661,1,1,1,1.0009,1.04998,1.0,1.0
Units,sec,C,C,Pa,%,%,%,%,%,g,/m,,
Baseline,,28.4814,31.3135,182.33,102.554,103.8,0.00432506,0.078234,20.9814,-938.592,-0.111141,,
10,2.25,26.1002,28.4606,185.269,102.335,103.495,0.00415293,0.0853215,20.9768,21.6094,-0.103853,0.0,0.0
20,4.75,26.0201,28.8614,184.918,102.334,103.235,0.00403209,0.0819927,20.9805,21.6194,-0.0807337,0.0,0.0
30,7.25,25.9797,28.5952,179.491,102.315,103.648,0.00397234,0.079799,20.9823,21.5993,-0.119296,0.0,0.0
40,9.75,26.7849,29.1605,179.258,102.331,103.437,0.00396966,0.0796566,20.9808,21.6094,-0.0990411,0.0,0.0
50,12.25,26.6723,29.4684,182.512,102.315,103.281,0.0039644,0.0820988,20.978,21.6194,-0.0866099,0.0,0.0
60,14.75,27.1117,29.4369,182.306,102.321,103.911,0.00406751,0.0858037,20.976,21.6194,-0.142059,0.0,0.0
70,17.25,27.2596,29.8977,182.153,102.301,103.592,0.00409488,0.0876691,20.9756,21.5793,-0.115475,0.0,0.0
80,19.75,26.9649,29.7453,185.319,102.307,103.293,0.00405346,0.0867503,20.9768,21.5693,-0.088354,0.0,0.0
90,22.25,27.1586,30.4187,180.098,102.288,102.947,0.0040402,0.0848812,20.9788,21.5793,-0.0591778,0.0,0.0
100,24.75,27.4966,29.4852,182.509,102.312,103.468,0.0041114,0.0840947,20.9796,21.5293,-0.103459,0.0,0.0
110,27.25,27.0987,30.2281,180.426,102.305,103.685,0.00413668,0.0833229,20.9798,21.5993,-0.123371,0.0,0.0
120,29.75,27.5591,30.3125,188.489,102.331,103.592,0.00398481,0.0824277,20.9799,21.5693,-0.112804,0.0,0.0
130,32.25,27.3455,30.0423,183.89,102.336,104.261,0.00391535,0.0811241,20.9814,21.5793,-0.171621,0.0,0.0
140,34.75,26.9088,30.1021,178.717,102.362,103.481,0.00402161,0.0798068,20.982,21.5493,-0.100083,0.0,0.0
150,37.25,27.3938,30.4051,181.906,102.372,103.243,0.00418683,0.0794954,20.9822,21.5693,-0.0779999,0.0,0.0
160,39.75,27.2181,30.5308,182.103,102.407,103.732,0.00428747,0.0798919,20.983,21.5593,-0.118409,0.0,0.0
170,42.25,27.4592,30.1046,181.829,102.421,103.08,0.0043083,0.0802471,20.9834,21.5493,-0.0590745,0.0,0.0
180,44.75,27.6994,30.591,180.862,102.454,103.422,0.00423274,0.0802076,20.9846,21.5293,-0.0866348,0.0,0.0
190,47.25,27.6496,30.2388,180.426,102.484,103.273,0.00411399,0.079496,20.9854,21.5493,-0.0706343,0.0,0.0
200,49.75,27.7758,30.8266,184.257,102.496,103.766,0.00395019,0.0789756,20.9857,21.5293,-0.113407,0.0,0.0
210,52.25,27.6005,30.8203,178.668,102.519,103.896,0.00373886,0.0783913,20.9858,21.5093,-0.122945,0.0,0.0
220,54.75,27.503,30.5442,181.258,102.528,103.904,0.00392275,0.0780112,20.9859,21.5493,-0.122764,0.0,0.0
230,57.25,27.6895,30.7817,178.63,102.555,104.157,0.00418553,0.0788475,20.9848,21.5493,-0.142737,0.0,0.0
240,59.75,27.6692,30.9737,185.323,102.567,103.457,0.00414158,0.0797625,20.984,21.5093,-0.0796134,0.0,0.0
250,62.25,28.1317,31.2468,187.057,102.581,103.924,0.00400984,0.0799887,20.9837,21.5193,-0.119858,0.0,0.0
260,64.75,28.3206,31.3028,182.96,102.588,103.82,0.00392633,0.0792583,20.9848,21.4893,-0.109931,0.0,0.0
270,67.25,27.9062,31.1108,179.31,102.618,103.67,0.00394499,0.0785151,20.9855,21.5093,-0.0940055,0.0,0.0
280,69.75,28.2105,31.2591,181.475,102.623,103.47,0.00407981,0.0793519,20.9858,21.4792,-0.0756815,0.0,0.0
290,72.25,27.6674,30.928,183.188,102.657,103.625,0.00410443,0.0803575,20.9858,21.4492,-0.0864148,0.0,0.0
300,74.75,27.9935,31.4819,182.106,102.664,103.276,0.00404321,0.0798282,20.9859,21.4792,-0.0546566,0.0,0.0
310,77.25,28.3091,31.4808,178.74,102.702,103.489,0.00410647,0.0789546,20.9859,21.4392,-0.0702697,0.0,0.0
320,79.75,27.8453,31.0665,183.795,102.706,104.305,0.0041887,0.0792263,20.9859,21.4292,-0.142277,0.0,0.0
330,82.25,28.0752,31.6237,180.878,102.715,103.232,0.00414895,0.0796706,20.9859,21.4292,-0.0462529,0.0,0.0
340,84.75,27.4071,30.911,177.322,102.752,102.293,0.00413104,0.0828204,20.9825,21.4292,0.0412065,0.0,1.0
350,87.25,28.3158,31.6935,181.988,102.757,102.744,0.00417432,0.0885267,20.9755,21.4092,0.00117804,0.0,1.0
360,89.75,27.3262,30.8405,179.343,102.765,101.884,0.00442502,0.0912744,20.9701,21.5193,0.0792756,0.0,0.0
370,92.25,27.2956,31.0398,176.774,102.759,99.4527,0.00479169,0.0976067,20.9605,21.3992,0.301191,0.0,0.0
380,94.75,27.8175,31.6291,182.837,102.782,101.207,0.00486737,0.106499,20.9512,21.3091,0.142202,0.0,0.0
390,97.25,27.6014,31.7436,184.67,102.774,101.015,0.00468253,0.110486,20.9458,21.3191,0.159017,0.0,0.0
400,99.75,27.6178,31.8249,188.001,102.803,103.59,0.00456488,0.10557,20.9518,-841.664,-0.0701585,0.0,0.0
410,102.25,27.0208,29.4,182.309,102.783,103.853,0.00447152,0.0945837,20.9634,-938.631,-0.0953316,0.0,0.0
420,104.75,26.7486,29.6295,184.872,102.789,104.092,0.00431355,0.0883878,20.9719,-938.601,-0.115978,0.0,0.0
430,107.25,26.3082,29.3744,183.067,102.779,104.38,0.00413256,0.0839986,20.9774,-938.621,-0.142419,0.0,0.0
440,109.75,26.6344,29.0687,175.86,102.787,103.959,0.00395003,0.0809374,20.9826,-938.501,-0.104455,0.0,0.0
450,112.25,25.4851,28.4676,182.416,102.764,103.947,0.00395968,0.0786229,20.9861,-938.581,-0.105392,0.0,0.0
460,114.75,25.7746,27.9631,183.298,102.764,103.647,0.00402749,0.077217,20.9879,-938.621,-0.0787728,0.0,0.0
470,117.25,25.7462,28.2961,183.216,102.748,104.106,0.0038897,0.0764197,20.9885,-938.611,-0.12098,0.0,0.0
480,119.75,25.6901,27.7791,185.773,102.732,104.01,0.00371538,0.0755812,20.99,-938.611,-0.113891,0.0,0.0
490,122.25,25.9076,28.0762,180.342,102.702,104.128,0.00364816,0.0745647,20.9907,-938.621,-0.126998,0.0,0.0
500,124.75,25.6429,28.2821,188.532,102.679,103.544,0.00378998,0.0738774,20.991,-938.611,-0.0773034,0.0,0.0
510,127.25,25.6024,28.424,182.429,102.654,103.756,0.00399374,0.0732956,20.9923,-938.631,-0.0983763,0.0,0.0
520,129.75,25.8418,28.2154,180.541,102.626,103.503,0.00394762,0.0729473,20.993,-938.611,-0.078336,0.0,0.0
530,132.25,25.614,28.672,183.793,102.609,104.165,0.00369195,0.0727768,20.9926,-938.641,-0.138572,0.0,0.0
540,134.75,25.3211,27.8596,182.947,102.571,103.715,0.00341478,0.0725261,20.9921,-938.631,-0.102149,0.0,0.0
550,137.25,25.6907,27.9104,182.786,102.521,103.582,0.0033036,0.0723536,20.9919,-938.641,-0.0947875,0.0,0.0
560,139.75,25.6095,28.4748,182.383,102.474,103.546,0.0033517,0.0725206,20.9918,-938.621,-0.0958519,0.0,0.0
570,142.25,25.4699,28.2133,183.373,102.44,103.719,0.00340498,0.0726257,20.9918,-938.641,-0.114335,0.0,0.0
580,144.75,25.7678,28.6203,182.456,102.409,103.529,0.00347959,0.0726887,20.9918,-938.621,-0.100166,0.0,0.0
590,147.25,26.1147,28.6607,180.212,102.374,103.548,0.00359131,0.0726661,20.9918,-938.641,-0.105082,0.0,0.0
600,149.75,25.7286,28.6263,188.916,102.317,103.409,0.00364832,0.072491,20.9918,-938.631,-0.097792,0.0,0.0
610,152.25,25.7049,28.6314,183.963,102.285,103.618,0.0037545,0.0726072,20.9918,-938.621,-0.119236,0.0,0.0
620,154.75,25.7146,28.6369,182.391,102.236,103.715,0.00373053,0.0730212,20.9915,-938.641,-0.132257,0.0,0.0
630,157.25,25.4482,28.5971,186.941,102.211,103.467,0.00363887,0.0740739,20.9911,-938.631,-0.112499,0.0,0.0
640,159.75,25.7168,28.3167,185.653,102.171,103.203,0.00366977,0.0752195,20.9907,-938.611,-0.0926201,0.0,0.0
650,162.25,25.6919,28.3747,183.679,102.145,103.37,0.00375293,0.0755316,20.9901,-938.621,-0.109852,0.0,0.0
660,164.75,25.4717,28.3268,185.048,102.124,103.427,0.00383453,0.0754137,20.9893,-938.651,-0.116692,0.0,0.0
670,167.25,24.9197,28.6861,183.835,102.089,103.293,0.00384392,0.0747016,20.9903,-938.641,-0.108012,0.0,0.0
680,169.75,25.3987,28.3534,177.595,102.069,102.861,0.0038036,0.0740408,20.9921,-938.621,-0.0712639,0.0,0.0
690,172.25,25.8705,27.8657,183.254,102.045,103.299,0.00370671,0.0735781,20.9928,-938.641,-0.112535,0.0,0.0
700,174.75,25.4494,28.1159,184.214,102.049,103.309,0.00357637,0.0731776,20.9936,-938.631,-0.113036,0.0,0.0
710,177.25,25.3743,28.2022,184.498,102.007,103.421,0.00359635,0.073,20.9936,-938.651,-0.126829,0.0,0.0
720,179.75,25.2253,27.8549,180.768,102.002,103.108,0.00368959,0.0728659,20.9926,-938.631,-0.0992836,0.0,0.0
730,182.25,25.2821,28.4088,182.32,101.987,103.076,0.00381866,0.0728549,20.9933,-938.641,-0.0978569,0.0,0.0
740,184.75,24.9144,28.0488,182.473,101.982,102.944,0.00385303,0.0730971,20.9934,-938.631,-0.0864569,0.0,0.0
750,187.25,25.3982,27.6945,181.421,101.977,103.025,0.00385182,0.0729682,20.9935,-938.651,-0.0941729,0.0,0.0
760,189.75,25.5137,28.6638,183.884,101.981,102.743,0.00381728,0.0727457,20.9935,-938.641,-0.0686053,0.0,0.0
770,192.25,25.6823,28.2581,180.382,101.975,102.809,0.00367283,0.0727372,20.9935,-938.661,-0.074983,0.0,0.0
780,194.75,25.4684,28.3762,182.732,101.957,102.898,0.00351326,0.073109,20.9935,-938.661,-0.084645,0.0,0.0
790,197.25,25.4226,28.1178,178.609,101.955,103.129,0.00345885,0.073561,20.9935,-938.671,-0.105504,0.0,0.0
800,199.75,25.1485,28.2239,178.837,101.932,102.914,0.00345765,0.0736127,20.9933,-938.651,-0.0883341,0.0,0.0
810,202.25,25.1886,28.0038,179.904,101.93,103.039,0.00339195,0.0738205,20.9929,-938.651,-0.0997053,0.0,0.0
820,204.75,25.8362,28.0517,185.585,101.914,103.049,0.0033952,0.0748877,20.9917,-938.661,-0.102041,0.0,0.0
830,207.25,25.2673,28.0054,182.399,101.915,103.036,0.00355822,0.0752051,20.9911,-938.681,-0.100763,0.0,0.0
840,209.75,25.2822,28.6419,183.295,101.892,103.167,0.00370998,0.0747451,20.9911,-938.661,-0.114588,0.0,0.0
850,212.25,25.4919,28.5018,189.062,101.885,103.229,0.00377355,0.0739428,20.993,-938.641,-0.120645,0.0,0.0
860,214.75,25.2849,27.8828,186.788,101.851,102.611,0.00373169,0.0734713,20.9934,-938.671,-0.0684234,0.0,0.0
870,217.25,25.288,28.3529,184.872,101.844,102.963,0.00375561,0.073179,20.994,-938.641,-0.100576,0.0,0.0
880,219.75,25.2166,27.5718,181.806,101.83,102.748,0.00376764,0.0731511,20.9934,-938.621,-0.0826218,0.0,0.0
890,222.25,25.1179,28.3503,185.941,101.799,103.137,0.00380566,0.0730019,20.9947,-938.671,-0.120297,0.0,0.0
900,224.75,25.3841,27.8553,181.559,101.798,103.132,,0.0729465,,-938.681,-0.119871,0.0,0.0
910,227.25,25.2165,28.6491,185.606,101.797,102.977,,,,-938.641,-0.106198,0.0,0.0
920,229.75,25.1735,27.8151,178.573,101.781,102.819,,,,-938.651,-0.093442,0.0,0.0
930,232.25,25.3666,28.0969,183.473,101.78,103.144,,,,-938.671,-0.122584,0.0,0.0
935,233.5,25.3002,27.6495,182.627,101.784,103.053,,,,-938.651,-0.114098,0.0,0.0

File: Face_Shield_Cone_HF75-Frame+GridScalar_201103_R1.csv
LABORATORY,FSRI
TEST IDENT,FaceSheild_HF75_1
OPERATOR,Dow
MATERIAL,Phoenix Arizona Face Shield
ORIENTATION,Horizontal
HEAT FLUX,75
SURF AREA,0.01
C FACTOR,0.0377677
SPEC HOLDER DIFF,378.51
SPECIMEN MASS,57.26
SCAN TIME,0.25
O2 DELAY TIME,11
CO DELAY TIME,11
CO2 DELAY TIME,8
FLOW FACTOR,1
SCAN COUNT,722
TIME TO IGN,47.5
END OF TEST SCAN,242
END OF TEST TIME,60.5
TEST STATUS,1
,
POST TEST CMT,Sample was removed 10s after ignition and test was ended.

File: Face_Shield_Cone_HF75-Frame+GridScan_201103_R1.csv
Names,Time,Stack TC,Smoke TC,Exh Press,Smoke Comp,Smoke Meas,CO Meter,CO2 Meter,O2 Meter,Sample Mass,Ext Coeff,Start Test,Flame Verif
Chan Gain,,500,500,1,1,1,1,1,1,1,1,1.0,1.0
Offset,,0,0,0.134413,0,0,0,0,0,0,0,0.0,0.0
Gain,,1,1,25.011,13.8462,17.0661,1,1,1,1.0009,1.04998,1.0,1.0
Units,sec,C,C,Pa,%,%,%,%,%,g,/m,,
Baseline,,32.824,36.8027,178.407,102.027,103.975,0.00344721,0.0697762,20.9964,-937.802,-0.174101,,
8,1.75,30.9041,34.2006,176.084,102.509,104.045,0.00338261,0.0778354,20.9883,64.8981,-0.136975,0.0,0.0
16,3.75,31.2196,34.1968,179.442,102.536,104.793,0.0034552,0.0771217,20.9885,64.8581,-0.200469,0.0,0.0
24,5.75,31.1419,34.6388,179.743,102.554,104.351,0.00346523,0.0759656,20.9897,64.8681,-0.159975,0.0,0.0
32,7.75,31.6396,34.7984,171.447,102.578,103.896,0.00340215,0.0745536,20.9909,64.8581,-0.117593,0.0,0.0
40,9.75,31.6242,35.0361,179.401,102.582,104.354,0.00328427,0.0733515,20.9925,64.8181,-0.157701,0.0,0.0
48,11.75,32.0593,35.0703,178.126,102.562,104.512,0.00325763,0.0729394,20.993,64.8481,-0.173447,0.0,0.0
56,13.75,32.1372,35.1206,176.997,102.56,103.959,0.00332311,0.0739089,20.9923,64.8281,-0.124848,0.0,0.0
64,15.75,32.1984,35.9421,180.179,102.531,104.197,0.00331491,0.0756297,20.9918,64.8681,-0.148529,0.0,0.0
72,17.75,31.9907,35.7077,177.315,102.503,104.02,0.00312272,0.0785707,20.9895,64.8281,-0.135285,0.0,0.0
80,19.75,32.1782,35.4777,178.643,102.455,104.676,0.00299157,0.0839883,20.983,64.8281,-0.1975,0.0,0.0
88,21.75,32.5365,36.2338,174.895,102.399,103.974,0.00302049,0.0889676,20.9785,64.798,-0.140609,0.0,0.0
96,23.75,32.5427,36.481,178.371,102.342,103.843,0.00308378,0.0892693,20.9771,64.778,-0.134154,0.0,0.0
104,25.75,32.4332,36.1001,176.02,102.265,104.708,0.00309049,0.0868427,20.9783,64.788,-0.217405,0.0,0.0
112,27.75,32.372,36.6079,179.998,102.179,104.004,0.00313422,0.0842842,20.9804,64.768,-0.163069,0.0,0.0
120,29.75,32.9164,36.6636,180.425,102.103,103.887,0.00324605,0.0821862,20.9828,64.778,-0.159545,0.0,0.0
128,31.75,32.4907,36.6725,179.514,101.988,103.89,0.00332442,0.0809759,20.9841,64.798,-0.170188,0.0,0.0
136,33.75,32.6249,36.5701,180.196,101.879,104.021,0.00331231,0.0799266,20.9851,64.778,-0.19159,0.0,0.0
144,35.75,32.7684,36.7583,176.295,101.813,104.072,0.00335981,0.0787242,20.9864,64.758,-0.202107,0.0,0.0
152,37.75,32.8136,37.0109,177.892,101.839,103.503,0.00352781,0.0776571,20.987,64.758,-0.149258,0.0,0.0
160,39.75,33.2458,37.507,179.995,101.871,103.005,0.00371196,0.0771177,20.9873,64.778,-0.101988,0.0,0.0
168,41.75,33.0931,37.1759,178.908,101.911,103.838,0.00391569,0.0775627,20.9867,64.768,-0.172487,0.0,0.0
176,43.75,33.4189,37.5707,178.982,101.971,102.812,0.00408773,0.0797493,20.9854,64.748,-0.0756057,0.0,0.0
184,45.75,32.7654,37.5993,177.615,102.015,102.529,0.00425909,0.0821105,20.983,64.728,-0.0462679,0.0,0.0
192,47.75,32.9742,37.3064,173.45,102.075,101.114,0.00448047,0.0850932,20.9788,64.718,0.0870751,0.0,1.0
200,49.75,33.511,37.5818,175.328,102.115,100.138,0.00480214,0.0893214,20.975,64.728,0.180071,0.0,1.0
208,51.75,33.3556,37.3892,181.909,102.154,99.4522,0.00530792,0.0989581,20.9638,64.8481,0.246882,0.0,1.0
216,53.75,33.6166,38.112,174.11,102.202,91.0077,0.00593832,0.136301,20.9179,64.5879,1.06849,0.0,0.0
224,55.75,34.6441,40.2712,173.073,102.247,88.9634,0.00665683,0.174512,20.8698,64.5078,1.28173,0.0,0.0
232,57.75,35.4444,41.3321,173.578,102.281,83.5751,0.00716559,0.21516,20.8358,64.3476,1.86028,0.0,0.0
240,59.75,37.1877,43.7128,185.585,102.323,101.608,0.00703477,0.22178,20.8267,64.3777,0.0645172,0.0,0.0
248,61.75,36.2021,41.7333,181.321,102.364,103.056,0.00657874,0.179586,20.8618,-937.8,-0.0620271,0.0,0.0
256,63.75,34.9924,40.1068,176.408,102.395,104.014,0.00599479,0.141947,20.9017,-937.58,-0.144465,0.0,0.0
264,65.75,33.7592,38.5618,181.978,102.436,104.073,0.00520179,0.116782,20.9342,-937.81,-0.146073,0.0,0.0
272,67.75,33.7269,37.9565,174.966,102.457,103.602,0.0045108,0.0993778,20.9597,-937.84,-0.102366,0.0,0.0
280,69.75,33.5227,37.6996,177.289,102.476,104.184,0.00393799,0.0885088,20.9741,-937.86,-0.152315,0.0,0.0
288,71.75,33.6155,37.5102,177.521,102.487,104.268,0.0036144,0.0813508,20.9833,-937.84,-0.158691,0.0,0.0
296,73.75,32.8209,37.5049,179.698,102.509,104.602,0.00348418,0.0767628,20.9898,-937.86,-0.186159,0.0,0.0
304,75.75,32.741,37.2583,175.818,102.522,104.34,0.00337095,0.0738613,20.9933,-937.85,-0.161857,0.0,0.0
312,77.75,33.1088,37.0141,177.663,102.526,104.862,0.00327019,0.0717407,20.9949,-937.86,-0.207512,0.0,0.0
320,79.75,32.4821,36.687,181.452,102.538,103.969,0.00318064,0.0703446,20.9969,-937.86,-0.127652,0.0,0.0
328,81.75,32.965,36.2495,176.568,102.544,104.485,0.00307708,0.069365,20.9977,-937.84,-0.172777,0.0,0.0
336,83.75,32.9462,36.7322,181.719,102.544,104.424,0.00305993,0.0687282,20.9985,-937.85,-0.167404,0.0,0.0
344,85.75,32.6371,37.3192,181.379,102.542,104.308,0.00313286,0.0680352,20.9993,-937.86,-0.157343,0.0,0.0
352,87.75,32.7483,36.5054,178.534,102.534,104.12,0.00330456,0.067533,20.9987,-937.88,-0.141326,0.0,0.0
360,89.75,31.7873,35.8476,180.815,102.509,104.933,0.00344182,0.0670896,20.9996,-937.89,-0.215325,0.0,0.0
368,91.75,32.3628,36.3529,175.786,102.503,104.432,0.00344097,0.0666618,21.0002,-937.87,-0.171729,0.0,0.0
376,93.75,32.0608,35.7259,177.531,102.479,103.948,0.00330541,0.0664966,21,-937.88,-0.131092,0.0,0.0
384,95.75,32.3639,36.3302,177.286,102.451,104.996,0.0032549,0.0664737,20.9999,-937.84,-0.225982,0.0,0.0
392,97.75,31.9105,35.494,178.317,102.419,104.829,0.00328037,0.0665167,20.9998,-937.84,-0.214223,0.0,0.0
400,99.75,32.4193,35.8013,178.376,102.381,104.408,0.0032988,0.0665306,20.9998,-937.87,-0.180602,0.0,0.0
408,101.75,31.6945,35.8435,171.974,102.337,104.855,0.00328395,0.0664669,20.9998,-937.86,-0.223931,0.0,0.0
416,103.75,31.9255,35.8992,180.787,102.275,104.622,0.00324462,0.0663778,21.0001,-937.88,-0.208967,0.0,0.0
424,105.75,32.3506,35.9013,176.43,102.22,103.952,0.00324058,0.0664137,21.0004,-937.88,-0.154754,0.0,0.0
432,107.75,32.2001,35.3539,181.262,102.173,104.043,0.00323795,0.0666344,21.0005,-937.9,-0.167023,0.0,0.0
440,109.75,31.9583,35.7003,173.169,102.092,104.18,0.00323373,0.0667703,21.0009,-937.88,-0.186411,0.0,0.0
448,111.75,32.015,35.8047,172.528,102.029,103.828,0.00329763,0.0668102,21.0015,-937.86,-0.160914,0.0,0.0
456,113.75,31.7706,36.0201,174.763,101.971,104.119,0.00331783,0.0668537,21.0018,-937.88,-0.192016,0.0,0.0
464,115.75,31.6624,36.0326,174.832,101.873,103.999,0.00324335,0.0670658,21.0019,-937.87,-0.190273,0.0,0.0
472,117.75,32.0861,35.7665,173.895,101.806,103.573,0.00315632,0.0674636,21.0006,-937.85,-0.158541,0.0,0.0
480,119.75,31.8937,35.3037,177.876,101.704,103.738,0.00310581,0.0677099,21.0001,-937.9,-0.182344,0.0,0.0
488,121.75,32.39,35.7943,174.553,101.64,103.483,0.00306344,0.0678254,20.9998,-937.87,-0.165561,0.0,0.0
496,123.75,32.3084,36.1165,180.564,101.547,104.262,0.00303814,0.0681331,20.9997,-937.88,-0.24303,0.0,0.0
504,125.75,32.2914,35.8348,175.987,101.459,102.883,0.00309297,0.0687531,20.9991,-937.86,-0.128323,0.0,0.0
512,127.75,32.0755,36.141,175.259,101.378,102.95,0.0031931,0.0690359,20.9981,-937.83,-0.141703,0.0,0.0
520,129.75,31.8151,36.333,179.872,101.293,103.253,0.00331495,0.0689734,20.9977,-937.86,-0.176502,0.0,0.0
528,131.75,31.9273,34.8855,181.787,101.2,102.947,0.00346467,0.0686955,20.9975,-937.86,-0.157639,0.0,0.0
536,133.75,31.9439,35.248,175.503,101.116,103.504,0.00356301,0.0685309,20.9982,-937.84,-0.21498,0.0,0.0
544,135.75,32.0325,36.0339,175.023,101.024,103.435,0.00360496,0.0685417,20.9986,-937.87,-0.217293,0.0,0.0
552,137.75,31.7291,35.5656,178.035,100.96,102.643,0.00362763,0.0685869,20.9988,-937.89,-0.152303,0.0,0.0
560,139.75,32.0619,35.3222,179.079,100.856,102.927,0.00363382,0.0685779,20.9989,-937.86,-0.18714,0.0,0.0
568,141.75,31.9053,35.4742,175.261,100.79,102.918,0.00350332,0.0682651,20.999,-937.89,-0.192369,0.0,0.0
576,143.75,31.9823,36.0846,179.44,100.692,102.03,0.00333458,0.0682091,20.999,-937.85,-0.121519,0.0,0.0
584,145.75,32.2006,35.7102,178.146,100.633,102.353,0.00328692,0.0685817,20.999,-937.88,-0.156073,0.0,0.0
592,147.75,32.1953,35.8634,181.914,100.571,102.671,0.00333947,0.0687538,20.999,-937.89,-0.190359,0.0,0.0
600,149.75,31.6758,35.8106,180.546,100.517,102.195,0.00335766,0.0687309,20.999,-937.94,-0.152426,0.0,0.0
608,151.75,31.5338,34.8433,177.942,100.453,102.36,0.00330506,0.0684647,20.999,-937.9,-0.17318,0.0,0.0
616,153.75,31.9065,35.9284,179.727,100.412,102.041,0.00327979,0.0680515,20.999,-937.91,-0.148168,0.0,0.0
624,155.75,31.7325,35.3449,182.705,100.366,102.184,0.00332074,0.0678431,20.999,-937.89,-0.16535,0.0,0.0
632,157.75,32.4006,36.0681,176.97,100.334,102.386,0.00336546,0.0678285,20.9994,-937.9,-0.186541,0.0,0.0
640,159.75,31.3304,35.472,175.318,100.318,102.374,0.00323692,0.0678091,20.9995,-937.88,-0.18686,0.0,0.0
648,161.75,31.7066,36.0385,179.675,100.308,102.043,0.00310952,0.0676791,20.9996,-937.89,-0.157981,0.0,0.0
656,163.75,31.7682,35.1712,176.086,100.302,102.271,0.0031457,0.0675892,20.9996,-937.91,-0.179043,0.0,0.0
664,165.75,31.683,35.5049,177.718,100.305,102.615,0.00322676,0.0673849,20.9996,-937.91,-0.209685,0.0,0.0
672,167.75,31.889,35.5624,176.483,100.314,102.448,0.0032976,0.0672404,20.9996,-937.91,-0.193938,0.0,0.0
680,169.75,32.1127,35.8437,179.707,100.34,101.791,,0.0671342,,-937.91,-0.132213,0.0,0.0
688,171.75,31.9012,35.9589,173.589,100.377,102.283,,0.0670801,,-937.92,-0.173304,0.0,0.0
696,173.75,32.4275,35.8452,172.633,100.417,102.195,,,,-937.93,-0.161653,0.0,0.0
704,175.75,32.0599,35.5758,176.274,100.457,102.131,,,,-937.89,-0.152275,0.0,0.0
712,177.75,31.9102,35.9857,173.385,100.507,102.303,,,,-937.94,-0.163113,0.0,0.0
720,179.75,32.5184,35.8775,178.786,100.569,102.52,,,,-937.94,-0.176946,0.0,0.0
722,180.25,32.3285,35.5102,183.07,100.592,102.12,,,,-937.95,-0.138813,0.0,0.0

File: Face_Shield_Cone_HF100-FrameScalar_201103_R1.csv
LABORATORY,FSRI
TEST IDENT,FaceShield_HF100_1
OPERATOR,Dow
MATERIAL,Phoenix Arizona Face Shield
ORIENTATION,Horizontal
HEAT FLUX,100
SURF AREA,0.01
C FACTOR,0.0377677
SPEC HOLDER DIFF,332.67
SPECIMEN MASS,55.22
SCAN TIME,0.25
O2 DELAY TIME,11
CO DELAY TIME,11
CO2 DELAY TIME,8
FLOW FACTOR,1
SCAN COUNT,755
TIME TO IGN,23.25
END OF TEST SCAN,275
END OF TEST TIME,68.75
TEST STATUS,1
,
POST TEST CMT,Sample removed 10 seconds after ignition