Folder: fsri_materials_database/01_Data/Face_Shield/MCC

Note: 01_Data/README.md
# Materials and Products Database
## 01_Data

Raw data generated from each apparatus are included here in plain-text format. The data is organized first by material, next by the short name of test apparatus used, and where applicable additional filtering by test settings.

### material.json

Each material directory contains a json file of the same name as the material. This file links the data stored in the repository as well as data and graphs produced by the accompanying scripts (__02_Scripts__) to the respective landing page for the material on the front-end website.

File: Face_Shield_MCC_30K_min_220207_R1.txt
Sample ID:	C:\MCC\MCC Cal\Test\Shield_MCC_30K_min_220207_R1.txt
Sample Weight (mg):	4.17
Heating Rate (C/s):	0.5
Combustor Temp (C):	900
N2 Flow Rate (cc/min):	80
O2 Flow Rate (cc/min):	20
Calibration File:	C:\MCC\MCC Cal\Coeff1 JN10440_30_210304.txt.txt
T Correction Coefficients:	0	1.024463	0
Time Shift (s):	14
*
Time (s)	Temperature (C)	N2 flow rate (cc/min)	O2 flow rate (cc/min)	Flow Rate (cc/min)	Oxygen (%)	HRR (W/g)	Heating rate (C/s)
0.000	112.229	80.003	19.994	103.680	20.113	0.428	-0.019
8.000	112.175	80.006	19.993	103.673	20.113	0.419	-0.040
16.000	112.162	80.004	19.995	103.680	20.107	0.863	-0.004
24.000	112.219	80.002	19.994	103.794	20.096	1.723	0.028
32.000	112.748	80.003	19.992	103.813	20.079	3.016	0.106
40.000	113.798	80.004	19.993	103.880	20.076	3.261	0.138
48.001	115.241	80.004	19.993	103.872	20.066	4.062	0.219
56.000	116.946	80.004	19.995	103.870	20.066	4.007	0.247
64.000	118.845	80.005	19.994	103.874	20.063	4.283	0.230
72.001	121.031	80.006	19.994	103.901	20.062	4.326	0.274
80.000	123.503	80.004	19.994	103.908	20.059	4.585	0.328
88.000	126.117	80.005	19.994	103.935	20.056	4.804	0.329
96.000	129.029	80.001	19.997	103.917	20.050	5.258	0.381
104.000	132.084	80.004	19.993	103.927	20.050	5.287	0.386
112.001	135.348	80.004	19.993	103.923	20.049	5.346	0.394
120.000	138.770	80.005	19.993	103.919	20.051	5.218	0.436
128.001	142.321	80.005	19.993	103.920	20.047	5.562	0.454
136.000	145.939	80.005	19.995	103.933	20.046	5.594	0.492
144.000	149.591	80.004	19.994	103.939	20.046	5.604	0.466
152.000	153.366	80.004	19.993	103.926	20.047	5.531	0.482
160.000	157.170	80.004	19.994	103.939	20.043	5.866	0.465
168.000	161.156	80.003	19.993	103.923	20.047	5.556	0.516
176.000	165.056	80.007	19.992	103.922	20.045	5.658	0.489
184.000	169.050	80.003	19.995	103.914	20.049	5.344	0.517
192.000	173.004	80.003	19.994	103.905	20.049	5.372	0.494
200.000	177.031	80.007	19.994	103.906	20.051	5.208	0.494
208.000	180.986	80.010	19.990	103.907	20.049	5.336	0.485
216.000	184.965	80.003	19.993	103.902	20.049	5.369	0.479
224.000	188.910	80.003	19.993	103.909	20.048	5.407	0.486
232.000	192.784	80.011	19.988	103.911	20.044	5.772	0.429
240.000	196.671	80.005	19.996	103.885	20.046	5.589	0.458
248.000	200.597	80.003	19.993	103.890	20.042	5.947	0.522
256.000	204.574	80.014	19.996	103.884	20.042	5.874	0.475
264.000	208.635	80.007	19.990	103.892	20.040	6.100	0.535
272.000	212.600	80.002	19.998	103.882	20.038	6.210	0.462
280.000	216.508	80.009	19.999	103.688	20.072	3.530	0.420
288.000	218.735	80.012	19.989	103.469	20.117	0.064	0.162
296.000	219.005	80.003	19.994	103.450	20.122	-0.306	-0.034
304.000	217.716	80.010	19.992	103.453	20.118	-0.021	-0.218
312.000	215.432	79.981	19.995	103.438	20.125	-0.503	-0.317
320.000	212.472	80.008	19.992	103.437	20.128	-0.775	-0.363
328.000	209.023	79.984	19.994	103.440	20.129	-0.857	-0.439
336.000	205.280	80.011	19.995	103.439	20.134	-1.225	-0.506
344.000	201.359	80.013	19.994	103.462	20.129	-0.869	-0.563
352.000	197.411	80.011	19.992	103.404	20.127	-0.694	-0.501
360.000	193.448	80.007	19.993	103.474	20.131	-1.006	-0.504
368.000	189.511	80.005	19.994	103.483	20.125	-0.554	-0.499
376.000	185.709	80.003	19.998	103.484	20.120	-0.174	-0.477
384.000	181.860	79.984	19.996	103.499	20.124	-0.433	-0.483
392.000	178.283	79.997	19.996	103.517	20.119	-0.108	-0.439
400.000	174.897	80.011	19.991	103.519	20.119	-0.064	-0.408
408.000	171.565	80.006	19.993	103.514	20.111	0.576	-0.443
416.000	168.434	80.002	19.993	103.522	20.113	0.414	-0.383
424.000	165.490	80.014	19.992	103.532	20.108	0.795	-0.375
432.000	162.679	80.016	19.992	103.533	20.107	0.872	-0.343
440.000	159.914	79.987	19.996	103.547	20.088	2.326	-0.342
448.000	158.854	79.995	19.995	104.818	19.921	15.457	0.115
456.000	162.849	80.006	19.994	104.695	19.890	17.859	0.736
464.000	170.747	80.007	19.993	104.596	19.901	16.926	1.126
472.000	181.094	80.002	19.996	104.459	19.923	15.235	1.365
480.000	192.959	80.004	19.995	104.342	19.943	13.638	1.501
488.000	205.338	80.006	19.992	104.259	19.956	12.622	1.585
496.000	217.896	80.002	19.994	104.197	19.972	11.393	1.582
504.000	230.189	80.006	19.994	104.149	19.984	10.459	1.528
512.000	242.181	80.008	19.994	104.120	19.987	10.205	1.489
520.000	253.922	80.012	19.992	104.102	19.991	9.911	1.438
528.000	265.216	80.004	19.994	104.066	19.993	9.767	1.431
536.000	276.184	80.007	19.993	104.067	19.994	9.620	1.341
544.000	286.726	80.015	19.993	104.030	19.996	9.471	1.310
552.000	296.923	80.003	19.994	103.995	20.006	8.744	1.236
560.000	306.535	80.005	19.994	103.964	20.009	8.490	1.203
568.000	315.506	80.005	19.994	103.953	20.014	8.083	1.069
576.000	323.913	80.003	19.995	103.941	20.011	8.348	1.033
584.000	331.988	80.006	19.994	103.930	20.017	7.881	1.036
592.000	339.675	80.008	19.995	103.943	20.012	8.237	0.972
600.000	347.094	80.005	19.993	103.922	20.011	8.359	0.906
608.000	354.394	80.003	19.994	103.913	20.012	8.212	0.907
616.000	361.499	80.005	19.995	103.916	20.011	8.346	0.883
624.000	368.394	80.007	19.992	103.900	20.009	8.461	0.885
632.000	375.157	80.003	19.993	103.907	20.017	7.821	0.866
640.000	381.687	80.003	19.995	103.880	20.015	7.996	0.803
648.000	388.008	80.006	19.994	103.868	20.012	8.262	0.784
656.000	394.065	80.006	19.994	103.868	20.013	8.199	0.748
664.000	399.904	80.005	19.994	103.861	20.013	8.181	0.771
672.000	405.497	80.006	19.994	103.840	20.012	8.230	0.694
680.000	410.896	80.009	19.993	103.842	20.009	8.483	0.667
688.000	416.046	80.004	19.993	103.845	20.006	8.704	0.631
696.000	421.107	80.006	19.993	103.836	20.001	9.058	0.622
704.000	425.878	80.005	19.993	103.834	20.001	9.072	0.586
712.000	430.557	80.005	19.993	103.828	19.997	9.411	0.557
720.000	435.215	80.005	19.992	103.830	19.995	9.528	0.563
728.000	439.651	80.005	19.994	103.830	19.993	9.678	0.569
736.000	444.053	80.006	19.995	103.829	19.988	10.098	0.557
744.000	448.389	80.006	19.994	103.829	19.971	11.438	0.543
752.000	452.582	80.005	19.993	103.831	19.958	12.455	0.496
760.000	456.767	80.007	19.994	103.833	19.927	14.857	0.532
768.000	460.935	80.006	19.994	103.831	19.882	18.311	0.496
776.000	465.019	80.005	19.995	103.841	19.815	23.570	0.509
784.000	469.064	80.005	19.994	103.867	19.713	31.454	0.498
792.000	473.149	80.006	19.994	103.896	19.556	43.721	0.507
800.000	477.260	80.006	19.994	103.897	19.377	57.641	0.506
808.000	481.358	80.005	19.993	103.906	19.236	68.616	0.525
816.000	485.390	80.007	19.994	104.006	19.100	79.271	0.546
824.000	489.470	80.007	19.994	104.025	18.862	97.838	0.476
832.000	493.543	80.008	19.995	104.073	18.532	123.615	0.513
840.000	497.671	80.007	19.995	104.134	18.199	149.662	0.505
848.000	501.806	80.007	19.994	104.202	17.876	174.910	0.515
856.000	505.864	80.007	19.996	104.248	17.589	197.387	0.505
864.000	510.051	80.004	19.995	104.289	17.384	213.323	0.513
872.000	514.164	80.006	19.994	104.307	17.318	218.468	0.496
880.000	518.355	80.006	19.994	104.302	17.460	207.324	0.509
888.000	522.533	80.004	19.994	104.268	17.812	179.736	0.495
896.000	526.720	80.006	19.994	104.210	18.283	142.931	0.512
904.000	530.958	80.008	19.994	104.125	18.753	106.244	0.493
912.000	535.168	80.006	19.993	104.045	19.122	77.505	0.488
920.000	539.304	80.007	19.993	103.978	19.376	57.726	0.492
928.000	543.391	80.009	19.994	103.941	19.542	44.744	0.484
936.000	547.471	80.007	19.992	103.911	19.654	36.084	0.565
944.000	551.698	80.006	19.993	103.883	19.722	30.747	0.471
952.000	555.551	80.005	19.993	103.873	19.766	27.327	0.509
960.000	559.679	80.003	19.996	103.857	19.810	23.915	0.507
968.000	563.814	80.005	19.995	103.850	19.833	22.152	0.507
976.000	567.840	80.006	19.995	103.839	19.847	21.052	0.506
984.000	571.899	80.006	19.994	103.834	19.861	19.982	0.498
992.000	576.013	80.007	19.994	103.829	19.869	19.381	0.537
1000.000	579.978	80.005	19.994	103.832	19.878	18.674	0.486
1008.000	583.990	80.007	19.992	103.831	19.881	18.441	0.494
1016.000	588.092	80.006	19.993	103.831	19.887	17.912	0.487
1024.000	592.124	80.005	19.994	103.828	19.891	17.623	0.489
1032.000	596.270	80.005	19.994	103.820	19.896	17.211	0.503
1040.000	600.373	80.006	19.995	103.818	19.901	16.876	0.518
1048.000	604.488	80.005	19.994	103.806	19.904	16.591	0.498
1056.001	608.585	80.004	19.995	103.812	19.908	16.287	0.514
1064.000	612.652	80.005	19.994	103.798	19.913	15.890	0.540
1072.000	616.777	80.006	19.994	103.795	19.919	15.470	0.533
1080.000	620.793	80.006	19.993	103.794	19.921	15.291	0.488
1088.000	624.892	80.005	19.993	103.799	19.924	15.064	0.500
1096.001	628.927	80.007	19.994	103.797	19.931	14.525	0.533
1104.000	632.921	80.006	19.994	103.794	19.933	14.397	0.499
1112.000	637.027	80.005	19.993	103.792	19.941	13.770	0.501
1120.000	641.113	80.005	19.994	103.795	19.944	13.507	0.514
1128.001	645.064	80.005	19.993	103.787	19.946	13.333	0.475
1136.000	649.048	80.004	19.994	103.793	19.952	12.866	0.476
1144.001	653.076	80.005	19.994	103.792	19.954	12.743	0.501
1152.000	657.026	80.004	19.994	103.794	19.955	12.666	0.498
1160.000	660.987	80.006	19.993	103.788	19.952	12.927	0.511
1168.000	664.915	80.006	19.993	103.781	19.953	12.780	0.498
1176.000	668.760	80.007	19.993	103.789	19.957	12.486	0.302
1184.000	672.917	80.006	19.994	103.781	19.957	12.465	0.236
1192.000	676.852	80.005	19.993	103.787	19.960	12.235	0.482
1200.000	680.806	80.005	19.994	103.793	19.952	12.860	0.480
1208.000	684.697	80.005	19.994	103.790	19.956	12.611	0.516
1216.000	688.575	80.005	19.995	103.785	19.956	12.606	0.492
1224.000	692.591	80.004	19.994	103.793	19.950	13.057	0.506
1232.001	696.684	80.007	19.995	103.772	19.949	13.120	0.504
1240.000	700.766	80.007	19.994	103.778	19.944	13.538	0.531
1248.000	704.864	80.006	19.996	103.781	19.948	13.220	0.533
1256.000	708.828	80.009	19.994	103.782	19.946	13.370	0.515
1264.000	712.884	80.008	19.994	103.778	19.945	13.467	0.530
1272.000	716.925	80.006	19.993	103.778	19.945	13.469	0.513
1280.000	720.957	80.006	19.993	103.767	19.942	13.662	0.513
1288.000	725.054	80.004	19.994	103.793	19.943	13.625	0.506
1296.000	729.183	80.005	19.994	103.784	19.939	13.879	0.525
1304.000	733.266	80.005	19.994	103.769	19.941	13.709	0.502
1312.000	737.327	80.007	19.994	103.758	19.940	13.783	0.520
1320.000	741.284	80.007	19.995	103.753	19.939	13.903	0.473
1325.000	743.696	80.006	19.993	103.764	19.941	13.749	0.470

File: Face_Shield_MCC_30K_min_220207_R2.txt
Sample ID:	C:\MCC\MCC Cal\Test\Shield_MCC_30K_min_220207_R2.txt
Sample Weight (mg):	4.72
Heating Rate (C/s):	0.5
Combustor Temp (C):	900
N2 Flow Rate (cc/min):	80
O2 Flow Rate (cc/min):	20
Calibration File:	C:\MCC\MCC Cal\Coeff1 JN10440_30_210304.txt.txt
T Correction Coefficients:	0	1.024463	0
Time Shift (s):	14
*
Time (s)	Temperature (C)	N2 flow rate (cc/min)	O2 flow rate (cc/min)	Flow Rate (cc/min)	Oxygen (%)	HRR (W/g)	Heating rate (C/s)
0.000	112.043	80.006	19.994	103.713	19.991	0.265	0.019
8.000	111.978	80.006	19.993	103.712	19.988	0.448	-0.035
16.000	112.025	80.005	19.993	103.760	19.985	0.685	-0.012
24.000	112.341	80.006	19.994	103.853	19.966	1.971	0.060
32.000	113.054	80.005	19.996	103.836	19.966	1.998	0.137
40.000	114.005	80.005	19.995	103.906	19.952	2.954	0.127
48.000	115.451	80.008	19.993	103.920	19.948	3.211	0.193
56.000	117.197	80.005	19.994	103.948	19.943	3.577	0.255
64.000	119.407	80.005	19.994	103.965	19.938	3.878	0.296
72.000	121.885	80.007	19.994	103.958	19.932	4.292	0.322
80.001	124.659	80.006	19.994	103.958	19.934	4.174	0.355
88.000	127.738	80.005	19.993	103.974	19.935	4.086	0.403
96.001	130.984	80.005	19.993	103.980	19.937	3.954	0.430
104.001	134.354	80.005	19.995	103.971	19.934	4.185	0.408
112.001	137.956	80.006	19.993	103.970	19.932	4.298	0.473
120.000	141.544	80.007	19.993	103.953	19.935	4.092	0.459
128.000	145.339	80.006	19.994	103.957	19.934	4.144	0.469
136.000	149.110	80.006	19.995	103.959	19.934	4.168	0.484
144.000	152.974	80.006	19.992	103.956	19.935	4.083	0.467
152.000	156.896	80.004	19.993	103.951	19.935	4.093	0.501
160.000	160.895	80.004	19.993	103.951	19.932	4.317	0.496
168.000	164.871	80.003	19.993	103.950	19.927	4.620	0.474
176.000	168.851	80.004	19.994	103.952	19.931	4.381	0.500
184.000	172.888	80.007	19.992	103.942	19.932	4.290	0.539
192.000	176.870	80.007	19.994	103.943	19.935	4.097	0.494
200.000	180.874	80.007	19.995	103.941	19.938	3.888	0.495
208.000	184.939	80.006	19.993	103.930	19.938	3.890	0.498
216.000	188.894	80.007	19.993	103.924	19.936	4.014	0.478
224.000	192.871	80.003	19.995	103.921	19.938	3.907	0.518
232.000	196.737	80.004	19.994	103.917	19.940	3.765	0.515
240.000	200.679	80.004	19.994	103.916	19.936	4.048	0.499
248.000	204.633	80.005	19.993	103.910	19.935	4.108	0.509
256.000	208.603	80.005	19.993	103.910	19.937	3.931	0.446
264.000	212.599	80.009	19.994	103.906	19.937	3.957	0.486
272.000	216.560	80.007	19.994	103.907	19.937	3.980	0.510
280.000	220.552	80.007	19.994	103.908	19.936	4.019	0.481
288.000	224.543	80.008	19.993	103.910	19.934	4.177	0.498
296.000	228.572	80.008	19.993	103.907	19.932	4.296	0.535
304.000	232.566	80.004	19.995	103.909	19.939	3.814	0.465
312.000	236.575	80.007	19.993	103.905	19.938	3.859	0.484
320.000	240.562	80.006	19.993	103.898	19.936	4.030	0.460
328.000	244.562	80.007	19.994	103.900	19.936	4.030	0.466
336.000	248.545	80.005	19.992	103.901	19.934	4.171	0.529
344.000	252.525	80.006	19.993	103.899	19.941	3.712	0.480
352.000	256.528	80.007	19.992	103.897	19.937	3.937	0.501
360.000	260.474	80.006	19.992	103.900	19.936	3.991	0.468
368.000	264.393	80.006	19.992	103.883	19.936	4.048	0.492
376.000	268.340	80.009	19.993	103.892	19.933	4.235	0.487
384.000	272.318	80.007	19.994	103.893	19.935	4.064	0.476
392.000	276.254	80.008	19.992	103.881	19.938	3.866	0.498
400.000	280.264	80.006	19.993	103.875	19.934	4.150	0.514
408.000	284.255	80.005	19.994	103.887	19.936	4.030	0.501
416.000	288.223	80.006	19.994	103.884	19.934	4.167	0.501
424.000	292.216	80.006	19.994	103.875	19.932	4.306	0.485
432.001	296.131	80.006	19.993	103.882	19.933	4.202	0.471
440.000	300.057	80.008	19.992	103.871	19.936	4.001	0.490
448.000	303.986	80.007	19.994	103.871	19.929	4.519	0.517
456.000	307.935	80.007	19.993	103.868	19.931	4.338	0.478
464.000	311.998	80.009	19.993	103.878	19.927	4.662	0.521
472.000	316.145	80.006	19.992	103.889	19.929	4.511	0.541
480.000	320.296	80.006	19.994	103.880	19.929	4.488	0.522
488.000	324.549	80.006	19.995	103.878	19.927	4.654	0.499
496.000	328.782	80.006	19.993	103.875	19.928	4.562	0.497
504.000	333.077	80.007	19.993	103.872	19.929	4.511	0.512
512.000	337.336	80.006	19.995	103.869	19.927	4.637	0.523
520.000	341.540	80.007	19.994	103.869	19.930	4.436	0.544
528.000	345.650	80.008	19.993	103.866	19.929	4.515	0.512
536.000	349.822	80.008	19.993	103.870	19.929	4.526	0.533
544.001	353.919	80.007	19.992	103.866	19.926	4.735	0.487
552.000	358.039	80.007	19.994	103.863	19.925	4.769	0.526
560.000	362.135	80.006	19.993	103.871	19.926	4.716	0.506
568.000	366.279	80.007	19.992	103.868	19.929	4.469	0.531
576.000	370.404	80.006	19.994	103.850	19.924	4.843	0.504
584.000	374.511	80.005	19.995	103.853	19.926	4.734	0.521
592.000	378.570	80.005	19.993	103.855	19.925	4.751	0.481
600.000	382.653	80.009	19.994	103.847	19.923	4.919	0.468
608.000	386.722	80.005	19.995	103.854	19.928	4.570	0.515
616.000	390.660	80.006	19.994	103.850	19.922	4.955	0.481
624.000	394.728	80.009	19.992	103.842	19.919	5.187	0.479
632.000	398.724	80.007	19.992	103.851	19.919	5.212	0.495
640.000	402.689	80.006	19.994	103.834	19.919	5.216	0.519
648.000	406.711	80.007	19.993	103.832	19.920	5.110	0.520
656.000	410.716	80.008	19.993	103.832	19.914	5.519	0.495
664.000	414.702	80.006	19.994	103.845	19.916	5.419	0.478
672.000	418.709	80.006	19.995	103.844	19.914	5.553	0.519
680.000	422.718	80.007	19.994	103.851	19.910	5.775	0.500
688.000	426.763	80.007	19.993	103.842	19.907	5.995	0.496
696.000	430.802	80.006	19.994	103.865	19.905	6.184	0.528
704.000	434.886	80.009	19.995	103.837	19.899	6.584	0.503
712.000	438.884	80.008	19.994	103.852	19.894	6.935	0.506
720.000	442.915	80.005	19.994	103.848	19.888	7.312	0.522
728.000	446.937	80.006	19.994	103.866	19.875	8.218	0.479
736.000	450.973	80.007	19.993	103.853	19.855	9.611	0.484
744.000	455.030	80.007	19.994	103.871	19.826	11.545	0.482
752.000	459.086	80.005	19.993	103.872	19.783	14.518	0.495
760.000	463.118	80.008	19.994	103.880	19.722	18.753	0.501
768.000	467.189	80.007	19.994	103.904	19.634	24.742	0.510
776.000	471.285	80.008	19.993	103.928	19.502	33.818	0.534
784.000	475.446	80.008	19.993	103.947	19.288	48.518	0.501
792.000	479.444	80.009	19.995	103.953	18.999	68.522	0.535
800.000	483.459	80.005	19.993	104.045	18.881	76.615	0.635
808.001	487.640	80.005	19.993	104.078	18.673	90.995	0.568
816.000	491.743	80.005	19.993	104.138	18.356	112.849	0.476
824.000	495.930	80.005	19.994	104.178	18.001	137.430	0.488
832.000	500.189	80.005	19.994	104.258	17.640	162.407	0.529
840.000	504.431	80.008	19.993	104.315	17.302	185.796	0.542
848.000	508.636	80.009	19.993	104.371	17.039	203.914	0.584
856.000	512.773	80.007	19.994	104.385	16.926	211.694	0.506
864.000	517.096	80.009	19.994	104.383	17.023	204.909	0.548
872.000	521.222	80.008	19.993	104.341	17.349	182.335	0.474
880.000	525.485	80.009	19.994	104.290	17.836	148.677	0.532
888.000	529.577	80.006	19.993	104.206	18.360	112.509	0.499
896.000	533.741	80.005	19.995	104.115	18.809	81.551	0.493
904.000	537.901	80.006	19.994	104.049	19.124	59.861	0.543
912.000	542.027	80.006	19.995	103.996	19.334	45.416	0.502
920.000	546.197	80.006	19.996	103.951	19.478	35.487	0.522
928.000	550.270	80.008	19.994	103.933	19.571	29.083	0.470
936.000	554.386	80.007	19.994	103.910	19.633	24.813	0.521
944.000	558.468	80.008	19.994	103.907	19.675	21.930	0.500
952.000	562.549	80.009	19.992	103.880	19.705	19.865	0.496
960.000	566.575	80.008	19.994	103.874	19.720	18.842	0.490
968.000	570.587	80.006	19.994	103.868	19.745	17.141	0.469
976.000	574.657	80.008	19.994	103.867	19.751	16.693	0.505
984.000	578.778	80.006	19.995	103.856	19.763	15.888	0.502
992.000	582.851	80.005	19.995	103.843	19.776	15.023	0.505
1000.000	586.932	80.005	19.993	103.840	19.784	14.489	0.522
1008.000	591.001	80.007	19.993	103.846	19.789	14.113	0.532
1016.000	595.076	80.006	19.993	103.840	19.796	13.658	0.518
1024.000	599.108	80.007	19.994	103.838	19.801	13.266	0.516
1032.000	603.099	80.008	19.993	103.828	19.810	12.684	0.494
1040.000	607.130	80.009	19.991	103.830	19.819	12.073	0.500
1048.000	611.151	80.006	19.994	103.828	19.824	11.696	0.524
1056.000	615.206	80.007	19.994	103.821	19.832	11.150	0.499
1064.000	619.250	80.007	19.995	103.828	19.836	10.894	0.510
1072.000	623.274	80.006	19.993	103.829	19.848	10.076	0.489
1080.001	627.291	80.005	19.995	103.826	19.849	9.980	0.507
1088.000	631.257	80.005	19.995	103.823	19.860	9.211	0.487
1096.000	635.375	80.009	19.994	103.806	19.864	8.974	0.524
1104.000	639.467	80.008	19.994	103.822	19.872	8.425	0.533
1112.000	643.482	80.008	19.994	103.817	19.876	8.144	0.499
1120.000	647.506	80.011	19.994	103.808	19.879	7.950	0.476
1128.000	651.534	80.007	19.993	103.797	19.879	7.902	0.497
1136.000	655.610	80.006	19.993	103.810	19.880	7.863	0.518
1144.000	659.658	80.006	19.993	103.800	19.883	7.655	0.526
1152.000	663.665	80.005	19.994	103.803	19.890	7.197	0.528
1160.000	667.767	80.006	19.995	103.816	19.892	7.056	0.522
1168.001	671.989	80.004	19.994	103.799	19.892	7.022	0.534
1176.000	676.184	80.007	19.993	103.800	19.893	6.985	0.522
1184.000	680.404	80.008	19.996	103.798	19.895	6.812	0.511
1192.000	684.573	80.008	19.994	103.804	19.896	6.790	0.521
1200.001	688.760	80.009	19.994	103.795	19.892	7.043	0.507
1208.001	692.902	80.009	19.994	103.792	19.894	6.907	0.532
1216.001	697.058	80.006	19.993	103.800	19.892	7.027	0.524
1224.000	701.195	80.007	19.993	103.795	19.892	7.070	0.533
1232.000	705.288	80.008	19.994	103.798	19.893	6.941	0.503
1240.000	709.387	80.006	19.994	103.793	19.893	7.000	0.517
1248.000	713.462	80.007	19.994	103.797	19.887	7.388	0.496
1256.000	717.569	80.008	19.994	103.791	19.890	7.207	0.522
1264.000	721.626	80.008	19.993	103.791	19.886	7.426	0.531
1272.001	725.725	80.006	19.995	103.791	19.888	7.286	0.483
1280.000	729.779	80.008	19.994	103.791	19.890	7.209	0.527
1288.000	733.788	80.009	19.993	103.793	19.886	7.470	0.462
1296.000	737.903	80.006	19.994	103.789	19.886	7.450	0.504
1304.000	742.019	80.006	19.994	103.789	19.886	7.455	0.526
1307.000	743.526	80.007	19.993	103.788	19.889	7.213	0.483