Folder: fsri_materials_database/01_Data/Face_Shield/MCC (part 2)

File: Face_Shield_MCC_30K_min_220207_R3.txt
Sample ID:	C:\MCC\MCC Cal\Test\Shield_MCC_30K_min_220207_R3.txt
Sample Weight (mg):	4.84
Heating Rate (C/s):	0.5
Combustor Temp (C):	900
N2 Flow Rate (cc/min):	80
O2 Flow Rate (cc/min):	20
Calibration File:	C:\MCC\MCC Cal\Coeff1 JN10440_30_210304.txt.txt
T Correction Coefficients:	0	1.024463	0
Time Shift (s):	14
*
Time (s)	Temperature (C)	N2 flow rate (cc/min)	O2 flow rate (cc/min)	Flow Rate (cc/min)	Oxygen (%)	HRR (W/g)	Heating rate (C/s)
0.000	112.269	80.005	19.995	103.687	20.084	-0.093	-0.029
7.500	112.281	80.005	19.994	103.695	20.083	-0.057	0.010
15.000	112.271	80.005	19.993	103.772	20.070	0.808	-0.009
22.500	112.617	80.005	19.993	103.896	20.051	2.116	0.071
30.000	113.498	80.005	19.995	103.940	20.043	2.657	0.146
37.500	114.847	80.006	19.994	103.945	20.035	3.186	0.213
45.000	116.611	80.008	19.994	103.935	20.032	3.351	0.262
52.500	118.701	80.007	19.992	103.946	20.036	3.140	0.283
60.000	121.038	80.008	19.994	103.950	20.033	3.291	0.322
67.500	123.726	80.008	19.994	103.958	20.033	3.298	0.347
75.000	126.628	80.006	19.994	103.962	20.032	3.358	0.370
82.500	129.773	80.005	19.995	103.984	20.030	3.496	0.440
90.001	132.959	80.005	19.994	103.984	20.029	3.582	0.433
97.500	136.401	80.007	19.995	103.980	20.031	3.444	0.470
105.000	139.949	80.006	19.995	103.979	20.028	3.632	0.471
112.500	143.671	80.005	19.994	103.977	20.028	3.681	0.511
120.000	147.416	80.007	19.993	103.972	20.034	3.261	0.525
127.500	151.268	80.007	19.994	103.961	20.038	2.980	0.511
135.000	155.122	80.005	19.994	103.949	20.038	2.945	0.511
142.500	159.033	80.009	19.993	103.946	20.037	3.030	0.530
150.000	162.820	80.008	19.994	103.948	20.043	2.670	0.532
157.500	166.650	80.005	19.995	103.941	20.037	3.042	0.475
165.000	170.429	80.007	19.995	103.931	20.039	2.901	0.448
172.500	174.208	80.005	19.994	103.927	20.041	2.805	0.474
180.000	177.880	80.006	19.994	103.915	20.039	2.933	0.500
187.500	181.598	80.005	19.995	103.908	20.042	2.697	0.493
195.000	185.272	80.005	19.994	103.909	20.043	2.650	0.477
202.500	188.976	80.008	19.993	103.909	20.035	3.196	0.469
210.000	192.598	80.006	19.993	103.907	20.039	2.931	0.420
217.500	196.229	80.007	19.993	103.909	20.042	2.687	0.481
225.000	199.940	80.007	19.993	103.905	20.042	2.702	0.520
232.500	203.588	80.009	19.993	103.905	20.037	3.069	0.508
240.000	207.198	80.006	19.994	103.904	20.043	2.639	0.464
247.500	210.950	80.006	19.994	103.894	20.038	2.948	0.513
255.000	214.611	80.008	19.994	103.902	20.043	2.676	0.479
262.500	218.376	80.006	19.994	103.903	20.045	2.529	0.463
270.000	222.170	80.005	19.995	103.897	20.042	2.692	0.540
277.500	225.916	80.005	19.995	103.902	20.045	2.499	0.495
285.000	229.749	80.006	19.995	103.893	20.042	2.727	0.529
292.500	233.524	80.008	19.993	103.890	20.042	2.703	0.517
300.000	237.280	80.006	19.992	103.885	20.043	2.666	0.485
307.500	241.002	80.008	19.994	103.882	20.042	2.734	0.490
315.000	244.829	80.007	19.994	103.873	20.040	2.839	0.495
322.500	248.542	80.005	19.994	103.876	20.044	2.573	0.490
330.000	252.424	80.005	19.994	103.877	20.045	2.508	0.488
337.501	256.151	80.006	19.994	103.870	20.047	2.367	0.495
345.000	259.939	80.005	19.994	103.871	20.050	2.183	0.503
352.500	263.672	80.005	19.994	103.870	20.049	2.209	0.493
360.000	267.464	80.005	19.994	103.868	20.049	2.269	0.489
367.500	271.215	80.008	19.994	103.867	20.053	1.981	0.519
375.000	274.970	80.006	19.996	103.863	20.052	2.062	0.502
382.501	278.705	80.007	19.993	103.869	20.054	1.893	0.506
390.000	282.396	80.008	19.993	103.869	20.052	2.021	0.481
397.500	286.160	80.009	19.993	103.859	20.049	2.266	0.541
405.000	289.863	80.006	19.995	103.870	20.050	2.203	0.473
412.500	293.604	80.007	19.994	103.871	20.048	2.275	0.513
420.000	297.393	80.006	19.993	103.867	20.052	2.010	0.501
427.500	301.178	80.006	19.993	103.864	20.051	2.119	0.505
435.000	304.953	80.006	19.994	103.868	20.050	2.181	0.490
442.500	308.752	80.007	19.994	103.868	20.048	2.304	0.500
450.000	312.557	80.007	19.994	103.867	20.048	2.277	0.535
457.500	316.311	80.005	19.994	103.867	20.045	2.493	0.488
465.000	320.022	80.006	19.995	103.868	20.048	2.278	0.483
472.500	323.835	80.008	19.994	103.858	20.045	2.519	0.486
480.001	327.614	80.006	19.994	103.866	20.043	2.640	0.500
487.501	331.416	80.006	19.993	103.865	20.049	2.218	0.518
495.000	335.202	80.006	19.993	103.868	20.048	2.280	0.495
502.500	339.046	80.008	19.994	103.861	20.048	2.302	0.505
510.000	342.808	80.005	19.994	103.858	20.046	2.431	0.495
517.500	346.579	80.007	19.994	103.869	20.047	2.359	0.489
525.000	350.405	80.006	19.994	103.856	20.050	2.179	0.495
532.500	354.221	80.007	19.994	103.856	20.044	2.595	0.496
540.000	358.000	80.006	19.994	103.860	20.043	2.616	0.494
547.500	361.772	80.007	19.993	103.853	20.042	2.708	0.517
555.000	365.501	80.006	19.994	103.847	20.042	2.676	0.508
562.500	369.340	80.005	19.994	103.842	20.044	2.603	0.520
570.000	373.121	80.004	19.994	103.838	20.044	2.542	0.524
577.500	376.989	80.006	19.994	103.844	20.043	2.641	0.550
585.000	380.733	80.006	19.994	103.841	20.044	2.603	0.500
592.500	384.503	80.006	19.994	103.839	20.044	2.561	0.475
600.000	388.289	80.004	19.994	103.845	20.043	2.641	0.479
607.500	392.101	80.008	19.993	103.849	20.041	2.808	0.501
615.000	395.929	80.007	19.993	103.838	20.036	3.122	0.511
622.500	399.676	80.006	19.994	103.850	20.036	3.091	0.485
630.000	403.474	80.008	19.996	103.833	20.037	3.063	0.530
637.500	407.247	80.009	19.994	103.830	20.038	2.961	0.516
645.000	411.064	80.006	19.993	103.839	20.032	3.354	0.520
652.500	414.830	80.004	19.995	103.844	20.035	3.207	0.523
660.000	418.574	80.006	19.994	103.836	20.030	3.537	0.457
667.500	422.439	80.007	19.994	103.856	20.034	3.277	0.464
675.000	426.238	80.007	19.994	103.850	20.032	3.396	0.507
682.500	430.055	80.007	19.994	103.854	20.025	3.844	0.502
690.000	433.960	80.007	19.994	103.836	20.022	4.058	0.539
697.500	437.761	80.008	19.993	103.839	20.019	4.265	0.521
705.000	441.572	80.007	19.992	103.841	20.013	4.679	0.504
712.500	445.334	80.007	19.995	103.848	20.001	5.432	0.463
720.000	449.191	80.009	19.993	103.863	19.984	6.584	0.507
727.500	452.941	80.005	19.993	103.866	19.957	8.376	0.494
735.000	456.755	80.006	19.994	103.866	19.922	10.713	0.508
742.500	460.576	80.005	19.994	103.866	19.860	14.896	0.509
750.000	464.388	80.006	19.995	103.866	19.764	21.303	0.504
757.500	468.187	80.006	19.995	103.888	19.636	29.875	0.539
765.000	471.903	80.006	19.993	103.911	19.481	40.309	0.509
772.500	475.773	80.007	19.993	103.926	19.398	45.902	0.495
780.000	479.602	80.007	19.993	104.001	19.236	56.722	0.509
787.500	483.373	80.006	19.993	104.046	18.918	78.165	0.486
795.000	487.185	80.007	19.993	103.999	18.743	89.939	0.512
802.500	491.042	80.007	19.993	104.174	18.470	108.318	0.517
810.000	494.943	80.006	19.995	104.149	18.121	131.868	0.503
817.500	498.904	80.006	19.996	104.244	17.791	154.123	0.507
825.000	502.784	80.005	19.993	104.294	17.471	175.676	0.493
832.500	506.708	80.008	19.993	104.352	17.218	192.743	0.520
840.000	510.637	80.005	19.995	104.379	17.066	202.998	0.535
847.500	514.598	80.006	19.995	104.390	17.065	202.969	0.564
855.000	518.554	80.007	19.995	104.375	17.248	190.599	0.529
862.500	522.427	80.006	19.993	104.335	17.604	166.562	0.519
870.000	526.352	80.008	19.992	104.277	18.078	134.598	0.506
877.500	530.251	80.009	19.993	104.185	18.568	101.598	0.528
885.000	534.223	80.010	19.993	104.114	18.974	74.297	0.569
892.500	538.028	80.007	19.994	104.031	19.268	54.567	0.451
900.000	541.572	80.007	19.994	103.982	19.463	41.511	0.390
907.500	545.648	80.005	19.994	103.950	19.597	32.536	0.372
915.000	549.517	80.006	19.994	103.910	19.684	26.662	0.525
922.500	553.314	80.005	19.994	103.908	19.747	22.480	0.515
930.000	557.158	80.005	19.994	103.905	19.790	19.549	0.520
937.500	560.888	80.007	19.995	103.880	19.821	17.523	0.523
945.000	564.670	80.007	19.995	103.875	19.847	15.776	0.505
952.500	568.475	80.008	19.993	103.860	19.862	14.759	0.496
960.000	572.326	80.008	19.994	103.865	19.869	14.267	0.518
967.500	576.295	80.008	19.994	103.864	19.885	13.251	0.499
975.000	580.167	80.007	19.993	103.845	19.894	12.617	0.520
982.500	584.044	80.006	19.994	103.850	19.899	12.250	0.542
990.000	587.870	80.006	19.993	103.846	19.906	11.809	0.511
997.500	591.673	80.006	19.993	103.840	19.907	11.723	0.521
1005.000	595.540	80.005	19.995	103.834	19.917	11.090	0.515
1012.500	599.359	80.006	19.994	103.829	19.921	10.829	0.478
1020.000	603.236	80.008	19.993	103.827	19.925	10.544	0.556
1027.500	607.018	80.006	19.994	103.826	19.932	10.101	0.483
1035.000	610.832	80.005	19.995	103.826	19.938	9.690	0.505
1042.500	614.702	80.007	19.994	103.821	19.945	9.175	0.519
1050.000	618.548	80.007	19.993	103.825	19.952	8.712	0.521
1057.500	622.361	80.005	19.995	103.824	19.958	8.330	0.522
1065.000	626.238	80.006	19.995	103.825	19.960	8.165	0.500
1072.500	630.046	80.006	19.994	103.818	19.970	7.551	0.509
1080.000	633.792	80.007	19.994	103.819	19.973	7.353	0.501
1087.500	637.613	80.007	19.994	103.799	19.974	7.283	0.497
1095.000	641.362	80.006	19.995	103.809	19.980	6.830	0.490
1102.500	645.152	80.008	19.995	103.804	19.983	6.650	0.493
1110.000	648.951	80.007	19.993	103.799	19.989	6.238	0.512
1117.500	652.752	80.007	19.993	103.818	19.992	6.056	0.511
1125.000	656.639	80.008	19.996	103.803	19.992	6.046	0.500
1132.500	660.398	80.008	19.994	103.802	19.989	6.277	0.496
1140.000	664.232	80.007	19.993	103.796	19.992	6.027	0.526
1147.500	667.976	80.007	19.994	103.792	19.996	5.800	0.498
1155.000	671.779	80.008	19.994	103.787	19.999	5.576	0.516
1162.500	675.595	80.006	19.993	103.800	19.997	5.699	0.514
1170.000	679.460	80.006	19.994	103.792	19.993	6.014	0.511
1177.500	683.136	80.007	19.994	103.795	19.995	5.831	0.527
1185.000	686.959	80.007	19.993	103.798	19.994	5.937	0.590
1192.500	690.779	80.008	19.994	103.789	19.994	5.885	0.492
1200.000	694.632	80.006	19.996	103.786	19.998	5.669	0.520
1207.502	698.481	80.009	19.994	103.788	19.994	5.929	0.510
1215.001	702.314	80.009	19.993	103.785	19.991	6.095	0.513
1222.500	706.100	80.005	19.996	103.787	19.988	6.348	0.476
1230.000	709.921	80.006	19.995	103.789	19.992	6.076	0.522
1237.500	713.582	80.006	19.994	103.789	19.991	6.118	0.471
1245.000	717.449	80.006	19.994	103.791	19.992	6.040	0.510
1252.500	721.182	80.006	19.994	103.788	19.986	6.445	0.465
1260.000	724.961	80.008	19.994	103.779	19.987	6.413	0.480
1267.500	728.791	80.008	19.993	103.786	19.986	6.441	0.516
1275.000	732.592	80.008	19.994	103.782	19.987	6.392	0.534
1282.500	736.361	80.008	19.995	103.783	19.984	6.558	0.545
1290.000	740.220	80.008	19.994	103.773	19.985	6.499	0.519
1296.500	743.473	80.008	19.993	103.782	19.984	6.595	0.504