Folder: fsri_materials_database/01_Data/Lightweight_Gypsum_Wallboard_Gypsum_Core/MCC

Note: 01_Data/README.md
# Materials and Products Database
## 01_Data

Raw data generated from each apparatus are included here in plain-text format. The data is organized first by material, next by the short name of test apparatus used, and where applicable additional filtering by test settings.

### material.json

Each material directory contains a json file of the same name as the material. This file links the data stored in the repository as well as data and graphs produced by the accompanying scripts (__02_Scripts__) to the respective landing page for the material on the front-end website.

File: Lightweight_Gypsum_Wallboard_Core_MCC_30K_min_211129_R1.txt
Sample ID:	C:\MCC\MCC Cal\Test\LW_GypBoard_Gypsum_Core_MCC_30K_min_211129_R1.txt
Sample Weight (mg):	4.8
Heating Rate (C/s):	0.5
Combustor Temp (C):	900
N2 Flow Rate (cc/min):	80
O2 Flow Rate (cc/min):	20
Calibration File:	C:\MCC\MCC Cal\Coeff1 JN10440_30_210304.txt.txt
T Correction Coefficients:	0	1.024463	0
Time Shift (s):	14
*
Time (s)	Temperature (C)	N2 flow rate (cc/min)	O2 flow rate (cc/min)	Flow Rate (cc/min)	Oxygen (%)	HRR (W/g)	Heating rate (C/s)
0.000	108.874	80.006	19.994	103.100	20.119	-0.273	0.005
8.000	108.862	80.006	19.993	103.110	20.116	-0.065	-0.014
16.000	109.015	80.006	19.994	103.247	20.098	1.155	0.062
24.000	109.659	80.005	19.995	103.292	20.083	2.164	0.076
32.000	110.817	80.005	19.994	103.293	20.079	2.375	0.115
40.000	112.419	80.006	19.993	103.286	20.080	2.325	0.207
48.000	114.297	80.005	19.993	103.293	20.081	2.278	0.229
56.000	116.411	80.009	19.996	103.319	20.077	2.518	0.274
64.000	118.812	80.004	19.995	103.342	20.076	2.618	0.302
72.001	121.511	80.004	19.995	103.347	20.077	2.572	0.361
80.000	124.467	80.005	19.995	103.362	20.075	2.660	0.385
88.000	127.665	80.007	19.994	103.362	20.076	2.592	0.405
96.000	131.064	80.005	19.995	103.365	20.072	2.855	0.403
104.000	134.665	80.006	19.994	103.370	20.077	2.519	0.473
112.000	138.338	80.008	19.994	103.372	20.079	2.404	0.446
120.001	142.206	80.006	19.994	103.371	20.080	2.367	0.518
128.000	146.136	80.006	19.994	103.368	20.079	2.380	0.479
136.000	150.064	80.007	19.995	103.358	20.080	2.335	0.464
144.000	154.101	80.006	19.994	103.332	20.084	2.058	0.507
152.000	158.033	80.006	19.995	103.332	20.084	2.046	0.493
160.000	161.805	80.004	19.995	102.993	20.131	-1.080	0.388
168.000	164.170	80.007	19.995	102.946	20.153	-2.536	0.246
176.000	165.156	80.003	19.994	102.940	20.159	-2.948	0.058
184.000	165.214	80.004	19.994	102.941	20.166	-3.398	-0.006
192.000	164.563	80.006	19.994	102.941	20.166	-3.428	-0.079
200.000	163.382	80.008	19.994	102.940	20.168	-3.565	-0.179
208.000	161.865	80.008	19.994	102.932	20.167	-3.485	-0.190
216.000	160.089	80.005	19.994	102.939	20.169	-3.652	-0.206
224.000	158.111	80.005	19.995	102.937	20.170	-3.712	-0.249
232.000	156.118	80.007	19.995	102.942	20.171	-3.737	-0.232
240.000	154.085	80.005	19.996	102.948	20.168	-3.581	-0.261
248.000	152.037	80.005	19.995	102.950	20.171	-3.747	-0.246
256.000	149.945	80.005	19.994	102.970	20.166	-3.445	-0.243
264.000	147.885	80.004	19.994	102.974	20.168	-3.543	-0.263
272.001	145.940	80.008	19.994	102.978	20.170	-3.715	-0.243
280.000	144.011	80.005	19.993	102.965	20.158	-2.918	-0.252
288.000	143.245	80.007	19.994	104.027	20.015	6.776	0.093
296.000	146.345	80.007	19.994	103.913	19.995	8.104	0.558
304.000	152.281	80.008	19.994	103.840	19.996	8.009	0.861
312.000	160.087	80.006	19.995	103.774	20.014	6.764	1.074
320.000	169.184	80.005	19.994	103.690	20.029	5.777	1.166
328.000	178.764	80.005	19.994	103.604	20.044	4.742	1.213
336.000	188.662	80.006	19.995	103.555	20.060	3.700	1.255
344.000	198.302	80.005	19.995	103.522	20.074	2.722	1.197
352.000	207.781	80.005	19.994	103.478	20.080	2.359	1.176
360.000	216.826	80.009	19.994	103.418	20.084	2.063	1.103
368.000	225.397	80.006	19.994	103.416	20.095	1.347	1.063
376.000	233.602	80.007	19.995	103.399	20.096	1.272	0.994
384.000	241.435	80.007	19.993	103.378	20.098	1.117	0.951
392.000	248.997	80.007	19.994	103.370	20.100	0.977	0.936
400.000	256.373	80.005	19.993	103.352	20.106	0.581	0.934
408.000	263.350	80.005	19.995	103.340	20.109	0.362	0.872
416.000	270.067	80.005	19.995	103.324	20.111	0.234	0.824
424.000	276.490	80.004	19.995	103.321	20.115	-0.031	0.784
432.000	282.703	80.005	19.995	103.358	20.120	-0.347	0.775
440.000	288.714	80.008	19.994	103.299	20.121	-0.435	0.697
448.000	294.565	80.006	19.994	103.296	20.127	-0.830	0.708
456.000	300.090	80.007	19.995	103.292	20.124	-0.620	0.679
464.000	305.371	80.009	19.994	103.266	20.132	-1.140	0.652
472.000	310.382	80.005	19.993	103.258	20.133	-1.195	0.623
480.000	315.211	80.004	19.994	103.253	20.137	-1.470	0.599
488.000	319.762	80.005	19.994	103.250	20.139	-1.629	0.567
496.001	324.160	80.004	19.995	103.241	20.138	-1.549	0.539
504.000	328.454	80.004	19.994	103.245	20.142	-1.819	0.539
512.000	332.599	80.005	19.994	103.261	20.144	-1.947	0.525
520.000	336.708	80.007	19.995	103.219	20.149	-2.262	0.488
528.000	340.642	80.005	19.996	103.224	20.149	-2.290	0.446
536.000	344.522	80.007	19.994	103.219	20.146	-2.071	0.460
544.000	348.394	80.010	19.993	103.243	20.145	-2.052	0.459
552.000	352.315	80.006	19.995	103.231	20.148	-2.226	0.495
560.000	356.174	80.005	19.995	103.220	20.147	-2.158	0.482
568.000	360.063	80.006	19.994	103.222	20.146	-2.078	0.483
576.000	363.941	80.006	19.993	103.229	20.152	-2.460	0.501
584.000	367.919	80.006	19.995	103.222	20.150	-2.364	0.519
592.000	371.963	80.005	19.995	103.227	20.154	-2.642	0.492
600.000	376.090	80.008	19.995	103.232	20.151	-2.447	0.537
608.000	380.228	80.007	19.994	103.229	20.154	-2.652	0.503
616.000	384.339	80.006	19.996	103.218	20.160	-3.022	0.499
624.000	388.437	80.007	19.995	103.214	20.161	-3.067	0.518
632.001	392.582	80.006	19.994	103.214	20.159	-2.954	0.518
640.000	396.688	80.004	19.993	103.218	20.160	-3.037	0.481
648.000	400.680	80.006	19.994	103.216	20.161	-3.063	0.476
656.000	404.747	80.005	19.995	103.212	20.165	-3.384	0.508
664.000	408.824	80.006	19.995	103.215	20.166	-3.418	0.517
672.000	412.971	80.006	19.995	103.214	20.168	-3.577	0.503
680.000	417.125	80.006	19.995	103.212	20.169	-3.616	0.547
688.000	421.448	80.007	19.995	103.216	20.161	-3.130	0.576
696.000	425.824	80.007	19.994	103.222	20.167	-3.500	0.553
704.000	430.167	80.008	19.994	103.214	20.164	-3.321	0.572
712.000	434.585	80.005	19.995	103.214	20.170	-3.730	0.567
720.000	438.973	80.004	19.995	103.210	20.172	-3.822	0.498
728.000	443.234	80.008	19.994	103.220	20.173	-3.932	0.230
736.000	447.653	80.006	19.995	103.204	20.172	-3.827	0.484
744.000	451.812	80.006	19.994	103.201	20.175	-4.065	0.529
752.000	455.762	80.004	19.995	103.206	20.177	-4.185	0.505
760.000	459.637	80.006	19.992	103.193	20.180	-4.362	0.456
768.000	463.549	80.006	19.995	103.203	20.183	-4.540	0.521
776.000	467.273	80.006	19.995	103.202	20.182	-4.532	0.501
784.000	471.057	80.008	19.994	103.189	20.181	-4.413	0.482
792.000	474.922	80.006	19.995	103.204	20.184	-4.635	0.485
800.000	478.779	80.004	19.996	103.197	20.186	-4.747	0.465
808.000	482.759	80.005	19.995	103.194	20.184	-4.636	0.492
816.000	486.813	80.004	19.994	103.179	20.185	-4.728	0.508
824.000	490.900	80.004	19.993	103.205	20.185	-4.688	0.481
832.000	495.063	80.004	19.994	103.192	20.187	-4.836	0.543
840.000	499.118	80.004	19.994	103.195	20.188	-4.935	0.519
848.000	503.192	80.008	19.994	103.194	20.188	-4.909	0.478
856.000	507.261	80.005	19.994	103.182	20.188	-4.921	0.510
864.000	511.329	80.005	19.994	103.204	20.191	-5.102	0.528
872.000	515.382	80.006	19.994	103.181	20.190	-5.040	0.492
880.000	519.452	80.003	19.994	103.183	20.192	-5.152	0.525
888.000	523.462	80.005	19.995	103.185	20.191	-5.087	0.461
896.000	527.354	80.005	19.994	103.177	20.191	-5.109	0.472
904.000	531.229	80.003	19.995	103.179	20.189	-4.977	0.477
912.000	535.083	80.005	19.994	103.179	20.193	-5.272	0.479
920.000	539.040	80.007	19.994	103.196	20.199	-5.621	0.498
928.000	543.041	80.005	19.995	103.200	20.201	-5.768	0.521
936.000	547.013	80.007	19.993	103.191	20.198	-5.582	0.504
944.000	551.081	80.010	19.994	103.190	20.196	-5.418	0.507
952.000	555.127	80.005	19.994	103.193	20.196	-5.471	0.506
960.000	559.127	80.004	19.994	103.192	20.200	-5.687	0.512
968.000	563.131	80.006	19.996	103.179	20.202	-5.854	0.492
976.000	567.136	80.006	19.995	103.184	20.197	-5.497	0.519
984.000	571.118	80.004	19.996	103.183	20.199	-5.670	0.490
992.000	575.205	80.006	19.995	103.175	20.197	-5.493	0.510
1000.000	579.295	80.006	19.994	103.190	20.207	-6.149	0.507
1008.000	583.382	80.005	19.994	103.193	20.204	-5.947	0.521
1016.000	587.481	80.006	19.994	103.182	20.204	-5.950	0.489
1024.001	591.527	80.008	19.994	103.181	20.203	-5.937	0.482
1032.000	595.682	80.006	19.993	103.177	20.200	-5.707	0.532
1040.000	599.743	80.005	19.994	103.198	20.202	-5.829	0.465
1048.001	603.933	80.004	19.994	103.192	20.207	-6.181	0.505
1056.000	608.152	80.007	19.994	103.208	20.205	-6.047	0.564
1064.001	612.276	80.005	19.995	103.189	20.206	-6.097	0.510
1072.001	616.372	80.004	19.995	103.187	20.208	-6.243	0.528
1080.000	620.431	80.006	19.995	103.191	20.202	-5.817	0.538
1088.000	624.417	80.006	19.994	103.182	20.207	-6.166	0.498
1096.000	628.411	80.006	19.994	103.188	20.205	-6.038	0.537
1104.001	632.488	80.008	19.993	103.196	20.210	-6.352	0.509
1112.001	636.579	80.008	19.993	103.203	20.210	-6.382	0.530
1120.000	640.684	80.004	19.993	103.208	20.210	-6.385	0.523
1128.000	644.766	80.007	19.993	103.208	20.211	-6.457	0.500
1136.000	648.800	80.004	19.995	103.209	20.213	-6.607	0.489
1144.001	652.888	80.002	19.995	103.195	20.212	-6.494	0.514
1152.001	656.919	80.004	19.994	103.205	20.212	-6.489	0.468
1160.001	660.910	80.006	19.993	103.206	20.210	-6.410	0.501
1168.000	664.880	80.005	19.997	103.195	20.210	-6.353	0.486
1176.001	668.817	80.005	19.995	103.203	20.216	-6.773	0.503
1184.000	672.772	80.009	19.994	103.196	20.212	-6.523	0.492
1192.000	676.795	80.006	19.994	103.181	20.217	-6.872	0.513
1200.000	680.844	80.004	19.994	103.215	20.215	-6.707	0.517
1208.000	684.907	80.005	19.993	103.196	20.214	-6.643	0.506
1216.000	689.045	80.006	19.994	103.213	20.216	-6.812	0.573
1224.000	693.054	80.005	19.995	103.204	20.213	-6.591	0.514
1232.000	697.140	80.003	19.994	103.202	20.215	-6.735	0.547
1240.001	701.320	80.006	19.994	103.213	20.213	-6.605	0.533
1248.001	705.741	80.006	19.994	103.212	20.218	-6.952	0.571
1256.000	710.118	80.005	19.996	103.180	20.216	-6.781	0.545
1264.000	714.485	80.007	19.995	103.186	20.218	-6.902	0.521
1272.000	718.646	80.005	19.994	103.191	20.219	-6.975	0.509
1280.000	722.686	80.004	19.994	103.192	20.219	-6.983	0.471
1288.000	726.727	80.005	19.996	103.165	20.222	-7.209	0.453
1296.001	730.768	80.004	19.994	103.173	20.220	-7.070	0.524
1304.000	734.887	80.004	19.994	103.176	20.220	-7.083	0.507
1312.000	738.836	80.005	19.995	103.175	20.223	-7.223	0.487
1320.000	742.931	80.006	19.995	103.174	20.226	-7.442	0.513
1321.000	743.467	80.006	19.995	103.175	20.226	-7.448	0.530

File: Lightweight_Gypsum_Wallboard_Gypsum_Core_MCC_30K_min_211130_R3.txt
Sample ID:	C:\MCC\MCC Cal\Test\LW_GypBoard_Gypsum_Core_MCC_30K_min_211130_R3.txt
Sample Weight (mg):	4.91
Heating Rate (C/s):	0.5
Combustor Temp (C):	900
N2 Flow Rate (cc/min):	80
O2 Flow Rate (cc/min):	20
Calibration File:	C:\MCC\MCC Cal\Coeff1 JN10440_30_210304.txt.txt
T Correction Coefficients:	0	1.024463	0
Time Shift (s):	14
*
Time (s)	Temperature (C)	N2 flow rate (cc/min)	O2 flow rate (cc/min)	Flow Rate (cc/min)	Oxygen (%)	HRR (W/g)	Heating rate (C/s)
0.000	109.036	80.006	19.994	103.108	19.946	-0.083	-0.025
8.001	109.019	80.007	19.994	103.105	19.944	0.023	-0.022
16.000	108.994	80.008	19.995	103.117	19.944	0.052	-0.022
24.000	109.108	80.008	19.995	103.185	19.928	1.118	0.033
32.000	109.526	80.007	19.994	103.284	19.915	1.971	0.036
40.000	110.450	80.007	19.995	103.290	19.911	2.224	0.133
48.000	111.692	80.009	19.994	103.306	19.911	2.239	0.182
56.000	113.368	80.007	19.995	103.331	19.907	2.470	0.227
64.000	115.339	80.006	19.994	103.342	19.900	2.960	0.254
72.001	117.638	80.006	19.994	103.354	19.898	3.085	0.307
80.000	120.235	80.008	19.995	103.357	19.894	3.310	0.337
88.001	123.128	80.007	19.994	103.367	19.896	3.191	0.398
96.001	126.241	80.005	19.995	103.380	19.899	3.007	0.394
104.001	129.577	80.010	19.995	103.367	19.902	2.787	0.423
112.001	133.024	80.008	19.994	103.369	19.896	3.168	0.419
120.000	136.652	80.009	19.994	103.375	19.897	3.103	0.456
128.000	140.422	80.010	19.994	103.371	19.900	2.928	0.463
136.000	144.288	80.008	19.994	103.370	19.898	3.070	0.481
144.000	148.205	80.007	19.994	103.369	19.898	3.038	0.508
152.000	152.217	80.007	19.993	103.367	19.901	2.880	0.495
160.000	156.201	80.008	19.994	103.366	19.898	3.078	0.509
168.000	160.229	80.007	19.995	103.343	19.905	2.589	0.494
176.000	164.270	80.007	19.994	103.338	19.903	2.733	0.542
184.000	168.324	80.009	19.994	103.341	19.903	2.721	0.498
192.000	172.392	80.009	19.994	103.335	19.903	2.749	0.533
200.000	176.390	80.007	19.995	103.329	19.908	2.384	0.494
208.000	180.376	80.010	19.995	103.328	19.907	2.480	0.458
216.000	184.379	80.010	19.995	103.321	19.907	2.444	0.496
224.000	188.431	80.008	19.994	103.325	19.910	2.274	0.496
232.000	192.399	80.006	19.996	103.307	19.909	2.316	0.506
240.000	196.385	80.008	19.996	103.309	19.910	2.285	0.497
248.000	200.373	80.008	19.995	103.312	19.914	2.042	0.530
256.000	204.341	80.007	19.995	103.322	19.914	2.021	0.482
264.000	208.327	80.008	19.994	103.299	19.916	1.851	0.498
272.000	212.271	80.008	19.994	103.310	19.913	2.058	0.463
280.000	216.265	80.008	19.995	103.292	19.912	2.114	0.481
288.001	220.197	80.009	19.994	103.303	19.915	1.923	0.486
296.000	224.194	80.009	19.996	103.292	19.922	1.471	0.474
304.000	228.160	80.008	19.996	103.301	19.921	1.572	0.484
312.000	232.220	80.007	19.995	103.296	19.919	1.716	0.492
320.000	236.216	80.007	19.995	103.293	19.920	1.646	0.508
328.000	240.138	80.007	19.995	103.296	19.920	1.640	0.493
336.000	244.154	80.008	19.993	103.295	19.917	1.813	0.484
344.000	248.155	80.007	19.994	103.293	19.920	1.593	0.465
352.000	252.203	80.010	19.994	103.285	19.919	1.671	0.499
360.000	256.231	80.009	19.994	103.284	19.917	1.791	0.498
368.000	260.260	80.009	19.994	103.282	19.922	1.457	0.496
376.000	264.258	80.010	19.994	103.279	19.919	1.669	0.494
384.000	268.251	80.005	19.995	103.284	19.925	1.302	0.475
392.000	272.392	80.007	19.995	103.281	19.922	1.512	0.501
400.000	276.354	80.008	19.995	103.279	19.925	1.323	0.492
408.000	280.348	80.008	19.994	103.270	19.922	1.500	0.511
416.000	284.401	80.006	19.996	103.286	19.922	1.496	0.524
424.000	288.404	80.008	19.995	103.267	19.927	1.188	0.485
432.000	292.423	80.009	19.993	103.258	19.925	1.303	0.498
440.000	296.478	80.008	19.994	103.274	19.928	1.100	0.511
448.000	300.502	80.009	19.994	103.273	19.927	1.145	0.523
456.000	304.497	80.010	19.994	103.276	19.931	0.871	0.453
464.000	308.566	80.011	19.994	103.279	19.936	0.574	0.506
472.000	312.611	80.009	19.995	103.267	19.930	0.977	0.546
480.000	316.635	80.008	19.995	103.275	19.930	0.931	0.484
488.000	320.637	80.007	19.995	103.262	19.930	0.977	0.526
496.000	324.517	80.007	19.994	103.257	19.934	0.682	0.467
504.000	328.816	80.008	19.994	103.260	19.930	0.954	0.526
512.000	332.857	80.008	19.995	103.256	19.935	0.635	0.531
520.000	336.895	80.008	19.995	103.255	19.931	0.873	0.508
528.000	340.997	80.008	19.993	103.257	19.931	0.882	0.555
536.000	345.012	80.010	19.993	103.254	19.931	0.909	0.530
544.000	349.067	80.008	19.993	103.251	19.937	0.531	0.540
552.000	353.079	80.008	19.995	103.253	19.937	0.515	0.508
560.000	357.127	80.007	19.993	103.252	19.938	0.448	0.491
568.000	361.173	80.008	19.993	103.254	19.935	0.630	0.502
576.000	365.228	80.006	19.994	103.255	19.937	0.493	0.497
584.000	369.274	80.007	19.995	103.251	19.941	0.236	0.509
592.000	373.350	80.008	19.994	103.254	19.943	0.135	0.523
600.000	377.379	80.010	19.996	103.250	19.940	0.317	0.504
608.000	381.434	80.008	19.996	103.247	19.943	0.128	0.512
616.000	385.498	80.008	19.995	103.242	19.943	0.139	0.517
624.000	389.498	80.009	19.992	103.249	19.937	0.499	0.500
632.000	393.606	80.006	19.993	103.249	19.940	0.288	0.514
640.001	397.675	80.007	19.995	103.242	19.940	0.283	0.506
648.000	401.717	80.009	19.995	103.234	19.945	-0.038	0.522
656.000	405.771	80.008	19.993	103.250	19.947	-0.140	0.508
664.000	409.844	80.007	19.994	103.251	19.946	-0.108	0.494
672.000	413.910	80.008	19.995	103.231	19.951	-0.437	0.520
680.000	417.900	80.009	19.995	103.237	19.947	-0.162	0.505
688.000	421.976	80.008	19.995	103.235	19.947	-0.184	0.516
696.000	425.989	80.009	19.995	103.235	19.955	-0.659	0.520
704.000	430.085	80.009	19.995	103.233	19.944	0.049	0.491
712.000	434.169	80.008	19.994	103.230	19.948	-0.238	0.525
720.000	438.231	80.006	19.994	103.229	19.956	-0.727	0.506
728.001	442.282	80.007	19.994	103.229	19.955	-0.700	0.533
736.000	446.292	80.007	19.994	103.229	19.949	-0.293	0.507
744.000	450.337	80.006	19.994	103.224	19.953	-0.556	0.496
752.000	454.345	80.007	19.995	103.227	19.957	-0.801	0.496
760.000	458.354	80.010	19.995	103.228	19.958	-0.876	0.508
768.000	462.419	80.009	19.995	103.221	19.958	-0.873	0.486
776.000	466.473	80.008	19.995	103.223	19.955	-0.682	0.525
784.000	470.538	80.011	19.994	103.222	19.957	-0.817	0.505
792.000	474.624	80.007	19.994	103.223	19.958	-0.848	0.517
800.000	478.670	80.006	19.996	103.225	19.958	-0.891	0.485
808.000	482.731	80.007	19.994	103.221	19.959	-0.932	0.523
816.000	486.617	80.009	19.994	103.216	19.961	-1.083	0.469
824.000	490.440	80.007	19.995	103.213	19.959	-0.937	0.479
832.000	494.232	80.008	19.996	103.236	19.962	-1.135	0.496
840.001	498.229	80.009	19.995	103.225	19.964	-1.256	0.528
848.000	502.313	80.008	19.993	103.225	19.955	-0.707	0.529
856.000	506.483	80.007	19.995	103.232	19.965	-1.304	0.538
864.000	510.664	80.010	19.995	103.212	19.964	-1.258	0.492
872.000	514.946	80.009	19.994	103.223	19.962	-1.157	0.525
880.001	519.163	80.007	19.995	103.226	19.963	-1.213	0.520
888.000	523.448	80.007	19.996	103.218	19.962	-1.168	0.552
896.000	527.656	80.008	19.996	103.225	19.966	-1.429	0.549
904.000	531.799	80.007	19.994	103.229	19.963	-1.189	0.514
912.000	535.975	80.006	19.994	103.217	19.963	-1.204	0.526
920.000	540.122	80.008	19.994	103.226	19.965	-1.317	0.513
928.000	544.226	80.008	19.994	103.214	19.965	-1.331	0.520
936.000	548.294	80.009	19.994	103.238	19.968	-1.509	0.489
944.000	552.389	80.010	19.994	103.215	19.965	-1.340	0.515
952.000	556.492	80.009	19.994	103.211	19.965	-1.362	0.508
960.000	560.605	80.007	19.995	103.217	19.966	-1.385	0.521
968.000	564.654	80.007	19.995	103.217	19.968	-1.544	0.504
976.000	568.700	80.006	19.995	103.218	19.968	-1.531	0.511
984.000	572.783	80.006	19.996	103.217	19.967	-1.473	0.522
992.000	576.930	80.005	19.996	103.215	19.972	-1.810	0.508
1000.000	580.960	80.009	19.994	103.213	19.972	-1.770	0.512
1008.000	584.977	80.009	19.994	103.213	19.974	-1.914	0.499
1016.000	589.061	80.009	19.995	103.215	19.975	-1.961	0.505
1024.000	593.041	80.010	19.994	103.216	19.975	-2.010	0.529
1032.001	597.099	80.010	19.994	103.220	19.975	-1.992	0.519
1040.000	601.131	80.007	19.994	103.216	19.976	-2.026	0.493
1048.000	605.139	80.006	19.995	103.218	19.974	-1.894	0.524
1056.001	609.184	80.008	19.996	103.216	19.976	-2.062	0.488
1064.001	613.188	80.007	19.994	103.212	19.974	-1.896	0.492
1072.000	617.188	80.007	19.996	103.214	19.975	-1.965	0.473
1080.000	621.084	80.006	19.996	103.216	19.976	-2.082	0.462
1088.000	625.033	80.008	19.995	103.216	19.979	-2.248	0.467
1096.001	628.988	80.045	20.011	103.266	19.979	-2.224	0.467
1104.000	633.000	80.006	19.996	103.231	19.976	-2.086	0.498
1112.000	636.962	80.009	19.993	103.232	19.973	-1.878	0.493
1120.000	640.925	80.007	19.995	103.233	19.976	-2.080	0.474
1128.001	644.788	80.006	19.995	103.223	19.976	-2.037	0.447
1136.001	648.712	80.007	19.994	103.233	19.979	-2.269	0.469
1144.000	652.631	80.007	19.995	103.227	19.975	-2.012	0.480
1152.001	656.651	80.006	19.996	103.242	19.971	-1.748	0.497
1160.000	660.937	80.007	19.995	103.249	19.976	-2.050	0.565
1168.000	665.388	80.007	19.995	103.253	19.976	-2.068	0.581
1176.001	669.806	80.005	19.995	103.251	19.980	-2.322	0.536
1184.000	674.309	80.008	19.994	103.242	19.980	-2.287	0.573
1192.000	678.744	80.010	19.993	103.246	19.975	-2.003	0.568
1200.000	683.124	80.009	19.995	103.246	19.980	-2.287	0.546
1208.000	687.454	80.009	19.994	103.249	19.977	-2.125	0.540
1216.001	691.541	80.006	19.994	103.231	19.980	-2.290	0.502
1224.000	695.537	80.010	19.994	103.236	19.978	-2.174	0.467
1232.000	699.372	80.007	19.995	103.234	19.983	-2.499	0.472
1240.000	703.260	80.007	19.996	103.230	19.980	-2.325	0.465
1248.001	707.157	80.008	19.995	103.217	19.983	-2.517	0.494
1256.000	711.014	80.011	19.996	103.226	19.978	-2.173	0.509
1264.000	715.110	80.008	19.996	103.217	19.981	-2.414	0.528
1272.000	719.147	80.009	19.996	103.209	19.983	-2.483	0.497
1280.001	723.142	80.009	19.994	103.208	19.986	-2.724	0.466
1288.000	727.011	80.008	19.995	103.215	19.988	-2.825	0.490
1296.000	731.050	80.007	19.995	103.217	19.985	-2.619	0.498
1304.000	735.093	80.007	19.993	103.215	19.986	-2.717	0.500
1312.000	739.248	80.007	19.993	103.217	19.984	-2.592	0.535
1320.000	743.474	80.009	19.995	103.213	19.987	-2.795	0.549
1323.000	745.036	80.008	19.995	103.212	19.985	-2.643	0.530