Folder: fsri_materials_database/01_Data/Fiberglass_Insulation_R13_Paper_Faced/Cone (part 2)

File: R13_Fiberglass_Insulation_Cone_HF75Scan_220429_R2.csv
Names,Time,Stack TC,Smoke TC,Exh Press,Smoke Comp,Smoke Meas,CO Meter,CO2 Meter,O2 Meter,Sample Mass,Ext Coeff,Start Test,Flame Verif
Chan Gain,,500,500,1,1,1,1,1,1,1,1,1.0,1.0
Offset,,0,0,0.13436,0,0,0,0,0,0,0,0.0,0.0
Gain,,1,1,25.011,14.4414,16.1819,1,1,1,1.0009,1.01483,1.0,1.0
Units,sec,C,C,Pa,%,%,%,%,%,g,/m,,
Baseline,,43.2657,44.9046,131.149,108.487,111.584,0.000717659,0.0566518,21.0118,-496.359,-0.250525,,
31,7.5,40.9356,42.912,128.426,108.304,111.476,0.00272827,0.0762555,20.9893,10.9899,-0.256926,0.0,0.0
62,15.25,41.8369,43.3511,131.793,108.312,111.028,0.00198732,0.0687642,20.9972,10.8597,-0.220434,0.0,0.0
93,23,42.2693,43.8827,129.927,108.322,112.194,0.00203038,0.0640442,21.0039,10.8297,-0.312597,0.0,0.0
124,30.75,42.7903,43.8236,129.275,108.345,111.546,0.00200046,0.0630794,21.0053,10.7496,-0.259231,0.0,0.0
155,38.5,43.1267,44.656,127.82,108.359,111.847,0.00138028,0.0627308,21.0038,10.7096,-0.282045,0.0,0.0
186,46.25,43.4962,44.4592,131.413,108.417,112.399,0.00157182,0.0627035,21.0049,10.7096,-0.321099,0.0,0.0
217,54,43.8955,45.4506,130.431,108.47,112.043,0.00114486,0.0616033,21.0051,10.6796,-0.288516,0.0,0.0
248,61.75,44.3425,45.71,129.614,108.524,111.77,0.000867814,0.0607852,21.0061,10.7096,-0.262378,0.0,0.0
279,69.5,43.876,45.8674,128.533,108.586,111.773,0.00109779,0.0599718,21.0094,10.6696,-0.257481,0.0,0.0
310,77.25,43.9448,45.6467,129.345,108.612,112.812,0.000800668,0.0588018,21.0113,10.6395,-0.337759,0.0,0.0
341,85,44.0619,45.9552,130.099,108.621,112.035,0.000825241,0.0580467,21.0113,10.6496,-0.275452,0.0,0.0
372,92.75,44.042,46.005,126.975,108.61,111.324,0.000875035,0.0576224,21.0113,10.6496,-0.219782,0.0,0.0
403,100.5,44.6541,46.5333,132.357,108.624,112.569,0.000548498,0.0574482,21.0133,10.6295,-0.31759,0.0,0.0
434,108.25,44.7509,46.1479,129.756,108.637,111.123,0.000322969,0.0573959,21.0121,10.6195,-0.201381,0.0,0.0
465,116,44.8063,46.4866,130.429,108.659,112.115,0.00051461,0.0570215,21.0104,10.6596,-0.278698,0.0,0.0
496,123.75,45.1802,46.8171,128.35,108.686,111.727,0.000392729,0.0571963,21.0113,10.6395,-0.245625,0.0,0.0
527,131.5,45.0586,46.5886,129.746,108.709,112.826,0.00059114,0.0570824,21.0109,10.6295,-0.330903,0.0,0.0
558,139.25,44.9448,47.4004,130.43,108.766,112.055,0.00054387,0.0572678,21.0096,10.6295,-0.265218,0.0,0.0
589,147,44.9424,47.008,133.032,108.782,112.863,0.000630582,0.0574945,21.0092,10.6195,-0.327875,0.0,0.0
620,154.75,44.8151,47.323,132.329,108.809,111.611,0.000557123,0.0574363,21.0107,10.6295,-0.226384,0.0,0.0
651,162.5,45.442,47.0979,128.197,108.859,111.88,0.000354574,0.0571254,21.0142,10.6195,-0.243751,0.0,0.0
682,170.25,45.158,46.9344,130.368,108.919,112.875,0.000263841,0.0573747,21.0123,10.5995,-0.317564,0.0,0.0
713,178,45.193,47.4172,132.114,109.021,112.93,0.000559669,0.0576764,21.0105,10.6095,-0.313645,0.0,0.0
744,185.75,45.3546,47.2063,133.054,109.082,112.426,0.00061619,0.0576801,21.0087,10.5895,-0.268735,0.0,0.0
775,193.5,45.3657,47.0661,131.522,109.151,112.533,0.000570372,0.0573983,21.0106,10.5995,-0.271607,0.0,0.0
806,201.25,45.098,47.144,131.113,109.224,113.498,0.000900471,0.05728,21.01,10.6095,-0.341689,0.0,0.0
837,209,45.3095,47.0009,129.679,109.301,113.549,0.000467073,0.0572734,21.0109,10.6195,-0.339466,0.0,0.0
868,216.75,45.3592,47.4201,130.316,109.343,112.422,0.000492395,0.0572112,21.0113,10.5995,-0.247195,0.0,0.0
899,224.5,45.747,47.4279,127.847,109.377,113.069,0.000532393,0.057735,21.0119,10.5895,-0.295508,0.0,0.0
930,232.25,45.5699,47.3204,132.273,109.359,112.79,0.000468535,0.0576455,21.0122,10.5795,-0.274988,0.0,0.0
961,240,45.613,47.8142,127.943,109.343,112.086,0.000390931,0.0577964,21.0107,10.5895,-0.220525,0.0,0.0
992,247.75,45.6805,47.6966,133.204,109.344,113.145,0.000601895,0.0578386,21.0116,10.5995,-0.304148,0.0,0.0
1023,255.5,45.6523,47.4073,135.114,109.372,113.173,0.000232687,0.057872,21.0123,10.5895,-0.304141,0.0,0.0
1054,263.25,45.4478,47.7249,127.057,109.407,113.469,0.000577431,0.057875,21.0128,10.5595,-0.324545,0.0,0.0
1085,271,45.5953,47.4984,129.516,109.456,112.048,0.000697788,0.0579718,21.0117,10.5595,-0.2084,0.0,0.0
1116,278.75,45.3091,47.7597,131.011,109.508,112.974,0.000614408,0.0578195,21.0109,10.5795,-0.277357,0.0,0.0
1147,286.5,45.871,47.7474,126.907,109.556,112.946,0.000545675,0.0576178,21.0111,10.5595,-0.271274,0.0,0.0
1178,294.25,45.787,48.0401,129.831,109.601,112.978,0.000418017,0.0578974,21.0088,10.5595,-0.270152,0.0,0.0
1209,302,45.9118,47.5465,131.677,109.629,112.753,0.000385467,0.0577561,21.01,10.5695,-0.250132,0.0,0.0
1240,309.75,46.0029,47.3648,128.53,109.643,112.911,0.000647166,0.0573894,21.0103,10.5495,-0.261494,0.0,0.0
1271,317.5,46.0484,47.0707,131.355,109.665,112.319,0.000455587,0.057264,21.0115,10.5695,-0.212865,0.0,0.0
1302,325.25,45.6285,47.8328,130.031,109.665,112.794,0.000293572,0.0572813,21.012,10.5595,-0.250398,0.0,0.0
1333,333,45.8368,47.5723,130.777,109.678,113.095,0.000579499,0.0571483,21.012,10.5395,-0.273106,0.0,0.0
1364,340.75,45.8,48.0904,132.285,109.681,112.803,0.000533293,0.0570977,21.0098,10.5695,-0.249926,0.0,0.0
1395,348.5,46.2337,47.9198,134.942,109.68,112.157,0.000645122,0.0569094,21.009,10.5595,-0.198798,0.0,0.0
1426,356.25,45.8424,47.7234,127.431,109.669,112.839,0.000405371,0.0571848,21.0109,10.5595,-0.253664,0.0,0.0
1457,364,45.8513,48.3159,127.077,109.668,112.806,0.000218543,0.0570514,21.0086,10.5194,-0.251162,0.0,0.0
1488,371.75,45.6339,48.0338,126.319,109.645,113.358,0.000513941,0.0569188,21.0084,10.5295,-0.296445,0.0,0.0
1519,379.5,46.339,48.2565,132.344,109.643,112.497,0.000361819,0.056856,21.0105,10.5495,-0.228735,0.0,0.0
1550,387.25,46.4948,48.6684,131.214,109.643,112.396,0.000399316,0.0568102,21.0103,10.5495,-0.220754,0.0,0.0
1581,395,46.5781,48.1811,130.048,109.639,113.18,0.000428018,0.057004,21.0113,10.5395,-0.282971,0.0,0.0
1612,402.75,46.1553,48.2968,130.774,109.632,112.809,0.000284486,0.0568378,21.0115,10.5295,-0.254328,0.0,0.0
1643,410.5,46.1405,47.8697,130.655,109.602,113.187,0.000528225,0.0567771,21.0099,10.5595,-0.286524,0.0,0.0
1674,418.25,46.0709,48.3632,128.021,109.598,112.966,0.00038671,0.0568108,21.0097,10.5495,-0.269468,0.0,0.0
1705,426,46.4631,48.5018,132.625,109.569,113.334,0.000663119,0.0568915,21.0102,10.5595,-0.300702,0.0,0.0
1736,433.75,46.2765,48.3509,130.815,109.55,113.339,0.000163699,0.0568575,21.0115,10.5395,-0.302739,0.0,0.0
1767,441.5,46.4454,48.1538,128.766,109.517,113.971,0.000608308,0.0568013,21.0111,10.5395,-0.354936,0.0,0.0
1798,449.25,46.6352,48.8518,128.469,109.514,112.974,0.00045497,0.056747,21.0119,10.5995,-0.276856,0.0,0.0
1829,457,46.9494,48.3698,132.354,109.526,113.826,0.000483734,0.0568657,21.0106,10.5194,-0.342761,0.0,0.0
1860,464.75,46.2227,48.5451,132.828,109.515,113.443,0.000459183,0.0574126,21.0093,10.5795,-0.313749,0.0,0.0
1891,472.5,46.5559,48.6314,129.485,109.539,112.88,0.00051139,0.0575904,21.0098,10.5595,-0.267453,0.0,0.0
1922,480.25,46.1647,48.4589,130.685,109.568,113.69,0.000201343,0.0567526,21.0128,10.5395,-0.328806,0.0,0.0
1953,488,46.5676,48.6255,131.29,109.571,113,0.000231426,0.0565411,21.0112,10.5395,-0.274373,0.0,0.0
1984,495.75,46.5587,48.8624,130.068,109.588,113.586,0.000276487,0.0567292,21.0124,10.5595,-0.318996,0.0,0.0
2015,503.5,46.3617,48.6481,130.881,109.58,112.855,0.000259584,0.0570414,21.0105,10.5295,-0.262101,0.0,0.0
2046,511.25,46.7114,48.6937,130.942,109.575,114.154,0.000396507,0.0571955,21.0103,10.5595,-0.364394,0.0,0.0
2077,519,46.9752,48.769,128.726,109.546,113.337,0.000222714,0.0571127,21.0103,10.5495,-0.302906,0.0,0.0
2108,526.75,46.7978,48.9252,127.155,109.516,113.887,0.000697936,0.0571505,21.01,10.5495,-0.348447,0.0,0.0
2139,534.5,46.7363,48.4472,129.53,109.525,112.318,0.000670355,0.0572447,21.009,10.5395,-0.224209,0.0,0.0
2170,542.25,46.7837,48.5908,128.818,109.496,112.753,0.00083546,0.057703,21.0091,10.5495,-0.260911,0.0,0.0
2201,550,46.5416,49.0027,131.062,109.468,113.019,0.000433264,0.0571249,21.0128,10.5395,-0.284195,0.0,0.0
2232,557.75,46.2999,48.7185,125.977,109.429,113.632,0.000401503,0.0569347,21.0133,10.5295,-0.335492,0.0,0.0
2263,565.5,46.6568,48.513,129.251,109.417,112.615,0.000148434,0.0564415,21.0147,10.5595,-0.256479,0.0,0.0
2294,573.25,46.4599,48.3549,125.288,109.434,112.127,0.000338741,0.0563239,21.0141,10.5695,-0.216431,0.0,0.0
2325,581,46.585,48.9114,130.317,109.423,112.88,0.000195065,0.0563734,21.0133,10.5495,-0.276914,0.0,0.0
2356,588.75,46.6235,48.1463,130.379,109.444,112.413,0.000528122,0.0561693,21.0133,10.5595,-0.238314,0.0,0.0
2387,596.5,46.7838,48.6787,126.068,109.476,113.113,0.000244166,0.0561527,21.0139,10.5595,-0.290865,0.0,0.0
2418,604.25,46.7002,49.1033,130.512,109.502,113.191,0.000416885,0.0561971,21.014,10.5595,-0.294928,0.0,0.0
2449,612,45.2775,47.2168,128.621,109.509,112.466,0.000490482,0.0565043,21.014,10.5695,-0.237191,0.0,0.0
2480,619.75,44.7613,46.9078,126.891,109.519,114.005,0.000536013,0.0564907,21.0152,10.5695,-0.357342,0.0,0.0
2511,627.5,45.4076,47.3321,126.307,109.509,112.475,0.000203595,0.0562766,21.0153,10.5395,-0.237894,0.0,0.0
2542,635.25,45.5625,47.5048,130.62,109.502,112.84,0.000569515,0.0561162,21.0134,10.5295,-0.267344,0.0,0.0
2573,643,45.421,47.2878,129.509,109.518,113.215,0.000185282,0.0560147,21.0143,10.5495,-0.295577,0.0,0.0
2604,650.75,44.9566,47.0165,131.126,109.502,112.81,0.00015489,0.0561267,21.0145,10.5194,-0.265006,0.0,0.0
2635,658.5,45.4969,47.205,128.593,109.484,113.52,0.000410962,0.0560864,21.0137,10.5295,-0.322226,0.0,0.0
2666,666.25,44.6499,47.1552,129.138,109.469,112.525,0.000624669,0.0562301,21.013,10.5094,-0.245105,0.0,0.0
2697,674,45.1745,46.911,132.419,109.408,113.297,0.000244256,0.0560783,21.013,10.5194,-0.310906,0.0,0.0
2728,681.75,45.3226,47.5775,130.343,109.372,113.069,0.000136504,0.0561718,21.0153,10.5194,-0.295978,0.0,0.0
2759,689.5,45.4603,47.2575,126.65,109.325,112.678,0.000714277,0.0558969,21.0162,10.5595,-0.268974,0.0,0.0
2790,697.25,45.1446,47.1007,129.33,109.292,111.996,0.000734758,0.0562129,21.016,10.5395,-0.217544,0.0,0.0
2821,705,45.1603,46.8554,131.974,109.26,112.7,0.000412519,0.0561913,21.0164,10.5194,-0.275928,0.0,0.0
2852,712.75,45.2743,47.1309,128.092,109.234,113.714,0.000531119,0.0559541,21.015,10.5595,-0.35781,0.0,0.0
2883,720.5,45.2458,46.5985,127.264,109.201,111.723,,,,10.5495,-0.203212,0.0,0.0
2906,726.25,45.2511,47.142,133.231,109.165,112.5,,,,10.5695,-0.267879,0.0,0.0