Folder: fsri_materials_database/01_Data/Fiberglass_Insulation_R13_Paper_Faced/Cone

Note: 01_Data/README.md
# Materials and Products Database
## 01_Data

Raw data generated from each apparatus are included here in plain-text format. The data is organized first by material, next by the short name of test apparatus used, and where applicable additional filtering by test settings.

### material.json

Each material directory contains a json file of the same name as the material. This file links the data stored in the repository as well as data and graphs produced by the accompanying scripts (__02_Scripts__) to the respective landing page for the material on the front-end website.

File: Fiberglass_Insulation_R13_Paper_Faced_Cone_HF50Scalar_220429_R2.csv
LABORATORY,FSRI
TEST IDENT,R13Insulation_HF50_2
OPERATOR,Dow
MATERIAL,R13 Fiberglass Insulation (pink)
ORIENTATION,Horizontal
HEAT FLUX,50
SURF AREA,0.01
C FACTOR,0.0417509
SPEC HOLDER DIFF,-566
SPECIMEN MASS,7.4
SCAN TIME,0.25
O2 DELAY TIME,11
CO DELAY TIME,11
CO2 DELAY TIME,8
FLOW FACTOR,1
SCAN COUNT,3151
TIME TO IGN,0
END OF TEST SCAN,2671
END OF TEST TIME,667.75
TEST STATUS,1
PRE TEST CMT,Dimensions: 99.2 x 98.3 x 32.2 mm
POST TEST CMT,No ignition. Test ended after 10 minutes. No mass loss after 10 minutes in replicate R1.

File: Fiberglass_Insulation_R13_Paper_Faced_Cone_HF50Scalar_220429_R3.csv
LABORATORY,FSRI
TEST IDENT,R13Insulation_HF50_3
OPERATOR,Dow
MATERIAL,R13 Fiberglass Insulation (pink)
ORIENTATION,Horizontal
HEAT FLUX,50
SURF AREA,0.01
C FACTOR,0.0414268
SPEC HOLDER DIFF,-566
SPECIMEN MASS,6.23
SCAN TIME,0.25
O2 DELAY TIME,11
CO DELAY TIME,11
CO2 DELAY TIME,8
FLOW FACTOR,1
SCAN COUNT,2886
TIME TO IGN,0
END OF TEST SCAN,2406
END OF TEST TIME,601.5
TEST STATUS,1
PRE TEST CMT,Dimensions: 97.1 x 97.2 x 30.7 mm
POST TEST CMT,No ignition. Test ended after 10 minutes. No mass loss after 10 minutes in replicate R1.

File: Fiberglass_Insulation_R13_Paper_Faced_Cone_HF75Scalar_220429_R1.csv
LABORATORY,FSRI
TEST IDENT,R13Insulation_HF75_1
OPERATOR,Dow
MATERIAL,R13 Fiberglass Insulation (pink)
ORIENTATION,Horizontal
HEAT FLUX,75
SURF AREA,0.01
C FACTOR,0.0414268
SPEC HOLDER DIFF,-566
SPECIMEN MASS,5.65
SCAN TIME,0.25
O2 DELAY TIME,11
CO DELAY TIME,11
CO2 DELAY TIME,8
FLOW FACTOR,1
SCAN COUNT,7686
TIME TO IGN,0
END OF TEST SCAN,7206
END OF TEST TIME,1801.5
TEST STATUS,1
PRE TEST CMT,Dimensions: 99.3 x 98.2 x 24.2 mm
POST TEST CMT,Sample gradually shrivelled throughout the test (see post test pictures).No ignition. Test ended after 30 minutes.

File: Fiberglass_Insulation_R13_Paper_Faced_Cone_HF75Scalar_220429_R2.csv
LABORATORY,FSRI
TEST IDENT,R13Insulation_HF75_2
OPERATOR,Dow
MATERIAL,R13 Fiberglass Insulation (pink)
ORIENTATION,Horizontal
HEAT FLUX,75
SURF AREA,0.01
C FACTOR,0.0414268
SPEC HOLDER DIFF,-566
SPECIMEN MASS,7.16
SCAN TIME,0.25
O2 DELAY TIME,11
CO DELAY TIME,11
CO2 DELAY TIME,8
FLOW FACTOR,1
SCAN COUNT,2906
TIME TO IGN,0
END OF TEST SCAN,2426
END OF TEST TIME,606.5
TEST STATUS,1
PRE TEST CMT,Dimensions: 99.6 x 100.1 x 30.4 mm
POST TEST CMT,"Sample gradually shrivelled throughout the test (see post test pictures). No ignition. Test ended after 10 minutes. No mass loss after 10 minutes in replicate R1.
"

File: Fiberglass_Insulation_R13_Paper_Faced_Cone_HF75Scan_220429_R1.csv
Names,Time,Stack TC,Smoke TC,Exh Press,Smoke Comp,Smoke Meas,CO Meter,CO2 Meter,O2 Meter,Sample Mass,Ext Coeff,Start Test,Flame Verif
Chan Gain,,500,500,1,1,1,1,1,1,1,1,1.0,1.0
Offset,,0,0,0.13436,0,0,0,0,0,0,0,0.0,0.0
Gain,,1,1,25.011,14.4414,16.1819,1,1,1,1.0009,1.01483,1.0,1.0
Units,sec,C,C,Pa,%,%,%,%,%,g,/m,,
Baseline,,39.7387,41.3702,132.371,108.008,110.121,0.000936378,0.0561835,21.0129,-495.887,-0.172437,,
83,20.5,40.7652,41.7418,131.421,109.403,112.123,0.00235449,0.0660886,21.0032,0.940844,-0.218624,0.0,0.0
166,41.25,41.95,43.3195,130.267,109.48,112.657,0.00184379,0.0641586,21.0069,0.920826,-0.254598,0.0,0.0
249,62,42.7573,43.7188,131.407,109.432,112.582,0.00105984,0.0576434,21.0158,0.870782,-0.252644,0.0,0.0
332,82.75,43.1417,44.9464,131.134,109.281,111.576,0.000833055,0.0563318,21.0154,0.860773,-0.185054,0.0,0.0
415,103.5,43.5584,45.1785,131.509,109.006,112.387,0.00061823,0.0559844,21.0173,0.850764,-0.271909,0.0,0.0
498,124.25,43.4007,45.2644,129.039,109.163,112.256,0.000592898,0.0561975,21.016,0.850764,-0.24877,0.0,0.0
581,145,43.6379,45.494,133.247,109.499,112.341,0.000643047,0.056482,21.0155,0.810728,-0.228048,0.0,0.0
664,165.75,43.9983,45.925,127.469,109.837,112.463,0.000537975,0.0561199,21.0167,0.79071,-0.210341,0.0,0.0
747,186.5,43.8629,46.4722,132.699,109.941,112.364,0.000487551,0.0557188,21.0183,0.770692,-0.194062,0.0,0.0
830,207.25,44.2232,46.1407,128.818,109.898,112.631,0.000826558,0.0559077,21.0162,0.760683,-0.218623,0.0,0.0
913,228,44.0458,46.4426,132.272,109.618,112.599,0.000592738,0.0557156,21.019,0.760683,-0.238819,0.0,0.0
996,248.75,44.2557,46.2,129.183,109.177,112.266,0.000466945,0.0555994,21.0155,0.730656,-0.248403,0.0,0.0
1079,269.5,44.1168,46.3282,132.397,108.801,111.757,0.000681815,0.0556748,21.0162,0.740665,-0.238605,0.0,0.0
1162,290.25,44.3195,46.7011,129.82,108.351,110.929,0.000394578,0.0555068,21.0165,0.740665,-0.209325,0.0,0.0
1245,311,44.1931,46.7559,126.036,107.998,111.129,0.000342581,0.0553887,21.013,0.710638,-0.254411,0.0,0.0
1328,331.75,44.1443,46.6774,133.394,107.985,110.955,0.000251296,0.0553341,21.0167,0.730656,-0.241529,0.0,0.0
1411,352.5,44.6978,46.7511,129.046,108.144,110.828,0.000506465,0.0555912,21.018,0.730656,-0.218231,0.0,0.0
1494,373.25,44.7604,46.6699,131.211,108.38,111.695,0.000561767,0.0557145,21.0195,0.770692,-0.268193,0.0,0.0
1577,394,45.046,46.6704,129.79,108.522,111.524,0.000406521,0.0563212,21.0142,0.710638,-0.242916,0.0,0.0
1660,414.75,45.3098,47.2378,135.697,108.521,110.717,0.000438572,0.0561722,21.0148,0.740665,-0.178302,0.0,0.0
1743,435.5,45.1607,47.2756,133.138,108.631,112.319,0.000227636,0.0565608,21.015,0.700629,-0.297227,0.0,0.0
1826,456.25,45.1227,46.6611,133.721,108.662,110.919,0.000297369,0.0557823,21.0177,0.700629,-0.182969,0.0,0.0
1909,477,45.3243,46.7897,126.496,108.61,112.123,0.000851438,0.0572967,21.011,0.740665,-0.283373,0.0,0.0
1992,497.75,45.638,47.4203,124.622,108.64,111.913,0.000482126,0.0561356,21.0172,0.680611,-0.264237,0.0,0.0
2075,518.5,45.2072,47.7548,127.501,108.837,111.303,0.000490254,0.057201,21.0153,0.710638,-0.199464,0.0,0.0
2158,539.25,44.9609,47.3473,128.698,109.149,112.092,0.000869374,0.0569772,21.0132,0.710638,-0.236798,0.0,0.0
2241,560,45.8481,47.9249,130.384,109.335,111.608,0.000300339,0.056934,21.0136,0.680611,-0.183196,0.0,0.0
2324,580.75,45.4059,47.6243,129.188,109.294,112.144,0.000455349,0.0566895,21.0164,0.69062,-0.229169,0.0,0.0
2407,601.5,45.2963,47.5311,130.816,109.071,111.992,0.000556881,0.0564972,21.0122,0.69062,-0.235272,0.0,0.0
2490,622.25,45.5424,47.5561,128.614,108.997,112.349,0.000444091,0.0561255,21.0159,0.710638,-0.269612,0.0,0.0
2573,643,45.6727,47.3379,133.121,108.758,111.542,0.000574953,0.0562327,21.0169,0.680611,-0.224976,0.0,0.0
2656,663.75,45.9347,47.9908,130.718,108.767,111.544,0.000820755,0.0566623,21.0136,0.670602,-0.224412,0.0,0.0
2739,684.5,45.3862,47.5794,133.983,109.168,111.543,0.000476226,0.0561624,21.0145,0.700629,-0.191534,0.0,0.0
2822,705.25,45.4712,47.8598,126.271,109.443,112.813,0.000318016,0.0560481,21.0168,0.700629,-0.270002,0.0,0.0
2905,726,45.3708,47.3772,129.676,109.558,112.838,0.000598009,0.0560067,21.0172,0.69062,-0.262603,0.0,0.0
2988,746.75,45.4679,47.3496,128.603,109.614,112.479,0.000410486,0.0561668,21.0173,0.750674,-0.229723,0.0,0.0
3071,767.5,45.732,48.0267,132.725,109.553,112.261,0.000612349,0.0571916,21.015,0.700629,-0.217336,0.0,0.0
3154,788.25,45.711,47.7628,126.314,109.42,112.487,0.000468574,0.0563906,21.0173,0.69062,-0.246075,0.0,0.0
3237,809,45.8763,47.1812,129.49,109.249,113.12,0.000590158,0.0561697,21.0179,0.69062,-0.309923,0.0,0.0
3320,829.75,45.4925,48.3521,128.911,109.142,111.473,0.000533862,0.056251,21.0172,0.680611,-0.188167,0.0,0.0
3403,850.5,46.3561,47.4413,131.769,109.301,112.881,0.000574544,0.0558954,21.0169,0.700629,-0.286929,0.0,0.0
3486,871.25,45.7019,47.6991,128.782,109.474,113.751,0.000412821,0.0558489,21.0165,0.660593,-0.341191,0.0,0.0
3569,892,45.8607,47.9746,127.429,109.577,112.85,0.000348616,0.0559394,21.0169,0.660593,-0.261962,0.0,0.0
3652,912.75,46.2712,47.6853,128.666,109.734,113.469,0.000639018,0.0562696,21.0154,0.69062,-0.297942,0.0,0.0
3735,933.5,45.5153,47.7735,127.041,109.933,112.677,0.000296648,0.0560587,21.0185,0.710638,-0.219467,0.0,0.0
3818,954.25,45.805,47.4124,129.871,110.046,112.637,0.000390871,0.0560525,21.0176,0.680611,-0.207104,0.0,0.0
3901,975,45.9891,47.931,128.836,110.059,113.271,0.000279632,0.0560439,21.0187,0.720647,-0.256082,0.0,0.0
3984,995.75,46.1372,47.5204,131.039,110.056,113.006,0.000237492,0.0558153,21.0184,0.710638,-0.23543,0.0,0.0
4067,1016.5,45.6129,48.1983,129.614,110.057,114.526,0.000296314,0.0557425,21.0202,0.710638,-0.3543,0.0,0.0
4150,1037.25,45.6869,48.0989,127.558,110.053,113.718,0.000171518,0.0557926,21.0186,0.740665,-0.291635,0.0,0.0
4233,1058,45.7323,47.799,128.583,109.978,112.876,-0.000103741,0.0563187,21.0164,0.710638,-0.231576,0.0,0.0
4316,1078.75,46.1166,47.8791,131.716,109.903,112.198,0.000403738,0.0565726,21.0158,0.700629,-0.184047,0.0,0.0
4399,1099.5,46.0556,47.8019,126.888,109.725,113.229,-7.56842e-05,0.0559197,21.0157,0.700629,-0.279769,0.0,0.0
4482,1120.25,45.9918,47.8137,132.762,109.566,112.812,0.000762491,0.0555395,21.0174,0.680611,-0.259857,0.0,0.0
4565,1141,46.033,47.9364,131.513,109.375,112.428,0.000426717,0.0559647,21.0173,0.700629,-0.245117,0.0,0.0
4648,1161.75,45.673,47.6154,122.707,109.105,112.76,0.000637909,0.0557807,21.0184,0.710638,-0.293373,0.0,0.0
4731,1182.5,45.9421,47.5316,127.542,108.843,112.865,0.000425659,0.0562283,21.0174,0.700629,-0.323019,0.0,0.0
4814,1203.25,45.9757,47.4731,129.288,108.618,112.516,0.000523889,0.0559944,21.0189,0.680611,-0.313913,0.0,0.0
4897,1224,46.3166,47.6196,129.204,108.512,111.744,0.00015567,0.0558071,21.0178,0.720647,-0.261268,0.0,0.0
4980,1244.75,46.1204,48.1349,128.835,108.39,111.543,0.000656379,0.0572365,21.0158,0.740665,-0.255302,0.0,0.0
5063,1265.5,46.0061,48,132.171,108.283,111.286,0.000322959,0.0565432,21.0162,0.730656,-0.243549,0.0,0.0
5146,1286.25,45.869,47.9267,132.18,108.168,111.486,0.000879186,0.0563079,21.0156,0.730656,-0.268994,0.0,0.0
5229,1307,45.9814,47.8094,126.745,108.132,111.886,0.000360186,0.0566858,21.0152,0.750674,-0.303815,0.0,0.0
5312,1327.75,46.0255,47.4652,128.513,108.271,112.526,0.000766144,0.0569006,21.013,0.700629,-0.343169,0.0,0.0
5395,1348.5,45.7788,48.0175,125.618,108.514,110.994,0.000632689,0.0576793,21.0122,0.730656,-0.201167,0.0,0.0
5478,1369.25,45.6817,47.7812,131.595,108.739,111.703,0.000593261,0.0570643,21.0135,0.730656,-0.239442,0.0,0.0
5561,1390,45.8046,48.0774,134.398,108.845,112.116,0.000480235,0.0566247,21.0145,0.710638,-0.263555,0.0,0.0
5644,1410.75,45.7063,47.9466,133.236,108.939,112.437,0.000702685,0.0565578,21.0127,0.740665,-0.281331,0.0,0.0
5727,1431.5,45.8701,47.9472,128.814,109.004,112.623,0.000389009,0.0569219,21.0137,0.740665,-0.290691,0.0,0.0
5810,1452.25,46.0636,48.0456,133.853,109.175,112.249,0.000493913,0.0568365,21.014,0.710638,-0.247215,0.0,0.0
5893,1473,45.9499,47.9083,127.403,109.317,112.981,0.000823706,0.0565726,21.0128,0.750674,-0.293468,0.0,0.0
5976,1493.75,45.6638,48.0376,129.211,109.373,114.05,0.000231939,0.0570208,21.0106,0.720647,-0.37279,0.0,0.0
6059,1514.5,45.9335,48.4196,131.264,109.442,112.614,0.000402426,0.056576,21.0148,0.710638,-0.254356,0.0,0.0
6142,1535.25,46.1966,48.4127,129.989,109.489,113.057,0.000393172,0.0569661,21.0125,0.730656,-0.285469,0.0,0.0
6225,1556,46.1295,48.0791,129.992,109.502,112.794,0.000333013,0.0566334,21.0147,0.720647,-0.26372,0.0,0.0
6308,1576.75,46.0721,47.638,129.608,109.51,113.048,0.000300489,0.0568529,21.0146,0.730656,-0.283124,0.0,0.0
6391,1597.5,45.8984,48.4216,129.749,109.518,112.896,0.000586831,0.0567788,21.0139,0.720647,-0.270419,0.0,0.0
6474,1618.25,45.8188,48.1482,130.942,109.52,112.915,0.000394781,0.0568963,21.0132,0.750674,-0.271795,0.0,0.0
6557,1639,46.6048,48.2782,132.003,109.501,112.202,0.000682505,0.0571867,21.0132,0.760683,-0.216977,0.0,0.0
6640,1659.75,46.3938,48.4437,130.052,109.46,112.94,0.000358668,0.0573449,21.0129,0.760683,-0.278578,0.0,0.0
6723,1680.5,46.2582,47.7839,131.722,109.318,111.919,0.000295331,0.0567579,21.0122,0.740665,-0.209305,0.0,0.0
6806,1701.25,46.2317,48.1515,129.94,109.144,112.171,0.000607539,0.0568973,21.0104,0.740665,-0.243541,0.0,0.0
6889,1722,45.9087,48.069,129.772,108.972,112.598,0.000651315,0.057005,21.0129,0.770692,-0.291328,0.0,0.0
6972,1742.75,46.021,47.4981,127.95,108.898,111.937,0.000512732,0.0569495,21.0124,0.710638,-0.245023,0.0,0.0
7055,1763.5,46.1966,47.9329,129.04,108.871,111.82,0.000227091,0.0568718,21.0135,0.760683,-0.237907,0.0,0.0
7138,1784.25,46.3472,47.6091,129.663,108.863,111.503,0.000352233,0.0568102,21.0123,0.780701,-0.21328,0.0,0.0
7221,1805,44.9746,47.2021,126.699,109.099,112.846,0.000304997,0.0569023,21.0129,0.740665,-0.300622,0.0,0.0
7304,1825.75,45.2331,47.1179,130.271,109.424,112.638,0.000269444,0.0571567,21.0127,0.760683,-0.257739,0.0,0.0
7387,1846.5,45.4512,46.8496,130.538,109.676,112.739,9.95272e-05,0.0569599,21.0117,0.750674,-0.245216,0.0,0.0
7470,1867.25,45.092,47.2023,127.646,109.71,113.064,0.000435974,0.0573344,21.0116,0.720647,-0.268083,0.0,0.0
7553,1888,45.2235,46.9511,131.774,109.588,111.952,0.000564896,0.0568844,21.0108,0.750674,-0.18996,0.0,0.0
7636,1908.75,44.8287,47.1306,130.419,109.305,113.592,0.000128366,0.0566295,21.0145,0.750674,-0.342474,0.0,0.0
7686,1921.25,45.1735,47.1221,130.514,109.244,112.701,,,,0.750674,-0.277338,0.0,0.0

File: R13_Fiberglass_Insulation_Cone_HF25Scalar_220429_R2.csv
LABORATORY,FSRI
TEST IDENT,R13Insulation_HF25_2
OPERATOR,Dow
MATERIAL,R13 Fiberglass Insulation (pink)
ORIENTATION,Horizontal
HEAT FLUX,25
SURF AREA,0.01
C FACTOR,0.0411223
SPEC HOLDER DIFF,-566
SPECIMEN MASS,6.1
SCAN TIME,0.25
O2 DELAY TIME,11
CO DELAY TIME,11
CO2 DELAY TIME,8
FLOW FACTOR,1
SCAN COUNT,2885
TIME TO IGN,0
END OF TEST SCAN,2405
END OF TEST TIME,601.25
TEST STATUS,1
PRE TEST CMT,Dimensions: 99.3 x 100.1 x 29.9 mm
POST TEST CMT,No ignition. Test ended after 10 minutes. No mass loss after 10 minutes in replicate R1.

File: R13_Fiberglass_Insulation_Cone_HF25Scan_220429_R2.csv
Names,Time,Stack TC,Smoke TC,Exh Press,Smoke Comp,Smoke Meas,CO Meter,CO2 Meter,O2 Meter,Sample Mass,Ext Coeff,Start Test,Flame Verif
Chan Gain,,500,500,1,1,1,1,1,1,1,1,1.0,1.0
Offset,,0,0,0.134537,0,0,0,0,0,0,0,0.0,0.0
Gain,,1,1,25.011,14.8585,16.6522,1,1,1,1.00087,1.0138,1.0,1.0
Units,sec,C,C,Pa,%,%,%,%,%,g,/m,,
Baseline,,20.7685,21.3616,140.303,111.891,112.776,0.000309397,0.0521417,21.0125,-833.974,-0.0700326,,
31,7.5,19.5935,20.0748,140.646,111.527,112.581,0.000554544,0.0632866,21.0024,-330.867,-0.0836461,0.0,0.0
62,15.25,19.6503,20.5581,142.696,111.643,112.343,0.000479645,0.0569133,21.0087,-330.957,-0.0555921,0.0,0.0
93,23,19.9207,20.6007,141.776,111.738,113.158,0.000762159,0.0535425,21.0139,-330.997,-0.112335,0.0,0.0
124,30.75,20.1265,20.5985,139.903,111.824,112.787,0.000376211,0.0529223,21.0144,-331.047,-0.0762422,0.0,0.0
155,38.5,20.6732,20.7718,137.171,111.894,112.843,0.00033001,0.0526092,21.0122,-331.067,-0.0750923,0.0,0.0
186,46.25,20.1957,21.1486,146.677,111.954,112.586,0.000171684,0.0524632,21.0155,-331.077,-0.0500168,0.0,0.0
217,54,20.7562,21.0869,138.503,111.927,112.93,0.00027968,0.0523889,21.0152,-331.097,-0.079312,0.0,0.0
248,61.75,20.6623,20.9915,139.048,111.91,113.106,0.000712441,0.0523164,21.0165,-331.097,-0.094593,0.0,0.0
279,69.5,20.9405,21.4531,137.608,111.898,112.908,0.000376374,0.0521157,21.0134,-331.107,-0.0798977,0.0,0.0
310,77.25,20.8479,21.3075,137.888,111.91,112.633,0.000336158,0.0520716,21.0108,-331.117,-0.0572036,0.0,0.0
341,85,20.851,21.6138,142.558,111.951,113.071,0.000184609,0.0519513,21.0104,-331.127,-0.0884813,0.0,0.0
372,92.75,20.9593,21.7645,138.082,112.01,112.767,0.000432692,0.0518621,21.0145,-331.157,-0.0599419,0.0,0.0
403,100.5,20.9432,21.8045,142.303,112.083,112.893,0.000519117,0.0517681,21.0157,-331.147,-0.0640455,0.0,0.0
434,108.25,21.54,21.8568,139.613,112.136,113.175,0.000129045,0.0517583,21.0136,-331.147,-0.0820266,0.0,0.0
465,116,21.4147,21.9953,141.101,112.22,113.443,0.000240947,0.0516621,21.0159,-331.157,-0.0963959,0.0,0.0
496,123.75,21.5347,21.5892,143.5,112.269,113.774,0.000163574,0.0517887,21.0159,-331.157,-0.118408,0.0,0.0
527,131.5,20.886,22.1263,139.171,112.294,113.471,1.88551e-05,0.0518064,21.0179,-331.177,-0.0926913,0.0,0.0
558,139.25,21.3748,22.0797,138.849,112.333,113.399,0.000157114,0.0519528,21.0147,-331.177,-0.0840261,0.0,0.0
589,147,21.285,22.1385,144.155,112.362,113.695,-1.27811e-05,0.0519324,21.0144,-331.177,-0.104889,0.0,0.0
620,154.75,21.5715,22.008,137.982,112.398,113.543,0.000274432,0.0516756,21.0136,-331.167,-0.0900897,0.0,0.0
651,162.5,21.4143,22.3117,134.825,112.426,113.427,0.000344725,0.051712,21.0156,-331.177,-0.0788259,0.0,0.0
682,170.25,20.8956,22.3132,139.886,112.465,113.518,0.000218728,0.0515895,21.0157,-331.187,-0.0829426,0.0,0.0
713,178,21.515,22.1593,139.867,112.501,113.723,0.000116344,0.0516537,21.0136,-331.177,-0.0960289,0.0,0.0
744,185.75,21.619,21.8767,139.648,112.525,113.334,9.70426e-06,0.0516606,21.0156,-331.187,-0.0636761,0.0,0.0
775,193.5,21.349,22.3358,138.523,112.541,113.457,9.27685e-05,0.0514687,21.0157,-331.217,-0.0720661,0.0,0.0
806,201.25,21.6373,21.9996,139.063,112.533,113.997,0.000128326,0.0515612,21.0157,-331.207,-0.114949,0.0,0.0
837,209,20.9789,21.9523,142.381,112.529,113.663,0.000127492,0.0514859,21.0147,-331.207,-0.0891554,0.0,0.0
868,216.75,21.3726,22.3154,141.327,112.494,113.833,-0.000186124,0.0515305,21.0157,-331.197,-0.105296,0.0,0.0
899,224.5,21.0495,22.7031,138.077,112.489,113.944,-0.000214344,0.0514883,21.0137,-331.207,-0.114265,0.0,0.0
930,232.25,21.4534,21.94,138.449,112.458,113.48,1.65187e-05,0.0514939,21.0157,-331.207,-0.0804186,0.0,0.0
961,240,21.6709,22.4681,138.226,112.431,113.452,-2.47025e-05,0.0515036,21.0139,-331.197,-0.0804149,0.0,0.0
992,247.75,21.6415,21.8992,140.583,112.378,113.825,0.000124928,0.0513969,21.0155,-331.217,-0.113807,0.0,0.0
1023,255.5,21.7747,22.0597,139.661,112.325,113.707,3.58549e-05,0.0510827,21.018,-331.217,-0.108751,0.0,0.0
1054,263.25,21.7186,22.1612,140.626,112.266,113.396,2.60849e-05,0.0510925,21.0186,-331.227,-0.089097,0.0,0.0
1085,271,21.2729,22.4052,138.586,112.221,113.108,7.37014e-05,0.0510829,21.0186,-331.217,-0.0700277,0.0,0.0
1116,278.75,21.3294,22.0935,142.874,112.165,113.32,-5.6094e-05,0.051067,21.0147,-331.237,-0.0911344,0.0,0.0
1147,286.5,21.558,22.2432,135.741,112.116,113.39,0.000301844,0.0510459,21.0149,-331.227,-0.100445,0.0,0.0
1178,294.25,21.7318,22.0622,139.445,112.064,112.99,0.00034458,0.0511007,21.0149,-331.237,-0.0732354,0.0,0.0
1209,302,21.6763,22.225,141.719,111.988,113.304,0.000271179,0.0509662,21.0151,-331.237,-0.103895,0.0,0.0
1240,309.75,21.9548,22.1291,145.289,112.019,113.139,0.000191714,0.0511663,21.0163,-331.227,-0.0884701,0.0,0.0
1271,317.5,21.4612,22.357,141.825,112.058,113.319,-4.27006e-05,0.0511555,21.0159,-331.247,-0.0995435,0.0,0.0
1302,325.25,21.7792,22.7278,136.334,112.077,113.452,0.000160225,0.0510352,21.0164,-331.237,-0.10844,0.0,0.0
1333,333,21.682,22.4337,141.079,112.118,113.639,-0.000180238,0.0512557,21.0156,-331.247,-0.119845,0.0,0.0
1364,340.75,21.839,22.4255,137.978,112.153,113.49,-0.000128395,0.0513717,21.0161,-331.237,-0.105344,0.0,0.0
1395,348.5,21.7638,22.3276,140.859,112.197,113.313,0.000102187,0.0511931,21.018,-331.227,-0.087984,0.0,0.0
1426,356.25,21.5843,22.527,139.85,112.196,113.238,0.000284239,0.0514639,21.0169,-331.237,-0.0822668,0.0,0.0
1457,364,21.886,22.2906,139.159,112.213,113.366,0.000336025,0.0521045,21.0153,-331.247,-0.0909133,0.0,0.0
1488,371.75,22.0337,22.4868,136.695,112.245,113.466,-5.35337e-05,0.0518926,21.0148,-331.237,-0.0962084,0.0,0.0
1519,379.5,21.6193,22.0119,137.876,112.29,113.321,-0.000252893,0.0515637,21.0168,-331.267,-0.0812932,0.0,0.0
1550,387.25,21.9705,22.3948,139.155,112.373,113.341,-0.000237137,0.051297,21.0179,-331.247,-0.076247,0.0,0.0
1581,395,21.1156,22.3148,142.288,112.455,113.683,-0.000150465,0.0510369,21.0171,-331.257,-0.0965851,0.0,0.0
1612,402.75,21.6795,22.4085,138.781,112.55,113.863,1.68094e-05,0.0510952,21.0167,-331.267,-0.103159,0.0,0.0
1643,410.5,21.4797,22.5497,142.566,112.632,113.759,-2.77518e-05,0.0511465,21.015,-331.257,-0.0885718,0.0,0.0
1674,418.25,21.8967,22.5134,138.583,112.705,113.943,4.6615e-05,0.051112,21.0176,-331.257,-0.0971793,0.0,0.0
1705,426,21.6313,22.6906,137.286,112.775,113.869,4.53814e-05,0.0510489,21.0155,-331.277,-0.0858381,0.0,0.0
1736,433.75,21.7462,22.5676,139.53,112.846,114.025,4.78076e-05,0.0510491,21.0169,-331.257,-0.0923662,0.0,0.0
1767,441.5,21.7531,22.6305,139.757,112.886,113.999,-0.000284361,0.051142,21.0161,-331.257,-0.0872008,0.0,0.0
1798,449.25,21.8298,22.3679,134.732,112.941,114.219,9.21581e-05,0.0508882,21.0151,-331.257,-0.100068,0.0,0.0
1829,457,21.6671,22.5007,137.804,112.961,114.188,0.000160894,0.0509432,21.0151,-331.257,-0.0961194,0.0,0.0
1860,464.75,21.4961,22.1737,139.332,112.973,113.947,4.18836e-05,0.0508383,21.0165,-331.257,-0.0763363,0.0,0.0
1891,472.5,21.7733,22.4204,134.878,112.982,114.018,7.8364e-06,0.0509285,21.0174,-331.277,-0.0811375,0.0,0.0
1922,480.25,21.4427,22.0157,140.525,112.98,114.29,-0.000252016,0.0507951,21.0162,-331.257,-0.102536,0.0,0.0
1953,488,21.4527,22.4122,140.85,112.991,114.016,7.95368e-05,0.0508162,21.0165,-331.257,-0.0803764,0.0,0.0
1984,495.75,21.4063,22.737,136.473,112.991,114.587,0.000263873,0.0508851,21.0146,-331.257,-0.124667,0.0,0.0
2015,503.5,21.4496,22.3621,139.89,112.981,114.623,-3.83148e-05,0.0507825,21.0145,-331.257,-0.128363,0.0,0.0
2046,511.25,21.6476,22.1372,139.246,112.964,114.298,0.000157552,0.0507802,21.0173,-331.247,-0.104414,0.0,0.0
2077,519,21.9318,22.5016,137.61,112.929,114.105,0.000212946,0.0507054,21.0192,-331.247,-0.0921252,0.0,0.0
2108,526.75,21.4442,22.6128,139.249,112.914,114.515,-2.61869e-05,0.0515578,21.0168,-331.277,-0.125209,0.0,0.0
2139,534.5,21.5921,22.4969,140.76,112.895,114.272,0.000199941,0.0507123,21.0181,-331.277,-0.107786,0.0,0.0
2170,542.25,21.5097,22.2343,143.601,112.874,113.777,-0.000307786,0.0506428,21.0184,-331.277,-0.0708601,0.0,0.0
2201,550,21.3725,22.4987,139.3,112.835,114.036,-0.000278471,0.0505698,21.0174,-331.257,-0.0941714,0.0,0.0
2232,557.75,21.84,22.3659,139.85,112.781,114.264,8.41586e-06,0.0507278,21.0171,-331.277,-0.116163,0.0,0.0
2263,565.5,21.7181,22.4653,139.924,112.739,114.035,-2.7804e-05,0.0507253,21.0174,-331.297,-0.101597,0.0,0.0
2294,573.25,21.7374,22.3907,138.939,112.673,114.152,-5.97199e-06,0.0506592,21.0169,-331.277,-0.115967,0.0,0.0
2325,581,21.2943,22.5599,140.148,112.609,113.579,0.00029867,0.0506858,21.017,-331.267,-0.0762876,0.0,0.0
2356,588.75,21.7091,22.5745,137.91,112.52,113.535,0.000104241,0.0507272,21.0165,-331.287,-0.0798426,0.0,0.0
2387,596.5,21.8477,22.5312,141.084,112.448,113.416,0.000167751,0.0504607,21.0166,-331.257,-0.076224,0.0,0.0
2418,604.25,20.7067,21.8574,143.995,112.364,113.696,0.000370339,0.0504748,21.018,-331.267,-0.104829,0.0,0.0
2449,612,20.9993,21.9421,143.927,112.248,113.658,0.000355883,0.0504182,21.0202,-331.287,-0.110964,0.0,0.0
2480,619.75,21.2043,21.897,139.664,112.113,113.164,-0.000106259,0.0503342,21.0186,-331.267,-0.0829784,0.0,0.0
2511,627.5,21.0696,22.3957,140,111.95,113.011,9.37042e-05,0.0504987,21.018,-331.267,-0.0838752,0.0,0.0
2542,635.25,21.2514,21.647,145.191,111.805,112.909,-3.40161e-05,0.0505003,21.0174,-331.267,-0.0873678,0.0,0.0
2573,643,21.0197,21.9065,136.312,111.667,112.74,-9.72686e-05,0.0504846,21.0174,-331.267,-0.0850364,0.0,0.0
2604,650.75,20.9683,21.9278,141.218,111.543,112.467,-0.000113668,0.0503971,21.0174,-331.277,-0.0733888,0.0,0.0
2635,658.5,21.1567,21.8024,139.963,111.435,112.918,-0.000131046,0.0505223,21.0167,-331.277,-0.117528,0.0,0.0
2666,666.25,21.215,22.1078,141.294,111.367,112.382,5.42952e-05,0.050713,21.0178,-331.267,-0.0807096,0.0,0.0
2697,674,20.5877,21.893,138.284,111.262,112.639,2.34317e-05,0.0505269,21.0174,-331.277,-0.109363,0.0,0.0
2728,681.75,21.279,22.1942,141.682,111.192,112.243,1.78041e-05,0.0505302,21.0153,-331.287,-0.083636,0.0,0.0
2759,689.5,21.0551,21.472,139.064,111.138,112.378,0.000195399,0.0505801,21.0173,-331.307,-0.0986151,0.0,0.0
2790,697.25,21.2697,22.173,137.024,111.088,112.442,0.000253044,0.0505642,21.0183,-331.287,-0.10775,0.0,0.0
2821,705,21.2604,21.7424,140.673,111.061,112.214,-8.3292e-08,0.0505805,21.018,-331.297,-0.0918269,0.0,0.0
2852,712.75,21.5789,22.035,139.491,111.026,112.568,,0.0506597,,-331.297,-0.122646,0.0,0.0
2883,720.5,21.7891,22.2269,139.239,110.997,112.279,,,,-331.277,-0.102142,0.0,0.0
2885,721,21.0232,21.9644,140.339,110.971,112.181,,,,-331.297,-0.0964007,0.0,0.0

File: R13_Fiberglass_Insulation_Cone_HF50Scalar_220429_R1.csv
LABORATORY,FSRI
TEST IDENT,R13Insulation_HF50_1
OPERATOR,Dow
MATERIAL,R13 Fiberglass Insulation (pink)
ORIENTATION,Horizontal
HEAT FLUX,25
SURF AREA,0.01
C FACTOR,0.0415476
SPEC HOLDER DIFF,-566
SPECIMEN MASS,6.1
SCAN TIME,0.25
O2 DELAY TIME,11
CO DELAY TIME,11
CO2 DELAY TIME,8
FLOW FACTOR,1
SCAN COUNT,7775
TIME TO IGN,0
END OF TEST SCAN,7295
END OF TEST TIME,1823.75
TEST STATUS,1
PRE TEST CMT,Dimensions: 99.1 x 99.5 x 30.1 mm
POST TEST CMT,No ignition. Test ended after 30 minutes.