Folder: fsri_materials_database/01_Data/Fiberglass_Insulation_R13_Paper_Faced/MCC

Note: 01_Data/README.md
# Materials and Products Database
## 01_Data

Raw data generated from each apparatus are included here in plain-text format. The data is organized first by material, next by the short name of test apparatus used, and where applicable additional filtering by test settings.

### material.json

Each material directory contains a json file of the same name as the material. This file links the data stored in the repository as well as data and graphs produced by the accompanying scripts (__02_Scripts__) to the respective landing page for the material on the front-end website.

File: R13_Fiberglass_Insulation_MCC_30K_min_220124_R1.txt
Sample ID:	C:\MCC\MCC Cal\Test\Fiberglas_Inaulation1_MCC_30K_min_220124_R1.txt
Sample Weight (mg):	4.71
Heating Rate (C/s):	0.5
Combustor Temp (C):	900
N2 Flow Rate (cc/min):	80
O2 Flow Rate (cc/min):	20
Calibration File:	C:\MCC\MCC Cal\Coeff1 JN10440_30_210304.txt.txt
T Correction Coefficients:	0	1.024463	0
Time Shift (s):	14
*
Time (s)	Temperature (C)	N2 flow rate (cc/min)	O2 flow rate (cc/min)	Flow Rate (cc/min)	Oxygen (%)	HRR (W/g)	Heating rate (C/s)
0.000	110.360	80.009	19.994	103.743	20.159	-0.289	-0.017
7.500	110.364	80.011	19.993	103.742	20.156	-0.061	0.006
15.000	110.354	80.009	19.993	103.811	20.145	0.722	-0.011
22.500	110.696	80.010	19.993	103.905	20.133	1.502	0.035
30.000	111.435	80.009	19.994	103.929	20.127	1.966	0.140
37.500	112.584	80.008	19.993	103.951	20.119	2.509	0.200
45.001	114.168	80.007	19.994	103.951	20.118	2.565	0.237
52.500	116.057	80.007	19.994	103.990	20.111	3.026	0.286
60.000	118.299	80.008	19.995	103.988	20.112	2.956	0.327
67.500	120.695	80.008	19.992	104.016	20.109	3.151	0.328
75.000	123.471	80.008	19.993	104.012	20.108	3.267	0.351
82.500	126.416	80.010	19.993	104.014	20.108	3.219	0.375
90.000	129.519	80.009	19.994	104.019	20.107	3.326	0.424
97.500	132.788	80.009	19.993	104.025	20.109	3.164	0.460
105.000	136.207	80.011	19.995	104.023	20.107	3.286	0.468
112.500	139.800	80.009	19.993	104.017	20.108	3.280	0.490
120.000	143.392	80.008	19.995	103.998	20.110	3.127	0.486
127.500	147.062	80.009	19.994	104.007	20.111	3.036	0.501
135.000	150.842	80.008	19.994	103.988	20.109	3.201	0.501
142.500	154.577	80.008	19.994	103.987	20.108	3.232	0.476
150.000	158.354	80.007	19.994	103.984	20.108	3.261	0.506
157.500	162.080	80.008	19.995	103.985	20.107	3.285	0.487
165.000	165.895	80.010	19.994	103.985	20.107	3.291	0.525
172.500	169.661	80.009	19.993	103.970	20.109	3.188	0.527
180.000	173.378	80.006	19.993	103.979	20.109	3.205	0.485
187.500	177.120	80.010	19.994	103.973	20.111	3.069	0.512
195.000	180.823	80.010	19.995	103.959	20.108	3.256	0.495
202.500	184.578	80.009	19.993	103.965	20.107	3.336	0.485
210.000	188.387	80.009	19.993	103.958	20.109	3.166	0.502
217.500	192.117	80.007	19.994	103.964	20.110	3.143	0.484
225.000	195.793	80.008	19.995	103.959	20.108	3.236	0.468
232.500	199.498	80.009	19.995	103.949	20.108	3.227	0.463
240.000	203.203	80.008	19.994	103.947	20.110	3.112	0.465
247.500	206.928	80.009	19.995	103.946	20.111	3.067	0.491
255.000	210.621	80.009	19.994	103.943	20.111	3.015	0.476
262.500	214.365	80.010	19.993	103.944	20.110	3.139	0.515
270.000	218.111	80.011	19.994	103.942	20.111	3.021	0.529
277.500	221.817	80.009	19.995	103.942	20.109	3.160	0.489
285.000	225.499	80.009	19.994	103.947	20.109	3.179	0.485
292.500	229.274	80.007	19.993	103.944	20.109	3.171	0.518
300.000	233.004	80.008	19.993	103.945	20.107	3.305	0.500
307.500	236.701	80.007	19.993	103.945	20.105	3.480	0.485
315.000	240.402	80.008	19.994	103.943	20.108	3.278	0.480
322.500	244.178	80.008	19.993	103.940	20.106	3.379	0.525
330.000	247.907	80.011	19.994	103.933	20.108	3.279	0.479
337.500	251.723	80.008	19.994	103.938	20.106	3.411	0.492
345.000	255.469	80.008	19.994	103.933	20.101	3.739	0.500
352.500	259.263	80.010	19.995	103.929	20.104	3.498	0.493
360.000	262.959	80.010	19.993	103.915	20.099	3.898	0.493
367.500	266.727	80.008	19.995	103.921	20.102	3.680	0.495
375.000	270.531	80.008	19.993	103.917	20.098	3.915	0.503
382.500	274.332	80.008	19.993	103.919	20.099	3.849	0.512
390.000	278.084	80.009	19.994	103.910	20.095	4.171	0.512
397.500	281.811	80.008	19.994	103.914	20.094	4.203	0.490
405.000	285.571	80.009	19.995	103.915	20.094	4.228	0.500
412.500	289.354	80.011	19.993	103.909	20.095	4.155	0.501
420.000	293.203	80.008	19.994	103.907	20.095	4.136	0.509
427.500	296.964	80.008	19.994	103.905	20.094	4.199	0.518
435.000	300.744	80.009	19.993	103.905	20.093	4.266	0.494
442.500	304.547	80.009	19.993	103.906	20.095	4.117	0.515
450.000	308.257	80.009	19.994	103.906	20.093	4.289	0.501
457.500	312.069	80.010	19.993	103.905	20.093	4.309	0.508
465.000	315.821	80.009	19.994	103.905	20.093	4.247	0.490
472.500	319.619	80.010	19.995	103.897	20.094	4.194	0.504
480.000	323.397	80.008	19.993	103.906	20.094	4.197	0.493
487.500	327.156	80.009	19.992	103.908	20.094	4.226	0.479
495.000	330.949	80.010	19.994	103.906	20.098	3.950	0.465
502.500	334.764	80.009	19.995	103.900	20.094	4.225	0.494
510.000	338.606	80.009	19.993	103.902	20.094	4.227	0.510
517.500	342.362	80.011	19.993	103.902	20.095	4.166	0.502
525.000	346.117	80.008	19.996	103.895	20.091	4.404	0.528
532.500	349.896	80.008	19.995	103.896	20.094	4.235	0.493
540.000	353.680	80.009	19.994	103.894	20.091	4.399	0.496
547.500	357.482	80.008	19.993	103.886	20.091	4.393	0.510
555.000	361.251	80.007	19.995	103.881	20.091	4.437	0.499
562.500	365.068	80.008	19.993	103.895	20.091	4.434	0.488
570.000	368.820	80.010	19.994	103.889	20.084	4.876	0.517
577.500	372.570	80.010	19.993	103.879	20.088	4.615	0.498
585.000	376.366	80.008	19.994	103.893	20.089	4.560	0.509
592.500	380.176	80.010	19.994	103.881	20.089	4.549	0.540
600.000	383.997	80.010	19.993	103.874	20.088	4.614	0.512
607.500	387.762	80.008	19.993	103.874	20.087	4.690	0.506
615.000	391.561	80.006	19.994	103.879	20.084	4.920	0.515
622.500	395.357	80.007	19.994	103.871	20.085	4.822	0.511
630.000	399.124	80.008	19.993	103.895	20.084	4.882	0.516
637.500	402.901	80.007	19.996	103.888	20.081	5.108	0.523
645.000	406.740	80.009	19.995	103.879	20.081	5.100	0.491
652.500	410.544	80.009	19.995	103.885	20.080	5.142	0.499
660.000	414.339	80.010	19.994	103.874	20.077	5.356	0.495
667.500	418.120	80.009	19.994	103.872	20.080	5.153	0.491
675.000	421.947	80.010	19.993	103.877	20.077	5.350	0.544
682.500	425.738	80.009	19.994	103.870	20.081	5.114	0.507
690.000	429.558	80.007	19.994	103.871	20.074	5.598	0.520
697.500	433.366	80.008	19.994	103.871	20.075	5.506	0.489
705.000	437.234	80.009	19.995	103.874	20.075	5.538	0.496
712.500	441.096	80.008	19.995	103.871	20.075	5.498	0.508
720.000	444.874	80.007	19.995	103.869	20.075	5.496	0.487
727.500	448.712	80.008	19.993	103.876	20.076	5.428	0.507
735.000	452.552	80.010	19.993	103.869	20.076	5.453	0.496
742.500	456.396	80.011	19.994	103.871	20.077	5.350	0.512
750.000	460.219	80.009	19.994	103.868	20.079	5.220	0.506
757.500	464.062	80.011	19.993	103.869	20.077	5.376	0.503
765.000	467.855	80.011	19.994	103.869	20.076	5.414	0.486
772.500	471.674	80.010	19.994	103.866	20.080	5.146	0.509
780.000	475.557	80.008	19.995	103.864	20.082	5.066	0.524
787.500	479.442	80.010	19.994	103.865	20.083	4.988	0.499
795.000	483.222	80.008	19.994	103.864	20.079	5.237	0.507
802.500	487.121	80.009	19.995	103.865	20.080	5.178	0.539
810.000	490.907	80.008	19.995	103.860	20.083	4.957	0.513
817.500	494.905	80.010	19.995	103.863	20.085	4.815	0.487
825.000	498.747	80.010	19.995	103.867	20.083	4.957	0.506
832.500	502.645	80.009	19.993	103.858	20.093	4.285	0.529
840.000	506.553	80.011	19.993	103.863	20.086	4.732	0.595
847.500	510.203	80.012	19.993	103.854	20.081	5.127	0.035
855.000	514.238	80.009	19.993	103.858	20.084	4.917	0.568
862.500	518.142	80.010	19.994	103.862	20.075	5.538	0.527
870.000	521.997	80.009	19.993	103.862	20.079	5.226	0.484
877.501	525.811	80.007	19.993	103.867	20.086	4.732	0.528
885.000	529.634	80.008	19.995	103.867	20.079	5.216	0.508
892.500	533.417	80.008	19.994	103.868	20.080	5.151	0.506
900.000	537.296	80.009	19.994	103.855	20.077	5.376	0.498
907.500	541.118	80.009	19.995	103.855	20.081	5.094	0.524
915.000	544.930	80.011	19.993	103.856	20.079	5.212	0.521
922.500	548.781	80.011	19.993	103.864	20.082	5.052	0.537
930.000	552.582	80.011	19.994	103.858	20.079	5.216	0.501
937.500	556.461	80.008	19.993	103.844	20.077	5.386	0.529
945.000	560.281	80.009	19.994	103.855	20.081	5.101	0.529
952.500	564.040	80.008	19.992	103.856	20.076	5.468	0.483
960.000	567.859	80.008	19.994	103.851	20.078	5.288	0.500
967.500	571.691	80.007	19.993	103.847	20.078	5.327	0.525
975.000	575.574	80.009	19.994	103.839	20.080	5.172	0.504
982.500	579.329	80.011	19.994	103.851	20.078	5.328	0.495
990.000	583.137	80.009	19.994	103.841	20.076	5.430	0.519
997.500	586.877	80.009	19.994	103.830	20.074	5.560	0.525
1005.000	590.460	80.010	19.995	103.850	20.075	5.536	0.472
1012.500	594.102	80.011	19.993	103.847	20.074	5.598	0.498
1020.000	597.711	80.009	19.994	103.853	20.071	5.817	0.471
1027.500	601.247	80.008	19.994	103.843	20.074	5.567	0.475
1035.000	604.779	80.010	19.994	103.839	20.076	5.432	0.478
1042.500	608.320	80.010	19.993	103.838	20.075	5.543	0.454
1050.000	611.899	80.009	19.993	103.833	20.078	5.312	0.487
1057.500	615.622	80.008	19.995	103.848	20.076	5.423	0.494
1065.000	619.368	80.010	19.994	103.859	20.078	5.310	0.515
1072.500	623.120	80.008	19.995	103.852	20.072	5.711	0.538
1080.000	627.011	80.008	19.995	103.846	20.069	5.902	0.520
1087.500	630.959	80.011	19.994	103.862	20.069	5.946	0.542
1095.000	634.953	80.009	19.994	103.851	20.069	5.916	0.514
1102.500	638.931	80.008	19.994	103.835	20.070	5.841	0.555
1110.000	642.646	80.009	19.993	103.842	20.067	6.039	0.504
1117.500	646.308	80.009	19.994	103.842	20.064	6.237	0.487
1125.000	649.960	80.009	19.995	103.840	20.064	6.239	0.468
1132.500	653.643	80.009	19.994	103.847	20.065	6.211	0.486
1140.000	657.334	80.009	19.994	103.846	20.062	6.384	0.471
1147.500	661.014	80.009	19.993	103.850	20.065	6.185	0.476
1155.000	664.674	80.009	19.994	103.857	20.065	6.223	0.473
1162.500	668.420	80.009	19.994	103.846	20.060	6.560	0.502
1170.000	672.238	80.011	19.993	103.850	20.060	6.512	0.495
1177.500	676.154	80.009	19.994	103.837	20.060	6.573	0.509
1185.001	679.908	80.008	19.996	103.845	20.058	6.669	0.496
1192.501	683.776	80.009	19.994	103.859	20.059	6.584	0.495
1200.000	687.646	80.009	19.994	103.865	20.059	6.596	0.527
1207.500	691.511	80.010	19.993	103.868	20.058	6.694	0.516
1215.000	695.276	80.009	19.993	103.853	20.055	6.889	0.518
1222.500	698.978	80.010	19.993	103.841	20.053	7.021	0.507
1230.000	702.629	80.010	19.992	103.848	20.052	7.090	0.475
1237.500	706.334	80.011	19.994	103.855	20.052	7.122	0.501
1245.000	710.082	80.010	19.996	103.863	20.056	6.846	0.508
1252.500	713.814	80.010	19.994	103.854	20.055	6.895	0.513
1260.000	717.663	80.009	19.993	103.840	20.054	6.947	0.501
1267.500	721.346	80.009	19.993	103.852	20.056	6.835	0.483
1275.000	725.050	80.009	19.994	103.839	20.057	6.760	0.468
1282.500	728.663	80.007	19.995	103.846	20.054	6.991	0.468
1290.000	732.476	80.009	19.993	103.850	20.053	7.012	0.521
1297.500	736.528	80.009	19.994	103.845	20.048	7.389	0.557
1305.000	740.760	80.009	19.994	103.851	20.052	7.120	0.560
1308.500	742.760	80.011	19.994	103.857	20.052	7.097	0.586