Folder: fsri_materials_database/01_Data/Polyester_Carpet_Medium_Pile/MCC

Note: 01_Data/README.md
# Materials and Products Database
## 01_Data

Raw data generated from each apparatus are included here in plain-text format. The data is organized first by material, next by the short name of test apparatus used, and where applicable additional filtering by test settings.

### material.json

Each material directory contains a json file of the same name as the material. This file links the data stored in the repository as well as data and graphs produced by the accompanying scripts (__02_Scripts__) to the respective landing page for the material on the front-end website.

File: Polyester_Carpet_Medium_Pile_MCC_30K_min_211029_R3.txt
Sample ID:	C:\MCC\MCC Cal\Test\Polyester_Carpet_MedPile_MCC_30K_min_211029_R3.txt
Sample Weight (mg):	4.46
Heating Rate (C/s):	0.5
Combustor Temp (C):	900
N2 Flow Rate (cc/min):	80
O2 Flow Rate (cc/min):	20
Calibration File:	C:\MCC\MCC Cal\Coeff1 JN10440_30_210304.txt.txt
T Correction Coefficients:	0	1.024463	0
Time Shift (s):	14
*
Time (s)	Temperature (C)	N2 flow rate (cc/min)	O2 flow rate (cc/min)	Flow Rate (cc/min)	Oxygen (%)	HRR (W/g)	Heating rate (C/s)
0.000	107.834	79.995	19.996	102.895	20.070	0.081	0.006
8.000	107.819	79.993	19.997	102.916	20.065	0.454	0.001
16.000	107.801	79.995	19.997	102.946	20.061	0.747	-0.008
24.000	108.109	79.997	19.995	103.084	20.044	1.946	0.042
32.000	108.835	79.986	19.996	103.108	20.035	2.609	0.105
40.000	110.062	79.990	19.996	103.120	20.031	2.937	0.170
48.000	111.649	79.990	19.992	103.128	20.028	3.093	0.259
56.000	113.638	79.998	19.993	103.148	20.022	3.564	0.309
64.000	115.962	80.005	19.995	103.167	20.023	3.500	0.311
72.000	118.621	79.991	19.996	103.161	20.020	3.705	0.367
80.000	121.623	79.986	19.995	103.171	20.021	3.595	0.398
88.000	124.770	79.992	19.996	103.174	20.020	3.671	0.395
96.000	128.161	79.988	19.996	103.174	20.024	3.417	0.440
104.001	131.695	79.981	19.996	103.165	20.021	3.643	0.440
112.000	135.427	80.014	19.995	103.168	20.021	3.602	0.491
120.000	139.232	79.991	19.996	103.168	20.025	3.330	0.530
128.000	143.060	79.999	19.995	103.161	20.023	3.465	0.497
136.000	147.026	80.004	19.992	103.156	20.026	3.279	0.508
144.000	150.984	79.990	19.995	103.152	20.028	3.111	0.489
152.000	154.897	79.990	19.995	103.148	20.024	3.380	0.514
160.000	158.855	79.988	19.996	103.130	20.028	3.118	0.480
168.000	162.807	79.995	19.995	103.142	20.027	3.229	0.454
176.000	166.858	80.003	19.994	103.134	20.027	3.217	0.496
184.000	170.833	79.994	19.997	103.125	20.031	2.910	0.486
192.000	174.795	80.006	19.995	103.125	20.033	2.746	0.530
200.000	178.725	79.985	19.999	103.134	20.036	2.569	0.465
208.000	182.676	79.993	19.996	103.128	20.036	2.563	0.425
216.000	186.687	79.991	19.997	103.126	20.038	2.406	0.491
224.000	190.573	79.997	19.996	103.120	20.036	2.548	0.516
232.000	194.359	79.990	19.996	103.113	20.037	2.441	0.422
240.000	198.209	80.008	19.995	103.123	20.033	2.797	0.480
248.000	202.019	79.992	19.997	103.128	20.036	2.576	0.503
256.000	205.897	79.995	19.995	103.126	20.038	2.425	0.488
264.000	209.847	79.993	19.996	103.121	20.036	2.538	0.474
272.000	213.923	79.999	19.996	103.115	20.040	2.247	0.507
280.000	217.951	79.989	19.995	103.109	20.034	2.669	0.515
288.000	221.960	79.992	19.996	103.107	20.035	2.586	0.503
296.000	225.963	79.989	19.997	103.115	20.035	2.614	0.490
304.001	230.029	79.992	19.996	103.099	20.036	2.582	0.490
312.001	234.088	79.993	19.995	103.101	20.037	2.477	0.525
320.000	238.140	79.987	19.994	103.092	20.035	2.604	0.534
328.000	242.149	79.991	19.996	103.089	20.036	2.556	0.501
336.000	246.212	79.994	19.995	103.090	20.037	2.497	0.521
344.000	250.287	79.998	19.995	103.092	20.038	2.398	0.513
352.000	254.252	79.980	19.996	103.093	20.043	2.014	0.516
360.000	258.173	79.992	19.996	103.079	20.039	2.301	0.499
368.000	262.116	79.995	19.997	103.075	20.042	2.083	0.479
376.000	266.009	79.991	19.996	103.083	20.038	2.406	0.475
384.000	269.969	80.001	19.995	103.077	20.039	2.333	0.541
392.000	273.885	79.992	19.996	103.090	20.038	2.373	0.500
400.000	277.826	80.007	19.993	103.070	20.042	2.097	0.500
408.000	281.735	79.991	19.995	103.085	20.043	2.070	0.492
416.000	285.698	79.995	19.995	103.078	20.041	2.208	0.511
424.000	289.700	79.994	19.995	103.052	20.044	1.945	0.487
432.000	293.667	79.982	19.997	103.057	20.044	1.949	0.490
440.001	297.641	79.996	19.997	103.055	20.044	2.004	0.505
448.000	301.604	79.989	19.997	103.077	20.038	2.381	0.489
456.000	305.631	79.991	19.996	103.078	20.036	2.541	0.522
464.000	309.718	79.974	19.997	103.062	20.038	2.423	0.543
472.000	313.883	79.995	19.995	103.075	20.033	2.771	0.534
480.000	318.020	79.993	19.994	103.051	20.033	2.795	0.538
488.000	322.094	79.993	19.995	103.049	20.036	2.561	0.504
496.000	326.107	79.995	19.995	103.050	20.031	2.870	0.506
504.000	330.134	79.995	19.997	103.051	20.026	3.237	0.514
512.000	334.225	79.992	19.995	103.058	20.023	3.447	0.510
520.000	338.344	79.990	19.996	103.054	20.020	3.692	0.508
528.000	342.475	79.991	19.996	103.056	20.011	4.365	0.540
536.000	346.543	79.992	19.995	103.064	20.005	4.810	0.535
544.000	350.700	79.992	19.996	103.059	20.000	5.121	0.507
552.000	354.846	79.994	19.995	103.055	19.987	6.107	0.525
560.000	359.000	79.991	19.996	103.052	19.971	7.257	0.498
568.000	363.099	79.992	19.996	103.058	19.961	7.933	0.516
576.000	367.195	79.996	19.995	103.056	19.942	9.337	0.522
584.000	371.205	79.994	19.995	103.085	19.919	11.017	0.485
592.000	375.313	79.992	19.995	103.077	19.894	12.795	0.497
600.000	379.319	79.993	19.997	103.082	19.868	14.685	0.508
608.000	383.252	79.992	19.996	103.087	19.838	16.805	0.483
616.000	387.151	79.992	19.995	103.087	19.808	18.966	0.459
624.000	391.203	79.991	19.998	103.106	19.771	21.664	0.513
632.000	395.216	79.995	19.997	103.108	19.733	24.411	0.478
640.000	399.266	79.994	19.996	103.126	19.693	27.287	0.503
648.000	403.297	79.993	19.995	103.128	19.647	30.650	0.509
656.000	407.259	79.994	19.995	103.132	19.587	34.965	0.473
664.000	411.239	79.994	19.995	103.158	19.523	39.545	0.471
672.000	415.185	79.991	19.996	103.165	19.443	45.355	0.489
680.000	419.160	79.995	19.996	103.205	19.356	51.634	0.445
688.000	423.258	79.992	19.997	103.231	19.262	58.463	0.503
696.000	427.455	79.993	19.997	103.246	19.156	66.140	0.515
704.000	431.649	79.991	19.997	103.281	19.052	73.654	0.542
712.000	435.882	79.995	19.995	103.295	18.947	81.246	0.501
720.000	440.033	79.994	19.997	103.326	18.855	87.920	0.516
728.000	444.171	79.993	19.995	103.353	18.779	93.459	0.536
736.000	448.315	79.998	19.995	103.357	18.750	95.542	0.538
744.000	452.325	79.992	19.996	103.346	18.803	91.600	0.472
752.000	456.454	79.993	19.995	103.291	18.951	80.898	0.525
760.000	460.513	79.994	19.996	103.238	19.165	65.381	0.520
768.000	464.590	79.994	19.995	103.169	19.373	50.364	0.522
776.000	468.739	79.993	19.996	103.127	19.511	40.412	0.534
784.000	472.793	79.992	19.996	103.084	19.538	38.442	0.535
792.000	476.857	79.994	19.995	103.050	19.502	41.033	0.513
800.000	480.822	79.992	19.997	103.007	19.474	43.042	0.487
808.000	484.821	79.991	19.996	102.964	19.569	36.160	0.527
816.000	488.781	79.994	19.995	102.979	19.726	24.854	0.489
824.000	492.755	79.994	19.996	103.006	19.873	14.302	0.496
832.000	496.761	79.991	19.995	103.045	19.961	7.931	0.470
840.000	500.789	79.992	19.997	103.049	20.005	4.798	0.512
848.000	504.768	79.992	19.994	103.041	20.019	3.756	0.492
856.000	508.773	79.994	19.995	103.033	20.018	3.813	0.479
864.000	512.801	79.991	19.997	103.045	20.017	3.920	0.524
872.000	516.952	79.995	19.996	103.049	20.017	3.901	0.522
880.000	521.229	79.993	19.996	103.043	20.018	3.867	0.524
888.000	525.583	79.993	19.996	103.046	20.013	4.190	0.546
896.000	529.983	79.994	19.997	103.047	20.013	4.225	0.558
904.000	534.389	79.995	19.994	103.051	20.013	4.174	0.544
912.000	538.834	79.990	19.995	103.058	20.016	3.984	0.555
920.000	543.236	79.993	19.995	103.050	20.016	3.986	0.526
928.000	547.615	79.993	19.996	103.047	20.012	4.241	0.539
936.000	551.935	79.993	19.996	103.047	20.013	4.210	0.555
944.000	556.291	79.993	19.995	103.049	20.015	4.065	0.547
952.000	560.485	79.995	19.996	103.049	20.012	4.287	0.547
960.000	564.643	79.994	19.996	103.050	20.009	4.485	0.502
968.000	568.717	79.993	19.996	103.059	20.001	5.055	0.515
976.000	572.794	79.992	19.995	103.055	19.998	5.281	0.509
984.000	576.955	79.993	19.996	103.049	19.991	5.772	0.522
992.000	581.030	79.994	19.996	103.060	19.977	6.799	0.524
1000.000	585.041	79.993	19.996	103.070	19.962	7.872	0.483
1008.000	589.083	79.994	19.996	103.071	19.937	9.660	0.513
1016.000	593.177	79.993	19.996	103.088	19.894	12.794	0.506
1024.000	597.287	79.992	19.996	103.090	19.849	16.043	0.510
1032.000	601.324	79.993	19.995	103.096	19.804	19.267	0.515
1040.001	605.410	79.993	19.995	103.102	19.766	21.997	0.527
1048.001	609.495	79.993	19.996	103.097	19.742	23.768	0.488
1056.001	613.600	79.995	19.996	103.108	19.732	24.498	0.508
1064.001	617.652	79.995	19.997	103.087	19.752	23.045	0.473
1072.000	621.764	79.994	19.995	103.083	19.815	18.482	0.507
1080.000	625.808	79.993	19.996	103.051	19.913	11.390	0.503
1088.000	629.847	79.993	19.996	103.050	19.991	5.799	0.507
1096.001	633.933	79.993	19.995	103.040	20.012	4.245	0.503
1104.000	637.962	79.993	19.995	103.048	20.019	3.738	0.481
1112.000	641.991	79.994	19.995	103.043	20.023	3.494	0.525
1120.000	645.958	79.993	19.997	103.042	20.019	3.796	0.509
1128.001	650.011	79.994	19.996	103.047	20.017	3.940	0.502
1136.001	654.084	79.995	19.996	103.042	20.021	3.647	0.505
1144.001	658.151	79.994	19.995	103.048	20.025	3.361	0.503
1152.000	662.188	79.992	19.998	103.079	20.018	3.821	0.483
1160.000	666.244	79.994	19.997	103.077	20.019	3.778	0.500
1168.000	670.341	79.993	19.995	103.090	20.015	4.051	0.477
1176.000	674.427	79.992	19.996	103.086	20.013	4.231	0.507
1184.000	678.478	79.994	19.996	103.112	20.010	4.386	0.502
1192.000	682.463	79.995	19.995	103.107	20.012	4.284	0.517
1200.001	686.575	79.993	19.995	103.114	20.004	4.852	0.616
1208.000	690.514	79.993	19.997	103.127	20.001	5.092	0.484
1216.000	694.595	79.996	19.995	103.140	20.006	4.700	0.513
1224.000	698.572	79.990	19.995	103.149	20.002	5.008	0.454
1232.000	702.638	79.992	19.997	103.168	19.999	5.228	0.495
1240.000	706.526	79.995	19.997	103.172	19.996	5.433	0.471
1248.000	710.491	79.992	19.998	103.178	19.992	5.733	0.514
1256.001	714.462	79.992	19.995	103.184	19.989	5.923	0.511
1264.000	718.459	79.991	19.998	103.173	19.991	5.807	0.505
1272.000	722.478	79.998	19.991	103.181	19.988	5.994	0.498
1280.000	726.513	79.996	19.996	103.164	19.991	5.822	0.529
1288.000	730.535	79.995	19.991	103.132	19.997	5.378	0.522
1296.000	734.579	80.002	19.989	103.073	20.007	4.660	0.497
1304.000	738.751	79.992	20.000	103.025	20.020	3.710	0.557
1312.000	743.001	79.990	19.994	103.018	20.019	3.789	0.535
1312.500	743.223	79.988	20.007	103.021	20.018	3.874	0.518