Folder: fsri_materials_database/01_Data/Alpha_OSB/MCC (part 2)

File: Alpha_OSB_MCC_30K_min_211206_R3.txt
Sample ID:	C:\MCC\MCC Cal\Test\Alpha_OSB_MCC_30K_min_211206_R3.txt
Sample Weight (mg):	4.32
Heating Rate (C/s):	0.5
Combustor Temp (C):	900
N2 Flow Rate (cc/min):	80
O2 Flow Rate (cc/min):	20
Calibration File:	C:\MCC\MCC Cal\Coeff1 JN10440_30_210304.txt.txt
T Correction Coefficients:	0	1.024463	0
Time Shift (s):	14
*
Time (s)	Temperature (C)	N2 flow rate (cc/min)	O2 flow rate (cc/min)	Flow Rate (cc/min)	Oxygen (%)	HRR (W/g)	Heating rate (C/s)
0.000	110.905	79.997	19.995	103.068	20.099	-0.415	-0.002
8.000	110.883	80.003	19.994	103.069	20.091	0.178	0.012
16.001	110.897	80.002	19.994	103.117	20.080	0.998	0.015
24.000	111.122	80.010	19.993	103.209	20.071	1.643	0.037
32.000	111.665	80.003	19.995	103.203	20.068	1.883	0.109
40.001	112.539	80.002	19.995	103.235	20.063	2.251	0.151
48.001	113.674	80.002	19.994	103.254	20.053	3.001	0.178
56.000	115.201	79.987	19.996	103.295	20.050	3.222	0.180
64.000	117.195	79.995	19.996	103.301	20.045	3.596	0.268
72.000	119.461	80.017	19.993	103.317	20.045	3.581	0.281
80.000	122.015	80.001	19.994	103.310	20.045	3.592	0.341
88.000	124.796	79.989	19.996	103.310	20.046	3.557	0.341
96.000	127.841	79.999	19.995	103.312	20.043	3.734	0.372
104.000	131.071	80.000	19.994	103.337	20.044	3.667	0.415
112.000	134.523	79.999	19.995	103.335	20.041	3.888	0.444
120.000	138.048	79.999	19.994	103.331	20.046	3.503	0.461
128.001	141.736	79.994	19.995	103.323	20.042	3.815	0.468
136.000	145.542	79.994	19.995	103.329	20.042	3.808	0.488
144.000	149.439	79.995	19.995	103.326	20.045	3.600	0.511
152.000	153.345	80.000	19.995	103.305	20.041	3.926	0.517
160.000	157.286	79.993	19.997	103.318	20.042	3.841	0.505
168.000	161.248	79.991	19.996	103.294	20.040	3.947	0.457
176.000	165.266	80.004	19.995	103.309	20.036	4.239	0.475
184.000	169.290	79.997	19.996	103.298	20.036	4.264	0.506
192.000	173.271	80.000	19.995	103.293	20.031	4.628	0.519
200.000	177.257	80.005	19.994	103.280	20.034	4.432	0.504
208.000	181.338	80.005	19.993	103.291	20.033	4.460	0.530
216.000	185.284	79.980	19.998	103.287	20.030	4.685	0.466
224.000	189.348	80.005	19.993	103.268	20.032	4.554	0.503
232.000	193.355	80.018	19.992	103.276	20.029	4.823	0.492
240.000	197.385	79.993	19.994	103.274	20.028	4.868	0.516
248.000	201.296	79.990	19.997	103.285	20.027	4.936	0.473
256.001	205.299	80.001	19.995	103.266	20.031	4.677	0.504
264.000	209.250	80.000	19.994	103.273	20.023	5.229	0.481
272.000	213.239	79.989	19.996	103.286	20.016	5.761	0.479
280.000	217.159	79.991	19.997	103.267	20.012	6.029	0.534
288.000	221.075	80.007	19.994	103.284	20.007	6.429	0.495
296.000	225.056	80.008	19.995	103.259	20.000	6.969	0.515
304.001	229.048	80.007	19.995	103.280	19.996	7.228	0.498
312.000	232.977	80.003	19.995	103.264	19.989	7.758	0.502
320.000	236.994	80.002	19.994	103.268	19.981	8.355	0.495
328.000	240.962	79.998	19.994	103.277	19.976	8.766	0.485
336.000	245.001	80.003	19.994	103.260	19.967	9.430	0.520
344.000	248.975	80.004	19.995	103.285	19.957	10.160	0.495
352.001	253.055	80.006	19.995	103.290	19.945	11.063	0.515
360.001	257.068	80.007	19.993	103.276	19.931	12.083	0.506
368.000	261.006	79.995	19.997	103.283	19.914	13.350	0.494
376.000	265.037	79.998	19.996	103.297	19.896	14.705	0.489
384.000	269.047	80.009	19.993	103.298	19.875	16.311	0.490
392.000	273.039	80.000	19.995	103.311	19.854	17.847	0.481
400.000	277.066	79.999	19.995	103.312	19.830	19.614	0.511
408.001	281.069	79.994	19.995	103.344	19.800	21.869	0.487
416.000	285.134	79.993	19.996	103.342	19.775	23.747	0.493
424.000	289.141	79.999	19.995	103.352	19.742	26.241	0.467
432.000	293.240	80.002	19.996	103.358	19.706	28.919	0.504
440.000	297.223	80.005	19.995	103.373	19.671	31.498	0.465
448.000	301.187	80.002	19.996	103.380	19.636	34.167	0.489
456.000	305.245	79.999	19.995	103.382	19.602	36.717	0.512
464.000	309.261	80.002	19.995	103.391	19.563	39.582	0.504
472.000	313.357	80.001	19.995	103.419	19.524	42.497	0.511
480.000	317.338	79.994	19.994	103.423	19.481	45.741	0.563
488.000	321.299	80.000	19.994	103.434	19.440	48.780	0.507
496.000	325.333	80.003	19.994	103.455	19.392	52.426	0.514
504.000	329.319	80.002	19.994	103.456	19.341	56.197	0.497
512.001	333.401	79.999	19.995	103.477	19.296	59.549	0.520
520.001	337.485	79.999	19.994	103.493	19.257	62.522	0.537
528.001	341.524	79.999	19.997	103.481	19.230	64.539	0.533
536.000	345.494	80.000	19.993	103.478	19.211	65.938	0.518
544.001	349.541	79.998	19.995	103.460	19.212	65.812	0.520
552.001	353.614	80.001	19.996	103.459	19.231	64.410	0.525
560.000	357.649	80.002	19.995	103.421	19.278	60.895	0.495
568.001	361.707	80.000	19.995	103.381	19.341	56.126	0.499
576.001	365.791	80.001	19.995	103.344	19.435	49.142	0.477
584.000	369.869	80.005	19.995	103.312	19.538	41.408	0.509
592.000	373.975	80.001	19.995	103.267	19.648	33.185	0.537
600.000	378.019	79.993	19.994	103.239	19.754	25.276	0.508
608.000	382.063	80.001	19.994	103.224	19.839	18.931	0.506
616.000	386.125	80.000	19.996	103.214	19.902	14.288	0.488
624.000	390.202	80.003	19.995	103.191	19.939	11.502	0.543
632.000	394.235	80.002	19.995	103.195	19.967	9.374	0.524
640.001	398.266	80.000	19.995	103.190	19.978	8.603	0.489
648.001	402.367	79.999	19.995	103.191	19.985	8.070	0.527
656.000	406.393	79.998	19.996	103.186	19.991	7.636	0.481
664.000	410.464	79.999	19.993	103.187	19.994	7.410	0.506
672.000	414.458	80.001	19.994	103.189	19.996	7.233	0.489
680.000	418.523	80.001	19.995	103.188	20.000	6.965	0.505
688.000	422.539	80.000	19.996	103.188	20.002	6.823	0.461
696.000	426.638	80.001	19.995	103.183	20.005	6.607	0.515
704.000	430.720	80.001	19.993	103.188	20.008	6.370	0.492
712.000	434.849	80.003	19.995	103.184	20.012	6.028	0.523
720.000	438.970	80.001	19.995	103.191	20.016	5.752	0.527
728.000	443.080	79.999	19.995	103.188	20.015	5.801	0.501
736.000	447.147	79.998	19.997	103.182	20.019	5.554	0.490
744.000	451.299	80.001	19.995	103.183	20.023	5.216	0.551
752.000	455.423	80.000	19.995	103.183	20.025	5.090	0.534
760.001	459.538	80.000	19.996	103.184	20.032	4.557	0.532
768.000	463.570	80.001	19.995	103.182	20.035	4.368	0.499
776.001	467.721	80.003	19.994	103.191	20.034	4.422	0.521
784.000	471.763	80.003	19.993	103.179	20.039	4.069	0.495
792.000	475.863	80.002	19.995	103.172	20.032	4.554	0.530
800.000	479.920	80.002	19.996	103.185	20.040	3.992	0.491
808.000	483.973	80.002	19.996	103.172	20.038	4.110	0.504
816.000	488.025	79.997	20.004	103.176	20.045	3.608	0.539
824.000	492.041	80.001	19.996	103.166	20.045	3.617	0.507
832.001	496.071	79.994	19.996	103.180	20.049	3.309	0.480
840.000	500.170	80.000	19.995	103.186	20.049	3.276	0.520
848.000	504.238	80.002	19.995	103.180	20.048	3.363	0.519
856.001	508.365	79.998	19.999	103.183	20.053	2.973	0.531
864.000	512.443	80.000	19.993	103.167	20.051	3.128	0.520
872.000	516.678	80.003	19.995	103.171	20.054	2.958	0.554
880.000	520.824	80.003	19.994	103.166	20.054	2.887	0.533
888.000	525.028	80.000	19.997	103.172	20.056	2.742	0.547
896.000	529.156	80.002	19.998	103.158	20.058	2.633	0.503
904.000	533.344	79.998	19.995	103.156	20.057	2.734	0.511
912.000	537.526	80.001	19.993	103.171	20.061	2.413	0.513
920.000	541.651	80.001	19.994	103.161	20.057	2.722	0.506
928.000	545.666	79.997	19.995	103.162	20.067	1.919	0.503
936.000	549.799	80.000	19.995	103.151	20.060	2.460	0.441
944.001	554.136	80.002	19.995	103.151	20.064	2.165	0.415
952.001	558.105	80.002	19.996	103.146	20.063	2.244	0.636
960.000	562.201	80.002	19.995	103.148	20.063	2.267	0.535
968.000	566.320	79.999	19.999	103.160	20.067	1.944	0.561
976.000	570.364	80.002	19.993	103.182	20.062	2.313	0.534
984.000	574.507	80.005	19.990	103.172	20.065	2.080	0.523
992.001	578.605	79.999	19.997	103.162	20.059	2.580	0.479
1000.000	582.739	79.997	20.000	103.164	20.061	2.367	0.494
1008.000	586.854	80.005	19.991	103.151	20.061	2.398	0.552
1016.000	590.933	80.006	19.995	103.157	20.064	2.166	0.504
1024.001	595.102	80.004	19.993	103.151	20.064	2.157	0.546
1032.000	599.225	80.003	19.994	103.145	20.065	2.120	0.515
1040.000	603.313	79.999	20.001	103.175	20.060	2.477	0.479
1048.000	607.445	79.996	20.000	103.153	20.059	2.518	0.508
1056.000	611.569	80.003	19.990	103.172	20.064	2.156	0.523
1064.000	615.755	80.003	19.996	103.166	20.060	2.477	0.518
1072.000	619.875	80.004	19.994	103.155	20.065	2.093	0.546
1080.000	624.006	80.000	19.998	103.156	20.062	2.350	0.539
1088.000	628.133	80.001	19.996	103.154	20.062	2.294	0.499
1096.000	632.233	80.002	19.994	103.156	20.060	2.495	0.502
1104.001	636.390	80.006	19.994	103.147	20.061	2.437	0.522
1112.000	640.437	80.003	19.999	103.147	20.057	2.719	0.492
1120.000	644.534	80.003	19.994	103.148	20.057	2.707	0.512
1128.001	648.606	80.005	19.994	103.144	20.058	2.626	0.529
1136.000	652.660	80.001	19.990	103.145	20.062	2.306	0.484
1144.000	656.750	79.997	19.996	103.146	20.062	2.298	0.517
1152.000	660.809	79.999	20.001	103.161	20.060	2.483	0.507
1160.001	664.941	79.998	19.991	103.146	20.062	2.304	0.583
1168.001	668.894	80.000	19.994	103.149	20.059	2.545	0.462
1176.000	672.950	80.001	19.996	103.150	20.056	2.747	0.518
1184.001	676.647	80.001	19.993	103.152	20.059	2.586	0.158
1192.000	681.188	80.002	19.996	103.157	20.059	2.578	0.544
1200.000	685.344	80.004	19.992	103.141	20.056	2.746	0.528
1208.000	689.511	80.000	19.997	103.142	20.057	2.684	0.526
1216.000	693.730	80.001	19.995	103.144	20.056	2.794	0.480
1224.000	697.894	79.997	19.995	103.131	20.051	3.159	0.527
1232.000	702.007	80.003	19.993	103.147	20.053	3.010	0.505
1240.000	706.159	79.999	20.002	103.146	20.053	3.026	0.536
1248.000	710.282	79.996	19.997	103.148	20.054	2.900	0.520
1256.000	714.458	80.000	19.994	103.143	20.054	2.922	0.534
1264.001	718.617	80.004	19.996	103.141	20.058	2.634	0.494
1272.000	722.704	80.003	19.991	103.136	20.054	2.906	0.489
1280.000	726.759	79.996	20.002	103.139	20.055	2.823	0.527
1288.000	730.835	80.000	19.992	103.140	20.059	2.539	0.505
1296.000	734.868	79.996	19.999	103.148	20.058	2.636	0.491
1304.000	738.961	80.004	19.994	103.149	20.056	2.786	0.490
1312.000	743.056	79.999	19.986	103.157	20.052	3.080	0.527
1313.501	743.733	80.001	19.992	103.155	20.058	2.605	0.425