Folder: fsri_materials_database/01_Data/Nylon_Carpet_Low_Pile/MCC

Note: 01_Data/README.md
# Materials and Products Database
## 01_Data

Raw data generated from each apparatus are included here in plain-text format. The data is organized first by material, next by the short name of test apparatus used, and where applicable additional filtering by test settings.

### material.json

Each material directory contains a json file of the same name as the material. This file links the data stored in the repository as well as data and graphs produced by the accompanying scripts (__02_Scripts__) to the respective landing page for the material on the front-end website.

File: Nylon_Carpet_Low_Pile_MCC_30K_min_211028_R1.txt
Sample ID:	C:\MCC\MCC Cal\Test\Nylon_Carpet_LowPile_MCC_30K_min_211028_R1.txt
Sample Weight (mg):	4.7
Heating Rate (C/s):	0.5
Combustor Temp (C):	900
N2 Flow Rate (cc/min):	80
O2 Flow Rate (cc/min):	20
Calibration File:	C:\MCC\MCC Cal\Coeff1 JN10440_30_210304.txt.txt
T Correction Coefficients:	0	1.024463	0
Time Shift (s):	14
*
Time (s)	Temperature (C)	N2 flow rate (cc/min)	O2 flow rate (cc/min)	Flow Rate (cc/min)	Oxygen (%)	HRR (W/g)	Heating rate (C/s)
0.000	109.149	79.998	19.995	102.960	20.069	0.102	-0.029
8.000	109.126	80.000	19.994	102.963	20.067	0.213	0.001
16.000	109.092	79.999	19.995	102.962	20.069	0.092	0.007
24.000	109.025	79.997	19.995	102.973	20.069	0.085	0.001
32.000	108.985	79.999	19.994	102.975	20.059	0.739	0.008
40.000	109.289	79.998	19.994	103.221	20.028	2.888	0.093
48.000	110.350	80.002	19.994	103.237	20.016	3.719	0.164
56.000	112.056	79.996	19.995	103.232	20.018	3.564	0.221
64.001	114.230	79.998	19.995	103.232	20.015	3.745	0.281
72.000	116.668	79.997	19.995	103.232	20.016	3.729	0.308
80.000	119.510	79.998	19.996	103.236	20.018	3.549	0.368
88.000	122.511	79.999	19.996	103.239	20.012	4.006	0.396
96.000	125.809	79.998	19.995	103.232	20.013	3.890	0.399
104.000	129.193	79.998	19.994	103.239	20.016	3.723	0.422
112.000	132.846	79.999	19.995	103.239	20.015	3.772	0.513
120.000	136.540	79.998	19.996	103.239	20.017	3.649	0.468
128.000	140.407	79.998	19.996	103.237	20.013	3.923	0.495
136.000	144.289	79.998	19.995	103.235	20.012	3.993	0.489
144.000	148.267	79.997	19.995	103.235	20.014	3.825	0.501
152.000	152.253	79.996	19.995	103.234	20.014	3.838	0.496
160.000	156.269	79.996	19.996	103.228	20.016	3.732	0.542
168.000	160.289	79.998	19.995	103.224	20.018	3.536	0.477
176.000	164.286	79.997	19.996	103.208	20.017	3.606	0.503
184.000	168.314	79.998	19.995	103.193	20.017	3.650	0.497
192.000	172.297	80.000	19.995	103.192	20.017	3.633	0.459
200.000	176.327	79.997	19.996	103.192	20.018	3.563	0.515
208.000	180.254	79.994	19.995	103.194	20.023	3.251	0.501
216.000	184.177	79.996	19.993	103.193	20.025	3.075	0.486
224.000	188.256	79.999	19.995	103.197	20.027	2.917	0.502
232.000	192.202	79.997	19.995	103.197	20.027	2.983	0.503
240.000	196.101	79.996	19.996	103.181	20.024	3.122	0.467
248.000	200.026	80.000	19.996	103.172	20.023	3.195	0.471
256.000	203.900	80.000	19.995	103.180	20.027	2.939	0.487
264.000	207.855	79.999	19.996	103.177	20.028	2.858	0.497
272.000	211.863	79.998	19.996	103.179	20.024	3.150	0.542
280.000	215.796	80.001	19.994	103.163	20.025	3.054	0.494
288.000	219.765	79.998	19.996	103.165	20.024	3.131	0.491
296.000	223.775	79.998	19.996	103.165	20.028	2.883	0.490
304.000	227.758	79.999	19.995	103.158	20.029	2.795	0.505
312.000	231.697	79.998	19.994	103.157	20.029	2.787	0.475
320.000	235.607	79.999	19.995	103.153	20.029	2.783	0.499
328.000	239.433	79.998	19.995	103.156	20.029	2.797	0.454
336.000	243.375	79.999	19.996	103.148	20.028	2.846	0.493
344.000	247.194	80.001	19.994	103.155	20.026	3.021	0.468
352.000	251.223	79.998	19.995	103.152	20.025	3.053	0.508
360.000	255.197	80.000	19.994	103.151	20.027	2.965	0.499
368.000	259.233	79.997	19.996	103.153	20.028	2.878	0.530
376.000	263.306	79.997	19.994	103.155	20.026	3.042	0.526
384.000	267.464	79.999	19.995	103.149	20.027	2.930	0.510
392.000	271.671	79.998	19.995	103.147	20.029	2.790	0.576
400.000	275.803	79.997	19.995	103.139	20.023	3.196	0.512
408.000	279.970	79.999	19.995	103.146	20.030	2.713	0.516
416.000	284.103	79.998	19.996	103.124	20.031	2.698	0.529
424.000	288.180	79.997	19.996	103.128	20.031	2.663	0.491
432.000	292.255	79.997	19.995	103.120	20.026	3.037	0.492
440.000	296.333	80.000	19.996	103.115	20.023	3.215	0.499
448.000	300.388	79.997	19.996	103.115	20.018	3.588	0.509
456.000	304.415	79.998	19.995	103.115	20.009	4.191	0.539
464.000	308.444	79.998	19.995	103.115	20.005	4.472	0.522
472.000	312.505	79.998	19.996	103.107	19.997	5.032	0.516
480.000	316.465	79.997	19.995	103.120	19.986	5.750	0.508
488.000	320.442	79.996	19.995	103.112	19.974	6.590	0.528
496.000	324.308	79.999	19.994	103.112	19.956	7.796	0.486
504.000	328.183	79.998	19.996	103.114	19.938	9.030	0.485
512.000	332.087	79.998	19.995	103.110	19.912	10.833	0.480
520.000	336.114	80.000	19.995	103.112	19.887	12.554	0.485
528.000	339.969	79.997	19.995	103.113	19.850	15.029	0.495
536.000	343.879	79.996	19.996	103.117	19.811	17.747	0.445
544.000	347.838	79.995	19.996	103.116	19.765	20.855	0.481
552.000	351.841	79.997	19.995	103.132	19.708	24.793	0.507
560.000	355.920	79.998	19.994	103.120	19.649	28.840	0.516
568.000	359.923	79.996	19.996	103.122	19.576	33.851	0.493
576.000	363.979	80.000	19.994	103.115	19.484	40.144	0.487
584.000	368.096	79.998	19.996	103.118	19.391	46.503	0.545
592.000	372.059	79.999	19.995	103.119	19.298	52.843	0.508
600.000	376.115	79.999	19.995	103.127	19.190	60.245	0.489
608.000	380.159	79.997	19.995	103.139	19.074	68.198	0.532
616.000	384.165	79.998	19.996	103.145	18.942	77.256	0.497
624.000	388.183	79.997	19.997	103.154	18.796	87.221	0.515
632.000	392.099	79.997	19.997	103.136	18.648	97.348	0.476
640.000	396.103	79.997	19.996	103.136	18.514	106.485	0.502
648.000	400.063	79.998	19.995	103.121	18.422	112.803	0.497
656.000	404.272	80.001	19.994	103.107	18.395	114.562	0.505
664.000	408.530	79.999	19.995	103.075	18.464	109.828	0.562
672.000	412.836	79.998	19.994	103.040	18.652	97.028	0.526
680.000	417.212	79.999	19.994	103.040	18.913	79.158	0.541
688.000	421.602	80.000	19.995	103.042	19.145	63.312	0.524
696.000	425.990	79.998	19.995	103.057	19.296	52.961	0.573
704.000	430.318	79.998	19.995	103.060	19.375	47.532	0.531
712.000	434.618	79.999	19.995	103.059	19.408	45.271	0.516
720.000	438.846	79.998	19.995	103.041	19.424	44.169	0.538
728.000	443.024	79.997	19.996	103.043	19.420	44.472	0.531
736.000	447.162	79.998	19.994	103.040	19.414	44.878	0.509
744.000	451.289	79.999	19.994	103.040	19.401	45.761	0.567
752.000	455.356	79.999	19.994	103.023	19.386	46.792	0.526
760.000	459.446	80.000	19.994	103.013	19.371	47.805	0.518
768.000	463.483	80.002	19.995	102.998	19.363	48.370	0.487
776.000	467.568	79.999	19.995	102.999	19.364	48.283	0.541
784.000	471.552	79.999	19.996	102.986	19.380	47.171	0.501
792.000	475.576	79.999	19.995	102.985	19.424	44.200	0.477
800.000	479.659	79.998	19.995	102.971	19.535	36.568	0.484
808.000	483.633	79.997	19.995	102.963	19.710	24.608	0.493
816.000	487.720	79.999	19.995	103.036	19.885	12.643	0.534
824.000	491.821	79.999	19.995	103.049	19.988	5.621	0.512
832.000	495.958	80.001	19.994	103.069	20.032	2.572	0.543
840.000	500.009	80.001	19.996	103.066	20.045	1.683	0.479
848.000	504.067	80.001	19.995	103.059	20.045	1.717	0.461
856.000	508.183	79.998	19.995	103.076	20.057	0.917	0.558
864.000	512.196	79.998	19.995	103.075	20.059	0.781	0.172
872.000	516.359	79.999	19.995	103.072	20.060	0.700	0.493
880.000	520.484	79.999	19.996	103.077	20.058	0.819	0.493
888.000	524.493	79.998	19.996	103.062	20.063	0.502	0.474
896.000	528.427	80.000	19.995	103.062	20.061	0.626	0.515
904.000	532.377	80.002	19.996	103.064	20.058	0.845	0.521
912.000	536.372	80.000	19.996	103.069	20.063	0.494	0.510
920.000	540.404	80.002	19.995	103.071	20.065	0.368	0.506
928.000	544.418	80.000	19.994	103.075	20.063	0.502	0.513
936.000	548.454	79.999	19.995	103.075	20.065	0.364	0.484
944.000	552.464	79.998	19.995	103.077	20.065	0.375	0.476
952.000	556.523	80.001	19.994	103.071	20.062	0.530	0.532
960.000	560.543	79.998	19.995	103.068	20.065	0.341	0.508
968.000	564.512	79.998	19.997	103.076	20.062	0.540	0.496
976.000	568.489	80.000	19.996	103.068	20.065	0.349	0.492
984.000	572.482	79.999	19.995	103.076	20.063	0.468	0.504
992.000	576.591	79.998	19.997	103.077	20.059	0.742	0.487
1000.000	580.825	80.000	19.995	103.077	20.060	0.708	0.515
1008.000	585.045	79.999	19.996	103.077	20.066	0.304	0.531
1016.000	589.415	79.998	19.995	103.076	20.061	0.642	0.521
1024.000	593.760	79.999	19.995	103.081	20.067	0.242	0.533
1032.001	598.099	79.999	19.995	103.077	20.061	0.594	0.554
1040.000	602.356	79.999	19.994	103.078	20.062	0.549	0.504
1048.000	606.579	79.998	19.995	103.084	20.061	0.621	0.521
1056.000	610.768	80.000	19.995	103.081	20.058	0.836	0.553
1064.000	614.907	79.999	19.995	103.088	20.059	0.774	0.495
1072.000	619.055	79.999	19.994	103.092	20.061	0.602	0.514
1080.000	623.136	80.001	19.996	103.090	20.058	0.859	0.503
1088.000	627.149	80.000	19.997	103.078	20.058	0.849	0.474
1096.000	631.238	79.999	19.996	103.107	20.056	0.961	0.498
1104.000	635.351	80.000	19.995	103.111	20.054	1.123	0.518
1112.000	639.391	79.997	19.995	103.116	20.055	1.027	0.530
1120.000	643.437	79.997	19.996	103.117	20.051	1.297	0.521
1128.000	647.411	79.997	19.996	103.119	20.050	1.389	0.490
1136.000	651.457	79.999	19.995	103.118	20.050	1.388	0.504
1144.000	655.473	79.999	19.995	103.138	20.048	1.514	0.503
1152.001	659.461	79.998	19.996	103.147	20.047	1.554	0.508
1160.000	663.360	80.001	19.995	103.152	20.045	1.722	0.521
1168.000	667.516	80.001	19.995	103.155	20.039	2.144	0.438
1176.000	671.576	79.999	19.997	103.169	20.037	2.288	0.489
1184.000	675.700	79.998	19.995	103.193	20.032	2.577	0.518
1192.000	679.814	79.999	19.994	103.202	20.030	2.737	0.473
1200.000	684.011	79.998	19.996	103.197	20.030	2.717	0.522
1208.001	688.145	79.997	19.995	103.229	20.024	3.139	0.499
1216.000	692.268	80.000	19.995	103.232	20.021	3.340	0.487
1224.000	696.375	79.999	19.995	103.244	20.020	3.442	0.542
1232.000	700.448	79.999	19.995	103.270	20.017	3.639	0.511
1240.000	704.487	80.001	19.995	103.278	20.018	3.578	0.482
1248.000	708.485	80.000	19.995	103.299	20.016	3.701	0.538
1256.000	712.521	79.998	19.996	103.314	20.010	4.096	0.526
1264.001	716.473	79.997	19.996	103.327	20.009	4.206	0.474
1272.000	720.497	79.998	19.997	103.343	20.009	4.200	0.509
1280.001	724.419	79.998	19.995	103.349	20.008	4.282	0.496
1288.000	728.421	79.996	19.995	103.376	20.008	4.274	0.494
1296.000	732.421	79.999	19.995	103.368	20.008	4.243	0.509
1304.000	736.414	79.997	19.995	103.354	20.010	4.108	0.500
1312.000	740.462	79.998	19.996	103.331	20.010	4.138	0.533
1318.000	743.561	80.000	19.995	103.307	20.015	3.772	0.529