Folder: fsri_materials_database/01_Data/PE_Foam_Pipe_Insulation/Cone (part 3)

File: PE_Foam_Pipe_Insulation_Cone_HF50Scan_220316_R2.csv
Names,Time,Stack TC,Smoke TC,Exh Press,Smoke Comp,Smoke Meas,CO Meter,CO2 Meter,O2 Meter,Sample Mass,Ext Coeff,Start Test,Flame Verif
Chan Gain,,500,500,1,1,1,1,1,1,1,1,1.0,1.0
Offset,,0,0,0.136382,0,0,0,0,0,0,0,0.0,0.0
Gain,,1,1,25.011,13.0548,13.4146,1,1,1,1.00087,1.01298,1.0,1.0
Units,sec,C,C,Pa,%,%,%,%,%,g,/m,,
Baseline,,32.4909,33.5211,151.211,98.0725,94.985,0.000197727,0.0439272,21.0274,-833.424,0.28431,,
8,1.75,30.4045,30.9261,146.924,98.3037,94.2297,0.000495442,0.0488534,21.0201,-339.775,0.376093,0.0,0.0
16,3.75,30.5394,31.1361,145.615,98.3228,93.6885,0.000895053,0.049453,21.0145,-339.875,0.429003,0.0,0.0
24,5.75,30.817,31.8491,141.984,98.3136,94.0259,0.00118365,0.0673725,20.9851,-339.715,0.396239,0.0,1.0
32,7.75,31.1849,32.5693,146.706,98.3144,94.9871,0.00117256,0.0829657,20.9658,-339.885,0.305933,0.0,1.0
40,9.75,31.101,32.2674,147.18,98.328,94.2961,0.00102743,0.0886615,20.9574,-339.915,0.372039,0.0,1.0
48,11.75,31.7725,32.5587,151.17,98.3435,94.3059,0.00100543,0.0934746,20.9498,-339.945,0.372517,0.0,0.0
56,13.75,31.7911,32.8818,146.236,98.3351,93.3287,0.00121613,0.0992675,20.9405,-339.965,0.464314,0.0,0.0
64,15.75,32.0848,33.1287,143.911,98.3447,91.3158,0.00162707,0.107274,20.9218,-339.995,0.658925,0.0,0.0
72,17.75,32.3291,33.6228,147.753,98.3407,89.2058,0.00219615,0.120617,20.8949,-340.085,0.866289,0.0,0.0
80,19.75,32.9862,34.197,148.397,98.3558,87.7095,0.00300226,0.138494,20.8603,-340.135,1.01797,0.0,0.0
88,21.75,33.8876,34.0974,144.187,98.3539,81.7137,0.00411115,0.163003,20.8096,-340.205,1.64697,0.0,0.0
96,23.75,33.8584,35.6876,131.479,98.3582,75.0736,0.00544324,0.204867,20.7417,-340.366,2.40047,0.0,0.0
104,25.75,35.2644,36.4888,132.94,98.3825,75.5738,0.00713372,0.268876,20.6387,-340.556,2.34365,0.0,0.0
112,27.75,37.7585,38.5659,127.97,98.3738,74.9413,0.00899112,0.342569,20.4879,-340.746,2.41754,0.0,0.0
120,29.75,39.858,40.8842,124.641,98.375,70.4164,0.0110574,0.428694,20.3197,-340.906,2.97104,0.0,0.0
128,31.75,41.8771,43.0917,127.089,98.3933,68.7838,0.0131171,0.501898,20.1978,-341.086,3.18114,0.0,0.0
136,33.75,44.3978,45.8695,124.393,98.3869,71.0678,0.0147508,0.563109,20.0977,-341.366,2.8903,0.0,0.0
144,35.75,46.1399,49.1696,119.935,98.4136,69.8122,0.0157758,0.614287,20.0098,-341.506,3.05111,0.0,0.0
152,37.75,48.9711,51.5978,116.063,98.424,66.1024,0.0163719,0.650238,19.9512,-341.717,3.53724,0.0,0.0
160,39.75,51.4225,53.5301,117.992,98.4435,69.1621,0.0167767,0.68022,19.9022,-341.937,3.13694,0.0,0.0
168,41.75,53.9447,56.3207,115.427,98.4447,70.2076,0.0169039,0.70394,19.8692,-342.167,3.00372,0.0,0.0
176,43.75,56.2942,58.6851,121.52,98.4531,71.3773,0.0167214,0.715423,19.8642,-342.357,2.85766,0.0,0.0
184,45.75,58.0886,61.1626,119.475,98.4694,74.5107,0.0163626,0.705166,19.8919,-342.547,2.47738,0.0,0.0
192,47.75,59.7981,62.9553,120.618,98.4905,72.397,0.0159889,0.677707,19.9283,-342.698,2.73499,0.0,0.0
200,49.75,61.2432,64.6691,123.584,98.5216,72.3184,0.0154549,0.653006,19.9726,-342.938,2.74745,0.0,0.0
208,51.75,62.5603,66.7201,119.601,98.52,73.9101,0.0150187,0.641715,19.9885,-343.058,2.55385,0.0,0.0
216,53.75,64.4275,67.6729,113.318,98.5295,73.3411,0.0150029,0.644999,19.9853,-343.268,2.62339,0.0,0.0
224,55.75,65.563,69.3914,119.801,98.5471,73.9076,0.0152466,0.662064,19.949,-343.478,2.55659,0.0,0.0
232,57.75,67.261,71.5033,117.854,98.5805,72.4154,0.0154127,0.698902,19.8878,-343.698,2.74085,0.0,0.0
240,59.75,69.2712,73.5903,119.111,98.5897,73.2964,0.0150638,0.724223,19.8667,-343.899,2.63423,0.0,0.0
248,61.75,70.3172,75.353,122.816,98.5917,74.4939,0.0138901,0.705598,19.9138,-344.059,2.49041,0.0,0.0
256,63.75,70.9422,76.0835,129.334,98.5961,76.1461,0.0118807,0.6385,20.0453,-344.199,2.29588,0.0,0.0
264,65.75,70.6979,75.873,136.303,98.6037,78.5705,0.00975029,0.539309,20.2409,-344.209,2.01806,0.0,0.0
272,67.75,69.8815,74.9965,141.897,98.6192,81.0825,0.00761213,0.444341,20.4089,-344.369,1.73982,0.0,0.0
280,69.75,69.5702,74.9743,140.522,98.6196,85.6049,0.00573516,0.357108,20.5427,-344.349,1.25758,0.0,0.0
288,71.75,68.136,73.2386,142.614,98.6339,88.9454,0.0043125,0.282112,20.6581,-344.359,0.918717,0.0,0.0
296,73.75,67.0286,72.2508,145.957,98.6359,92.8644,0.00310984,0.222939,20.7527,-344.459,0.535764,0.0,0.0
304,75.75,64.6005,69.664,147.173,98.6419,95.0047,0.00218971,0.16911,20.8444,-344.399,0.333837,0.0,0.0
312,77.75,63.1889,68.1605,150.86,98.6407,94.0697,0.00149847,0.124916,20.9179,-344.399,0.421615,0.0,0.0
320,79.75,62.1756,67.3451,152.157,98.6491,94.7734,0.00102742,0.093911,20.9646,-344.369,0.356142,0.0,0.0
328,81.75,59.9186,65.9735,147.84,98.6519,94.6989,0.000680662,0.0745921,20.9905,-344.379,0.363382,0.0,0.0
336,83.75,59.1246,64.8787,151.274,98.6519,95.227,0.000434024,0.063263,21.005,-344.379,0.313966,0.0,0.0
344,85.75,58.6032,63.1687,147.934,98.6805,94.8258,0.000272625,0.0565171,21.0142,-344.379,0.354065,0.0,0.0
352,87.75,57.3781,62.739,150.201,98.6634,95.6208,0.000177592,0.0521282,21.02,-344.369,0.278335,0.0,0.0
360,89.75,55.9353,61.1585,149.096,98.669,95.2024,0.000172957,0.0491625,21.023,-344.399,0.317802,0.0,0.0
368,91.75,55.1986,59.9337,155.059,98.6782,94.92,0.000222108,0.0472933,21.0251,-344.379,0.34503,0.0,0.0
376,93.75,54.1739,59.2174,150.132,98.6821,95.6749,0.000182063,0.0458373,21.026,-344.409,0.275001,0.0,0.0
384,95.75,53.1577,58.1036,146.637,98.6738,94.9187,3.7113e-05,0.0447436,21.0275,-344.399,0.34475,0.0,0.0
392,97.75,52.1668,56.7913,151.045,98.6698,95.0141,-0.00011633,0.0439666,21.0286,-344.389,0.335468,0.0,0.0
400,99.75,51.4852,56.1895,151.967,98.6766,95.3306,-0.000180706,0.0433996,21.029,-344.389,0.306532,0.0,0.0
408,101.75,51.1048,55.237,149.601,98.6782,95.0616,-0.000144467,0.0429256,21.0299,-344.399,0.331781,0.0,0.0
416,103.75,50.1947,54.4249,150.202,98.6718,95.2847,-8.02484e-05,0.0425898,21.0308,-344.379,0.310376,0.0,0.0
424,105.75,48.6594,53.4497,149.237,98.6778,94.4885,-6.34468e-06,0.0423171,21.0313,-344.399,0.38548,0.0,0.0
432,107.75,48.2818,53.0245,149.684,98.6694,94.4688,0.000107942,0.0420421,21.0315,-344.409,0.386574,0.0,0.0
440,109.75,47.0726,52.3814,148.443,98.6662,95.1709,0.000233437,0.0419007,21.0334,-344.399,0.320494,0.0,0.0
448,111.75,47.2426,51.7302,151.396,98.6654,95.2434,0.000247826,0.0418381,21.0343,-344.379,0.313659,0.0,0.0
456,113.75,46.7342,50.9604,150.649,98.6606,94.8512,0.000153783,0.041725,21.0346,-344.389,0.349892,0.0,0.0
464,115.75,46.046,50.1072,149.916,98.6483,95.3039,-2.97389e-05,0.0415829,21.0338,-344.399,0.306465,0.0,0.0
472,117.75,45.6991,49.677,148.291,98.6519,94.8082,-0.00018512,0.0415782,21.0335,-344.379,0.353131,0.0,0.0
480,119.75,45.293,48.8801,150.022,98.6359,95.6798,-0.000244691,0.041477,21.0342,-344.389,0.270382,0.0,0.0
488,121.75,44.6669,48.3104,148.476,98.6415,94.8446,-0.000218894,0.0414246,21.0355,-344.399,0.348784,0.0,0.0
496,123.75,44.3806,48.1685,150.961,98.6224,94.7206,-9.70186e-05,0.0412887,21.0364,-344.409,0.35869,0.0,0.0
504,125.75,43.8944,47.5919,148.172,98.6367,95.2311,2.65558e-05,0.0412769,21.0367,-344.429,0.312221,0.0,0.0
512,127.75,43.4424,46.4322,146.779,98.618,94.9973,5.36356e-05,0.0412717,21.0369,-344.399,0.332373,0.0,0.0
520,129.75,43.168,46.5609,149.5,98.6116,95.5631,1.71013e-05,0.0412199,21.0369,-344.409,0.279035,0.0,0.0
528,131.75,42.0814,46.2245,149.549,98.6017,95.044,3.4172e-05,0.0410796,21.037,-344.409,0.326536,0.0,0.0
536,133.75,41.8533,45.8027,148.707,98.6017,95.1906,0.000113912,0.0410275,21.037,-344.389,0.312845,0.0,0.0
544,135.75,41.5068,44.8601,151.221,98.5829,95.0473,0.000203421,0.0409874,21.037,-344.389,0.324542,0.0,0.0
552,137.75,41.6659,44.671,148.009,98.5698,94.4786,0.000235198,0.0409672,21.0359,-344.389,0.376677,0.0,0.0
560,139.75,40.999,44.1873,146.531,98.5686,95.3559,0.000190797,0.0408795,21.0352,-344.379,0.294439,0.0,0.0
568,141.75,40.8004,44.2175,147.25,98.5582,95.1983,0.000204603,0.0409901,21.0349,-344.389,0.308204,0.0,0.0
576,143.75,40.0653,42.9533,152.286,98.5403,95.0546,0.000163326,0.0409537,21.0348,-344.379,0.32001,0.0,0.0
584,145.75,39.6963,43.1655,150.368,98.5459,95.3862,-2.26389e-05,0.0408927,21.0347,-344.389,0.289569,0.0,0.0
592,147.75,39.452,42.7366,147.627,98.5164,95.2806,-8.50154e-05,0.0408876,21.0347,-344.409,0.296754,0.0,0.0
600,149.75,39.767,42.3101,146.611,98.514,94.7975,-5.7254e-06,0.0408451,21.0347,-344.379,0.341704,0.0,0.0
608,151.75,39.6954,42.4706,147.394,98.4953,94.7386,3.54903e-05,0.040757,21.0344,-344.379,0.345542,0.0,0.0
616,153.75,39.1909,42.2186,149.775,98.4949,94.9261,-8.01763e-05,0.0408271,21.0341,-344.379,0.327938,0.0,0.0
624,155.75,39.7256,41.7663,150.326,98.477,94.6887,-0.000116469,0.0408909,21.0339,-344.389,0.348575,0.0,0.0
632,157.75,39.2318,41.8371,149.971,98.4742,95.2077,-8.36476e-05,0.04083,21.0339,-344.399,0.299743,0.0,0.0
640,159.75,39.0793,41.7994,151.207,98.4598,95.1218,-4.18712e-05,0.0408841,21.0338,-344.379,0.306477,0.0,0.0
648,161.75,38.6935,41.2717,150.063,98.4455,94.6002,7.61263e-05,0.0409573,21.0338,-344.379,0.354036,0.0,0.0
656,163.75,38.4633,40.8397,152.221,98.4367,95.3367,0.000194839,0.0408922,21.0341,-344.389,0.284336,0.0,0.0
664,165.75,37.839,40.4917,143.728,98.4252,94.845,0.00026941,0.0406909,21.0354,-344.369,0.329237,0.0,0.0
672,167.75,38.1045,40.3863,149.5,98.4176,94.7226,0.000254686,0.0407372,21.0359,-344.379,0.340028,0.0,0.0
680,169.75,38.121,40.239,147.328,98.3961,94.7832,0.000213795,0.0408281,21.0348,-344.359,0.332404,0.0,0.0
688,171.75,37.3704,40.0827,145.994,98.3782,94.8045,0.000170087,0.0408155,21.0344,-344.379,0.328789,0.0,0.0
696,173.75,37.0574,40.247,150.698,98.363,94.2383,7.86968e-05,0.0408601,21.0342,-344.409,0.380647,0.0,0.0
704,175.75,37.2981,39.9986,148.396,98.3562,95.313,9.76437e-06,0.0410097,21.0341,-344.409,0.279282,0.0,0.0
712,177.75,36.9975,39.9608,150.139,98.3307,95.7706,4.91366e-05,0.0410411,21.0349,-344.389,0.234411,0.0,0.0
720,179.75,37.0141,39.4396,148.581,98.3148,94.4271,0.000201793,0.0414762,21.0342,-344.399,0.358514,0.0,0.0
728,181.75,37.3289,39.4066,149.983,98.3104,94.9814,0.00028629,0.0426752,21.0328,-344.389,0.306109,0.0,0.0
736,183.75,36.6123,39.4784,149.79,98.308,94.8655,0.000342882,0.0442646,21.0312,-344.419,0.316739,0.0,0.0
744,185.75,37.0891,38.8139,147.201,98.2889,95.2159,,0.0453657,,-344.409,0.282246,0.0,0.0
752,187.75,36.6625,38.7012,151.536,98.2746,95.3699,,,,-344.409,0.266597,0.0,0.0
760,189.75,36.3043,38.5733,149.345,98.2519,95.4968,,,,-344.419,0.252726,0.0,0.0
768,191.75,36.4847,38.631,148.335,98.2395,95.2823,,,,-344.419,0.271592,0.0,0.0
776,193.75,36.8066,38.435,151.661,98.2248,95.7051,,,,-344.419,0.230908,0.0,0.0
780,194.75,36.7001,38.5747,149.986,98.2228,94.5671,,,,-344.439,0.337027,0.0,0.0

File: PE_Foam_Pipe_Insulation_Cone_HF50Scan_220316_R3.csv
Names,Time,Stack TC,Smoke TC,Exh Press,Smoke Comp,Smoke Meas,CO Meter,CO2 Meter,O2 Meter,Sample Mass,Ext Coeff,Start Test,Flame Verif
Chan Gain,,500,500,1,1,1,1,1,1,1,1,1.0,1.0
Offset,,0,0,0.135167,0,0,0,0,0,0,0,0.0,0.0
Gain,,1,1,25.011,13.0486,13.2841,1,1,1,1.00089,1.0079,1.0,1.0
Units,sec,C,C,Pa,%,%,%,%,%,g,/m,,
Baseline,,33.6446,34.1774,156.623,98.4939,94.9105,0.000439878,0.0569577,21.005,-493.099,0.327736,,
8,1.75,31.7409,32.1884,163.82,97.566,92.477,0.000792826,0.0646692,20.9888,0.860767,0.473616,0.0,0.0
16,3.75,31.338,31.6009,154.836,97.5353,93.0203,0.00139396,0.0734882,20.9667,0.83074,0.419054,0.0,1.0
24,5.75,31.9123,32.1946,146.757,97.5246,92.3408,0.00175327,0.101762,20.9178,0.730651,0.482895,0.0,1.0
32,7.75,32.3044,32.507,156.004,97.5122,92.9067,0.00187416,0.126053,20.8921,0.750669,0.427755,0.0,1.0
40,9.75,32.4061,33.1574,151.608,97.4824,90.9341,0.00201613,0.134219,20.8779,0.690615,0.614794,0.0,0.0
48,11.75,32.4858,33.2356,150.183,97.4669,88.1753,0.00235688,0.142171,20.8612,0.690615,0.885764,0.0,0.0
56,13.75,33.1601,33.6442,145.753,97.4442,86.9089,0.0029505,0.156555,20.8386,0.600535,1.01161,0.0,0.0
64,15.75,33.6507,34.4475,143.166,97.4346,79.565,0.00409306,0.183723,20.7981,0.500446,1.7913,0.0,0.0
72,17.75,35.0529,35.5944,137.75,97.4143,74.8774,0.00679887,0.235237,20.7059,0.210187,2.32632,0.0,0.0
80,19.75,36.3447,37.0559,129.957,97.4035,72.1186,0.00987247,0.336645,20.5024,0.0100089,2.65724,0.0,0.0
88,21.75,38.277,38.6112,126.327,97.4059,71.1611,0.0124681,0.440366,20.3153,-0.140125,2.77563,0.0,0.0
96,23.75,41.105,41.9562,119.503,97.3936,66.9948,0.0145412,0.521448,20.1835,-0.350312,3.30792,0.0,0.0
104,25.75,42.988,44.5831,127.812,97.3892,68.5994,0.0160198,0.592843,20.0495,-0.570508,3.09826,0.0,0.0
112,27.75,45.7584,46.7783,119.251,97.3844,66.6401,0.0170763,0.669696,19.8965,-0.760678,3.35402,0.0,0.0
120,29.75,49.1041,50.7439,121.81,97.3705,67.0207,0.0178579,0.750355,19.7703,-0.990883,3.3024,0.0,0.0
128,31.75,51.7348,53.8468,117.638,97.3661,70.4508,0.0184579,0.831267,19.6469,-1.25111,2.86071,0.0,0.0
136,33.75,55.6562,58.1568,114.16,97.3609,69.9283,0.0186631,0.88725,19.5556,-1.54137,2.92606,0.0,0.0
144,35.75,58.4806,61.5572,119.565,97.3617,71.3861,0.0186933,0.914817,19.5153,-1.78159,2.74371,0.0,0.0
152,37.75,61.4302,65.0351,120.131,97.349,69.3919,0.0187286,0.9276,19.494,-2.05183,2.99305,0.0,0.0
160,39.75,64.1962,68.4307,118.177,97.3502,70.6953,0.0188441,0.949677,19.466,-2.34209,2.82864,0.0,0.0
168,41.75,67.2212,71.4137,111.753,97.3458,69.2687,0.0190079,0.973087,19.4247,-2.57229,3.00848,0.0,0.0
176,43.75,70.1011,74.7293,115.692,97.3518,71.1104,0.0191692,0.993674,19.394,-2.82252,2.77702,0.0,0.0
184,45.75,72.5308,77.5884,105.501,97.3331,69.3429,0.0191794,1.0133,19.3707,-3.11277,2.99785,0.0,0.0
192,47.75,75.0692,80.5968,117.76,97.3331,68.8426,0.0188094,1.02867,19.3625,-3.34298,3.06187,0.0,0.0
200,49.75,77.4575,84.1533,119.239,97.3271,69.0331,0.0182211,1.00267,19.4005,-3.54316,3.03689,0.0,0.0
208,51.75,79.5254,85.8198,119.546,97.3279,69.7815,0.0172767,0.941856,19.4933,-3.75334,2.94163,0.0,0.0
216,53.75,80.4751,87.4832,128.142,97.3315,71.9816,0.0159317,0.849975,19.6674,-3.89347,2.66751,0.0,0.0
224,55.75,80.9366,88.0176,129.379,97.3259,71.9476,0.0143092,0.752948,19.8493,-4.07363,2.67119,0.0,0.0
232,57.75,81.2391,88.46,128.464,97.3271,76.0064,0.0121994,0.661228,19.9894,-4.21376,2.18609,0.0,0.0
240,59.75,80.4449,87.9483,147.546,97.3271,88.9103,0.0095265,0.557917,20.1894,-4.21376,0.799684,0.0,0.0
248,61.75,78.5604,86.5137,155.14,97.3191,92.6639,0.00712702,0.401243,20.433,-4.17372,0.433367,0.0,0.0
256,63.75,76.7756,84.1806,152.811,97.3235,93.4561,0.00481177,0.271725,20.6419,-4.21376,0.358504,0.0,0.0
264,65.75,74.6368,82.3168,154.66,97.3159,93.4934,0.00312928,0.182821,20.7824,-4.17372,0.354289,0.0,0.0
272,67.75,73.5663,80.0469,155.837,97.3203,93.4573,0.0021767,0.131564,20.8771,-4.20375,0.3581,0.0,0.0
280,69.75,71.1919,78.2484,155.279,97.3123,92.5901,0.00159999,0.101925,20.9319,-4.18373,0.439794,0.0,0.0
288,71.75,69.3862,76.2991,154.275,97.3131,93.1994,0.00116603,0.0848078,20.961,-4.21376,0.381874,0.0,0.0
296,73.75,68.1303,74.7901,154.546,97.3064,93.3612,0.000826789,0.0751927,20.9758,-4.19374,0.365928,0.0,0.0
304,75.75,66.5617,72.9028,157.639,97.2996,93.3519,0.00059603,0.0699555,20.9852,-4.16371,0.366196,0.0,0.0
312,77.75,64.9587,71.269,155.484,97.3032,93.2315,0.000527535,0.0661352,20.9915,-4.19374,0.377932,0.0,0.0
320,79.75,63.9407,69.9352,155.784,97.2944,93.1171,0.000491642,0.0637554,20.9944,-4.21376,0.387985,0.0,0.0
328,81.75,62.473,68.6733,154.809,97.3036,93.7411,0.000468327,0.0620174,20.9965,-4.21376,0.329775,0.0,0.0
336,83.75,60.8662,67.1468,157.009,97.3012,93.6243,0.000424492,0.0608534,20.9979,-4.21376,0.340576,0.0,0.0
344,85.75,59.9438,66.1131,153.579,97.296,93.0523,0.000360996,0.0601487,20.9988,-4.18373,0.39429,0.0,0.0
352,87.75,58.928,64.4211,153.328,97.2936,93.2384,0.000341293,0.0595856,21,-4.17372,0.37641,0.0,0.0
360,89.75,57.4781,63.099,154.964,97.2857,94.1197,0.000399779,0.0589786,21.0012,-4.19374,0.292507,0.0,0.0
368,91.75,56.5029,62.2859,153.114,97.292,92.6805,0.000394869,0.0584529,21.0017,-4.21376,0.42932,0.0,0.0
376,93.75,56.1885,61.2847,157.077,97.2956,93.4626,0.000334599,0.0581402,21.0019,-4.23377,0.355358,0.0,0.0
384,95.75,54.4754,60.1737,154.076,97.2932,94.1696,0.000298051,0.0579316,21.0028,-4.20375,0.288511,0.0,0.0
392,97.75,53.9543,59.3028,154.633,97.2952,93.0097,0.000321408,0.057648,21.0037,-4.22376,0.398262,0.0,0.0
400,99.75,53.0241,57.8038,152.266,97.2968,93.3434,0.000303785,0.0574166,21.0041,-4.22376,0.366749,0.0,0.0
408,101.75,51.9857,57.0265,155.214,97.2896,93.3162,0.000240403,0.057284,21.0043,-4.20375,0.368671,0.0,0.0
416,103.75,51.6345,56.3443,156.042,97.2912,93.9357,0.000205087,0.0570754,21.0044,-4.18373,0.310319,0.0,0.0
424,105.75,50.8309,55.3484,152.855,97.3024,93.5911,0.000218915,0.0568958,21.005,-4.22376,0.343825,0.0,0.0
432,107.75,49.9327,54.7252,153.962,97.2956,93.2939,0.000230422,0.0567476,21.006,-4.21376,0.371326,0.0,0.0
440,109.75,49.1488,53.7017,152.805,97.3092,93.2647,0.000242543,0.0565975,21.0064,-4.25379,0.375322,0.0,0.0
448,111.75,48.4618,53.3442,158.033,97.3008,92.7839,0.000319535,0.0565774,21.0066,-4.22376,0.42026,0.0,0.0
456,113.75,48.4404,52.1734,151.359,97.2992,93.9563,0.000435873,0.0563672,21.0062,-4.19374,0.309096,0.0,0.0
464,115.75,47.6559,51.5059,156.654,97.3032,92.9984,0.000499794,0.0562876,21.0063,-4.22376,0.400066,0.0,0.0
472,117.75,47.0816,51.0527,154.491,97.3072,93.3332,0.000527111,0.056306,21.0056,-4.21376,0.36865,0.0,0.0
480,119.75,46.4239,50.5815,156.726,97.308,92.7426,0.000529575,0.0562614,21.0063,-4.20375,0.424853,0.0,0.0
488,121.75,45.7425,49.9183,155.57,97.306,93.1321,0.000468689,0.0563549,21.0065,-4.20375,0.387609,0.0,0.0
496,123.75,45.4294,49.442,157.396,97.3052,94.0646,0.000399915,0.056376,21.0067,-4.23377,0.29946,0.0,0.0
504,125.75,44.7167,48.7714,156.67,97.3084,93.2149,0.000412028,0.0563488,21.0067,-4.20375,0.379979,0.0,0.0
512,127.75,44.9622,48.2913,157.444,97.3108,93.4017,0.000406417,0.0561799,21.0067,-4.23377,0.362488,0.0,0.0
520,129.75,44.3239,47.8352,154.413,97.3143,93.8919,0.000339678,0.0562178,21.0056,-4.21376,0.31654,0.0,0.0
528,131.75,43.4801,47.2719,158.568,97.3135,93.5286,0.000290564,0.0563318,21.0048,-4.20375,0.350737,0.0,0.0
536,133.75,43.2234,46.431,155.828,97.3048,93.6977,0.000216209,0.0563955,21.0042,-4.20375,0.333975,0.0,0.0
544,135.75,42.9,46.5601,153.81,97.3088,93.688,0.000149094,0.0564278,21.004,-4.21376,0.335256,0.0,0.0
552,137.75,43.0018,45.7,151.515,97.3064,93.2051,9.25229e-05,0.0564283,21.0041,-4.23377,0.380721,0.0,0.0
560,139.75,42.3383,45.7882,159.007,97.3263,92.8565,3.38893e-05,0.0563996,21.0044,-4.24378,0.415664,0.0,0.0
568,141.75,42.358,45.1257,150.667,97.3147,93.6981,-3.46277e-06,0.056468,21.0045,-4.25379,0.334842,0.0,0.0
576,143.75,41.092,44.3747,154.728,97.3123,94.2239,4.77085e-05,0.0565205,21.0046,-4.21376,0.285149,0.0,0.0
584,145.75,41.175,44.4011,153.647,97.312,93.4828,0.00015179,0.056518,21.0046,-4.22376,0.354925,0.0,0.0
592,147.75,41.3502,43.9895,153.961,97.3024,93.3276,0.000237593,0.0565209,21.0044,-4.2638,0.368753,0.0,0.0
600,149.75,40.487,43.3257,153.764,97.3143,93.7334,0.000280972,0.0563897,21.0041,-4.22376,0.331478,0.0,0.0
608,151.75,40.5178,43.1172,156.221,97.3139,93.1301,0.000286089,0.0563125,21.0039,-4.23377,0.388525,0.0,0.0
616,153.75,40.4218,42.754,153.729,97.3088,93.8011,0.000300708,0.0561985,21.0038,-4.23377,0.324588,0.0,0.0
624,155.75,40.6162,42.4681,151.595,97.3064,93.6284,0.000324464,0.0561139,21.0033,-4.25379,0.340665,0.0,0.0
632,157.75,39.8266,42.5494,153.058,97.3155,92.2569,0.000264809,0.0561737,21.003,-4.25379,0.471961,0.0,0.0
640,159.75,39.7829,41.993,155.153,97.3048,93.2939,0.000186082,0.0561302,21.0028,-4.28382,0.372158,0.0,0.0
648,161.75,39.1846,41.6783,155.716,97.3036,94.1992,0.000172796,0.0560198,21.0041,-4.28382,0.286673,0.0,0.0
656,163.75,39.0746,41.0579,160.008,97.308,93.4411,0.000108472,0.0560493,21.0047,-4.23377,0.358513,0.0,0.0
664,165.75,38.9513,41.2672,157.011,97.308,93.33,-1.82926e-05,0.0559798,21.0049,-4.22376,0.36903,0.0,0.0
672,167.75,39.1302,40.8043,155.148,97.3044,92.6899,-0.000104543,0.0558715,21.005,-4.25379,0.429552,0.0,0.0
680,169.75,38.6445,40.8523,155.505,97.3052,93.8238,,0.05584,,-4.24378,0.322123,0.0,0.0
688,171.75,38.5196,40.4805,161.045,97.3012,93.5331,,0.0558169,,-4.22376,0.349194,0.0,0.0
696,173.75,38.5077,40.0175,151.514,97.3167,93.4548,,,,-4.21376,0.358004,0.0,0.0
704,175.75,37.5991,39.6387,152.794,97.3044,93.5663,,,,-4.24378,0.346342,0.0,0.0
712,177.75,37.9457,40.0262,152.198,97.3028,92.8674,,,,-4.23377,0.412486,0.0,0.0
720,179.75,37.9106,39.7534,155.33,97.3024,94.0216,,,,-4.23377,0.303247,0.0,0.0
723,180.5,37.7859,39.9448,151.015,97.3048,93.4573,,,,-4.24378,0.356688,0.0,0.0

File: PE_Foam_Pipe_Insulation_Cone_HF75Scalar_220316_R1.csv
LABORATORY,FSRI
TEST IDENT,PE_FPI_HF75_1
OPERATOR,Dow
MATERIAL,PE Foam Pipe Insulation
ORIENTATION,Horizontal
HEAT FLUX,75
SURF AREA,0.01
C FACTOR,0.0391476
SPEC HOLDER DIFF,-566
SPECIMEN MASS,5.17
SCAN TIME,0.25
O2 DELAY TIME,11
CO DELAY TIME,11
CO2 DELAY TIME,8
FLOW FACTOR,1
SCAN COUNT,670
TIME TO IGN,1.25
END OF TEST SCAN,190
END OF TEST TIME,47.5
TEST STATUS,1
PRE TEST CMT,Dimensions: 100.78 x 101.00 x 11.30 mm
POST TEST CMT,"Immediately after ignition the sample corners rose and curled towards the center. Then the sample melted and spread out, with flames filling the entire foil pan. "

File: PE_Foam_Pipe_Insulation_Cone_HF75Scalar_220316_R2.csv
LABORATORY,FSRI
TEST IDENT,PE_FPI_HF75_2
OPERATOR,Dow
MATERIAL,PE Foam Pipe Insulation
ORIENTATION,Horizontal
HEAT FLUX,75
SURF AREA,0.01
C FACTOR,0.0391476
SPEC HOLDER DIFF,-566
SPECIMEN MASS,4.79
SCAN TIME,0.25
O2 DELAY TIME,11
CO DELAY TIME,11
CO2 DELAY TIME,8
FLOW FACTOR,1
SCAN COUNT,665
TIME TO IGN,2
END OF TEST SCAN,185
END OF TEST TIME,46.25
TEST STATUS,1
PRE TEST CMT,Dimensions: 100.75 x 99.41 x 10.08 mm
POST TEST CMT,"Immediately after ignition the sample corners rose and curled towards the center. Then the sample melted and spread out, with flames filling the entire foil pan. "

File: PE_Foam_Pipe_Insulation_Cone_HF75Scalar_220316_R3.csv
LABORATORY,FSRI
TEST IDENT,PE_FPI_HF75_3
OPERATOR,Dow
MATERIAL,PE Foam Pipe Insulation
ORIENTATION,Horizontal
HEAT FLUX,75
SURF AREA,0.01
C FACTOR,0.0391476
SPEC HOLDER DIFF,-566
SPECIMEN MASS,5.3
SCAN TIME,0.25
O2 DELAY TIME,11
CO DELAY TIME,11
CO2 DELAY TIME,8
FLOW FACTOR,1
SCAN COUNT,663
TIME TO IGN,1.25
END OF TEST SCAN,183
END OF TEST TIME,45.75
TEST STATUS,1
PRE TEST CMT,Dimensions: 100.83 x 100.89 x 10.89 mm
POST TEST CMT,"Immediately after ignition the sample corners rose and curled towards the center. Then the sample melted and spread out, with flames filling the entire foil pan. "