Folder: fsri_materials_database/01_Data/PE_Foam_Pipe_Insulation/Cone (part 2)

File: PE_Foam_Pipe_Insulation_Cone_HF25Scan_220316_R3.csv
Names,Time,Stack TC,Smoke TC,Exh Press,Smoke Comp,Smoke Meas,CO Meter,CO2 Meter,O2 Meter,Sample Mass,Ext Coeff,Start Test,Flame Verif
Chan Gain,,500,500,1,1,1,1,1,1,1,1,1.0,1.0
Offset,,0,0,0.136382,0,0,0,0,0,0,0,0.0,0.0
Gain,,1,1,25.011,13.0548,13.4146,1,1,1,1.00087,1.01298,1.0,1.0
Units,sec,C,C,Pa,%,%,%,%,%,g,/m,,
Baseline,,19.7104,20.0484,157.777,98.4488,97.3684,0.000179045,0.0419453,21.0357,-832.983,0.098103,,
11,2.5,18.1165,18.8064,154.798,99.0937,97.4552,0.000412068,0.0471141,21.0299,-336.722,0.148147,0.0,0.0
22,5.25,18.8212,18.9139,156.337,99.1275,97.1769,0.000140435,0.0463494,21.0317,-336.722,0.176601,0.0,0.0
33,8,18.4628,19.0734,159.646,99.1327,97.4651,0.000146333,0.0461506,21.0322,-336.742,0.150752,0.0,0.0
44,10.75,18.5946,19.1368,155.307,99.1208,96.9427,0.000398912,0.0462617,21.0308,-336.782,0.197432,0.0,0.0
55,13.5,18.3979,18.7959,159.565,99.1128,96.8326,0.000603214,0.0457833,21.0288,-336.832,0.206817,0.0,0.0
66,16.25,18.9854,19.5959,153.917,99.1299,97.2645,0.000641924,0.0449254,21.0298,-339.044,0.168809,0.0,0.0
77,19,18.1318,19.2181,159.249,99.1192,97.3721,0.000669748,0.0443081,21.0317,-339.485,0.158013,0.0,0.0
88,21.75,18.837,19.6008,158.053,99.1188,96.7638,0.000802145,0.0438772,21.0323,-339.585,0.213667,0.0,0.0
99,24.5,18.107,19.5181,153.945,99.1092,96.8788,0.000812986,0.043742,21.0309,-338.704,0.202252,0.0,0.0
110,27.25,19.0387,19.4274,157.471,99.0841,96.8387,0.000789505,0.044043,21.0289,-337.863,0.203682,0.0,0.0
121,30,18.8412,19.4516,158.364,99.0933,97.2166,0.000930519,0.0441983,21.0284,-337.363,0.169898,0.0,0.0
132,32.75,18.7436,19.3966,156.224,99.0901,96.9022,0.000842034,0.0441265,21.029,-337.023,0.198398,0.0,0.0
143,35.5,19.032,19.401,158.271,99.077,97.1376,0.000748846,0.0444052,21.0293,-336.882,0.175659,0.0,0.0
154,38.25,18.8922,19.4556,157.942,99.0666,96.9009,0.00075655,0.0448607,21.0279,-336.842,0.196402,0.0,0.0
165,41,18.9349,19.5818,158.661,99.0499,97.1343,0.000703159,0.0497925,21.0177,-336.872,0.173529,0.0,1.0
176,43.75,19.2746,19.0863,154.948,99.0578,96.1792,0.000730645,0.064735,20.9884,-336.892,0.262046,0.0,1.0
187,46.5,19.5683,19.9583,150.086,99.0554,95.8845,0.000882391,0.0864347,20.9526,-336.923,0.289106,0.0,0.0
198,49.25,19.8212,20.0002,156.017,99.0367,95.8693,0.000984931,0.101978,20.9371,-336.973,0.288829,0.0,0.0
209,52,20.3381,20.3214,154.708,99.0216,95.7944,0.00105812,0.108817,20.9313,-336.973,0.294417,0.0,0.0
220,54.75,20.4096,20.5264,147.485,99.0164,95.3715,0.00116362,0.111881,20.9254,-337.043,0.333266,0.0,0.0
231,57.5,21.2115,21.7873,149.703,99.02,93.8281,0.00127832,0.12242,20.9018,-337.133,0.47856,0.0,0.0
242,60.25,21.8467,22.042,147.483,99.0056,87.9658,0.00218922,0.160788,20.818,-337.263,1.05055,0.0,0.0
253,63,23.5443,23.3749,143.117,98.9897,83.1314,0.00408152,0.225952,20.6949,-337.423,1.55139,0.0,0.0
264,65.75,24.445,24.8921,135.731,98.9849,79.0581,0.0060475,0.306534,20.5419,-337.643,1.99738,0.0,0.0
275,68.5,27.1806,27.7712,136.621,98.9781,82.914,0.00721819,0.362018,20.4683,-337.823,1.57362,0.0,0.0
286,71.25,28.8661,29.364,135.295,98.9778,80.7177,0.00803968,0.393954,20.4235,-337.963,1.81214,0.0,0.0
297,74,31.0315,31.6875,140.046,98.9722,78.4485,0.00918471,0.419828,20.3744,-338.184,2.06502,0.0,0.0
308,76.75,33.5909,33.8381,130.925,98.9702,77.2916,0.0100475,0.458489,20.307,-338.384,2.19686,0.0,0.0
319,79.5,35.2359,35.901,139.73,98.9602,77.4639,0.0108128,0.494185,20.2451,-338.644,2.17617,0.0,0.0
330,82.25,38.0939,38.8678,130.514,98.9702,77.3808,0.0112847,0.523743,20.1976,-338.894,2.1866,0.0,0.0
341,85,40.1895,41.1301,128.832,98.9586,76.7733,0.0114208,0.544827,20.1677,-339.084,2.2556,0.0,0.0
352,87.75,41.5287,43.4794,133.551,98.9574,76.5924,0.0115565,0.553065,20.1592,-339.305,2.27646,0.0,0.0
363,90.5,43.8241,46.3517,131.567,98.9622,80.2817,0.0112965,0.552244,20.1631,-339.525,1.85887,0.0,0.0
374,93.25,46.0076,47.6991,129.622,98.9558,79.858,0.0109163,0.546202,20.1807,-339.775,1.90532,0.0,0.0
385,96,47.1822,49.792,130.457,98.9586,81.1082,0.0108784,0.537222,20.1954,-339.915,1.76753,0.0,0.0
396,98.75,48.5359,50.839,129.866,98.9634,78.9664,0.0110722,0.534061,20.1975,-340.205,2.00577,0.0,0.0
407,101.5,50.0394,52.5101,130.674,98.9594,76.5752,0.0112062,0.540757,20.1839,-340.416,2.27864,0.0,0.0
418,104.25,51.3436,53.8671,132.46,98.9594,75.3855,0.0111472,0.548109,20.1733,-340.646,2.41777,0.0,0.0
429,107,52.489,55.9818,135.365,98.9666,79.2947,0.0106708,0.556,20.1721,-340.876,1.96918,0.0,0.0
440,109.75,53.8233,57.3812,134.488,98.9658,79.5731,0.00998618,0.539548,20.2057,-341.046,1.93797,0.0,0.0
451,112.5,54.9952,58.2526,133.129,98.9666,73.8552,0.00934245,0.511217,20.2515,-341.296,2.60064,0.0,0.0
462,115.25,54.8177,58.933,142.587,98.969,79.0761,0.00764419,0.46502,20.3868,-341.366,1.99393,0.0,0.0
473,118,54.1516,58.3871,143.862,98.9566,87.6964,0.00562962,0.361553,20.5444,-341.426,1.07341,0.0,0.0
484,120.75,53.3191,57.4377,150.617,98.9582,94.8438,0.0037426,0.260545,20.7137,-341.376,0.377347,0.0,0.0
495,123.5,51.1059,55.1225,154.546,98.9678,96.0826,0.00225969,0.174218,20.8658,-341.406,0.262896,0.0,0.0
506,126.25,49.9135,53.9451,155.356,98.9614,97.402,0.00141172,0.112491,20.9483,-341.386,0.141132,0.0,0.0
517,129,47.0889,50.83,154.324,98.9487,97.5867,0.000797088,0.0783174,20.9943,-341.366,0.12316,0.0,0.0
528,131.75,45.1982,49.6505,155.363,98.9423,97.2477,0.000455429,0.0611139,21.0145,-341.356,0.153505,0.0,0.0
539,134.5,44.281,47.9731,155.331,98.9439,96.695,0.000368663,0.0530973,21.0231,-341.366,0.204292,0.0,0.0
550,137.25,43.0056,46.7678,156.96,98.9319,97.3066,0.000347726,0.0488519,21.0281,-341.356,0.147192,0.0,0.0
561,140,41.1738,45.3357,153.689,98.9287,97.1883,0.000463703,0.0466302,21.0309,-341.376,0.157716,0.0,0.0
572,142.75,40.2233,44.3174,153.894,98.918,97.1584,0.000597655,0.0450197,21.0317,-341.396,0.159482,0.0,0.0
583,145.5,38.5984,42.655,153.908,98.9287,97.8585,0.00049679,0.0441339,21.0324,-341.406,0.0966546,0.0,0.0
594,148.25,37.7071,41.7875,159.771,98.9287,97.1953,0.000254287,0.0435302,21.0332,-341.406,0.157079,0.0,0.0
605,151,36.5054,40.0902,160.586,98.9295,97.6051,0.00016969,0.0430835,21.0335,-341.396,0.119765,0.0,0.0
616,153.75,35.9166,39.4399,161.181,98.9351,97.3087,4.24658e-05,0.042723,21.0337,-341.376,0.14729,0.0,0.0
627,156.5,34.878,38.1577,158.104,98.9331,97.2935,-0.000136284,0.0424575,21.0342,-341.386,0.148495,0.0,0.0
638,159.25,33.7244,37.5449,152.895,98.9519,97.0528,-6.48036e-05,0.0422594,21.0344,-341.376,0.172187,0.0,0.0
649,162,33.1307,36.3777,155.499,98.9582,97.3721,3.52933e-05,0.0420754,21.0358,-341.376,0.143573,0.0,0.0
660,164.75,32.2291,35.7882,154.653,98.9491,97.0213,-2.16523e-05,0.0419018,21.0361,-341.416,0.174824,0.0,0.0
671,167.5,31.3028,34.6134,157.697,98.9602,97.208,-5.94726e-05,0.0418709,21.0345,-341.386,0.158745,0.0,0.0
682,170.25,30.8891,34.0575,156.613,98.9654,96.5292,0.000118004,0.0416896,21.0344,-341.376,0.221473,0.0,0.0
693,173,30.2486,33.2526,151.346,98.9742,97.3742,0.000241089,0.0415919,21.0353,-341.416,0.144817,0.0,0.0
704,175.75,30.0817,33.0102,158.661,98.9774,97.6689,7.05526e-05,0.0416259,21.0355,-341.416,0.118247,0.0,0.0
715,178.5,29.1763,32.2615,154.072,98.9718,97.1261,-3.04013e-05,0.0416018,21.0351,-341.416,0.16727,0.0,0.0
726,181.25,28.8366,31.8227,156.733,98.9825,97.4278,2.46221e-05,0.0414914,21.035,-341.396,0.140676,0.0,0.0
737,184,28.388,30.8498,159.483,98.9678,97.3304,-4.44698e-05,0.0414628,21.0349,-341.376,0.148242,0.0,0.0
748,186.75,27.9227,30.9941,153.299,98.971,96.9394,-4.09458e-05,0.0414411,21.0351,-341.396,0.184293,0.0,0.0
759,189.5,26.8453,30.0006,156.152,98.973,97.3288,9.62322e-05,0.0413702,21.0363,-341.386,0.148858,0.0,0.0
770,192.25,26.7792,29.5847,150.604,98.9578,96.9411,5.29494e-05,0.0413283,21.0375,-341.386,0.182963,0.0,0.0
781,195,26.2975,29.1309,151.127,98.9279,97.7934,7.84519e-05,0.041301,21.0379,-341.386,0.102495,0.0,0.0
792,197.75,26.0298,28.2616,155.088,98.922,97.5781,0.00023613,0.0413028,21.038,-341.386,0.121546,0.0,0.0
803,200.5,26.185,28.0485,155.633,98.9052,97.6108,0.000305041,0.041303,21.0381,-341.416,0.11706,0.0,0.0
814,203.25,25.8392,27.807,160.642,98.8957,96.8207,0.000432433,0.041312,21.0381,-341.386,0.18842,0.0,0.0
825,206,25.4184,27.3872,153.909,98.8722,97.1818,0.000513801,0.0411784,21.0381,-341.376,0.153231,0.0,0.0
836,208.75,25.5055,26.7465,155.267,98.8515,97.3672,0.000349024,0.041186,21.0381,-341.366,0.134428,0.0,0.0
847,211.5,25.3405,26.7642,154.823,98.8363,97.2899,0.000249005,0.0412296,21.0379,-341.366,0.140132,0.0,0.0
858,214.25,24.4924,26.6257,156.633,98.8056,97.4245,0.000263325,0.0411375,21.0376,-341.386,0.12508,0.0,0.0
869,217,24.5374,26.5079,155.72,98.7746,97.5781,0.00023675,0.0411468,21.0375,-341.376,0.108294,0.0,0.0
880,219.75,24.457,25.8019,158.267,98.7391,97.4045,0.000128647,0.0412701,21.0374,-341.366,0.120924,0.0,0.0
891,222.5,23.5214,25.2425,156.299,98.712,97.0778,7.68598e-05,0.0412089,21.0374,-341.366,0.148339,0.0,0.0
902,225.25,24.524,25.9034,160.816,98.6985,97.0012,-2.2717e-06,0.0411004,21.0361,-341.376,0.154129,0.0,0.0
913,228,23.5826,24.8147,160.283,98.6825,97.8339,0.0001054,0.0411429,21.0354,-341.416,0.0767429,0.0,0.0
924,230.75,23.8665,25.2289,156.469,98.6566,96.8461,0.000150119,0.0411276,21.0356,-341.416,0.164586,0.0,0.0
935,233.5,23.1802,24.7424,157.986,98.6415,97.5097,8.52328e-05,0.0412462,21.0366,-341.366,0.102543,0.0,0.0
946,236.25,23.1663,24.3753,154.283,98.6052,96.9001,,0.0414732,,-341.356,0.154999,0.0,0.0
957,239,23.217,24.2749,152.911,98.5909,97.5727,,,,-341.386,0.0922423,0.0,0.0
968,241.75,23.1723,24.0354,155.327,98.5399,97.0012,,,,-341.366,0.139843,0.0,0.0
979,244.5,23.0705,24.3868,155,98.528,96.7036,,,,-341.386,0.166069,0.0,0.0
984,245.75,22.6288,23.9712,156.591,98.5323,96.7757,,,,-341.396,0.159848,0.0,0.0

File: PE_Foam_Pipe_Insulation_Cone_HF50Scalar_220316_R1.csv
LABORATORY,FSRI
TEST IDENT,PE_FPI_HF50_1
OPERATOR,Dow
MATERIAL,PE Foam Pipe Insulation
ORIENTATION,Horizontal
HEAT FLUX,50
SURF AREA,0.01
C FACTOR,0.0390023
SPEC HOLDER DIFF,-566
SPECIMEN MASS,5.32
SCAN TIME,0.25
O2 DELAY TIME,11
CO DELAY TIME,11
CO2 DELAY TIME,8
FLOW FACTOR,1
SCAN COUNT,728
TIME TO IGN,3.25
END OF TEST SCAN,248
END OF TEST TIME,62
TEST STATUS,1
PRE TEST CMT,Dimensions: 101.50 x 102.02 x 11.31 mm
POST TEST CMT,"Immediately after ignition the sample corners rose and curled towards the center. Then the sample melted and spread out, with flames filling the entire foil pan. "

File: PE_Foam_Pipe_Insulation_Cone_HF50Scalar_220316_R2.csv
LABORATORY,FSRI
TEST IDENT,PE_FPI_HF50_2
OPERATOR,Dow
MATERIAL,PE Foam Pipe Insulation
ORIENTATION,Horizontal
HEAT FLUX,50
SURF AREA,0.01
C FACTOR,0.0390023
SPEC HOLDER DIFF,-566
SPECIMEN MASS,4.51
SCAN TIME,0.25
O2 DELAY TIME,11
CO DELAY TIME,11
CO2 DELAY TIME,8
FLOW FACTOR,1
SCAN COUNT,780
TIME TO IGN,4.25
END OF TEST SCAN,300
END OF TEST TIME,75
TEST STATUS,1
PRE TEST CMT,Dimensions: 99.20 x 100.71 x 10.47 mm
POST TEST CMT,"Immediately after ignition the sample corners rose and curled towards the center. Then the sample melted and spread out, with flames filling the entire foil pan. "

File: PE_Foam_Pipe_Insulation_Cone_HF50Scalar_220316_R3.csv
LABORATORY,FSRI
TEST IDENT,PE_FPI_HF50_3
OPERATOR,Dow
MATERIAL,PE Foam Pipe Insulation
ORIENTATION,Horizontal
HEAT FLUX,50
SURF AREA,0.01
C FACTOR,0.0391476
SPEC HOLDER DIFF,-566
SPECIMEN MASS,5.05
SCAN TIME,0.25
O2 DELAY TIME,11
CO DELAY TIME,11
CO2 DELAY TIME,8
FLOW FACTOR,1
SCAN COUNT,723
TIME TO IGN,3.5
END OF TEST SCAN,243
END OF TEST TIME,60.75
TEST STATUS,1
PRE TEST CMT,Dimensions: 101.79 x 99.34 x 11.13 mm
POST TEST CMT,"Immediately after ignition the sample corners rose and curled towards the center. Then the sample melted and spread out, with flames filling the entire foil pan. "

File: PE_Foam_Pipe_Insulation_Cone_HF50Scan_220316_R1.csv
Names,Time,Stack TC,Smoke TC,Exh Press,Smoke Comp,Smoke Meas,CO Meter,CO2 Meter,O2 Meter,Sample Mass,Ext Coeff,Start Test,Flame Verif
Chan Gain,,500,500,1,1,1,1,1,1,1,1,1.0,1.0
Offset,,0,0,0.136382,0,0,0,0,0,0,0,0.0,0.0
Gain,,1,1,25.011,13.0548,13.4146,1,1,1,1.00087,1.01298,1.0,1.0
Units,sec,C,C,Pa,%,%,%,%,%,g,/m,,
Baseline,,29.5535,30.7778,152.143,98.5761,95.9904,0.000405417,0.0425421,21.0298,-833.252,0.236263,,
8,1.75,28.3308,29.6495,149.616,98.5929,93.9898,0.000787186,0.0527945,21.0153,-338.784,0.424851,0.0,0.0
16,3.75,28.3237,29.4946,146.86,98.5881,94.6592,0.00126787,0.0612972,20.9908,-338.884,0.361365,0.0,1.0
24,5.75,28.8166,29.4998,142.997,98.6044,94.8958,0.00154821,0.0914481,20.9424,-338.994,0.340652,0.0,1.0
32,7.75,29.4851,30.4218,144.267,98.5845,94.7963,0.00172367,0.114257,20.9167,-338.914,0.348177,0.0,1.0
40,9.75,29.38,30.6678,144.977,98.5837,93.7282,0.00195394,0.122779,20.9056,-338.994,0.44879,0.0,0.0
48,11.75,29.9377,30.7219,145.696,98.5829,90.7025,0.00241177,0.128678,20.8902,-339.014,0.7403,0.0,0.0
56,13.75,30.1196,31.5763,143.892,98.573,85.5251,0.00306289,0.141954,20.8525,-339.134,1.26167,0.0,0.0
64,15.75,30.9124,32.2599,140.694,98.5825,80.0725,0.00405967,0.175182,20.7879,-339.255,1.84789,0.0,0.0
72,17.75,32.187,33.1493,139.733,98.5762,77.5892,0.00560695,0.232803,20.6683,-339.425,2.12726,0.0,0.0
80,19.75,34.182,34.5487,129.962,98.5857,74.2699,0.00785955,0.294117,20.5087,-339.635,2.51662,0.0,0.0
88,21.75,35.5708,36.433,130.677,98.5897,71.1697,0.0104328,0.384773,20.3623,-339.845,2.89586,0.0,0.0
96,23.75,38.3622,39.2388,124.338,98.5786,75.4531,0.012673,0.471175,20.2373,-340.045,2.37554,0.0,0.0
104,25.75,40.4506,41.876,117.173,98.5678,71.8935,0.0145112,0.555099,20.0733,-340.235,2.80398,0.0,0.0
112,27.75,43.6102,45.048,121.57,98.569,74.2401,0.0156463,0.643953,19.9217,-340.476,2.51869,0.0,0.0
120,29.75,46.4913,47.9527,111.889,98.5734,70.1094,0.016487,0.714052,19.8203,-340.706,3.02777,0.0,0.0
128,31.75,49.596,51.6923,110.774,98.575,70.8463,0.017419,0.767359,19.7303,-341.006,2.93501,0.0,0.0
136,33.75,52.7975,55.1169,118.622,98.5746,70.4377,0.0185463,0.821611,19.6311,-341.256,2.98636,0.0,0.0
144,35.75,56.4185,58.4761,111.62,98.5821,69.2861,0.0196557,0.87891,19.5455,-341.547,3.13352,0.0,0.0
152,37.75,59.2893,62.5788,116.183,98.5821,68.3544,0.0203239,0.926831,19.4785,-341.717,3.25382,0.0,0.0
160,39.75,62.3379,65.4687,114.31,98.5933,70.5994,0.020489,0.955771,19.4496,-342.037,2.96767,0.0,0.0
168,41.75,65.1588,69.1206,113.319,98.5925,69.8323,0.0207185,0.962354,19.4511,-342.277,3.06469,0.0,0.0
176,43.75,67.7848,72.3567,109.586,98.5973,68.6274,0.0212145,0.954591,19.4653,-342.517,3.21976,0.0,0.0
184,45.75,70.0144,74.5737,113.885,98.5965,70.1888,0.0215921,0.94291,19.478,-342.798,3.01979,0.0,0.0
192,47.75,72.0285,76.8368,110.786,98.6068,66.8536,0.0217282,0.928972,19.503,-342.998,3.45332,0.0,0.0
200,49.75,74.0155,79.2436,119.968,98.6072,67.6834,0.0216991,0.918746,19.5151,-343.288,3.34374,0.0,0.0
208,51.75,75.4935,80.9658,114.425,98.6072,67.1594,0.0216993,0.919788,19.5118,-343.548,3.4128,0.0,0.0
216,53.75,77.2315,83.0864,114.938,98.6112,68.5697,0.0215759,0.925838,19.5104,-343.778,3.2285,0.0,0.0
224,55.75,78.951,85.5097,123.811,98.6168,67.4026,0.0207912,0.915941,19.5408,-343.999,3.38155,0.0,0.0
232,57.75,80.559,86.5969,119.833,98.6212,68.9529,0.0185233,0.872004,19.6534,-344.169,3.17988,0.0,0.0
240,59.75,80.783,87.6045,135.162,98.6272,81.8934,0.0150564,0.744275,19.943,-344.269,1.65211,0.0,0.0
248,61.75,80.7369,87.6434,145.069,98.6363,94.644,0.0112786,0.56419,20.3355,-344.249,0.367131,0.0,0.0
256,63.75,77.9358,85.3822,151.113,98.6415,94.565,0.00787957,0.382268,20.6052,-344.199,0.375019,0.0,0.0
264,65.75,75.3351,82.78,152.225,98.6335,95.2757,0.00525558,0.253796,20.7821,-344.199,0.307771,0.0,0.0
272,67.75,73.4514,80.4516,148.324,98.6443,94.8495,0.00333221,0.169069,20.8962,-344.179,0.348575,0.0,0.0
280,69.75,71.2587,79.1118,149.885,98.6543,94.9695,0.00215807,0.119293,20.9552,-344.169,0.338243,0.0,0.0
288,71.75,69.7101,76.3442,147.623,98.6519,94.7447,0.00144602,0.0922586,20.9802,-344.189,0.35908,0.0,0.0
296,73.75,67.8899,74.5539,148.254,98.6495,94.8258,0.00115019,0.0747879,20.9984,-344.199,0.351266,0.0,0.0
304,75.75,65.9428,73.3529,154.319,98.6554,95.055,0.00106128,0.064339,21.0094,-344.209,0.330348,0.0,0.0
312,77.75,64.6464,71.021,150.812,98.6519,95.1398,0.000867652,0.0580327,21.0164,-344.209,0.322107,0.0,0.0
320,79.75,62.6572,68.8838,151.045,98.6566,95.3518,0.000570981,0.0539931,21.0207,-344.219,0.302754,0.0,0.0
328,81.75,61.2756,68.4892,148.037,98.6327,95.3887,0.000376925,0.0509534,21.0241,-344.229,0.297167,0.0,0.0
336,83.75,59.4592,66.2142,152.002,98.6383,95.6343,0.00034133,0.0487563,21.0263,-344.229,0.274818,0.0,0.0
344,85.75,58.8358,65.4219,148.257,98.6295,95.7743,0.000393782,0.0470852,21.0277,-344.219,0.26103,0.0,0.0
352,87.75,57.5847,63.5793,148.846,98.6172,95.0346,0.000392575,0.0459254,21.0288,-344.219,0.328816,0.0,0.0
360,89.75,56.5986,62.7051,151.262,98.6192,95.148,0.000357022,0.0450549,21.0293,-344.209,0.318399,0.0,0.0
368,91.75,54.5458,61.0874,150.918,98.6064,95.3404,0.000392618,0.0443093,21.0301,-344.209,0.299299,0.0,0.0
376,93.75,53.9353,60.2982,151.896,98.5985,94.8852,0.000444925,0.0437941,21.0315,-344.219,0.341111,0.0,0.0
384,95.75,53.0563,59.135,146.075,98.5793,95.27,0.000427033,0.0433874,21.0321,-344.229,0.303422,0.0,0.0
392,97.75,51.8435,58.3861,150.515,98.5658,95.6208,0.000432509,0.0430168,21.0324,-344.229,0.26954,0.0,0.0
400,99.75,51.0524,57.0619,156.981,98.5507,96.1166,0.000402182,0.0427446,21.0325,-344.229,0.222225,0.0,0.0
408,101.75,50.7232,56.173,148.512,98.5423,94.6932,0.000236636,0.0424639,21.0334,-344.199,0.354045,0.0,0.0
416,103.75,49.5607,55.4781,151.252,98.5264,95.1754,3.95402e-05,0.0422795,21.0343,-344.209,0.30747,0.0,0.0
424,105.75,48.2389,54.5001,147.747,98.5176,95.3588,-0.000103866,0.0420663,21.0346,-344.209,0.289573,0.0,0.0
432,107.75,48.1329,53.6868,148.788,98.5041,94.9314,-0.000182101,0.0419517,21.0348,-344.209,0.328267,0.0,0.0
440,109.75,47.7245,53.0695,147.96,98.5056,95.8828,-0.000160012,0.0419075,21.0349,-344.219,0.239801,0.0,0.0
448,111.75,46.928,52.4941,147.579,98.4841,95.4869,-6.41889e-05,0.0418818,21.0349,-344.229,0.274622,0.0,0.0
456,113.75,46.4292,51.3861,147.691,98.4674,95.3142,5.89874e-05,0.0418336,21.0349,-344.199,0.289204,0.0,0.0
464,115.75,45.6956,50.7595,149.533,98.4547,96.1362,0.000148522,0.0416878,21.0345,-344.209,0.211746,0.0,0.0
472,117.75,45.2423,49.8975,150.886,98.418,95.1181,0.000220908,0.0416282,21.0345,-344.199,0.303045,0.0,0.0
480,119.75,43.958,48.9698,149.658,98.4136,95.0071,0.000200261,0.041667,21.0345,-344.209,0.313018,0.0,0.0
488,121.75,43.6714,48.7259,151.884,98.4088,94.5413,0.000164864,0.0416257,21.0345,-344.209,0.356266,0.0,0.0
496,123.75,43.8575,47.8242,150.559,98.3929,94.3636,0.00022622,0.0415085,21.0345,-344.199,0.371542,0.0,0.0
504,125.75,43.0522,47.4432,149.645,98.3746,95.4849,0.000312763,0.0414296,21.0345,-344.219,0.264922,0.0,0.0
512,127.75,42.843,46.9946,150.074,98.3634,95.2937,0.000409926,0.0414302,21.0345,-344.219,0.281724,0.0,0.0
520,129.75,42.136,46.2587,154.314,98.3427,94.3738,0.000460169,0.0414452,21.0334,-344.229,0.366044,0.0,0.0
528,131.75,41.6767,45.8409,149.706,98.3248,95.4259,0.000429442,0.0414659,21.0327,-344.229,0.265909,0.0,0.0
536,133.75,40.9923,45.3292,154.368,98.306,95.5926,0.000403193,0.0415248,21.0324,-344.239,0.248716,0.0,0.0
544,135.75,40.4075,44.9926,150.258,98.2945,94.8307,0.000387619,0.0415227,21.0329,-344.219,0.318775,0.0,0.0
552,137.75,40.6675,44.3902,150.422,98.2825,94.9306,0.000280499,0.0414022,21.0334,-344.229,0.308339,0.0,0.0
560,139.75,40.4247,44.5874,152.741,98.2726,95.629,0.000148201,0.0414252,21.0332,-344.239,0.242305,0.0,0.0
568,141.75,39.5001,43.3871,156.051,98.2515,95.3461,7.93786e-05,0.0414834,21.0331,-344.249,0.266719,0.0,0.0
576,143.75,39.4463,43.0124,146.964,98.2535,94.6551,2.15377e-05,0.0415379,21.033,-344.229,0.331535,0.0,0.0
584,145.75,38.9415,42.3091,151.207,98.2439,94.7713,-1.70086e-05,0.0414967,21.033,-344.209,0.319763,0.0,0.0
592,147.75,39.1481,42.5134,151.442,98.3017,95.0112,-2.23485e-05,0.0414067,21.033,-344.249,0.302521,0.0,0.0
600,149.75,38.5267,41.6727,151.439,98.3849,95.069,-3.60428e-05,0.0414787,21.033,-344.249,0.304649,0.0,0.0
608,151.75,38.4746,42.1572,147.565,98.4614,95.6253,2.44072e-05,0.0414797,21.033,-344.249,0.259706,0.0,0.0
616,153.75,38.92,41.4756,147.684,98.5391,95.0006,0.000162951,0.0414036,21.0339,-344.199,0.324954,0.0,0.0
624,155.75,37.9789,41.4529,149.472,98.624,96.1751,0.000304192,0.0412624,21.0334,-344.239,0.22342,0.0,0.0
632,157.75,38.1401,41.0575,151.606,98.6925,95.2589,0.000312881,0.0412681,21.0331,-344.239,0.314647,0.0,0.0
640,159.75,37.1053,40.3543,154.362,98.7523,95.2581,0.000356888,0.0412683,21.033,-344.239,0.320102,0.0,0.0
648,161.75,37.5033,40.8182,147.777,98.8156,96.0183,0.000439496,0.0413344,21.0332,-344.229,0.255167,0.0,0.0
656,163.75,36.7131,39.8978,151.482,98.867,95.7567,0.000351503,0.0412561,21.0335,-344.209,0.28403,0.0,0.0
664,165.75,37.3057,39.78,151.083,98.9112,95.9798,0.000247928,0.0412302,21.0348,-344.209,0.267324,0.0,0.0
672,167.75,36.5661,39.9866,149.534,98.9459,95.9778,0.000209943,0.0411957,21.0354,-344.249,0.270626,0.0,0.0
680,169.75,37.3285,40.0562,148.414,98.9817,95.4788,0.00020812,0.0412368,21.0348,-344.219,0.320168,0.0,0.0
688,171.75,36.6124,39.0718,148.798,99.0024,95.1312,,0.0412473,,-344.219,0.354432,0.0,0.0
696,173.75,36.0656,39.236,154.973,99.0359,96.1653,,0.0412509,,-344.229,0.261366,0.0,0.0
704,175.75,35.8486,38.872,149.147,99.0447,96.0928,,,,-344.229,0.268851,0.0,0.0
712,177.75,36.59,38.737,150.645,99.057,94.863,,,,-344.229,0.384411,0.0,0.0
720,179.75,35.8432,38.6611,152.84,99.0638,95.9242,,,,-344.209,0.286177,0.0,0.0
728,181.75,35.4327,37.8878,151.24,99.0785,95.934,,,,-344.249,0.286588,0.0,0.0