Folder: fsri_materials_database/01_Data/PE_Foam_Pipe_Insulation/Cone

Note: 01_Data/README.md
# Materials and Products Database
## 01_Data

Raw data generated from each apparatus are included here in plain-text format. The data is organized first by material, next by the short name of test apparatus used, and where applicable additional filtering by test settings.

### material.json

Each material directory contains a json file of the same name as the material. This file links the data stored in the repository as well as data and graphs produced by the accompanying scripts (__02_Scripts__) to the respective landing page for the material on the front-end website.

File: PE_Foam_Pipe_Insulation_Cone_HF25Scalar_220316_R1.csv
LABORATORY,FSRI
TEST IDENT,PE_FPI_HF25_1
OPERATOR,Dow
MATERIAL,PE Foam Pipe Insulation
ORIENTATION,Horizontal
HEAT FLUX,25
SURF AREA,0.01
C FACTOR,0.0390023
SPEC HOLDER DIFF,-566
SPECIMEN MASS,4.8
SCAN TIME,0.25
O2 DELAY TIME,11
CO DELAY TIME,11
CO2 DELAY TIME,8
FLOW FACTOR,1
SCAN COUNT,963
TIME TO IGN,35.5
END OF TEST SCAN,483
END OF TEST TIME,120.75
TEST STATUS,1
PRE TEST CMT,Dimensions: 101.12 x 101.42 x 10.39 mm
POST TEST CMT,"Prior to ignition, sample corners rose and curled towards the center. The sample impacted the spark ignitor, possibly causing a spike in mass data. After ignition, the sample melted and spread out, with flames filling the entire foil pan.  See test pictures."

File: PE_Foam_Pipe_Insulation_Cone_HF25Scalar_220316_R2.csv
LABORATORY,FSRI
TEST IDENT,PE_FPI_HF25_2
OPERATOR,Dow
MATERIAL,PE Foam Pipe Insulation
ORIENTATION,Horizontal
HEAT FLUX,25
SURF AREA,0.01
C FACTOR,0.0390023
SPEC HOLDER DIFF,-566
SPECIMEN MASS,4.94
SCAN TIME,0.25
O2 DELAY TIME,11
CO DELAY TIME,11
CO2 DELAY TIME,8
FLOW FACTOR,1
SCAN COUNT,996
TIME TO IGN,36
END OF TEST SCAN,516
END OF TEST TIME,129
TEST STATUS,1
PRE TEST CMT,Dimensions: 100.65 x 100.36 x 11.55 mm
POST TEST CMT,"Prior to ignition, sample corners rose and curled towards the center. The sample impacted the spark ignitor, causing a spike in mass data. After ignition, the sample melted and spread out, with flames filling the entire foil pan. "

File: PE_Foam_Pipe_Insulation_Cone_HF25Scalar_220316_R3.csv
LABORATORY,FSRI
TEST IDENT,PE_FPI_HF25_3
OPERATOR,Dow
MATERIAL,PE Foam Pipe Insulation
ORIENTATION,Horizontal
HEAT FLUX,25
SURF AREA,0.01
C FACTOR,0.0390023
SPEC HOLDER DIFF,-566
SPECIMEN MASS,4.58
SCAN TIME,0.25
O2 DELAY TIME,11
CO DELAY TIME,11
CO2 DELAY TIME,8
FLOW FACTOR,1
SCAN COUNT,984
TIME TO IGN,39.25
END OF TEST SCAN,504
END OF TEST TIME,126
TEST STATUS,1
PRE TEST CMT,Dimensions: 101.75 x 99.90 x 10.78 mm
POST TEST CMT,"Prior to ignition, sample corners rose and curled towards the center. The sample impacted the spark ignitor, causing a spike in mass data. After ignition, the sample melted and spread out, with flames filling the entire foil pan. "

File: PE_Foam_Pipe_Insulation_Cone_HF25Scan_220316_R1.csv
Names,Time,Stack TC,Smoke TC,Exh Press,Smoke Comp,Smoke Meas,CO Meter,CO2 Meter,O2 Meter,Sample Mass,Ext Coeff,Start Test,Flame Verif
Chan Gain,,500,500,1,1,1,1,1,1,1,1,1.0,1.0
Offset,,0,0,0.136382,0,0,0,0,0,0,0,0.0,0.0
Gain,,1,1,25.011,13.0548,13.4146,1,1,1,1.00087,1.01298,1.0,1.0
Units,sec,C,C,Pa,%,%,%,%,%,g,/m,,
Baseline,,18.2446,18.8654,158.783,98.5256,97.18,0.00049463,0.0446014,21.0254,-833.018,0.122217,,
10,2.25,17.2396,17.8158,156.6,98.414,97.2014,0.000811895,0.0550447,21.0188,-336.442,0.110163,0.0,0.0
20,4.75,17.0761,17.9169,157.234,98.4029,97.1494,0.000945598,0.0515291,21.0228,-336.582,0.11391,0.0,0.0
30,7.25,17.544,17.8131,157.898,98.3857,96.2468,0.00100113,0.0494829,21.0242,-336.492,0.195313,0.0,0.0
40,9.75,17.2706,17.7707,159.831,98.3702,95.9471,0.000920408,0.0484164,21.0247,-336.562,0.221618,0.0,0.0
50,12.25,17.6065,17.8345,159.302,98.3678,95.6703,0.000935668,0.0470976,21.0252,-336.552,0.247069,0.0,0.0
60,14.75,17.1996,17.9765,161.595,98.3523,96.0507,0.00108674,0.0459013,21.0252,-336.852,0.210413,0.0,1.0
70,17.25,16.528,17.413,157.121,98.3252,96.2451,0.00127539,0.0450195,21.0248,-338.354,0.189994,0.0,0.0
80,19.75,17.655,18.111,159.999,98.3096,95.6118,0.00141578,0.0447204,21.0256,-339.224,0.247252,0.0,0.0
90,22.25,17.6456,18.1837,162.189,98.3092,96.0842,0.00141206,0.0444578,21.0262,-339.134,0.20342,0.0,0.0
100,24.75,17.782,18.6345,157.065,98.2809,95.6597,0.00135657,0.0439931,21.025,-338.844,0.240208,0.0,0.0
110,27.25,17.8039,18.0805,159.071,98.279,95.4738,0.00141069,0.0438714,21.0245,-338.124,0.25731,0.0,0.0
120,29.75,18.0607,17.6715,161.133,98.2395,95.4051,0.00157631,0.0446562,21.0239,-337.443,0.260146,0.0,0.0
130,32.25,17.7172,18.1624,161.888,98.2284,96.004,0.0016356,0.0470026,21.0201,-337.003,0.20353,0.0,0.0
140,34.75,18.2921,18.0094,160.476,98.2192,95.6323,0.00140642,0.050613,21.0129,-336.802,0.237173,0.0,0.0
150,37.25,17.7211,18.721,155.22,98.2188,95.7846,0.00138417,0.059424,20.9928,-336.722,0.222998,0.0,1.0
160,39.75,18.3847,18.3331,155.256,98.1985,94.2686,0.00172153,0.0800973,20.9514,-336.682,0.362915,0.0,1.0
170,42.25,18.4133,18.2888,152.574,98.2048,94.1176,0.00192366,0.102137,20.9228,-336.732,0.377742,0.0,1.0
180,44.75,18.7185,19.0404,152.896,98.1953,95.1066,0.00187611,0.115581,20.9141,-336.802,0.283985,0.0,1.0
190,47.25,18.5381,19.7842,155.291,98.2084,95.507,0.0017553,0.119122,20.9138,-336.852,0.247846,0.0,0.0
200,49.75,19.4815,19.9336,157.094,98.1989,95.3273,0.00171634,0.118593,20.9145,-336.862,0.263717,0.0,0.0
210,52.25,19.7513,20.5672,151.235,98.1877,93.944,0.00190583,0.123452,20.8932,-336.973,0.392595,0.0,0.0
220,54.75,20.5456,20.7199,144.569,98.2084,92.288,0.00242788,0.144341,20.8499,-337.033,0.552495,0.0,0.0
230,57.25,21.2824,21.4718,149.217,98.1865,88.6675,0.00349378,0.177829,20.772,-337.123,0.906133,0.0,0.0
240,59.75,22.2531,22.8932,145.602,98.1945,83.7193,0.00504448,0.226749,20.6686,-337.283,1.41711,0.0,0.0
250,62.25,24.1812,24.4713,141.005,98.1742,76.3643,0.00684612,0.282761,20.569,-337.413,2.23235,0.0,0.0
260,64.75,25.7312,25.9289,129.619,98.1726,76.7905,0.00881184,0.349008,20.4385,-337.643,2.18275,0.0,0.0
270,67.25,27.5576,27.8378,141.96,98.159,76.3066,0.0104151,0.419635,20.3327,-337.873,2.23769,0.0,0.0
280,69.75,30.2027,30.7796,130.156,98.1654,75.2443,0.0114988,0.465779,20.2739,-338.053,2.36285,0.0,0.0
290,72.25,31.4383,32.314,129.258,98.1523,73.3226,0.0120435,0.491314,20.2505,-338.254,2.59154,0.0,0.0
300,74.75,34.0737,35.1542,131.723,98.1487,77.5307,0.0121367,0.500697,20.2436,-338.414,2.09535,0.0,0.0
310,77.25,36.1041,37.0825,134.188,98.1439,75.5288,0.0121876,0.503159,20.2359,-338.644,2.32736,0.0,0.0
320,79.75,37.6107,38.9006,134.981,98.1212,72.5714,0.0123693,0.508384,20.2265,-338.844,2.68023,0.0,0.0
330,82.25,39.4471,40.6784,130.737,98.0905,74.7727,0.0123424,0.514342,20.218,-339.064,2.41193,0.0,0.0
340,84.75,41.114,42.8549,139.189,98.0809,77.041,0.0122737,0.517926,20.2158,-339.224,2.14551,0.0,0.0
350,87.25,42.6801,45.2584,130.08,98.0666,76.9432,0.0122904,0.514176,20.2266,-339.395,2.1555,0.0,0.0
360,89.75,43.7136,45.8808,137.451,98.0674,74.9503,0.0125172,0.507411,20.2321,-339.575,2.38875,0.0,0.0
370,92.25,45.0137,47.1952,131.307,98.0475,74.6863,0.0128051,0.507398,20.2296,-339.825,2.41831,0.0,0.0
380,94.75,46.3124,48.4014,130.795,98.03,79.4007,0.012579,0.519864,20.2114,-340.025,1.87281,0.0,0.0
390,97.25,47.5248,50.645,138.918,98.0228,78.8669,0.0121898,0.526785,20.2075,-340.215,1.93211,0.0,0.0
400,99.75,48.6695,51.5367,134.379,98.0084,74.484,0.012054,0.524264,20.2134,-340.436,2.43886,0.0,0.0
410,102.25,49.6393,52.8083,137.912,98.0064,77.8778,0.0120567,0.522691,20.2195,-340.636,2.04276,0.0,0.0
420,104.75,50.6171,53.7602,131.746,97.9754,75.0257,0.0120817,0.516778,20.2275,-340.816,2.37148,0.0,0.0
430,107.25,51.0194,54.4991,136.188,97.963,76.6149,0.0119937,0.50797,20.2395,-341.026,2.18411,0.0,0.0
440,109.75,52.4851,55.6684,128.697,97.9551,74.543,0.0115684,0.50211,20.2512,-341.226,2.42699,0.0,0.0
450,112.25,53.4491,56.5085,139.154,97.9387,80.1798,0.0103481,0.487346,20.2878,-341.266,1.77778,0.0,0.0
460,114.75,53.26,56.8891,143.666,97.9112,80.0349,0.00806198,0.431551,20.428,-341.386,1.79136,0.0,0.0
470,117.25,52.4002,56.4389,151.669,97.8869,86.264,0.00597789,0.343945,20.5857,-341.436,1.12317,0.0,0.0
480,119.75,51.4111,55.3196,152.683,97.8714,93.4208,0.00395032,0.256092,20.7658,-341.436,0.413546,0.0,0.0
490,122.25,49.1768,53.309,154.758,97.8435,95.8018,0.00237606,0.173176,20.8954,-341.416,0.187384,0.0,0.0
500,124.75,47.1735,51.8334,157.27,97.8307,95.2397,0.00133363,0.116482,20.9612,-341.426,0.238514,0.0,0.0
510,127.25,46.3757,49.6452,166.284,97.7905,95.7006,0.000739887,0.0825056,20.9968,-341.416,0.191955,0.0,0.0
520,129.75,44.885,48.3488,157.281,97.7977,95.0866,0.000393279,0.0648924,21.0139,-341.426,0.249806,0.0,0.0
530,132.25,43.2342,47.5374,161.528,97.7582,95.1312,0.000270377,0.0558139,21.0211,-341.446,0.242053,0.0,0.0
540,134.75,41.799,45.9122,155.275,97.7427,95.4964,0.000471389,0.0509715,21.0251,-341.426,0.206598,0.0,0.0
550,137.25,40.6938,44.7254,158.282,97.7025,94.9949,0.000601645,0.0484697,21.0289,-341.436,0.249725,0.0,0.0
560,139.75,39.0035,43.549,155.361,97.71,95.4202,0.00045298,0.0469319,21.0307,-341.426,0.210716,0.0,0.0
570,142.25,38.209,42.0174,156.273,97.6762,95.2908,0.000177854,0.0460408,21.0315,-341.416,0.21969,0.0,0.0
580,144.75,37.339,40.9981,158.706,97.6861,95.0252,7.04998e-05,0.0454251,21.0318,-341.416,0.245406,0.0,0.0
590,147.25,36.5182,40.2967,156.355,97.6734,94.6121,9.07007e-05,0.0449156,21.0319,-341.426,0.282955,0.0,0.0
600,149.75,35.5562,39.1547,157.557,97.6531,95.0837,6.76876e-05,0.0446777,21.0315,-341.416,0.236925,0.0,0.0
610,152.25,34.567,38.7326,156.962,97.6483,95.3416,-6.44168e-06,0.044474,21.0312,-341.416,0.21242,0.0,0.0
620,154.75,33.6437,36.7547,157.138,97.6487,95.4726,8.87806e-05,0.0445194,21.0314,-341.406,0.200256,0.0,0.0
630,157.25,32.5035,36.5752,160.505,97.6395,95.6421,0.000261758,0.0446351,21.0323,-341.426,0.183661,0.0,0.0
640,159.75,32.4642,35.6665,158.449,97.6268,95.5717,0.000441147,0.0445313,21.0317,-341.416,0.189046,0.0,0.0
650,162.25,31.6819,34.8984,157.122,97.63,95.1922,0.000481895,0.0442811,21.0315,-341.426,0.224689,0.0,0.0
660,164.75,30.79,34.5035,162.266,97.6323,95.0849,0.000336186,0.0439485,21.0315,-341.446,0.234925,0.0,0.0
670,167.25,30.8315,33.7384,151.557,97.6292,95.4824,0.000263526,0.0436668,21.0315,-341.406,0.197565,0.0,0.0
680,169.75,29.3971,32.6731,158.325,97.6256,95.543,0.000297016,0.0433706,21.0312,-341.416,0.191602,0.0,0.0
690,172.25,29.4915,32.0178,156.826,97.6296,95.3314,0.000392762,0.0430502,21.0316,-341.426,0.21167,0.0,0.0
700,174.75,28.8736,31.9851,156.439,97.6192,95.8845,0.000505431,0.0429133,21.031,-341.436,0.159324,0.0,0.0
710,177.25,28.5454,31.4331,160.401,97.6316,95.7788,0.000564641,0.0429777,21.0307,-341.416,0.170242,0.0,0.0
720,179.75,27.6171,30.1453,159.808,97.6164,95.333,0.000575046,0.0427995,21.0306,-341.426,0.210321,0.0,0.0
730,182.25,27.3124,30.4746,154.754,97.6128,95.5942,0.000549018,0.0426431,21.0313,-341.426,0.185683,0.0,0.0
740,184.75,27.2807,30.2877,158.083,97.5949,95.5492,0.000593159,0.0425001,21.0319,-341.446,0.188237,0.0,0.0
750,187.25,26.8793,29.3172,158.208,97.5865,95.1824,0.0006076,0.0424317,21.0321,-341.416,0.221654,0.0,0.0
760,189.75,26.6353,28.958,157.455,97.5774,95.2876,0.00061762,0.0423671,21.0322,-341.436,0.211002,0.0,0.0
770,192.25,25.9522,28.1845,158.742,97.573,95.1398,0.000612527,0.0423424,21.0322,-341.416,0.224395,0.0,0.0
780,194.75,25.463,28.4219,155.82,97.5686,95.4558,0.000507055,0.0423769,21.0322,-341.426,0.194528,0.0,0.0
790,197.25,25.0419,27.8227,157.377,97.5638,95.8611,0.000386052,0.0422386,21.0322,-341.416,0.156445,0.0,0.0
800,199.75,25.2732,27.2615,156.387,97.5367,95.7604,0.000177176,0.0422405,21.0322,-341.416,0.163317,0.0,0.0
810,202.25,24.6283,27.0381,159.079,97.5228,95.2937,6.13954e-05,0.0420188,21.0325,-341.416,0.205458,0.0,0.0
820,204.75,24.5602,26.4337,156.039,97.5136,95.247,4.01178e-05,0.0420642,21.0328,-341.416,0.208976,0.0,0.0
830,207.25,24.3267,26.7542,156.124,97.4925,95.5913,0.000183294,0.0420746,21.0328,-341.416,0.17499,0.0,0.0
840,209.75,23.9252,25.549,157.087,97.4774,95.7735,0.00022658,0.0419881,21.0329,-341.396,0.156692,0.0,0.0
850,212.25,23.9309,25.2943,155.919,97.4566,95.5217,6.13564e-05,0.0419738,21.0327,-341.416,0.178193,0.0,0.0
860,214.75,23.9779,25.266,161.582,97.4694,95.828,-1.21816e-05,0.0420888,21.0322,-341.416,0.150916,0.0,0.0
870,217.25,23.1159,25.4545,160.334,97.4471,95.6593,6.34693e-05,0.0421293,21.0321,-341.446,0.164535,0.0,0.0
880,219.75,23.5785,25.155,160.724,97.4387,95.2573,0.000144385,0.0420448,21.032,-341.426,0.201194,0.0,0.0
890,222.25,22.7993,24.9719,160.831,97.4343,95.3314,0.000274746,0.0420556,21.032,-341.436,0.193884,0.0,0.0
900,224.75,22.7944,24.5972,160.986,97.4244,95.3875,0.000364706,0.0419508,21.0326,-341.436,0.187751,0.0,0.0
910,227.25,23.0246,24.6293,157.693,97.3981,95.1152,0.00040976,0.0419273,21.0328,-341.416,0.210748,0.0,0.0
920,229.75,23.0294,24.3427,156.517,97.4033,95.1521,,0.0418618,,-341.406,0.20778,0.0,0.0
930,232.25,22.2374,23.884,157.142,97.3754,95.3756,,0.0420814,,-341.426,0.184386,0.0,0.0
940,234.75,22.2787,24.1112,155.504,97.361,95.1283,,,,-341.446,0.206143,0.0,0.0
950,237.25,22.4656,23.8023,153.923,97.3714,95.1406,,,,-341.436,0.205941,0.0,0.0
960,239.75,22.1544,23.5714,156.136,97.3467,95.3645,,,,-341.426,0.182797,0.0,0.0
963,240.5,22.3288,23.504,156.498,97.3531,95.0575,,,,-341.416,0.212034,0.0,0.0

File: PE_Foam_Pipe_Insulation_Cone_HF25Scan_220316_R2.csv
Names,Time,Stack TC,Smoke TC,Exh Press,Smoke Comp,Smoke Meas,CO Meter,CO2 Meter,O2 Meter,Sample Mass,Ext Coeff,Start Test,Flame Verif
Chan Gain,,500,500,1,1,1,1,1,1,1,1,1.0,1.0
Offset,,0,0,0.136382,0,0,0,0,0,0,0,0.0,0.0
Gain,,1,1,25.011,13.0548,13.4146,1,1,1,1.00087,1.01298,1.0,1.0
Units,sec,C,C,Pa,%,%,%,%,%,g,/m,,
Baseline,,19.2269,19.5991,158.828,98.8587,97.3561,0.000249293,0.0422321,21.0344,-832.995,0.136137,,
11,2.5,18.6986,18.577,156.416,99.1562,97.6579,0.000179442,0.0525335,21.022,-338.854,0.135297,0.0,0.0
22,5.25,18.6409,19.0343,158.354,99.165,96.8792,0.000250182,0.0531674,21.0213,-338.874,0.207214,0.0,0.0
33,8,18.8938,19.1368,159.264,99.1606,96.9259,0.000561918,0.0517771,21.0211,-338.934,0.202541,0.0,0.0
44,10.75,19.1027,18.9554,158.299,99.1542,96.2058,0.000831194,0.0502348,21.0216,-338.954,0.268232,0.0,0.0
55,13.5,18.8812,19.1758,158.415,99.1503,96.7249,0.00105735,0.048317,21.0231,-338.984,0.22006,0.0,0.0
66,16.25,18.6102,19.0051,161.725,99.1451,97.8568,0.00117735,0.0465289,21.0258,-339.685,0.116212,0.0,0.0
77,19,19.3342,18.9257,157.075,99.1451,96.4854,0.00102344,0.0457392,21.0277,-340.926,0.241624,0.0,0.0
88,21.75,18.9092,19.1461,159.113,99.1307,96.8015,0.000881594,0.0465348,21.0269,-339.905,0.211281,0.0,0.0
99,24.5,18.7998,19.2235,157.861,99.1291,96.6676,0.000903148,0.0482979,21.0245,-339.184,0.223433,0.0,0.0
110,27.25,18.711,19.3838,157.426,99.1256,97.0459,0.000999311,0.0510067,21.0216,-339.004,0.18841,0.0,0.0
121,30,18.8351,18.99,162.805,99.1124,97.0651,0.00101929,0.0522839,21.0207,-338.964,0.18547,0.0,0.0
132,32.75,18.9464,18.9555,156.094,99.0997,96.5775,0.000911148,0.051762,21.0203,-338.994,0.229074,0.0,0.0
143,35.5,18.7007,19.0531,156.404,99.0861,96.8985,0.000963709,0.0516811,21.0169,-338.994,0.198378,0.0,0.0
154,38.25,18.9683,19.067,148.344,99.0853,96.3118,0.00115312,0.062004,20.9896,-339.014,0.252266,0.0,1.0
165,41,18.8097,18.9676,157.469,99.0642,95.4341,0.00124378,0.0843677,20.9553,-339.064,0.331722,0.0,1.0
176,43.75,19.1611,19.6133,154.957,99.0706,95.6941,0.00140461,0.101013,20.9361,-339.094,0.308122,0.0,0.0
187,46.5,19.7518,19.984,150.648,99.061,95.62,0.00141237,0.108238,20.9311,-339.134,0.314147,0.0,0.0
198,49.25,20.2582,20.3037,155.136,99.0554,95.7051,0.00134064,0.111839,20.9266,-339.184,0.305738,0.0,0.0
209,52,20.731,21.1357,154.311,99.0475,94.5454,0.00190292,0.121312,20.8946,-339.305,0.413361,0.0,0.0
220,54.75,21.1043,21.7846,148.565,99.0371,91.0067,0.00295685,0.151629,20.8347,-339.405,0.751395,0.0,0.0
231,57.5,22.318,22.5496,147.626,99.0379,89.5595,0.0040854,0.186668,20.7687,-339.565,0.8939,0.0,0.0
242,60.25,23.2613,23.4413,146.517,99.0391,88.7563,0.00491589,0.220662,20.7128,-339.705,0.974059,0.0,0.0
253,63,24.6136,24.9429,140.459,99.0303,82.0449,0.00633617,0.276737,20.6031,-339.845,1.67194,0.0,0.0
264,65.75,26.2893,26.5698,142.941,99.0116,77.2195,0.00809206,0.342767,20.4846,-339.995,2.20886,0.0,0.0
275,68.5,27.9964,28.3515,130.97,98.9869,77.2478,0.00952843,0.397796,20.4073,-340.185,2.2034,0.0,0.0
286,71.25,30.8936,31.5002,139.696,98.9841,80.0746,0.0103275,0.441785,20.3356,-340.426,1.88379,0.0,0.0
297,74,32.7783,33.3701,134.052,98.9582,79.6844,0.0104203,0.473837,20.2828,-340.626,1.92487,0.0,0.0
308,76.75,35.1022,36.2292,126.01,98.9463,78.7117,0.010401,0.495284,20.2542,-340.786,2.03293,0.0,0.0
319,79.5,37.0387,38.2951,133.291,98.9228,76.9276,0.010891,0.510882,20.2169,-341.126,2.23454,0.0,0.0
330,82.25,39.435,40.7215,134.58,98.9009,76.8654,0.0114839,0.535281,20.1707,-341.276,2.23976,0.0,0.0
341,85,42.1173,43.738,128.617,98.8646,77.2015,0.0117204,0.560496,20.1386,-341.547,2.19773,0.0,0.0
352,87.75,43.462,45.2701,131.146,98.8407,77.4291,0.0120703,0.571098,20.1337,-341.777,2.16942,0.0,0.0
363,90.5,46.1358,48.3007,132.136,98.8076,77.172,0.0121044,0.557799,20.1558,-341.957,2.196,0.0,0.0
374,93.25,47.4338,49.802,138.362,98.757,79.1743,0.0118514,0.53777,20.197,-342.177,1.96384,0.0,0.0
385,96,48.0667,50.8017,135.549,98.7288,73.1429,0.0121445,0.52316,20.2137,-342.437,2.66538,0.0,0.0
396,98.75,49.5266,52.2958,128.529,98.6805,76.9285,0.0119928,0.52159,20.2179,-342.617,2.21266,0.0,0.0
407,101.5,50.0227,52.9523,137.726,98.6327,79.325,0.0112139,0.510074,20.2524,-342.818,1.93576,0.0,0.0
418,104.25,51.7111,54.8453,135.946,98.5873,78.844,0.0103008,0.488762,20.2831,-343.008,1.98572,0.0,0.0
429,107,51.8952,55.0356,131.163,98.5622,79.5538,0.00940606,0.469057,20.3211,-343.158,1.90381,0.0,0.0
440,109.75,53.0058,56.5947,138.889,98.5754,80.0467,0.00891457,0.447025,20.365,-343.338,1.85011,0.0,0.0
451,112.5,53.9263,57.3646,137.322,98.577,79.7045,0.00853535,0.421477,20.4048,-343.488,1.88833,0.0,0.0
462,115.25,53.0362,56.6878,138.763,98.6017,80.0111,0.00816367,0.396683,20.4469,-343.648,1.85644,0.0,0.0
473,118,53.5578,57.5162,142.661,98.61,80.5437,0.0078591,0.37622,20.4762,-343.758,1.79824,0.0,0.0
484,120.75,53.1823,57.0782,144.836,98.6399,80.6068,0.00686601,0.353729,20.5283,-343.919,1.79398,0.0,0.0
495,123.5,52.3425,56.218,151.651,98.659,90.5191,0.0052701,0.300683,20.6607,-343.949,0.765142,0.0,0.0
506,126.25,51.1733,55.517,153.86,98.6833,94.2048,0.00346611,0.220526,20.797,-343.949,0.412702,0.0,0.0
517,129,49.3958,53.9563,158.442,98.7064,96.4326,0.00207438,0.146056,20.9079,-343.969,0.207088,0.0,0.0
528,131.75,47.4871,51.9091,153.358,98.72,96.4203,0.00114697,0.100134,20.9761,-343.929,0.20944,0.0,0.0
539,134.5,45.9542,49.6816,158.064,98.763,97.0209,0.000680741,0.0711569,21.0089,-343.929,0.158138,0.0,0.0
550,137.25,43.9849,47.9835,157.064,98.7821,96.4506,0.000306681,0.0576325,21.0221,-343.919,0.212241,0.0,0.0
561,140,42.4771,46.75,153.047,98.7921,97.1212,9.91447e-05,0.051153,21.0274,-343.939,0.151573,0.0,0.0
572,142.75,41.4922,45.6214,158.03,98.8116,96.7675,0.000112533,0.0480287,21.0302,-343.919,0.185749,0.0,0.0
583,145.5,40.3539,43.995,158.93,98.824,96.7699,0.000240986,0.0460885,21.0322,-343.909,0.186634,0.0,0.0
594,148.25,38.7293,42.7416,157.123,98.8439,96.598,0.000264578,0.044902,21.0329,-343.909,0.204227,0.0,0.0
605,151,37.8384,40.9021,157.34,98.8726,96.451,0.000208159,0.0443489,21.0344,-343.919,0.220335,0.0,0.0
616,153.75,36.6925,40.6878,157.029,98.8773,97.1822,0.00018746,0.0438298,21.0351,-343.929,0.153658,0.0,0.0
627,156.5,35.5697,39.1549,158.383,98.8909,96.5395,0.000223608,0.0433529,21.0354,-343.949,0.213838,0.0,0.0
638,159.25,34.623,38.6837,159.48,98.9124,96.5485,0.000226797,0.0431607,21.0352,-343.949,0.214943,0.0,0.0
649,162,34.3801,37.5237,158.292,98.9343,96.8027,0.000209365,0.042931,21.0343,-343.919,0.193544,0.0,0.0
660,164.75,32.8864,36.7554,159.037,98.9439,97.0708,0.000259653,0.0427515,21.0341,-343.939,0.169824,0.0,0.0
671,167.5,32.0569,35.742,154.144,98.9511,96.2271,0.000158567,0.0424571,21.0324,-343.939,0.24804,0.0,0.0
682,170.25,31.977,34.9213,159.035,98.9479,96.9599,0.000280384,0.0422407,21.0333,-343.949,0.180342,0.0,0.0
693,173,31.1153,34.1098,157.111,98.9674,96.9034,0.00040414,0.0420655,21.0338,-343.939,0.187275,0.0,0.0
704,175.75,30.8436,33.4346,158.211,98.9869,96.51,0.000294237,0.0417817,21.0339,-343.929,0.225176,0.0,0.0
715,178.5,29.4017,32.7249,153.686,99.0021,96.675,3.09168e-05,0.0417623,21.0339,-343.919,0.211357,0.0,0.0
726,181.25,28.7938,31.4374,155.737,99.0132,97.1187,-0.000115035,0.0418604,21.034,-343.919,0.171663,0.0,0.0
737,184,28.435,31.1409,159.205,99.0188,97.1216,-0.000161219,0.0417228,21.0347,-343.929,0.171902,0.0,0.0
748,186.75,28.4155,31.5618,156.598,99.0455,97.2207,-5.29817e-05,0.0416654,21.0351,-343.929,0.165237,0.0,0.0
759,189.5,27.652,30.7506,160.263,99.0642,97.3701,0.000132813,0.0416337,21.0352,-343.919,0.15327,0.0,0.0
770,192.25,27.6552,30.3091,157.909,99.0965,97.2325,0.000305702,0.041558,21.0347,-343.939,0.168726,0.0,0.0
781,195,26.8857,29.4005,155.897,99.1256,97.1896,0.000333902,0.0417768,21.0345,-343.939,0.175262,0.0,0.0
792,197.75,26.4052,29.0999,157.777,99.1311,97.3071,0.000308978,0.0415956,21.0344,-343.949,0.165027,0.0,0.0
803,200.5,26.4873,28.469,156.793,99.1614,97.339,0.000280761,0.0414865,21.0361,-343.919,0.164826,0.0,0.0
814,203.25,26.0379,28.3876,155.791,99.1845,97.1777,0.000274938,0.041375,21.0371,-343.929,0.181633,0.0,0.0
825,206,25.7761,27.4746,161.014,99.2208,97.2825,0.000273546,0.041429,21.0376,-343.909,0.175302,0.0,0.0
836,208.75,25.592,27.8494,152.986,99.2339,97.2612,0.000282104,0.0415324,21.038,-343.919,0.178424,0.0,0.0
847,211.5,25.4692,27.4274,159.149,99.2514,97.9911,0.000185164,0.0415938,21.0382,-343.919,0.113556,0.0,0.0
858,214.25,24.6741,26.6289,158.592,99.2813,97.567,0.000155658,0.0414921,21.0382,-343.909,0.154773,0.0,0.0
869,217,24.084,25.9665,158.964,99.2993,97.7394,0.000130359,0.0415764,21.0382,-343.919,0.140696,0.0,0.0
880,219.75,25.0524,26.5097,159.905,99.3268,97.4946,0.000288047,0.0415524,21.0382,-343.909,0.165439,0.0,0.0
891,222.5,24.144,26.1075,154.856,99.3176,97.689,0.000289919,0.0416536,21.0382,-343.919,0.146915,0.0,0.0
902,225.25,23.9431,25.7924,156.404,99.3283,97.759,0.000107638,0.0416693,21.0382,-343.929,0.141511,0.0,0.0
913,228,23.6417,25.8351,162.322,99.3327,97.682,-3.13117e-06,0.0414753,21.0382,-343.919,0.148901,0.0,0.0
924,230.75,23.4504,25.3939,153.802,99.3343,97.3038,-0.000111076,0.0414011,21.0382,-343.909,0.18352,0.0,0.0
935,233.5,23.9132,24.3589,157.917,99.3248,97.4078,-2.71287e-06,0.0415704,21.0382,-343.919,0.173174,0.0,0.0
946,236.25,23.4343,25.1002,157.032,99.3323,97.3337,-1.02209e-05,0.0415756,21.0382,-343.919,0.180613,0.0,0.0
957,239,23.3994,24.4375,163.898,99.3256,97.9395,,0.0414373,,-343.929,0.124867,0.0,0.0
968,241.75,23.4234,24.7137,157.354,99.3279,97.978,,,,-343.929,0.121591,0.0,0.0
979,244.5,22.9203,24.1536,154.891,99.3028,97.4954,,,,-343.939,0.163226,0.0,0.0
990,247.25,22.7724,24.0723,158.598,99.2634,97.6206,,,,-343.929,0.148286,0.0,0.0
996,248.75,22.7508,23.9526,157.327,99.2674,97.7365,,,,-343.919,0.138103,0.0,0.0