Folder: fsri_materials_database/01_Data/PE_Foam_Pipe_Insulation/Cone (part 5)

File: PE_Foam_Pipe_Insulation_Cone_HF75Scan_220316_R3.csv
Names,Time,Stack TC,Smoke TC,Exh Press,Smoke Comp,Smoke Meas,CO Meter,CO2 Meter,O2 Meter,Sample Mass,Ext Coeff,Start Test,Flame Verif
Chan Gain,,500,500,1,1,1,1,1,1,1,1,1.0,1.0
Offset,,0,0,0.135167,0,0,0,0,0,0,0,0.0,0.0
Gain,,1,1,25.011,13.0486,13.2841,1,1,1,1.00089,1.0079,1.0,1.0
Units,sec,C,C,Pa,%,%,%,%,%,g,/m,,
Baseline,,41.7072,43.0415,149.5,98.8513,95.6853,0.000414803,0.0604859,20.9928,-492.459,0.287903,,
7,1.5,40.2502,41.9115,144.612,99.1115,95.8751,0.00151423,0.0838485,20.9399,1.73154,0.29352,0.0,1.0
14,3.25,40.5218,41.4373,138.098,99.1083,90.4253,0.00216603,0.122479,20.8823,1.63145,0.810646,0.0,1.0
21,5,41.4271,42.4519,145.332,99.0931,91.8989,0.00286523,0.160109,20.8266,1.63145,0.666374,0.0,1.0
28,6.75,41.5613,42.9126,142.584,99.0987,88.4745,0.00379103,0.182663,20.7918,1.61144,1.00262,0.0,1.0
35,8.5,42.7205,43.8434,136.438,99.1027,79.7191,0.00545096,0.209602,20.7136,1.51135,1.92428,0.0,1.0
42,10.25,43.6365,44.6784,126.007,99.1007,69.2488,0.00887175,0.274864,20.5793,1.29115,3.16898,0.0,0.0
49,12,45.0571,46.1542,115.941,99.0852,65.0282,0.0130056,0.383103,20.3895,0.960856,3.72358,0.0,0.0
56,13.75,47.7744,48.7747,113.703,99.0804,64.1205,0.0179153,0.544601,20.0746,0.860767,3.84743,0.0,0.0
63,15.5,51.0992,52.1918,98.6196,99.0752,63.7423,0.0223183,0.744391,19.7022,0.500446,3.89928,0.0,0.0
70,17.25,55.458,57.0795,109.56,99.0856,62.1417,0.0263108,0.966511,19.3323,0.230205,4.12503,0.0,0.0
77,19,60.3843,62.3888,100.042,99.0708,58.4271,0.0291975,1.14054,19.0395,-0.140125,4.66868,0.0,0.0
84,20.75,65.1911,67.7035,104.298,99.0597,61.7591,0.031017,1.26692,18.8624,-0.340303,4.17734,0.0,0.0
91,22.5,69.0054,72.8154,108.155,99.0637,63.259,0.031601,1.3347,18.7782,-0.770687,3.96553,0.0,0.0
98,24.25,73.4566,77.8265,102.979,99.0613,61.5762,0.0307696,1.3491,18.7592,-1.0109,4.20369,0.0,0.0
105,26,76.6385,82.0705,107.388,99.0649,64.4063,0.0296555,1.3331,18.79,-1.24111,3.80672,0.0,0.0
112,27.75,79.6811,85.1303,104.333,99.0541,65.4222,0.0282483,1.3012,18.8468,-1.53136,3.66739,0.0,0.0
119,29.5,82.3084,88.1972,112.915,99.0513,69.9708,0.0270725,1.27215,18.91,-1.7916,3.07287,0.0,0.0
126,31.25,84.7098,91.5646,108.688,99.0637,68.6995,0.0261228,1.24683,18.9558,-2.07185,3.23609,0.0,0.0
133,33,87.8319,94.006,108.478,99.0438,68.9849,0.025202,1.23301,18.9796,-2.31206,3.19766,0.0,0.0
140,34.75,90.0904,97.184,99.6157,99.0342,70.8728,0.024181,1.22093,19.0063,-2.54227,2.95809,0.0,0.0
147,36.5,92.4236,100.056,117.392,99.0282,69.9648,0.0232812,1.20231,19.0509,-2.77247,3.07157,0.0,0.0
154,38.25,95.034,102.286,108.658,99.0426,70.8878,0.0220681,1.1673,19.1158,-3.01268,2.95697,0.0,0.0
161,40,96.2641,104.564,117.779,99.0442,71.4603,0.0204998,1.11125,19.2408,-3.17283,2.886,0.0,0.0
168,41.75,97.6587,105.69,127.817,99.0338,73.8428,0.0180065,1.01141,19.4375,-3.34298,2.59511,0.0,0.0
175,43.5,97.9074,106.687,127.339,99.0211,78.9699,0.0153083,0.868967,19.6982,-3.42305,2.00048,0.0,0.0
182,45.25,97.4207,106.401,145.027,99.025,92.6124,0.0119709,0.697134,20.023,-3.42305,0.591919,0.0,0.0
189,47,94.948,104.924,142.626,99.0282,94.4939,0.0091214,0.517813,20.3596,-3.43306,0.414389,0.0,0.0
196,48.75,92.416,103.1,145.943,99.0155,95.7328,0.00687487,0.37143,20.5892,-3.43306,0.298088,0.0,0.0
203,50.5,90.9788,100.55,149.905,99.0051,95.9659,0.00534224,0.263501,20.729,-3.46309,0.275661,0.0,0.0
210,52.25,88.3989,98.0242,150.208,99.0012,95.3055,0.00409723,0.19562,20.8096,-3.45308,0.336358,0.0,0.0
217,54,86.5552,95.9951,149.729,99.0027,94.9265,0.0031456,0.15174,20.8668,-3.43306,0.371732,0.0,0.0
224,55.75,84.8413,94.3199,147.535,99.0023,95.6075,0.00232625,0.123977,20.9067,-3.43306,0.30849,0.0,0.0
231,57.5,83.1975,92.3,150.325,98.9789,95.2633,0.00176564,0.106486,20.9317,-3.46309,0.338278,0.0,0.0
238,59.25,81.6049,89.1038,147.422,99.0008,95.0529,0.00138364,0.0950526,20.9476,-3.45308,0.359782,0.0,0.0
245,61,79.7823,88.2926,148.708,98.982,94.4643,0.00115344,0.0875231,20.9581,-3.50312,0.413033,0.0,0.0
252,62.75,78.7262,87.1932,148.152,98.9856,94.4833,0.000987839,0.0821322,20.9652,-3.47309,0.41157,0.0,0.0
259,64.5,77.0206,85.1662,149.677,98.9777,95.4632,0.000853205,0.0783531,20.9701,-3.49311,0.319641,0.0,0.0
266,66.25,75.7142,83.7215,144.118,98.9681,95.0671,0.000740559,0.0757166,20.9734,-3.45308,0.355547,0.0,0.0
273,68,74.5983,82.2258,147.488,98.9753,95.5208,0.000696199,0.0737451,20.9766,-3.47309,0.314098,0.0,0.0
280,69.75,73.0303,80.8768,151.298,98.9745,95.196,0.00059257,0.0717095,20.9796,-3.47309,0.344134,0.0,0.0
287,71.5,71.7038,79.6097,150.235,98.9713,95.2755,0.000460501,0.0701824,20.9824,-3.47309,0.336473,0.0,0.0
294,73.25,70.4396,78.1972,146.115,98.9574,95.3468,0.000390943,0.0689944,20.9839,-3.50312,0.32861,0.0,0.0
301,75,69.4807,76.8261,142.318,98.9589,95.3975,0.000396134,0.0680138,20.9842,-3.4831,0.324054,0.0,0.0
308,76.75,68.5462,75.7541,148.545,98.9582,95.0477,0.00038309,0.0668866,20.9852,-3.51313,0.356467,0.0,0.0
315,78.5,67.6726,75.0905,147.576,98.9506,94.8847,0.000351322,0.0661274,20.986,-3.52314,0.370963,0.0,0.0
322,80.25,66.6745,73.2894,147.236,98.9291,95.6209,0.00033056,0.0654696,20.9873,-3.52314,0.300707,0.0,0.0
329,82,65.8181,72.3485,149.678,98.9311,95.0992,0.00035434,0.0647803,20.9889,-3.51313,0.349259,0.0,0.0
336,83.75,64.8359,71.9142,149.193,98.9331,95.2958,0.000450771,0.0639409,20.9903,-3.52314,0.331176,0.0,0.0
343,85.5,63.8127,70.7997,148.407,98.9382,94.8214,0.000584009,0.0634152,20.991,-3.50312,0.375756,0.0,0.0
350,87.25,62.9966,69.3819,148.622,98.9195,94.4769,0.00076978,0.0630713,20.9911,-3.49311,0.406272,0.0,0.0
357,89,62.4421,68.6345,148.918,98.9231,94.5113,0.000850056,0.0629399,20.9905,-3.4831,0.403367,0.0,0.0
364,90.75,61.1963,67.5995,146.349,98.9199,94.5669,0.000837539,0.0629227,20.9903,-3.49311,0.397887,0.0,0.0
371,92.5,61.2075,66.9836,147.04,98.9155,95.3789,0.000773348,0.062928,20.9902,-3.4831,0.321904,0.0,0.0
378,94.25,59.8717,66.7174,150.003,98.9163,95.2897,0.000697517,0.0629371,20.9901,-3.52314,0.330246,0.0,0.0
385,96,59.3398,65.1447,147.257,98.9032,94.8875,0.000597973,0.0629696,20.9889,-3.51313,0.366464,0.0,0.0
392,97.75,59.1185,64.7132,148.387,98.8956,94.4886,0.000443605,0.06306,20.988,-3.51313,0.403035,0.0,0.0
399,99.5,58.3817,64.1202,148.868,98.8988,95.8167,0.000260446,0.0629148,20.9876,-3.52314,0.279916,0.0,0.0
406,101.25,58.0428,64.0302,146.157,98.898,95.5662,0.000126467,0.0629822,20.9874,-3.51313,0.302993,0.0,0.0
413,103,57.411,62.4686,149.874,98.8928,95.5382,8.02487e-05,0.0631311,20.9873,-3.51313,0.305118,0.0,0.0
420,104.75,56.6519,62.2619,147.155,98.8841,95.3006,0.000158204,0.0631079,20.9872,-3.54316,0.326348,0.0,0.0
427,106.5,56.2081,62.1392,148.294,98.8845,94.2506,0.000254578,0.0631058,20.9872,-3.56318,0.424333,0.0,0.0
434,108.25,55.6838,61.6662,151.644,98.8936,94.9942,0.000293533,0.0632135,20.9872,-3.53315,0.35568,0.0,0.0
441,110,55.1703,60.9953,147.4,98.9008,94.581,0.000270793,0.0631924,20.9872,-3.56318,0.394854,0.0,0.0
448,111.75,54.9772,60.0206,145.448,98.8861,94.8336,0.000307432,0.0631654,20.9872,-3.55317,0.369959,0.0,0.0
455,113.5,54.8269,59.6148,145.682,98.8849,95.1004,0.000389336,0.0632287,20.9872,-3.56318,0.345017,0.0,0.0
462,115.25,54.1179,59.1838,147.346,98.894,95.089,0.000492978,0.0632179,20.9872,-3.56318,0.346891,0.0,0.0
469,117,54.1822,59.0318,146.14,98.8932,95.1989,0.000574735,0.0631981,20.9875,-3.54316,0.336611,0.0,0.0
476,118.75,53.8197,58.3818,151.384,98.8889,94.3402,0.000589331,0.0631178,20.9878,-3.51313,0.416324,0.0,0.0
483,120.5,53.6001,57.8774,150.245,98.8901,95.6841,0.000572141,0.0631299,20.9878,-3.53315,0.291373,0.0,0.0
490,122.25,52.6968,57.3323,148.703,98.8913,94.9613,0.000485561,0.0632058,20.9872,-3.52314,0.358523,0.0,0.0
497,124,52.4837,57.2152,146.684,98.8853,95.687,0.000374118,0.0631631,20.9859,-3.53315,0.290685,0.0,0.0
504,125.75,51.7859,56.2133,148.354,98.8833,95.4117,0.000353257,0.0632417,20.9854,-3.53315,0.315977,0.0,0.0
511,127.5,51.9534,56.1768,144.773,98.8741,94.8721,0.000362716,0.0633564,20.9841,-3.52314,0.365301,0.0,0.0
518,129.25,50.806,55.607,152.414,98.8841,94.9163,0.000345717,0.0634943,20.9832,-3.56318,0.362074,0.0,0.0
525,131,51.9414,55.7231,149.381,98.8881,95.1859,0.000325684,0.063694,20.9827,-3.55317,0.337353,0.0,0.0
532,132.75,50.8728,55.803,148.653,98.8797,94.485,0.000400266,0.0637729,20.9825,-3.57318,0.401952,0.0,0.0
539,134.5,51.0832,54.7577,148.908,98.8693,94.4708,0.00048282,0.0639206,20.9824,-3.53315,0.402354,0.0,0.0
546,136.25,51.2829,54.702,150.328,98.8765,95.0858,0.000504997,0.0641069,20.9824,-3.52314,0.345626,0.0,0.0
553,138,50.9759,54.1907,153.188,98.8761,96.1637,0.000463403,0.0641943,20.9824,-3.52314,0.245923,0.0,0.0
560,139.75,50.4085,53.8574,147.783,98.8777,95.4162,0.000467347,0.064135,20.9823,-3.55317,0.315065,0.0,0.0
567,141.5,49.2491,53.5367,147.248,98.8582,95.4073,0.000511004,0.0641937,20.9823,-3.53315,0.314146,0.0,0.0
574,143.25,49.4272,53.6745,150.105,98.851,95.1077,0.000506015,0.0641137,20.9827,-3.56318,0.341312,0.0,0.0
581,145,49.5291,52.9016,148.997,98.8431,94.551,0.000462875,0.0640407,20.9838,-3.57318,0.392495,0.0,0.0
588,146.75,49.7706,52.7281,146.392,98.8478,94.9431,0.000419694,0.0639151,20.9847,-3.55317,0.356341,0.0,0.0
595,148.5,48.4383,52.5568,146.186,98.8407,95.2147,0.00037886,0.0636278,20.9854,-3.53315,0.330442,0.0,0.0
602,150.25,48.74,52.3546,145.031,98.8236,95.3116,0.000354781,0.0634559,20.9859,-3.52314,0.319918,0.0,0.0
609,152,48.9433,52.0247,147.847,98.8283,95.0894,0.000392286,0.0635385,20.9862,-3.50312,0.340977,0.0,0.0
616,153.75,48.138,51.4336,147.658,98.8259,95.5966,0.000466609,0.0636276,20.9863,-3.49311,0.293734,0.0,0.0
623,155.5,47.9276,51.1292,149.329,98.8335,94.7006,,0.0636929,,-3.50312,0.377662,0.0,0.0
630,157.25,48.4663,51.4645,150.811,98.8339,95.121,,0.0636323,,-3.51313,0.338537,0.0,0.0
637,159,46.9008,50.5481,148.345,98.8283,95.162,,,,-3.52314,0.334233,0.0,0.0
644,160.75,47.7361,51.0947,148.827,98.8439,95.2828,,,,-3.52314,0.324405,0.0,0.0
651,162.5,47.8609,50.2621,148.023,98.861,95.5252,,,,-3.50312,0.30347,0.0,0.0
658,164.25,47.5237,50.5446,148.529,98.8598,94.9804,,,,-3.52314,0.353937,0.0,0.0
663,165.5,47.4968,50.0671,152.692,98.8893,95.5139,,,,-3.54316,0.307048,0.0,0.0