Folder: fsri_materials_database/01_Data/PE_Foam_Pipe_Insulation/Cone (part 4)

File: PE_Foam_Pipe_Insulation_Cone_HF75Scan_220316_R1.csv
Names,Time,Stack TC,Smoke TC,Exh Press,Smoke Comp,Smoke Meas,CO Meter,CO2 Meter,O2 Meter,Sample Mass,Ext Coeff,Start Test,Flame Verif
Chan Gain,,500,500,1,1,1,1,1,1,1,1,1.0,1.0
Offset,,0,0,0.135167,0,0,0,0,0,0,0,0.0,0.0
Gain,,1,1,25.011,13.0486,13.2841,1,1,1,1.00089,1.0079,1.0,1.0
Units,sec,C,C,Pa,%,%,%,%,%,g,/m,,
Baseline,,37.5775,39.0256,151.993,99.0594,95.4444,0.000660779,0.0604723,20.9913,-491.991,0.328767,,
7,1.5,35.7784,37.2908,142.893,98.3019,94.2008,0.00133354,0.0768122,20.9541,2.242,0.37677,0.0,1.0
14,3.25,35.5555,36.8138,138.905,98.2816,90.1796,0.00181233,0.113289,20.8783,2.0218,0.760644,0.0,1.0
21,5,37.1048,38.0123,146.358,98.241,92.1855,0.00246338,0.147539,20.8306,2.08186,0.562482,0.0,1.0
28,6.75,37.0921,38.548,139.508,98.2338,86.8107,0.00329711,0.167465,20.8042,2.0218,1.09296,0.0,1.0
35,8.5,38.0609,39.0597,137.619,98.2282,79.124,0.00477391,0.190816,20.7823,1.93172,1.91217,0.0,0.0
42,10.25,39.426,40.3462,133.336,98.2238,75.7839,0.00742602,0.227913,20.7228,1.77158,2.2931,0.0,0.0
49,12,40.256,41.4463,129.216,98.1884,66.1832,0.0109128,0.304191,20.5219,1.52136,3.48754,0.0,0.0
56,13.75,41.9635,43.3971,125.746,98.1765,64.2377,0.0149413,0.432693,20.2088,1.30116,3.75026,0.0,0.0
63,15.5,44.7059,46.1572,99.6745,98.1645,61.847,0.0189781,0.594257,19.9051,1.02091,4.0845,0.0,0.0
70,17.25,48.8093,50.0643,101.608,98.1609,63.5529,0.0229311,0.812542,19.5438,0.770687,3.84361,0.0,0.0
77,19,53.5349,55.1179,87.5353,98.1502,60.87,0.0263067,1.03148,19.1764,0.310277,4.22399,0.0,0.0
84,20.75,59.6616,62.1791,116.47,98.1072,61.723,0.0286859,1.24605,18.8428,0.0300268,4.09708,0.0,0.0
91,22.5,65.1129,68.8104,95.4528,98.0956,62.464,0.0296031,1.38166,18.6693,-0.260232,3.99052,0.0,0.0
98,24.25,69.6425,73.9318,100.018,98.0893,64.5498,0.0293314,1.43963,18.6184,-0.580517,3.69954,0.0,0.0
105,26,74.7765,79.5415,100.978,98.0646,66.7455,0.0283886,1.44299,18.6592,-0.83074,3.40159,0.0,0.0
112,27.75,77.8757,83.6508,108.442,98.0208,66.4455,0.0273911,1.40964,18.7124,-1.07095,3.43746,0.0,0.0
119,29.5,81.491,87.4364,100.816,98.0104,68.6873,0.026201,1.36306,18.8035,-1.33119,3.14315,0.0,0.0
126,31.25,84.4758,91.3781,109.284,97.9833,69.0765,0.0253731,1.30445,18.9012,-1.59142,3.09075,0.0,0.0
133,33,86.2691,93.5103,108.274,97.9853,69.5289,0.0245861,1.24234,19.0054,-1.85165,3.03321,0.0,0.0
140,34.75,88.8817,96.6041,110.131,97.9423,70.78,0.0238972,1.19767,19.0781,-2.11188,2.87166,0.0,0.0
147,36.5,91.2822,99.0549,114.777,97.9188,69.0514,0.0228725,1.16062,19.1403,-2.3621,3.08815,0.0,0.0
154,38.25,93.3371,101.453,117.154,97.8941,70.2749,0.0215399,1.12458,19.2065,-2.5823,2.93063,0.0,0.0
161,40,95.1066,103.829,109.382,97.8862,71.798,0.0197657,1.06824,19.326,-2.81251,2.74034,0.0,0.0
168,41.75,96.1181,104.954,119.21,97.873,72.9603,0.0177072,0.99288,19.4966,-2.98266,2.59718,0.0,0.0
175,43.5,96.9098,106.246,135.674,97.8639,91.0739,0.0148792,0.843263,19.7615,-2.99267,0.635738,0.0,0.0
182,45.25,95.2994,104.757,145.159,97.844,92.7653,0.0113519,0.668152,20.1538,-2.97265,0.471254,0.0,0.0
189,47,93.0845,102.748,146.829,97.8157,94.3589,0.00837472,0.489385,20.4821,-2.99267,0.318103,0.0,0.0
196,48.75,90.0741,100.235,145.683,97.8029,93.8274,0.00611097,0.335672,20.6837,-2.99267,0.366891,0.0,0.0
203,50.5,87.9368,97.8625,148.546,97.7755,94.4919,0.00446615,0.23645,20.8041,-2.97265,0.302017,0.0,0.0
210,52.25,86.0544,95.3996,151.889,97.7607,93.3932,0.00332835,0.174641,20.8762,-2.99267,0.404082,0.0,0.0
217,54,83.7499,93.6577,147.007,97.7249,93.7326,0.00256955,0.135756,20.9206,-2.99267,0.368776,0.0,0.0
224,55.75,81.9881,91.4414,149.928,97.7094,93.3507,0.00207371,0.11248,20.9442,-2.98266,0.403466,0.0,0.0
231,57.5,80.3572,89.3709,147.663,97.7094,93.9571,0.0017506,0.0971098,20.9597,-3.01268,0.346212,0.0,0.0
238,59.25,78.7418,87.6724,150.67,97.7141,93.4938,0.00150393,0.0870928,20.9702,-3.00268,0.390356,0.0,0.0
245,61,76.7961,85.3105,150.814,97.6875,92.9716,0.00129117,0.080062,20.9787,-3.00268,0.437457,0.0,0.0
252,62.75,75.4382,83.8933,148.429,97.6795,93.358,0.00111777,0.0750116,20.9842,-3.01268,0.400073,0.0,0.0
259,64.5,74.4153,82.9266,147.867,97.6588,93.4293,0.000939447,0.07139,20.9883,-3.01268,0.391444,0.0,0.0
266,66.25,73.2321,81.1464,147.886,97.648,93.2274,0.000778318,0.0689123,20.9905,-3.01268,0.409596,0.0,0.0
273,68,71.3553,80.0285,145.266,97.6381,93.5444,0.000679497,0.0668316,20.9934,-3.00268,0.37868,0.0,0.0
280,69.75,70.2289,78.0847,151.534,97.6369,93.4492,0.000615284,0.0652558,20.9951,-3.02269,0.387581,0.0,0.0
287,71.5,68.637,76.2347,154.511,97.6122,93.6823,0.000559579,0.0641265,20.9956,-3.02269,0.363317,0.0,0.0
294,73.25,67.8162,75.9025,149.375,97.6003,92.7073,0.000494199,0.0631667,20.9958,-3.02269,0.454732,0.0,0.0
301,75,66.6863,74.4975,148.411,97.5907,92.7332,0.000478602,0.0623014,20.9967,-3.00268,0.451393,0.0,0.0
308,76.75,65.8418,73.3061,150.317,97.5517,93.6348,0.000489654,0.061622,20.9975,-3.01268,0.362311,0.0,0.0
315,78.5,64.7312,72.2683,146.776,97.5361,93.0997,0.000528215,0.0611097,20.9985,-3.04271,0.411577,0.0,0.0
322,80.25,63.4108,71.0565,146.098,97.517,92.8467,0.000659975,0.0606894,20.9991,-3.05272,0.433901,0.0,0.0
329,82,62.8342,70.2871,149.388,97.5051,93.4601,0.000810483,0.0602962,21.0001,-3.0327,0.374601,0.0,0.0
336,83.75,61.8065,69.274,154.835,97.4669,93.1488,0.000909057,0.05989,21.0015,-3.05272,0.400637,0.0,0.0
343,85.5,61.1579,68.0295,148.15,97.4322,93.3588,0.000981428,0.0595641,21.0026,-3.0327,0.377584,0.0,0.0
350,87.25,60.1689,67.186,148.266,97.4039,92.8699,0.00102205,0.0592391,21.0031,-3.0327,0.421441,0.0,0.0
357,89,59.4216,66.7673,151.228,97.3888,93.4467,0.00101549,0.0591056,21.0034,-3.04271,0.365317,0.0,0.0
364,90.75,58.9375,65.5768,150.946,97.3741,93.8294,0.000958561,0.0590694,21.0035,-3.02269,0.327846,0.0,0.0
371,92.5,57.9381,64.1773,149.2,97.341,92.9793,0.000804115,0.0588432,21.0035,-3.04271,0.405313,0.0,0.0
378,94.25,57.3603,63.6096,154.168,97.3167,93.2809,0.000628121,0.0586218,21.0036,-3.04271,0.374474,0.0,0.0
385,96,56.5008,63.0897,147.924,97.2964,93.3949,0.000480813,0.0586305,21.0036,-3.05272,0.361837,0.0,0.0
392,97.75,56.7757,62.3126,147.758,97.2873,92.8099,0.000432152,0.0586311,21.0036,-3.07274,0.416557,0.0,0.0
399,99.5,55.962,61.8209,150.631,97.265,93.3709,0.000512925,0.0586921,21.0036,-3.05272,0.361243,0.0,0.0
406,101.25,55.0119,60.9068,149.139,97.2327,92.8451,0.000542441,0.0586947,21.0022,-3.06273,0.408239,0.0,0.0
413,103,54.9536,60.4094,148.543,97.2239,93.4674,0.000467075,0.0587636,21.0004,-3.06273,0.348383,0.0,0.0
420,104.75,53.6854,59.9379,150.421,97.218,92.49,0.000338276,0.0588421,20.9995,-3.06273,0.440782,0.0,0.0
427,106.5,53.2954,58.6817,151.241,97.2001,92.9586,0.00023952,0.0590194,20.9991,-3.05272,0.394467,0.0,0.0
434,108.25,52.861,58.6704,152.526,97.1766,93.0717,0.000320954,0.0591764,20.9979,-3.04271,0.381578,0.0,0.0
441,110,52.6284,58.268,151.154,97.1646,92.8046,0.000510407,0.0593404,20.9971,-3.06273,0.405907,0.0,0.0
448,111.75,52.4856,57.5887,148.606,97.1507,92.4418,0.000603583,0.0594579,20.9955,-3.06273,0.439273,0.0,0.0
455,113.5,51.7653,56.9365,150.189,97.1411,93.088,0.000530746,0.0594909,20.9947,-3.07274,0.376813,0.0,0.0
462,115.25,51.5062,56.4808,145.94,97.1192,93.0122,0.000486443,0.0596714,20.9938,-3.04271,0.382023,0.0,0.0
469,117,51.3645,55.6371,150.142,97.1045,93.4958,0.000512884,0.0598643,20.9927,-3.06273,0.334827,0.0,0.0
476,118.75,50.436,56.0158,148.699,97.1021,93.2651,0.00055652,0.0600768,20.9928,-3.05272,0.356451,0.0,0.0
483,120.5,50.5191,55.087,151.366,97.1101,93.3162,0.0005933,0.0601598,20.9934,-3.07274,0.352335,0.0,0.0
490,122.25,50.2797,54.6845,148.958,97.0973,93.285,0.000654474,0.0601355,20.9937,-3.08275,0.354132,0.0,0.0
497,124,49.8466,54.1391,147.484,97.0921,92.5853,0.000679743,0.0600991,20.9956,-3.10276,0.420229,0.0,0.0
504,125.75,48.7722,53.9991,150.288,97.0802,92.8828,0.000646928,0.0602715,20.9969,-3.06273,0.390771,0.0,0.0
511,127.5,48.7354,53.1633,149.828,97.0814,92.9696,0.000599258,0.060207,20.9976,-3.08275,0.382626,0.0,0.0
518,129.25,48.4744,52.7673,152.138,97.0882,92.6639,0.000578645,0.0601828,20.9979,-3.09276,0.412359,0.0,0.0
525,131,48.1185,52.6115,151.779,97.0746,93.3296,0.000648156,0.0601841,20.998,-3.10276,0.34784,0.0,0.0
532,132.75,47.7589,52.1069,148.622,97.0714,93.2635,0.000700763,0.0601775,20.9987,-3.09276,0.353812,0.0,0.0
539,134.5,48.1343,52.0416,154.09,97.0758,92.7944,0.000645093,0.0601191,20.9997,-3.09276,0.398788,0.0,0.0
546,136.25,47.1907,51.1269,145.178,97.0913,93.4196,0.00055544,0.060146,20.9995,-3.09276,0.340842,0.0,0.0
553,138,47.7015,51.1597,150.23,97.0917,93.4751,0.000451836,0.0601635,20.9988,-3.09276,0.335623,0.0,0.0
560,139.75,46.9449,51.3986,151.524,97.0826,93.0839,0.000399583,0.0599115,20.9985,-3.10276,0.371869,0.0,0.0
567,141.5,47.2213,51.1148,148.484,97.0965,93.2501,0.000432347,0.0598801,20.9983,-3.11277,0.357365,0.0,0.0
574,143.25,46.5055,50.3581,148.479,97.1045,93.0762,0.000512001,0.0598254,20.9982,-3.11277,0.374595,0.0,0.0
581,145,46.6728,50.4865,150.749,97.1144,93.0032,0.000528783,0.0596995,20.9982,-3.09276,0.382436,0.0,0.0
588,146.75,45.8519,49.8185,151.115,97.1212,92.8236,0.000397924,0.0596786,20.9977,-3.09276,0.400141,0.0,0.0
595,148.5,46.5223,50.0941,148.821,97.1212,93.0884,0.000247765,0.059693,20.9974,-3.10276,0.374963,0.0,0.0
602,150.25,46.3823,49.6043,149.404,97.1539,93.377,0.00022237,0.0597832,20.9976,-3.10276,0.350562,0.0,0.0
609,152,46.0032,49.4211,151.241,97.1618,93.4771,0.000310812,0.0597117,20.9977,-3.11277,0.341812,0.0,0.0
616,153.75,45.7617,49.3783,145.661,97.175,93.7958,0.000392739,0.0596955,20.9972,-3.11277,0.31292,0.0,0.0
623,155.5,46.1184,48.7201,152.115,97.1929,93.6154,0.000391756,0.0595993,20.9963,-3.11277,0.331571,0.0,0.0
630,157.25,45.5249,48.7102,149.66,97.2132,93.5278,,0.059705,,-3.11277,0.341692,0.0,0.0
637,159,45.5318,48.4702,150.182,97.2363,93.2363,,0.0598547,,-3.11277,0.371391,0.0,0.0
644,160.75,44.7595,48.377,147.039,97.2582,93.2343,,,,-3.10276,0.373572,0.0,0.0
651,162.5,44.878,48.1743,149.021,97.2745,93.7844,,,,-3.09276,0.323043,0.0,0.0
658,164.25,44.3769,48.1465,156.31,97.2948,93.4848,,,,-3.13279,0.353177,0.0,0.0
665,166,45.1233,47.8777,146.514,97.3358,93.0308,,,,-3.12278,0.399949,0.0,0.0
670,167.25,45.0676,47.5409,148.354,97.3394,94.2515,,,,-3.13279,0.285023,0.0,0.0

File: PE_Foam_Pipe_Insulation_Cone_HF75Scan_220316_R2.csv
Names,Time,Stack TC,Smoke TC,Exh Press,Smoke Comp,Smoke Meas,CO Meter,CO2 Meter,O2 Meter,Sample Mass,Ext Coeff,Start Test,Flame Verif
Chan Gain,,500,500,1,1,1,1,1,1,1,1,1.0,1.0
Offset,,0,0,0.135167,0,0,0,0,0,0,0,0.0,0.0
Gain,,1,1,25.011,13.0486,13.2841,1,1,1,1.00089,1.0079,1.0,1.0
Units,sec,C,C,Pa,%,%,%,%,%,g,/m,,
Baseline,,40.7229,42.0087,150.434,99.0272,95.6898,0.000328657,0.0601087,20.9941,-492.294,0.303185,,
7,1.5,39.2462,40.437,147.771,98.5273,93.6004,0.0013555,0.0738291,20.9614,5.13458,0.453548,0.0,0.0
14,3.25,38.7582,39.9566,139.823,98.497,92.2662,0.00184381,0.0996773,20.8996,5.01447,0.577761,0.0,1.0
21,5,39.8022,40.736,145.299,98.4636,91.4785,0.00249074,0.137021,20.8464,5.06451,0.650562,0.0,1.0
28,6.75,39.4423,40.941,139.67,98.4441,83.7459,0.00353113,0.165705,20.8063,5.0445,1.42964,0.0,1.0
35,8.5,40.9199,41.8569,139.656,98.4194,78.419,0.00530318,0.199642,20.7588,4.89436,2.00849,0.0,0.0
42,10.25,41.5916,42.6392,127.191,98.3919,67.6848,0.00801999,0.255156,20.6609,4.67417,3.30749,0.0,0.0
49,12,43.6595,44.5797,127.864,98.3497,70.2591,0.0118067,0.361229,20.4117,4.484,2.97367,0.0,0.0
56,13.75,45.0617,47.1749,115.928,98.3254,63.7832,0.0158554,0.499618,20.1121,4.20375,3.82643,0.0,0.0
63,15.5,49.046,49.9522,109.171,98.2907,63.5408,0.0197188,0.665957,19.8259,3.99356,3.85698,0.0,0.0
70,17.25,52.2657,54.0049,103.295,98.2593,64.9982,0.0229314,0.842883,19.5527,3.66326,3.65366,0.0,0.0
77,19,57.8896,58.9547,99.9576,98.2243,61.2414,0.0250037,1.00139,19.2926,3.363,4.17688,0.0,0.0
84,20.75,62.081,63.8509,103.449,98.184,64.1387,0.0261842,1.10914,19.1309,3.18284,3.76457,0.0,0.0
91,22.5,65.9856,68.9905,104.101,98.1486,62.9935,0.0265867,1.17118,19.0515,2.87256,3.92067,0.0,0.0
98,24.25,69.703,73.5599,109.727,98.1255,63.313,0.0262562,1.19772,19.0265,2.64235,3.87386,0.0,0.0
105,26,73.2434,77.5796,103.699,98.0889,65.6241,0.0254996,1.20043,19.0316,2.41215,3.55357,0.0,0.0
112,27.75,76.3867,81.1098,115.058,98.0407,67.8587,0.0244736,1.18532,19.0586,2.18194,3.25319,0.0,0.0
119,29.5,79.3929,84.6906,108.2,98.0116,68.376,0.0233742,1.15296,19.1202,1.90169,3.18342,0.0,0.0
126,31.25,81.606,87.6086,113.224,97.9829,64.6808,0.0223697,1.11056,19.1924,1.71153,3.67204,0.0,0.0
133,33,83.5724,89.8251,114.211,97.9395,68.3411,0.0210896,1.05944,19.2838,1.50134,3.18143,0.0,0.0
140,34.75,85.9029,91.5655,111.305,97.889,71.8839,0.0198542,1.01974,19.3642,1.30116,2.73002,0.0,0.0
147,36.5,86.9683,93.3661,116.231,97.8583,69.6794,0.0186387,0.972956,19.4479,1.11099,3.00264,0.0,0.0
154,38.25,88.6781,95.2332,119.908,97.8304,70.0029,0.0175553,0.925629,19.5308,0.940838,2.95917,0.0,0.0
161,40,89.8242,96.3631,114.123,97.8117,73.962,0.0163896,0.876633,19.6282,0.780696,2.47107,0.0,0.0
168,41.75,90.3256,97.6268,118.62,97.7631,71.7862,0.0153084,0.82421,19.7264,0.600535,2.73067,0.0,0.0
175,43.5,90.875,98.5542,123.129,97.7209,75.5816,0.0134828,0.756461,19.8445,0.490437,2.27135,0.0,0.0
182,45.25,91.0983,98.1255,130.647,97.691,79.6879,0.0112611,0.670718,20.0112,0.420375,1.8009,0.0,0.0
189,47,90.0385,98.0809,146.095,97.6624,93.1034,0.00899772,0.528824,20.2953,0.420375,0.422665,0.0,0.0
196,48.75,88.6907,96.3996,145.495,97.6198,93.3012,0.00715602,0.387105,20.5324,0.420375,0.40004,0.0,0.0
203,50.5,86.4738,94.5874,145.974,97.5779,93.7917,0.00553362,0.277014,20.6987,0.410366,0.349891,0.0,0.0
210,52.25,84.538,92.0797,144.612,97.5652,93.5412,0.00436093,0.205039,20.8115,0.410366,0.372385,0.0,0.0
217,54,82.8411,90.5022,147.623,97.5345,92.8463,0.00342278,0.156023,20.8815,0.420375,0.435527,0.0,0.0
224,55.75,80.802,88.4488,144.395,97.5055,93.8923,0.00270648,0.124926,20.92,0.440392,0.33385,0.0,0.0
231,57.5,78.4758,86.5189,153.901,97.4899,94.0698,0.00205777,0.105559,20.9429,0.410366,0.315737,0.0,0.0
238,59.25,77.9694,85.2278,150.918,97.437,93.992,0.00157632,0.0927178,20.9581,0.410366,0.318251,0.0,0.0
245,61,76.1915,83.7826,147.174,97.4171,93.4042,0.00125428,0.0841288,20.9697,0.400357,0.371912,0.0,0.0
252,62.75,74.2809,82.2018,146.343,97.4075,93.5193,0.0010419,0.078118,20.9763,0.360321,0.360153,0.0,0.0
259,64.5,73.1623,80.6172,149.62,97.3761,93.9677,0.000861965,0.073755,20.981,0.380339,0.31501,0.0,0.0
266,66.25,72.2227,79.1461,149.6,97.3573,94.4485,0.000752577,0.070857,20.9851,0.37033,0.268187,0.0,0.0
273,68,71.4365,77.4444,148.049,97.3319,94.2109,0.000653068,0.0686302,20.9873,0.380339,0.288139,0.0,0.0
280,69.75,70.3634,76.8611,147.839,97.3239,93.508,0.000562836,0.0669807,20.9893,0.350312,0.353633,0.0,0.0
287,71.5,69.0958,75.6172,147.012,97.3048,93.2603,0.000526874,0.0657241,20.9906,0.380339,0.375347,0.0,0.0
294,73.25,67.5874,74.1577,146.134,97.2689,93.8071,0.000548359,0.0646169,20.9911,0.390348,0.320396,0.0,0.0
301,75,66.6588,73.0712,148.36,97.2443,93.5489,0.000542722,0.0639057,20.9914,0.380339,0.342524,0.0,0.0
308,76.75,65.5452,72.0831,146.711,97.2279,93.8829,0.000541833,0.0633747,20.9915,0.380339,0.309526,0.0,0.0
315,78.5,64.3743,71.299,151.088,97.212,93.0344,0.000599833,0.0629171,20.9918,0.360321,0.388347,0.0,0.0
322,80.25,63.5122,70.2795,145.698,97.1825,93.1634,0.00068973,0.0624139,20.993,0.350312,0.373423,0.0,0.0
329,82,62.6099,69.346,149.979,97.1825,93.3596,0.000730413,0.0620914,20.9935,0.360321,0.354822,0.0,0.0
336,83.75,62.1118,68.4395,147.177,97.1614,93.6097,0.000734443,0.0618116,20.9938,0.360321,0.329245,0.0,0.0
343,85.5,61.2296,67.5101,151.135,97.1515,93.1621,0.000714649,0.0615621,20.9939,0.360321,0.370713,0.0,0.0
350,87.25,60.8048,66.4756,146.204,97.1347,93.0851,0.000609039,0.0613408,20.9942,0.360321,0.376503,0.0,0.0
357,89,59.5253,65.8529,149.322,97.1252,92.5918,0.000488176,0.0611517,20.9953,0.350312,0.422618,0.0,0.0
364,90.75,59.6777,65.4868,149.275,97.1085,92.8038,0.00044123,0.0610252,20.9958,0.390348,0.400872,0.0,0.0
371,92.5,58.3204,64.1883,150.028,97.1053,92.9696,0.000405877,0.0607878,20.9961,0.380339,0.384801,0.0,0.0
378,94.25,58.1101,63.4715,147.881,97.1037,92.9149,0.000356005,0.0607501,20.9962,0.37033,0.389863,0.0,0.0
385,96,57.3844,63.1598,148.87,97.0862,93.2408,0.000345063,0.0607758,20.9963,0.360321,0.357306,0.0,0.0
392,97.75,56.8496,62.3442,145.897,97.0834,93.2084,0.000366395,0.0606437,20.9963,0.37033,0.360129,0.0,0.0
399,99.5,56.6291,61.5278,147.693,97.0886,93.5432,0.000408784,0.0605469,20.9963,0.360321,0.328894,0.0,0.0
406,101.25,55.9943,61.1954,145.914,97.0893,92.8176,0.0004193,0.0603547,20.9963,0.360321,0.39782,0.0,0.0
413,103,55.5797,60.4231,145.922,97.0818,93.1792,0.000389106,0.0601167,20.9971,0.37033,0.362752,0.0,0.0
420,104.75,54.9982,59.5635,144,97.0953,93.4094,0.000348889,0.0599149,20.9976,0.330294,0.342163,0.0,0.0
427,106.5,53.9431,59.3694,144.991,97.1001,93.298,0.000219723,0.059846,20.9978,0.340303,0.353157,0.0,0.0
434,108.25,54.0636,59.1704,147.786,97.0993,93.9831,0.000149525,0.0597465,20.9989,0.360321,0.288397,0.0,0.0
441,110,53.4601,58.5537,147.879,97.112,92.8832,0.00019758,0.0595603,20.9996,0.360321,0.393633,0.0,0.0
448,111.75,53.3621,57.7277,152.769,97.1244,94.1562,0.000301599,0.0593001,21,0.350312,0.274411,0.0,0.0
455,113.5,52.523,57.5425,145.288,97.1312,93.5436,0.000389788,0.0591603,21.0002,0.37033,0.332734,0.0,0.0
462,115.25,52.608,57.2181,151.223,97.1467,93.4573,0.000423849,0.059064,21.0003,0.350312,0.342313,0.0,0.0
469,117,52.0952,56.6639,150.396,97.1646,92.9765,0.000383591,0.0588868,21.0003,0.350312,0.389547,0.0,0.0
476,118.75,51.6719,55.9706,149.253,97.1726,93.4017,0.000260833,0.0587988,21.0003,0.330294,0.349925,0.0,0.0
483,120.5,51.717,55.9186,154.153,97.1821,93.6916,0.000195632,0.0586822,21.0003,0.320285,0.323398,0.0,0.0
490,122.25,51.2167,55.0497,151.928,97.2084,92.9445,0.000176149,0.0586249,21.0014,0.330294,0.396578,0.0,0.0
497,124,51.0834,55.036,146.33,97.2395,93.6259,0.000165837,0.0585378,21.0025,0.310277,0.334813,0.0,0.0
504,125.75,50.5732,54.2794,147.101,97.2518,93.4082,0.000189401,0.0584898,21.003,0.310277,0.356517,0.0,0.0
511,127.5,50.1365,54.2946,146.552,97.2733,93.21,0.000276208,0.0583853,21.0031,0.330294,0.377256,0.0,0.0
518,129.25,50.3322,53.775,144.129,97.2885,93.0588,0.000293807,0.0583115,21.0032,0.310277,0.392986,0.0,0.0
525,131,49.8329,53.7559,150.754,97.3179,93.9016,0.000173744,0.058446,21.0033,0.310277,0.315949,0.0,0.0
532,132.75,49.83,53.1662,149.381,97.3518,94.4623,2.64017e-05,0.058461,21.0033,0.330294,0.266391,0.0,0.0
539,134.5,49.118,53.1652,151.249,97.341,93.5088,-4.36594e-06,0.0584622,21.0027,0.310277,0.355112,0.0,0.0
546,136.25,48.8706,52.3711,146.095,97.3685,93.3989,3.43582e-05,0.058658,21.0013,0.310277,0.368001,0.0,0.0
553,138,49.0773,52.086,149.299,97.3896,93.9028,5.58812e-05,0.0588293,21.0007,0.320285,0.322344,0.0,0.0
560,139.75,48.4981,52.3151,149.73,97.4254,92.9826,3.81063e-05,0.059046,21.0004,0.310277,0.412669,0.0,0.0
567,141.5,48.4803,51.7764,151.441,97.431,93.5765,-7.78355e-06,0.0590029,21.0003,0.300268,0.356883,0.0,0.0
574,143.25,48.011,51.3287,150.353,97.4418,93.5546,-2.43546e-05,0.0590067,21.0002,0.320285,0.359927,0.0,0.0
581,145,48.1997,51.151,145.643,97.4637,93.1269,3.51473e-05,0.0589614,21.0002,0.300268,0.402427,0.0,0.0
588,146.75,47.9173,51.5999,149.696,97.4915,93.9652,5.73017e-05,0.0589446,21.0001,0.290259,0.325717,0.0,0.0
595,148.5,47.6055,50.3452,144.337,97.5194,93.7435,-2.08057e-06,0.0590774,21.0002,0.290259,0.349135,0.0,0.0
602,150.25,47.5759,49.8577,152.015,97.5365,94.1197,1.78026e-05,0.0591371,21.0006,0.300268,0.315276,0.0,0.0
609,152,46.8762,50.4167,148.171,97.5413,93.2067,0.000149554,0.0591654,21.0008,0.310277,0.401889,0.0,0.0
616,153.75,47.2896,49.9529,147.935,97.5644,93.5817,0.000269553,0.0590711,21.0009,0.290259,0.368482,0.0,0.0
623,155.5,46.6101,49.1231,147.351,97.5995,93.9409,,0.0591419,,0.300268,0.337788,0.0,0.0
630,157.25,46.3516,49.3957,146.18,97.6086,93.4934,,0.0592155,,0.300268,0.38084,0.0,0.0
637,159,46.8978,50.0054,147.654,97.6297,93.7715,,,,0.320285,0.356492,0.0,0.0
644,160.75,46.5723,49.45,144.407,97.6345,94.0686,,,,0.300268,0.328951,0.0,0.0
651,162.5,46.504,48.9782,151.744,97.6699,94.2438,,,,0.300268,0.315714,0.0,0.0
658,164.25,46.2494,49.3864,148.945,97.6747,94.6102,,,,0.310277,0.281834,0.0,0.0
665,166,46.1528,49.2826,146.742,97.6787,94.0796,,,,0.310277,0.331924,0.0,0.0