Folder: fsri_materials_database/01_Data/PE_Foam_Pipe_Insulation/MCC

Note: 01_Data/README.md
# Materials and Products Database
## 01_Data

Raw data generated from each apparatus are included here in plain-text format. The data is organized first by material, next by the short name of test apparatus used, and where applicable additional filtering by test settings.

### material.json

Each material directory contains a json file of the same name as the material. This file links the data stored in the repository as well as data and graphs produced by the accompanying scripts (__02_Scripts__) to the respective landing page for the material on the front-end website.

File: PE_Foam_Pipe_Insulation_MCC_30K_min_220127_R1.txt
Sample ID:	C:\MCC\MCC Cal\Test\PE_Foam_Pipe_Insulation_MCC_30K_min_220127_R1.txt
Sample Weight (mg):	4.17
Heating Rate (C/s):	0.5
Combustor Temp (C):	900
N2 Flow Rate (cc/min):	80
O2 Flow Rate (cc/min):	20
Calibration File:	C:\MCC\MCC Cal\Coeff1 JN10440_30_210304.txt.txt
T Correction Coefficients:	0	1.024463	0
Time Shift (s):	14
*
Time (s)	Temperature (C)	N2 flow rate (cc/min)	O2 flow rate (cc/min)	Flow Rate (cc/min)	Oxygen (%)	HRR (W/g)	Heating rate (C/s)
0.000	113.571	80.009	19.994	103.769	20.170	-0.435	0.005
7.500	113.532	80.008	19.994	103.767	20.170	-0.414	-0.000
15.000	113.490	80.011	19.993	103.781	20.166	-0.119	0.009
22.500	113.621	80.011	19.993	103.885	20.153	0.879	0.048
30.000	114.141	80.010	19.993	103.981	20.139	2.013	0.107
37.500	115.140	80.010	19.994	103.977	20.131	2.624	0.148
45.000	116.619	80.011	19.994	103.997	20.124	3.132	0.206
52.500	118.474	80.008	19.993	104.009	20.121	3.371	0.297
60.001	120.628	80.009	19.993	103.998	20.124	3.186	0.318
67.500	123.065	80.007	19.995	104.014	20.123	3.199	0.333
75.000	125.778	80.009	19.995	104.014	20.122	3.321	0.395
82.500	128.624	80.009	19.994	104.019	20.122	3.329	0.399
90.000	131.688	80.008	19.993	104.019	20.120	3.493	0.393
97.501	134.891	80.009	19.995	104.027	20.118	3.623	0.445
105.000	138.290	80.011	19.993	104.019	20.119	3.576	0.464
112.500	141.755	80.008	19.993	104.044	20.121	3.391	0.460
120.000	145.395	80.012	19.993	104.024	20.121	3.420	0.465
127.500	149.089	80.012	19.993	104.016	20.123	3.214	0.490
135.000	152.856	80.009	19.994	104.016	20.121	3.352	0.529
142.500	156.600	80.008	19.994	104.021	20.124	3.128	0.489
150.000	160.409	80.008	19.993	104.014	20.124	3.173	0.517
157.500	164.251	80.009	19.993	104.002	20.120	3.483	0.531
165.000	168.027	80.007	19.994	103.982	20.126	3.021	0.492
172.500	171.853	80.008	19.995	103.977	20.124	3.140	0.521
180.000	175.587	80.009	19.994	103.974	20.119	3.523	0.478
187.500	179.345	80.010	19.994	103.975	20.119	3.504	0.476
195.000	183.031	80.009	19.993	103.974	20.119	3.531	0.520
202.500	186.738	80.010	19.993	103.976	20.121	3.386	0.496
210.000	190.397	80.011	19.994	103.970	20.117	3.719	0.477
217.500	194.048	80.009	19.994	103.978	20.113	4.031	0.479
225.000	197.616	80.008	19.994	103.979	20.112	4.067	0.460
232.500	201.255	80.008	19.994	103.957	20.108	4.412	0.516
240.000	204.905	80.008	19.994	103.965	20.108	4.403	0.480
247.500	208.574	80.009	19.993	103.959	20.107	4.499	0.519
255.000	212.283	80.008	19.995	103.968	20.107	4.488	0.504
262.500	216.003	80.008	19.995	103.945	20.101	4.906	0.509
270.000	219.659	80.007	19.995	103.947	20.104	4.730	0.508
277.500	223.362	80.008	19.994	103.961	20.097	5.226	0.503
285.000	227.101	80.010	19.994	103.943	20.098	5.200	0.513
292.500	230.880	80.009	19.992	103.949	20.098	5.187	0.478
300.000	234.646	80.010	19.992	103.937	20.095	5.412	0.472
307.500	238.466	80.010	19.993	103.936	20.096	5.299	0.506
315.000	242.165	80.008	19.992	103.934	20.099	5.114	0.487
322.500	245.995	80.010	19.993	103.929	20.101	4.940	0.493
330.000	249.845	80.009	19.993	103.927	20.101	4.925	0.512
337.500	253.647	80.010	19.993	103.937	20.104	4.691	0.512
345.000	257.431	80.010	19.993	103.936	20.103	4.748	0.485
352.500	261.160	80.009	19.992	103.930	20.104	4.680	0.501
360.000	264.896	80.008	19.995	103.929	20.110	4.233	0.493
367.500	268.630	80.009	19.993	103.921	20.111	4.133	0.502
375.001	272.416	80.011	19.992	103.908	20.112	4.108	0.493
382.500	276.168	80.010	19.993	103.912	20.112	4.055	0.484
390.000	279.840	80.009	19.994	103.906	20.119	3.557	0.486
397.500	283.560	80.008	19.993	103.916	20.117	3.714	0.528
405.000	287.296	80.008	19.995	103.910	20.120	3.472	0.516
412.500	290.970	80.007	19.994	103.905	20.121	3.357	0.515
420.000	294.691	80.007	19.993	103.906	20.123	3.219	0.507
427.500	298.384	80.009	19.993	103.926	20.125	3.100	0.489
435.000	302.133	80.010	19.994	103.900	20.124	3.170	0.474
442.500	305.830	80.009	19.994	103.909	20.118	3.627	0.516
450.000	309.552	80.010	19.994	103.904	20.120	3.431	0.503
457.500	313.309	80.011	19.994	103.903	20.125	3.095	0.498
465.000	317.097	80.009	19.994	103.898	20.124	3.136	0.494
472.500	320.868	80.009	19.993	103.906	20.121	3.344	0.511
480.000	324.624	80.009	19.992	103.902	20.113	4.012	0.489
487.500	328.425	80.009	19.994	103.913	20.111	4.175	0.490
495.000	332.241	80.010	19.994	103.903	20.103	4.749	0.511
502.500	336.094	80.010	19.992	103.905	20.100	4.987	0.494
510.000	339.986	80.011	19.993	103.905	20.093	5.595	0.541
517.500	343.844	80.011	19.994	103.902	20.091	5.712	0.516
525.000	347.659	80.009	19.994	103.903	20.089	5.863	0.510
532.500	351.538	80.009	19.993	103.903	20.090	5.829	0.509
540.000	355.476	80.012	19.993	103.901	20.089	5.833	0.517
547.500	359.433	80.010	19.993	103.900	20.089	5.884	0.513
555.000	363.315	80.008	19.994	103.901	20.094	5.487	0.519
562.500	367.195	80.010	19.993	103.897	20.091	5.705	0.505
570.000	371.111	80.010	19.994	103.897	20.090	5.822	0.595
577.500	374.965	80.009	19.993	103.898	20.090	5.780	0.521
585.000	378.827	80.008	19.993	103.893	20.092	5.669	0.532
592.500	382.613	80.009	19.993	103.893	20.092	5.612	0.520
600.001	386.458	80.010	19.992	103.892	20.096	5.322	0.532
607.500	390.225	80.010	19.992	103.886	20.099	5.108	0.505
615.000	394.103	80.010	19.992	103.873	20.097	5.228	0.514
622.500	397.905	80.012	19.994	103.870	20.090	5.754	0.487
630.000	401.643	80.010	19.992	103.860	20.079	6.635	0.474
637.500	405.368	80.008	19.994	103.864	20.068	7.478	0.494
645.000	409.092	80.009	19.993	103.859	20.052	8.717	0.487
652.500	412.824	80.008	19.994	103.861	20.032	10.329	0.504
660.000	416.596	80.010	19.993	103.864	20.004	12.506	0.499
667.500	420.390	80.009	19.993	103.860	19.969	15.212	0.494
675.000	424.086	80.009	19.994	103.850	19.923	18.778	0.495
682.500	427.801	80.010	19.993	103.856	19.860	23.656	0.476
690.000	431.569	80.010	19.993	103.847	19.776	30.176	0.485
697.500	435.317	80.010	19.993	103.833	19.658	39.308	0.489
705.000	439.044	80.011	19.994	103.814	19.503	51.398	0.467
712.500	442.910	80.010	19.996	103.803	19.293	67.628	0.530
720.000	446.775	80.010	19.994	103.755	19.035	87.632	0.529
727.500	450.692	80.008	19.994	103.724	18.721	111.939	0.516
735.000	454.610	80.009	19.993	103.703	18.302	144.359	0.556
742.500	458.614	80.007	19.994	103.626	17.805	182.679	0.540
750.000	462.317	80.009	19.993	103.559	17.204	229.057	0.501
757.500	465.998	80.009	19.994	103.484	16.464	285.871	0.540
765.000	469.875	80.011	19.994	103.316	15.618	350.840	0.533
772.500	473.845	80.011	19.993	103.195	14.676	422.538	0.496
780.000	477.916	80.010	19.993	103.013	13.713	496.127	0.547
787.500	481.906	80.011	19.994	102.819	12.978	552.559	0.525
795.000	485.908	80.011	19.992	102.820	12.584	582.717	0.564
802.500	489.929	80.009	19.993	102.705	12.745	571.492	0.526
810.000	493.928	80.008	19.993	102.842	13.839	489.343	0.558
817.500	497.978	80.009	19.995	103.170	15.710	345.939	0.561
825.000	502.111	80.009	19.994	103.621	17.630	197.049	0.544
832.500	506.148	80.008	19.995	103.891	18.973	92.675	0.544
840.000	510.226	80.009	19.995	103.937	19.695	36.516	0.536
847.500	514.282	80.010	19.994	103.922	20.006	12.304	0.580
855.000	518.274	80.009	19.993	103.870	20.108	4.375	0.547
862.500	522.189	80.011	19.993	103.857	20.131	2.573	0.507
870.000	526.120	80.011	19.993	103.770	20.141	1.847	0.531
877.500	530.004	80.010	19.993	103.742	20.140	1.886	0.494
885.000	533.940	80.009	19.994	103.811	20.146	1.445	0.550
892.500	537.754	80.010	19.993	103.844	20.150	1.154	0.535
900.000	541.626	80.010	19.994	103.858	20.147	1.337	0.482
907.500	545.417	80.009	19.995	103.858	20.147	1.381	0.505
915.000	549.163	80.008	19.993	103.848	20.145	1.500	0.502
922.500	552.905	80.010	19.995	103.833	20.148	1.281	0.498
930.000	556.675	80.010	19.995	103.832	20.149	1.230	0.476
937.500	560.313	80.008	19.994	103.847	20.149	1.171	0.477
945.000	564.069	80.010	19.993	103.856	20.150	1.139	0.479
952.500	567.835	80.013	19.993	103.841	20.149	1.167	0.478
960.000	571.581	80.010	19.993	103.821	20.150	1.162	0.486
967.500	575.427	80.009	19.993	103.849	20.149	1.209	0.523
975.000	579.405	80.010	19.992	103.851	20.149	1.222	0.544
982.500	583.364	80.010	19.992	103.841	20.151	1.082	0.526
990.000	587.390	80.009	19.993	103.854	20.148	1.245	0.537
997.500	591.439	80.008	19.995	103.862	20.152	0.988	0.552
1005.000	595.481	80.009	19.993	103.831	20.151	1.031	0.542
1012.500	599.551	80.010	19.994	103.857	20.155	0.703	0.550
1020.000	603.539	80.009	19.994	103.833	20.152	1.005	0.523
1027.501	607.504	80.008	19.994	103.844	20.149	1.166	0.500
1035.000	611.398	80.011	19.994	103.843	20.150	1.096	0.531
1042.500	615.268	80.010	19.994	103.836	20.148	1.302	0.470
1050.000	619.142	80.008	19.992	103.848	20.151	1.047	0.512
1057.500	623.003	80.008	19.994	103.856	20.152	0.990	0.544
1065.000	626.820	80.010	19.994	103.841	20.146	1.424	0.504
1072.500	630.621	80.008	19.994	103.850	20.152	0.999	0.502
1080.000	634.462	80.008	19.994	103.839	20.151	1.028	0.570
1087.500	638.277	80.009	19.993	103.856	20.151	1.045	0.519
1095.000	642.020	80.010	19.994	103.835	20.151	1.032	0.488
1102.500	645.803	80.009	19.994	103.827	20.152	0.986	0.498
1110.000	649.557	80.010	19.993	103.836	20.154	0.792	0.489
1117.500	653.305	80.011	19.993	103.832	20.149	1.194	0.477
1125.001	657.093	80.010	19.994	103.845	20.153	0.892	0.495
1132.501	660.833	80.008	19.994	103.852	20.150	1.090	0.510
1140.001	664.623	80.008	19.993	103.844	20.148	1.260	0.512
1147.500	668.374	80.009	19.992	103.836	20.149	1.203	0.511
1155.000	672.121	80.008	19.993	103.845	20.151	1.031	0.490
1162.500	675.970	80.008	19.993	103.838	20.150	1.147	0.511
1170.000	679.804	80.008	19.993	103.849	20.148	1.315	0.508
1177.500	683.568	80.011	19.993	103.838	20.145	1.500	0.518
1185.000	687.272	80.008	19.992	103.845	20.150	1.139	0.459
1192.500	691.051	80.009	19.993	103.846	20.150	1.101	0.489
1200.000	694.842	80.011	19.992	103.847	20.149	1.198	0.508
1207.501	698.631	80.010	19.993	103.840	20.146	1.436	0.463
1215.000	702.363	80.008	19.994	103.833	20.146	1.451	0.489
1222.500	706.002	80.008	19.994	103.832	20.145	1.513	0.492
1230.000	709.611	80.010	19.993	103.826	20.144	1.566	0.491
1237.501	713.082	80.010	19.993	103.832	20.151	1.086	0.481
1245.000	716.764	80.010	19.992	103.835	20.146	1.451	0.506
1252.500	720.578	80.010	19.993	103.850	20.144	1.602	0.517
1260.000	724.522	80.010	19.993	103.849	20.147	1.326	0.546
1267.500	728.445	80.010	19.992	103.835	20.145	1.530	0.509
1275.000	732.433	80.012	19.993	103.837	20.143	1.638	0.496
1282.500	736.368	80.012	19.993	103.825	20.145	1.553	0.500
1290.000	740.230	80.011	19.993	103.843	20.143	1.704	0.529
1296.500	743.557	80.008	19.994	103.845	20.141	1.853	0.511

File: PE_Foam_Pipe_Insulation_MCC_30K_min_220127_R2.txt
Sample ID:	C:\MCC\MCC Cal\Test\PE_Foam_Pipe_Insulation_MCC_30K_min_220127_R2.txt
Sample Weight (mg):	4.1
Heating Rate (C/s):	0.5
Combustor Temp (C):	900
N2 Flow Rate (cc/min):	80
O2 Flow Rate (cc/min):	20
Calibration File:	C:\MCC\MCC Cal\Coeff1 JN10440_30_210304.txt.txt
T Correction Coefficients:	0	1.024463	0
Time Shift (s):	14
*
Time (s)	Temperature (C)	N2 flow rate (cc/min)	O2 flow rate (cc/min)	Flow Rate (cc/min)	Oxygen (%)	HRR (W/g)	Heating rate (C/s)
0.000	113.339	80.009	19.993	103.732	20.184	0.332	-0.030
8.000	113.338	80.006	19.993	103.736	20.189	-0.032	-0.009
16.001	113.278	80.007	19.993	103.745	20.181	0.575	-0.006
24.000	113.513	80.006	19.993	103.899	20.156	2.587	0.040
32.001	114.262	80.006	19.993	103.936	20.148	3.158	0.128
40.000	115.423	80.007	19.993	103.955	20.144	3.472	0.182
48.000	117.036	80.006	19.992	103.941	20.146	3.372	0.221
56.001	119.028	80.006	19.994	103.944	20.142	3.655	0.251
64.000	121.196	80.008	19.993	103.939	20.145	3.417	0.292
72.000	123.597	80.007	19.993	103.939	20.145	3.396	0.283
80.001	126.084	80.008	19.993	103.938	20.146	3.331	0.339
88.000	128.751	80.006	19.995	103.940	20.140	3.784	0.347
96.000	131.526	80.006	19.994	103.955	20.136	4.113	0.346
104.001	134.494	80.007	19.992	103.960	20.137	4.051	0.391
112.000	137.525	80.006	19.992	103.978	20.136	4.120	0.348
120.000	140.802	80.006	19.993	103.978	20.131	4.511	0.434
128.000	144.153	80.005	19.993	103.974	20.137	4.048	0.396
136.000	147.669	80.008	19.994	103.975	20.134	4.330	0.438
144.000	151.292	80.009	19.993	103.976	20.133	4.397	0.470
152.000	154.908	80.006	19.994	103.976	20.128	4.803	0.458
160.000	158.652	80.008	19.994	103.979	20.131	4.537	0.467
168.000	162.501	80.007	19.994	103.977	20.128	4.752	0.482
176.000	166.476	80.005	19.994	103.977	20.124	5.119	0.532
184.000	170.444	80.006	19.994	103.977	20.124	5.058	0.486
192.000	174.418	80.006	19.993	103.974	20.125	4.982	0.493
200.000	178.467	80.008	19.993	103.955	20.124	5.086	0.505
208.000	182.572	80.006	19.993	103.961	20.123	5.142	0.521
216.000	186.702	80.009	19.993	103.940	20.122	5.275	0.549
224.000	190.755	80.008	19.993	103.934	20.117	5.639	0.536
232.000	194.752	80.007	19.993	103.937	20.120	5.403	0.505
240.000	198.774	80.010	19.993	103.935	20.117	5.650	0.499
248.000	202.723	80.009	19.993	103.927	20.111	6.077	0.488
256.000	206.612	80.005	19.994	103.921	20.112	6.055	0.469
264.000	210.559	80.008	19.993	103.918	20.109	6.262	0.477
272.000	214.479	80.007	19.995	103.916	20.109	6.301	0.479
280.000	218.405	80.008	19.996	103.918	20.105	6.617	0.476
288.000	222.305	80.007	19.994	103.905	20.104	6.681	0.508
296.000	226.242	80.010	19.993	103.914	20.102	6.815	0.507
304.000	230.164	80.007	19.994	103.901	20.100	6.951	0.496
312.000	234.109	80.009	19.992	103.905	20.101	6.943	0.505
320.000	238.055	80.009	19.994	103.907	20.100	6.983	0.480
328.000	241.959	80.010	19.993	103.901	20.100	7.012	0.512
336.000	245.986	80.008	19.993	103.897	20.099	7.042	0.483
344.000	250.041	80.006	19.995	103.896	20.103	6.743	0.508
352.000	254.073	80.008	19.993	103.900	20.100	6.960	0.497
360.000	258.043	80.009	19.996	103.899	20.108	6.337	0.514
368.000	262.009	80.006	19.994	103.898	20.108	6.382	0.484
376.000	266.083	80.006	19.994	103.898	20.107	6.447	0.531
384.000	270.051	80.010	19.993	103.895	20.110	6.179	0.490
392.000	274.091	80.010	19.991	103.888	20.110	6.162	0.506
400.000	278.030	80.010	19.994	103.884	20.111	6.103	0.485
408.000	282.040	80.012	19.997	103.895	20.115	5.828	0.494
416.000	286.015	80.009	19.994	103.875	20.118	5.546	0.499
424.000	290.009	80.006	19.993	103.897	20.121	5.299	0.489
432.000	294.076	80.009	19.993	103.891	20.122	5.252	0.524
440.001	298.080	80.008	19.992	103.889	20.124	5.095	0.513
448.000	302.138	80.009	19.993	103.891	20.123	5.126	0.502
456.000	306.132	80.007	19.993	103.889	20.122	5.229	0.504
464.000	310.180	80.008	19.994	103.885	20.121	5.300	0.499
472.000	314.248	80.008	19.995	103.877	20.122	5.229	0.513
480.000	318.266	80.009	19.994	103.881	20.121	5.327	0.509
488.000	322.399	80.011	19.993	103.887	20.123	5.192	0.519
496.000	326.528	80.010	19.992	103.889	20.116	5.734	0.574
504.000	330.620	80.007	19.993	103.896	20.108	6.354	0.530
512.000	334.825	80.010	19.992	103.894	20.100	6.966	0.543
520.000	339.104	80.003	19.991	103.892	20.092	7.597	0.528
528.000	343.417	80.004	19.995	103.883	20.086	8.085	0.506
536.000	347.760	80.001	19.995	103.871	20.083	8.295	0.537
544.000	352.085	80.009	19.992	103.863	20.080	8.557	0.524
552.000	356.371	80.018	19.990	103.857	20.082	8.396	0.518
560.000	360.418	80.003	19.990	103.856	20.085	8.187	0.523
568.000	364.375	80.006	19.994	103.857	20.082	8.429	0.523
576.000	368.371	80.010	19.996	103.857	20.088	7.908	0.517
584.000	372.308	80.005	19.998	103.849	20.089	7.860	0.486
592.000	376.344	80.008	19.996	103.859	20.091	7.694	0.490
600.000	380.265	80.007	19.990	103.851	20.087	8.035	0.462
608.000	384.293	79.998	19.994	103.855	20.090	7.735	0.497
616.000	388.397	80.008	19.995	103.861	20.093	7.562	0.501
624.000	392.577	80.012	19.996	103.843	20.095	7.350	0.518
632.000	396.787	80.010	19.992	103.848	20.089	7.847	0.503
640.000	400.919	80.019	19.992	103.845	20.076	8.837	0.494
648.000	404.996	80.008	19.994	103.830	20.062	9.977	0.474
656.000	409.015	80.011	19.991	103.819	20.053	10.729	0.504
664.000	412.858	80.010	19.989	103.818	20.031	12.405	0.458
672.000	416.699	80.020	19.994	103.821	20.004	14.548	0.468
680.000	420.506	80.010	19.989	103.816	19.966	17.531	0.467
688.000	424.292	80.009	19.995	103.820	19.924	20.916	0.472
696.000	428.145	80.011	19.991	103.824	19.862	25.757	0.501
704.000	432.101	80.016	19.993	103.826	19.781	32.164	0.525
712.000	436.270	80.014	19.989	103.805	19.644	42.983	0.543
720.000	440.435	80.014	19.996	103.779	19.472	56.523	0.537
728.000	444.483	80.008	19.994	103.739	19.245	74.475	0.532
736.000	448.532	80.009	19.994	103.712	18.966	96.374	0.496
744.000	452.515	80.014	19.994	103.685	18.612	124.326	0.526
752.000	456.535	80.006	19.989	103.632	18.168	159.270	0.511
760.000	460.525	79.997	19.996	103.588	17.626	201.683	0.476
768.000	464.582	80.004	19.993	103.507	16.924	256.612	0.492
776.000	468.705	80.008	19.994	103.364	16.085	322.081	0.519
784.000	472.835	80.010	19.994	103.201	15.145	395.039	0.494
792.000	476.980	80.024	19.991	103.028	14.164	471.109	0.502
800.001	481.054	80.023	19.992	102.830	13.353	534.888	0.535
808.000	485.176	80.007	19.993	102.834	12.921	568.098	0.547
816.000	489.342	80.005	19.992	102.702	12.937	567.787	0.489
824.000	493.547	80.002	19.994	102.810	13.852	497.913	0.556
832.000	497.825	80.009	19.992	103.122	15.631	359.496	0.505
840.000	502.108	80.017	19.993	103.545	17.599	204.641	0.543
848.000	506.336	79.999	19.996	103.819	18.988	94.900	0.535
856.000	510.545	80.014	19.993	103.892	19.712	37.678	0.493
864.000	514.662	80.005	19.994	103.863	20.016	13.606	0.531
872.000	518.775	80.009	19.993	103.827	20.102	6.805	0.506
880.000	522.893	79.999	19.996	103.731	20.125	4.974	0.502
888.000	526.920	80.011	19.993	103.711	20.129	4.687	0.501
896.000	530.989	80.009	19.992	103.794	20.135	4.200	0.515
904.000	535.088	80.007	19.994	103.816	20.134	4.291	0.511
912.000	539.201	80.012	19.994	103.841	20.133	4.345	0.531
920.000	543.286	80.000	19.994	103.822	20.136	4.131	0.479
928.000	547.376	80.006	19.994	103.815	20.137	4.085	0.504
936.000	551.505	80.009	19.993	103.820	20.136	4.131	0.506
944.000	555.661	80.001	19.995	103.818	20.137	4.066	0.504
952.000	559.694	80.019	19.993	103.817	20.138	3.940	0.497
960.000	563.716	80.018	19.991	103.820	20.135	4.174	0.508
968.000	567.762	80.011	19.994	103.810	20.137	4.066	0.510
976.000	571.645	80.007	19.993	103.816	20.142	3.690	0.482
984.001	575.654	80.005	19.992	103.818	20.136	4.098	0.505
992.000	579.196	80.010	19.994	103.817	20.138	3.975	0.021
1000.000	583.646	80.006	19.993	103.821	20.143	3.548	0.513
1008.000	587.743	80.011	19.994	103.816	20.140	3.818	0.504
1016.000	591.737	80.009	19.993	103.821	20.140	3.822	0.483
1024.000	595.913	80.007	19.996	103.820	20.139	3.858	0.544
1032.000	600.016	80.008	19.995	103.819	20.135	4.187	0.533
1040.000	604.094	80.007	19.995	103.810	20.138	3.990	0.496
1048.000	608.272	80.006	19.994	103.813	20.137	4.016	0.531
1056.001	612.356	80.008	19.992	103.796	20.137	4.083	0.514
1064.000	616.435	80.009	19.992	103.811	20.139	3.891	0.515
1072.000	620.566	80.006	19.992	103.808	20.138	4.001	0.497
1080.000	624.724	80.007	19.993	103.821	20.137	4.029	0.489
1088.000	628.907	80.006	19.993	103.824	20.136	4.167	0.561
1096.000	633.096	80.008	19.994	103.819	20.137	4.070	0.497
1104.001	637.345	80.009	19.993	103.817	20.138	3.984	0.524
1112.000	641.555	80.010	19.994	103.819	20.140	3.850	0.517
1120.001	645.759	80.009	19.995	103.820	20.138	3.997	0.498
1128.000	649.927	80.009	19.994	103.821	20.136	4.105	0.524
1136.000	654.072	80.008	19.993	103.818	20.138	3.937	0.522
1144.000	658.154	80.010	19.993	103.821	20.139	3.889	0.508
1152.000	662.246	80.007	19.994	103.822	20.140	3.789	0.506
1160.001	666.262	80.009	19.994	103.818	20.138	3.939	0.491
1168.001	670.357	80.008	19.993	103.820	20.139	3.906	0.534
1176.000	674.456	80.008	19.993	103.824	20.140	3.783	0.506
1184.001	678.571	80.008	19.994	103.821	20.136	4.115	0.512
1192.000	682.615	80.006	19.994	103.819	20.137	4.068	0.502
1200.000	686.652	80.010	19.993	103.820	20.141	3.737	0.535
1208.000	690.645	80.007	19.993	103.821	20.138	3.994	0.496
1216.000	694.675	80.008	19.993	103.819	20.139	3.876	0.479
1224.000	698.723	80.009	19.995	103.805	20.142	3.655	0.540
1232.001	702.790	80.009	19.993	103.810	20.141	3.718	0.516
1240.001	706.892	80.009	19.994	103.819	20.139	3.912	0.521
1248.000	710.948	80.008	19.994	103.815	20.141	3.709	0.543
1256.001	715.005	80.007	19.993	103.817	20.140	3.857	0.559
1264.000	719.066	80.007	19.994	103.817	20.139	3.934	0.505
1272.000	723.050	80.006	19.993	103.818	20.138	4.009	0.503
1280.001	726.995	80.008	19.994	103.810	20.139	3.921	0.507
1288.000	730.882	80.009	19.993	103.801	20.139	3.884	0.480
1296.000	734.847	80.010	19.993	103.809	20.136	4.130	0.533
1304.001	738.844	80.010	19.995	103.811	20.136	4.120	0.515
1312.000	742.863	80.011	19.995	103.807	20.134	4.301	0.491
1313.500	743.577	80.009	19.995	103.806	20.135	4.221	0.505