Folder: fsri_materials_database/01_Data/PE_Foam_Pipe_Insulation/MCC (part 2)

File: PE_Foam_Pipe_Insulation_MCC_30K_min_220128_R3.txt
Sample ID:	C:\MCC\MCC Cal\Test\PE_Foam_Pipe_Insulation_MCC_30K_min_220128_R3.txt
Sample Weight (mg):	4.58
Heating Rate (C/s):	0.5
Combustor Temp (C):	900
N2 Flow Rate (cc/min):	80
O2 Flow Rate (cc/min):	20
Calibration File:	C:\MCC\MCC Cal\Coeff1 JN10440_30_210304.txt.txt
T Correction Coefficients:	0	1.024463	0
Time Shift (s):	14
*
Time (s)	Temperature (C)	N2 flow rate (cc/min)	O2 flow rate (cc/min)	Flow Rate (cc/min)	Oxygen (%)	HRR (W/g)	Heating rate (C/s)
0.000	111.085	80.010	19.992	103.741	20.048	0.091	0.003
8.000	111.091	80.012	19.994	103.743	20.046	0.294	0.017
16.000	111.168	80.008	19.994	103.778	20.039	0.757	0.040
24.000	111.392	80.009	19.994	103.861	20.032	1.272	0.033
32.000	112.012	80.010	19.993	103.862	20.018	2.276	0.105
40.000	113.079	80.011	19.994	103.954	20.010	2.794	0.159
48.000	114.673	80.010	19.994	103.972	20.012	2.703	0.220
56.000	116.639	80.011	19.994	103.978	20.004	3.268	0.265
64.000	118.953	80.011	19.994	103.986	19.998	3.663	0.287
72.000	121.550	80.012	19.994	103.996	20.001	3.429	0.310
80.001	124.433	80.011	19.994	103.998	20.001	3.459	0.344
88.000	127.545	80.012	19.993	104.010	19.998	3.636	0.400
96.000	130.777	80.010	19.993	104.000	19.997	3.711	0.399
104.000	134.182	80.009	19.994	103.983	20.000	3.525	0.426
112.001	137.766	80.009	19.995	103.984	20.001	3.470	0.439
120.000	141.360	80.009	19.996	104.004	19.998	3.639	0.463
128.000	145.065	80.009	19.995	103.983	20.001	3.478	0.498
136.000	148.800	80.009	19.994	103.980	20.004	3.258	0.477
144.000	152.618	80.010	19.992	103.992	19.999	3.585	0.482
152.000	156.384	80.009	19.993	103.979	19.998	3.651	0.487
160.000	160.214	80.010	19.994	103.976	20.000	3.532	0.472
168.000	164.115	80.012	19.994	103.983	19.999	3.598	0.471
176.000	168.083	80.011	19.994	103.972	20.000	3.536	0.500
184.000	172.033	80.009	19.994	103.972	20.000	3.519	0.483
192.000	176.005	80.011	19.995	103.973	19.997	3.764	0.523
200.000	179.929	80.009	19.995	103.950	19.996	3.827	0.480
208.000	183.807	80.008	19.994	103.943	19.992	4.076	0.467
216.000	187.723	80.009	19.995	103.964	19.989	4.287	0.493
224.000	191.706	80.011	19.993	103.925	19.985	4.602	0.466
232.000	195.592	80.011	19.994	103.941	19.985	4.596	0.479
240.000	199.575	80.011	19.994	103.937	19.981	4.874	0.499
248.000	203.536	80.012	19.993	103.936	19.981	4.841	0.472
256.000	207.602	80.012	19.994	103.932	19.984	4.677	0.512
264.000	211.545	80.010	19.994	103.938	19.979	5.016	0.483
272.000	215.582	80.009	19.994	103.937	19.977	5.183	0.478
280.000	219.565	80.009	19.993	103.938	19.974	5.344	0.503
288.000	223.489	80.010	19.994	103.933	19.975	5.307	0.492
296.000	227.476	80.008	19.994	103.926	19.972	5.518	0.506
304.000	231.561	80.009	19.995	103.927	19.971	5.555	0.533
312.000	235.565	80.011	19.993	103.919	19.975	5.311	0.540
320.000	239.543	80.010	19.993	103.913	19.970	5.622	0.507
328.000	243.598	80.010	19.994	103.914	19.974	5.369	0.492
336.000	247.632	80.012	19.993	103.913	19.976	5.211	0.504
344.000	251.684	80.008	19.993	103.911	19.976	5.211	0.504
352.000	255.714	80.010	19.993	103.914	19.979	5.016	0.514
360.000	259.666	80.009	19.994	103.901	19.980	4.968	0.493
368.000	263.578	80.010	19.994	103.906	19.980	4.944	0.451
376.000	267.587	80.009	19.993	103.898	19.984	4.652	0.493
384.000	271.677	80.009	19.994	103.900	19.985	4.610	0.521
392.000	275.716	80.009	19.995	103.910	19.985	4.582	0.487
400.000	279.764	80.011	19.995	103.900	19.989	4.308	0.505
408.000	283.813	80.009	19.994	103.902	19.991	4.127	0.515
416.000	287.872	80.013	19.993	103.898	19.995	3.903	0.502
424.000	291.932	80.011	19.993	103.898	19.992	4.088	0.529
432.000	295.953	80.009	19.993	103.896	19.996	3.788	0.502
440.000	299.961	80.009	19.994	103.890	19.996	3.774	0.503
448.000	303.963	80.010	19.994	103.891	19.996	3.782	0.490
456.000	307.916	80.007	19.995	103.894	19.999	3.595	0.503
464.000	311.943	80.009	19.994	103.898	19.994	3.975	0.506
472.000	315.889	80.011	19.994	103.895	19.996	3.780	0.485
480.000	319.756	80.009	19.995	103.889	19.996	3.796	0.501
488.000	323.607	80.009	19.995	103.894	19.988	4.337	0.493
496.000	327.526	80.010	19.994	103.894	19.982	4.817	0.481
504.000	331.501	80.011	19.993	103.894	19.975	5.264	0.465
512.000	335.622	80.008	19.995	103.877	19.965	5.981	0.517
520.000	339.670	80.008	19.994	103.899	19.961	6.274	0.505
528.000	343.740	80.010	19.993	103.897	19.957	6.536	0.495
536.000	347.936	80.010	19.993	103.901	19.960	6.384	0.543
544.000	352.117	80.009	19.994	103.895	19.958	6.468	0.532
552.000	356.308	80.010	19.994	103.871	19.959	6.409	0.518
560.000	360.428	80.011	19.994	103.892	19.961	6.274	0.497
568.000	364.521	80.011	19.994	103.881	19.955	6.719	0.526
576.000	368.587	80.009	19.994	103.887	19.950	7.024	0.480
584.000	372.706	80.011	19.994	103.862	19.955	6.676	0.493
592.000	376.869	80.008	19.996	103.882	19.965	5.970	0.522
600.000	380.978	80.008	19.994	103.879	19.973	5.438	0.519
608.001	385.030	80.009	19.993	103.873	19.974	5.370	0.484
616.000	389.091	80.009	19.994	103.867	19.969	5.710	0.524
624.000	393.186	80.010	19.994	103.860	19.966	5.909	0.521
632.000	397.216	80.011	19.993	103.859	19.960	6.360	0.455
640.000	401.291	80.011	19.994	103.796	19.956	6.607	0.505
648.000	405.392	80.009	19.995	103.861	19.939	7.846	0.499
656.000	409.450	80.010	19.993	103.860	19.920	9.158	0.483
664.000	413.582	80.012	19.993	103.858	19.896	10.909	0.520
672.000	417.558	80.008	19.994	103.846	19.860	13.446	0.489
680.000	421.677	80.008	19.996	103.845	19.812	16.804	0.541
688.000	425.696	80.010	19.994	103.839	19.752	21.036	0.519
696.000	429.667	80.011	19.995	103.821	19.665	27.222	0.500
704.000	433.712	80.008	19.993	103.816	19.542	35.924	0.509
712.000	437.731	80.009	19.995	103.820	19.359	48.809	0.506
720.000	441.774	80.012	19.993	103.782	19.138	64.434	0.491
728.000	445.682	80.010	19.994	103.749	18.866	83.628	0.437
736.000	449.742	80.011	19.994	103.728	18.516	108.272	0.505
744.000	453.712	80.012	19.993	103.664	18.087	138.525	0.479
752.000	457.712	80.010	19.994	103.622	17.539	176.994	0.489
760.000	461.746	80.009	19.995	103.536	16.870	223.856	0.506
768.000	465.676	80.010	19.995	103.433	16.055	280.821	0.507
776.000	469.722	80.009	19.996	103.264	15.110	346.410	0.517
784.000	473.818	80.010	19.995	103.069	14.053	420.042	0.524
792.000	477.821	80.010	19.994	102.869	13.026	491.149	0.478
800.000	481.937	80.011	19.993	102.668	12.344	539.035	0.494
808.000	485.855	80.029	19.997	102.816	12.080	557.713	0.434
816.000	489.687	80.010	19.995	102.656	12.500	529.464	0.366
824.000	493.816	80.012	19.994	102.867	13.885	434.064	0.449
832.000	498.070	80.010	19.995	103.216	15.957	289.209	0.514
840.000	502.304	80.009	19.994	103.615	17.866	154.509	0.512
848.000	506.681	80.009	19.994	103.829	19.093	67.672	0.509
856.000	511.054	80.008	19.994	103.886	19.707	24.233	0.538
864.000	515.411	80.007	19.995	103.862	19.942	7.642	0.541
872.000	519.718	80.007	19.995	103.821	20.001	3.450	0.565
880.000	523.917	80.010	19.994	103.717	20.015	2.439	0.510
888.000	528.099	80.010	19.994	103.700	20.019	2.146	0.481
896.000	532.213	80.010	19.993	103.815	20.023	1.886	0.526
904.000	536.200	80.011	19.992	103.822	20.024	1.808	0.493
912.000	540.114	80.010	19.993	103.840	20.023	1.911	0.480
920.000	544.172	80.008	19.993	103.842	20.025	1.767	0.524
928.000	548.374	80.009	19.993	103.832	20.026	1.658	0.538
936.000	552.642	80.009	19.994	103.824	20.026	1.709	0.516
944.000	556.884	80.009	19.995	103.819	20.027	1.596	0.514
952.000	561.156	80.009	19.994	103.820	20.028	1.557	0.532
960.000	565.373	80.010	19.996	103.824	20.033	1.196	0.525
968.000	569.601	80.011	19.995	103.832	20.031	1.299	0.560
976.001	573.833	80.010	19.994	103.836	20.026	1.678	0.547
984.000	578.122	80.011	19.993	103.841	20.033	1.209	0.513
992.000	582.286	80.011	19.994	103.824	20.031	1.336	0.517
1000.000	586.414	80.010	19.993	103.827	20.030	1.386	0.518
1008.000	590.530	80.009	19.994	103.830	20.032	1.231	0.544
1016.000	594.626	80.009	19.994	103.828	20.035	1.032	0.508
1024.001	598.720	80.009	19.994	103.821	20.034	1.087	0.514
1032.000	602.715	80.008	19.995	103.823	20.035	1.054	0.498
1040.001	606.708	80.010	19.994	103.820	20.032	1.289	0.461
1048.000	610.729	80.011	19.994	103.839	20.035	1.011	0.482
1056.000	614.773	80.008	19.994	103.824	20.032	1.260	0.516
1064.001	618.837	80.011	19.993	103.830	20.033	1.184	0.532
1072.000	622.861	80.012	19.994	103.821	20.030	1.386	0.485
1080.000	626.874	80.010	19.994	103.823	20.031	1.355	0.483
1088.001	630.917	80.008	19.994	103.824	20.035	1.056	0.515
1096.000	634.958	80.011	19.993	103.833	20.029	1.447	0.511
1104.000	639.007	80.010	19.993	103.833	20.034	1.116	0.509
1112.000	643.005	80.010	19.994	103.826	20.031	1.336	0.499
1120.001	646.997	80.009	19.992	103.836	20.034	1.116	0.524
1128.000	650.957	80.011	19.995	103.840	20.034	1.135	0.493
1136.000	654.957	80.012	19.994	103.829	20.035	1.038	0.515
1144.000	658.886	80.010	19.995	103.827	20.036	0.955	0.505
1152.000	662.805	80.011	19.994	103.825	20.038	0.824	0.474
1160.000	666.846	80.009	19.994	103.822	20.038	0.803	0.508
1168.000	670.896	80.009	19.993	103.835	20.035	1.027	0.502
1176.001	675.092	80.010	19.994	103.829	20.036	1.003	0.667
1184.000	679.245	80.010	19.993	103.835	20.035	1.009	0.523
1192.001	683.359	80.009	19.995	103.839	20.034	1.118	0.486
1200.001	687.489	80.010	19.992	103.846	20.034	1.145	0.521
1208.000	691.635	80.012	19.993	103.838	20.037	0.935	0.517
1216.001	695.756	80.011	19.994	103.825	20.038	0.807	0.515
1224.000	699.864	80.012	19.994	103.832	20.035	1.011	0.517
1232.000	703.866	80.010	19.993	103.828	20.034	1.095	0.503
1240.000	707.878	80.011	19.993	103.824	20.034	1.126	0.513
1248.001	711.910	80.009	19.993	103.829	20.037	0.918	0.505
1256.001	715.945	80.009	19.993	103.836	20.033	1.161	0.512
1264.001	719.918	80.010	19.993	103.822	20.033	1.157	0.513
1272.001	723.938	80.010	19.993	103.831	20.030	1.416	0.524
1280.001	728.173	80.009	19.993	103.830	20.031	1.301	0.539
1288.001	732.609	80.011	19.994	103.837	20.033	1.173	0.560
1296.000	737.056	80.011	19.993	103.837	20.029	1.447	0.571
1304.000	741.583	80.010	19.994	103.826	20.028	1.550	0.575
1306.500	742.992	80.011	19.993	103.834	20.027	1.625	0.558