Folder: fsri_materials_database/01_Data/Eucalyptus_Flooring/STA/N2/10K_min

Note: 01_Data/README.md
# Materials and Products Database
## 01_Data

Raw data generated from each apparatus are included here in plain-text format. The data is organized first by material, next by the short name of test apparatus used, and where applicable additional filtering by test settings.

### material.json

Each material directory contains a json file of the same name as the material. This file links the data stored in the repository as well as data and graphs produced by the accompanying scripts (__02_Scripts__) to the respective landing page for the material on the front-end website.

File: Eucalyptus_Flooring_STA_N2_10KData_211012_R1.csv
##Temp./Â°C,Time/min,Mass loss(subtr.2)/mg,DSC(subtr.2)/(mW/mg),Sensit./(uV/mW)
49.312,10.01,-0.00921,0.006291693,1.07447
52.312,11.29294,-0.008732434,0.1089,1.07425
55.312,11.7303,-0.01022748,0.16133,1.07402
58.312,12.10063,-0.01025151,0.19296,1.07376
61.312,12.44634,-0.01032354,0.21139,1.07348
64.312,12.78003,-0.008999821,0.22317,1.07318
67.312,13.1073,-0.00914263,0.23637,1.07286
70.312,13.42968,-0.01065687,0.24887,1.07252
73.312,13.7481,-0.01162066,0.25728,1.07216
76.312,14.06316,-0.01188824,0.26616,1.07178
79.312,14.3757,-0.01425001,0.27267,1.07137
82.312,14.68474,-0.0155782,0.2776,1.07095
85.312,14.9909,-0.01557718,0.27836,1.0705
88.312,15.29545,-0.01692486,0.28165,1.07003
91.312,15.5976,-0.01821,0.27974,1.06955
94.312,15.8977,-0.01942157,0.27825,1.06904
97.312,16.19661,-0.01953,0.27154,1.06851
100.312,16.4936,-0.0208405,0.2722,1.06796
103.312,16.78989,-0.02084,0.27035,1.06739
106.312,17.0857,-0.02083974,0.2678,1.0668
109.312,17.38035,-0.02215161,0.26706,1.06619
112.312,17.675,-0.02248231,0.26865,1.06556
115.312,17.96921,-0.02249999,0.27157,1.06491
118.312,18.26289,-0.02248,0.27431,1.06424
121.312,18.55625,-0.02388271,0.27604,1.06355
124.312,18.8487,-0.02449417,0.28046,1.06283
127.312,19.14113,-0.02280722,0.28375,1.0621
130.312,19.43285,-0.02511,0.29008,1.06135
133.312,19.72416,-0.02479,0.29381,1.06058
136.312,20.01461,-0.02511385,0.2968,1.05979
139.312,20.30508,-0.02774908,0.29944,1.05898
142.312,20.59515,-0.02802428,0.30461,1.05814
145.312,20.88431,-0.02907587,0.30992,1.05729
148.312,21.17437,-0.02940006,0.31143,1.05642
151.312,21.4637,-0.03071,0.31771,1.05553
154.312,21.752,-0.03070428,0.3207,1.05462
157.312,22.04091,-0.03169623,0.32106,1.05369
160.312,22.32921,-0.03301,0.32729,1.05274
163.312,22.6176,-0.03459351,0.33273,1.05177
166.312,22.9038,-0.03616429,0.33617,1.05079
169.312,23.19249,-0.03799758,0.33623,1.04978
172.312,23.48075,-0.03929516,0.33973,1.04875
175.312,23.76874,-0.04389219,0.3414,1.04771
178.312,24.05647,-0.0436759,0.34365,1.04665
181.312,24.34469,-0.04760987,0.34425,1.04556
184.312,24.6318,-0.05153931,0.34585,1.04446
187.312,24.9193,-0.05419908,0.35077,1.04334
190.312,25.2061,-0.05682016,0.35042,1.0422
193.312,25.4939,-0.06075455,0.35172,1.04104
196.312,25.78097,-0.06482032,0.35274,1.03987
199.312,26.06852,-0.06843779,0.3532,1.03867
202.312,26.35615,-0.07411173,0.3531,1.03746
205.312,26.64293,-0.07900006,0.35233,1.03623
208.312,26.9308,-0.08466896,0.35213,1.03498
211.312,27.21821,-0.09124847,0.35042,1.03371
214.312,27.5056,-0.09652382,0.34824,1.03243
217.312,27.7927,-0.10295,0.3464,1.03112
220.312,28.07965,-0.11102,0.34164,1.0298
223.312,28.36615,-0.11912,0.34261,1.02846
226.312,28.6527,-0.1272,0.3397,1.0271
229.312,28.93931,-0.13686,0.33531,1.02573
232.312,29.22617,-0.1479,0.3303,1.02434
235.312,29.51323,-0.15827,0.32584,1.02293
238.312,29.7999,-0.16935,0.32032,1.0215
241.312,30.0867,-0.18168,0.31679,1.02006
244.312,30.37367,-0.19528,0.31102,1.0186
247.312,30.66106,-0.20544,0.3035,1.01712
250.312,30.94834,-0.22385,0.29789,1.01562
253.312,31.2352,-0.23837,0.29231,1.01411
256.312,31.52293,-0.25648,0.28573,1.01258
259.312,31.8095,-0.27332,0.28168,1.01104
262.312,32.09724,-0.29787,0.28074,1.00948
265.312,32.38435,-0.31923,0.27817,1.0079
268.312,32.6719,-0.34386,0.27362,1.0063
271.312,32.95909,-0.36789,0.26909,1.00469
274.312,33.2468,-0.39726,0.26523,1.00307
277.312,33.53431,-0.42783,0.25504,1.00142
280.312,33.82262,-0.46278,0.2491,0.99976
283.312,34.1099,-0.50081,0.24462,0.99809
286.312,34.3982,-0.54405,0.24114,0.9964
289.312,34.68615,-0.5864,0.23581,0.99469
292.312,34.97465,-0.63484,0.23789,0.99297
295.312,35.2624,-0.68709,0.24418,0.99123
298.312,35.5509,-0.74261,0.25493,0.98948
301.312,35.83954,-0.80289,0.26518,0.98771
304.312,36.12806,-0.86705,0.27853,0.98593
307.312,36.4166,-0.93715,0.28858,0.98413
310.312,36.70485,-1.01222,0.2996,0.98232
313.312,36.99273,-1.09138,0.30749,0.98049
316.312,37.28308,-1.17588,0.31583,0.97865
319.312,37.57295,-1.26522,0.30724,0.97679
322.312,37.86246,-1.36081,0.30379,0.97492
325.312,38.15193,-1.45727,0.29317,0.97304
328.312,38.4418,-1.55691,0.27443,0.97114
331.312,38.7316,-1.65137,0.25357,0.96922
334.312,39.02134,-1.7448,0.22297,0.9673
337.312,39.31069,-1.8261,0.19596,0.96535
340.312,39.60048,-1.89734,0.17011,0.9634
343.312,39.891,-1.95672,0.14644,0.96143
346.312,40.18158,-2.00755,0.1287,0.95945
349.312,40.4718,-2.04601,0.11236,0.95745
352.312,40.76282,-2.07804,0.09931494,0.95544
355.312,41.05434,-2.10356,0.08772761,0.95342
358.312,41.3453,-2.12627,0.07904328,0.95138
361.312,41.63705,-2.14548,0.06895537,0.94933
364.312,41.9285,-2.16459,0.05899399,0.94727
367.312,42.2196,-2.18056,0.04920125,0.9452
370.312,42.5116,-2.1958,0.03894589,0.94311
373.312,42.80315,-2.21029,0.03178732,0.94101
376.312,43.0949,-2.22447,0.02548196,0.9389
379.312,43.38667,-2.23787,0.01497534,0.93677
382.312,43.67859,-2.25011,0.008832929,0.93463
385.312,43.9709,-2.26215,0.000102237,0.93249
388.312,44.2633,-2.2759,-0.001342135,0.93033
391.312,44.55587,-2.28712,-0.005727285,0.92815
394.312,44.84868,-2.30155,-0.007079499,0.92597
397.312,45.14145,-2.31212,-0.008483799,0.92377
400.312,45.43434,-2.32266,-0.00534364,0.92157
403.312,45.72717,-2.33379,-0.0024828,0.91935
406.312,46.02039,-2.34612,-0.0005799813,0.91712
409.312,46.3141,-2.35625,0.005531514,0.91488
412.312,46.6079,-2.36758,0.01174325,0.91262
415.312,46.90146,-2.37798,0.01588635,0.91036
418.312,47.19534,-2.39042,0.02272253,0.90809
421.312,47.48904,-2.4019,0.03285584,0.9058
424.312,47.783,-2.41121,0.03773154,0.90351
427.312,48.07743,-2.42294,0.04189233,0.9012
430.312,48.37219,-2.43108,0.04659928,0.89889
433.312,48.66735,-2.44147,0.05254239,0.89656
436.312,48.9619,-2.44977,0.05541489,0.89423
439.312,49.2569,-2.46147,0.06252845,0.89188
442.312,49.5522,-2.46846,0.06438977,0.88953
445.312,49.84827,-2.47773,0.06685375,0.88716
448.312,50.14345,-2.4858,0.06650839,0.88479
451.312,50.43955,-2.49261,0.06922251,0.8824
454.312,50.73529,-2.50056,0.06882612,0.88001
457.312,51.03117,-2.50741,0.06989395,0.87761
460.312,51.32714,-2.51531,0.0713245,0.8752
463.312,51.62279,-2.52159,0.07375337,0.87278
466.312,51.9185,-2.53026,0.07571198,0.87035
469.312,52.2145,-2.53828,0.07973149,0.86791
472.312,52.5111,-2.54285,0.07340101,0.86546
475.312,52.8078,-2.54859,0.07456518,0.86301
478.312,53.10467,-2.55362,0.07328816,0.86055
481.312,53.40164,-2.56011,0.07174707,0.85807
484.312,53.6994,-2.56753,0.07431777,0.85559
487.312,53.997,-2.57285,0.07577172,0.85311
490.312,54.2947,-2.57855,0.07676763,0.85061
493.312,54.59262,-2.5851,0.07742309,0.84811
496.312,54.8902,-2.58892,0.07688368,0.8456
499.312,55.18745,-2.59596,0.07917132,0.84308
502.312,55.48551,-2.60085,0.08061529,0.84056
505.312,55.783,-2.60458,0.08440495,0.83802
508.312,56.0807,-2.608,0.08494928,0.83548
511.312,56.37859,-2.61317,0.09142648,0.83294
514.312,56.67695,-2.61741,0.09444339,0.83038
517.312,56.9748,-2.62217,0.09774268,0.82782
520.312,57.2733,-2.62864,0.10413,0.82526
523.312,57.57219,-2.63258,0.10998,0.82268
526.312,57.87115,-2.63718,0.11271,0.8201
529.312,58.1699,-2.64322,0.11339,0.81752
532.312,58.4682,-2.64636,0.11606,0.81493
535.312,58.76583,-2.65111,0.12176,0.81233
538.312,59.0641,-2.65406,0.12296,0.80973
541.312,59.3622,-2.65802,0.1203,0.80712
544.312,59.66069,-2.66299,0.12833,0.8045
547.312,59.9589,-2.66462,0.12799,0.80188
550.312,60.25886,-2.66954,0.12898,0.79925
553.312,60.55809,-2.674,0.13341,0.79662
556.312,60.85723,-2.67656,0.13366,0.79398
559.312,61.1565,-2.68139,0.13618,0.79134
562.312,61.4562,-2.68448,0.1324,0.7887
565.312,61.75583,-2.68606,0.13019,0.78604
568.312,62.05625,-2.69128,0.12569,0.78339
571.312,62.35584,-2.69324,0.12146,0.78073
574.312,62.6554,-2.69621,0.11528,0.77806
577.312,62.95463,-2.70015,0.10703,0.77539
580.312,63.2547,-2.70408,0.10234,0.77272
583.312,63.55477,-2.70537,0.09725146,0.77004
586.312,63.85474,-2.7097,0.10121,0.76736
589.312,64.1555,-2.711,0.09629151,0.76467
592.312,64.45675,-2.71227,0.10086,0.76198
595.312,64.75786,-2.71759,0.10296,0.75929
598.312,65.06015,-2.72086,0.10668,0.75659
601.312,65.36146,-2.72186,0.11249,0.75389
604.312,65.66206,-2.72581,0.11725,0.75119
607.312,65.96333,-2.72712,0.11841,0.74848
610.312,66.26402,-2.73107,0.12292,0.74577
613.312,66.56518,-2.73404,0.12347,0.74306
616.312,66.8663,-2.73622,0.12787,0.74034
619.312,67.16809,-2.73928,0.12466,0.73762
622.312,67.47005,-2.73996,0.12904,0.7349
625.312,67.77237,-2.74358,0.13162,0.73217
628.312,68.07471,-2.74358,0.13255,0.72945
631.312,68.3765,-2.7449,0.13257,0.72672
634.312,68.67818,-2.74621,0.13382,0.72399
637.312,68.97949,-2.74884,0.13531,0.72125
640.312,69.28105,-2.75082,0.13904,0.71852
643.312,69.58319,-2.75178,0.1381,0.71578
646.312,69.88463,-2.75387,0.13436,0.71304
649.312,70.18688,-2.75632,0.13629,0.7103
652.312,70.48859,-2.75904,0.1316,0.70756
655.312,70.7913,-2.7614,0.13335,0.70482
658.312,71.09416,-2.76431,0.13259,0.70207
661.312,71.3972,-2.76463,0.12525,0.69933
664.312,71.69989,-2.76661,0.12256,0.69658
667.312,72.00261,-2.76727,0.11574,0.69383
670.312,72.30558,-2.76823,0.11399,0.69108
673.312,72.6084,-2.76957,0.11025,0.68833
676.312,72.91118,-2.77234,0.10551,0.68558
679.312,73.2135,-2.77297,0.10569,0.68283
682.312,73.51655,-2.7756,0.0989047,0.68008
685.312,73.8203,-2.77528,0.09572125,0.67732
688.312,74.12471,-2.7765,0.09102677,0.67457
691.312,74.4281,-2.77923,0.08370548,0.67182
694.312,74.73156,-2.77987,0.07840142,0.66906
697.312,75.03551,-2.7812,0.07435827,0.66631
700.312,75.33958,-2.78351,0.06840102,0.66356
703.312,75.64395,-2.7835,0.0636692,0.6608
706.312,75.94782,-2.78498,0.06323612,0.65805
709.312,76.25071,-2.78484,0.05381745,0.6553
712.312,76.5541,-2.78713,0.05030201,0.65255
715.312,76.85769,-2.78811,0.04351648,0.6498
718.312,77.16206,-2.78948,0.03446607,0.64705
721.312,77.46526,-2.79079,0.03492793,0.6443
724.312,77.76943,-2.79074,0.03020577,0.64155
727.312,78.07333,-2.79375,0.0254349,0.6388
730.312,78.37783,-2.79403,0.02583126,0.63605
733.312,78.68188,-2.79732,0.0218049,0.63331
736.312,78.98602,-2.79502,0.02365695,0.63056
739.312,79.2906,-2.79732,0.01381637,0.62782
742.312,79.59504,-2.79797,0.006646409,0.62507
745.312,79.8992,-2.79799,0.004545482,0.62233
746.212,79.9905,-2.7993,2.53028e-05,0.62151

File: Eucalyptus_Flooring_STA_N2_10KData_211012_R2.csv
##Temp./Â°C,Time/min,Mass loss(subtr.2)/mg,DSC(subtr.2)/(mW/mg),Sensit./(uV/mW)
49.315,10.01,-0.02106,0.00710063,1.07447
52.415,11.30706,-0.02433296,0.10661,1.07425
55.515,11.75569,-0.02548663,0.15941,1.074
58.615,12.13728,-0.0249008,0.19152,1.07373
61.715,12.4925,-0.0262228,0.21167,1.07344
64.815,12.83608,-0.02753199,0.2273,1.07313
67.915,13.17254,-0.02754056,0.24043,1.0728
71.015,13.5053,-0.02875916,0.25176,1.07244
74.115,13.8345,-0.03147406,0.26102,1.07206
77.215,14.1603,-0.03148967,0.26865,1.07166
80.315,14.48279,-0.03410529,0.27604,1.07123
83.415,14.8012,-0.03543,0.27943,1.07078
86.515,15.1174,-0.035382,0.28401,1.07032
89.615,15.43082,-0.03674893,0.28349,1.06983
92.715,15.7415,-0.03911234,0.28185,1.06931
95.815,16.05057,-0.03807,0.27598,1.06878
98.915,16.35765,-0.0409665,0.27585,1.06822
102.015,16.66378,-0.03969467,0.27431,1.06764
105.115,16.9692,-0.04234,0.26977,1.06704
108.215,17.27349,-0.04102352,0.26876,1.06642
111.315,17.57829,-0.04300228,0.2711,1.06577
114.415,17.88241,-0.04299997,0.26892,1.06511
117.515,18.18645,-0.04300014,0.27218,1.06442
120.615,18.48966,-0.04563139,0.27448,1.06371
123.715,18.79198,-0.0456296,0.2791,1.06298
126.815,19.09414,-0.04660595,0.28385,1.06223
129.915,19.39528,-0.04808778,0.28722,1.06145
133.015,19.69712,-0.04695682,0.2914,1.06066
136.115,19.9979,-0.04859,0.29514,1.05984
139.215,20.2981,-0.04991,0.30106,1.059
142.315,20.5972,-0.05088813,0.30484,1.05814
145.415,20.89745,-0.05188,0.30763,1.05726
148.515,21.19679,-0.0528672,0.31044,1.05636
151.615,21.4956,-0.05320948,0.31718,1.05544
154.715,21.794,-0.0555,0.32237,1.0545
157.815,22.09185,-0.05681879,0.32405,1.05353
160.915,22.39001,-0.05813,0.32866,1.05255
164.015,22.68852,-0.06011,0.33342,1.05154
167.115,22.98621,-0.06242241,0.33565,1.05052
170.215,23.2838,-0.06297615,0.33955,1.04947
173.315,23.58183,-0.06616404,0.34263,1.04841
176.415,23.87946,-0.06800972,0.34403,1.04732
179.515,24.17703,-0.07104877,0.34681,1.04621
182.615,24.47478,-0.07599244,0.34866,1.04509
185.715,24.77196,-0.07853728,0.34754,1.04394
188.815,25.0689,-0.08248004,0.3518,1.04277
191.915,25.36607,-0.08642629,0.35394,1.04158
195.015,25.66306,-0.08996602,0.35633,1.04038
198.115,25.95991,-0.09564998,0.3585,1.03915
201.215,26.25631,-0.0999686,0.36071,1.03791
204.315,26.55295,-0.1065,0.36151,1.03664
207.415,26.84931,-0.11173,0.36076,1.03535
210.515,27.1457,-0.11978,0.35733,1.03405
213.615,27.442,-0.12571,0.35627,1.03273
216.715,27.73847,-0.13354,0.35099,1.03138
219.815,28.0353,-0.14079,0.34855,1.03002
222.915,28.3319,-0.15005,0.34823,1.02864
226.015,28.6286,-0.15914,0.3432,1.02724
229.115,28.9247,-0.16856,0.34405,1.02582
232.215,29.22086,-0.17963,0.33423,1.02438
235.315,29.518,-0.19045,0.33137,1.02293
238.415,29.81509,-0.20407,0.3274,1.02145
241.515,30.11145,-0.217,0.32038,1.01996
244.615,30.4085,-0.23116,0.31287,1.01845
247.715,30.7051,-0.24625,0.31186,1.01692
250.815,31.00088,-0.26507,0.30533,1.01537
253.915,31.29768,-0.2815,0.2968,1.01381
257.015,31.5946,-0.30283,0.29478,1.01222
260.115,31.89163,-0.32172,0.28866,1.01062
263.215,32.18894,-0.34478,0.2818,1.009
266.315,32.48516,-0.37155,0.27935,1.00737
269.415,32.78318,-0.39749,0.27256,1.00571
272.515,33.08061,-0.42751,0.2684,1.00404
275.615,33.37765,-0.46196,0.25887,1.00235
278.715,33.67412,-0.49725,0.25468,1.00065
281.815,33.97144,-0.53513,0.24452,0.99893
284.915,34.26865,-0.57975,0.24294,0.99719
288.015,34.5662,-0.62627,0.23714,0.99543
291.115,34.86372,-0.67741,0.23739,0.99366
294.215,35.16183,-0.73284,0.23824,0.99187
297.315,35.4606,-0.79424,0.24476,0.99007
300.415,35.759,-0.85958,0.2578,0.98824
303.515,36.05699,-0.93172,0.26826,0.98641
306.615,36.35467,-1.00492,0.28046,0.98455
309.715,36.6535,-1.08625,0.29619,0.98268
312.815,36.95114,-1.17266,0.30191,0.9808
315.915,37.24994,-1.26401,0.30794,0.9789
319.015,37.54888,-1.36005,0.30544,0.97698
322.115,37.84787,-1.46477,0.30219,0.97505
325.215,38.14717,-1.5696,0.28957,0.9731
328.315,38.44631,-1.67828,0.2714,0.97114
331.415,38.74588,-1.78372,0.24699,0.96916
334.515,39.04625,-1.88344,0.21776,0.96717
337.615,39.34646,-1.9709,0.18764,0.96516
340.715,39.64645,-2.04997,0.16078,0.96313
343.815,39.94656,-2.11282,0.13921,0.9611
346.915,40.24678,-2.16302,0.12363,0.95905
350.015,40.54777,-2.20493,0.1095,0.95698
353.115,40.84847,-2.2394,0.09636898,0.9549
356.215,41.14987,-2.26644,0.08573101,0.95281
359.315,41.451,-2.28786,0.07391676,0.9507
362.415,41.75206,-2.30856,0.06215026,0.94858
365.515,42.05273,-2.32826,0.05093165,0.94644
368.615,42.35457,-2.34485,0.04227527,0.94429
371.715,42.65553,-2.35994,0.03577321,0.94213
374.815,42.95743,-2.37421,0.02394236,0.93995
377.915,43.25949,-2.38805,0.0155178,0.93776
381.015,43.56134,-2.40161,0.008589413,0.93556
384.115,43.86342,-2.41629,0.002843838,0.93334
387.215,44.1655,-2.42705,-0.001371065,0.93112
390.315,44.46761,-2.44038,-0.01118283,0.92888
393.415,44.76954,-2.45198,-0.00763226,0.92662
396.515,45.07233,-2.46361,-0.008051616,0.92436
399.615,45.37484,-2.47514,-0.01008267,0.92208
402.715,45.67745,-2.48682,-0.009470393,0.91979
405.815,45.98073,-2.49723,-0.00453278,0.91749
408.915,46.28415,-2.5092,9.986324e-05,0.91517
412.015,46.5872,-2.51968,0.00539015,0.91285
415.115,46.89018,-2.52993,0.009576803,0.91051
418.215,47.1938,-2.54054,0.0146911,0.90816
421.315,47.49718,-2.55011,0.02335173,0.9058
424.415,47.80103,-2.55978,0.02737935,0.90343
427.515,48.10452,-2.57221,0.03366686,0.90105
430.615,48.40902,-2.57922,0.04156795,0.89865
433.715,48.7134,-2.58934,0.04572012,0.89625
436.815,49.01829,-2.59977,0.04580972,0.89383
439.915,49.3236,-2.6072,0.0530588,0.89141
443.015,49.62877,-2.61559,0.05463554,0.88897
446.115,49.9341,-2.62321,0.05777583,0.88653
449.215,50.239,-2.6326,0.05661692,0.88407
452.315,50.54446,-2.63905,0.05823682,0.8816
455.415,50.84989,-2.64737,0.06136495,0.87913
458.515,51.15645,-2.65336,0.06201875,0.87664
461.615,51.4626,-2.66057,0.06167502,0.87415
464.715,51.76896,-2.6671,0.06092584,0.87164
467.815,52.0754,-2.67438,0.06236772,0.86913
470.915,52.38087,-2.68249,0.06111165,0.8666
474.015,52.687,-2.68646,0.06103126,0.86407
477.115,52.9925,-2.69303,0.06130037,0.86153
480.215,53.2983,-2.6985,0.06086218,0.85898
483.315,53.60374,-2.70483,0.05987375,0.85642
486.415,53.90988,-2.70913,0.05841482,0.85385
489.515,54.2175,-2.71547,0.05732991,0.85128
492.615,54.52386,-2.72129,0.05765596,0.84869
495.715,54.8316,-2.7279,0.06382543,0.8461
498.815,55.13949,-2.73316,0.06836797,0.8435
501.915,55.44696,-2.73854,0.06820732,0.84089
505.015,55.7547,-2.7438,0.07356278,0.83828
508.115,56.0629,-2.74775,0.07653861,0.83565
511.215,56.37095,-2.75342,0.08250323,0.83302
514.315,56.67974,-2.75676,0.08848706,0.83038
517.415,56.9888,-2.76234,0.0929891,0.82774
520.515,57.2982,-2.76756,0.09327768,0.82508
523.615,57.60754,-2.77287,0.09423183,0.82242
526.715,57.9163,-2.7765,0.09544356,0.81976
529.815,58.22551,-2.78076,0.09944246,0.81708
532.915,58.5339,-2.7847,0.10004,0.81441
536.015,58.8424,-2.78932,0.10276,0.81172
539.115,59.1511,-2.79327,0.10456,0.80903
542.215,59.46023,-2.8002,0.10553,0.80633
545.315,59.7693,-2.80351,0.10658,0.80362
548.415,60.0783,-2.80521,0.1101,0.80091
551.515,60.38799,-2.81049,0.10763,0.7982
554.615,60.69765,-2.81585,0.10395,0.79548
557.715,61.00682,-2.81785,0.09942677,0.79275
560.815,61.31596,-2.8231,0.09297643,0.79002
563.915,61.6259,-2.82569,0.07959799,0.78728
567.015,61.9352,-2.82877,0.06952537,0.78454
570.115,62.2454,-2.83265,0.06477381,0.78179
573.215,62.55471,-2.83724,0.05900568,0.77904
576.315,62.86452,-2.83979,0.05836788,0.77628
579.415,63.1747,-2.84252,0.05869614,0.77352
582.515,63.4854,-2.84518,0.05576248,0.77075
585.615,63.796,-2.8491,0.0531452,0.76798
588.715,64.10679,-2.85041,0.05898793,0.76521
591.815,64.41704,-2.85319,0.0653003,0.76243
594.915,64.72756,-2.85757,0.06641764,0.75964
598.015,65.03765,-2.86105,0.06882538,0.75686
601.115,65.34823,-2.8637,0.06992481,0.75407
604.215,65.6589,-2.86598,0.07206906,0.75127
607.315,65.97055,-2.86763,0.07420591,0.74848
610.415,66.28153,-2.86926,0.07958608,0.74568
613.515,66.5932,-2.87169,0.07843542,0.74287
616.615,66.90424,-2.87531,0.07941106,0.74006
619.715,67.2147,-2.87532,0.08111384,0.73725
622.815,67.52552,-2.87889,0.08442496,0.73444
625.915,67.83789,-2.87992,0.08455291,0.73163
629.015,68.14981,-2.88221,0.08688094,0.72881
632.115,68.46165,-2.88431,0.08817472,0.72599
635.215,68.77336,-2.88496,0.08767066,0.72317
638.315,69.0857,-2.8876,0.09000188,0.72034
641.415,69.39779,-2.88859,0.08776025,0.71751
644.515,69.70961,-2.89122,0.08633151,0.71468
647.615,70.02194,-2.89056,0.08793564,0.71185
650.715,70.3351,-2.89451,0.08561934,0.70902
653.815,70.64785,-2.89573,0.08210682,0.70619
656.915,70.96051,-2.89812,0.083044,0.70335
660.015,71.27396,-2.89978,0.08033843,0.70051
663.115,71.58686,-2.89978,0.07741497,0.69767
666.215,71.90016,-2.90241,0.07417871,0.69484
669.315,72.21298,-2.9024,0.07631215,0.69199
672.415,72.5257,-2.90466,0.07137206,0.68915
675.515,72.83917,-2.90536,0.06531313,0.68631
678.615,73.15266,-2.90727,0.06039171,0.68347
681.715,73.4662,-2.90931,0.05854903,0.68062
684.815,73.77975,-2.91162,0.0684179,0.67778
687.915,74.09311,-2.91162,0.06610567,0.67493
691.015,74.40678,-2.91402,0.06450517,0.67209
694.115,74.72004,-2.91568,0.05950576,0.66924
697.215,75.03384,-2.91699,0.05986418,0.6664
700.315,75.34703,-2.91667,0.05527583,0.66355
703.415,75.6606,-2.91798,0.05624401,0.66071
706.515,75.9737,-2.92011,0.05329134,0.65787
709.615,76.28774,-2.92061,0.05040768,0.65502
712.715,76.6015,-2.9216,0.0472993,0.65218
715.815,76.9155,-2.92193,0.04405543,0.64933
718.915,77.22941,-2.92359,0.04189036,0.64649
722.015,77.54414,-2.92489,0.03976318,0.64365
725.115,77.8575,-2.9263,0.03334495,0.64081
728.215,78.17187,-2.92621,0.03508197,0.63797
731.315,78.48584,-2.9262,0.0346639,0.63513
734.415,78.80075,-2.92687,0.02912122,0.6323
737.515,79.11522,-2.9288,0.03104487,0.62946
740.615,79.42942,-2.92818,0.03633826,0.62663
743.715,79.74315,-2.92951,0.03714759,0.62379
746.215,79.99706,-2.93181,0.03629796,0.62151