Folder: fsri_materials_database/01_Data/Eucalyptus_Flooring/STA/N2/10K_min (part 2)

File: Eucalyptus_Flooring_STA_N2_10KData_211012_R3.csv
##Temp./Â°C,Time/min,Mass loss(subtr.2)/mg,DSC(subtr.2)/(mW/mg),Sensit./(uV/mW)
49.404,10.00917,-0.05473,0.01057171,1.07446
52.504,11.30955,-0.05691972,0.10119,1.07424
55.604,11.75681,-0.05941426,0.14738,1.07399
58.704,12.13693,-0.05830656,0.17685,1.07373
61.804,12.49262,-0.06019123,0.19307,1.07343
64.904,12.83641,-0.06183047,0.20659,1.07312
68.004,13.1746,-0.06240966,0.21527,1.07279
71.104,13.5072,-0.0650371,0.22727,1.07243
74.204,13.83557,-0.06637419,0.23587,1.07205
77.304,14.1617,-0.07035586,0.24261,1.07164
80.404,14.4835,-0.07035927,0.25067,1.07122
83.504,14.80269,-0.07392356,0.25484,1.07077
86.604,15.1183,-0.07590977,0.25871,1.0703
89.704,15.4316,-0.07616644,0.25623,1.06981
92.804,15.74255,-0.07951624,0.25357,1.0693
95.904,16.05105,-0.08083999,0.25241,1.06876
99.004,16.35869,-0.08217128,0.24935,1.0682
102.104,16.66389,-0.08371435,0.24771,1.06762
105.204,16.96922,-0.08512433,0.24288,1.06702
108.304,17.2738,-0.0874267,0.24367,1.0664
111.404,17.5777,-0.08759082,0.24349,1.06575
114.504,17.88138,-0.08764,0.24347,1.06509
117.604,18.18545,-0.08961094,0.24588,1.0644
120.704,18.48839,-0.0915915,0.24579,1.06369
123.804,18.79,-0.09159028,0.24946,1.06296
126.904,19.09241,-0.09159064,0.25491,1.0622
130.004,19.39359,-0.09322932,0.25729,1.06143
133.104,19.69474,-0.09270064,0.26316,1.06063
136.204,19.99447,-0.09454997,0.26624,1.05982
139.304,20.29476,-0.09688282,0.27065,1.05898
142.404,20.59447,-0.09783968,0.27376,1.05812
145.504,20.89418,-0.09915999,0.27889,1.05724
148.604,21.19381,-0.09982007,0.28104,1.05634
151.704,21.49227,-0.10245,0.28423,1.05541
154.804,21.7902,-0.10377,0.29187,1.05447
157.904,22.0879,-0.10442,0.29726,1.05351
161.004,22.3861,-0.10575,0.30164,1.05252
164.104,22.68393,-0.10969,0.30274,1.05152
167.204,22.9817,-0.11232,0.30621,1.05049
170.304,23.27927,-0.11529,0.30901,1.04944
173.404,23.57636,-0.1165,0.3123,1.04838
176.504,23.8744,-0.12153,0.31593,1.04729
179.604,24.17166,-0.12325,0.31745,1.04618
182.704,24.4693,-0.12548,0.31774,1.04505
185.804,24.76677,-0.12811,0.31607,1.04391
188.904,25.0638,-0.13206,0.31942,1.04274
192.004,25.36001,-0.13601,0.32237,1.04155
195.104,25.65719,-0.14127,0.32379,1.04034
198.204,25.95334,-0.14795,0.32594,1.03912
201.304,26.2497,-0.15148,0.32734,1.03787
204.404,26.54587,-0.15844,0.3263,1.0366
207.504,26.842,-0.16244,0.32776,1.03532
210.604,27.13859,-0.17024,0.32796,1.03401
213.704,27.4345,-0.17649,0.32692,1.03269
216.804,27.73152,-0.18385,0.32411,1.03134
219.904,28.02807,-0.19197,0.32292,1.02998
223.004,28.3249,-0.20101,0.31772,1.0286
226.104,28.62107,-0.20807,0.31264,1.0272
229.204,28.9176,-0.21915,0.30823,1.02578
232.304,29.2139,-0.23054,0.30551,1.02434
235.404,29.5099,-0.24259,0.30462,1.02289
238.504,29.80663,-0.25589,0.29791,1.02141
241.604,30.10373,-0.26774,0.29095,1.01992
244.704,30.40005,-0.28204,0.28377,1.01841
247.804,30.69606,-0.29705,0.27992,1.01688
250.904,30.99255,-0.31581,0.27554,1.01533
254.004,31.2886,-0.33251,0.2705,1.01376
257.104,31.58513,-0.35036,0.26487,1.01218
260.204,31.88182,-0.37161,0.26292,1.01058
263.304,32.1785,-0.3932,0.2573,1.00896
266.404,32.47535,-0.41918,0.25135,1.00732
269.504,32.7716,-0.44506,0.24547,1.00567
272.604,33.0674,-0.47326,0.23628,1.00399
275.704,33.36388,-0.50752,0.23038,1.00231
278.804,33.66042,-0.54086,0.22341,1.0006
281.904,33.9572,-0.5803,0.21394,0.99888
285.004,34.25411,-0.62227,0.20963,0.99714
288.104,34.55105,-0.67016,0.20626,0.99538
291.204,34.8491,-0.72183,0.205,0.99361
294.304,35.14643,-0.77658,0.20994,0.99182
297.404,35.44475,-0.83648,0.21796,0.99001
300.504,35.74258,-0.89941,0.22524,0.98819
303.604,36.04101,-0.9684,0.23502,0.98635
306.704,36.33913,-1.04102,0.24596,0.9845
309.804,36.63797,-1.1216,0.25324,0.98263
312.904,36.93665,-1.20465,0.2594,0.98074
316.004,37.23555,-1.29401,0.26653,0.97884
319.104,37.5344,-1.39059,0.26605,0.97692
322.204,37.83436,-1.48913,0.2616,0.97499
325.304,38.1331,-1.59369,0.24872,0.97304
328.404,38.43261,-1.69811,0.23155,0.97108
331.504,38.7322,-1.80131,0.20694,0.9691
334.604,39.03076,-1.89795,0.17817,0.96711
337.704,39.32945,-1.98618,0.152,0.9651
340.804,39.62887,-2.06291,0.12502,0.96308
343.904,39.92841,-2.12496,0.10296,0.96104
347.004,40.2286,-2.17798,0.08579574,0.95899
350.104,40.52879,-2.21812,0.07293204,0.95692
353.204,40.82926,-2.24989,0.06481728,0.95484
356.304,41.13047,-2.27919,0.05427568,0.95275
359.404,41.43104,-2.30087,0.04412254,0.95064
362.504,41.73284,-2.32093,0.03314431,0.94851
365.604,42.03417,-2.33874,0.02154131,0.94638
368.704,42.33596,-2.35466,0.01344166,0.94423
371.804,42.63769,-2.37006,0.0025664,0.94207
374.904,42.93955,-2.38413,-0.006001509,0.93989
378.004,43.2408,-2.3985,-0.0137561,0.9377
381.104,43.5428,-2.41368,-0.01982503,0.9355
384.204,43.84475,-2.42686,-0.02689316,0.93328
387.304,44.1472,-2.44018,-0.03223735,0.93105
390.404,44.44948,-2.45128,-0.03775986,0.92881
393.504,44.75202,-2.46537,-0.04029792,0.92656
396.604,45.0539,-2.47551,-0.04010898,0.92429
399.704,45.35774,-2.48833,-0.03799013,0.92201
402.804,45.66036,-2.49841,-0.0352782,0.91972
405.904,45.96327,-2.50968,-0.03281913,0.91742
409.004,46.2666,-2.51899,-0.02898565,0.91511
412.104,46.5702,-2.53183,-0.02909014,0.91278
415.204,46.8742,-2.54163,-0.02431307,0.91044
418.304,47.17811,-2.55202,-0.01647885,0.90809
421.404,47.48198,-2.56446,-0.01060363,0.90573
424.504,47.7858,-2.57494,-0.008161658,0.90336
427.604,48.08998,-2.58612,0.000418794,0.90098
430.704,48.39373,-2.59679,0.002484229,0.89858
433.804,48.69807,-2.60418,0.009738105,0.89618
436.904,49.00271,-2.61462,0.01420905,0.89376
440.004,49.30805,-2.6236,0.01460765,0.89134
443.104,49.61303,-2.6321,0.01733509,0.8889
446.204,49.91855,-2.63901,0.01767968,0.88646
449.304,50.22473,-2.64637,0.0183882,0.884
452.404,50.52969,-2.65631,0.02232254,0.88153
455.504,50.83531,-2.66221,0.02357706,0.87906
458.604,51.1413,-2.67193,0.02478935,0.87657
461.704,51.44773,-2.67705,0.02412479,0.87407
464.804,51.75412,-2.68568,0.02533714,0.87157
467.904,52.06075,-2.69134,0.0250666,0.86905
471.004,52.3671,-2.6997,0.02541949,0.86653
474.104,52.67495,-2.70498,0.02793949,0.864
477.204,52.98126,-2.71167,0.02406219,0.86146
480.304,53.2886,-2.71692,0.02641976,0.85891
483.404,53.5952,-2.72088,0.02456448,0.85635
486.504,53.9028,-2.72714,0.02326793,0.85378
489.604,54.20933,-2.73239,0.02535619,0.8512
492.704,54.51611,-2.73629,0.03352466,0.84862
495.804,54.82249,-2.7432,0.03875701,0.84603
498.904,55.12894,-2.74818,0.03907825,0.84342
502.004,55.43643,-2.75321,0.04160586,0.84082
505.104,55.74397,-2.75833,0.04764617,0.8382
508.204,56.0523,-2.76365,0.05409919,0.83558
511.304,56.3604,-2.76891,0.05880239,0.83294
514.404,56.66904,-2.77429,0.0613307,0.83031
517.504,56.977,-2.7812,0.06413951,0.82766
520.604,57.28516,-2.78451,0.06449881,0.82501
523.704,57.59265,-2.7891,0.06538026,0.82235
526.804,57.9006,-2.79306,0.06817675,0.81968
529.904,58.209,-2.79731,0.06531158,0.81701
533.004,58.51673,-2.80157,0.06603862,0.81433
536.104,58.82501,-2.80488,0.06688264,0.81164
539.204,59.1331,-2.80818,0.06596736,0.80895
542.304,59.44166,-2.81203,0.06129119,0.80625
545.404,59.75042,-2.81881,0.05201597,0.80355
548.504,60.0601,-2.82276,0.04628736,0.80084
551.604,60.3694,-2.82474,0.04095703,0.79812
554.704,60.67847,-2.8287,0.03080635,0.7954
557.804,60.9876,-2.83034,0.0247245,0.79267
560.904,61.29758,-2.83396,0.01485914,0.78994
564.004,61.60782,-2.83659,0.00719258,0.7872
567.104,61.9186,-2.84054,0.004935455,0.78446
570.204,62.22849,-2.84476,0.004421266,0.78171
573.304,62.53875,-2.84808,0.004403258,0.77896
576.404,62.8491,-2.85239,0.00656411,0.7762
579.504,63.15903,-2.85535,0.006107792,0.77344
582.604,63.46856,-2.8593,0.01321264,0.77067
585.704,63.7789,-2.86193,0.01894107,0.7679
588.804,64.0892,-2.86457,0.02424759,0.76513
591.904,64.4006,-2.86798,0.02545856,0.76235
595.004,64.71161,-2.87114,0.0279716,0.75956
598.104,65.0236,-2.87106,0.03324251,0.75678
601.204,65.3351,-2.87608,0.03415991,0.75399
604.304,65.64654,-2.87724,0.0349643,0.75119
607.404,65.95778,-2.88134,0.03463925,0.7484
610.504,66.2693,-2.88366,0.03302096,0.74559
613.604,66.57995,-2.88661,0.03622797,0.74279
616.704,66.89046,-2.88924,0.03879926,0.73998
619.804,67.20244,-2.89056,0.03814142,0.73717
622.904,67.51388,-2.89188,0.03941432,0.73436
626.004,67.82502,-2.89385,0.04199917,0.73155
629.104,68.13746,-2.89548,0.03943298,0.72873
632.204,68.4492,-2.89583,0.03939005,0.72591
635.304,68.76173,-2.89714,0.04383741,0.72308
638.404,69.07432,-2.90049,0.04136467,0.72026
641.504,69.38769,-2.90044,0.04233364,0.71743
644.604,69.70051,-2.90273,0.04164381,0.7146
647.704,70.01265,-2.90574,0.04390872,0.71177
650.804,70.32489,-2.90668,0.04388597,0.70894
653.904,70.63761,-2.90856,0.04172794,0.70611
657.004,70.95,-2.91161,0.04198212,0.70327
660.104,71.263,-2.91294,0.0422212,0.70043
663.204,71.57615,-2.91557,0.03741721,0.69759
666.304,71.88848,-2.91689,0.03715938,0.69475
669.404,72.20121,-2.91853,0.03816962,0.69191
672.504,72.51439,-2.9205,0.0369852,0.68907
675.604,72.8283,-2.92182,0.03353128,0.68623
678.704,73.14177,-2.92413,0.03242431,0.68339
681.804,73.4556,-2.92482,0.02758173,0.68054
684.904,73.76885,-2.92577,0.02376338,0.6777
688.004,74.08249,-2.92708,0.01964247,0.67485
691.104,74.39613,-2.9284,0.01687113,0.67201
694.204,74.70911,-2.92939,0.01583725,0.66916
697.304,75.0228,-2.9307,0.01278924,0.66632
700.404,75.33678,-2.93228,0.009146699,0.66347
703.504,75.65037,-2.93301,0.001704465,0.66063
706.604,75.96404,-2.93367,-0.002004872,0.65778
709.704,76.27843,-2.93465,-0.00195412,0.65494
712.804,76.59314,-2.9363,-0.01149496,0.6521
715.904,76.90767,-2.93892,-0.01235568,0.64925
719.004,77.22279,-2.93993,-0.01961883,0.64641
722.104,77.53908,-2.94058,-0.02382457,0.64357
725.204,77.8537,-2.94174,-0.02564386,0.64073
728.304,78.16654,-2.94159,-0.02847409,0.63789
731.404,78.47931,-2.94288,-0.03159831,0.63505
734.504,78.79174,-2.94321,-0.0367882,0.63221
737.604,79.1048,-2.94479,-0.03882178,0.62938
740.704,79.41884,-2.9465,-0.04350644,0.62654
743.804,79.73354,-2.94749,-0.04754627,0.62371
746.404,79.9974,-2.94683,-0.05118452,0.62134