Folder: fsri_materials_database/01_Data/Eucalyptus_Flooring/STA/N2/30K_min

Note: 01_Data/README.md
# Materials and Products Database
## 01_Data

Raw data generated from each apparatus are included here in plain-text format. The data is organized first by material, next by the short name of test apparatus used, and where applicable additional filtering by test settings.

### material.json

Each material directory contains a json file of the same name as the material. This file links the data stored in the repository as well as data and graphs produced by the accompanying scripts (__02_Scripts__) to the respective landing page for the material on the front-end website.

File: EUC_STA_N2_30KData_211312_R2.csv
##Temp./Â°C,Time/min,Mass loss(subtr.2)/mg,DSC(subtr.2)/(mW/mg),Sensit./(uV/mW)
48.563,10.00917,-0.04321,0.01942007,1.06963
51.563,10.86255,-0.045798,0.17888,1.06936
54.563,11.09068,-0.04737342,0.28901,1.06906
57.563,11.26505,-0.04619717,0.37436,1.06874
60.563,11.41536,-0.0468409,0.44894,1.06839
63.563,11.55105,-0.04886285,0.51138,1.06802
66.563,11.67802,-0.04930585,0.56676,1.06762
69.563,11.7989,-0.04771286,0.61605,1.0672
72.563,11.91548,-0.04941153,0.65887,1.06675
75.563,12.0289,-0.05143877,0.7,1.06628
78.563,12.1397,-0.0531755,0.73578,1.06578
81.563,12.24842,-0.05227189,0.76981,1.06526
84.563,12.3561,-0.05372299,0.79908,1.06472
87.563,12.4618,-0.05391474,0.82653,1.06415
90.563,12.5661,-0.05534488,0.85182,1.06356
93.563,12.66992,-0.05540866,0.87175,1.06294
96.563,12.77272,-0.05625845,0.89225,1.0623
99.563,12.8749,-0.05890877,0.90489,1.06164
102.563,12.97665,-0.06010341,0.91617,1.06095
105.563,13.07797,-0.06109046,0.92151,1.06024
108.563,13.1791,-0.06152598,0.92421,1.0595
111.563,13.2797,-0.06284115,0.92528,1.05875
114.563,13.3804,-0.06481871,0.92382,1.05797
117.563,13.48091,-0.06415998,0.92367,1.05716
120.563,13.581,-0.06546851,0.92283,1.05634
123.563,13.6805,-0.06547246,0.9225,1.05549
126.563,13.77929,-0.06648057,0.9272,1.05462
129.563,13.8781,-0.06811786,0.93749,1.05372
132.563,13.9761,-0.06813605,0.94484,1.05281
135.563,14.07381,-0.06951236,0.95542,1.05187
138.563,14.17111,-0.06811154,0.96684,1.05091
141.563,14.2681,-0.06997922,0.98191,1.04992
144.563,14.3645,-0.07032331,0.99543,1.04892
147.563,14.46064,-0.07204943,1.00883,1.04789
150.563,14.5565,-0.07219557,1.02424,1.04685
153.563,14.6517,-0.07479912,1.03994,1.04578
156.563,14.74726,-0.0748,1.05533,1.04469
159.563,14.84232,-0.07480839,1.07147,1.04358
162.563,14.93701,-0.07737261,1.08774,1.04245
165.563,15.03191,-0.07803306,1.1017,1.04129
168.563,15.1265,-0.08007377,1.11794,1.04012
171.563,15.2207,-0.08007778,1.13251,1.03893
174.563,15.3147,-0.08365149,1.14936,1.03771
177.563,15.4086,-0.0840098,1.16403,1.03648
180.563,15.5019,-0.08398175,1.17728,1.03522
183.563,15.59505,-0.08643542,1.1917,1.03395
186.563,15.6877,-0.08927772,1.2068,1.03265
189.563,15.7806,-0.09069103,1.21877,1.03134
192.563,15.87294,-0.09321697,1.23264,1.03001
195.563,15.96514,-0.09597963,1.24009,1.02865
198.563,16.05746,-0.09759847,1.24814,1.02728
201.563,16.1497,-0.10221,1.25592,1.02589
204.563,16.24146,-0.10498,1.26461,1.02448
207.563,16.33313,-0.10818,1.26944,1.02305
210.563,16.42484,-0.1127,1.27224,1.02161
213.563,16.5167,-0.11692,1.27824,1.02014
216.563,16.6081,-0.1224,1.28159,1.01866
219.563,16.6996,-0.12818,1.28294,1.01716
222.563,16.79094,-0.13362,1.28357,1.01564
225.563,16.8823,-0.13842,1.28216,1.0141
228.563,16.9737,-0.14532,1.27898,1.01255
231.563,17.06475,-0.15172,1.27316,1.01098
234.563,17.15597,-0.15962,1.26641,1.00939
237.563,17.24708,-0.16752,1.25996,1.00778
240.563,17.3383,-0.17519,1.25041,1.00616
243.563,17.4291,-0.18447,1.24421,1.00452
246.563,17.5202,-0.19455,1.23205,1.00286
249.563,17.61126,-0.20458,1.22278,1.00119
252.563,17.70206,-0.21542,1.20759,0.9995
255.563,17.79295,-0.22732,1.19344,0.9978
258.563,17.8838,-0.23889,1.18066,0.99608
261.563,17.97464,-0.25054,1.16743,0.99434
264.563,18.06561,-0.26434,1.15215,0.99259
267.563,18.15644,-0.27918,1.13721,0.99082
270.563,18.24716,-0.29486,1.12467,0.98904
273.563,18.33792,-0.31141,1.11072,0.98724
276.563,18.4286,-0.32839,1.09674,0.98543
279.563,18.51957,-0.3481,1.08618,0.9836
282.563,18.61036,-0.36761,1.07086,0.98176
285.563,18.70131,-0.39133,1.05266,0.9799
288.563,18.7923,-0.41468,1.03553,0.97803
291.563,18.88314,-0.4403,1.01744,0.97615
294.563,18.97421,-0.4696,0.99575,0.97425
297.563,19.0653,-0.50047,0.97027,0.97234
300.563,19.15602,-0.5326,0.94418,0.97041
303.563,19.2471,-0.56952,0.92175,0.96847
306.563,19.33827,-0.60968,0.90105,0.96652
309.563,19.4291,-0.65292,0.88961,0.96455
312.563,19.52026,-0.70028,0.88121,0.96258
315.563,19.61127,-0.75049,0.88558,0.96058
318.563,19.70233,-0.80617,0.89873,0.95858
321.563,19.7937,-0.86378,0.9183,0.95657
324.563,19.8849,-0.92465,0.94149,0.95454
327.563,19.97635,-0.99126,0.96686,0.9525
330.563,20.06784,-1.06477,0.98814,0.95045
333.563,20.15942,-1.13838,1.0051,0.94838
336.563,20.25098,-1.21837,1.01272,0.94631
339.563,20.34272,-1.3076,1.01217,0.94422
342.563,20.43423,-1.39956,1.00101,0.94212
345.563,20.5263,-1.49124,0.97461,0.94002
348.563,20.61804,-1.58962,0.93015,0.9379
351.563,20.7101,-1.69045,0.86626,0.93577
354.563,20.80206,-1.78464,0.79123,0.93363
357.563,20.89404,-1.87329,0.71288,0.93148
360.563,20.98637,-1.95998,0.63088,0.92931
363.563,21.07861,-2.02963,0.56321,0.92714
366.563,21.1709,-2.08849,0.51348,0.92496
369.563,21.26335,-2.13674,0.47791,0.92277
372.563,21.35588,-2.17563,0.45455,0.92057
375.563,21.4485,-2.20559,0.431,0.91836
378.563,21.54121,-2.2306,0.41428,0.91614
381.563,21.63429,-2.25199,0.39177,0.91392
384.563,21.72719,-2.27153,0.36765,0.91168
387.563,21.8202,-2.28685,0.34239,0.90943
390.563,21.91341,-2.30327,0.31973,0.90718
393.563,22.00662,-2.31676,0.29087,0.90492
396.563,22.09995,-2.33004,0.26576,0.90265
399.563,22.1933,-2.34254,0.24141,0.90037
402.563,22.2868,-2.35464,0.21982,0.89808
405.563,22.38025,-2.36843,0.2002,0.89579
408.563,22.47374,-2.37741,0.1876,0.89349
411.563,22.56738,-2.38944,0.1758,0.89118
414.563,22.6611,-2.40145,0.17025,0.88886
417.563,22.75485,-2.41287,0.16588,0.88654
420.563,22.84889,-2.42403,0.16248,0.88421
423.563,22.94282,-2.43341,0.16532,0.88187
426.563,23.03708,-2.44445,0.175,0.87953
429.563,23.13129,-2.454,0.18361,0.87718
432.563,23.22568,-2.46535,0.19472,0.87482
435.563,23.32018,-2.47593,0.20644,0.87246
438.563,23.41435,-2.48561,0.22521,0.87009
441.563,23.50921,-2.4947,0.24118,0.86771
444.563,23.60369,-2.50376,0.2556,0.86533
447.563,23.6986,-2.51287,0.27534,0.86295
450.563,23.79329,-2.52089,0.28901,0.86055
453.563,23.88831,-2.53105,0.30526,0.85816
456.563,23.98347,-2.53977,0.3188,0.85575
459.563,24.07841,-2.54698,0.33019,0.85335
462.563,24.17354,-2.55589,0.34314,0.85093
465.563,24.26876,-2.56314,0.35424,0.84852
468.563,24.364,-2.57109,0.35988,0.84609
471.563,24.4592,-2.57948,0.36931,0.84367
474.563,24.55469,-2.58708,0.37321,0.84124
477.563,24.65008,-2.59235,0.37728,0.8388
480.563,24.74571,-2.59913,0.38191,0.83636
483.563,24.84129,-2.60601,0.38322,0.83392
486.563,24.9371,-2.61367,0.38669,0.83147
489.563,25.0329,-2.62023,0.38776,0.82902
492.563,25.12872,-2.62582,0.38582,0.82657
495.563,25.22476,-2.63113,0.38764,0.82411
498.563,25.32084,-2.63646,0.38809,0.82165
501.563,25.41692,-2.6434,0.38649,0.81919
504.563,25.51314,-2.64847,0.38592,0.81672
507.563,25.6095,-2.65323,0.38665,0.81425
510.563,25.7058,-2.65902,0.38441,0.81178
513.563,25.80228,-2.6642,0.38514,0.8093
516.563,25.8988,-2.67028,0.38226,0.80683
519.563,25.99536,-2.67465,0.37665,0.80434
522.563,26.09214,-2.67852,0.37627,0.80186
525.563,26.18875,-2.68388,0.37673,0.79938
528.563,26.2857,-2.68859,0.37474,0.79689
531.563,26.38277,-2.69285,0.36765,0.7944
534.563,26.47968,-2.69787,0.36461,0.79191
537.563,26.57685,-2.7032,0.36439,0.78942
540.563,26.6739,-2.70672,0.36371,0.78693
543.563,26.77099,-2.7108,0.3595,0.78443
546.563,26.8684,-2.71426,0.35841,0.78193
549.563,26.9658,-2.71837,0.35644,0.77944
552.563,27.0632,-2.72228,0.35191,0.77694
555.563,27.16055,-2.72579,0.35068,0.77444
558.563,27.2577,-2.73258,0.34944,0.77194
561.563,27.3555,-2.73595,0.34826,0.76944
564.563,27.45332,-2.73876,0.34761,0.76693
567.563,27.55092,-2.74324,0.34638,0.76443
570.563,27.64845,-2.74566,0.34821,0.76193
573.563,27.7461,-2.74841,0.34476,0.75942
576.563,27.84403,-2.75282,0.35239,0.75692
579.563,27.942,-2.75523,0.35375,0.75441
582.563,28.04,-2.75915,0.35807,0.75191
585.563,28.1379,-2.76311,0.36507,0.74941
588.563,28.23612,-2.76607,0.36936,0.7469
591.563,28.3343,-2.76905,0.37133,0.7444
594.563,28.4327,-2.77338,0.3802,0.74189
597.563,28.53107,-2.77453,0.38467,0.73939
600.563,28.62957,-2.77702,0.38576,0.73689
603.563,28.728,-2.78133,0.38964,0.73438
606.563,28.827,-2.78333,0.38863,0.73188
609.563,28.92564,-2.7866,0.39298,0.72938
612.563,29.0243,-2.7893,0.39309,0.72688
615.563,29.12323,-2.79194,0.40155,0.72438
618.563,29.22213,-2.79459,0.40764,0.72188
621.563,29.321,-2.79604,0.41612,0.71939
624.563,29.41988,-2.79819,0.4225,0.71689
627.563,29.5188,-2.80083,0.43235,0.7144
630.563,29.6179,-2.80348,0.44157,0.7119
633.563,29.71674,-2.80508,0.44784,0.70941
636.563,29.81584,-2.80655,0.45968,0.70692
639.563,29.9149,-2.81035,0.46822,0.70443
642.563,30.01375,-2.81313,0.47855,0.70194
645.563,30.1128,-2.81429,0.48701,0.69946
648.563,30.21179,-2.81563,0.50025,0.69697
651.563,30.31082,-2.81825,0.50773,0.69449
654.563,30.41,-2.81957,0.52046,0.69201
657.563,30.50903,-2.82221,0.52646,0.68953
660.563,30.60806,-2.82442,0.53337,0.68706
663.563,30.7073,-2.82486,0.53954,0.68458
666.563,30.80625,-2.8275,0.54733,0.68211
669.563,30.90555,-2.83026,0.55253,0.67964
672.563,31.0049,-2.83171,0.55219,0.67717
675.563,31.1042,-2.83416,0.55552,0.67471
678.563,31.2034,-2.83363,0.55603,0.67225
681.563,31.3029,-2.83695,0.55461,0.66979
684.563,31.4021,-2.83823,0.55555,0.66733
687.563,31.50163,-2.83955,0.55367,0.66488
690.563,31.6012,-2.83975,0.54944,0.66242
693.563,31.70083,-2.84161,0.54484,0.65997
696.563,31.8003,-2.84358,0.53781,0.65753
699.563,31.90008,-2.84483,0.52656,0.65508
702.563,31.99983,-2.84612,0.5182,0.65264
705.563,32.09977,-2.84779,0.50886,0.65021
708.563,32.1993,-2.85041,0.50257,0.64777
711.563,32.29959,-2.85041,0.49181,0.64534
714.563,32.39962,-2.8511,0.48667,0.64291
717.563,32.4993,-2.85172,0.4852,0.64049
720.563,32.59949,-2.85369,0.47125,0.63806
723.563,32.6997,-2.85503,0.46221,0.63565
726.563,32.7998,-2.85506,0.45858,0.63323
729.563,32.8999,-2.85633,0.45248,0.63082
732.563,33.00016,-2.85765,0.44009,0.62841
735.563,33.10052,-2.85897,0.43237,0.626
738.563,33.2006,-2.85928,0.42284,0.6236
741.563,33.30171,-2.85929,0.41877,0.6212
742.463,33.33166,-2.86088,0.41347,0.62049

File: Eucalyptus_Flooring_STA_N2_30KData_211312_R1.csv
##Temp./Â°C,Time/min,Mass loss(subtr.2)/mg,DSC(subtr.2)/(mW/mg),Sensit./(uV/mW)
48.541,10.01,-0.00757,0.00945088,1.06963
51.541,10.86347,-0.00748576,0.17475,1.06936
54.541,11.0912,-0.009663192,0.28524,1.06906
57.541,11.26544,-0.00696027,0.37332,1.06874
60.541,11.4148,-0.008431356,0.44521,1.06839
63.541,11.55159,-0.009207115,0.50847,1.06802
66.541,11.67859,-0.0088965,0.56128,1.06762
69.541,11.79957,-0.00911593,0.61025,1.0672
72.541,11.91605,-0.01012038,0.65495,1.06675
75.541,12.02966,-0.00970214,0.69388,1.06628
78.541,12.14045,-0.01192274,0.73085,1.06579
81.541,12.24929,-0.01144082,0.76492,1.06527
84.541,12.3565,-0.01106845,0.79639,1.06472
87.541,12.46223,-0.01340734,0.8239,1.06415
90.541,12.56692,-0.01379306,0.85007,1.06356
93.541,12.67015,-0.01403999,0.87388,1.06294
96.541,12.77305,-0.01669659,0.89306,1.0623
99.541,12.87543,-0.01667954,0.90647,1.06164
102.541,12.97717,-0.01701176,0.91524,1.06095
105.541,13.07846,-0.01820785,0.92132,1.06024
108.541,13.1798,-0.01930982,0.92425,1.05951
111.541,13.28025,-0.01930786,0.92467,1.05875
114.541,13.38158,-0.02050791,0.92326,1.05797
117.541,13.48195,-0.02070598,0.92057,1.05717
120.541,13.58194,-0.02330091,0.91927,1.05634
123.541,13.68157,-0.02326005,0.92155,1.05549
126.541,13.7805,-0.02391878,0.92428,1.05462
129.541,13.8792,-0.02326241,0.92908,1.05373
132.541,13.9773,-0.02456993,0.93543,1.05281
135.541,14.07514,-0.0252124,0.94697,1.05187
138.541,14.17242,-0.02523,0.95752,1.05091
141.541,14.2693,-0.02523049,0.96834,1.04993
144.541,14.3659,-0.0258862,0.98213,1.04893
147.541,14.462,-0.0272085,0.99752,1.0479
150.541,14.55771,-0.02852012,1.01275,1.04685
153.541,14.6534,-0.02850605,1.02784,1.04579
156.541,14.74876,-0.02852002,1.0398,1.0447
159.541,14.8438,-0.02885401,1.05846,1.04359
162.541,14.93878,-0.03148155,1.07392,1.04245
165.541,15.0334,-0.03148007,1.08888,1.0413
168.541,15.1282,-0.03344225,1.10504,1.04013
171.541,15.22225,-0.03474136,1.12122,1.03893
174.541,15.3161,-0.03674458,1.13661,1.03772
177.541,15.41024,-0.03676387,1.14961,1.03649
180.541,15.5036,-0.03947712,1.16391,1.03523
183.541,15.59675,-0.04139567,1.17906,1.03396
186.541,15.6897,-0.04332862,1.19257,1.03266
189.541,15.78236,-0.04575887,1.20471,1.03135
192.541,15.87475,-0.04726753,1.21484,1.03002
195.541,15.96713,-0.04999249,1.22531,1.02866
198.541,16.05939,-0.05286757,1.23256,1.02729
201.541,16.15129,-0.05527661,1.23736,1.0259
204.541,16.24332,-0.05704612,1.24479,1.02449
207.541,16.33525,-0.06142872,1.24828,1.02307
210.541,16.42698,-0.06600187,1.25216,1.02162
213.541,16.51867,-0.0703038,1.25573,1.02015
216.541,16.61032,-0.07439696,1.25871,1.01867
219.541,16.70195,-0.08004919,1.25989,1.01717
222.541,16.7933,-0.08586454,1.26047,1.01565
225.541,16.88465,-0.09127219,1.25546,1.01411
228.541,16.97596,-0.09840629,1.24916,1.01256
231.541,17.06709,-0.10526,1.24467,1.01099
234.541,17.1583,-0.11075,1.2359,1.0094
237.541,17.2494,-0.11972,1.23087,1.00779
240.541,17.34027,-0.12912,1.22474,1.00617
243.541,17.4314,-0.13765,1.21308,1.00453
246.541,17.5223,-0.14767,1.20009,1.00288
249.541,17.613,-0.15748,1.18632,1.0012
252.541,17.70382,-0.16711,1.17387,0.99951
255.541,17.79467,-0.17908,1.15924,0.99781
258.541,17.88525,-0.19114,1.14313,0.99609
261.541,17.97589,-0.20283,1.12755,0.99435
264.541,18.06653,-0.21751,1.11346,0.9926
267.541,18.15705,-0.23258,1.09704,0.99083
270.541,18.2476,-0.24783,1.0831,0.98905
273.541,18.33833,-0.26382,1.0709,0.98725
276.541,18.42882,-0.28223,1.05512,0.98544
279.541,18.51943,-0.29963,1.04371,0.98361
282.541,18.61008,-0.32184,1.02926,0.98177
285.541,18.70064,-0.34374,1.00873,0.97992
288.541,18.79133,-0.36854,0.98969,0.97804
291.541,18.8821,-0.39253,0.96506,0.97616
294.541,18.97295,-0.42136,0.94509,0.97426
297.541,19.06371,-0.45107,0.91624,0.97235
300.541,19.1544,-0.48589,0.8851,0.97042
303.541,19.24554,-0.52224,0.85792,0.96849
306.541,19.3365,-0.56252,0.83696,0.96653
309.541,19.42732,-0.60812,0.82025,0.96457
312.541,19.51835,-0.65375,0.81222,0.96259
315.541,19.60934,-0.7047,0.81113,0.9606
318.541,19.70049,-0.75809,0.82329,0.9586
321.541,19.79185,-0.81919,0.8437,0.95658
324.541,19.88322,-0.8778,0.86384,0.95455
327.541,19.97458,-0.94417,0.88812,0.95251
330.541,20.06604,-1.0187,0.90668,0.95046
333.541,20.15762,-1.09378,0.92145,0.9484
336.541,20.2494,-1.17486,0.92771,0.94632
339.541,20.34111,-1.26145,0.92362,0.94424
342.541,20.43282,-1.3553,0.90616,0.94214
345.541,20.52441,-1.44698,0.874,0.94003
348.541,20.61659,-1.54885,0.82811,0.93791
351.541,20.70851,-1.65016,0.76207,0.93578
354.541,20.80046,-1.74637,0.68646,0.93364
357.541,20.89268,-1.83701,0.60306,0.93149
360.541,20.985,-1.92336,0.52687,0.92933
363.541,21.07724,-1.99561,0.46371,0.92716
366.541,21.16965,-2.05466,0.42387,0.92498
369.541,21.26203,-2.10436,0.40102,0.92279
372.541,21.35456,-2.1423,0.38368,0.92059
375.541,21.44748,-2.17267,0.37067,0.91838
378.541,21.5406,-2.19619,0.35534,0.91616
381.541,21.63344,-2.21702,0.33812,0.91393
384.541,21.7265,-2.23898,0.31885,0.9117
387.541,21.81953,-2.25475,0.29472,0.90945
390.541,21.91302,-2.26958,0.27242,0.9072
393.541,22.00646,-2.28567,0.24728,0.90494
396.541,22.09971,-2.30019,0.22259,0.90267
399.541,22.19301,-2.31017,0.20109,0.90039
402.541,22.2867,-2.32394,0.18117,0.8981
405.541,22.38029,-2.33743,0.16011,0.89581
408.541,22.47397,-2.34855,0.14681,0.89351
411.541,22.56778,-2.36026,0.13537,0.8912
414.541,22.6617,-2.37183,0.12862,0.88888
417.541,22.7553,-2.38315,0.12992,0.88656
420.541,22.8496,-2.3955,0.13051,0.88423
423.541,22.9438,-2.40598,0.13509,0.88189
426.541,23.03809,-2.41739,0.14489,0.87954
429.541,23.13243,-2.42626,0.15552,0.87719
432.541,23.22684,-2.43702,0.16874,0.87484
435.541,23.3214,-2.44742,0.18368,0.87247
438.541,23.41613,-2.4579,0.20398,0.87011
441.541,23.51086,-2.46902,0.22234,0.86773
444.541,23.6056,-2.47901,0.24503,0.86535
447.541,23.70062,-2.48839,0.26179,0.86296
450.541,23.79565,-2.49734,0.2802,0.86057
453.541,23.8907,-2.50738,0.30069,0.85817
456.541,23.98586,-2.5165,0.3146,0.85577
459.541,24.08126,-2.52346,0.32983,0.85336
462.541,24.17667,-2.53317,0.34091,0.85095
465.541,24.2722,-2.541,0.35528,0.84853
468.541,24.36765,-2.5493,0.36428,0.84611
471.541,24.46294,-2.55697,0.37329,0.84369
474.541,24.5589,-2.56416,0.38019,0.84126
477.541,24.65464,-2.5711,0.38942,0.83882
480.541,24.75061,-2.57787,0.3945,0.83638
483.541,24.84637,-2.58557,0.40003,0.83394
486.541,24.94228,-2.59125,0.40363,0.83149
489.541,25.03823,-2.59816,0.40888,0.82904
492.541,25.13423,-2.60331,0.41302,0.82659
495.541,25.23043,-2.6086,0.41468,0.82413
498.541,25.32649,-2.6149,0.41286,0.82167
501.541,25.4227,-2.62137,0.41504,0.81921
504.541,25.51899,-2.62778,0.41405,0.81674
507.541,25.61526,-2.63247,0.41587,0.81427
510.541,25.7117,-2.63725,0.41396,0.8118
513.541,25.80821,-2.64302,0.41261,0.80932
516.541,25.90483,-2.64895,0.4139,0.80684
519.541,26.00113,-2.65417,0.41168,0.80436
522.541,26.09797,-2.65919,0.41065,0.80188
525.541,26.19492,-2.66228,0.4066,0.7994
528.541,26.29164,-2.66785,0.40715,0.79691
531.541,26.3884,-2.67321,0.40448,0.79442
534.541,26.48538,-2.67748,0.40366,0.79193
537.541,26.5824,-2.68244,0.40169,0.78944
540.541,26.67955,-2.68639,0.398,0.78694
543.541,26.77658,-2.6894,0.40056,0.78445
546.541,26.87373,-2.69493,0.39782,0.78195
549.541,26.97095,-2.6984,0.39689,0.77946
552.541,27.06826,-2.70392,0.39683,0.77696
555.541,27.16542,-2.70852,0.3955,0.77446
558.541,27.26292,-2.71168,0.39409,0.77196
561.541,27.36032,-2.71717,0.39632,0.76945
564.541,27.45781,-2.72022,0.39774,0.76695
567.541,27.5552,-2.72314,0.3943,0.76445
570.541,27.65271,-2.72811,0.39768,0.76195
573.541,27.7503,-2.73031,0.39336,0.75944
576.541,27.84797,-2.73451,0.3978,0.75694
579.541,27.9454,-2.73812,0.40244,0.75443
582.541,28.0431,-2.74083,0.40872,0.75193
585.541,28.14085,-2.74431,0.41293,0.74942
588.541,28.2389,-2.74766,0.42137,0.74692
591.541,28.33673,-2.75051,0.42994,0.74442
594.541,28.435,-2.75347,0.43714,0.74191
597.541,28.5331,-2.75713,0.44162,0.73941
600.541,28.63141,-2.75987,0.45338,0.73691
603.541,28.7298,-2.76308,0.45855,0.7344
606.541,28.82827,-2.76648,0.47075,0.7319
609.541,28.9267,-2.76925,0.48051,0.7294
612.541,29.02539,-2.77188,0.48676,0.7269
615.541,29.1243,-2.77341,0.49697,0.7244
618.541,29.2231,-2.77676,0.50471,0.7219
621.541,29.322,-2.778,0.50957,0.71941
624.541,29.4208,-2.78065,0.51647,0.71691
627.541,29.51988,-2.78339,0.52299,0.71441
630.541,29.61873,-2.78602,0.52879,0.71192
633.541,29.71803,-2.78753,0.53765,0.70943
636.541,29.8173,-2.79012,0.54487,0.70694
639.541,29.9164,-2.79261,0.55652,0.70445
642.541,30.01544,-2.79519,0.56866,0.70196
645.541,30.11454,-2.79654,0.57181,0.69948
648.541,30.214,-2.79916,0.58224,0.69699
651.541,30.31338,-2.80052,0.59169,0.69451
654.541,30.4128,-2.80177,0.60273,0.69203
657.541,30.51205,-2.80456,0.60779,0.68955
660.541,30.6114,-2.80717,0.61526,0.68708
663.541,30.7108,-2.80854,0.62028,0.6846
666.541,30.81012,-2.8105,0.63054,0.68213
669.541,30.90965,-2.81309,0.6336,0.67966
672.541,31.0091,-2.81378,0.6369,0.67719
675.541,31.1086,-2.81631,0.64097,0.67473
678.541,31.2082,-2.8164,0.63871,0.67227
681.541,31.3077,-2.81916,0.64136,0.66981
684.541,31.4074,-2.82047,0.63763,0.66735
687.541,31.5069,-2.82182,0.63531,0.66489
690.541,31.60665,-2.82307,0.631,0.66244
693.541,31.70637,-2.82511,0.62344,0.65999
696.541,31.80615,-2.82836,0.61698,0.65755
699.541,31.9059,-2.82978,0.60312,0.6551
702.541,32.00562,-2.83233,0.59504,0.65266
705.541,32.10556,-2.83365,0.58877,0.65022
708.541,32.20552,-2.83495,0.58114,0.64779
711.541,32.30553,-2.83561,0.56743,0.64536
714.541,32.4056,-2.83692,0.56029,0.64293
717.541,32.5056,-2.83822,0.55118,0.6405
720.541,32.60565,-2.83893,0.53903,0.63808
723.541,32.70578,-2.83891,0.52869,0.63566
726.541,32.80581,-2.84016,0.5168,0.63325
729.541,32.90595,-2.84288,0.50786,0.63084
732.541,33.0062,-2.84451,0.5014,0.62843
735.541,33.1064,-2.84405,0.48902,0.62602
738.541,33.2068,-2.8455,0.47416,0.62362
741.541,33.30823,-2.8481,0.47184,0.62122
742.241,33.332,-2.84811,0.46837,0.62066