Folder: fsri_materials_database/01_Data/Eucalyptus_Flooring/STA/N2/30K_min (part 2)

File: Eucalyptus_Flooring_STA_N2_30KData_211312_R3.csv
##Temp./Â°C,Time/min,Mass loss(subtr.2)/mg,DSC(subtr.2)/(mW/mg),Sensit./(uV/mW)
48.382,10.01,-0.03477,0.009112965,1.06965
51.482,10.87373,-0.03697555,0.15132,1.06936
54.582,11.10489,-0.0367151,0.2478,1.06906
57.682,11.2829,-0.03671447,0.32528,1.06872
60.782,11.43592,-0.03909773,0.3885,1.06836
63.882,11.5748,-0.03835622,0.44026,1.06797
66.982,11.7048,-0.04139823,0.48855,1.06756
70.082,11.82857,-0.03910616,0.53057,1.06712
73.182,11.94815,-0.04093075,0.56857,1.06665
76.282,12.06447,-0.04222267,0.59855,1.06616
79.382,12.1782,-0.04332087,0.63036,1.06564
82.482,12.2904,-0.04356154,0.65929,1.0651
85.582,12.40099,-0.04438709,0.68392,1.06453
88.682,12.5097,-0.04463263,0.70553,1.06393
91.782,12.6169,-0.04666195,0.7259,1.06331
94.882,12.72374,-0.0481029,0.74273,1.06266
97.982,12.82966,-0.04803879,0.75471,1.06199
101.082,12.93506,-0.0501184,0.76137,1.06129
104.182,13.04007,-0.05090047,0.76726,1.06057
107.282,13.1448,-0.05221006,0.76779,1.05982
110.382,13.24893,-0.05353133,0.7661,1.05905
113.482,13.35312,-0.05352964,0.7606,1.05825
116.582,13.45686,-0.05484173,0.75377,1.05743
119.682,13.5604,-0.05615998,0.74473,1.05658
122.782,13.6633,-0.057479,0.74275,1.05571
125.882,13.7657,-0.05748023,0.73781,1.05482
128.982,13.8677,-0.05747959,0.7378,1.0539
132.082,13.96916,-0.0588376,0.73778,1.05295
135.182,14.07,-0.0573702,0.74395,1.05199
138.282,14.1704,-0.05999998,0.75146,1.051
141.382,14.2704,-0.06,0.7608,1.04998
144.482,14.3699,-0.06131972,0.7704,1.04895
147.582,14.4692,-0.06192628,0.78412,1.04789
150.682,14.5681,-0.06515206,0.79499,1.0468
153.782,14.66649,-0.06413216,0.80814,1.0457
156.882,14.76484,-0.06416406,0.81858,1.04457
159.982,14.8629,-0.06647047,0.83005,1.04342
163.082,14.9609,-0.06679997,0.84389,1.04225
166.182,15.05861,-0.06813336,0.85643,1.04105
169.282,15.15603,-0.06811948,0.8683,1.03984
172.382,15.25314,-0.07073631,0.88179,1.0386
175.482,15.34997,-0.07074991,0.89395,1.03734
178.582,15.44695,-0.07473171,0.90543,1.03605
181.682,15.54336,-0.07599623,0.91788,1.03475
184.782,15.6393,-0.07760244,0.92744,1.03342
187.882,15.73475,-0.08125585,0.93739,1.03208
190.982,15.8308,-0.0802742,0.94475,1.03071
194.082,15.92627,-0.08426058,0.95027,1.02932
197.182,16.02163,-0.08757238,0.95646,1.02792
200.282,16.1169,-0.08972724,0.9629,1.02649
203.382,16.2117,-0.09260797,0.96755,1.02504
206.482,16.30675,-0.09683401,0.97108,1.02357
209.582,16.40162,-0.10326,0.97508,1.02208
212.682,16.49628,-0.10769,0.97356,1.02058
215.782,16.59098,-0.11286,0.97402,1.01905
218.882,16.6854,-0.11826,0.97206,1.0175
221.982,16.77976,-0.12228,0.97128,1.01594
225.082,16.87439,-0.12482,0.96423,1.01435
228.182,16.96862,-0.13672,0.95982,1.01275
231.282,17.0629,-0.14407,0.95539,1.01113
234.382,17.15719,-0.15112,0.949,1.00948
237.482,17.2512,-0.15828,0.93941,1.00783
240.582,17.3454,-0.16667,0.9305,1.00615
243.682,17.43946,-0.17654,0.91812,1.00445
246.782,17.53306,-0.18604,0.90553,1.00274
249.882,17.6273,-0.19803,0.89289,1.00101
252.982,17.7211,-0.21011,0.87609,0.99927
256.082,17.81493,-0.22156,0.86005,0.9975
259.182,17.90858,-0.23435,0.84194,0.99572
262.282,18.0021,-0.249,0.82618,0.99392
265.382,18.09593,-0.2623,0.80851,0.99211
268.482,18.1898,-0.27812,0.79125,0.99028
271.582,18.28343,-0.29507,0.77623,0.98843
274.682,18.37721,-0.31396,0.75618,0.98657
277.782,18.47092,-0.33227,0.74319,0.98469
280.882,18.56458,-0.35342,0.72479,0.98279
283.982,18.6584,-0.37734,0.70694,0.98088
287.082,18.75217,-0.39946,0.68369,0.97896
290.182,18.8459,-0.42637,0.66393,0.97702
293.282,18.93966,-0.45597,0.63684,0.97506
296.382,19.03353,-0.48653,0.60452,0.97309
299.482,19.12735,-0.51896,0.57551,0.97111
302.582,19.22117,-0.55924,0.54415,0.96911
305.682,19.3152,-0.59994,0.51996,0.96709
308.782,19.409,-0.64474,0.50098,0.96507
311.882,19.50305,-0.69568,0.49145,0.96303
314.982,19.5969,-0.74677,0.49584,0.96097
318.082,19.6911,-0.80402,0.50533,0.9589
321.182,19.78538,-0.86445,0.52584,0.95682
324.282,19.87942,-0.92928,0.55088,0.95473
327.382,19.97373,-0.99976,0.57704,0.95262
330.482,20.06821,-1.07584,0.60389,0.9505
333.582,20.1628,-1.15479,0.62238,0.94837
336.682,20.25733,-1.24306,0.63295,0.94623
339.782,20.35202,-1.33355,0.63136,0.94407
342.882,20.4468,-1.43052,0.61896,0.9419
345.982,20.54149,-1.53579,0.58869,0.93972
349.082,20.63663,-1.63855,0.53993,0.93753
352.182,20.7317,-1.74427,0.47316,0.93533
355.282,20.82672,-1.8496,0.39317,0.93311
358.382,20.922,-1.9438,0.30848,0.93089
361.482,21.01693,-2.03367,0.22982,0.92865
364.582,21.11265,-2.10778,0.17103,0.9264
367.682,21.20818,-2.16785,0.13458,0.92415
370.782,21.30385,-2.21752,0.1109,0.92188
373.882,21.3998,-2.25661,0.09640945,0.9196
376.982,21.49568,-2.28662,0.08267468,0.91731
380.082,21.59176,-2.31468,0.06714047,0.91502
383.182,21.6878,-2.33462,0.04684081,0.91271
386.282,21.7841,-2.35417,0.02734528,0.91039
389.382,21.88041,-2.36997,0.00429709,0.90807
392.482,21.97675,-2.38693,-0.02349885,0.90573
395.582,22.07319,-2.40013,-0.04769276,0.90339
398.682,22.1697,-2.41581,-0.07522512,0.90104
401.782,22.26644,-2.42784,-0.09545944,0.89868
404.882,22.36319,-2.442,-0.11858,0.89631
407.982,22.45995,-2.45423,-0.13545,0.89393
411.082,22.5568,-2.46696,-0.14868,0.89155
414.182,22.6537,-2.47923,-0.15744,0.88916
417.282,22.75066,-2.49138,-0.16122,0.88676
420.382,22.84775,-2.50229,-0.1659,0.88435
423.482,22.945,-2.515,-0.16144,0.88193
426.582,23.04225,-2.52639,-0.1548,0.87951
429.682,23.13953,-2.53971,-0.14527,0.87708
432.782,23.23705,-2.54657,-0.13231,0.87465
435.882,23.33451,-2.55751,-0.11518,0.87221
438.982,23.43216,-2.56876,-0.09954005,0.86976
442.082,23.5298,-2.57958,-0.0843192,0.8673
445.182,23.62746,-2.58944,-0.06281674,0.86484
448.282,23.72547,-2.599,-0.04574643,0.86237
451.382,23.8235,-2.6097,-0.02851637,0.8599
454.482,23.92156,-2.61946,-0.01274369,0.85742
457.582,24.01965,-2.62816,0.004287094,0.85494
460.682,24.118,-2.63679,0.01424446,0.85245
463.782,24.21632,-2.64605,0.02463058,0.84995
466.882,24.3149,-2.65486,0.03296735,0.84745
469.982,24.4134,-2.66372,0.04078863,0.84495
473.082,24.51185,-2.67012,0.04272624,0.84244
476.182,24.61054,-2.67783,0.04636509,0.83992
479.282,24.70932,-2.68522,0.04987745,0.83741
482.382,24.80818,-2.69192,0.04793135,0.83488
485.482,24.90713,-2.69847,0.04955922,0.83236
488.582,25.00619,-2.70681,0.0480169,0.82982
491.682,25.10527,-2.7134,0.04692239,0.82729
494.782,25.20435,-2.71935,0.04502963,0.82475
497.882,25.3036,-2.72532,0.04319894,0.82221
500.982,25.40265,-2.73158,0.037473,0.81966
504.082,25.50212,-2.73911,0.03506228,0.81712
507.182,25.60165,-2.7434,0.03054764,0.81456
510.282,25.70121,-2.74878,0.02784582,0.81201
513.382,25.80065,-2.75357,0.02214933,0.80945
516.482,25.9002,-2.76159,0.01785817,0.80689
519.582,25.99987,-2.7664,0.01046955,0.80433
522.682,26.09928,-2.77111,0.004694973,0.80176
525.782,26.19951,-2.77582,-0.00141378,0.7992
528.882,26.29942,-2.78019,-0.00781662,0.79663
531.982,26.3995,-2.78512,-0.01070083,0.79405
535.082,26.4992,-2.79002,-0.01779048,0.79148
538.182,26.59951,-2.79567,-0.02501421,0.78891
541.282,26.6997,-2.80038,-0.02763124,0.78633
544.382,26.8001,-2.8037,-0.03609338,0.78375
547.482,26.90035,-2.80942,-0.04126918,0.78117
550.582,27.0008,-2.81441,-0.04919865,0.77859
553.682,27.10143,-2.81851,-0.05708769,0.77601
556.782,27.202,-2.82172,-0.060741,0.77342
559.882,27.3027,-2.82506,-0.06874905,0.77084
562.982,27.40363,-2.82932,-0.07302881,0.76825
566.082,27.5038,-2.83458,-0.07754903,0.76567
569.182,27.6053,-2.83737,-0.08365717,0.76308
572.282,27.70635,-2.84082,-0.08599749,0.76049
575.382,27.80736,-2.84445,-0.08737893,0.75791
578.482,27.9085,-2.84839,-0.08703593,0.75532
581.582,28.00957,-2.8519,-0.08787916,0.75273
584.682,28.1109,-2.85661,-0.08589496,0.75014
587.782,28.21195,-2.8605,-0.08680981,0.74755
590.882,28.3137,-2.86514,-0.08191817,0.74497
593.982,28.4151,-2.86768,-0.08350764,0.74238
597.082,28.5166,-2.87044,-0.0864981,0.73979
600.182,28.6182,-2.87184,-0.09012781,0.73721
603.282,28.71977,-2.87628,-0.09335553,0.73462
606.382,28.8216,-2.8786,-0.09764431,0.73203
609.482,28.9236,-2.88242,-0.10167,0.72945
612.582,29.0256,-2.88523,-0.09442199,0.72687
615.682,29.12773,-2.88844,-0.09607482,0.72428
618.782,29.22982,-2.89122,-0.09167674,0.7217
621.882,29.3319,-2.89403,-0.09059676,0.71912
624.982,29.434,-2.89556,-0.08652639,0.71654
628.082,29.536,-2.89804,-0.08364022,0.71396
631.182,29.6383,-2.90196,-0.07824214,0.71139
634.282,29.74033,-2.9046,-0.06797237,0.70881
637.382,29.8425,-2.90596,-0.06421074,0.70624
640.482,29.94463,-2.90883,-0.0582727,0.70367
643.582,30.0469,-2.91015,-0.05362172,0.7011
646.682,30.14922,-2.91243,-0.04864375,0.69853
649.782,30.2517,-2.91413,-0.04643413,0.69596
652.882,30.3541,-2.91674,-0.04243722,0.6934
655.982,30.4562,-2.91805,-0.03871462,0.69084
659.082,30.55882,-2.92097,-0.03752546,0.68828
662.182,30.66145,-2.92337,-0.03499924,0.68572
665.282,30.76394,-2.92368,-0.03497303,0.68317
668.382,30.8665,-2.92694,-0.03351671,0.68061
671.482,30.9693,-2.92907,-0.03743412,0.67806
674.582,31.072,-2.92906,-0.04475516,0.67552
677.682,31.1746,-2.93106,-0.04486797,0.67297
680.782,31.27755,-2.93377,-0.05547885,0.67043
683.882,31.38035,-2.93523,-0.06326437,0.66789
686.982,31.48317,-2.93689,-0.07286994,0.66535
690.082,31.5861,-2.93785,-0.08256346,0.66282
693.182,31.68913,-2.94047,-0.09126966,0.66029
696.282,31.79219,-2.94178,-0.09663826,0.65776
699.382,31.8954,-2.94342,-0.11204,0.65523
702.482,31.99847,-2.94559,-0.11842,0.65271
705.582,32.10172,-2.94688,-0.13236,0.65019
708.682,32.20471,-2.94869,-0.14593,0.64768
711.782,32.30818,-2.94869,-0.15537,0.64516
714.882,32.4113,-2.95142,-0.1695,0.64265
717.982,32.51471,-2.95265,-0.18051,0.64015
721.082,32.61803,-2.95381,-0.19073,0.63765
724.182,32.7215,-2.95439,-0.20465,0.63515
727.282,32.82496,-2.9569,-0.21523,0.63265
730.382,32.92853,-2.95692,-0.22663,0.63016
733.482,33.0321,-2.95963,-0.2412,0.62767
736.582,33.13579,-2.95992,-0.24627,0.62519
739.682,33.23946,-2.96054,-0.25859,0.62271
742.482,33.33324,-2.9622,-0.26892,0.62047