Folder: fsri_materials_database/01_Data/Eucalyptus_Flooring/STA/N2/3K_min

Note: 01_Data/README.md
# Materials and Products Database
## 01_Data

Raw data generated from each apparatus are included here in plain-text format. The data is organized first by material, next by the short name of test apparatus used, and where applicable additional filtering by test settings.

### material.json

Each material directory contains a json file of the same name as the material. This file links the data stored in the repository as well as data and graphs produced by the accompanying scripts (__02_Scripts__) to the respective landing page for the material on the front-end website.

File: EUC_STA_N2_3KData_211312_R1.csv
##Temp./Â°C,Time/min,Mass loss(subtr.2)/mg,DSC(subtr.2)/(mW/mg),Sensit./(uV/mW)
49.875,10.01,-0.04673,0.02337477,1.06382
52.975,12.28825,-0.05221428,0.07294649,1.06307
56.075,13.47226,-0.05626457,0.07847001,1.06232
59.175,14.5868,-0.0589752,0.08358358,1.06156
62.275,15.6669,-0.06263,0.09052992,1.0608
65.375,16.72813,-0.06703001,0.09279454,1.06004
68.475,17.7762,-0.06944,0.09263314,1.05927
71.575,18.8244,-0.07075223,0.09317489,1.0585
74.675,19.86122,-0.07469888,0.093768,1.05772
77.775,20.90677,-0.07799006,0.09067826,1.05694
80.875,21.9479,-0.07963216,0.08847374,1.05615
83.975,22.98574,-0.08062,0.08376977,1.05536
87.075,24.02125,-0.08226957,0.0835237,1.05456
90.175,25.05399,-0.08357632,0.0824395,1.05376
93.275,26.0868,-0.08522953,0.08109005,1.05295
96.375,27.1212,-0.08681394,0.08176097,1.05213
99.475,28.15301,-0.08676658,0.08138626,1.05131
102.575,29.1822,-0.08677519,0.08376206,1.05049
105.675,30.2092,-0.08643943,0.08104666,1.04966
108.775,31.23275,-0.08874,0.08276979,1.04882
111.875,32.2618,-0.08972,0.08481602,1.04797
114.975,33.2879,-0.09006,0.08841684,1.04712
118.075,34.31242,-0.09147297,0.08781728,1.04626
121.175,35.3419,-0.09202986,0.08831112,1.0454
124.275,36.36524,-0.09366134,0.09012956,1.04453
127.375,37.38495,-0.09467,0.09029525,1.04365
130.475,38.40335,-0.09497221,0.09189142,1.04277
133.575,39.43316,-0.09664007,0.09307621,1.04187
136.675,40.45412,-0.09632617,0.09718969,1.04097
139.775,41.47527,-0.09959999,0.09863451,1.04007
142.875,42.4905,-0.10091,0.09935263,1.03915
145.975,43.5075,-0.10289,0.10258,1.03823
149.075,44.5273,-0.10552,0.10092,1.0373
152.175,45.543,-0.10747,0.10383,1.03636
155.275,46.5581,-0.1098,0.10634,1.03541
158.375,47.57175,-0.11178,0.10986,1.03446
161.475,48.58703,-0.1144,0.10993,1.0335
164.575,49.60396,-0.11654,0.11021,1.03252
167.675,50.615,-0.11936,0.11148,1.03154
170.775,51.6321,-0.12197,0.11118,1.03055
173.875,52.64755,-0.12723,0.11184,1.02956
176.975,53.65566,-0.13085,0.11395,1.02855
180.075,54.66709,-0.13612,0.11795,1.02753
183.175,55.67952,-0.14007,0.11723,1.0265
186.275,56.68617,-0.14665,0.11717,1.02547
189.375,57.69616,-0.15126,0.11648,1.02442
192.475,58.70847,-0.15818,0.11662,1.02337
195.575,59.719,-0.16477,0.11865,1.0223
198.675,60.7254,-0.17199,0.11437,1.02123
201.775,61.7342,-0.18021,0.11569,1.02014
204.875,62.74135,-0.18549,0.11885,1.01904
207.975,63.75003,-0.19502,0.1177,1.01794
211.075,64.7631,-0.20418,0.11285,1.01682
214.175,65.7732,-0.2151,0.11447,1.01569
217.275,66.77766,-0.22694,0.11524,1.01455
220.375,67.7846,-0.23852,0.11447,1.0134
223.475,68.79477,-0.25195,0.111,1.01224
226.575,69.81009,-0.26643,0.10806,1.01107
229.675,70.81774,-0.28124,0.10649,1.00988
232.775,71.8262,-0.29747,0.10189,1.00869
235.875,72.8356,-0.31441,0.10015,1.00748
238.975,73.8454,-0.33519,0.09536716,1.00626
242.075,74.85141,-0.3568,0.09399501,1.00503
245.175,75.86406,-0.38075,0.08829498,1.00379
248.275,76.87187,-0.40668,0.08739186,1.00253
251.375,77.88085,-0.43523,0.08643691,1.00126
254.475,78.8956,-0.46698,0.08448336,0.99998
257.575,79.90405,-0.50092,0.08407249,0.99869
260.675,80.91462,-0.53814,0.08039796,0.99738
263.775,81.9221,-0.58232,0.08124555,0.99606
266.875,82.92786,-0.6279,0.08004544,0.99473
269.975,83.93818,-0.67977,0.07879045,0.99339
273.075,84.94655,-0.73643,0.0828063,0.99203
276.175,85.9558,-0.79642,0.08314332,0.99066
279.275,86.9636,-0.86279,0.08657432,0.98928
282.375,87.97501,-0.93636,0.09027861,0.98788
285.475,88.98535,-1.01163,0.09729519,0.98647
288.575,89.99645,-1.09241,0.09967493,0.98504
291.675,91.01046,-1.18213,0.09885899,0.9836
294.775,92.02382,-1.27493,0.10312,0.98215
297.875,93.03841,-1.37447,0.10647,0.98068
300.975,94.04907,-1.47934,0.10643,0.9792
304.075,95.05985,-1.58714,0.1021,0.9777
307.175,96.072,-1.69488,0.09625981,0.97619
310.275,97.0847,-1.80261,0.08878423,0.97467
313.375,98.0985,-1.9019,0.07679648,0.97313
316.475,99.11009,-1.98884,0.06496067,0.97158
319.575,100.1217,-2.0657,0.05267255,0.97001
322.675,101.135,-2.12766,0.04207854,0.96843
325.775,102.148,-2.17613,0.03613549,0.96683
328.875,103.164,-2.21811,0.02873002,0.96522
331.975,104.181,-2.2519,0.02350298,0.96359
335.075,105.194,-2.27854,0.01801407,0.96194
338.175,106.208,-2.30406,0.01540827,0.96029
341.275,107.23,-2.32513,0.009631002,0.95861
344.375,108.248,-2.34424,0.00912866,0.95692
347.475,109.26,-2.36179,0.005957624,0.95522
350.575,110.278,-2.37789,0.00184771,0.9535
353.675,111.3,-2.39171,-0.001394562,0.95176
356.775,112.323,-2.40616,-0.002395566,0.95001
359.875,113.339,-2.42092,-0.006749978,0.94824
362.975,114.36,-2.43315,-0.009330783,0.94646
366.075,115.381,-2.44665,-0.009022064,0.94466
369.175,116.394,-2.45854,-0.00886057,0.94285
372.275,117.41,-2.4714,-0.008801521,0.94102
375.375,118.436,-2.48258,-0.01020967,0.93917
378.475,119.454,-2.4948,-0.008333068,0.93731
381.575,120.473,-2.50552,-0.006729803,0.93543
384.675,121.496,-2.51621,-0.006637415,0.93353
387.775,122.518,-2.52677,-0.00126218,0.93162
390.875,123.5442,-2.53727,-0.002169116,0.92969
393.975,124.564,-2.54845,-0.00280099,0.92775
397.075,125.5874,-2.55875,-0.001122185,0.92579
400.175,126.607,-2.56959,-0.00211802,0.92381
403.275,127.6324,-2.57981,0.004072763,0.92182
406.375,128.656,-2.58871,0.007591357,0.91981
409.475,129.685,-2.59792,0.00604494,0.91778
412.575,130.713,-2.60777,0.009168115,0.91574
415.675,131.735,-2.61667,0.01058362,0.91368
418.775,132.762,-2.62538,0.01101523,0.9116
421.875,133.786,-2.63378,0.01211763,0.90951
424.975,134.813,-2.64179,0.01145556,0.9074
428.075,135.84,-2.65089,0.01395096,0.90528
431.175,136.866,-2.65912,0.01359846,0.90313
434.275,137.8889,-2.66635,0.0161356,0.90097
437.375,138.915,-2.67483,0.01785613,0.8988
440.475,139.9431,-2.68215,0.02358812,0.89661
443.575,140.968,-2.68972,0.02819515,0.8944
446.675,141.999,-2.6963,0.03044891,0.89217
449.775,143.0264,-2.7042,0.03339491,0.88993
452.875,144.054,-2.70947,0.03560748,0.88767
455.975,145.084,-2.7177,0.03609067,0.8854
459.075,146.11,-2.72263,0.03540014,0.88311
462.175,147.153,-2.72856,0.03324309,0.8808
465.275,148.1788,-2.73379,0.03255437,0.87847
468.375,149.205,-2.74089,0.03340389,0.87613
471.475,150.231,-2.74634,0.02847933,0.87377
474.575,151.266,-2.75093,0.0257037,0.8714
477.675,152.297,-2.75642,0.02535123,0.86901
480.775,153.33,-2.76146,0.02370122,0.8666
483.875,154.362,-2.76541,0.0179896,0.86418
486.975,155.393,-2.77292,0.02167044,0.86174
490.075,156.4279,-2.77594,0.01834444,0.85928
493.175,157.462,-2.78041,0.0152156,0.85681
496.275,158.497,-2.78548,0.01106277,0.85432
499.375,159.53,-2.78943,-0.001865879,0.85181
502.475,160.564,-2.79486,-0.0108409,0.84929
505.575,161.601,-2.79919,-0.01717686,0.84676
508.675,162.638,-2.80345,-0.02134497,0.8442
511.775,163.672,-2.80742,-0.02417031,0.84163
514.875,164.706,-2.8117,-0.02473966,0.83905
517.975,165.744,-2.81663,-0.0283788,0.83645
521.075,166.779,-2.81951,-0.02952208,0.83383
524.175,167.8118,-2.82341,-0.03359874,0.8312
527.275,168.849,-2.82585,-0.03430112,0.82855
530.375,169.886,-2.82947,-0.03989712,0.82589
533.475,170.922,-2.83342,-0.04416792,0.82321
536.575,171.967,-2.83868,-0.04772149,0.82051
539.675,173.004,-2.83999,-0.04828097,0.8178
542.775,174.045,-2.84391,-0.04832326,0.81508
545.875,175.089,-2.8479,-0.05407878,0.81234
548.975,176.126,-2.85152,-0.05569122,0.80958
552.075,177.162,-2.85349,-0.06483456,0.80681
555.175,178.198,-2.85653,-0.06494547,0.80403
558.275,179.238,-2.85842,-0.07177795,0.80123
561.375,180.277,-2.86006,-0.07503516,0.79841
564.475,181.312,-2.86402,-0.07534679,0.79558
567.575,182.352,-2.8673,-0.07924799,0.79274
570.675,183.393,-2.86797,-0.0791155,0.78988
573.775,184.436,-2.87126,-0.07686487,0.78701
576.875,185.483,-2.87502,-0.0783865,0.78412
579.975,186.5215,-2.87685,-0.07812241,0.78122
583.075,187.556,-2.87981,-0.0742669,0.77831
586.175,188.607,-2.88303,-0.07069843,0.77538
589.275,189.652,-2.88607,-0.06772358,0.77244
592.375,190.688,-2.88837,-0.05972523,0.76948
595.475,191.725,-2.89238,-0.05313818,0.76651
598.575,192.769,-2.89297,-0.04965951,0.76353
601.675,193.816,-2.89594,-0.03936909,0.76053
604.775,194.862,-2.89923,-0.02819515,0.75752
607.875,195.9,-2.90283,-0.02045635,0.7545
610.975,196.939,-2.90351,-0.009752405,0.75147
614.075,197.978,-2.90723,-0.002494648,0.74842
617.175,199.025,-2.9091,0.00748946,0.74536
620.275,200.072,-2.91106,0.007583519,0.74229
623.375,201.115,-2.91467,0.006555752,0.7392
626.475,202.1599,-2.91733,-0.00206588,0.73611
629.575,203.209,-2.91799,-3.680735e-05,0.733
632.675,204.254,-2.92062,0.001940174,0.72988
635.775,205.3,-2.92292,0.001295374,0.72675
638.875,206.34,-2.92621,-0.00311372,0.7236
641.975,207.385,-2.92918,-0.001088618,0.72045
645.075,208.428,-2.92885,0.00351139,0.71728
648.175,209.476,-2.93279,-2.318661e-05,0.7141
651.275,210.5226,-2.93477,0.00091748,0.71092
654.375,211.57,-2.93608,0.000463464,0.70772
657.475,212.618,-2.93708,-0.002327253,0.70451
660.575,213.666,-2.93904,-0.001704773,0.70129
663.675,214.712,-2.94167,-0.005376363,0.69806
666.775,215.756,-2.94365,0.0004069971,0.69482
669.875,216.799,-2.94496,0.00312017,0.69157
672.975,217.85,-2.94859,-0.0005450493,0.68831
676.075,218.904,-2.94924,-0.007530893,0.68504
679.175,219.951,-2.95126,-0.00630878,0.68176
682.275,220.994,-2.95254,-0.00780868,0.67847
685.375,222.041,-2.95419,-0.005076769,0.67518
688.475,223.092,-2.95747,-0.01043211,0.67187
691.575,224.147,-2.95633,-0.01065474,0.66856
694.675,225.1898,-2.95813,-0.00930383,0.66523
697.775,226.239,-2.95976,-0.01139299,0.6619
700.875,227.287,-2.95901,-0.00994856,0.65856
703.975,228.329,-2.9625,-0.008206153,0.65522
707.075,229.376,-2.9646,-0.01104157,0.65186
710.175,230.428,-2.9645,-0.008888274,0.6485
713.275,231.48,-2.9656,-0.005331665,0.64513
716.375,232.532,-2.96559,-0.0008467191,0.64175
719.475,233.581,-2.96854,-0.00218601,0.63837
722.575,234.627,-2.97087,-0.00551782,0.63498
725.675,235.677,-2.97184,-0.004167431,0.63158
728.775,236.729,-2.96953,0.000845718,0.62817
731.875,237.787,-2.97348,-0.00372029,0.62476
734.975,238.838,-2.97414,-0.003386439,0.62135
738.075,239.888,-2.97555,-0.0073145,0.61793
741.175,240.931,-2.97652,-0.0009883453,0.6145
744.275,241.981,-2.97722,-0.00648634,0.61107
747.375,243.037,-2.97919,-0.0001707553,0.60763
748.175,243.311,-2.98033,-0.002375315,0.60674