Folder: fsri_materials_database/01_Data/Wool_Rug/STA/N2/10K_min

Note: 01_Data/README.md
# Materials and Products Database
## 01_Data

Raw data generated from each apparatus are included here in plain-text format. The data is organized first by material, next by the short name of test apparatus used, and where applicable additional filtering by test settings.

### material.json

Each material directory contains a json file of the same name as the material. This file links the data stored in the repository as well as data and graphs produced by the accompanying scripts (__02_Scripts__) to the respective landing page for the material on the front-end website.

File: Wool_Rug_STA_N2_10KData_220114_R1.csv
##Temp./Â°C,Time/min,Mass loss(subtr.2)/mg,DSC(subtr.2)/(mW/mg),Sensit./(uV/mW)
49.142,10.01,-0.0409,0.0313994,1.07448
52.342,11.31958,-0.04201091,0.13899,1.07425
55.542,11.77566,-0.04454063,0.18759,1.074
58.742,12.16521,-0.04332394,0.21755,1.07372
61.942,12.53017,-0.04452041,0.23731,1.07342
65.142,12.88482,-0.04735547,0.25662,1.0731
68.342,13.23255,-0.04980785,0.26953,1.07275
71.542,13.57346,-0.05200756,0.28725,1.07238
74.742,13.9114,-0.05208813,0.30222,1.07198
77.942,14.24629,-0.05672045,0.31612,1.07156
81.142,14.57717,-0.05684713,0.32661,1.07111
84.342,14.9049,-0.06030089,0.33693,1.07065
87.542,15.22887,-0.06689311,0.34408,1.07016
90.742,15.55076,-0.06517382,0.34622,1.06964
93.942,15.87009,-0.06733999,0.34356,1.0691
97.142,16.1864,-0.06997222,0.34246,1.06854
100.342,16.50173,-0.07019101,0.33828,1.06796
103.542,16.8166,-0.07567336,0.32928,1.06735
106.742,17.13055,-0.07601051,0.3238,1.06672
109.942,17.4439,-0.07864425,0.31682,1.06606
113.142,17.75631,-0.07701867,0.31072,1.06538
116.342,18.07048,-0.07925529,0.30263,1.06468
119.542,18.38276,-0.0811522,0.29869,1.06396
122.742,18.6947,-0.07862384,0.29151,1.06321
125.942,19.0063,-0.08285415,0.29034,1.06244
129.142,19.3172,-0.08324265,0.28828,1.06165
132.342,19.62793,-0.08346415,0.28733,1.06083
135.542,19.9375,-0.08413001,0.2883,1.05999
138.742,20.24704,-0.08557294,0.28563,1.05913
141.942,20.5562,-0.08664759,0.28748,1.05825
145.142,20.8651,-0.08567236,0.28832,1.05734
148.342,21.17292,-0.08555236,0.29125,1.05641
151.542,21.4804,-0.08686,0.29152,1.05546
154.742,21.78845,-0.08423007,0.29255,1.05449
157.942,22.09592,-0.08916484,0.29721,1.05349
161.142,22.40292,-0.08816353,0.29886,1.05248
164.342,22.70981,-0.08906,0.30303,1.05144
167.542,23.01686,-0.0891517,0.30462,1.05038
170.742,23.32389,-0.08764487,0.31049,1.04929
173.942,23.63,-0.08950055,0.31218,1.04819
177.142,23.9364,-0.09211984,0.31281,1.04706
180.342,24.24237,-0.09213,0.31723,1.04591
183.542,24.5477,-0.09213,0.32145,1.04475
186.742,24.85398,-0.09212964,0.32346,1.04355
189.942,25.15961,-0.09224016,0.32481,1.04234
193.142,25.46482,-0.09519974,0.32972,1.04111
196.342,25.77027,-0.09520028,0.33456,1.03986
199.542,26.07635,-0.09692726,0.33994,1.03858
202.742,26.3824,-0.09816,0.35161,1.03728
205.942,26.6882,-0.10099,0.36083,1.03597
209.142,26.99355,-0.10463,0.37368,1.03463
212.342,27.29944,-0.10608,0.38674,1.03327
215.542,27.6058,-0.10865,0.40261,1.03189
218.742,27.911,-0.11401,0.4252,1.03049
221.942,28.21663,-0.11695,0.45376,1.02908
225.142,28.523,-0.12374,0.49482,1.02764
228.342,28.8288,-0.13147,0.54211,1.02618
231.542,29.1348,-0.13825,0.58526,1.0247
234.742,29.4411,-0.15062,0.62822,1.0232
237.942,29.7469,-0.1636,0.64883,1.02168
241.142,30.0527,-0.17834,0.65484,1.02014
244.342,30.3582,-0.20008,0.65415,1.01858
247.542,30.66392,-0.21103,0.6545,1.01701
250.742,30.96978,-0.23075,0.65244,1.01541
253.942,31.27477,-0.24431,0.65343,1.01379
257.142,31.57992,-0.26389,0.65018,1.01216
260.342,31.8849,-0.28479,0.6361,1.0105
263.542,32.19012,-0.30241,0.63543,1.00883
266.742,32.49555,-0.32463,0.63671,1.00714
269.942,32.7996,-0.346,0.63607,1.00543
273.142,33.10647,-0.36839,0.6381,1.0037
276.342,33.41282,-0.39077,0.64189,1.00196
279.542,33.7189,-0.41514,0.6448,1.00019
282.742,34.02531,-0.44079,0.64287,0.99841
285.942,34.33157,-0.46742,0.64234,0.99661
289.142,34.6387,-0.49253,0.64389,0.99479
292.342,34.94578,-0.52379,0.64388,0.99295
295.542,35.25335,-0.55516,0.64461,0.9911
298.742,35.5606,-0.58982,0.65003,0.98923
301.942,35.86813,-0.6256,0.65667,0.98734
305.142,36.17539,-0.66311,0.66449,0.98544
308.342,36.4829,-0.70315,0.6697,0.98351
311.542,36.7906,-0.75168,0.67182,0.98157
314.742,37.09924,-0.79219,0.66195,0.97962
317.942,37.40713,-0.84687,0.65477,0.97764
321.142,37.71532,-0.89329,0.63614,0.97565
324.342,38.02257,-0.95213,0.61536,0.97365
327.542,38.33078,-1.00004,0.5914,0.97163
330.742,38.6376,-1.0573,0.56601,0.96959
333.942,38.94533,-1.11716,0.53912,0.96753
337.142,39.25322,-1.17159,0.51354,0.96546
340.342,39.561,-1.22966,0.49105,0.96338
343.542,39.8695,-1.28756,0.46979,0.96128
346.742,40.1791,-1.341,0.44658,0.95916
349.942,40.48868,-1.39165,0.42693,0.95703
353.142,40.79772,-1.44137,0.40778,0.95488
356.342,41.10808,-1.48067,0.39328,0.95272
359.542,41.41741,-1.52086,0.38105,0.95054
362.742,41.7266,-1.55416,0.36787,0.94835
365.942,42.03712,-1.58517,0.35561,0.94614
369.142,42.34717,-1.61792,0.34974,0.94392
372.342,42.65729,-1.64619,0.34021,0.94169
375.542,42.96738,-1.67426,0.33461,0.93944
378.742,43.2776,-1.69708,0.32934,0.93718
381.942,43.58821,-1.72309,0.32356,0.9349
385.142,43.89933,-1.74106,0.3186,0.93261
388.342,44.21049,-1.76654,0.31676,0.9303
391.542,44.5224,-1.78972,0.31216,0.92799
394.742,44.83392,-1.80844,0.30913,0.92565
397.942,45.14563,-1.83587,0.30758,0.92331
401.142,45.4574,-1.8485,0.30307,0.92095
404.342,45.76917,-1.87239,0.29866,0.91858
407.542,46.08132,-1.88773,0.29307,0.9162
410.742,46.39288,-1.90921,0.28629,0.9138
413.942,46.7053,-1.92883,0.28336,0.9114
417.142,47.01809,-1.9428,0.27542,0.90898
420.342,47.3313,-1.95815,0.26903,0.90654
423.542,47.6447,-1.97448,0.26358,0.9041
426.742,47.9586,-1.99029,0.26007,0.90164
429.942,48.27244,-2.00334,0.25661,0.89917
433.142,48.58656,-2.01441,0.25024,0.89669
436.342,48.89968,-2.0339,0.2495,0.8942
439.542,49.21285,-2.04416,0.24352,0.8917
442.742,49.52626,-2.05504,0.2369,0.88919
445.942,49.84039,-2.06812,0.23469,0.88666
449.142,50.15481,-2.07724,0.22759,0.88413
452.342,50.46911,-2.09865,0.22414,0.88158
455.542,50.78302,-2.10028,0.21825,0.87903
458.742,51.0974,-2.11606,0.21166,0.87646
461.942,51.41245,-2.1214,0.20734,0.87388
465.142,51.72726,-2.13162,0.2033,0.8713
468.342,52.04211,-2.14088,0.19976,0.8687
471.542,52.35763,-2.15079,0.19504,0.86609
474.742,52.6732,-2.1587,0.18735,0.86348
477.942,52.9896,-2.16518,0.18701,0.86085
481.142,53.3055,-2.17532,0.18445,0.85821
484.342,53.6209,-2.18269,0.18222,0.85557
487.542,53.93711,-2.18812,0.17801,0.85292
490.742,54.25325,-2.19373,0.17634,0.85025
493.942,54.5686,-2.20194,0.17582,0.84758
497.142,54.88437,-2.20558,0.17414,0.8449
500.342,55.20025,-2.21301,0.17006,0.84222
503.542,55.5161,-2.21313,0.17071,0.83952
506.742,55.83203,-2.22343,0.16617,0.83681
509.942,56.14852,-2.22793,0.17095,0.8341
513.142,56.4657,-2.22934,0.17708,0.83138
516.342,56.78337,-2.23473,0.18466,0.82865
519.542,57.10103,-2.24154,0.19058,0.82592
522.742,57.41874,-2.24022,0.19469,0.82317
525.942,57.7367,-2.24686,0.20162,0.82042
529.142,58.0547,-2.24724,0.21029,0.81767
532.342,58.3724,-2.25547,0.21628,0.8149
535.542,58.69039,-2.25832,0.21929,0.81213
538.742,59.00813,-2.26029,0.21292,0.80935
541.942,59.3263,-2.26452,0.20445,0.80657
545.142,59.6452,-2.26975,0.20393,0.80378
548.342,59.9643,-2.27267,0.20121,0.80098
551.542,60.2834,-2.27531,0.1971,0.79817
554.742,60.6024,-2.28321,0.19491,0.79537
557.942,60.9219,-2.28455,0.1938,0.79255
561.142,61.2413,-2.28927,0.19218,0.78973
564.342,61.5605,-2.291,0.18909,0.7869
567.542,61.8795,-2.29857,0.18246,0.78407
570.742,62.1987,-2.29924,0.1791,0.78123
573.942,62.51789,-2.30296,0.17324,0.77839
577.142,62.8374,-2.30954,0.17231,0.77554
580.342,63.1565,-2.31284,0.17015,0.77269
583.542,63.47635,-2.31712,0.16879,0.76983
586.742,63.79655,-2.31842,0.17271,0.76697
589.942,64.11737,-2.3237,0.17202,0.76411
593.142,64.43731,-2.32786,0.17017,0.76124
596.342,64.75783,-2.33082,0.17268,0.75836
599.542,65.07812,-2.33016,0.17322,0.75548
602.742,65.39895,-2.33543,0.17941,0.7526
605.942,65.71992,-2.33806,0.18613,0.74972
609.142,66.04156,-2.34335,0.18397,0.74683
612.342,66.36254,-2.34179,0.18857,0.74393
615.542,66.684,-2.34692,0.19235,0.74104
618.742,67.00538,-2.34872,0.20479,0.73814
621.942,67.32651,-2.35386,0.20786,0.73523
625.142,67.64797,-2.35386,0.21845,0.73233
628.342,67.9695,-2.35835,0.23281,0.72942
631.542,68.2911,-2.36233,0.24443,0.72651
634.742,68.6126,-2.3678,0.26011,0.7236
637.942,68.93455,-2.37407,0.2812,0.72068
641.142,69.25623,-2.3827,0.30885,0.71776
644.342,69.5784,-2.38361,0.33617,0.71484
647.542,69.9003,-2.39182,0.36442,0.71192
650.742,70.22251,-2.39576,0.39287,0.709
653.942,70.54502,-2.4048,0.43162,0.70607
657.142,70.8665,-2.41781,0.466,0.70314
660.342,71.1888,-2.42446,0.50332,0.70021
663.542,71.51087,-2.4383,0.55237,0.69728
666.742,71.83354,-2.44693,0.60131,0.69435
669.942,72.15592,-2.45893,0.65538,0.69142
673.142,72.47836,-2.47149,0.70736,0.68849
676.342,72.8013,-2.49106,0.7645,0.68555
679.542,73.12444,-2.50613,0.81871,0.68262
682.742,73.44795,-2.51547,0.87053,0.67968
685.942,73.77156,-2.54488,0.93266,0.67675
689.142,74.0942,-2.56112,0.98882,0.67381
692.342,74.41722,-2.5773,1.04136,0.67087
695.542,74.74016,-2.60482,1.08734,0.66794
698.742,75.06296,-2.62392,1.12038,0.665
701.942,75.38547,-2.64744,1.12953,0.66206
705.142,75.70858,-2.6758,1.0984,0.65913
708.342,76.03178,-2.69511,1.00464,0.65619
711.542,76.35515,-2.71359,0.83746,0.65325
714.742,76.67815,-2.72334,0.65161,0.65032
717.942,77.0001,-2.73491,0.48967,0.64738
721.142,77.32273,-2.74402,0.3842,0.64445
724.342,77.6464,-2.75143,0.30302,0.64152
727.542,77.9691,-2.76125,0.24535,0.63859
730.742,78.2925,-2.76057,0.20135,0.63566
733.942,78.6152,-2.76428,0.16248,0.63273
737.142,78.9391,-2.76917,0.13411,0.6298
740.342,79.26307,-2.76819,0.11554,0.62688
743.542,79.5872,-2.77156,0.09579791,0.62395
746.742,79.9116,-2.77494,0.08746044,0.62103
749.942,80.23577,-2.77764,0.07774836,0.61811
753.142,80.56079,-2.7779,0.06419672,0.61519
756.342,80.88439,-2.77928,0.0654339,0.61227
759.542,81.20891,-2.77999,0.05595856,0.60936
762.742,81.5333,-2.78262,0.05149343,0.60645
765.942,81.8583,-2.78505,0.05183051,0.60354
769.142,82.1828,-2.78394,0.0486653,0.60063
772.342,82.50697,-2.78811,0.04726226,0.59772
775.542,82.8317,-2.78679,0.03546863,0.59482
778.742,83.15612,-2.78546,0.0362676,0.59192
781.942,83.48093,-2.79458,0.03477507,0.58903
785.142,83.80544,-2.79127,0.03869849,0.58613
788.342,84.13015,-2.78887,0.0370842,0.58324
791.542,84.45452,-2.79787,0.04169748,0.58035
794.742,84.7792,-2.79889,0.03820328,0.57747
796.842,84.9927,-2.79947,0.03634123,0.57558

File: Wool_Rug_STA_N2_10KData_220118_R2.csv
##Temp./Â°C,Time/min,Mass loss(subtr.2)/mg,DSC(subtr.2)/(mW/mg),Sensit./(uV/mW)
49.328,10.01,0.73446,0.02247939,1.07447
52.428,11.30112,0.73787,0.12716,1.07425
55.528,11.74442,0.73551,0.17775,1.074
58.628,12.12386,0.73656,0.20795,1.07373
61.728,12.477,0.73808,0.22999,1.07344
64.828,12.81933,0.73428,0.24584,1.07313
67.928,13.1562,0.73551,0.26146,1.07279
71.028,13.4874,0.73413,0.27624,1.07244
74.128,13.81495,0.73142,0.28978,1.07206
77.228,14.14021,0.73139,0.30198,1.07165
80.328,14.46089,0.72876,0.31627,1.07123
83.428,14.77943,0.72972,0.32453,1.07078
86.528,15.09428,0.72584,0.33082,1.07031
89.628,15.4074,0.72448,0.33842,1.06982
92.728,15.7177,0.72325,0.33707,1.06931
95.828,16.02599,0.72186,0.33714,1.06877
98.928,16.3328,0.7203,0.33419,1.06822
102.028,16.63795,0.71527,0.32992,1.06764
105.128,16.94281,0.71795,0.32353,1.06704
108.228,17.24767,0.71395,0.31932,1.06641
111.328,17.55153,0.71253,0.31552,1.06577
114.428,17.85432,0.71247,0.31111,1.0651
117.528,18.15689,0.71272,0.30733,1.06442
120.628,18.45954,0.71022,0.30212,1.06371
123.728,18.76098,0.71153,0.29734,1.06298
126.828,19.0627,0.71154,0.29658,1.06222
129.928,19.36371,0.71058,0.29518,1.06145
133.028,19.66435,0.70895,0.29642,1.06065
136.128,19.96483,0.70923,0.29595,1.05984
139.228,20.26445,0.71022,0.2955,1.059
142.328,20.5636,0.71022,0.2976,1.05814
145.428,20.86276,0.70891,0.30001,1.05726
148.528,21.16133,0.71028,0.30056,1.05636
151.628,21.45962,0.71019,0.29987,1.05544
154.728,21.75808,0.71079,0.30563,1.05449
157.828,22.05574,0.70729,0.30677,1.05353
160.928,22.35399,0.70716,0.30993,1.05255
164.028,22.65154,0.70956,0.31334,1.05154
167.128,22.94906,0.70858,0.31793,1.05052
170.228,23.2468,0.70989,0.3209,1.04947
173.328,23.54325,0.70762,0.32745,1.0484
176.428,23.83977,0.70759,0.33001,1.04732
179.528,24.13637,0.70759,0.33375,1.04621
182.628,24.43359,0.70777,0.33727,1.04508
185.728,24.7299,0.70661,0.34176,1.04393
188.828,25.0262,0.70494,0.34697,1.04277
191.928,25.32265,0.703,0.35018,1.04158
195.028,25.6189,0.70429,0.35591,1.04037
198.128,25.91447,0.70101,0.364,1.03915
201.228,26.21108,0.70331,0.37025,1.0379
204.328,26.5071,0.69804,0.37955,1.03663
207.428,26.80262,0.69703,0.38894,1.03535
210.528,27.0994,0.69579,0.40144,1.03404
213.628,27.39514,0.68999,0.41694,1.03272
216.728,27.69165,0.68949,0.43782,1.03138
219.828,27.98745,0.68643,0.46087,1.03001
222.928,28.2839,0.68143,0.49323,1.02863
226.028,28.57964,0.67404,0.53502,1.02723
229.128,28.8757,0.66557,0.58,1.02581
232.228,29.17205,0.65562,0.62724,1.02438
235.328,29.4686,0.64405,0.66859,1.02292
238.428,29.7647,0.63128,0.68962,1.02145
241.528,30.06123,0.62095,0.6954,1.01995
244.628,30.3571,0.60219,0.69038,1.01844
247.728,30.65367,0.58526,0.6922,1.01691
250.828,30.9498,0.57037,0.68757,1.01537
253.928,31.2461,0.55078,0.69197,1.0138
257.028,31.54239,0.535,0.68961,1.01222
260.128,31.8391,0.51578,0.68114,1.01062
263.228,32.13516,0.49574,0.67851,1.009
266.328,32.43132,0.47779,0.68055,1.00736
269.428,32.72783,0.45655,0.68118,1.00571
272.528,33.02446,0.43628,0.68307,1.00404
275.628,33.32172,0.41024,0.6837,1.00235
278.728,33.61807,0.39171,0.69226,1.00064
281.828,33.91426,0.36803,0.6943,0.99892
284.928,34.2108,0.34225,0.69485,0.99718
288.028,34.50704,0.31264,0.69938,0.99543
291.128,34.8033,0.28592,0.69725,0.99365
294.228,35.09989,0.25251,0.70194,0.99186
297.328,35.39655,0.22212,0.71048,0.99006
300.428,35.69381,0.18908,0.71763,0.98824
303.528,35.99087,0.15214,0.72288,0.9864
306.628,36.28832,0.11338,0.72738,0.98454
309.728,36.58654,0.06857082,0.72962,0.98267
312.828,36.8846,0.0274608,0.72901,0.98079
315.928,37.18335,-0.017918,0.72427,0.97889
319.028,37.48155,-0.06980359,0.71653,0.97697
322.128,37.77985,-0.11853,0.69892,0.97504
325.228,38.07819,-0.17201,0.67996,0.97309
328.328,38.37634,-0.22535,0.65543,0.97113
331.428,38.67488,-0.28122,0.63167,0.96915
334.528,38.97351,-0.33455,0.60008,0.96716
337.628,39.27258,-0.39204,0.57693,0.96515
340.728,39.57076,-0.44972,0.55644,0.96313
343.828,39.86967,-0.50418,0.53772,0.96109
346.928,40.1682,-0.5573,0.52127,0.95904
350.028,40.46778,-0.61055,0.5028,0.95697
353.128,40.76716,-0.65561,0.48422,0.95489
356.228,41.0673,-0.69873,0.47116,0.9528
359.328,41.36777,-0.73951,0.45593,0.95069
362.428,41.66737,-0.77212,0.44699,0.94857
365.528,41.96771,-0.80759,0.43424,0.94643
368.628,42.26812,-0.83999,0.42423,0.94428
371.728,42.5685,-0.86842,0.41847,0.94212
374.828,42.8692,-0.89313,0.4117,0.93994
377.928,43.1702,-0.92301,0.40924,0.93775
381.028,43.47101,-0.94461,0.40396,0.93555
384.128,43.7721,-0.97046,0.40034,0.93334
387.228,44.0734,-0.99779,0.39886,0.93111
390.328,44.37527,-1.01903,0.39853,0.92887
393.428,44.6774,-1.04049,0.39456,0.92661
396.528,44.97964,-1.06286,0.38694,0.92435
399.628,45.28195,-1.08302,0.38348,0.92207
402.728,45.58406,-1.10581,0.38248,0.91978
405.828,45.88642,-1.12587,0.38017,0.91748
408.928,46.18906,-1.14612,0.3747,0.91516
412.028,46.49219,-1.16312,0.36678,0.91284
415.128,46.79521,-1.17996,0.36231,0.9105
418.228,47.09856,-1.19594,0.3596,0.90815
421.328,47.40208,-1.21118,0.35581,0.90579
424.428,47.70585,-1.22914,0.34932,0.90342
427.528,48.00992,-1.24657,0.34529,0.90104
430.628,48.314,-1.25624,0.33999,0.89864
433.728,48.6179,-1.26985,0.3347,0.89624
436.828,48.92188,-1.28286,0.33292,0.89382
439.928,49.2265,-1.29481,0.32842,0.8914
443.028,49.53086,-1.30645,0.32452,0.88896
446.128,49.8356,-1.3215,0.32084,0.88652
449.228,50.1397,-1.33566,0.31968,0.88406
452.328,50.44409,-1.34317,0.31562,0.88159
455.428,50.7489,-1.35506,0.3136,0.87912
458.528,51.05341,-1.36435,0.31167,0.87663
461.628,51.3575,-1.37401,0.30747,0.87414
464.728,51.6622,-1.3868,0.3079,0.87163
467.828,51.9674,-1.3935,0.30552,0.86912
470.928,52.27275,-1.40141,0.30248,0.86659
474.028,52.5786,-1.40869,0.29962,0.86406
477.128,52.8844,-1.41655,0.29999,0.86152
480.228,53.1903,-1.41978,0.29388,0.85897
483.328,53.49644,-1.43174,0.29141,0.85641
486.428,53.80287,-1.43586,0.28866,0.85384
489.528,54.10889,-1.44478,0.28594,0.85127
492.628,54.4155,-1.45072,0.28817,0.84868
495.728,54.7218,-1.4563,0.28675,0.84609
498.828,55.02856,-1.46384,0.28575,0.84349
501.928,55.33472,-1.46584,0.28319,0.84088
505.028,55.64151,-1.47303,0.28576,0.83826
508.128,55.94823,-1.47539,0.28384,0.83564
511.228,56.25549,-1.48065,0.28451,0.83301
514.328,56.56265,-1.4846,0.28514,0.83037
517.428,56.8704,-1.49076,0.28809,0.82773
520.528,57.1783,-1.49473,0.29361,0.82507
523.628,57.48621,-1.49604,0.30015,0.82241
526.728,57.7941,-1.50117,0.30716,0.81975
529.828,58.1021,-1.50264,0.31312,0.81707
532.928,58.41025,-1.50796,0.32206,0.81439
536.028,58.7191,-1.5125,0.3269,0.81171
539.128,59.0274,-1.51587,0.33514,0.80902
542.228,59.33534,-1.5162,0.33953,0.80632
545.328,59.6434,-1.52276,0.34272,0.80361
548.428,59.952,-1.52668,0.3422,0.8009
551.528,60.26087,-1.52803,0.34349,0.79819
554.628,60.57017,-1.53352,0.33879,0.79547
557.728,60.8792,-1.54024,0.33769,0.79274
560.828,61.18881,-1.54373,0.34071,0.79001
563.928,61.4982,-1.54373,0.33398,0.78727
567.028,61.80698,-1.5471,0.33279,0.78453
570.128,62.116,-1.55248,0.33555,0.78178
573.228,62.4242,-1.55639,0.33565,0.77903
576.328,62.73304,-1.56052,0.33109,0.77627
579.428,63.04166,-1.56445,0.3307,0.77351
582.528,63.35091,-1.5688,0.33088,0.77074
585.628,63.66123,-1.57465,0.32881,0.76797
588.728,63.97159,-1.57398,0.3315,0.76519
591.828,64.28147,-1.57728,0.33546,0.76242
594.928,64.59192,-1.58135,0.34492,0.75963
598.028,64.90339,-1.58629,0.34095,0.75685
601.128,65.21547,-1.59023,0.33969,0.75406
604.228,65.52715,-1.59132,0.34516,0.75126
607.328,65.83924,-1.59414,0.34552,0.74846
610.428,66.1507,-1.5979,0.35347,0.74566
613.528,66.4618,-1.5979,0.35544,0.74286
616.628,66.77241,-1.60163,0.36082,0.74005
619.728,67.08337,-1.60221,0.37156,0.73724
622.828,67.39398,-1.61184,0.38276,0.73443
625.928,67.70427,-1.61437,0.3928,0.73161
629.028,68.01494,-1.61731,0.41262,0.7288
632.128,68.32585,-1.61765,0.42642,0.72598
635.228,68.63775,-1.62602,0.44682,0.72315
638.328,68.95057,-1.63519,0.46951,0.72033
641.428,69.2637,-1.6376,0.49265,0.7175
644.528,69.57529,-1.64068,0.52132,0.71467
647.628,69.88625,-1.64869,0.54809,0.71184
650.728,70.19707,-1.65754,0.58699,0.70901
653.828,70.5081,-1.66637,0.62203,0.70617
656.928,70.8192,-1.67171,0.6585,0.70334
660.028,71.13114,-1.68287,0.69599,0.7005
663.128,71.44405,-1.69565,0.7356,0.69766
666.228,71.7563,-1.70527,0.78416,0.69482
669.328,72.06886,-1.72279,0.83008,0.69198
672.428,72.3797,-1.72942,0.87505,0.68914
675.528,72.69205,-1.74891,0.93874,0.6863
678.628,73.0043,-1.76051,0.98576,0.68346
681.728,73.31732,-1.77924,1.03685,0.68061
684.828,73.63064,-1.79782,1.09856,0.67777
687.928,73.9436,-1.82035,1.15262,0.67492
691.028,74.2562,-1.83697,1.2013,0.67208
694.128,74.5689,-1.85991,1.24178,0.66923
697.228,74.8818,-1.88001,1.27933,0.66639
700.328,75.19465,-1.90687,1.29095,0.66354
703.428,75.50717,-1.92395,1.27641,0.6607
706.528,75.8195,-1.94993,1.21954,0.65785
709.628,76.13217,-1.96808,1.0816,0.65501
712.728,76.4457,-1.98363,0.90518,0.65217
715.828,76.75891,-1.99472,0.72938,0.64932
718.928,77.07229,-2.0046,0.59969,0.64648
722.028,77.38608,-2.0099,0.50552,0.64364
725.128,77.69922,-2.01921,0.43872,0.6408
728.228,78.0124,-2.02448,0.3809,0.63796
731.328,78.3257,-2.02858,0.34214,0.63512
734.428,78.63968,-2.03127,0.3022,0.63228
737.528,78.95339,-2.03482,0.27381,0.62945
740.628,79.26706,-2.03507,0.25255,0.62661
743.728,79.58025,-2.03882,0.23608,0.62378
746.828,79.89379,-2.04339,0.22342,0.62095
749.928,80.2076,-2.04058,0.21418,0.61812
753.028,80.52294,-2.04301,0.20686,0.61529
756.128,80.83745,-2.0462,0.19967,0.61247
759.228,81.1519,-2.04747,0.19343,0.60964
762.328,81.46645,-2.04981,0.18837,0.60682
765.428,81.78188,-2.04982,0.18489,0.604
768.528,82.09684,-2.05247,0.1842,0.60119
771.628,82.41211,-2.05161,0.1794,0.59837
774.728,82.72662,-2.05512,0.1753,0.59556
777.828,83.04024,-2.05453,0.17431,0.59275
780.928,83.35378,-2.0618,0.17254,0.58994
784.028,83.66723,-2.05773,0.17011,0.58714
787.128,83.9823,-2.06082,0.16798,0.58434
790.228,84.29725,-2.06495,0.16326,0.58154
793.328,84.6126,-2.0671,0.15942,0.57874
796.428,84.92772,-2.06638,0.15677,0.57595
797.128,84.99891,-2.06506,0.15294,0.57532