Folder: fsri_materials_database/01_Data/Wool_Rug/STA/N2/10K_min (part 2)

File: Wool_Rug_STA_N2_10KData_220118_R3.csv
##Temp./Â°C,Time/min,Mass loss(subtr.2)/mg,DSC(subtr.2)/(mW/mg),Sensit./(uV/mW)
49.214,10.00917,-0.00011,0.01044203,1.07448
52.514,11.33676,0.001926809,0.08957812,1.07424
55.814,11.79832,0.001662315,0.12721,1.07398
59.114,12.1955,0.0006777038,0.14713,1.07369
62.414,12.5693,0.001210385,0.16236,1.07337
65.714,12.93348,0.0003200676,0.17552,1.07304
69.014,13.29035,-0.0009804567,0.18675,1.07267
72.314,13.6431,-0.00361897,0.19699,1.07228
75.614,13.9901,-0.003046814,0.20755,1.07187
78.914,14.3337,-0.00724727,0.218,1.07143
82.214,14.6727,-0.008567386,0.22633,1.07096
85.514,15.00895,-0.008889656,0.23263,1.07047
88.814,15.3417,-0.009192699,0.23091,1.06995
92.114,15.6712,-0.01130772,0.23189,1.06941
95.414,15.99957,-0.01560239,0.22694,1.06885
98.714,16.32591,-0.01458312,0.22274,1.06826
102.014,16.65236,-0.01647709,0.21342,1.06764
105.314,16.9774,-0.01952898,0.20637,1.067
108.614,17.30144,-0.01891594,0.19756,1.06634
111.914,17.62415,-0.02118686,0.19106,1.06565
115.214,17.94745,-0.0184882,0.18562,1.06493
118.514,18.26944,-0.02228086,0.17908,1.06419
121.814,18.59136,-0.01964059,0.17256,1.06343
125.114,18.91222,-0.02267785,0.17071,1.06264
128.414,19.23273,-0.02128013,0.16663,1.06183
131.714,19.5524,-0.02337326,0.16616,1.06099
135.014,19.87239,-0.02073197,0.16583,1.06013
138.314,20.1917,-0.02273038,0.16252,1.05925
141.614,20.51089,-0.02238001,0.161,1.05834
144.914,20.8295,-0.0203954,0.16175,1.05741
148.214,21.14734,-0.02259985,0.16533,1.05645
151.514,21.4646,-0.01913425,0.16486,1.05547
154.814,21.78115,-0.02254612,0.16443,1.05447
158.114,22.09768,-0.0241168,0.16888,1.05344
161.414,22.41444,-0.02281961,0.16767,1.05239
164.714,22.73106,-0.02380993,0.17217,1.05132
168.014,23.04731,-0.02380013,0.17261,1.05022
171.314,23.363,-0.02238764,0.17537,1.0491
174.614,23.6789,-0.0275327,0.17718,1.04795
177.914,23.9953,-0.02619317,0.17817,1.04679
181.214,24.31137,-0.02423018,0.18001,1.0456
184.514,24.6275,-0.02423991,0.18101,1.04439
187.814,24.94277,-0.02556,0.1865,1.04315
191.114,25.25825,-0.02662236,0.19123,1.04189
194.414,25.57293,-0.02522886,0.1965,1.04061
197.714,25.88787,-0.0323617,0.20297,1.03931
201.014,26.20212,-0.02876088,0.20958,1.03799
204.314,26.51683,-0.03202908,0.21772,1.03664
207.614,26.8318,-0.03402498,0.23187,1.03527
210.914,27.1458,-0.03531948,0.2416,1.03388
214.214,27.46017,-0.03738395,0.25508,1.03247
217.514,27.77465,-0.04312048,0.27346,1.03103
220.814,28.0894,-0.04847808,0.30205,1.02958
224.114,28.4039,-0.05408022,0.33925,1.0281
227.414,28.71923,-0.06132002,0.38144,1.0266
230.714,29.0345,-0.06982667,0.42969,1.02508
234.014,29.35026,-0.08382703,0.47646,1.02354
237.314,29.66633,-0.09766216,0.50299,1.02198
240.614,29.98147,-0.11229,0.5092,1.0204
243.914,30.29637,-0.13042,0.50579,1.01879
247.214,30.6104,-0.14752,0.50595,1.01717
250.514,30.9253,-0.16342,0.50177,1.01552
253.814,31.24087,-0.1833,0.50525,1.01386
257.114,31.55623,-0.20343,0.49526,1.01217
260.414,31.87211,-0.22499,0.48579,1.01047
263.714,32.18738,-0.24548,0.4783,1.00874
267.014,32.50325,-0.26698,0.48294,1.007
270.314,32.81857,-0.28875,0.48647,1.00523
273.614,33.13297,-0.31312,0.48958,1.00345
276.914,33.44932,-0.33982,0.48837,1.00164
280.214,33.76467,-0.36288,0.49122,0.99982
283.514,34.08142,-0.39236,0.49185,0.99798
286.814,34.39801,-0.42556,0.49422,0.99611
290.114,34.7155,-0.45272,0.49352,0.99423
293.414,35.03302,-0.48397,0.49859,0.99234
296.714,35.34965,-0.52152,0.50063,0.99042
300.014,35.66628,-0.55853,0.50774,0.98848
303.314,35.98319,-0.59854,0.51446,0.98653
306.614,36.29994,-0.64289,0.52365,0.98455
309.914,36.6166,-0.69118,0.52536,0.98256
313.214,36.93423,-0.7378,0.52002,0.98055
316.514,37.2513,-0.79064,0.5136,0.97853
319.814,37.5689,-0.84245,0.49756,0.97648
323.114,37.88657,-0.90145,0.47885,0.97442
326.414,38.20459,-0.95786,0.45143,0.97234
329.714,38.52282,-1.01694,0.43112,0.97025
333.014,38.84063,-1.07612,0.4017,0.96813
336.314,39.1586,-1.13714,0.37736,0.966
339.614,39.47728,-1.20692,0.35219,0.96385
342.914,39.7956,-1.2636,0.33007,0.96169
346.214,40.11425,-1.31937,0.30708,0.95951
349.514,40.43352,-1.37527,0.28858,0.95731
352.814,40.7528,-1.42533,0.27169,0.9551
356.114,41.07163,-1.47067,0.25193,0.95287
359.414,41.3909,-1.51649,0.23356,0.95063
362.714,41.7111,-1.55514,0.22199,0.94837
366.014,42.0312,-1.58677,0.207,0.94609
369.314,42.35131,-1.62078,0.19456,0.9438
372.614,42.67114,-1.65085,0.18735,0.9415
375.914,42.99184,-1.67471,0.18016,0.93918
379.214,43.3118,-1.70257,0.177,0.93684
382.514,43.63278,-1.72445,0.17176,0.93449
385.814,43.9533,-1.7523,0.1684,0.93213
389.114,44.2745,-1.77134,0.16278,0.92975
392.414,44.59605,-1.79496,0.16346,0.92735
395.714,44.91765,-1.81774,0.1628,0.92494
399.014,45.23907,-1.84327,0.15832,0.92252
402.314,45.5604,-1.86199,0.15922,0.92009
405.614,45.88172,-1.88638,0.15473,0.91764
408.914,46.20346,-1.90681,0.14749,0.91517
412.214,46.52567,-1.92143,0.13937,0.9127
415.514,46.84796,-1.94191,0.13238,0.91021
418.814,47.17087,-1.96289,0.12781,0.90771
422.114,47.49458,-1.97617,0.12067,0.90519
425.414,47.81814,-1.99287,0.11443,0.90266
428.714,48.14192,-2.00713,0.10941,0.90012
432.014,48.46513,-2.02464,0.10477,0.89757
435.314,48.78875,-2.03707,0.09886381,0.89501
438.614,49.11252,-2.05271,0.09385485,0.89243
441.914,49.43629,-2.06644,0.08951229,0.88984
445.214,49.76017,-2.0785,0.0836485,0.88724
448.514,50.08461,-2.09274,0.07793644,0.88463
451.814,50.40828,-2.10174,0.07218324,0.882
455.114,50.7329,-2.11736,0.06891217,0.87937
458.414,51.05699,-2.12806,0.06491493,0.87672
461.714,51.38094,-2.13796,0.06036832,0.87407
465.014,51.70635,-2.14517,0.05580279,0.8714
468.314,52.03165,-2.15656,0.05029755,0.86872
471.614,52.35739,-2.1662,0.04322545,0.86603
474.914,52.6829,-2.17313,0.0397743,0.86333
478.214,53.00861,-2.18287,0.03610712,0.86063
481.514,53.3346,-2.18818,0.03098539,0.85791
484.814,53.6617,-2.19755,0.02553602,0.85518
488.114,53.98791,-2.19992,0.02113695,0.85244
491.414,54.31405,-2.20908,0.02081989,0.84969
494.714,54.6404,-2.21807,0.01952422,0.84694
498.014,54.96651,-2.223,0.01672705,0.84417
501.314,55.29206,-2.22554,0.0137584,0.8414
504.614,55.6189,-2.23222,0.01030514,0.83861
507.914,55.946,-2.23946,0.009849881,0.83582
511.214,56.27341,-2.24256,0.006237134,0.83302
514.514,56.60071,-2.24648,0.01206045,0.83021
517.814,56.92661,-2.25131,0.02251449,0.8274
521.114,57.2548,-2.25801,0.03339805,0.82457
524.414,57.58299,-2.26056,0.03592672,0.82174
527.714,57.91078,-2.26151,0.04163911,0.8189
531.014,58.23854,-2.26807,0.04685826,0.81605
534.314,58.56731,-2.27336,0.04987799,0.81319
537.614,58.89481,-2.27394,0.05121775,0.81033
540.914,59.22192,-2.28053,0.04764235,0.80746
544.214,59.54999,-2.2818,0.04550492,0.80459
547.514,59.8788,-2.2874,0.04110979,0.8017
550.814,60.2071,-2.28985,0.03532725,0.79881
554.114,60.536,-2.2943,0.03401978,0.79592
557.414,60.8653,-2.29957,0.02915965,0.79301
560.714,61.1951,-2.30131,0.02203637,0.79011
564.014,61.52476,-2.30648,0.01970873,0.78719
567.314,61.85462,-2.31403,0.0135235,0.78427
570.614,62.18427,-2.31504,0.008623049,0.78135
573.914,62.51355,-2.32267,0.00605727,0.77842
577.214,62.84385,-2.32477,0.004710622,0.77548
580.514,63.17364,-2.33036,0.0011782,0.77254
583.814,63.5035,-2.33149,0.0002770599,0.76959
587.114,63.83341,-2.33621,-0.00399026,0.76664
590.414,64.16345,-2.33873,-0.00154351,0.76368
593.714,64.4931,-2.34033,-0.00443549,0.76072
597.014,64.82339,-2.34659,-0.004678667,0.75776
600.314,65.1541,-2.35092,-0.0059954,0.75479
603.614,65.48488,-2.35544,-0.005816757,0.75182
606.914,65.8154,-2.35569,-0.00375557,0.74884
610.214,66.14627,-2.35661,-0.00188723,0.74586
613.514,66.47723,-2.36257,0.00213269,0.74287
616.814,66.80813,-2.36675,0.0107378,0.73988
620.114,67.13986,-2.37239,0.01752692,0.73689
623.414,67.47076,-2.37452,0.0348961,0.7339
626.714,67.80166,-2.37974,0.04811184,0.7309
630.014,68.13296,-2.38345,0.0620766,0.7279
633.314,68.46385,-2.38951,0.08220944,0.7249
636.614,68.79511,-2.3918,0.10551,0.72189
639.914,69.12677,-2.40278,0.13592,0.71888
643.214,69.45855,-2.40728,0.1618,0.71587
646.514,69.79159,-2.41723,0.19443,0.71286
649.814,70.12275,-2.42532,0.22935,0.70984
653.114,70.45603,-2.43256,0.26789,0.70683
656.414,70.7877,-2.44629,0.3106,0.70381
659.714,71.11924,-2.45587,0.35945,0.70079
663.014,71.45084,-2.47054,0.40585,0.69777
666.314,71.78235,-2.4824,0.45545,0.69474
669.614,72.11403,-2.5049,0.50709,0.69172
672.914,72.4459,-2.51638,0.56363,0.6887
676.214,72.77804,-2.53708,0.61603,0.68567
679.514,73.11084,-2.55716,0.67118,0.68264
682.814,73.44476,-2.57518,0.72751,0.67962
686.114,73.7782,-2.60084,0.77547,0.67659
689.414,74.11225,-2.62259,0.82176,0.67356
692.714,74.44591,-2.64335,0.8533,0.67053
696.014,74.779,-2.67283,0.86839,0.6675
699.314,75.11129,-2.6953,0.84353,0.66447
702.614,75.44332,-2.72084,0.76052,0.66145
705.914,75.77575,-2.73969,0.59813,0.65842
709.214,76.1082,-2.75336,0.40899,0.65539
712.514,76.44071,-2.76621,0.23732,0.65236
715.814,76.77374,-2.78252,0.1281,0.64934
719.114,77.10765,-2.78252,0.04837758,0.64631
722.414,77.4413,-2.78919,-0.007338879,0.64329
725.714,77.77591,-2.79367,-0.06059633,0.64026
729.014,78.10939,-2.79801,-0.09627302,0.63724
732.314,78.44354,-2.80084,-0.12859,0.63422
735.614,78.77779,-2.80422,-0.15276,0.6312
738.914,79.11199,-2.80589,-0.17186,0.62818
742.214,79.446,-2.8084,-0.18622,0.62516
745.514,79.7808,-2.81083,-0.20069,0.62215
748.814,80.11442,-2.80994,-0.2134,0.61914
752.114,80.44884,-2.81532,-0.22132,0.61613
755.414,80.78324,-2.81569,-0.22224,0.61312
758.714,81.11707,-2.81223,-0.22971,0.61011
762.014,81.45066,-2.82011,-0.23532,0.60711
765.314,81.78497,-2.81799,-0.23526,0.60411
768.614,82.11945,-2.82398,-0.24513,0.60111
771.914,82.45424,-2.82235,-0.24938,0.59811
775.214,82.78848,-2.82387,-0.25661,0.59512
778.514,83.12323,-2.82486,-0.26913,0.59213
781.814,83.45943,-2.8289,-0.26795,0.58914
785.114,83.79556,-2.82893,-0.27636,0.58616
788.414,84.13115,-2.83023,-0.28199,0.58318
791.714,84.46559,-2.83287,-0.2865,0.5802
795.014,84.80051,-2.83155,-0.29057,0.57723
796.914,84.9937,-2.83287,-0.2986,0.57552