Folder: fsri_materials_database/01_Data/Wool_Rug/STA/N2/30K_min

Note: 01_Data/README.md
# Materials and Products Database
## 01_Data

Raw data generated from each apparatus are included here in plain-text format. The data is organized first by material, next by the short name of test apparatus used, and where applicable additional filtering by test settings.

### material.json

Each material directory contains a json file of the same name as the material. This file links the data stored in the repository as well as data and graphs produced by the accompanying scripts (__02_Scripts__) to the respective landing page for the material on the front-end website.

File: Wool_Rug_STA_N2_30KData_220118_R1.csv
##Temp./Â°C,Time/min,Mass loss(subtr.2)/mg,DSC(subtr.2)/(mW/mg),Sensit./(uV/mW)
48.581,10.00583,-0.0316,0.00140894,1.06963
51.781,10.8771,-0.03154647,0.14171,1.06934
54.981,11.10966,-0.03328351,0.23941,1.06902
58.181,11.2896,-0.03387953,0.31726,1.06867
61.381,11.4445,-0.03461893,0.37869,1.06829
64.581,11.58553,-0.03421651,0.43111,1.06788
67.781,11.71793,-0.03467306,0.47872,1.06745
70.981,11.84437,-0.03630659,0.51818,1.06699
74.181,11.9665,-0.03584311,0.55534,1.0665
77.381,12.08587,-0.03609161,0.59113,1.06598
80.581,12.20256,-0.03654209,0.6217,1.06543
83.781,12.31744,-0.03820245,0.65573,1.06486
86.981,12.43008,-0.03959934,0.68862,1.06426
90.181,12.54237,-0.04113786,0.7165,1.06363
93.381,12.6531,-0.04259068,0.74441,1.06298
96.581,12.7629,-0.04377004,0.77167,1.0623
99.781,12.8718,-0.04507847,0.79625,1.06159
102.981,12.98052,-0.04772114,0.81768,1.06085
106.181,13.08893,-0.05023114,0.8347,1.06009
109.381,13.1968,-0.05168355,0.84552,1.0593
112.581,13.30434,-0.05166006,0.8514,1.05848
115.781,13.4115,-0.05388226,0.85367,1.05764
118.981,13.5186,-0.05562824,0.85065,1.05677
122.181,13.6249,-0.05826736,0.84759,1.05588
125.381,13.7308,-0.05956014,0.8385,1.05496
128.581,13.8361,-0.05955991,0.83211,1.05402
131.781,13.9404,-0.06086143,0.82236,1.05305
134.981,14.045,-0.06219,0.81492,1.05205
138.181,14.1485,-0.06219,0.80773,1.05103
141.381,14.25165,-0.06351032,0.80233,1.04998
144.581,14.3544,-0.06351,0.79672,1.04891
147.781,14.45645,-0.06483569,0.79362,1.04782
150.981,14.5583,-0.06482,0.7937,1.0467
154.181,14.6596,-0.06482,0.79894,1.04556
157.381,14.76136,-0.06482002,0.79986,1.04439
160.581,14.86231,-0.06614001,0.80659,1.0432
163.781,14.96306,-0.0661386,0.81385,1.04198
166.981,15.06373,-0.06515634,0.82156,1.04074
170.181,15.16394,-0.06666054,0.82761,1.03948
173.381,15.26421,-0.06746,0.83811,1.03819
176.581,15.364,-0.0682998,0.84675,1.03688
179.781,15.4634,-0.06844,0.85583,1.03555
182.981,15.5626,-0.06847217,0.86257,1.0342
186.181,15.6613,-0.06812,0.87271,1.03282
189.381,15.75985,-0.06844671,0.88381,1.03142
192.581,15.85829,-0.07008999,0.89159,1.03
195.781,15.9565,-0.07108,0.90287,1.02856
198.981,16.05453,-0.0697587,0.91477,1.02709
202.181,16.15249,-0.07240011,0.93216,1.0256
205.381,16.2503,-0.07257094,0.94445,1.0241
208.581,16.348,-0.07371001,0.96149,1.02257
211.781,16.44581,-0.07503,0.98375,1.02102
214.981,16.54344,-0.07635001,1.00801,1.01944
218.181,16.64086,-0.07765994,1.04015,1.01785
221.381,16.7382,-0.07894648,1.08303,1.01624
224.581,16.83579,-0.08293594,1.13618,1.01461
227.781,16.93297,-0.08556151,1.20683,1.01296
230.981,17.03044,-0.0882313,1.29748,1.01128
234.181,17.1277,-0.09281663,1.40964,1.00959
237.381,17.22495,-0.09967598,1.53004,1.00788
240.581,17.32231,-0.10727,1.64817,1.00615
243.781,17.41936,-0.11694,1.73629,1.0044
246.981,17.5167,-0.12712,1.79546,1.00263
250.181,17.61375,-0.13922,1.81558,1.00084
253.381,17.71065,-0.15062,1.82053,0.99904
256.581,17.80759,-0.16334,1.80352,0.99722
259.781,17.90449,-0.17653,1.7813,0.99537
262.981,18.0013,-0.18991,1.77118,0.99351
266.181,18.0978,-0.20541,1.76653,0.99164
269.381,18.19435,-0.21996,1.7689,0.98974
272.581,18.29109,-0.23424,1.77587,0.98783
275.781,18.38779,-0.25187,1.78576,0.9859
278.981,18.48459,-0.26895,1.78966,0.98396
282.181,18.58124,-0.28508,1.79917,0.98199
285.381,18.6781,-0.3036,1.80855,0.98001
288.581,18.77488,-0.3238,1.81445,0.97802
291.781,18.87167,-0.34455,1.82306,0.97601
294.981,18.96871,-0.36583,1.83193,0.97398
298.181,19.06569,-0.38672,1.83774,0.97194
301.381,19.1628,-0.41101,1.84711,0.96988
304.581,19.25945,-0.43576,1.85301,0.96781
307.781,19.35688,-0.46015,1.8605,0.96572
310.981,19.45394,-0.48876,1.87005,0.96362
314.181,19.55098,-0.51768,1.87873,0.9615
317.381,19.648,-0.54706,1.8904,0.95937
320.581,19.7451,-0.58186,1.90418,0.95723
323.781,19.8426,-0.6185,1.92203,0.95507
326.981,19.9399,-0.65621,1.93612,0.95289
330.181,20.03721,-0.69566,1.93925,0.95071
333.381,20.1348,-0.7384,1.93112,0.94851
336.581,20.23236,-0.78453,1.91014,0.9463
339.781,20.3299,-0.82997,1.87146,0.94407
342.981,20.42755,-0.87844,1.81883,0.94183
346.181,20.52533,-0.92845,1.75187,0.93958
349.381,20.62306,-0.98169,1.673,0.93732
352.581,20.7207,-1.03461,1.58543,0.93504
355.781,20.81861,-1.08922,1.50182,0.93275
358.981,20.9162,-1.14635,1.41274,0.93045
362.181,21.0147,-1.20152,1.33399,0.92814
365.381,21.11285,-1.25523,1.26873,0.92582
368.581,21.21114,-1.30877,1.21124,0.92349
371.781,21.30943,-1.35636,1.16812,0.92115
374.981,21.40796,-1.40166,1.13876,0.91879
378.181,21.50658,-1.44377,1.11311,0.91643
381.381,21.60516,-1.48328,1.0902,0.91405
384.581,21.70405,-1.5185,1.07233,0.91167
387.781,21.80294,-1.55208,1.06094,0.90927
390.981,21.90184,-1.58266,1.04704,0.90687
394.181,22.00096,-1.61107,1.03302,0.90445
397.381,22.10008,-1.63951,1.02006,0.90203
400.581,22.19943,-1.66532,1.01098,0.8996
403.781,22.29886,-1.68932,0.99993,0.89715
406.981,22.3984,-1.71226,0.98243,0.8947
410.181,22.49785,-1.73669,0.97016,0.89224
413.381,22.59737,-1.75626,0.95998,0.88978
416.581,22.69715,-1.7753,0.95026,0.8873
419.781,22.79703,-1.79616,0.94015,0.88482
422.981,22.89682,-1.81682,0.92579,0.88233
426.181,22.99685,-1.83449,0.90947,0.87983
429.381,23.097,-1.85298,0.8946,0.87732
432.581,23.19719,-1.86999,0.87703,0.87481
435.781,23.2976,-1.88774,0.85451,0.87229
438.981,23.3981,-1.90307,0.83555,0.86976
442.181,23.49877,-1.91695,0.82035,0.86722
445.381,23.59947,-1.93059,0.80486,0.86468
448.581,23.70034,-1.94195,0.78764,0.86213
451.781,23.8014,-1.95653,0.77417,0.85958
454.981,23.90251,-1.9687,0.76333,0.85702
458.181,24.0037,-1.9811,0.7516,0.85446
461.381,24.10505,-1.99135,0.73983,0.85188
464.581,24.20645,-2.00148,0.72439,0.84931
467.781,24.30796,-2.01337,0.7144,0.84673
470.981,24.40954,-2.02354,0.70602,0.84414
474.181,24.51107,-2.03294,0.69428,0.84155
477.381,24.61287,-2.04142,0.6819,0.83895
480.581,24.7148,-2.05088,0.67097,0.83635
483.781,24.81666,-2.05908,0.66125,0.83374
486.981,24.9187,-2.06801,0.65013,0.83113
490.181,25.02072,-2.0769,0.64064,0.82852
493.381,25.12269,-2.08392,0.63062,0.8259
496.581,25.22512,-2.09068,0.62306,0.82328
499.781,25.32753,-2.09947,0.61274,0.82065
502.981,25.42995,-2.10514,0.60487,0.81802
506.181,25.53239,-2.11321,0.59766,0.81539
509.381,25.63484,-2.11945,0.59323,0.81275
512.581,25.73752,-2.12421,0.58468,0.81011
515.781,25.84015,-2.13022,0.58114,0.80747
518.981,25.94301,-2.13522,0.5726,0.80483
522.181,26.04575,-2.13965,0.56645,0.80218
525.381,26.14857,-2.1457,0.55754,0.79953
528.581,26.25142,-2.14854,0.5513,0.79688
531.781,26.3544,-2.15306,0.54648,0.79422
534.981,26.4577,-2.15895,0.54109,0.79157
538.181,26.5607,-2.16266,0.5373,0.78891
541.381,26.664,-2.16633,0.53152,0.78625
544.581,26.76728,-2.16979,0.52806,0.78358
547.781,26.8707,-2.17375,0.53025,0.78092
550.981,26.97427,-2.17658,0.52629,0.77826
554.181,27.0778,-2.18032,0.52663,0.77559
557.381,27.1814,-2.18353,0.53031,0.77292
560.581,27.285,-2.1867,0.52869,0.77025
563.781,27.3888,-2.19004,0.53198,0.76759
566.981,27.4928,-2.19319,0.53696,0.76492
570.181,27.59665,-2.19705,0.54295,0.76225
573.381,27.7007,-2.20126,0.55202,0.75958
576.581,27.8048,-2.2033,0.5545,0.7569
579.781,27.90908,-2.20725,0.55875,0.75423
582.981,28.0134,-2.21012,0.56271,0.75156
586.181,28.1177,-2.21317,0.55514,0.74889
589.381,28.22215,-2.21684,0.55038,0.74622
592.581,28.32692,-2.2196,0.54756,0.74355
595.781,28.4315,-2.22322,0.5433,0.74088
598.981,28.53629,-2.22742,0.53783,0.73821
602.181,28.6411,-2.23026,0.5367,0.73554
605.381,28.74592,-2.23399,0.52897,0.73287
608.581,28.8508,-2.23737,0.52464,0.7302
611.781,28.95583,-2.24241,0.51771,0.72753
614.981,29.06077,-2.24542,0.51646,0.72487
618.181,29.1656,-2.24835,0.51549,0.7222
621.381,29.27063,-2.25257,0.51489,0.71954
624.581,29.37582,-2.25535,0.50578,0.71688
627.781,29.48092,-2.25833,0.502,0.71421
630.981,29.5861,-2.26239,0.50324,0.71156
634.181,29.6913,-2.26371,0.50858,0.7089
637.381,29.7964,-2.26769,0.51042,0.70624
640.581,29.90168,-2.27035,0.51749,0.70359
643.781,30.00692,-2.27303,0.52328,0.70093
646.981,30.1123,-2.27566,0.53439,0.69828
650.181,30.2178,-2.27829,0.54704,0.69563
653.381,30.32317,-2.28187,0.56693,0.69299
656.581,30.42882,-2.28452,0.58929,0.69034
659.781,30.5343,-2.28646,0.61936,0.6877
662.981,30.6402,-2.29089,0.65538,0.68506
666.181,30.74597,-2.29619,0.70034,0.68243
669.381,30.85213,-2.29997,0.74548,0.67979
672.581,30.95797,-2.30517,0.79909,0.67716
675.781,31.064,-2.30887,0.85757,0.67453
678.981,31.1701,-2.31448,0.91628,0.6719
682.181,31.2764,-2.32223,0.97862,0.66928
685.381,31.38237,-2.32722,1.04721,0.66666
688.581,31.48868,-2.33501,1.11836,0.66404
691.781,31.59491,-2.3433,1.19889,0.66143
694.981,31.7013,-2.35271,1.28026,0.65882
698.181,31.80779,-2.36061,1.36808,0.65621
701.381,31.9143,-2.37071,1.45853,0.65361
704.581,32.0207,-2.38139,1.54981,0.651
707.781,32.12726,-2.39045,1.64573,0.64841
710.981,32.23362,-2.402,1.73909,0.64581
714.181,32.3401,-2.41508,1.83582,0.64322
717.381,32.44672,-2.42864,1.93104,0.64063
720.581,32.5535,-2.44278,2.01697,0.63805
723.781,32.66028,-2.45588,2.09752,0.63547
726.981,32.7668,-2.4688,2.16293,0.63289
730.181,32.87362,-2.47527,2.21739,0.63032
733.381,32.97987,-2.4949,2.24855,0.62775
736.581,33.08712,-2.51458,2.25848,0.62519
739.781,33.19386,-2.5306,2.22968,0.62263
742.981,33.30065,-2.54724,2.17327,0.62007
746.181,33.40759,-2.56686,2.07734,0.61752
749.381,33.51455,-2.58031,1.94463,0.61497
752.581,33.62157,-2.58935,1.80315,0.61243
755.781,33.72854,-2.60178,1.66673,0.60989
758.981,33.83542,-2.61125,1.54929,0.60735
762.181,33.94253,-2.61901,1.44439,0.60482
765.381,34.0496,-2.62752,1.34961,0.60229
768.581,34.15678,-2.63383,1.26285,0.59977
771.781,34.26397,-2.64132,1.17754,0.59725
774.981,34.3712,-2.64693,1.0991,0.59474
778.181,34.47829,-2.65628,1.01648,0.59223
781.381,34.58567,-2.66778,0.93998,0.58973
784.581,34.69295,-2.67298,0.86685,0.58723
787.781,34.80028,-2.6816,0.79585,0.58473
790.981,34.90775,-2.69134,0.73272,0.58224
793.681,34.99817,-2.69334,0.67678,0.58014

File: Wool_Rug_STA_N2_30KData_220119_R2.csv
##Temp./Â°C,Time/min,Mass loss(subtr.2)/mg,DSC(subtr.2)/(mW/mg),Sensit./(uV/mW)
48.623,10.00667,-0.00461,0.009653425,1.06962
52.023,10.89586,-0.00771763,0.17561,1.06931
55.423,11.13689,-0.00857404,0.28564,1.06897
58.823,11.3227,-0.006748253,0.37018,1.06859
62.223,11.48375,-0.007774056,0.44117,1.06819
65.623,11.63091,-0.009509904,0.50049,1.06775
69.023,11.76919,-0.008155021,0.55172,1.06727
72.423,11.90173,-0.00722991,0.59746,1.06677
75.823,12.03003,-0.00602945,0.63601,1.06624
79.223,12.15541,-0.007138042,0.67744,1.06567
82.623,12.27807,-0.008866825,0.71378,1.06507
86.023,12.39868,-0.01133878,0.75061,1.06444
89.423,12.5174,-0.01245786,0.78477,1.06378
92.823,12.63504,-0.01250085,0.81799,1.06309
96.223,12.75195,-0.01374942,0.84748,1.06237
99.623,12.86753,-0.01458153,0.87541,1.06162
103.023,12.98282,-0.01611666,0.8985,1.06084
106.423,13.09781,-0.01854196,0.91913,1.06003
109.823,13.21222,-0.0211463,0.92854,1.05919
113.223,13.3262,-0.0238,0.93334,1.05832
116.623,13.44012,-0.02348016,0.93938,1.05742
120.023,13.5535,-0.02379931,0.93674,1.05649
123.423,13.6661,-0.02512,0.9319,1.05553
126.823,13.7776,-0.02768402,0.92596,1.05454
130.223,13.88954,-0.02906372,0.91997,1.05352
133.623,14.00051,-0.02906,0.91143,1.05248
137.023,14.11081,-0.02906,0.90589,1.0514
140.423,14.2205,-0.02905996,0.90144,1.0503
143.823,14.32973,-0.03038456,0.89737,1.04917
147.223,14.4386,-0.03169,0.8983,1.04801
150.623,14.54672,-0.03136,0.90106,1.04683
154.023,14.6546,-0.03182001,0.90323,1.04561
157.423,14.76245,-0.03268,0.90785,1.04437
160.823,14.8697,-0.03136679,0.91692,1.0431
164.223,14.977,-0.03269,0.92537,1.04181
167.623,15.08375,-0.03269,0.93344,1.04049
171.023,15.1906,-0.0330183,0.9435,1.03914
174.423,15.2968,-0.03400003,0.95424,1.03777
177.823,15.4027,-0.03531,0.96576,1.03637
181.223,15.5085,-0.03531,0.9782,1.03494
184.623,15.61401,-0.03400004,0.99056,1.03349
188.023,15.7188,-0.03530988,1.00124,1.03202
191.423,15.8236,-0.03530872,1.01598,1.03052
194.823,15.92791,-0.03598,1.02881,1.02899
198.223,16.03239,-0.03597235,1.0424,1.02744
201.623,16.13644,-0.03592366,1.05997,1.02586
205.023,16.24035,-0.03991857,1.08091,1.02427
208.423,16.34445,-0.04123976,1.09894,1.02264
211.823,16.44811,-0.04257613,1.12481,1.021
215.223,16.55189,-0.04255884,1.15412,1.01933
218.623,16.65573,-0.04387,1.19276,1.01763
222.023,16.75905,-0.04520391,1.24078,1.01591
225.423,16.86265,-0.04795103,1.30554,1.01418
228.823,16.96611,-0.05199282,1.39002,1.01241
232.223,17.06941,-0.05512123,1.49675,1.01063
235.623,17.1729,-0.06358367,1.62222,1.00882
239.023,17.27619,-0.0719489,1.76067,1.00699
242.423,17.37973,-0.077965,1.88327,1.00514
245.823,17.48299,-0.09228652,1.96938,1.00327
249.223,17.5857,-0.10558,2.01632,1.00138
252.623,17.68936,-0.11908,2.02978,0.99947
256.023,17.79221,-0.13166,2.02234,0.99753
259.423,17.89498,-0.14521,2.00319,0.99558
262.823,17.99781,-0.16273,1.98763,0.99361
266.223,18.10039,-0.17895,1.98564,0.99161
269.623,18.203,-0.19478,1.99471,0.9896
273.023,18.30556,-0.21299,2.00396,0.98756
276.423,18.40829,-0.2321,2.01615,0.98551
279.823,18.51097,-0.25192,2.02566,0.98344
283.223,18.61373,-0.27294,2.03718,0.98135
286.623,18.71641,-0.29469,2.0449,0.97924
290.023,18.81927,-0.3165,2.05584,0.97712
293.423,18.92216,-0.33892,2.06736,0.97497
296.823,19.025,-0.36613,2.07986,0.97281
300.223,19.12781,-0.39053,2.08974,0.97063
303.623,19.23069,-0.41793,2.09738,0.96843
307.023,19.33372,-0.44675,2.10419,0.96622
310.423,19.43659,-0.47645,2.11367,0.96399
313.823,19.53978,-0.50898,2.12204,0.96174
317.223,19.64286,-0.54368,2.13857,0.95948
320.623,19.746,-0.58067,2.15438,0.9572
324.023,19.84935,-0.62047,2.17013,0.9549
327.423,19.95276,-0.66274,2.1839,0.95259
330.823,20.0562,-0.71022,2.18847,0.95027
334.223,20.15958,-0.75576,2.17405,0.94793
337.623,20.26333,-0.80739,2.14296,0.94557
341.023,20.36714,-0.86491,2.09549,0.9432
344.423,20.47084,-0.91775,2.02604,0.94082
347.823,20.57467,-0.97353,1.94492,0.93842
351.223,20.6786,-1.03388,1.85379,0.93601
354.623,20.78258,-1.09486,1.75995,0.93358
358.023,20.88658,-1.15537,1.66734,0.93114
361.423,20.9906,-1.21916,1.58149,0.92869
364.823,21.09475,-1.27933,1.50546,0.92623
368.223,21.199,-1.33719,1.43798,0.92375
371.623,21.30348,-1.39345,1.38348,0.92126
375.023,21.40794,-1.44284,1.33649,0.91876
378.423,21.51256,-1.48917,1.29945,0.91625
381.823,21.61727,-1.53295,1.27043,0.91372
385.223,21.72213,-1.57118,1.24397,0.91119
388.623,21.8272,-1.60926,1.2208,0.90864
392.023,21.9321,-1.64304,1.20063,0.90608
395.423,22.03766,-1.67219,1.18283,0.90351
398.823,22.1429,-1.70292,1.16128,0.90093
402.223,22.24849,-1.73218,1.14532,0.89834
405.623,22.35429,-1.75928,1.13038,0.89574
409.023,22.46017,-1.78485,1.11456,0.89313
412.423,22.56614,-1.80799,1.10307,0.89052
415.823,22.67226,-1.82972,1.08973,0.88789
419.223,22.77843,-1.85087,1.07428,0.88525
422.623,22.88485,-1.8748,1.05989,0.8826
426.023,22.99125,-1.89707,1.04473,0.87995
429.423,23.09805,-1.91509,1.02583,0.87729
432.823,23.20475,-1.93325,1.00548,0.87462
436.223,23.31129,-1.95103,0.98309,0.87194
439.623,23.41837,-1.96814,0.96289,0.86925
443.023,23.52525,-1.98263,0.94108,0.86655
446.423,23.6323,-1.99472,0.92152,0.86385
449.823,23.73956,-2.0118,0.90732,0.86114
453.223,23.84691,-2.02495,0.89366,0.85843
456.623,23.95429,-2.03933,0.87793,0.85571
460.023,24.06188,-2.05084,0.86486,0.85298
463.423,24.16974,-2.06281,0.85221,0.85024
466.823,24.27753,-2.07543,0.84082,0.8475
470.223,24.38524,-2.08656,0.83098,0.84475
473.623,24.49334,-2.09753,0.81731,0.842
477.023,24.60156,-2.10724,0.80658,0.83924
480.423,24.70956,-2.11462,0.79233,0.83648
483.823,24.8179,-2.12675,0.7833,0.83371
487.223,24.92613,-2.13147,0.77157,0.83093
490.623,25.0348,-2.14277,0.76122,0.82816
494.023,25.14338,-2.15018,0.75194,0.82537
497.423,25.252,-2.15966,0.73913,0.82259
500.823,25.36065,-2.16675,0.73266,0.8198
504.223,25.46955,-2.17384,0.72331,0.817
507.623,25.57834,-2.17934,0.71635,0.8142
511.023,25.68742,-2.18561,0.70837,0.8114
514.423,25.79645,-2.19437,0.70204,0.80859
517.823,25.90549,-2.20086,0.68988,0.80578
521.223,26.0148,-2.20797,0.68926,0.80297
524.623,26.1241,-2.21181,0.67791,0.80016
528.023,26.23354,-2.21733,0.67337,0.79734
531.423,26.343,-2.22236,0.66671,0.79452
534.823,26.4528,-2.22441,0.66683,0.7917
538.223,26.5624,-2.23057,0.66179,0.78887
541.623,26.67227,-2.2361,0.66188,0.78605
545.023,26.78205,-2.2376,0.65974,0.78322
548.423,26.89185,-2.24041,0.66,0.78039
551.823,27.00195,-2.24448,0.66032,0.77755
555.223,27.11213,-2.24874,0.66272,0.77472
558.623,27.2223,-2.25295,0.6676,0.77189
562.023,27.33257,-2.25577,0.67321,0.76905
565.423,27.443,-2.25994,0.68088,0.76622
568.823,27.5535,-2.26413,0.6871,0.76338
572.223,27.66403,-2.26679,0.69757,0.76054
575.623,27.77474,-2.27286,0.70466,0.7577
579.023,27.8854,-2.27688,0.71482,0.75487
582.423,27.99639,-2.27829,0.71732,0.75203
585.823,28.1071,-2.28307,0.72243,0.74919
589.223,28.21837,-2.28943,0.7209,0.74635
592.623,28.3294,-2.2921,0.71831,0.74351
596.023,28.4405,-2.29485,0.71726,0.74068
599.423,28.55162,-2.29487,0.71925,0.73784
602.823,28.663,-2.30087,0.71837,0.735
606.223,28.7744,-2.30752,0.7153,0.73217
609.623,28.8859,-2.31196,0.70873,0.72933
613.023,28.99735,-2.31358,0.70879,0.7265
616.423,29.1091,-2.31584,0.70904,0.72367
619.823,29.2209,-2.32204,0.70546,0.72084
623.223,29.3325,-2.32638,0.70774,0.71801
626.623,29.4443,-2.32957,0.70728,0.71518
630.023,29.55625,-2.33275,0.71395,0.71235
633.423,29.66817,-2.33952,0.71394,0.70953
636.823,29.7802,-2.34147,0.72241,0.7067
640.223,29.89228,-2.34342,0.73469,0.70388
643.623,30.0043,-2.34602,0.74592,0.70106
647.023,30.1166,-2.3475,0.76945,0.69825
650.423,30.22881,-2.35128,0.79422,0.69543
653.823,30.341,-2.35584,0.8329,0.69262
657.223,30.4534,-2.36023,0.87708,0.68981
660.623,30.5657,-2.36395,0.92069,0.68701
664.023,30.67802,-2.36676,0.97713,0.6842
667.423,30.7904,-2.37383,1.03579,0.6814
670.823,30.90292,-2.37816,1.10292,0.67861
674.223,31.01555,-2.38583,1.17406,0.67581
677.623,31.128,-2.39006,1.25607,0.67302
681.023,31.2407,-2.40007,1.34404,0.67023
684.423,31.35332,-2.41189,1.43442,0.66744
687.823,31.46599,-2.41972,1.5279,0.66466
691.223,31.5786,-2.42797,1.6312,0.66188
694.623,31.69138,-2.43635,1.73699,0.65911
698.023,31.80428,-2.4476,1.84715,0.65634
701.423,31.9173,-2.46275,1.96276,0.65357
704.823,32.0302,-2.47391,2.07902,0.65081
708.223,32.1432,-2.48868,2.19515,0.64805
711.623,32.25629,-2.50171,2.31339,0.64529
715.023,32.36943,-2.5187,2.4292,0.64254
718.423,32.48277,-2.53794,2.53554,0.63979
721.823,32.59617,-2.55517,2.62994,0.63705
725.223,32.70943,-2.56982,2.70755,0.63431
728.623,32.82278,-2.58861,2.76254,0.63157
732.023,32.93636,-2.60679,2.77479,0.62884
735.423,33.04955,-2.62347,2.72941,0.62612
738.823,33.16312,-2.64326,2.63787,0.62339
742.223,33.27659,-2.66247,2.49222,0.62068
745.623,33.38984,-2.67736,2.29677,0.61796
749.023,33.50367,-2.69296,2.09456,0.61526
752.423,33.61707,-2.70452,1.91131,0.61255
755.823,33.73065,-2.71212,1.75285,0.60985
759.223,33.8444,-2.72237,1.62118,0.60716
762.623,33.95815,-2.73192,1.49482,0.60447
766.023,34.07206,-2.74127,1.38542,0.60179
769.423,34.18589,-2.74827,1.27177,0.59911
772.823,34.29975,-2.75663,1.16817,0.59644
776.223,34.41366,-2.76245,1.06149,0.59377
779.623,34.5274,-2.76805,0.96515,0.5911
783.023,34.64161,-2.77143,0.87902,0.58844
786.423,34.75575,-2.77717,0.79728,0.58579
789.823,34.87,-2.78026,0.7185,0.58314
793.223,34.98377,-2.78437,0.65415,0.5805
796.623,35.0982,-2.78777,0.59215,0.57786
800.023,35.21244,-2.79185,0.53829,0.57523
803.423,35.3268,-2.79656,0.49116,0.5726
806.823,35.4411,-2.79788,0.45355,0.56998
810.223,35.55556,-2.80293,0.41396,0.56737
813.623,35.67,-2.80936,0.37854,0.56476
817.023,35.78434,-2.80752,0.34322,0.56215
820.423,35.8987,-2.80884,0.31514,0.55955
823.823,36.01327,-2.8095,0.28838,0.55696
827.223,36.12768,-2.81191,0.26238,0.55437
830.623,36.24211,-2.81681,0.2338,0.55179
834.023,36.35667,-2.81861,0.20962,0.54921
837.423,36.4714,-2.81729,0.18978,0.54664
840.823,36.5859,-2.82022,0.17065,0.54408
843.123,36.66345,-2.82418,0.15468,0.54234