Folder: fsri_materials_database/01_Data/Wool_Rug/STA/N2/30K_min (part 2)

File: Wool_Rug_STA_N2_30KData_220119_R3.csv
##Temp./Â°C,Time/min,Mass loss(subtr.2)/mg,DSC(subtr.2)/(mW/mg),Sensit./(uV/mW)
48.518,10.00667,-0.00912,0.005740969,1.06963
51.918,10.89595,-0.01029023,0.14912,1.06932
55.318,11.13702,-0.007890507,0.24678,1.06898
58.718,11.32359,-0.009074538,0.31921,1.06861
62.118,11.48505,-0.009643539,0.38156,1.0682
65.518,11.63207,-0.01007478,0.43157,1.06776
68.918,11.77075,-0.01020981,0.47945,1.06729
72.318,11.9033,-0.01245197,0.51662,1.06679
75.718,12.03173,-0.01059275,0.55512,1.06625
79.118,12.1573,-0.01201322,0.58808,1.06569
82.518,12.28042,-0.01116605,0.62174,1.06509
85.918,12.40092,-0.01238962,0.65457,1.06446
89.318,12.51998,-0.01514004,0.68761,1.0638
92.718,12.6378,-0.01671662,0.7183,1.06312
96.118,12.75462,-0.01855719,0.74889,1.0624
99.518,12.8703,-0.01942271,0.77544,1.06165
102.918,12.98585,-0.02074058,0.79867,1.06087
106.318,13.1007,-0.02073995,0.81713,1.06005
109.718,13.21522,-0.02206021,0.82951,1.05921
113.118,13.3291,-0.02599881,0.83711,1.05834
116.518,13.4429,-0.02863591,0.83659,1.05744
119.918,13.5563,-0.02599204,0.83165,1.05652
123.318,13.66906,-0.02863131,0.82569,1.05556
126.718,13.78103,-0.03127037,0.81853,1.05457
130.118,13.8925,-0.03127,0.80897,1.05355
133.518,14.00351,-0.03260315,0.7997,1.05251
136.918,14.11355,-0.03389899,0.79444,1.05144
140.318,14.22321,-0.03554001,0.78259,1.05033
143.718,14.33245,-0.03555102,0.77969,1.0492
147.118,14.44106,-0.03522,0.77703,1.04805
150.518,14.5493,-0.03541501,0.77718,1.04686
153.918,14.65722,-0.03521082,0.77746,1.04565
157.318,14.76475,-0.03521,0.78153,1.04441
160.718,14.87227,-0.03653042,0.78803,1.04314
164.118,14.9794,-0.03653,0.79623,1.04185
167.518,15.0861,-0.03653,0.80141,1.04053
170.918,15.19289,-0.03653003,0.80653,1.03918
174.318,15.2991,-0.03784986,0.81356,1.03781
177.718,15.40504,-0.03818,0.82666,1.03641
181.118,15.5107,-0.03818,0.83464,1.03499
184.518,15.61581,-0.03817994,0.84268,1.03354
187.918,15.72081,-0.04014076,0.85708,1.03206
191.318,15.8255,-0.04015007,0.86902,1.03056
194.718,15.9301,-0.04014534,0.88112,1.02904
198.118,16.03412,-0.04145945,0.89254,1.02749
201.518,16.13813,-0.04278,0.9091,1.02591
204.918,16.24237,-0.04343996,0.92734,1.02432
208.318,16.3463,-0.04344,0.94731,1.02269
211.718,16.44987,-0.04508922,0.97124,1.02105
215.118,16.55361,-0.04508,1.00339,1.01938
218.518,16.65723,-0.04775919,1.04011,1.01768
221.918,16.76076,-0.05034718,1.08946,1.01597
225.318,16.86422,-0.05214311,1.15167,1.01423
228.718,16.96754,-0.05541786,1.23848,1.01247
232.118,17.07102,-0.05996642,1.34673,1.01068
235.518,17.1744,-0.06652918,1.47919,1.00888
238.918,17.2779,-0.07436278,1.61367,1.00705
242.318,17.3813,-0.08579067,1.72866,1.0052
245.718,17.48461,-0.09649577,1.80756,1.00333
249.118,17.58804,-0.10856,1.84606,1.00144
252.518,17.69108,-0.12032,1.85529,0.99953
255.918,17.79409,-0.1361,1.84045,0.99759
259.318,17.89694,-0.14947,1.81882,0.99564
262.718,17.9996,-0.16488,1.80834,0.99367
266.118,18.10223,-0.18037,1.80747,0.99167
269.518,18.20467,-0.19902,1.81721,0.98966
272.918,18.30734,-0.21828,1.82671,0.98763
276.318,18.41,-0.23654,1.83702,0.98558
279.718,18.5125,-0.25681,1.84556,0.98351
283.118,18.61514,-0.2754,1.8541,0.98142
286.518,18.71803,-0.29516,1.86087,0.97931
289.918,18.82091,-0.31816,1.8701,0.97718
293.318,18.92372,-0.3416,1.88131,0.97504
296.718,19.02661,-0.367,1.89034,0.97288
300.118,19.12939,-0.39273,1.90115,0.9707
303.518,19.23235,-0.4171,1.90965,0.9685
306.918,19.33534,-0.44549,1.91833,0.96629
310.318,19.43855,-0.47481,1.92686,0.96406
313.718,19.5416,-0.50866,1.93857,0.96181
317.118,19.64483,-0.54381,1.95196,0.95955
320.518,19.7481,-0.58112,1.96573,0.95727
323.918,19.85125,-0.61959,1.98594,0.95497
327.318,19.95475,-0.65979,1.9927,0.95266
330.718,20.0582,-0.70576,1.9951,0.95034
334.118,20.1619,-0.75436,1.98226,0.948
337.518,20.26541,-0.80615,1.94951,0.94564
340.918,20.36928,-0.86114,1.89635,0.94328
344.318,20.47304,-0.91748,1.82706,0.94089
347.718,20.57687,-0.97228,1.74302,0.93849
351.118,20.6807,-1.03223,1.65116,0.93608
354.518,20.78462,-1.09273,1.55536,0.93366
357.918,20.88871,-1.15534,1.46332,0.93122
361.318,20.99267,-1.21572,1.37803,0.92877
364.718,21.09691,-1.27646,1.30509,0.9263
368.118,21.20134,-1.33383,1.24543,0.92383
371.518,21.30604,-1.38974,1.19986,0.92134
374.918,21.41064,-1.44059,1.15984,0.91884
378.318,21.51545,-1.4859,1.12847,0.91633
381.718,21.61992,-1.52867,1.10678,0.9138
385.118,21.7257,-1.56982,1.08648,0.91127
388.518,21.83096,-1.60591,1.0663,0.90872
391.918,21.93639,-1.63853,1.05183,0.90616
395.318,22.04178,-1.67048,1.03854,0.90359
398.718,22.14746,-1.69772,1.02505,0.90101
402.118,22.25323,-1.72622,1.00888,0.89842
405.518,22.35926,-1.75436,0.99769,0.89582
408.918,22.46528,-1.78054,0.98545,0.89322
412.318,22.57145,-1.80462,0.97314,0.8906
415.718,22.67769,-1.82694,0.96093,0.88797
419.118,22.78407,-1.84991,0.94914,0.88533
422.518,22.89046,-1.87076,0.93293,0.88269
425.918,22.99673,-1.89175,0.92089,0.88003
429.318,23.10351,-1.91221,0.8988,0.87737
432.718,23.2101,-1.93163,0.87869,0.8747
436.118,23.31695,-1.94802,0.85655,0.87202
439.518,23.4238,-1.96571,0.83975,0.86933
442.918,23.5306,-1.98167,0.82025,0.86664
446.318,23.63775,-1.99683,0.80288,0.86394
449.718,23.74476,-2.0101,0.78397,0.86123
453.118,23.85202,-2.02185,0.77051,0.85851
456.518,23.95932,-2.03593,0.75525,0.85579
459.918,24.06652,-2.04873,0.73727,0.85306
463.318,24.17425,-2.05953,0.727,0.85033
466.718,24.2819,-2.07128,0.7139,0.84758
470.118,24.3897,-2.08337,0.69933,0.84484
473.518,24.49755,-2.0948,0.68374,0.84208
476.918,24.6056,-2.10405,0.67361,0.83933
480.318,24.71371,-2.11443,0.66201,0.83656
483.718,24.82186,-2.12396,0.64914,0.83379
487.118,24.93017,-2.1342,0.63514,0.83102
490.518,25.0385,-2.14011,0.62392,0.82824
493.918,25.1468,-2.14987,0.61539,0.82546
497.318,25.2555,-2.15847,0.6061,0.82267
500.718,25.3642,-2.16586,0.59593,0.81988
504.118,25.4729,-2.17406,0.58567,0.81709
507.518,25.5819,-2.17893,0.57987,0.81429
510.918,25.69096,-2.1849,0.56937,0.81149
514.318,25.7998,-2.19096,0.55875,0.80868
517.718,25.90909,-2.19728,0.54806,0.80587
521.118,26.01843,-2.20273,0.5387,0.80306
524.518,26.1278,-2.2109,0.5294,0.80024
527.918,26.2372,-2.21438,0.52093,0.79743
531.318,26.34664,-2.21995,0.51052,0.79461
534.718,26.45614,-2.22441,0.50746,0.79178
538.118,26.566,-2.22728,0.50014,0.78896
541.518,26.67574,-2.23156,0.49837,0.78613
544.918,26.7856,-2.23281,0.49421,0.7833
548.318,26.8957,-2.24182,0.49183,0.78047
551.718,27.00562,-2.24596,0.48695,0.77764
555.118,27.1159,-2.24966,0.48581,0.77481
558.518,27.22617,-2.25395,0.48926,0.77198
561.918,27.3364,-2.25844,0.48901,0.76914
565.318,27.4467,-2.25976,0.49368,0.7663
568.718,27.55736,-2.26252,0.49637,0.76347
572.118,27.668,-2.26808,0.50245,0.76063
575.518,27.77873,-2.27139,0.50616,0.75779
578.918,27.88938,-2.27559,0.50915,0.75495
582.318,28.00025,-2.2783,0.50895,0.75212
585.718,28.11112,-2.28257,0.50598,0.74928
589.118,28.22205,-2.28609,0.50018,0.74644
592.518,28.33323,-2.28872,0.49147,0.7436
595.918,28.44435,-2.29325,0.48199,0.74076
599.318,28.5555,-2.29765,0.47657,0.73793
602.718,28.6669,-2.2995,0.46575,0.73509
606.118,28.7781,-2.30449,0.45234,0.73225
609.518,28.8895,-2.31031,0.43986,0.72942
612.918,29.0009,-2.31349,0.43069,0.72659
616.318,29.11256,-2.31622,0.42319,0.72375
619.718,29.2238,-2.3192,0.41132,0.72092
623.118,29.33558,-2.32416,0.40773,0.71809
626.518,29.4473,-2.32972,0.40175,0.71527
629.918,29.55917,-2.33362,0.39887,0.71244
633.318,29.6709,-2.33351,0.39815,0.70961
636.718,29.7828,-2.33738,0.39653,0.70679
640.118,29.89463,-2.34003,0.39843,0.70397
643.518,30.00658,-2.343,0.40472,0.70115
646.918,30.11859,-2.3466,0.41093,0.69834
650.318,30.2307,-2.3507,0.42554,0.69552
653.718,30.3429,-2.35338,0.4425,0.69271
657.118,30.45513,-2.35762,0.47109,0.6899
660.518,30.5677,-2.36185,0.502,0.68709
663.918,30.68007,-2.36551,0.54009,0.68429
667.318,30.7924,-2.37012,0.58485,0.68149
670.718,30.90512,-2.3736,0.63525,0.67869
674.118,31.0177,-2.37848,0.69115,0.6759
677.518,31.1304,-2.38578,0.75219,0.6731
680.918,31.2432,-2.39271,0.81704,0.67032
684.318,31.356,-2.40081,0.88843,0.66753
687.718,31.4687,-2.41007,0.96431,0.66475
691.118,31.5815,-2.41876,1.05181,0.66197
694.518,31.69432,-2.4273,1.14013,0.6592
697.918,31.8072,-2.43754,1.23477,0.65642
701.318,31.9201,-2.44809,1.33266,0.65366
704.718,32.0331,-2.46069,1.43579,0.65089
708.118,32.14569,-2.47422,1.53625,0.64813
711.518,32.2594,-2.48699,1.63703,0.64538
714.918,32.37246,-2.50297,1.73972,0.64262
718.318,32.4857,-2.51897,1.83671,0.63988
721.718,32.59892,-2.53398,1.9301,0.63713
725.118,32.71222,-2.55066,2.0178,0.63439
728.518,32.8257,-2.56683,2.08651,0.63166
731.918,32.93927,-2.5849,2.12707,0.62893
735.318,33.0529,-2.60346,2.12762,0.6262
738.718,33.1667,-2.62228,2.0877,0.62348
742.118,33.28037,-2.64025,2.00256,0.62076
745.518,33.3942,-2.65846,1.86389,0.61805
748.918,33.50802,-2.67306,1.67939,0.61534
752.318,33.62187,-2.685,1.49342,0.61264
755.718,33.73553,-2.69735,1.32892,0.60994
759.118,33.8493,-2.7086,1.18437,0.60724
762.518,33.96313,-2.7188,1.0537,0.60456
765.918,34.0768,-2.73056,0.9401,0.60187
769.318,34.19057,-2.73966,0.8322,0.59919
772.718,34.3044,-2.74755,0.72727,0.59652
776.118,34.4182,-2.75394,0.62656,0.59385
779.518,34.53218,-2.76056,0.53112,0.59118
782.918,34.64612,-2.76315,0.44334,0.58853
786.318,34.75991,-2.77265,0.35423,0.58587
789.718,34.87395,-2.77872,0.27706,0.58322
793.118,34.98798,-2.7832,0.21186,0.58058
796.518,35.10207,-2.78611,0.14495,0.57794
799.918,35.21613,-2.79205,0.08789328,0.57531
803.318,35.33013,-2.79509,0.03639787,0.57268
806.718,35.44435,-2.79803,-0.01075434,0.57006
810.118,35.55839,-2.80139,-0.04949455,0.56745
813.518,35.6726,-2.80675,-0.0931307,0.56484
816.918,35.7868,-2.80776,-0.13278,0.56223
820.318,35.90096,-2.80875,-0.1656,0.55963
823.718,36.0154,-2.81126,-0.19673,0.55704
827.118,36.12977,-2.81614,-0.2285,0.55445
830.518,36.24419,-2.81735,-0.25262,0.55187
833.918,36.35815,-2.81998,-0.28266,0.54929
837.318,36.473,-2.82267,-0.31068,0.54672
840.718,36.58781,-2.82399,-0.32687,0.54416
843.018,36.66548,-2.8253,-0.34824,0.54242