Folder: fsri_materials_database/01_Data/Wool_Rug/STA/N2/3K_min

Note: 01_Data/README.md
# Materials and Products Database
## 01_Data

Raw data generated from each apparatus are included here in plain-text format. The data is organized first by material, next by the short name of test apparatus used, and where applicable additional filtering by test settings.

### material.json

Each material directory contains a json file of the same name as the material. This file links the data stored in the repository as well as data and graphs produced by the accompanying scripts (__02_Scripts__) to the respective landing page for the material on the front-end website.

File: Wool_Rug_STA_N2_3KData_220119_R1.csv
##Temp./Â°C,Time/min,Mass loss(subtr.2)/mg,DSC(subtr.2)/(mW/mg),Sensit./(uV/mW)
49.885,10.0158,-0.04333,0.01630743,1.06381
53.185,12.34942,-0.04727422,0.06984988,1.06302
56.485,13.59101,-0.05188707,0.07841869,1.06222
59.785,14.777,-0.05664303,0.08372141,1.06141
63.085,15.9145,-0.05956583,0.09177834,1.0606
66.385,17.0386,-0.0622004,0.09444755,1.05979
69.685,18.1559,-0.06558251,0.09572616,1.05897
72.985,19.26548,-0.06757179,0.09430621,1.05815
76.285,20.37588,-0.07480357,0.09325047,1.05732
79.585,21.4791,-0.07579013,0.09266684,1.05648
82.885,22.58793,-0.07871112,0.0886029,1.05564
86.185,23.69213,-0.07986446,0.08537313,1.05479
89.485,24.79234,-0.08301896,0.08339396,1.05394
92.785,25.89173,-0.08599498,0.07998255,1.05308
96.085,26.98807,-0.08697998,0.07960116,1.05221
99.385,28.0818,-0.08851983,0.0732913,1.05134
102.685,29.17734,-0.08959906,0.0738409,1.05046
105.985,30.26807,-0.08994,0.07155025,1.04957
109.285,31.35828,-0.09064254,0.07339048,1.04868
112.585,32.45205,-0.09159167,0.07409626,1.04778
115.885,33.54048,-0.09279166,0.07302415,1.04687
119.185,34.628,-0.09279399,0.07519851,1.04596
122.485,35.7247,-0.09427076,0.07566012,1.04503
125.785,36.81566,-0.0942357,0.07683741,1.0441
129.085,37.89778,-0.0952058,0.0764247,1.04316
132.385,38.98389,-0.09447013,0.07471662,1.04222
135.685,40.07098,-0.09486277,0.07560469,1.04126
138.985,41.15074,-0.09587024,0.0771226,1.0403
142.285,42.2334,-0.09521017,0.07664352,1.03933
145.585,43.31517,-0.09388776,0.0807685,1.03835
148.885,44.3946,-0.09633136,0.08164045,1.03736
152.185,45.47647,-0.09752129,0.07917159,1.03636
155.485,46.5558,-0.0985,0.08265647,1.03535
158.785,47.6363,-0.1006,0.08362936,1.03433
162.085,48.71372,-0.10372,0.08668863,1.03331
165.385,49.78663,-0.10221,0.0878989,1.03227
168.685,50.86575,-0.10277,0.08611105,1.03122
171.985,51.94672,-0.105,0.08948721,1.03017
175.285,53.0257,-0.10621,0.09231142,1.0291
178.585,54.0971,-0.10771,0.09328141,1.02802
181.885,55.1689,-0.10836,0.09387851,1.02693
185.185,56.24501,-0.11134,0.09500411,1.02583
188.485,57.3266,-0.11397,0.09653902,1.02472
191.785,58.40192,-0.11463,0.10023,1.0236
195.085,59.4713,-0.11863,0.10436,1.02247
198.385,60.54628,-0.12328,0.10948,1.02133
201.685,61.623,-0.12592,0.10918,1.02017
204.985,62.6932,-0.13019,0.11738,1.019
208.285,63.76266,-0.1358,0.12663,1.01783
211.585,64.83887,-0.14453,0.13519,1.01663
214.885,65.91242,-0.15093,0.14506,1.01543
218.185,66.98816,-0.16016,0.15533,1.01422
221.485,68.0612,-0.17252,0.17118,1.01299
224.785,69.13669,-0.18581,0.19061,1.01175
228.085,70.20775,-0.19765,0.20064,1.01049
231.385,71.28526,-0.21418,0.20949,1.00922
234.685,72.35499,-0.23382,0.21597,1.00794
237.985,73.42867,-0.25439,0.21042,1.00665
241.285,74.50157,-0.27716,0.21009,1.00534
244.585,75.56994,-0.29802,0.21024,1.00402
247.885,76.64208,-0.31949,0.21505,1.00269
251.185,77.71199,-0.34391,0.21713,1.00134
254.485,78.78916,-0.36666,0.21772,0.99998
257.785,79.86075,-0.39052,0.21916,0.9986
261.085,80.93101,-0.41553,0.21163,0.99721
264.385,82.00941,-0.44142,0.21065,0.9958
267.685,83.08034,-0.47229,0.21174,0.99438
270.985,84.14973,-0.50062,0.21076,0.99295
274.285,85.223,-0.535,0.206,0.9915
277.585,86.29523,-0.57161,0.20865,0.99003
280.885,87.36097,-0.60851,0.21088,0.98855
284.185,88.4353,-0.65024,0.21282,0.98705
287.485,89.51494,-0.69513,0.21466,0.98554
290.785,90.58715,-0.74296,0.21699,0.98402
294.085,91.66269,-0.79391,0.2173,0.98247
297.385,92.73953,-0.84694,0.21925,0.98091
300.685,93.80955,-0.90507,0.21467,0.97934
303.985,94.8856,-0.96357,0.20873,0.97775
307.285,95.96677,-1.02166,0.20469,0.97614
310.585,97.04263,-1.08491,0.19493,0.97452
313.885,98.11646,-1.14932,0.18643,0.97288
317.185,99.19237,-1.21149,0.17816,0.97122
320.485,100.2748,-1.27743,0.16873,0.96955
323.785,101.3503,-1.34023,0.15939,0.96786
327.085,102.424,-1.40329,0.15361,0.96615
330.385,103.503,-1.45738,0.14493,0.96442
333.685,104.586,-1.51075,0.13578,0.96268
336.985,105.659,-1.55588,0.1309,0.96092
340.285,106.7348,-1.5986,0.12365,0.95915
343.585,107.8177,-1.63571,0.11525,0.95735
346.885,108.899,-1.66943,0.11373,0.95554
350.185,109.98,-1.69861,0.1082,0.95371
353.485,111.061,-1.72809,0.10112,0.95187
356.785,112.1451,-1.75554,0.1007,0.95
360.085,113.228,-1.7809,0.10424,0.94812
363.385,114.312,-1.80754,0.10342,0.94622
366.685,115.391,-1.83248,0.0977923,0.94431
369.985,116.484,-1.8589,0.09678496,0.94237
373.285,117.565,-1.88216,0.10016,0.94042
376.585,118.645,-1.90567,0.10217,0.93844
379.885,119.727,-1.92842,0.10198,0.93645
383.185,120.81,-1.95358,0.09792939,0.93444
386.485,121.899,-1.97742,0.09243127,0.93242
389.785,122.986,-1.99884,0.09387516,0.93037
393.085,124.068,-2.02177,0.09114239,0.92831
396.385,125.162,-2.04391,0.08684533,0.92622
399.685,126.25,-2.06268,0.08654256,0.92412
402.985,127.337,-2.08061,0.084897,0.922
406.285,128.417,-2.09917,0.08088495,0.91987
409.585,129.501,-2.11553,0.08281225,0.91771
412.885,130.5878,-2.13453,0.08067621,0.91553
416.185,131.683,-2.15119,0.07945157,0.91334
419.485,132.767,-2.16704,0.07572505,0.91113
422.785,133.861,-2.18386,0.07418046,0.90889
426.085,134.949,-2.19851,0.07621338,0.90664
429.385,136.035,-2.21301,0.0721043,0.90437
432.685,137.123,-2.22743,0.07195354,0.90208
435.985,138.22,-2.23665,0.06797855,0.89978
439.285,139.312,-2.24991,0.06373258,0.89745
442.585,140.405,-2.2613,0.05953662,0.89511
445.885,141.497,-2.27258,0.05618875,0.89274
449.185,142.594,-2.28312,0.05332114,0.89036
452.485,143.681,-2.29233,0.05221916,0.88796
455.785,144.778,-2.30121,0.04835801,0.88554
459.085,145.876,-2.3103,0.04768588,0.8831
462.385,146.967,-2.31734,0.0479816,0.88064
465.685,148.056,-2.32524,0.05012234,0.87816
468.985,149.152,-2.33412,0.06102468,0.87567
472.285,150.245,-2.3381,0.06650021,0.87315
475.585,151.342,-2.34498,0.06672059,0.87062
478.885,152.443,-2.35075,0.06809844,0.86807
482.185,153.532,-2.35648,0.07646162,0.8655
485.485,154.626,-2.3621,0.07954353,0.86291
488.785,155.7291,-2.37074,0.08285144,0.86031
492.085,156.83,-2.37451,0.06876128,0.85768
495.385,157.931,-2.3781,0.05977505,0.85504
498.685,159.022,-2.38337,0.05496102,0.85237
501.985,160.122,-2.386,0.04945245,0.84969
505.285,161.226,-2.38986,0.05224975,0.84699
508.585,162.323,-2.39392,0.04912438,0.84428
511.885,163.422,-2.4011,0.04347035,0.84154
515.185,164.533,-2.40476,0.0405956,0.83879
518.485,165.6339,-2.40871,0.04689917,0.83602
521.785,166.728,-2.41101,0.04515562,0.83323
525.085,167.831,-2.42023,0.04087335,0.83042
528.385,168.94,-2.42178,0.04393165,0.8276
531.685,170.031,-2.42648,0.04945964,0.82476
534.985,171.1418,-2.43283,0.05064415,0.8219
538.285,172.248,-2.43591,0.05476767,0.81902
541.585,173.354,-2.44154,0.05512376,0.81613
544.885,174.461,-2.44611,0.0473306,0.81322
548.185,175.564,-2.45006,0.04508139,0.81029
551.485,176.669,-2.45401,0.03865746,0.80734
554.785,177.766,-2.4573,0.03849432,0.80438
558.085,178.873,-2.46158,0.02829579,0.8014
561.385,179.9771,-2.46417,0.02558493,0.7984
564.685,181.0842,-2.4675,0.0205653,0.79539
567.985,182.186,-2.47145,0.01534229,0.79236
571.285,183.294,-2.47442,0.01528189,0.78932
574.585,184.396,-2.47665,0.01044882,0.78626
577.885,185.508,-2.47865,0.00981667,0.78318
581.185,186.614,-2.48409,0.0112009,0.78009
584.485,187.724,-2.48901,0.004915063,0.77698
587.785,188.833,-2.4913,0.009295638,0.77385
591.085,189.932,-2.49423,0.01852483,0.77071
594.385,191.0408,-2.49792,0.02072064,0.76756
597.685,192.1602,-2.50698,0.03063305,0.76439
600.985,193.266,-2.51039,0.03798297,0.7612
604.285,194.374,-2.51631,0.04964728,0.758
607.585,195.477,-2.52457,0.06182394,0.75479
610.885,196.584,-2.5321,0.07558143,0.75156
614.185,197.701,-2.54238,0.08795147,0.74831
617.485,198.806,-2.5524,0.10092,0.74505
620.785,199.902,-2.56348,0.11895,0.74178
624.085,201.017,-2.57865,0.1402,0.7385
627.385,202.123,-2.59017,0.16121,0.7352
630.685,203.233,-2.60658,0.17995,0.73188
633.985,204.35,-2.6238,0.20542,0.72856
637.285,205.4645,-2.64445,0.22583,0.72522
640.585,206.566,-2.66438,0.24988,0.72186
643.885,207.67,-2.68941,0.27865,0.7185
647.185,208.784,-2.71569,0.30318,0.71512
650.485,209.903,-2.74028,0.32419,0.71173
653.785,211.016,-2.76913,0.34103,0.70833
657.085,212.126,-2.80023,0.3502,0.70491
660.385,213.236,-2.82785,0.35329,0.70149
663.685,214.345,-2.8561,0.3319,0.69805
666.985,215.4592,-2.88372,0.27152,0.6946
670.285,216.5711,-2.90244,0.1688,0.69114
673.585,217.686,-2.9149,0.07025453,0.68767
676.885,218.794,-2.92083,0.02877602,0.68418
680.185,219.91,-2.92577,0.009220301,0.68069
683.485,221.024,-2.92994,0.0018101,0.67719
686.785,222.135,-2.93106,-0.01447777,0.67367
690.085,223.249,-2.93564,-0.01837057,0.67015
693.385,224.367,-2.93756,-0.02513411,0.66662
696.685,225.477,-2.94127,-0.02485285,0.66307
699.985,226.593,-2.94313,-0.02794282,0.65952
703.285,227.705,-2.94424,-0.02169084,0.65596
706.585,228.823,-2.94718,-0.03113479,0.65239
709.885,229.935,-2.95045,-0.031698,0.64881
713.185,231.044,-2.95177,-0.03341178,0.64523
716.485,232.155,-2.95556,-0.03588684,0.64163
719.785,233.281,-2.9558,-0.03855893,0.63803
723.085,234.398,-2.95905,-0.04190837,0.63442
726.385,235.51,-2.95936,-0.03875199,0.6308
729.685,236.6284,-2.96212,-0.04572632,0.62717
732.985,237.747,-2.96471,-0.04652849,0.62354
736.285,238.867,-2.96702,-0.0535225,0.6199
739.585,239.978,-2.96833,-0.05499344,0.61626
742.885,241.098,-2.97096,-0.05525235,0.61261
746.185,242.213,-2.97327,-0.06102219,0.60895
749.485,243.3275,-2.97601,-0.06015854,0.60528
752.785,244.449,-2.97831,-0.06391047,0.60162
756.085,245.561,-2.97929,-0.0661922,0.59794
759.385,246.68,-2.98258,-0.07022495,0.59426
762.685,247.802,-2.98558,-0.07481883,0.59058
765.985,248.919,-2.98725,-0.07793733,0.58689
769.285,250.043,-2.98852,-0.07948628,0.58319
772.585,251.163,-2.99083,-0.08930992,0.5795
775.885,252.276,-2.99501,-0.09424484,0.5758
779.185,253.399,-2.9964,-0.09627962,0.57209
782.485,254.52,-2.99671,-0.09503293,0.56838
785.785,255.634,-3.0006,-0.09650451,0.56467
789.085,256.751,-3.00299,-0.09564171,0.56096
792.385,257.872,-3.00561,-0.10185,0.55724
795.685,258.997,-3.00793,-0.11147,0.55352
798.585,259.981,-3.01189,-0.11899,0.55025