Folder: fsri_materials_database/01_Data/Polyester_Felt/STA/N2/10K_min

Note: 01_Data/README.md
# Materials and Products Database
## 01_Data

Raw data generated from each apparatus are included here in plain-text format. The data is organized first by material, next by the short name of test apparatus used, and where applicable additional filtering by test settings.

### material.json

Each material directory contains a json file of the same name as the material. This file links the data stored in the repository as well as data and graphs produced by the accompanying scripts (__02_Scripts__) to the respective landing page for the material on the front-end website.

File: Polyester_Felt_STA_N2_10KData_210720_R1.csv
##Temp./Â°C,Time/min,Mass loss(subtr.2)/mg,DSC(subtr.2)/(mW/mg),Sensit./(uV/mW)
49.242,10.01,0.00624,-0.06108182,0.61827
52.242,12.3607,0.004151269,0.00410904,0.61986
55.242,13.04796,-0.0001215773,0.03233774,0.62141
58.242,13.5999,0.001089614,0.04838533,0.62293
61.242,14.08756,0.002622,0.06320996,0.62442
64.242,14.5385,0.000895989,0.07905398,0.62588
67.242,14.95948,-0.0003400842,0.09786282,0.62731
70.242,15.35949,-0.0006514495,0.10986,0.62871
73.242,15.7422,0.000586845,0.11644,0.63007
76.242,16.1103,-0.0009989203,0.11782,0.6314
79.242,16.4653,-0.00235524,0.11889,0.63271
82.242,16.81159,-0.0007791084,0.1221,0.63398
85.242,17.14765,-0.002529743,0.12051,0.63521
88.242,17.47617,-0.003953715,0.12442,0.63642
91.242,17.79714,-0.00400049,0.12746,0.6376
94.242,18.113,-0.0039597,0.12886,0.63874
97.242,18.42315,-0.005279361,0.13175,0.63985
100.242,18.72915,-0.00525933,0.13595,0.64093
103.242,19.03179,-0.00667851,0.14293,0.64198
106.242,19.3319,-0.006697909,0.14693,0.643
109.242,19.62912,-0.006700881,0.15792,0.64398
112.242,19.92462,-0.006693815,0.16457,0.64494
115.242,20.2182,-0.006757799,0.16701,0.64586
118.242,20.5103,-0.007140335,0.17432,0.64675
121.242,20.79935,-0.00740541,0.18347,0.64761
124.242,21.08788,-0.00802706,0.19183,0.64844
127.242,21.3731,-0.008115204,0.19874,0.64923
130.242,21.65793,-0.008050394,0.20929,0.65
133.242,21.93936,-0.01075652,0.21487,0.65073
136.242,22.2204,-0.01098639,0.2222,0.65144
139.242,22.49867,-0.009346003,0.22577,0.65211
142.242,22.77594,-0.009609527,0.23333,0.65275
145.242,23.05094,-0.01227726,0.24079,0.65336
148.242,23.3255,-0.009133532,0.24562,0.65394
151.242,23.59956,-0.01164,0.24897,0.65448
154.242,23.87322,-0.01163329,0.25303,0.655
157.242,24.14595,-0.01261564,0.25639,0.65549
160.242,24.41828,-0.01359971,0.26344,0.65595
163.242,24.68994,-0.01163,0.27664,0.65637
166.242,24.96216,-0.01168918,0.27791,0.65677
169.242,25.2336,-0.01280194,0.28194,0.65713
172.242,25.5049,-0.01317641,0.28619,0.65747
175.242,25.77562,-0.01447249,0.28604,0.65778
178.242,26.04637,-0.01462026,0.28721,0.65805
181.242,26.3158,-0.01316443,0.28928,0.6583
184.242,26.5853,-0.0144915,0.29091,0.65852
187.242,26.85432,-0.01567432,0.29336,0.6587
190.242,27.1221,-0.01591648,0.29183,0.65886
193.242,27.39038,-0.01700992,0.29473,0.65899
196.242,27.6575,-0.01723468,0.30003,0.65909
199.242,27.92458,-0.01866,0.30079,0.65917
202.242,28.1913,-0.01855156,0.30524,0.65921
205.242,28.4582,-0.02130695,0.30843,0.65922
208.242,28.7252,-0.02156806,0.31497,0.65921
211.242,28.992,-0.02128732,0.31961,0.65917
214.242,29.25923,-0.02260799,0.32701,0.6591
217.242,29.5263,-0.02338042,0.33194,0.65901
220.242,29.7935,-0.02307283,0.33884,0.65888
223.242,30.06107,-0.02535257,0.3503,0.65873
226.242,30.3284,-0.02538556,0.35898,0.65855
229.242,30.59628,-0.02557711,0.36843,0.65835
232.242,30.8634,-0.02490118,0.38053,0.65812
235.242,31.1311,-0.02622191,0.39616,0.65786
238.242,31.3989,-0.02854312,0.41572,0.65758
241.242,31.6673,-0.03450844,0.45358,0.65727
244.242,31.93546,-0.02850619,0.50655,0.65693
247.242,32.20406,-0.02879298,0.59149,0.65657
250.242,32.4735,-0.02933354,0.74539,0.65618
253.242,32.74277,-0.03083049,0.92078,0.65577
256.242,33.0139,-0.0301681,0.99817,0.65533
259.242,33.2833,-0.03591115,0.75565,0.65487
262.242,33.55049,-0.03389748,0.49367,0.65439
265.242,33.81756,-0.03225816,0.40676,0.65388
268.242,34.0845,-0.03356895,0.38076,0.65334
271.242,34.35219,-0.03586998,0.375,0.65279
274.242,34.62024,-0.03488,0.37321,0.6522
277.242,34.8886,-0.0368558,0.37108,0.6516
280.242,35.1575,-0.03785624,0.37458,0.65097
283.242,35.42671,-0.0377985,0.37598,0.65032
286.242,35.69685,-0.04022025,0.37418,0.64965
289.242,35.96671,-0.04049026,0.37836,0.64896
292.242,36.2378,-0.04065895,0.37995,0.64824
295.242,36.5087,-0.04049105,0.37906,0.6475
298.242,36.77949,-0.0431188,0.37572,0.64675
301.242,37.05082,-0.04443136,0.3763,0.64597
304.242,37.3221,-0.04443,0.37614,0.64517
307.242,37.5934,-0.04436448,0.37167,0.64434
310.242,37.86459,-0.04804934,0.36999,0.6435
313.242,38.13477,-0.04733594,0.37033,0.64264
316.242,38.40648,-0.04754481,0.3684,0.64176
319.242,38.6787,-0.05001594,0.37165,0.64086
322.242,38.95169,-0.05134,0.37274,0.63994
325.242,39.22529,-0.05233,0.3731,0.639
328.242,39.4992,-0.05232892,0.37528,0.63804
331.242,39.773,-0.05670184,0.37485,0.63707
334.242,40.0471,-0.05681956,0.37308,0.63608
337.242,40.3215,-0.06020724,0.37187,0.63506
340.242,40.5958,-0.06066998,0.37693,0.63404
343.242,40.87075,-0.06329,0.38108,0.63299
346.242,41.14573,-0.06461174,0.38242,0.63193
349.242,41.42119,-0.06429543,0.38439,0.63085
352.242,41.69705,-0.06790997,0.38438,0.62976
355.242,41.97327,-0.07054073,0.38483,0.62864
358.242,42.24925,-0.07249017,0.3875,0.62752
361.242,42.52595,-0.07653772,0.39254,0.62638
364.242,42.80288,-0.07910408,0.39328,0.62522
367.242,43.0805,-0.0821021,0.3979,0.62405
370.242,43.3577,-0.08566998,0.40451,0.62286
373.242,43.63588,-0.09123876,0.40921,0.62166
376.242,43.91442,-0.09971741,0.42296,0.62045
379.242,44.19331,-0.10641,0.43406,0.61922
382.242,44.4727,-0.11832,0.44747,0.61798
385.242,44.7521,-0.12896,0.45901,0.61673
388.242,45.03268,-0.14532,0.47111,0.61546
391.242,45.31292,-0.16388,0.48669,0.61418
394.242,45.5929,-0.18582,0.50255,0.61289
397.242,45.87318,-0.21722,0.52251,0.61159
400.242,46.15481,-0.24823,0.54108,0.61028
403.242,46.43638,-0.28773,0.52779,0.60895
406.242,46.71781,-0.33682,0.53273,0.60762
409.242,46.99969,-0.38831,0.53893,0.60627
412.242,47.28148,-0.45092,0.5668,0.60492
415.242,47.56544,-0.52539,0.61566,0.60355
418.242,47.84913,-0.61804,0.68114,0.60217
421.242,48.13345,-0.73042,0.75012,0.60079
424.242,48.41833,-0.86262,0.82597,0.5994
427.242,48.704,-1.01686,0.925,0.59799
430.242,48.99023,-1.2012,1.02348,0.59658
433.242,49.2761,-1.40247,1.06776,0.59516
436.242,49.56244,-1.61797,1.09406,0.59374
439.242,49.84815,-1.8441,1.09033,0.5923
442.242,50.13387,-2.07126,1.05018,0.59086
445.242,50.42023,-2.27835,0.97041,0.58941
448.242,50.70597,-2.46174,0.8577,0.58796
451.242,50.99183,-2.60003,0.70924,0.58649
454.242,51.27752,-2.70017,0.58259,0.58503
457.242,51.56394,-2.77081,0.50169,0.58355
460.242,51.85085,-2.82571,0.44775,0.58207
463.242,52.13625,-2.86934,0.39761,0.58059
466.242,52.42465,-2.90386,0.34576,0.5791
469.242,52.71252,-2.9322,0.30472,0.5776
472.242,53.0008,-2.95139,0.26735,0.57611
475.242,53.28932,-2.96974,0.24339,0.5746
478.242,53.5786,-2.98646,0.2286,0.5731
481.242,53.86809,-2.99808,0.21658,0.57159
484.242,54.15784,-3.00766,0.20116,0.57007
487.242,54.4482,-3.01638,0.19652,0.56855
490.242,54.73874,-3.02187,0.19604,0.56704
493.242,55.029,-3.02604,0.20606,0.56551
496.242,55.3199,-3.03074,0.21407,0.56399
499.242,55.61096,-3.03864,0.20918,0.56246
502.242,55.90144,-3.05402,0.22304,0.56093
505.242,56.19419,-3.04687,0.2292,0.5594
508.242,56.4866,-3.04634,0.23164,0.55787
511.242,56.77921,-3.04831,0.2415,0.55634
514.242,57.07255,-3.05024,0.24939,0.55481
517.242,57.36619,-3.05411,0.25425,0.55327
520.242,57.66,-3.05839,0.26204,0.55174
523.242,57.954,-3.06502,0.25931,0.55021
526.242,58.24734,-3.06366,0.26372,0.54867
529.242,58.5409,-3.06563,0.26418,0.54714
532.242,58.83503,-3.06655,0.26431,0.54561
535.242,59.1302,-3.06815,0.27099,0.54407
538.242,59.4249,-3.07416,0.27667,0.54254
541.242,59.72068,-3.07538,0.28226,0.54101
544.242,60.01681,-3.07951,0.28029,0.53949
547.242,60.3126,-3.07941,0.28266,0.53796
550.242,60.6082,-3.08306,0.27818,0.53644
553.242,60.90396,-3.08394,0.28667,0.53491
556.242,61.20013,-3.08448,0.28606,0.53339
559.242,61.49771,-3.08778,0.29007,0.53188
562.242,61.79589,-3.08669,0.29337,0.53036
565.242,62.09349,-3.08942,0.29816,0.52885
568.242,62.3908,-3.09182,0.30178,0.52734
571.242,62.6888,-3.0953,0.30167,0.52584
574.242,62.98698,-3.10041,0.30591,0.52434
577.242,63.28499,-3.10215,0.31182,0.52284
580.242,63.58418,-3.10034,0.31688,0.52134
583.242,63.88306,-3.10435,0.32827,0.51985
586.242,64.18251,-3.10566,0.32582,0.51837
589.242,64.4812,-3.10702,0.33136,0.51689
592.242,64.78005,-3.10928,0.34009,0.51541
595.242,65.07973,-3.11225,0.34513,0.51394
598.242,65.37925,-3.11641,0.34946,0.51247
601.242,65.67942,-3.11904,0.35882,0.51101
604.242,65.97888,-3.12168,0.36008,0.50955
607.242,66.28009,-3.12365,0.38102,0.5081
610.242,66.58104,-3.12497,0.40273,0.50665
613.242,66.88298,-3.12628,0.39819,0.50521
616.242,67.18386,-3.12858,0.4066,0.50378
619.242,67.48517,-3.12979,0.402,0.50235
622.242,67.7867,-3.1311,0.41177,0.50093
625.242,68.08836,-3.13431,0.42651,0.49951
628.242,68.39075,-3.13076,0.44553,0.4981
631.242,68.69291,-3.13714,0.45273,0.4967
634.242,68.9958,-3.14033,0.43662,0.4953
637.242,69.2993,-3.14255,0.43878,0.49391
640.242,69.60303,-3.14252,0.45446,0.49252
643.242,69.90685,-3.14382,0.46568,0.49115
646.242,70.20939,-3.15073,0.46068,0.48978
649.242,70.51371,-3.14572,0.46967,0.48841
652.242,70.81787,-3.14832,0.47163,0.48706
655.242,71.12179,-3.15012,0.46509,0.48571
658.242,71.4261,-3.15023,0.44918,0.48437
661.242,71.7294,-3.15118,0.45131,0.48303
664.242,72.03424,-3.15348,0.45495,0.48171
667.242,72.34022,-3.15217,0.45185,0.48039
670.242,72.6441,-3.15272,0.45014,0.47908
673.242,72.94918,-3.15531,0.34851,0.47778
676.242,73.25455,-3.15358,0.35219,0.47648
679.242,73.55917,-3.15756,0.36751,0.47519
682.242,73.86635,-3.15733,0.37611,0.47391
685.242,74.17321,-3.16197,0.37698,0.47264
688.242,74.47941,-3.16122,0.38469,0.47138
691.242,74.7859,-3.16348,0.38834,0.47012
694.242,75.0923,-3.16346,0.39659,0.46888
697.242,75.39855,-3.16478,0.40072,0.46764
700.242,75.7068,-3.1654,0.40354,0.46641
703.242,76.01428,-3.16681,0.40081,0.46518
706.242,76.3215,-3.16742,0.41949,0.46397
709.242,76.6287,-3.16741,0.42522,0.46276
712.242,76.93607,-3.17137,0.41764,0.46157
715.242,77.24332,-3.17268,0.40094,0.46038
718.242,77.55074,-3.16946,0.42121,0.4592
721.242,77.85876,-3.17174,0.44358,0.45802
724.242,78.16735,-3.17302,0.44711,0.45686
727.242,78.4751,-3.17424,0.42315,0.45571
730.242,78.7834,-3.17465,0.43984,0.45456
733.242,79.0919,-3.17729,0.43751,0.45342
736.242,79.4007,-3.18014,0.44275,0.45229
739.242,79.70944,-3.1832,0.44174,0.45117
742.042,79.9978,-3.18288,0.44327,0.45013

File: Polyester_Felt_STA_N2_10KData_210720_R2.csv
##Temp./Â°C,Time/min,Mass loss(subtr.2)/mg,DSC(subtr.2)/(mW/mg),Sensit./(uV/mW)
49.254,10.01,0.034,-0.008114492,0.61828
51.854,12.2463,0.04133333,0.04125953,0.61965
54.454,12.88381,0.04159844,0.06374,0.62101
57.054,13.38976,0.04179767,0.07756867,0.62233
59.654,13.83424,0.04311779,0.08774418,0.62364
62.254,14.2434,0.0435603,0.09771297,0.62492
64.854,14.62829,0.04367512,0.10757,0.62618
67.454,14.9917,0.04496296,0.11605,0.62741
70.054,15.3393,0.0475996,0.12165,0.62862
72.654,15.67265,0.04613912,0.12663,0.62981
75.254,15.9951,0.04624274,0.12685,0.63097
77.854,16.30861,0.04748523,0.12767,0.63211
80.454,16.6117,0.04816751,0.12767,0.63322
83.054,16.9082,0.04648927,0.12729,0.63431
85.654,17.19816,0.04839582,0.12946,0.63538
88.254,17.4825,0.04826181,0.13206,0.63643
90.854,17.76127,0.0495821,0.13399,0.63745
93.454,18.03554,0.04949255,0.13367,0.63844
96.054,18.30529,0.05000988,0.13377,0.63941
98.654,18.57241,0.05067031,0.13662,0.64036
101.254,18.83612,0.05070866,0.13925,0.64129
103.854,19.09804,0.05066961,0.14196,0.64219
106.454,19.35728,0.05067021,0.1468,0.64307
109.054,19.61512,0.04971487,0.15183,0.64392
111.654,19.87088,0.05182961,0.15615,0.64475
114.254,20.12568,0.05154402,0.16255,0.64556
116.854,20.3793,0.05282636,0.16621,0.64634
119.454,20.63136,0.05286003,0.17392,0.6471
122.054,20.88176,0.05265005,0.18071,0.64784
124.654,21.1308,0.05196996,0.18527,0.64855
127.254,21.3784,0.05265137,0.19064,0.64924
129.854,21.62435,0.05412914,0.19467,0.6499
132.454,21.8693,0.05396919,0.19806,0.65054
135.054,22.1125,0.05396093,0.20245,0.65116
137.654,22.3546,0.05427086,0.20475,0.65176
140.254,22.59486,0.05655956,0.20801,0.65233
142.854,22.8344,0.05395908,0.21406,0.65287
145.454,23.0734,0.05527879,0.21636,0.6534
148.054,23.31166,0.05526778,0.21623,0.6539
150.654,23.549,0.05659001,0.22128,0.65438
153.254,23.7851,0.05528002,0.22988,0.65484
155.854,24.02182,0.05723922,0.22692,0.65527
158.454,24.2573,0.05593,0.24025,0.65568
161.054,24.49296,0.0495521,0.24532,0.65606
163.654,24.72825,0.05505759,0.24624,0.65643
166.254,24.96406,0.0550082,0.2493,0.65677
168.854,25.19933,0.05536183,0.25237,0.65709
171.454,25.43402,0.05539007,0.25631,0.65738
174.054,25.66788,0.05538435,0.25926,0.65766
176.654,25.9022,0.05473,0.26217,0.65791
179.254,26.13674,0.0560505,0.26057,0.65814
181.854,26.37033,0.0553527,0.26101,0.65835
184.454,26.60325,0.05472788,0.2624,0.65853
187.054,26.83628,0.05341,0.26418,0.65869
189.654,27.0687,0.05396341,0.2626,0.65883
192.254,27.3005,0.05472778,0.26804,0.65895
194.854,27.5321,0.05472919,0.26748,0.65905
197.454,27.7637,0.05578838,0.26716,0.65913
200.054,27.99383,0.05308,0.2733,0.65918
202.654,28.22515,0.0520926,0.27374,0.65921
205.254,28.45673,0.05344419,0.28129,0.65922
207.854,28.68795,0.05159336,0.28252,0.65921
210.454,28.91964,0.05308002,0.28555,0.65918
213.054,29.15152,0.05205904,0.28476,0.65913
215.654,29.38304,0.0534207,0.28805,0.65906
218.254,29.61497,0.0520959,0.29304,0.65897
220.854,29.84638,0.05276,0.29752,0.65885
223.454,30.07817,0.05276,0.30402,0.65872
226.054,30.3098,0.05177,0.31547,0.65857
228.654,30.5414,0.05176753,0.32327,0.65839
231.254,30.7733,0.04928897,0.33704,0.6582
233.854,31.005,0.05143997,0.35013,0.65798
236.454,31.237,0.05144,0.36472,0.65775
239.054,31.46906,0.05045032,0.3867,0.65749
241.654,31.70145,0.05011969,0.42258,0.65722
244.254,31.9335,0.05012,0.47347,0.65693
246.854,32.16594,0.0514392,0.55523,0.65662
249.454,32.39972,0.05012,0.68753,0.65629
252.054,32.63358,0.05011812,0.84713,0.65594
254.654,32.8685,0.04879981,0.96694,0.65557
257.254,33.10302,0.04880074,0.9081,0.65518
259.854,33.33565,0.0488,0.62662,0.65477
262.454,33.56675,0.04745781,0.44914,0.65435
265.054,33.7976,0.04879999,0.3807,0.65391
267.654,34.02952,0.04687078,0.35594,0.65345
270.254,34.26121,0.04790759,0.34638,0.65297
272.854,34.49366,0.0471598,0.34497,0.65248
275.454,34.72605,0.04846999,0.34427,0.65196
278.054,34.95863,0.04870915,0.34319,0.65143
280.654,35.19234,0.04847,0.3424,0.65089
283.254,35.4257,0.04847049,0.34759,0.65032
285.854,35.6599,0.04715386,0.34641,0.64974
288.454,35.8934,0.04847355,0.34849,0.64914
291.054,36.12782,0.04618029,0.35098,0.64853
293.654,36.36206,0.04617997,0.35733,0.6479
296.254,36.5968,0.04551999,0.35501,0.64725
298.854,36.8316,0.04487306,0.35646,0.64659
301.454,37.0653,0.04483448,0.35671,0.64591
304.054,37.30138,0.04254997,0.35786,0.64522
306.654,37.536,0.04253661,0.35824,0.64451
309.254,37.77084,0.04025005,0.36146,0.64378
311.854,38.00645,0.04244547,0.36351,0.64304
314.454,38.24317,0.03992,0.36517,0.64229
317.054,38.48016,0.0412401,0.36595,0.64152
319.654,38.7164,0.03993,0.36878,0.64073
322.254,38.9527,0.03851934,0.37187,0.63994
324.854,39.1894,0.03864072,0.37032,0.63912
327.454,39.427,0.03467497,0.36947,0.6383
330.054,39.66407,0.03531965,0.37126,0.63746
332.654,39.9016,0.03563885,0.37579,0.6366
335.254,40.13893,0.03227151,0.37723,0.63574
337.854,40.3761,0.03169006,0.37625,0.63486
340.454,40.6154,0.03037885,0.37876,0.63396
343.054,40.85331,0.02938969,0.38008,0.63306
345.654,41.0918,0.02708585,0.38161,0.63214
348.254,41.33088,0.02567,0.38539,0.63121
350.854,41.56966,0.02565999,0.38974,0.63026
353.454,41.8088,0.02160997,0.39169,0.62931
356.054,42.0481,0.02126728,0.39182,0.62834
358.654,42.28781,0.01894865,0.39663,0.62736
361.254,42.52839,0.01766739,0.39451,0.62637
363.854,42.76874,0.01428709,0.4019,0.62537
366.454,43.00939,0.009862756,0.40262,0.62436
369.054,43.24981,0.007119778,0.40743,0.62333
371.654,43.49108,0.004509165,0.41243,0.6223
374.254,43.7325,-0.002526276,0.42317,0.62125
376.854,43.97417,-0.006305775,0.43665,0.6202
379.454,44.2162,-0.01546381,0.44831,0.61913
382.054,44.45708,-0.01831548,0.46045,0.61806
384.654,44.6993,-0.03694525,0.47607,0.61697
387.254,44.94317,-0.05181552,0.48785,0.61588
389.854,45.18585,-0.06906236,0.50366,0.61478
392.454,45.42899,-0.08907798,0.51709,0.61366
395.054,45.6721,-0.11532,0.53189,0.61254
397.654,45.91531,-0.14488,0.55284,0.61141
400.254,46.15955,-0.18051,0.56635,0.61027
402.854,46.40354,-0.2202,0.57926,0.60913
405.454,46.64845,-0.2667,0.61942,0.60797
408.054,46.8929,-0.3193,0.61816,0.60681
410.654,47.1382,-0.38172,0.64672,0.60564
413.254,47.38317,-0.4512,0.68965,0.60446
415.854,47.6293,-0.53545,0.75685,0.60327
418.454,47.87511,-0.63839,0.82142,0.60208
421.054,48.1218,-0.75743,0.87371,0.60088
423.654,48.36872,-0.89472,0.93405,0.59967
426.254,48.61588,-1.05349,1.0084,0.59846
428.854,48.86295,-1.22749,1.06294,0.59724
431.454,49.1109,-1.4186,1.10205,0.59601
434.054,49.35861,-1.62301,1.12902,0.59478
436.654,49.60662,-1.83411,1.13323,0.59354
439.254,49.85268,-2.05034,1.11943,0.5923
441.854,50.10236,-2.26984,1.07091,0.59105
444.454,50.34997,-2.4563,1.00171,0.58979
447.054,50.5979,-2.62665,0.90801,0.58853
449.654,50.8457,-2.76207,0.79805,0.58727
452.254,51.09299,-2.87157,0.69534,0.586
454.854,51.34094,-2.95464,0.62289,0.58473
457.454,51.5894,-3.01545,0.56827,0.58345
460.054,51.8373,-3.06352,0.52319,0.58217
462.654,52.0861,-3.10413,0.49245,0.58088
465.254,52.33486,-3.13552,0.44896,0.57959
467.854,52.5839,-3.16312,0.41776,0.5783
470.454,52.8338,-3.18599,0.38646,0.577
473.054,53.08356,-3.20486,0.35914,0.5757
475.654,53.3341,-3.22128,0.34116,0.5744
478.254,53.58589,-3.23419,0.33093,0.57309
480.854,53.837,-3.24213,0.32079,0.57178
483.454,54.08825,-3.25167,0.29661,0.57047
486.054,54.3405,-3.26123,0.29788,0.56916
488.654,54.59151,-3.26799,0.29484,0.56784
491.254,54.8435,-3.27272,0.30565,0.56652
493.854,55.09568,-3.27845,0.3034,0.5652
496.454,55.34834,-3.28233,0.3023,0.56388
499.054,55.60079,-3.28777,0.28406,0.56256
501.654,55.8542,-3.29325,0.29062,0.56123
504.254,56.1084,-3.29783,0.28557,0.55991
506.854,56.3605,-3.30113,0.28462,0.55858
509.454,56.6142,-3.30377,0.28839,0.55725
512.054,56.86773,-3.30768,0.29758,0.55593
514.654,57.1218,-3.30901,0.29966,0.5546
517.254,57.3763,-3.31147,0.30727,0.55327
519.854,57.63072,-3.31439,0.31407,0.55194
522.454,57.88593,-3.3157,0.32043,0.55061
525.054,58.14025,-3.31966,0.32345,0.54928
527.654,58.39611,-3.32097,0.32633,0.54795
530.254,58.65164,-3.32492,0.33154,0.54662
532.854,58.9075,-3.32728,0.33742,0.54529
535.454,59.16271,-3.32596,0.3488,0.54397
538.054,59.4193,-3.33057,0.35936,0.54264
540.654,59.6759,-3.32986,0.36021,0.54131
543.254,59.93226,-3.33383,0.36775,0.53999
545.854,60.1884,-3.3348,0.36741,0.53867
548.454,60.4449,-3.33479,0.3714,0.53734
551.054,60.70176,-3.33742,0.37263,0.53602
553.654,60.95856,-3.33978,0.37197,0.5347
556.254,61.2146,-3.34043,0.37707,0.53339
558.854,61.47172,-3.34177,0.38182,0.53207
561.454,61.7293,-3.34401,0.38529,0.53076
564.054,61.98715,-3.34762,0.38502,0.52945
566.654,62.245,-3.34762,0.38894,0.52814
569.254,62.5034,-3.35025,0.39198,0.52683
571.854,62.7622,-3.35289,0.39375,0.52553
574.454,63.02061,-3.3542,0.40496,0.52423
577.054,63.2783,-3.35635,0.41121,0.52293
579.654,63.5372,-3.35945,0.41792,0.52164
582.254,63.79654,-3.36093,0.41871,0.52034
584.854,64.0545,-3.36409,0.42044,0.51905
587.454,64.31403,-3.36614,0.4303,0.51777
590.054,64.57364,-3.36908,0.43412,0.51649
592.654,64.83305,-3.37129,0.44069,0.51521
595.254,65.0929,-3.37382,0.44071,0.51393
597.854,65.35243,-3.3706,0.44553,0.51266
600.454,65.61184,-3.37878,0.45368,0.51139
603.054,65.87146,-3.3801,0.44825,0.51013
605.654,66.13202,-3.38306,0.46669,0.50887
608.254,66.3927,-3.37804,0.47037,0.50761
610.854,66.65398,-3.38604,0.4861,0.50636
613.454,66.9151,-3.38864,0.49324,0.50511
616.054,67.17615,-3.39132,0.49887,0.50387
618.654,67.43779,-3.39083,0.51363,0.50263
621.254,67.6994,-3.39207,0.52685,0.50139
623.854,67.9619,-3.39356,0.52803,0.50016
626.454,68.22369,-3.39589,0.25344,0.49894
629.054,68.48571,-3.39887,0.24661,0.49772
631.654,68.74812,-3.39881,0.25244,0.4965
634.254,69.00933,-3.40017,0.25784,0.49529
636.854,69.2715,-3.40016,0.25591,0.49409
639.454,69.5342,-3.40675,0.26504,0.49289
642.054,69.79696,-3.40642,0.27336,0.49169
644.054,69.9993,-3.40674,0.27458,0.49077