Folder: fsri_materials_database/01_Data/Polyester_Felt/STA/N2/10K_min (part 2)

File: Polyester_Felt_STA_N2_10KData_210721_R3.csv
##Temp./Â°C,Time/min,Mass loss(subtr.2)/mg,DSC(subtr.2)/(mW/mg),Sensit./(uV/mW)
49.213,10.01,-0.00614,-0.05171091,0.61826
51.913,12.2772,-0.01005231,-0.01416845,0.61968
54.613,12.9284,-0.01064236,0.0005891867,0.62109
57.313,13.44525,-0.01254692,0.01501742,0.62246
60.013,13.90272,-0.01320958,0.02005306,0.62382
62.713,14.32415,-0.01403321,0.03190217,0.62514
65.413,14.71814,-0.01293517,0.03906409,0.62644
68.113,15.0921,-0.01354263,0.04558558,0.62772
70.813,15.4483,-0.0170027,0.05291308,0.62897
73.513,15.79106,-0.01592138,0.05164748,0.63019
76.213,16.1221,-0.01689066,0.04683933,0.63139
78.913,16.44229,-0.01819771,0.04765284,0.63256
81.613,16.75527,-0.01699187,0.04450468,0.63371
84.313,17.0606,-0.01700785,0.03921566,0.63483
87.013,17.3592,-0.0169967,0.03775711,0.63593
89.713,17.65176,-0.01720199,0.0390415,0.637
92.413,17.93952,-0.01843184,0.03552289,0.63805
95.113,18.22247,-0.01975584,0.03779446,0.63907
97.813,18.50094,-0.01843215,0.03544292,0.64006
100.513,18.7766,-0.02072987,0.03773476,0.64103
103.213,19.0494,-0.02069105,0.03950582,0.64197
105.913,19.32003,-0.02105997,0.04181909,0.64289
108.613,19.58811,-0.02259496,0.04539707,0.64378
111.313,19.85535,-0.02118239,0.04941636,0.64464
114.013,20.12,-0.02258999,0.05290693,0.64548
116.713,20.383,-0.02258584,0.05420391,0.6463
119.413,20.6448,-0.0225326,0.06162673,0.64709
122.113,20.90492,-0.02391678,0.06417627,0.64785
124.813,21.1634,-0.02323163,0.06822024,0.64859
127.513,21.42022,-0.02391,0.07130151,0.6493
130.213,21.67587,-0.02410688,0.07500083,0.64999
132.913,21.9297,-0.0239104,0.07786375,0.65065
135.613,22.18198,-0.02358039,0.08063592,0.65129
138.313,22.43354,-0.02391484,0.08239938,0.6519
141.013,22.6835,-0.02457007,0.08611266,0.65249
143.713,22.93177,-0.02588506,0.08922495,0.65305
146.413,23.17919,-0.02657803,0.08909228,0.65359
149.113,23.42598,-0.02654,0.09043034,0.6541
151.813,23.672,-0.02588959,0.09437446,0.65459
154.513,23.9165,-0.02655878,0.09520535,0.65505
157.213,24.16226,-0.0278661,0.0952783,0.65548
159.913,24.40682,-0.02786205,0.09585086,0.6559
162.613,24.65126,-0.02852206,0.09797699,0.65629
165.313,24.89546,-0.02980023,0.09878721,0.65665
168.013,25.14002,-0.02786,0.10147,0.65699
170.713,25.38309,-0.03023803,0.10136,0.6573
173.413,25.62715,-0.02917958,0.10256,0.65759
176.113,25.87055,-0.03015935,0.1035,0.65786
178.813,26.11339,-0.03146717,0.11128,0.6581
181.513,26.35587,-0.03072395,0.11214,0.65832
184.213,26.5973,-0.03360415,0.1087,0.65851
186.913,26.8391,-0.03220369,0.10844,0.65868
189.613,27.0805,-0.03345,0.11252,0.65883
192.313,27.3215,-0.03410877,0.1131,0.65896
195.013,27.56158,-0.03510031,0.11478,0.65906
197.713,27.80208,-0.03563996,0.11429,0.65913
200.413,28.0421,-0.03691789,0.11714,0.65919
203.113,28.2827,-0.03706011,0.11406,0.65922
205.813,28.52325,-0.03828009,0.11416,0.65922
208.513,28.76357,-0.03861031,0.11479,0.65921
211.213,29.00402,-0.03991997,0.1158,0.65917
213.913,29.2439,-0.04121827,0.11962,0.65911
216.613,29.48408,-0.04288728,0.12172,0.65903
219.313,29.7244,-0.04152557,0.11676,0.65892
222.013,29.96485,-0.04420656,0.1206,0.6588
224.713,30.2062,-0.04268024,0.12392,0.65865
227.413,30.44595,-0.04419998,0.12435,0.65848
230.113,30.6866,-0.04524225,0.13371,0.65828
232.813,30.92772,-0.0453,0.14306,0.65807
235.513,31.16805,-0.0453,0.15449,0.65784
238.213,31.4089,-0.04661367,0.17829,0.65758
240.913,31.65,-0.04661,0.2092,0.6573
243.613,31.89123,-0.04768433,0.25149,0.657
246.313,32.1327,-0.0476,0.32451,0.65668
249.013,32.37425,-0.0486253,0.45133,0.65634
251.713,32.61732,-0.05023971,0.62319,0.65598
254.413,32.86079,-0.04992368,0.74138,0.6556
257.113,33.10307,-0.05779157,0.66647,0.6552
259.813,33.344,-0.05254001,0.38963,0.65478
262.513,33.5841,-0.05025864,0.21632,0.65434
265.213,33.82374,-0.05286942,0.15055,0.65388
267.913,34.06423,-0.0528234,0.12957,0.6534
270.613,34.30532,-0.05338464,0.11857,0.6529
273.313,34.546,-0.05462365,0.11686,0.65239
276.013,34.78787,-0.05594012,0.11565,0.65185
278.713,35.02966,-0.05594,0.11825,0.6513
281.413,35.27218,-0.05742535,0.1149,0.65072
284.113,35.5149,-0.05791,0.11382,0.65013
286.813,35.7569,-0.05790997,0.1133,0.64952
289.513,36.00032,-0.05826612,0.114,0.64889
292.213,36.24269,-0.06131642,0.11586,0.64825
294.913,36.48603,-0.06130615,0.11272,0.64759
297.613,36.72954,-0.06218953,0.11093,0.64691
300.313,36.97355,-0.06350986,0.10956,0.64621
303.013,37.21763,-0.06252387,0.10889,0.6455
305.713,37.46237,-0.06513604,0.10627,0.64477
308.413,37.707,-0.06525262,0.10458,0.64402
311.113,37.95203,-0.06525997,0.10813,0.64325
313.813,38.1967,-0.06683873,0.10797,0.64247
316.513,38.44178,-0.06931991,0.10464,0.64168
319.213,38.68656,-0.0693195,0.10746,0.64087
321.913,38.93184,-0.07062988,0.10724,0.64004
324.613,39.17726,-0.07123556,0.10667,0.6392
327.313,39.42302,-0.07326025,0.10991,0.63834
330.013,39.66847,-0.07458014,0.11158,0.63747
332.713,39.91507,-0.07459871,0.11004,0.63658
335.413,40.16113,-0.07691635,0.1098,0.63568
338.113,40.40803,-0.07853,0.11065,0.63477
340.813,40.65515,-0.08114559,0.11031,0.63384
343.513,40.90225,-0.08115999,0.10972,0.6329
346.213,41.14991,-0.08380005,0.1101,0.63194
348.913,41.397,-0.08511897,0.11201,0.63097
351.613,41.6442,-0.08642993,0.11314,0.62999
354.313,41.8922,-0.08906082,0.11725,0.62899
357.013,42.13994,-0.09170004,0.11455,0.62798
359.713,42.38861,-0.09429631,0.11787,0.62696
362.413,42.63748,-0.09695858,0.11989,0.62593
365.113,42.88664,-0.10103,0.12117,0.62488
367.813,43.13588,-0.10225,0.12369,0.62382
370.513,43.3859,-0.10769,0.12687,0.62275
373.213,43.6363,-0.11308,0.13593,0.62167
375.913,43.88681,-0.11946,0.14525,0.62058
378.613,44.13769,-0.1275,0.15344,0.61948
381.313,44.38881,-0.13906,0.16625,0.61837
384.013,44.64045,-0.1481,0.17836,0.61724
386.713,44.89195,-0.16151,0.18699,0.61611
389.413,45.14376,-0.17812,0.19817,0.61496
392.113,45.39569,-0.19698,0.20831,0.61381
394.813,45.6482,-0.22371,0.22598,0.61265
397.513,45.90013,-0.25065,0.2436,0.61147
400.213,46.15309,-0.28392,0.27055,0.61029
402.913,46.4058,-0.32231,0.2633,0.6091
405.613,46.65896,-0.36493,0.2784,0.6079
408.313,46.91205,-0.41547,0.29997,0.60669
411.013,47.16603,-0.47508,0.30575,0.60547
413.713,47.42022,-0.5407,0.3385,0.60425
416.413,47.67542,-0.62173,0.3901,0.60301
419.113,47.93057,-0.71644,0.45329,0.60177
421.813,48.1864,-0.82736,0.52933,0.60052
424.513,48.44263,-0.9571,0.60117,0.59927
427.213,48.69937,-1.10919,0.70988,0.59801
429.913,48.95682,-1.28551,0.78283,0.59674
432.613,49.21434,-1.47027,0.82984,0.59546
435.313,49.4713,-1.67365,0.85851,0.59418
438.013,49.72788,-1.88563,0.86214,0.59289
440.713,49.98446,-2.09467,0.84268,0.5916
443.413,50.24147,-2.30464,0.7827,0.59029
446.113,50.4976,-2.48804,0.69492,0.58899
448.813,50.75371,-2.65067,0.57553,0.58768
451.513,51.01001,-2.77472,0.44021,0.58636
454.213,51.2665,-2.86714,0.32279,0.58504
456.913,51.5233,-2.93954,0.25089,0.58371
459.613,51.78028,-2.99513,0.19924,0.58238
462.313,52.03794,-3.03906,0.15726,0.58105
465.013,52.2961,-3.07344,0.11749,0.57971
467.713,52.5542,-3.10121,0.07251991,0.57837
470.413,52.81292,-3.12507,0.03940959,0.57702
473.113,53.07155,-3.1453,0.008424105,0.57567
475.813,53.3305,-3.15857,-0.01367676,0.57432
478.513,53.5908,-3.17269,-0.02909399,0.57296
481.213,53.8506,-3.18281,-0.03267453,0.5716
483.913,54.11059,-3.19186,-0.03743722,0.57024
486.613,54.37121,-3.20031,-0.03871049,0.56887
489.313,54.6324,-3.20717,-0.04070663,0.56751
492.013,54.8941,-3.21453,-0.04839195,0.56614
494.713,55.15571,-3.21814,-0.0736138,0.56477
497.413,55.41726,-3.22406,-0.07188556,0.56339
500.113,55.6795,-3.22878,-0.07756567,0.56202
502.813,55.94172,-3.23202,-0.0737826,0.56064
505.513,56.20475,-3.23585,-0.07159518,0.55927
508.213,56.4673,-3.24063,-0.06873564,0.55789
510.913,56.73015,-3.24408,-0.06952851,0.55651
513.613,56.9935,-3.24539,-0.06677158,0.55513
516.313,57.2567,-3.25033,-0.06310263,0.55375
519.013,57.52019,-3.25163,-0.05947705,0.55237
521.713,57.78376,-3.25358,-0.05590491,0.55099
524.413,58.04792,-3.25603,-0.05715991,0.54961
527.113,58.31175,-3.25603,-0.05212063,0.54823
529.813,58.5766,-3.25866,-0.04673909,0.54685
532.513,58.84125,-3.26234,-0.04745122,0.54547
535.213,59.1061,-3.26397,-0.04029496,0.54409
537.913,59.371,-3.26547,-0.03834085,0.54271
540.613,59.63671,-3.26668,-0.03449127,0.54134
543.313,59.90224,-3.26942,-0.02874387,0.53996
546.013,60.16822,-3.26941,-0.02480191,0.53859
548.713,60.43487,-3.27231,-0.02035003,0.53721
551.413,60.7017,-3.27015,-0.01764809,0.53584
554.113,60.96892,-3.27797,-0.01715621,0.53447
556.813,61.2357,-3.27719,-0.01263167,0.5331
559.513,61.50266,-3.27826,-0.01055871,0.53174
562.213,61.769,-3.28224,-0.004159112,0.53038
564.913,62.0358,-3.28482,-0.004176965,0.52902
567.613,62.3032,-3.285,0.00303335,0.52766
570.313,62.57099,-3.28894,0.004221235,0.5263
573.013,62.83961,-3.29685,0.00615104,0.52495
575.713,63.10825,-3.29333,0.01128994,0.5236
578.413,63.37634,-3.29403,0.01638631,0.52225
581.113,63.64539,-3.29859,0.02447071,0.52091
583.813,63.9129,-3.2999,0.02068183,0.51957
586.513,64.1815,-3.30123,0.02236882,0.51823
589.213,64.4507,-3.30385,0.03270736,0.5169
591.913,64.7197,-3.30613,0.03733549,0.51557
594.613,64.9887,-3.30781,0.04030344,0.51425
597.313,65.2587,-3.30912,0.0426281,0.51292
600.013,65.52852,-3.31045,0.03833104,0.51161
602.713,65.7995,-3.31173,0.03770812,0.51029
605.413,66.07038,-3.31504,0.03854127,0.50898
608.113,66.34183,-3.31767,0.03073551,0.50768
610.813,66.61296,-3.31763,0.0311278,0.50638
613.513,66.88435,-3.32234,0.04071554,0.50508
616.213,67.1554,-3.3219,0.05348237,0.50379
618.913,67.42619,-3.32493,0.06615074,0.50251
621.613,67.6978,-3.32857,0.07190735,0.50122
624.313,67.9692,-3.31949,0.07686087,0.49995
627.013,68.23988,-3.33029,0.08740621,0.49868
629.713,68.51186,-3.33094,0.09602341,0.49741
632.413,68.78442,-3.33358,0.09907158,0.49615
635.113,69.0565,-3.3338,0.10901,0.49489
637.813,69.3281,-3.33665,0.1121,0.49364
640.513,69.60007,-3.33797,0.11659,0.4924
643.213,69.87232,-3.33798,0.12216,0.49116
644.413,69.99285,-3.3406,0.1307,0.49061