Folder: fsri_materials_database/01_Data/Polyester_Felt/STA/N2/30K_min

Note: 01_Data/README.md
# Materials and Products Database
## 01_Data

Raw data generated from each apparatus are included here in plain-text format. The data is organized first by material, next by the short name of test apparatus used, and where applicable additional filtering by test settings.

### material.json

Each material directory contains a json file of the same name as the material. This file links the data stored in the repository as well as data and graphs produced by the accompanying scripts (__02_Scripts__) to the respective landing page for the material on the front-end website.

File: Polyester_Felt_STA_N2_30KData_210722_R1.csv
##Temp./Â°C,Time/min,Mass loss(subtr.2)/mg,DSC(subtr.2)/(mW/mg),Sensit./(uV/mW)
50.598,10.00917,0.00186,-0.06465187,0.6235
53.598,11.57117,-7.84699e-05,-0.009314708,0.62346
56.598,11.92185,-0.001392255,0.03603308,0.62341
59.598,12.17802,-2.02779e-05,0.07237507,0.62335
62.598,12.39175,-0.0010693,0.09793565,0.62327
65.598,12.58262,-0.000966784,0.12283,0.62318
68.598,12.7585,-0.0008534303,0.14809,0.62308
71.598,12.92401,-0.001639979,0.16747,0.62296
74.598,13.08282,-0.00165399,0.18313,0.62283
77.598,13.23567,-0.00160609,0.18436,0.62269
80.598,13.3834,0.0008180383,0.17706,0.62253
83.598,13.5268,-0.003394775,0.171,0.62236
86.598,13.66649,-0.004696314,0.16654,0.62217
89.598,13.80225,-0.00328164,0.16185,0.62198
92.598,13.934,-0.00285885,0.16301,0.62177
95.598,14.06289,-0.003078004,0.16941,0.62155
98.598,14.18856,-0.002704056,0.17996,0.62131
101.598,14.3114,-0.003530174,0.19465,0.62106
104.598,14.43135,-0.00337183,0.20256,0.6208
107.598,14.5489,-0.00374551,0.21613,0.62053
110.598,14.6647,-0.00488351,0.22374,0.62025
113.598,14.77764,-0.003472925,0.23771,0.61995
116.598,14.88981,-0.00481933,0.24661,0.61964
119.598,14.99957,-0.00636505,0.266,0.61932
122.598,15.10762,-0.003715741,0.2886,0.61898
125.598,15.21411,-0.00516372,0.30456,0.61864
128.598,15.3186,-0.00657473,0.3244,0.61828
131.598,15.4218,-0.0039494,0.33399,0.61791
134.598,15.52355,-0.004151106,0.35171,0.61753
137.598,15.6237,-0.005486024,0.37354,0.61714
140.598,15.7228,-0.00557841,0.39058,0.61673
143.598,15.821,-0.005680876,0.40942,0.61632
146.598,15.9181,-0.00613974,0.41689,0.61589
149.598,16.01417,-0.00614002,0.4332,0.61545
152.598,16.10951,-0.006172667,0.44774,0.615
155.598,16.20411,-0.00570204,0.4603,0.61454
158.598,16.29805,-0.00669879,0.4644,0.61407
161.598,16.39135,-0.005697066,0.47527,0.61359
164.598,16.48413,-0.007009958,0.48172,0.61309
167.598,16.5761,-0.006032722,0.4881,0.61259
170.598,16.6676,-0.007677998,0.49484,0.61207
173.598,16.75872,-0.008653471,0.50708,0.61155
176.598,16.84926,-0.00700999,0.51995,0.61101
179.598,16.93919,-0.00701,0.52863,0.61047
182.598,17.02836,-0.007009785,0.53718,0.60991
185.598,17.11709,-0.00956514,0.56635,0.60934
188.598,17.2053,-0.009649979,0.58557,0.60877
191.598,17.29256,-0.00867656,0.59892,0.60818
194.598,17.37981,-0.00866078,0.60236,0.60758
197.598,17.4666,-0.008989657,0.61358,0.60698
200.598,17.55292,-0.01029898,0.65312,0.60636
203.598,17.6389,-0.0103,0.66388,0.60573
206.598,17.7247,-0.0106609,0.67853,0.6051
209.598,17.81007,-0.01063,0.69859,0.60445
212.598,17.8953,-0.01116021,0.72016,0.6038
215.598,17.98013,-0.01294001,0.75086,0.60314
218.598,18.06475,-0.01426544,0.77418,0.60246
221.598,18.1493,-0.0132572,0.79588,0.60178
224.598,18.2334,-0.01314216,0.81676,0.60109
227.598,18.31737,-0.01300151,0.85639,0.60039
230.598,18.40116,-0.01290973,0.89952,0.59968
233.598,18.48493,-0.01424994,0.96218,0.59897
236.598,18.56847,-0.01425,1.05192,0.59824
239.598,18.65168,-0.01424905,1.18896,0.59751
242.598,18.735,-0.01400066,1.39289,0.59677
245.598,18.81832,-0.01523998,1.71386,0.59602
248.598,18.9015,-0.01523944,2.13377,0.59526
251.598,18.98481,-0.01622899,2.51407,0.59449
254.598,19.06756,-0.01623,2.49465,0.59372
257.598,19.1507,-0.016232,1.9707,0.59294
260.598,19.23317,-0.01787657,1.53138,0.59215
263.598,19.31535,-0.0169879,1.25833,0.59135
266.598,19.39733,-0.01556962,1.10065,0.59055
269.598,19.47925,-0.01688956,1.00863,0.58973
272.598,19.56106,-0.01821094,0.96388,0.58891
275.598,19.64273,-0.01824404,0.9258,0.58809
278.598,19.72468,-0.01952003,0.91674,0.58725
281.598,19.80651,-0.01936385,0.90679,0.58641
284.598,19.88805,-0.01944549,0.8931,0.58557
287.598,19.96985,-0.02023681,0.89385,0.58471
290.598,20.05172,-0.02084,0.90246,0.58385
293.598,20.1337,-0.02110238,0.90283,0.58298
296.598,20.21561,-0.02310017,0.90065,0.58211
299.598,20.29743,-0.02313,0.90268,0.58123
302.598,20.37929,-0.02313,0.90179,0.58034
305.598,20.46143,-0.02313,0.89691,0.57945
308.598,20.54358,-0.02312998,0.90152,0.57855
311.598,20.62554,-0.02427775,0.9024,0.57764
314.598,20.70746,-0.02445,0.90568,0.57673
317.598,20.78908,-0.02445,0.91879,0.57582
320.598,20.87152,-0.02500913,0.91552,0.57489
323.598,20.95363,-0.02616641,0.92428,0.57397
326.598,21.0359,-0.02740668,0.93132,0.57303
329.598,21.1181,-0.02976867,0.935,0.57209
332.598,21.20041,-0.02837554,0.94504,0.57115
335.598,21.28292,-0.02971755,0.94241,0.5702
338.598,21.36506,-0.03137584,0.94946,0.56924
341.598,21.44783,-0.03190926,0.94955,0.56829
344.598,21.53071,-0.03268,0.9558,0.56732
347.598,21.61363,-0.03347739,0.95216,0.56635
350.598,21.69651,-0.03400015,0.94919,0.56538
353.598,21.77955,-0.03465328,0.94581,0.5644
356.598,21.86272,-0.03596992,0.95362,0.56342
359.598,21.9458,-0.03731841,0.95496,0.56243
362.598,22.02916,-0.03992005,0.95813,0.56144
365.598,22.1126,-0.04124049,0.95982,0.56044
368.598,22.19611,-0.04123951,0.96533,0.55944
371.598,22.27996,-0.04256433,0.96867,0.55844
374.598,22.3639,-0.04298157,0.97586,0.55743
377.598,22.4478,-0.0464499,0.98066,0.55642
380.598,22.53195,-0.04781551,0.99014,0.55541
383.598,22.6161,-0.0503735,1.00512,0.55439
386.598,22.70055,-0.05314618,1.02426,0.55337
389.598,22.7848,-0.0570629,1.04544,0.55234
392.598,22.86971,-0.060329,1.07054,0.55131
395.598,22.9544,-0.06655681,1.1068,0.55028
398.598,23.03935,-0.07196534,1.14368,0.54924
401.598,23.1246,-0.07897346,1.18874,0.54821
404.598,23.20972,-0.08899846,1.23277,0.54716
407.598,23.29526,-0.10086,1.28305,0.54612
410.598,23.38084,-0.11448,1.34341,0.54507
413.598,23.46646,-0.13471,1.40274,0.54402
416.598,23.5522,-0.15737,1.4721,0.54297
419.598,23.63801,-0.18498,1.53165,0.54192
422.598,23.72405,-0.21721,1.61591,0.54086
425.598,23.81024,-0.25988,1.67288,0.5398
428.598,23.89646,-0.30728,1.76682,0.53874
431.598,23.98292,-0.3659,1.90098,0.53768
434.598,24.0694,-0.43287,2.08785,0.53661
437.598,24.15616,-0.51499,2.30865,0.53554
440.598,24.2434,-0.61194,2.54504,0.53447
443.598,24.33054,-0.74523,2.78837,0.5334
446.598,24.41815,-0.87155,3.00727,0.53233
449.598,24.50617,-1.02229,3.19593,0.53126
452.598,24.59442,-1.18521,3.32755,0.53018
455.598,24.683,-1.36116,3.37672,0.5291
458.598,24.77166,-1.54799,3.32447,0.52802
461.598,24.86051,-1.73263,3.20267,0.52694
464.598,24.9494,-1.90083,2.97469,0.52586
467.598,25.038,-2.05388,2.65474,0.52478
470.598,25.1268,-2.18337,2.24159,0.5237
473.598,25.21546,-2.28447,1.79617,0.52261
476.598,25.30435,-2.35812,1.37193,0.52153
479.598,25.3936,-2.41277,1.0291,0.52044
482.598,25.48262,-2.45414,0.75024,0.51936
485.598,25.5717,-2.48682,0.53389,0.51827
488.598,25.66111,-2.51503,0.35939,0.51718
491.598,25.7503,-2.53286,0.21723,0.51609
494.598,25.8404,-2.55116,0.09023069,0.51501
497.598,25.9302,-2.56446,-0.004946287,0.51392
500.598,26.02042,-2.57414,-0.08778944,0.51283
503.598,26.11044,-2.58356,-0.15249,0.51174
506.598,26.2013,-2.59152,-0.19689,0.51065
509.598,26.2919,-2.59685,-0.23105,0.50956
512.598,26.3828,-2.60373,-0.25781,0.50847
515.598,26.4738,-2.60554,-0.28507,0.50738
518.598,26.56509,-2.60966,-0.30093,0.50629
521.598,26.6564,-2.61402,-0.31605,0.50521
524.598,26.74816,-2.61801,-0.32149,0.50412
527.598,26.8398,-2.61987,-0.32819,0.50303
530.598,26.9316,-2.6226,-0.47369,0.50194
533.598,27.0236,-2.62673,-0.60351,0.50086
536.598,27.11559,-2.62819,-0.64729,0.49977
539.598,27.2079,-2.63218,-0.66812,0.49869
542.598,27.30022,-2.63356,-0.68348,0.4976
545.598,27.39266,-2.63372,-0.69171,0.49652
548.598,27.4855,-2.63618,-0.71667,0.49543
551.598,27.5784,-2.63861,-0.7094,0.49435
554.598,27.6714,-2.63992,-0.71127,0.49327
557.598,27.7646,-2.63991,-0.72911,0.49219
560.598,27.85775,-2.64254,-0.7291,0.49111
563.598,27.95117,-2.64439,-0.73547,0.49003
566.598,28.0446,-2.64519,-0.74237,0.48896
569.598,28.1384,-2.64649,-0.76051,0.48788
572.598,28.2322,-2.65188,-0.76407,0.48681
575.598,28.32597,-2.65165,-0.77038,0.48574
578.598,28.41982,-2.65297,-0.7839,0.48467
581.598,28.514,-2.65303,-0.7943,0.4836
584.598,28.60828,-2.65605,-0.80243,0.48253
587.598,28.70283,-2.65523,-0.80922,0.48146
590.598,28.79715,-2.66714,-0.82149,0.4804
593.598,28.89175,-2.66378,-0.83576,0.47934
596.598,28.9866,-2.66361,-0.85029,0.47828
599.598,29.0814,-2.66494,-0.86713,0.47722
602.598,29.1763,-2.66637,-0.87384,0.47616
605.598,29.27135,-2.66849,-0.88984,0.47511
608.598,29.3666,-2.67154,-0.89784,0.47405
611.598,29.4619,-2.6729,-0.91473,0.473
614.598,29.55722,-2.67306,-0.92575,0.47195
617.598,29.6526,-2.67436,-0.93848,0.47091
620.598,29.74827,-2.67783,-0.95913,0.46986
623.598,29.84393,-2.68106,-0.96257,0.46882
626.598,29.9395,-2.68249,-0.9782,0.46778
629.598,30.0355,-2.68381,-0.98819,0.46674
632.598,30.1315,-2.68658,-0.99092,0.4657
635.598,30.22764,-2.68788,-0.99784,0.46467
638.598,30.3239,-2.6906,-1.00317,0.46364
641.598,30.42025,-2.69192,-1.00469,0.46261
644.598,30.5167,-2.69409,-1.00495,0.46159
647.598,30.61327,-2.69466,-1.01365,0.46056
650.598,30.70995,-2.69637,-1.01506,0.45954
653.598,30.80685,-2.69729,-1.02473,0.45852
656.598,30.90376,-2.69817,-1.02501,0.45751
659.598,31.0007,-2.69993,-1.02513,0.4565
662.598,31.09791,-2.70124,-1.02871,0.45549
665.598,31.1952,-2.70114,-1.02225,0.45448
668.598,31.29252,-2.70529,-1.02676,0.45348
671.598,31.39,-2.70519,-1.02874,0.45247
674.598,31.4874,-2.7065,-1.02355,0.45147
677.598,31.5849,-2.70782,-1.02872,0.45048
680.598,31.68272,-2.70907,-1.03237,0.44949
683.598,31.78027,-2.71052,-1.02909,0.4485
686.598,31.878,-2.71173,-1.02953,0.44751
689.598,31.9757,-2.71241,-1.02977,0.44652
692.598,32.07358,-2.71409,-1.04355,0.44554
695.598,32.1712,-2.7144,-1.04442,0.44457
698.598,32.26937,-2.71571,-1.04476,0.44359
701.598,32.3675,-2.71572,-1.05575,0.44262
704.598,32.46555,-2.71572,-1.05585,0.44165
707.598,32.56377,-2.71614,-1.04477,0.44068
710.598,32.66232,-2.71703,-1.04675,0.43972
713.598,32.7607,-2.71835,-1.0287,0.43876
716.598,32.8594,-2.71967,-1.02217,0.43781
719.598,32.958,-2.7203,-1.03115,0.43685
722.598,33.05659,-2.7196,-1.06483,0.4359
725.598,33.15529,-2.72065,-1.07713,0.43496
728.598,33.25403,-2.71968,-1.06449,0.43401
730.898,33.33109,-2.72097,-1.07634,0.43329

File: Polyester_Felt_STA_N2_30KData_210722_R2.csv
##Temp./Â°C,Time/min,Mass loss(subtr.2)/mg,DSC(subtr.2)/(mW/mg),Sensit./(uV/mW)
50.64,10.01,-0.01239,-0.0171892,0.6235
53.54,11.55695,-0.01556453,0.05150961,0.62347
56.44,11.9011,-0.01492314,0.09950838,0.62342
59.34,12.15424,-0.01030318,0.13174,0.62336
62.24,12.36496,-0.01657265,0.16494,0.62328
65.14,12.5526,-0.01677757,0.18717,0.6232
68.04,12.7248,-0.01407575,0.21568,0.6231
70.94,12.88647,-0.01503592,0.2415,0.62299
73.84,13.0417,-0.01632951,0.25788,0.62286
76.74,13.1907,-0.01705222,0.26819,0.62273
79.64,13.3354,-0.0161986,0.26469,0.62258
82.54,13.47525,-0.01328175,0.26054,0.62242
85.44,13.61149,-0.01659011,0.25526,0.62225
88.34,13.74399,-0.01744413,0.2532,0.62206
91.24,13.87297,-0.01629041,0.2493,0.62186
94.14,13.99875,-0.01921623,0.24621,0.62165
97.04,14.1215,-0.01740943,0.24981,0.62143
99.94,14.2416,-0.01840531,0.25688,0.6212
102.84,14.35941,-0.01716712,0.26562,0.62096
105.74,14.47454,-0.01345504,0.27018,0.6207
108.64,14.5875,-0.01669601,0.28608,0.62043
111.54,14.6988,-0.01795057,0.30108,0.62015
114.44,14.808,-0.01807332,0.31865,0.61986
117.34,14.9152,-0.01663208,0.33351,0.61956
120.24,15.02075,-0.01810083,0.35099,0.61925
123.14,15.12468,-0.01924569,0.37272,0.61892
126.04,15.227,-0.01765105,0.39299,0.61859
128.94,15.3282,-0.01764907,0.41025,0.61824
131.84,15.4277,-0.0189691,0.42985,0.61788
134.74,15.52604,-0.02039557,0.44266,0.61751
137.64,15.623,-0.02006168,0.46142,0.61713
140.54,15.71894,-0.01908077,0.4803,0.61674
143.44,15.81391,-0.01875026,0.4892,0.61634
146.34,15.9078,-0.01878069,0.50344,0.61593
149.24,16.00093,-0.01892082,0.50884,0.6155
152.14,16.09331,-0.02015723,0.52473,0.61507
155.04,16.1847,-0.01972828,0.53471,0.61463
157.94,16.27555,-0.02105331,0.54831,0.61417
160.84,16.36589,-0.02099621,0.56033,0.61371
163.74,16.45576,-0.01975167,0.56918,0.61324
166.64,16.5448,-0.01978771,0.58473,0.61275
169.54,16.63339,-0.02248026,0.591,0.61226
172.44,16.72174,-0.02248009,0.60182,0.61175
175.34,16.80934,-0.02117145,0.61694,0.61124
178.24,16.8965,-0.02115549,0.62846,0.61071
181.14,16.98304,-0.02386842,0.63903,0.61018
184.04,17.0689,-0.02375016,0.65346,0.60964
186.94,17.15394,-0.0249275,0.66019,0.60909
189.84,17.2395,-0.0238,0.67181,0.60852
192.74,17.3242,-0.02487407,0.69437,0.60795
195.64,17.4083,-0.02346492,0.71088,0.60737
198.54,17.49201,-0.02220474,0.72661,0.60678
201.44,17.57556,-0.02247998,0.73678,0.60618
204.34,17.65877,-0.02375573,0.7511,0.60558
207.24,17.74149,-0.02510991,0.75522,0.60496
210.14,17.8241,-0.02369252,0.77245,0.60434
213.04,17.90639,-0.02509123,0.78304,0.6037
215.94,17.98855,-0.02510496,0.79771,0.60306
218.84,18.0704,-0.0277406,0.81464,0.60241
221.74,18.15192,-0.02781587,0.8455,0.60175
224.64,18.23333,-0.029065,0.86822,0.60108
227.54,18.31467,-0.02840189,0.90643,0.60041
230.44,18.3956,-0.02809458,0.93639,0.59972
233.34,18.47655,-0.02878147,0.98588,0.59903
236.24,18.5573,-0.02972001,1.05153,0.59833
239.14,18.63776,-0.02972,1.15873,0.59762
242.04,18.71794,-0.02972041,1.29975,0.59691
244.94,18.79854,-0.02840034,1.50447,0.59618
247.84,18.87901,-0.02971783,1.80157,0.59545
250.74,18.95911,-0.03004989,2.16178,0.59471
253.64,19.03991,-0.03004964,2.49162,0.59397
256.54,19.1199,-0.03136,2.52517,0.59321
259.44,19.20019,-0.03136021,2.05304,0.59245
262.34,19.2802,-0.03104651,1.61015,0.59169
265.24,19.3596,-0.03234993,1.34569,0.59091
268.14,19.43883,-0.0336804,1.18823,0.59013
271.04,19.51793,-0.03432207,1.09767,0.58934
273.94,19.59703,-0.03319952,1.03903,0.58855
276.84,19.67596,-0.03433154,1.0174,0.58774
279.74,19.75495,-0.03564397,1.00069,0.58693
282.64,19.834,-0.0343314,0.99419,0.58612
285.54,19.91318,-0.03300728,0.98899,0.5853
288.44,19.99226,-0.03561735,0.99493,0.58447
291.34,20.07133,-0.03564093,1.00157,0.58364
294.24,20.15053,-0.03433029,1.00609,0.5828
297.14,20.2294,-0.03563726,1.00228,0.58195
300.04,20.30878,-0.03691512,0.99745,0.5811
302.94,20.38809,-0.03829254,0.99678,0.58024
305.84,20.4675,-0.03592096,0.99418,0.57938
308.74,20.5467,-0.03594599,0.99726,0.57851
311.64,20.62591,-0.03834142,1.00008,0.57763
314.54,20.70512,-0.03859996,1.00689,0.57675
317.44,20.78444,-0.03966389,1.00883,0.57586
320.34,20.86362,-0.04062098,1.01246,0.57497
323.24,20.94289,-0.04123999,1.00574,0.57408
326.14,21.0227,-0.04118849,1.01113,0.57317
329.04,21.1021,-0.043703,1.00894,0.57227
331.94,21.18177,-0.04418865,1.01039,0.57136
334.84,21.26135,-0.04289005,1.00709,0.57044
337.74,21.34105,-0.0440669,1.00596,0.56952
340.64,21.4209,-0.04660955,1.01361,0.56859
343.54,21.50085,-0.04666493,1.01257,0.56766
346.44,21.5809,-0.04686944,1.00856,0.56673
349.34,21.66103,-0.04794882,1.00751,0.56579
352.24,21.74128,-0.04923994,1.00767,0.56484
355.14,21.8214,-0.05073076,1.01333,0.5639
358.04,21.90194,-0.05216519,1.00991,0.56294
360.94,21.98252,-0.0533,1.01502,0.56199
363.84,22.06317,-0.05394748,1.02637,0.56103
366.74,22.14387,-0.05661794,1.02185,0.56006
369.64,22.22476,-0.05760623,1.01364,0.5591
372.54,22.30581,-0.05999577,1.01631,0.55812
375.44,22.38682,-0.05998268,1.02204,0.55715
378.34,22.46814,-0.06306059,1.03577,0.55617
381.24,22.54948,-0.06436586,1.03968,0.55519
384.14,22.6309,-0.06699479,1.04982,0.5542
387.04,22.7125,-0.07202054,1.05661,0.55321
389.94,22.79426,-0.07863545,1.07311,0.55222
392.84,22.87612,-0.08095113,1.08933,0.55123
395.74,22.95824,-0.08269455,1.11744,0.55023
398.64,23.04041,-0.08898852,1.15507,0.54923
401.54,23.1226,-0.10368,1.20065,0.54823
404.44,23.20515,-0.11412,1.24572,0.54722
407.34,23.28764,-0.12469,1.29796,0.54621
410.24,23.3705,-0.14347,1.33723,0.5452
413.14,23.45325,-0.16264,1.38433,0.54418
416.04,23.53614,-0.18917,1.42746,0.54317
418.94,23.6192,-0.21988,1.40149,0.54215
421.84,23.70259,-0.25293,1.36813,0.54113
424.74,23.78568,-0.29466,1.35938,0.5401
427.64,23.86898,-0.34124,1.38438,0.53908
430.54,23.95233,-0.39666,1.42864,0.53805
433.44,24.03572,-0.45993,1.54028,0.53702
436.34,24.1192,-0.54333,1.72297,0.53599
439.24,24.2028,-0.64271,1.95534,0.53496
442.14,24.28671,-0.76281,2.2074,0.53392
445.04,24.37102,-0.90246,2.49535,0.53289
447.94,24.45569,-1.06923,2.77392,0.53185
450.84,24.5409,-1.2583,3.00835,0.53081
453.74,24.62621,-1.47685,3.17768,0.52977
456.64,24.712,-1.6953,3.301,0.52873
459.54,24.79769,-1.92179,3.35887,0.52769
462.44,24.8836,-2.15106,3.31577,0.52664
465.34,24.9698,-2.3653,3.15521,0.5256
468.24,25.05578,-2.55049,2.89315,0.52455
471.14,25.14209,-2.71453,2.53672,0.5235
474.04,25.2282,-2.83914,2.11052,0.52245
476.94,25.31468,-2.93653,1.68396,0.52141
479.84,25.40096,-3.009,1.30359,0.52036
482.74,25.48745,-3.06191,0.99875,0.51931
485.64,25.57401,-3.10561,0.76093,0.51825
488.54,25.66056,-3.13697,0.56544,0.5172
491.44,25.74744,-3.16151,0.41925,0.51615
494.34,25.83435,-3.18294,0.28812,0.5151
497.24,25.92144,-3.19598,0.18469,0.51405
500.14,26.0086,-3.20886,0.10146,0.51299
503.04,26.09591,-3.22131,0.03772794,0.51194
505.94,26.18344,-3.23083,-0.009069665,0.51089
508.84,26.27096,-3.23564,-0.05007079,0.50984
511.74,26.35895,-3.24199,-0.07220106,0.50878
514.64,26.44663,-3.25219,-0.08567444,0.50773
517.54,26.5351,-3.25557,-0.14116,0.50668
520.44,26.6234,-3.26041,-0.15789,0.50563
523.34,26.71175,-3.26512,-0.17086,0.50457
526.24,26.8004,-3.26855,-0.1721,0.50352
529.14,26.8892,-3.27218,-0.17068,0.50247
532.04,26.97806,-3.2743,-0.16727,0.50142
534.94,27.06705,-3.27698,-0.16512,0.50037
537.84,27.1561,-3.27833,-0.15991,0.49932
540.74,27.2455,-3.28024,-0.15904,0.49827
543.64,27.33506,-3.28099,-0.1554,0.49722
546.54,27.4246,-3.28661,-0.15281,0.49618
549.44,27.5145,-3.28937,-0.14718,0.49513
552.34,27.60425,-3.29069,-0.15016,0.49408
555.24,27.6941,-3.29199,-0.15501,0.49304
558.14,27.7842,-3.29303,-0.15743,0.492
561.04,27.87442,-3.29476,-0.15825,0.49095
563.94,27.96463,-3.29884,-0.15318,0.48991
566.84,28.0551,-3.3001,-0.1502,0.48887
569.74,28.1456,-3.2988,-0.14657,0.48783
572.64,28.23623,-3.30122,-0.14725,0.48679
575.54,28.32708,-3.30417,-0.14879,0.48576
578.44,28.4175,-3.30885,-0.15303,0.48472
581.34,28.5089,-3.31021,-0.14778,0.48369
584.24,28.60009,-3.31021,-0.14602,0.48266
587.14,28.69132,-3.30933,-0.13881,0.48163
590.04,28.7827,-3.31487,-0.13455,0.4806
592.94,28.87415,-3.317,-0.14382,0.47957
595.84,28.96589,-3.31888,-0.14307,0.47854
598.74,29.05745,-3.3215,-0.13752,0.47752
601.64,29.1493,-3.32587,-0.14721,0.4765
604.54,29.24121,-3.32589,-0.1427,0.47548
607.44,29.3332,-3.32729,-0.14257,0.47446
610.34,29.42533,-3.3284,-0.1545,0.47344
613.24,29.5174,-3.32995,-0.16341,0.47243
616.14,29.6098,-3.33399,-0.16878,0.47141
619.04,29.70225,-3.33537,-0.16946,0.4704
621.94,29.7949,-3.3367,-0.17468,0.46939
624.84,29.88747,-3.33919,-0.17664,0.46839
627.74,29.9801,-3.34191,-0.16867,0.46738
630.64,30.07296,-3.34621,-0.16531,0.46638
633.54,30.16593,-3.34772,-0.18109,0.46538
636.44,30.25897,-3.34829,-0.17134,0.46438
639.34,30.35213,-3.35026,-0.17528,0.46339
642.24,30.4451,-3.35308,-0.28546,0.46239
645.14,30.538,-3.35592,-0.3028,0.4614
648.04,30.6319,-3.35722,-0.31328,0.46041
650.94,30.7253,-3.35979,-0.31251,0.45943
653.84,30.8189,-3.36068,-0.31494,0.45844
656.74,30.91252,-3.36247,-0.32045,0.45746
659.64,31.0063,-3.36377,-0.32681,0.45648
662.54,31.10016,-3.36561,-0.32026,0.45551
665.44,31.19388,-3.3679,-0.31879,0.45453
668.34,31.28818,-3.3693,-0.31949,0.45356
671.24,31.3823,-3.37065,-0.31808,0.45259
674.14,31.4763,-3.37178,-0.32756,0.45163
677.04,31.5707,-3.37195,-0.34642,0.45066
679.94,31.66493,-3.37329,-0.36266,0.4497
682.84,31.7591,-3.37459,-0.37131,0.44875
685.74,31.8537,-3.37665,-0.37531,0.44779
688.64,31.94827,-3.37876,-0.37554,0.44684
691.54,32.04296,-3.37975,-0.37914,0.44589
694.44,32.13771,-3.37961,-0.39256,0.44494
697.34,32.23257,-3.37881,-0.39964,0.444
700.24,32.32737,-3.38022,-0.40486,0.44306
703.14,32.42255,-3.38271,-0.43616,0.44212
706.04,32.51765,-3.38403,-0.46354,0.44118
708.94,32.61257,-3.38534,-0.49309,0.44025
711.84,32.7076,-3.38552,-0.4886,0.43932
714.74,32.80276,-3.38809,-0.50324,0.4384
717.64,32.8981,-3.38809,-0.51193,0.43747
720.54,32.9936,-3.38809,-0.51979,0.43655
723.44,33.08905,-3.38803,-0.54181,0.43564
726.34,33.18469,-3.38807,-0.56763,0.43472
729.24,33.2802,-3.38929,-0.58705,0.43381
730.84,33.33325,-3.38929,-0.58649,0.43331