Folder: fsri_materials_database/01_Data/Polyester_Felt/STA/N2/30K_min (part 2)

File: Polyester_Felt_STA_N2_30KData_210722_R3.csv
##Temp./Â°C,Time/min,Mass loss(subtr.2)/mg,DSC(subtr.2)/(mW/mg),Sensit./(uV/mW)
50.684,10.01,0.01909,-0.004592022,0.6235
53.584,11.55967,0.01993967,0.07857683,0.62347
56.484,11.90483,0.0191006,0.13565,0.62342
59.384,12.157,0.01994373,0.17709,0.62336
62.284,12.36861,0.02142606,0.213,0.62328
65.184,12.56371,0.02197096,0.24795,0.6232
68.084,12.73676,0.02238909,0.27721,0.6231
70.984,12.89886,0.01985741,0.30862,0.62299
73.884,13.05374,0.02006954,0.33079,0.62286
76.784,13.2024,0.02034943,0.34115,0.62273
79.684,13.3473,0.02069827,0.3427,0.62258
82.584,13.48748,0.01870449,0.33881,0.62242
85.484,13.6235,0.02172247,0.34501,0.62224
88.384,13.7558,0.02181262,0.34539,0.62206
91.284,13.8848,0.02157219,0.3455,0.62186
94.184,14.0106,0.02152755,0.33671,0.62165
97.084,14.13369,0.02015937,0.33364,0.62143
99.984,14.2532,0.02198786,0.33491,0.6212
102.884,14.37106,0.02228818,0.34649,0.62095
105.784,14.48644,0.02225164,0.36786,0.6207
108.684,14.59932,0.02127302,0.38352,0.62043
111.584,14.71076,0.02140011,0.40178,0.62015
114.484,14.81967,0.02269857,0.42272,0.61986
117.384,14.927,0.02229442,0.44409,0.61956
120.284,15.0327,0.02161656,0.4622,0.61924
123.184,15.13677,0.02009638,0.47972,0.61892
126.084,15.2391,0.0216512,0.49904,0.61858
128.984,15.3399,0.02183253,0.52084,0.61823
131.884,15.4395,0.02149951,0.54155,0.61788
134.784,15.5378,0.02151527,0.56087,0.61751
137.684,15.6348,0.02017363,0.57987,0.61713
140.584,15.73061,0.02018023,0.59611,0.61673
143.484,15.82554,0.0215825,0.61338,0.61633
146.384,15.91934,0.0214976,0.62376,0.61592
149.284,16.0126,0.02149964,0.63975,0.6155
152.184,16.10483,0.02240734,0.65495,0.61506
155.084,16.19624,0.02235285,0.66953,0.61462
157.984,16.28712,0.02106004,0.68147,0.61417
160.884,16.37731,0.02106072,0.70006,0.6137
163.784,16.46685,0.0211693,0.70944,0.61323
166.684,16.5563,0.02106902,0.72011,0.61274
169.584,16.64489,0.02073983,0.73487,0.61225
172.484,16.73275,0.02073638,0.75068,0.61175
175.384,16.82075,0.02203618,0.7635,0.61123
178.284,16.90794,0.02238776,0.77583,0.61071
181.184,16.9945,0.02238105,0.78215,0.61017
184.084,17.08052,0.02204795,0.8007,0.60963
186.984,17.16617,0.02204304,0.81385,0.60908
189.884,17.25122,0.01942002,0.82559,0.60852
192.784,17.33558,0.01849618,0.8386,0.60794
195.684,17.42011,0.01809895,0.84992,0.60736
198.584,17.5038,0.0194104,0.85575,0.60677
201.484,17.58721,0.01941992,0.87147,0.60618
204.384,17.67025,0.02041065,0.88968,0.60557
207.284,17.7531,0.01909182,0.90696,0.60495
210.184,17.8357,0.01908998,0.92422,0.60433
213.084,17.91815,0.01976508,0.9379,0.60369
215.984,18.0002,0.01974,0.95118,0.60305
218.884,18.08199,0.01789462,0.97227,0.6024
221.784,18.16374,0.01851551,0.99997,0.60174
224.684,18.24519,0.01702306,1.0244,0.60107
227.584,18.32643,0.01712498,1.05895,0.6004
230.484,18.40747,0.0160887,1.09785,0.59971
233.384,18.48835,0.01612,1.15354,0.59902
236.284,18.56898,0.01612,1.22643,0.59832
239.184,18.64967,0.01611873,1.32584,0.59761
242.084,18.7302,0.01744027,1.46228,0.5969
244.984,18.8107,0.015789,1.662,0.59617
247.884,18.891,0.01513569,1.9572,0.59544
250.784,18.97145,0.01515072,2.33741,0.5947
253.684,19.05183,0.01383401,2.71426,0.59396
256.584,19.1323,0.01415083,2.77834,0.5932
259.484,19.21242,0.01547412,2.28834,0.59244
262.384,19.2923,0.01448066,1.84513,0.59167
265.284,19.37167,0.01416645,1.57095,0.5909
268.184,19.45092,0.01283594,1.41966,0.59012
271.084,19.52988,0.0125,1.32528,0.58933
273.984,19.609,0.0125,1.28054,0.58853
276.884,19.68804,0.0125,1.25202,0.58773
279.784,19.76701,0.0125,1.23746,0.58692
282.684,19.8462,0.01250032,1.22685,0.58611
285.584,19.9253,0.01151407,1.22205,0.58529
288.484,20.00433,0.01054552,1.2234,0.58446
291.384,20.0834,0.01185286,1.22514,0.58362
294.284,20.16246,0.01052854,1.23455,0.58278
297.184,20.2416,0.01053058,1.24417,0.58194
300.084,20.3209,0.009187124,1.24555,0.58108
302.984,20.40005,0.00921005,1.24262,0.58023
305.884,20.47927,0.007888533,1.24444,0.57936
308.784,20.55859,0.009209736,1.25364,0.57849
311.684,20.63795,0.009213042,1.25712,0.57762
314.584,20.71722,0.007897,1.26338,0.57674
317.484,20.79648,0.007607514,1.26483,0.57585
320.384,20.8759,0.006580105,1.27556,0.57496
323.284,20.95536,0.006579041,1.26439,0.57406
326.184,21.03462,0.005266351,1.26169,0.57316
329.084,21.11439,0.00394328,1.26237,0.57225
331.984,21.19408,0.004660452,1.26187,0.57134
334.884,21.2737,0.00395528,1.26521,0.57043
337.784,21.35357,0.004277082,1.26234,0.5695
340.684,21.4334,0.00393279,1.26339,0.56858
343.584,21.51322,0.001277374,1.25939,0.56765
346.484,21.59338,-1.752786e-05,1.26622,0.56671
349.384,21.6735,-0.00132013,1.26284,0.56577
352.284,21.75382,-0.00264692,1.2632,0.56483
355.184,21.83419,-0.003394495,1.26161,0.56388
358.084,21.91449,-0.002761903,1.27176,0.56293
360.984,21.9951,-0.003950035,1.27319,0.56197
363.884,22.07584,-0.004040741,1.27261,0.56101
366.784,22.15654,-0.006562344,1.27396,0.56005
369.684,22.23745,-0.007920266,1.27998,0.55908
372.584,22.31859,-0.01043546,1.27508,0.55811
375.484,22.39978,-0.01447286,1.27212,0.55713
378.384,22.48103,-0.01618623,1.28549,0.55616
381.284,22.5623,-0.01668979,1.29158,0.55517
384.184,22.64382,-0.02180096,1.30099,0.55419
387.084,22.72551,-0.02391215,1.31003,0.5532
389.984,22.8073,-0.02654657,1.32356,0.55221
392.884,22.8891,-0.03159191,1.34148,0.55121
395.784,22.97103,-0.03855518,1.36737,0.55021
398.684,23.05351,-0.0454877,1.4028,0.54921
401.584,23.13587,-0.05567333,1.44887,0.54821
404.484,23.21847,-0.06514881,1.49955,0.5472
407.384,23.3012,-0.0794817,1.54918,0.54619
410.284,23.38381,-0.09752993,1.57951,0.54518
413.184,23.46659,-0.11852,1.61871,0.54417
416.084,23.54984,-0.14583,1.66636,0.54315
418.984,23.63296,-0.17828,1.65094,0.54213
421.884,23.71627,-0.2143,1.59303,0.54111
424.784,23.79952,-0.25458,1.56268,0.54009
427.684,23.88287,-0.30553,1.58571,0.53906
430.584,23.96624,-0.36661,1.62317,0.53804
433.484,24.04981,-0.43759,1.69814,0.53701
436.384,24.13342,-0.52007,1.82943,0.53598
439.284,24.21714,-0.62191,2.0253,0.53494
442.184,24.30118,-0.74624,2.28052,0.53391
445.084,24.3855,-0.89604,2.54403,0.53287
447.984,24.47018,-1.06829,2.81208,0.53183
450.884,24.55536,-1.25915,3.06885,0.5308
453.784,24.64082,-1.48342,3.26391,0.52975
456.684,24.72674,-1.69131,3.3848,0.52871
459.584,24.8129,-1.86842,3.45069,0.52767
462.484,24.8991,-2.07084,3.40815,0.52663
465.384,24.98474,-2.46736,3.22107,0.52558
468.284,25.07112,-2.58946,2.99735,0.52453
471.184,25.1577,-2.66428,2.69616,0.52349
474.084,25.24341,-3.10337,2.23519,0.52244
476.984,25.32923,-3.06196,1.79948,0.52139
479.884,25.41556,-3.12759,1.41102,0.52034
482.784,25.50219,-3.14842,1.10539,0.51929
485.684,25.5888,-3.16755,0.85619,0.51824
488.584,25.67524,-3.19936,0.65611,0.51719
491.484,25.7616,-3.22724,0.50108,0.51614
494.384,25.84695,-3.68393,0.38343,0.51508
497.284,25.9324,-3.61129,0.35891,0.51403
500.184,26.01934,-3.53946,0.3036,0.51298
503.084,26.1069,-3.48629,0.24358,0.51193
505.984,26.19502,-3.45698,0.19301,0.51087
508.884,26.28319,-3.43901,0.15458,0.50982
511.784,26.3714,-3.43261,0.12381,0.50877
514.684,26.45975,-3.43263,0.1072,0.50772
517.584,26.54818,-3.4313,0.09504335,0.50666
520.484,26.63662,-3.43134,0.09221984,0.50561
523.384,26.7252,-3.4329,0.09468827,0.50456
526.284,26.81376,-3.43792,0.09801587,0.50351
529.184,26.90264,-3.44117,0.10335,0.50246
532.084,26.99176,-3.44533,0.10501,0.5014
534.984,27.08075,-3.44785,0.11547,0.50035
537.884,27.1699,-3.45061,0.12344,0.49931
540.784,27.2594,-3.45215,0.12072,0.49826
543.684,27.34886,-3.45346,0.12538,0.49721
546.584,27.43843,-3.45629,0.13214,0.49616
549.484,27.52828,-3.45897,0.13545,0.49511
552.384,27.6182,-3.46025,0.1399,0.49407
555.284,27.70833,-3.46159,0.13972,0.49302
558.184,27.7986,-3.46314,0.1392,0.49198
561.084,27.88873,-3.46309,0.14916,0.49094
563.984,27.97914,-3.46706,0.14984,0.4899
566.884,28.0696,-3.46838,0.15814,0.48886
569.784,28.1601,-3.46959,0.16022,0.48782
572.684,28.25086,-3.4716,0.16393,0.48678
575.584,28.34175,-3.47336,0.16886,0.48574
578.484,28.4325,-3.47518,0.16907,0.48471
581.384,28.52344,-3.47763,0.17373,0.48367
584.284,28.61464,-3.47994,0.17589,0.48264
587.184,28.7058,-3.48285,0.1894,0.48161
590.084,28.7972,-3.48417,0.19263,0.48058
592.984,28.8886,-3.48676,0.19912,0.47955
595.884,28.98023,-3.48681,0.20203,0.47853
598.784,29.07205,-3.49086,0.22252,0.4775
601.684,29.1638,-3.49219,0.22504,0.47648
604.584,29.25592,-3.4936,0.22585,0.47546
607.484,29.34804,-3.49643,0.22744,0.47444
610.384,29.4403,-3.49887,0.2342,0.47343
613.284,29.53248,-3.50148,0.24,0.47241
616.184,29.6251,-3.50314,0.22787,0.4714
619.084,29.71739,-3.50491,0.25099,0.47039
621.984,29.80992,-3.50874,0.25833,0.46938
624.884,29.90261,-3.51002,0.26794,0.46837
627.784,29.9949,-3.51138,0.27796,0.46737
630.684,30.0878,-3.51308,0.28329,0.46636
633.584,30.18073,-3.51704,0.29197,0.46536
636.484,30.27373,-3.51931,0.30031,0.46437
639.384,30.36683,-3.52177,0.31663,0.46337
642.284,30.46,-3.52268,0.32672,0.46238
645.184,30.55333,-3.5256,0.33171,0.46139
648.084,30.64685,-3.52695,0.34101,0.4604
650.984,30.74039,-3.52959,0.35072,0.45941
653.884,30.8341,-3.5296,0.3473,0.45843
656.784,30.9278,-3.5319,0.27051,0.45745
659.684,31.0217,-3.53401,0.28527,0.45647
662.584,31.1155,-3.53453,0.28386,0.45549
665.484,31.2095,-3.53485,0.28295,0.45452
668.384,31.30367,-3.53618,0.28547,0.45355
671.284,31.39775,-3.53796,0.3056,0.45258
674.184,31.4918,-3.54019,0.31252,0.45161
677.084,31.58625,-3.54255,0.31728,0.45065
679.984,31.68034,-3.54242,0.31058,0.44969
682.884,31.775,-3.54238,0.2773,0.44873
685.784,31.86965,-3.54407,0.28133,0.44778
688.684,31.9641,-3.54538,0.28844,0.44682
691.584,32.0587,-3.54672,0.28651,0.44587
694.484,32.15323,-3.54664,0.29826,0.44493
697.384,32.2482,-3.55015,0.30551,0.44398
700.284,32.3431,-3.55065,0.31664,0.44304
703.184,32.43803,-3.55197,0.34596,0.44211
706.084,32.533,-3.55183,0.35143,0.44117
708.984,32.628,-3.55332,0.33661,0.44024
711.884,32.723,-3.55427,0.32636,0.43931
714.784,32.8182,-3.55486,0.30234,0.43838
717.684,32.91356,-3.55427,0.29222,0.43746
720.584,33.00873,-3.55558,0.27801,0.43654
723.484,33.10398,-3.55699,0.28003,0.43562
726.384,33.19955,-3.55559,0.27485,0.43471
729.284,33.29508,-3.5569,0.23727,0.4338
730.584,33.33788,-3.5569,0.23321,0.43339