Folder: fsri_materials_database/01_Data/Polyester_Felt/STA/N2/3K_min

Note: 01_Data/README.md
# Materials and Products Database
## 01_Data

Raw data generated from each apparatus are included here in plain-text format. The data is organized first by material, next by the short name of test apparatus used, and where applicable additional filtering by test settings.

### material.json

Each material directory contains a json file of the same name as the material. This file links the data stored in the repository as well as data and graphs produced by the accompanying scripts (__02_Scripts__) to the respective landing page for the material on the front-end website.

File: Polyester_Felt_STA_N2_3KData_210721_R1.csv
##Temp./Â°C,Time/min,Mass loss(subtr.2)/mg,DSC(subtr.2)/(mW/mg),Sensit./(uV/mW)
48.949,10.0158,0.00253,-0.001615815,0.58411
51.749,13.84119,-0.002790683,0.01951955,0.58543
54.549,15.3534,0.00708775,0.02052848,0.58673
57.349,16.63274,0.004402682,0.02461153,0.58801
60.149,17.79335,0.00482925,0.02452668,0.58927
62.949,18.88363,0.004825136,0.02823195,0.5905
65.749,19.92758,0.003138254,0.0291326,0.59172
68.549,20.94305,0.003171401,0.03229003,0.59292
71.349,21.93834,0.006958872,0.03316223,0.59409
74.149,22.9167,0.0027123,0.03009022,0.59524
76.949,23.88502,0.00284093,0.02827315,0.59638
79.749,24.85206,0.002355507,0.02620726,0.59749
82.549,25.80489,0.00501053,0.02257114,0.59858
85.349,26.7476,0.002207366,0.01971036,0.59966
88.149,27.6838,0.005258548,0.01743672,0.60071
90.949,28.61621,0.005933655,0.01698351,0.60174
93.749,29.5388,0.005608651,0.01502581,0.60275
96.549,30.45675,0.005208323,0.01290678,0.60374
99.349,31.3711,0.001794037,0.0154799,0.6047
102.149,32.28432,0.00289784,0.01778053,0.60565
104.949,33.19446,0.004737048,0.01483388,0.60658
107.749,34.10393,0.001873811,0.02066833,0.60748
110.549,35.01342,0.007460035,0.02061698,0.60837
113.349,35.91905,0.00307592,0.0238558,0.60923
116.149,36.82374,0.00517158,0.02400607,0.61007
118.949,37.72635,0.006161741,0.02319549,0.61089
121.749,38.62741,0.00367534,0.02684078,0.6117
124.549,39.52718,0.00340365,0.02748332,0.61248
127.349,40.42494,0.002034289,0.02823663,0.61324
130.149,41.32,0.003442986,0.02235112,0.61397
132.949,42.2141,0.003744618,0.02544597,0.61469
135.749,43.10654,0.002367774,0.02557528,0.61539
138.549,43.99644,0.00371019,0.0260208,0.61606
141.349,44.8827,0.004070004,0.0260195,0.61672
144.149,45.76993,0.003850965,0.0238887,0.61735
146.949,46.656,0.00329271,0.02784581,0.61797
149.749,47.53798,0.0066863,0.03091676,0.61856
152.549,48.42197,0.00341301,0.03109215,0.61913
155.349,49.30482,0.00272897,0.02795615,0.61968
158.149,50.18481,0.004986354,0.03015216,0.62021
160.949,51.06495,0.004382631,0.02406548,0.62072
163.749,51.94576,0.004500026,0.02415361,0.62121
166.549,52.8256,0.003559862,0.02240655,0.62168
169.349,53.70525,-0.000109807,0.02206166,0.62213
172.149,54.5854,0.001753736,0.0241595,0.62256
174.949,55.46167,0.001741106,0.02271634,0.62296
177.749,56.3377,0.0005537709,0.02264238,0.62335
180.549,57.21626,-0.000113957,0.01893473,0.62371
183.349,58.0937,0.00165,0.01830004,0.62406
186.149,58.9674,0.001542182,0.02066834,0.62438
188.949,59.84236,-0.0002194961,0.01982299,0.62469
191.749,60.7181,0.0004527837,0.02049791,0.62497
194.549,61.59175,0.001221248,0.02464465,0.62524
197.349,62.4653,0.001099997,0.02844237,0.62548
200.149,63.3387,0.0007750567,0.02727649,0.6257
202.949,64.21409,-0.0002643546,0.02829405,0.62591
205.749,65.08909,0.000441366,0.02860194,0.62609
208.549,65.96259,0.001755286,0.0272185,0.62625
211.349,66.8377,-0.0005303859,0.02322633,0.62639
214.149,67.71248,-0.000378067,0.02867997,0.62652
216.949,68.58544,-0.0004080004,0.02736191,0.62662
219.749,69.46202,0.0005342074,0.03165798,0.6267
222.549,70.33657,-0.001089977,0.03267569,0.62677
225.349,71.2096,-0.0005791511,0.03565878,0.62681
228.149,72.08745,-0.001678126,0.03891211,0.62683
230.949,72.96123,-0.002476266,0.04226894,0.62684
233.749,73.83615,-0.002751882,0.04398947,0.62682
236.549,74.71299,-0.002969027,0.04736113,0.62679
239.349,75.5894,-0.002710373,0.0543137,0.62673
242.149,76.46346,-0.003243493,0.06451696,0.62666
244.949,77.3386,-0.004650503,0.08093013,0.62656
247.749,78.21202,-0.00624064,0.10216,0.62645
250.549,79.09,-0.00756,0.15614,0.62632
253.349,79.96859,-0.00644301,0.21327,0.62617
256.149,80.84871,-0.006052961,0.24903,0.626
258.949,81.72672,-0.007639516,0.2149,0.62581
261.749,82.60158,-0.009081646,0.1044,0.6256
264.549,83.47626,-0.009319357,0.05690273,0.62537
267.349,84.35249,-0.01087445,0.04568109,0.62513
270.149,85.23222,-0.01019986,0.03875839,0.62487
272.949,86.1118,-0.01096526,0.0409742,0.62458
275.749,86.9902,-0.01428291,0.04017847,0.62428
278.549,87.86874,-0.01427825,0.04134313,0.62396
281.349,88.7471,-0.01447132,0.04336285,0.62362
284.149,89.62324,-0.0175422,0.04606974,0.62327
286.949,90.503,-0.01939333,0.04415858,0.62289
289.749,91.38224,-0.01686731,0.04472618,0.6225
292.549,92.26225,-0.02016361,0.04132113,0.62209
295.349,93.14238,-0.01939986,0.04251931,0.62166
298.149,94.02497,-0.02381749,0.04553131,0.62121
300.949,94.90775,-0.02628195,0.04571888,0.62075
303.749,95.78805,-0.02646982,0.04801737,0.62027
306.549,96.67161,-0.02739605,0.04529511,0.61977
309.349,97.5548,-0.02907067,0.04396241,0.61925
312.149,98.43636,-0.03299508,0.04376051,0.61872
314.949,99.3177,-0.03269551,0.0382098,0.61817
317.749,100.2,-0.03301317,0.03802252,0.6176
320.549,101.084,-0.03781093,0.03981165,0.61701
323.349,101.97,-0.04021484,0.03551824,0.61641
326.149,102.861,-0.042841,0.03472297,0.61579
328.949,103.747,-0.04412266,0.03599357,0.61516
331.749,104.633,-0.04436145,0.03685835,0.6145
334.549,105.52,-0.0462824,0.03492855,0.61383
337.349,106.409,-0.0493673,0.03589169,0.61315
340.149,107.296,-0.05056208,0.03669759,0.61244
342.949,108.184,-0.05450992,0.03285043,0.61173
345.749,109.073,-0.05847016,0.03833597,0.61099
348.549,109.96,-0.06234417,0.03582213,0.61024
351.349,110.846,-0.07090217,0.03842838,0.60947
354.149,111.739,-0.0730646,0.03700645,0.60869
356.949,112.632,-0.08213285,0.04243586,0.60789
359.749,113.525,-0.09182181,0.04270912,0.60708
362.549,114.422,-0.10472,0.05031318,0.60625
365.349,115.319,-0.11804,0.05000868,0.6054
368.149,116.218,-0.13684,0.05908007,0.60454
370.949,117.1154,-0.16385,0.06617786,0.60367
373.749,118.012,-0.19304,0.07423942,0.60278
376.549,118.909,-0.23102,0.07536475,0.60187
379.349,119.811,-0.27486,0.08084978,0.60095
382.149,120.707,-0.32406,0.09996599,0.60002
384.949,121.603,-0.3831,0.11403,0.59907
387.749,122.504,-0.45439,0.12925,0.59811
390.549,123.4043,-0.53609,0.14287,0.59713
393.349,124.307,-0.63341,0.15966,0.59614
396.149,125.209,-0.75035,0.18152,0.59513
398.949,126.112,-0.88732,0.20317,0.59411
401.749,127.017,-1.05222,0.22398,0.59307
404.549,127.92,-1.23823,0.24006,0.59203
407.349,128.825,-1.44932,0.25932,0.59096
410.149,129.73,-1.68086,0.26896,0.58989
412.949,130.635,-1.93292,0.28324,0.5888
415.749,131.545,-2.19504,0.28298,0.5877
418.549,132.453,-2.4544,0.27067,0.58658
421.349,133.362,-2.69809,0.24792,0.58545
424.149,134.2678,-2.90671,0.21149,0.58431
426.949,135.179,-3.07558,0.17174,0.58316
429.749,136.087,-3.1991,0.13325,0.58199
432.549,136.996,-3.29046,0.10784,0.58081
435.349,137.904,-3.36446,0.09848788,0.57962
438.149,138.811,-3.42142,0.08700025,0.57842
440.949,139.726,-3.46946,0.07368272,0.5772
443.749,140.64,-3.50341,0.05736012,0.57598
446.549,141.552,-3.53562,0.03457924,0.57474
449.349,142.465,-3.56133,0.02663899,0.57349
452.149,143.38,-3.5815,0.0213424,0.57222
454.949,144.294,-3.59809,0.01257149,0.57095
457.749,145.209,-3.613,0.01129659,0.56966
460.549,146.128,-3.62333,-0.01726508,0.56836
463.349,147.046,-3.63542,-0.02899481,0.56706
466.149,147.966,-3.64236,-0.03810579,0.56574
468.949,148.8864,-3.65086,-0.04663722,0.56441
471.749,149.8093,-3.65605,-0.05676349,0.56307
474.549,150.732,-3.66064,-0.06072241,0.56171
477.349,151.658,-3.66122,-0.05963987,0.56035
480.149,152.583,-3.66031,-0.0630073,0.55898
482.949,153.506,-3.67693,-0.0700069,0.5576
485.749,154.43,-3.68105,-0.07011423,0.5562
488.549,155.357,-3.6844,-0.07687281,0.5548
491.349,156.287,-3.68501,-0.07770037,0.55339
494.149,157.2185,-3.68895,-0.07698176,0.55197
496.949,158.147,-3.6915,-0.08457538,0.55053
499.749,159.078,-3.69214,-0.08394853,0.54909
502.549,160.009,-3.69308,-0.0795869,0.54764
505.349,160.9409,-3.69433,-0.0828498,0.54618
508.149,161.872,-3.69602,-0.08074751,0.54471
510.949,162.8015,-3.69809,-0.08149544,0.54324
513.749,163.735,-3.70202,-0.07761169,0.54175
516.549,164.664,-3.70366,-0.07934977,0.54026
519.349,165.595,-3.70424,-0.0760144,0.53875
522.149,166.53,-3.70695,-0.07435114,0.53724
524.949,167.4658,-3.70793,-0.07517466,0.53572
527.749,168.399,-3.70983,-0.07095188,0.53419
530.549,169.335,-3.71471,-0.06742403,0.53265
533.349,170.271,-3.71377,-0.06230006,0.53111
536.149,171.2062,-3.71657,-0.05894616,0.52956
538.949,172.146,-3.71728,-0.05402058,0.528
541.749,173.082,-3.71968,-0.05441785,0.52643
544.549,174.023,-3.72326,-0.04934241,0.52486
547.349,174.958,-3.72597,-0.0497774,0.52327
550.149,175.898,-3.72658,-0.0479699,0.52169
552.949,176.831,-3.73014,-0.04167189,0.52009
555.749,177.7759,-3.72907,-0.04009448,0.51849
558.549,178.718,-3.73547,-0.04557421,0.51688
561.349,179.658,-3.73513,-0.04076811,0.51526
564.149,180.601,-3.73485,-0.0404455,0.51364
566.949,181.544,-3.73923,-0.0456037,0.51201
569.749,182.487,-3.74289,-0.04824006,0.51037
572.549,183.434,-3.74291,-0.05225744,0.50873
575.349,184.381,-3.74248,-0.04602221,0.50709
578.149,185.325,-3.74655,-0.05549953,0.50543
580.949,186.272,-3.74926,-0.05603755,0.50377
583.749,187.221,-3.75246,-0.04643593,0.50211
586.549,188.1667,-3.75148,-0.0438947,0.50044
589.349,189.113,-3.75374,-0.04588136,0.49876
592.149,190.063,-3.75318,-0.04385298,0.49708
594.949,191.016,-3.75672,-0.04541355,0.4954
597.749,191.963,-3.75809,-0.04058195,0.49371
600.549,192.914,-3.75814,-0.04063303,0.49201
603.349,193.863,-3.7587,-0.03717967,0.49031
606.149,194.815,-3.76115,-0.04186908,0.48861
608.949,195.767,-3.75911,-0.04361055,0.4869
611.749,196.718,-3.76256,-0.04207752,0.48519
614.549,197.675,-3.7639,-0.04572858,0.48347
617.349,198.629,-3.76535,-0.04685577,0.48175
620.149,199.577,-3.76755,-0.05068427,0.48002
622.949,200.535,-3.76755,-0.04264387,0.47829
625.749,201.489,-3.76926,-0.05031154,0.47656
628.549,202.439,-3.77041,-0.05800654,0.47482
631.349,203.394,-3.76983,-0.05741762,0.47308
634.149,204.351,-3.77177,-0.06445349,0.47133
636.949,205.307,-3.77102,-0.08550258,0.46959
639.749,206.263,-3.77221,-0.09117247,0.46784
642.549,207.2247,-3.77402,-0.09308433,0.46608
645.349,208.18,-3.77389,-0.0921573,0.46433
648.149,209.134,-3.77484,-0.09336303,0.46257
650.649,209.983,-3.77396,-0.101,0.46099