Folder: fsri_materials_database/01_Data/Coaxial_Cable/MCC (part 3)

File: Coaxial_Cable_MCC_30K_min_220202_R5.txt
Sample ID:	C:\MCC\MCC Cal\Test\Coaxial_Cable\Coaxial_Cable_MCC_30K_min_220202_R5.txt
Sample Weight (mg):	4.45
Heating Rate (C/s):	0.5
Combustor Temp (C):	900
N2 Flow Rate (cc/min):	80
O2 Flow Rate (cc/min):	20
Calibration File:	C:\MCC\MCC Cal\Coeff1 JN10440_30_210304.txt.txt
T Correction Coefficients:	0	1.024463	0
Time Shift (s):	14
*
Time (s)	Temperature (C)	N2 flow rate (cc/min)	O2 flow rate (cc/min)	Flow Rate (cc/min)	Oxygen (%)	HRR (W/g)	Heating rate (C/s)
-0.001	113.045	80.011	19.994	103.786	20.004	0.197	-0.003
8.000	113.003	80.013	19.994	103.788	20.005	0.186	-0.011
16.000	113.055	80.012	19.994	103.788	20.006	0.109	0.021
24.000	113.119	80.011	19.993	103.900	19.992	1.074	-0.010
32.000	113.643	80.011	19.994	103.955	19.981	1.918	0.118
39.999	114.608	80.010	19.992	103.976	19.976	2.282	0.126
48.001	115.911	80.012	19.996	104.018	19.966	3.007	0.183
55.999	117.650	80.009	19.995	104.018	19.966	2.987	0.245
63.999	119.699	80.010	19.994	104.019	19.965	3.054	0.291
71.999	121.987	80.011	19.995	104.015	19.962	3.276	0.278
80.000	124.489	80.011	19.996	104.019	19.967	2.924	0.328
88.000	127.159	80.014	19.995	104.039	19.963	3.247	0.335
96.001	130.086	80.012	19.994	104.054	19.961	3.395	0.380
103.999	133.167	80.012	19.995	104.054	19.959	3.536	0.392
112.001	136.434	80.011	19.995	104.034	19.962	3.316	0.436
120.000	139.786	80.011	19.994	104.048	19.967	2.918	0.401
127.999	143.287	80.011	19.993	104.046	19.959	3.542	0.428
136.000	146.893	80.009	19.993	104.045	19.964	3.163	0.448
143.999	150.475	80.010	19.994	104.036	19.961	3.365	0.473
151.999	154.104	80.013	19.994	104.029	19.962	3.258	0.448
160.000	157.801	80.012	19.995	104.039	19.959	3.486	0.455
168.000	161.560	80.009	19.995	104.038	19.961	3.326	0.479
175.999	165.360	80.013	19.994	104.038	19.956	3.747	0.498
184.000	169.244	80.010	19.994	104.026	19.956	3.704	0.516
192.000	173.151	80.010	19.994	104.037	19.949	4.242	0.540
200.000	177.111	80.010	19.994	104.029	19.950	4.182	0.491
207.999	181.106	80.010	19.994	104.020	19.949	4.238	0.513
216.000	185.132	80.010	19.995	104.024	19.943	4.705	0.504
223.999	189.212	80.011	19.994	104.020	19.937	5.079	0.482
232.000	193.270	80.014	19.995	104.017	19.934	5.300	0.541
240.000	197.268	80.011	19.994	104.014	19.927	5.866	0.478
247.999	201.308	80.009	19.993	104.018	19.916	6.619	0.487
255.999	205.356	80.012	19.994	103.994	19.913	6.825	0.493
264.000	209.391	80.009	19.993	103.994	19.900	7.781	0.522
272.000	213.417	80.009	19.996	103.989	19.885	8.872	0.505
280.000	217.350	80.010	19.994	103.987	19.877	9.502	0.513
288.000	221.295	80.012	19.993	103.985	19.857	10.964	0.498
296.000	225.233	80.011	19.995	103.981	19.831	12.851	0.478
304.000	229.202	80.009	19.995	103.986	19.809	14.471	0.485
312.000	233.123	80.013	19.994	103.983	19.788	16.005	0.507
320.000	237.067	80.012	19.994	103.982	19.754	18.425	0.489
328.000	240.994	80.011	19.993	103.989	19.726	20.524	0.469
336.000	244.940	80.013	19.995	103.980	19.693	22.930	0.493
344.000	248.884	80.012	19.994	103.978	19.658	25.444	0.511
352.000	252.925	80.010	19.993	103.981	19.615	28.586	0.515
360.000	256.852	80.011	19.997	103.981	19.575	31.535	0.465
368.000	260.834	80.009	19.995	103.982	19.534	34.511	0.470
376.000	264.863	80.009	19.993	103.981	19.479	38.488	0.474
384.000	268.883	80.009	19.993	103.993	19.427	42.279	0.487
392.000	272.937	80.012	19.994	104.000	19.381	45.624	0.480
400.000	276.961	80.010	19.993	104.003	19.348	48.083	0.518
408.000	281.017	80.012	19.993	104.007	19.336	48.913	0.508
416.000	285.049	80.013	19.993	104.009	19.343	48.430	0.509
424.000	289.095	80.013	19.994	104.016	19.365	46.831	0.491
432.000	293.198	80.011	19.995	104.021	19.405	43.928	0.492
440.000	297.281	80.011	19.994	104.026	19.472	39.004	0.504
448.000	301.317	80.011	19.995	104.055	19.558	32.790	0.508
456.000	305.334	80.009	19.993	104.039	19.647	26.263	0.491
464.000	309.353	80.009	19.995	104.032	19.731	20.111	0.538
472.000	313.365	80.013	19.994	104.017	19.795	15.445	0.520
480.000	317.304	80.011	19.994	103.982	19.850	11.443	0.482
488.000	321.310	80.011	19.994	103.976	19.893	8.301	0.504
496.000	324.997	80.011	19.993	103.947	19.913	6.864	0.286
504.000	329.431	80.013	19.994	103.925	19.933	5.402	0.493
512.000	333.243	80.009	19.994	103.923	19.947	4.395	0.517
520.000	337.407	80.008	19.993	103.910	19.954	3.833	0.533
528.000	341.640	80.010	19.994	103.933	19.956	3.742	0.554
536.000	345.819	80.011	19.994	103.933	19.971	2.619	0.482
544.000	350.081	80.010	19.994	103.937	19.969	2.787	0.566
552.000	354.302	80.010	19.995	103.939	19.977	2.195	0.485
560.000	358.632	80.012	19.996	103.941	19.977	2.191	0.526
568.000	362.869	80.011	19.994	103.938	19.982	1.826	0.539
576.000	367.068	80.010	19.993	103.943	19.978	2.136	0.506
584.000	371.264	80.012	19.995	103.940	19.978	2.118	0.508
592.000	375.476	80.010	19.994	103.940	19.979	2.019	0.535
600.000	379.609	80.012	19.995	103.937	19.975	2.336	0.529
608.000	383.686	80.011	19.993	103.931	19.975	2.352	0.507
616.000	387.767	80.012	19.995	103.933	19.970	2.684	0.494
624.000	391.883	80.009	19.994	103.931	19.969	2.781	0.552
632.000	395.868	80.011	19.994	103.927	19.965	3.099	0.476
640.000	399.881	80.011	19.994	103.924	19.955	3.823	0.506
648.000	403.896	80.010	19.994	103.929	19.947	4.383	0.515
656.000	407.930	80.012	19.994	103.922	19.933	5.377	0.524
664.000	411.905	80.013	19.994	103.937	19.923	6.159	0.522
672.000	415.865	80.011	19.994	103.926	19.900	7.825	0.483
680.000	419.934	80.010	19.994	103.921	19.877	9.502	0.514
688.000	423.988	80.012	19.995	103.932	19.853	11.245	0.534
696.000	428.034	80.011	19.993	103.924	19.817	13.866	0.499
704.000	432.075	80.011	19.994	103.924	19.779	16.651	0.500
712.000	436.120	80.009	19.994	103.910	19.727	20.379	0.521
720.000	440.200	80.011	19.994	103.914	19.667	24.779	0.506
728.000	444.199	80.010	19.993	103.915	19.610	28.957	0.478
736.000	448.260	80.010	19.994	103.901	19.540	34.012	0.520
744.000	452.304	80.013	19.994	103.896	19.466	39.404	0.501
752.000	456.300	80.012	19.995	103.897	19.391	44.871	0.496
760.000	460.371	80.011	19.995	103.899	19.285	52.573	0.465
768.000	464.409	80.010	19.995	103.894	19.158	61.843	0.518
776.000	468.474	80.011	19.993	103.866	19.001	73.240	0.524
784.000	472.640	80.009	19.993	103.861	18.815	86.769	0.522
792.000	476.815	80.010	19.994	103.828	18.593	102.902	0.521
800.000	480.973	80.011	19.993	103.787	18.344	120.983	0.541
808.000	485.080	80.011	19.996	103.747	18.109	138.018	0.530
816.000	489.211	80.012	19.995	103.705	17.964	148.499	0.499
824.000	493.274	80.012	19.994	103.663	18.017	144.716	0.485
832.000	497.337	80.012	19.994	103.677	18.331	121.903	0.487
840.000	501.409	80.009	19.994	103.724	18.839	85.019	0.505
848.000	505.428	80.009	19.995	103.812	19.346	48.147	0.498
856.000	509.541	80.009	19.995	103.865	19.690	23.099	0.521
864.000	513.594	80.011	19.993	103.872	19.851	11.386	0.540
872.000	517.791	80.009	19.993	103.882	19.919	6.418	0.519
880.000	521.919	80.010	19.993	103.893	19.950	4.140	0.528
888.000	526.139	80.013	19.994	103.900	19.963	3.187	0.556
896.000	530.262	80.011	19.993	103.902	19.972	2.525	0.514
904.000	534.396	80.010	19.994	103.913	19.984	1.669	0.525
912.000	538.433	80.010	19.994	103.908	19.987	1.438	0.489
920.000	542.520	80.010	19.994	103.923	19.994	0.947	0.502
928.000	546.487	80.009	19.996	103.906	19.992	1.078	0.475
936.000	550.449	80.010	19.996	103.906	19.992	1.129	0.474
944.000	554.326	80.010	19.995	103.926	19.994	0.924	0.496
952.000	558.259	80.008	19.993	103.930	19.997	0.767	0.490
960.000	562.178	80.010	19.994	103.941	19.997	0.752	0.489
968.000	566.206	80.011	19.993	103.942	20.001	0.415	0.489
976.000	570.301	80.010	19.992	103.944	19.997	0.710	0.498
984.000	574.429	80.011	19.993	103.949	19.998	0.694	0.523
992.000	578.493	80.013	19.993	103.939	20.003	0.314	0.527
1000.000	582.651	80.009	19.996	103.938	20.000	0.479	0.506
1008.000	586.827	80.009	19.994	103.936	20.001	0.439	0.524
1016.000	591.038	80.009	19.995	103.920	20.003	0.318	0.543
1024.000	595.238	80.011	19.995	103.929	20.004	0.196	0.541
1032.001	599.294	80.008	19.994	103.907	20.007	-0.010	0.510
1040.000	603.262	80.011	19.995	103.904	20.011	-0.320	0.499
1048.000	607.190	80.011	19.994	103.903	20.007	0.012	0.493
1056.000	611.046	80.011	19.995	103.902	20.008	-0.099	0.469
1063.999	614.954	80.011	19.994	103.901	20.013	-0.445	0.496
1071.999	618.887	80.014	19.994	103.905	20.009	-0.130	0.500
1079.999	622.822	80.012	19.995	103.900	20.011	-0.267	0.511
1088.000	626.770	80.010	19.994	103.906	20.012	-0.358	0.493
1095.999	630.721	80.010	19.995	103.909	20.012	-0.372	0.468
1104.000	634.708	80.010	19.995	103.921	20.010	-0.229	0.499
1112.000	638.808	80.010	19.995	103.941	20.011	-0.275	0.521
1120.000	642.896	80.009	19.994	103.934	20.003	0.299	0.539
1128.000	646.999	80.012	19.995	103.937	20.007	-0.020	0.489
1136.001	651.158	80.011	19.994	103.937	20.004	0.214	0.528
1144.000	655.254	80.013	19.995	103.939	20.005	0.180	0.526
1152.000	659.396	80.012	19.994	103.947	20.003	0.322	0.541
1159.999	663.555	80.013	19.994	103.968	20.004	0.255	0.548
1168.000	667.527	80.011	19.993	103.949	20.002	0.366	0.495
1176.001	671.459	80.011	19.993	103.949	20.003	0.322	0.498
1183.999	675.267	80.012	19.993	103.942	20.005	0.180	0.476
1192.000	679.155	80.010	19.995	103.937	20.003	0.275	0.484
1199.999	683.195	80.013	19.995	103.919	20.003	0.285	0.535
1207.999	687.403	80.013	19.995	103.906	20.010	-0.217	0.501
1216.000	691.679	80.010	19.995	103.896	20.018	-0.777	0.558
1223.999	696.097	80.011	19.995	103.898	20.011	-0.289	0.560
1231.999	700.398	80.013	19.994	103.898	20.014	-0.492	0.503
1240.000	704.706	80.014	19.993	103.902	20.014	-0.502	0.515
1248.000	709.023	80.011	19.993	103.902	20.013	-0.401	0.542
1255.999	713.217	80.010	19.993	103.899	20.013	-0.433	0.514
1263.999	717.470	80.012	19.994	103.896	20.013	-0.409	0.520
1272.000	721.577	80.010	19.993	103.900	20.012	-0.334	0.531
1279.999	725.715	80.010	19.994	103.901	20.016	-0.658	0.507
1287.999	729.817	80.011	19.995	103.902	20.014	-0.488	0.486
1295.999	733.942	80.011	19.993	103.896	20.014	-0.500	0.521
1303.999	738.031	80.011	19.995	103.894	20.010	-0.214	0.557
1312.000	742.079	80.011	19.994	103.902	20.010	-0.196	0.489
1314.999	743.602	80.011	19.995	103.891	20.011	-0.283	0.509