Folder: fsri_materials_database/01_Data/Coaxial_Cable/MCC

Note: 01_Data/README.md
# Materials and Products Database
## 01_Data

Raw data generated from each apparatus are included here in plain-text format. The data is organized first by material, next by the short name of test apparatus used, and where applicable additional filtering by test settings.

### material.json

Each material directory contains a json file of the same name as the material. This file links the data stored in the repository as well as data and graphs produced by the accompanying scripts (__02_Scripts__) to the respective landing page for the material on the front-end website.

File: Coaxial_Cable_MCC_30K_min_220113_O1.txt
Sample ID:	C:\MCC\MCC Cal\Test\Coaxial_Cable_MCC_30K_min_220113_R1.txt
Sample Weight (mg):	4.65
Heating Rate (C/s):	0.5
Combustor Temp (C):	900
N2 Flow Rate (cc/min):	80
O2 Flow Rate (cc/min):	20
Calibration File:	C:\MCC\MCC Cal\Coeff1 JN10440_30_210304.txt.txt
T Correction Coefficients:	0	1.024463	0
Time Shift (s):	14
*
Time (s)	Temperature (C)	N2 flow rate (cc/min)	O2 flow rate (cc/min)	Flow Rate (cc/min)	Oxygen (%)	HRR (W/g)	Heating rate (C/s)
-0.001	113.848	80.009	19.993	104.491	20.071	-0.175	0.003
7.999	113.763	80.010	19.994	104.480	20.069	-0.093	-0.021
15.999	113.818	80.011	19.993	104.527	20.067	0.109	0.028
24.000	114.099	80.010	19.994	104.586	20.056	0.825	0.051
32.000	114.559	80.010	19.994	104.645	20.044	1.679	0.077
39.999	115.481	80.012	19.994	104.648	20.040	2.005	0.146
47.999	116.840	80.009	19.996	104.698	20.031	2.575	0.206
56.000	118.625	80.009	19.994	104.718	20.028	2.784	0.278
63.999	120.723	80.010	19.995	104.725	20.026	2.953	0.304
72.000	123.131	80.010	19.993	104.722	20.028	2.824	0.308
80.001	125.818	80.009	19.995	104.732	20.024	3.081	0.361
88.001	128.703	80.009	19.994	104.718	20.030	2.702	0.350
96.000	131.803	80.011	19.993	104.723	20.025	3.023	0.392
104.001	134.972	80.011	19.994	104.723	20.028	2.792	0.368
112.000	138.342	80.011	19.993	104.728	20.023	3.189	0.442
120.000	141.866	80.011	19.994	104.726	20.024	3.099	0.429
128.000	145.494	80.010	19.993	104.736	20.025	3.023	0.459
136.000	149.215	80.009	19.994	104.724	20.022	3.249	0.474
144.000	153.022	80.010	19.996	104.721	20.018	3.486	0.479
152.000	156.830	80.010	19.994	104.720	20.020	3.387	0.458
160.000	160.767	80.012	19.994	104.716	20.019	3.446	0.507
168.000	164.765	80.010	19.995	104.719	20.020	3.346	0.518
176.000	168.746	80.010	19.994	104.721	20.015	3.751	0.469
184.000	172.836	80.012	19.993	104.713	20.012	3.951	0.540
192.000	176.815	80.010	19.993	104.711	20.013	3.886	0.514
200.000	180.913	80.011	19.994	104.699	20.006	4.375	0.557
208.000	184.989	80.014	19.993	104.682	20.006	4.392	0.509
216.000	189.084	80.011	19.994	104.684	20.001	4.739	0.522
224.000	193.034	80.009	19.994	104.671	19.995	5.120	0.482
232.000	197.029	80.010	19.994	104.697	19.984	5.908	0.498
240.000	201.010	80.008	19.993	104.682	19.975	6.573	0.500
248.000	204.993	80.009	19.994	104.685	19.961	7.500	0.524
256.000	209.039	80.009	19.994	104.686	19.952	8.149	0.517
264.000	213.106	80.011	19.993	104.636	19.933	9.466	0.511
272.000	217.168	80.011	19.993	104.677	19.915	10.761	0.473
280.000	221.185	80.011	19.994	104.676	19.893	12.278	0.510
288.000	225.161	80.013	19.993	104.683	19.871	13.844	0.491
296.000	229.255	80.014	19.992	104.662	19.844	15.706	0.497
304.000	233.241	80.010	19.995	104.668	19.811	18.022	0.482
312.000	237.258	80.010	19.994	104.666	19.782	20.121	0.516
320.000	241.318	80.011	19.995	104.671	19.744	22.782	0.522
328.000	245.361	80.009	19.994	104.668	19.702	25.697	0.488
336.000	249.373	80.009	19.995	104.648	19.659	28.740	0.514
344.000	253.446	80.011	19.996	104.648	19.611	32.120	0.461
352.000	257.474	80.012	19.994	104.630	19.566	35.274	0.504
360.000	261.489	80.013	19.994	104.652	19.517	38.729	0.492
368.000	265.513	80.013	19.993	104.661	19.471	41.927	0.528
376.000	269.518	80.014	19.994	104.667	19.416	45.787	0.520
384.000	273.569	80.011	19.992	104.677	19.365	49.397	0.506
392.000	277.547	80.010	19.993	104.671	19.335	51.504	0.475
400.000	281.521	80.010	19.994	104.680	19.323	52.354	0.505
408.000	285.513	80.009	19.993	104.684	19.322	52.432	0.468
416.000	289.536	80.011	19.996	104.683	19.349	50.499	0.475
424.000	293.574	80.009	19.995	104.689	19.410	46.212	0.492
432.000	297.625	80.012	19.995	104.718	19.498	40.092	0.532
440.000	301.625	80.009	19.995	104.744	19.596	33.162	0.488
448.000	305.670	80.012	19.993	104.732	19.709	25.205	0.504
456.000	309.687	80.014	19.993	104.730	19.803	18.630	0.516
464.000	313.760	80.011	19.993	104.701	19.882	13.096	0.499
472.000	317.808	80.009	19.993	104.683	19.934	9.446	0.495
480.000	321.859	80.010	19.992	104.646	19.966	7.144	0.483
488.000	325.905	80.011	19.993	104.607	19.992	5.330	0.509
496.000	329.890	80.011	19.994	104.567	20.010	4.091	0.521
504.000	333.986	80.010	19.995	104.538	20.025	3.010	0.508
512.000	338.024	80.012	19.994	104.543	20.032	2.548	0.518
520.000	342.028	80.011	19.995	104.558	20.043	1.782	0.469
528.000	346.060	80.010	19.993	104.560	20.049	1.349	0.521
536.000	350.172	80.013	19.994	104.565	20.052	1.108	0.540
544.000	354.146	80.013	19.993	104.560	20.057	0.758	0.484
552.000	358.241	80.011	19.993	104.566	20.062	0.445	0.492
560.000	362.269	80.011	19.993	104.568	20.060	0.554	0.480
568.000	366.379	80.010	19.994	104.564	20.061	0.521	0.519
576.000	370.407	80.010	19.993	104.566	20.062	0.433	0.502
584.000	374.459	80.010	19.994	104.563	20.062	0.428	0.491
592.000	378.568	80.011	19.993	104.562	20.061	0.482	0.516
600.000	382.576	80.013	19.994	104.554	20.059	0.628	0.504
608.000	386.629	80.012	19.994	104.562	20.059	0.651	0.480
616.000	390.637	80.012	19.994	104.557	20.058	0.682	0.474
624.000	394.686	80.014	19.995	104.554	20.047	1.467	0.492
632.000	398.976	80.010	19.994	104.542	20.045	1.652	0.957
640.000	402.686	80.010	19.993	104.552	20.029	2.752	0.519
648.000	406.801	80.011	19.993	104.549	20.037	2.204	0.508
656.000	411.028	80.010	19.992	104.549	20.009	4.126	0.476
664.000	415.027	80.010	19.994	104.542	19.988	5.602	0.494
672.000	419.216	80.011	19.994	104.533	19.963	7.349	0.529
680.000	423.332	80.012	19.994	104.546	19.934	9.433	0.509
688.000	427.506	80.012	19.994	104.529	19.896	12.086	0.530
696.000	431.614	80.011	19.993	104.534	19.867	14.089	0.495
704.000	435.772	80.014	19.993	104.533	19.796	19.068	0.526
712.000	439.802	80.011	19.995	104.530	19.740	23.034	0.514
720.000	443.933	80.008	19.995	104.531	19.678	27.363	0.529
728.000	447.980	80.011	19.995	104.522	19.614	31.869	0.534
736.000	452.048	80.012	19.994	104.519	19.546	36.583	0.507
744.000	456.115	80.010	19.993	104.520	19.470	41.944	0.487
752.000	460.213	80.010	19.993	104.512	19.391	47.439	0.534
760.000	464.252	80.013	19.993	104.492	19.290	54.544	0.480
768.000	468.328	80.012	19.992	104.491	19.175	62.581	0.506
776.000	472.452	80.010	19.994	104.465	19.041	71.999	0.492
784.000	476.586	80.012	19.993	104.453	18.886	82.804	0.517
792.000	480.689	80.013	19.994	104.431	18.740	93.035	0.528
800.000	484.806	80.011	19.995	104.406	18.632	100.548	0.529
808.000	488.955	80.010	19.994	104.380	18.619	101.445	0.537
816.000	493.087	80.011	19.995	104.369	18.724	94.147	0.516
824.000	497.238	80.011	19.995	104.367	18.985	75.909	0.521
832.000	501.310	80.012	19.993	104.412	19.332	51.575	0.515
840.000	505.426	80.010	19.993	104.454	19.660	28.621	0.516
848.000	509.466	80.010	19.992	104.492	19.875	13.566	0.488
856.000	513.588	80.012	19.994	104.498	19.980	6.195	0.534
864.000	517.655	80.012	19.992	104.509	20.028	2.817	0.490
872.000	521.799	80.013	19.993	104.501	20.052	1.123	0.532
880.000	525.935	80.012	19.994	104.517	20.066	0.171	0.520
888.000	530.020	80.011	19.995	104.523	20.074	-0.387	0.534
896.000	534.143	80.009	19.993	104.508	20.075	-0.460	0.516
904.000	538.270	80.009	19.995	104.517	20.085	-1.181	0.514
912.000	542.344	80.009	19.995	104.527	20.090	-1.552	0.518
920.000	546.446	80.010	19.994	104.532	20.092	-1.648	0.490
928.000	550.598	80.012	19.994	104.527	20.097	-2.007	0.518
936.000	554.791	80.010	19.994	104.525	20.098	-2.128	0.546
944.000	558.916	80.012	19.994	104.528	20.099	-2.145	0.548
952.000	563.019	80.014	19.992	104.528	20.103	-2.449	0.491
960.000	567.093	80.010	19.993	104.535	20.102	-2.375	0.510
968.000	571.161	80.010	19.993	104.546	20.101	-2.323	0.507
976.000	575.346	80.009	19.994	104.564	20.100	-2.218	0.521
984.000	579.384	80.010	19.994	104.558	20.104	-2.495	0.533
992.000	583.427	80.010	19.993	104.565	20.105	-2.590	0.482
1000.000	587.556	80.011	19.995	104.528	20.108	-2.802	0.494
1008.000	591.605	80.012	19.994	104.525	20.105	-2.606	0.545
1016.000	595.709	80.011	19.993	104.521	20.114	-3.212	0.504
1024.000	599.854	80.011	19.994	104.511	20.115	-3.291	0.569
1032.001	603.888	80.013	19.993	104.513	20.117	-3.402	0.517
1040.000	607.952	80.011	19.993	104.525	20.119	-3.548	0.537
1048.000	612.021	80.010	19.994	104.527	20.120	-3.612	0.508
1056.000	616.169	80.010	19.994	104.518	20.119	-3.600	0.522
1063.999	620.319	80.011	19.995	104.527	20.122	-3.775	0.537
1072.000	624.407	80.009	19.995	104.523	20.121	-3.719	0.512
1080.001	628.458	80.010	19.995	104.523	20.120	-3.659	0.480
1088.001	632.587	80.011	19.993	104.526	20.124	-3.909	0.522
1095.999	636.639	80.011	19.995	104.530	20.123	-3.816	0.483
1104.001	640.636	80.009	19.995	104.529	20.123	-3.820	0.453
1112.000	644.562	80.012	19.992	104.533	20.118	-3.469	0.506
1120.000	648.477	80.013	19.994	104.538	20.115	-3.296	0.489
1128.001	652.503	80.011	19.993	104.558	20.119	-3.580	0.513
1136.001	656.559	80.010	19.993	104.549	20.126	-4.051	0.528
1143.999	660.662	80.011	19.994	104.564	20.119	-3.575	0.501
1151.999	664.712	80.010	19.993	104.568	20.120	-3.633	0.483
1160.000	668.770	80.010	19.996	104.573	20.121	-3.742	0.461
1167.999	672.869	80.011	19.994	104.567	20.120	-3.607	0.476
1176.000	677.029	80.011	19.995	104.566	20.120	-3.670	0.513
1183.999	681.176	80.009	19.993	104.551	20.126	-4.086	0.542
1192.000	685.284	80.010	19.994	104.512	20.131	-4.384	0.482
1199.999	689.412	80.012	19.994	104.516	20.134	-4.642	0.487
1208.001	693.489	80.010	19.994	104.487	20.137	-4.817	0.484
1216.000	697.595	80.009	19.993	104.502	20.137	-4.846	0.490
1224.000	701.619	80.010	19.995	104.482	20.134	-4.629	0.488
1232.000	705.539	80.010	19.993	104.490	20.135	-4.666	0.493
1240.000	709.352	80.009	19.993	104.492	20.134	-4.632	0.478
1248.000	713.045	80.011	19.993	104.492	20.136	-4.790	0.473
1256.000	716.936	80.013	19.992	104.492	20.135	-4.677	0.528
1264.001	721.081	80.011	19.995	104.492	20.133	-4.545	0.544
1272.000	725.235	80.012	19.994	104.488	20.135	-4.694	0.499
1280.001	729.228	80.012	19.995	104.488	20.135	-4.663	0.495
1288.001	733.106	80.011	19.995	104.482	20.134	-4.607	0.484
1296.000	736.916	80.009	19.995	104.488	20.135	-4.656	0.500
1304.000	740.891	80.011	19.994	104.495	20.134	-4.596	0.507
1308.501	743.296	80.010	19.994	104.495	20.131	-4.392	0.535

File: Coaxial_Cable_MCC_30K_min_220113_O2.txt
Sample ID:	C:\MCC\MCC Cal\Test\Coaxial_Cable_MCC_30K_min_220113_R2.txt
Sample Weight (mg):	4.35
Heating Rate (C/s):	0.5
Combustor Temp (C):	900
N2 Flow Rate (cc/min):	80
O2 Flow Rate (cc/min):	20
Calibration File:	C:\MCC\MCC Cal\Coeff1 JN10440_30_210304.txt.txt
T Correction Coefficients:	0	1.024463	0
Time Shift (s):	14
*
Time (s)	Temperature (C)	N2 flow rate (cc/min)	O2 flow rate (cc/min)	Flow Rate (cc/min)	Oxygen (%)	HRR (W/g)	Heating rate (C/s)
0.000	110.942	80.015	19.995	104.373	20.103	-0.178	0.022
8.000	110.888	80.011	19.993	104.385	20.097	0.260	-0.015
16.001	111.009	80.011	19.992	104.472	20.088	0.985	0.031
24.001	111.375	80.010	19.993	104.538	20.074	1.983	0.061
32.001	112.171	80.011	19.993	104.581	20.063	2.825	0.110
40.001	113.454	80.011	19.994	104.577	20.063	2.863	0.189
48.001	115.179	80.012	19.994	104.612	20.056	3.337	0.217
56.001	117.288	80.013	19.993	104.641	20.048	3.928	0.271
64.001	119.729	80.011	19.994	104.637	20.051	3.726	0.321
72.001	122.431	80.013	19.994	104.641	20.049	3.869	0.367
80.000	125.499	80.013	19.994	104.640	20.049	3.893	0.406
88.001	128.674	80.011	19.993	104.647	20.044	4.263	0.416
96.000	132.147	80.009	19.993	104.648	20.041	4.460	0.449
104.001	135.741	80.010	19.994	104.652	20.043	4.329	0.466
112.001	139.471	80.011	19.993	104.647	20.042	4.371	0.461
120.001	143.314	80.011	19.993	104.645	20.044	4.288	0.504
128.001	147.309	80.011	19.993	104.645	20.041	4.472	0.507
136.001	151.297	80.014	19.994	104.641	20.041	4.478	0.496
144.000	155.291	80.012	19.994	104.624	20.044	4.242	0.488
152.001	159.334	80.013	19.994	104.634	20.046	4.133	0.500
160.001	163.351	80.013	19.993	104.618	20.043	4.347	0.510
168.000	167.397	80.011	19.993	104.607	20.038	4.679	0.477
176.000	171.364	80.009	19.994	104.613	20.039	4.660	0.464
184.000	175.400	80.012	19.993	104.606	20.036	4.887	0.504
192.001	179.360	80.012	19.993	104.604	20.033	5.115	0.499
200.001	183.285	80.011	19.993	104.604	20.027	5.505	0.490
208.001	187.245	80.011	19.994	104.599	20.025	5.696	0.547
216.001	191.063	80.013	19.992	104.597	20.017	6.242	0.456
224.001	194.989	80.012	19.993	104.601	20.014	6.496	0.498
232.000	198.831	80.011	19.994	104.602	20.003	7.295	0.486
240.001	202.694	80.014	19.994	104.588	19.990	8.270	0.483
248.001	206.505	80.014	19.993	104.571	19.980	9.067	0.502
256.000	210.305	80.011	19.996	104.588	19.966	10.092	0.454
264.000	214.207	80.011	19.994	104.570	19.952	11.148	0.490
272.001	218.065	80.014	19.994	104.572	19.934	12.535	0.522
280.000	221.917	80.012	19.993	104.569	19.915	13.955	0.476
288.000	225.840	80.011	19.994	104.573	19.894	15.524	0.460
296.000	229.854	80.012	19.993	104.575	19.871	17.251	0.464
304.001	233.782	80.014	19.994	104.566	19.848	18.926	0.455
312.000	237.750	80.010	19.992	104.571	19.817	21.260	0.490
320.000	241.701	80.012	19.992	104.571	19.787	23.522	0.470
328.000	245.715	80.017	19.993	104.566	19.753	26.049	0.513
336.000	249.783	80.009	19.995	104.568	19.717	28.767	0.523
344.000	253.824	80.012	19.994	104.569	19.679	31.612	0.508
352.000	257.777	80.011	19.994	104.568	19.648	33.950	0.483
360.000	261.789	80.010	19.994	104.567	19.606	37.091	0.478
368.000	265.805	80.010	19.994	104.569	19.562	40.400	0.503
376.000	269.749	80.011	19.993	104.592	19.516	43.863	0.465
384.000	273.775	80.011	19.993	104.583	19.480	46.544	0.493
392.000	277.782	80.011	19.993	104.576	19.466	47.605	0.523
400.000	281.757	80.012	19.993	104.585	19.454	48.498	0.481
408.000	285.801	80.015	19.993	104.590	19.467	47.525	0.483
416.000	289.795	80.012	19.993	104.604	19.496	45.396	0.505
424.000	293.796	80.013	19.994	104.608	19.546	41.598	0.502
432.000	297.774	80.012	19.994	104.627	19.608	36.982	0.497
440.000	301.778	80.011	19.993	104.642	19.676	31.862	0.493
448.001	305.785	80.012	19.994	104.633	19.757	25.765	0.496
456.000	309.838	80.013	19.995	104.620	19.830	20.315	0.520
464.000	313.984	80.014	19.994	104.602	19.888	15.942	0.520
472.000	318.102	80.011	19.994	104.580	19.932	12.620	0.533
480.000	322.229	80.011	19.993	104.564	19.959	10.643	0.536
488.001	326.307	80.014	19.993	104.544	19.981	8.953	0.494
496.001	330.378	80.014	19.993	104.527	20.001	7.502	0.460
504.000	334.507	80.012	19.992	104.500	20.016	6.382	0.524
512.001	338.551	80.015	19.993	104.492	20.018	6.175	0.501
520.000	342.560	80.011	19.993	104.499	20.025	5.707	0.504
528.000	346.601	80.012	19.993	104.505	20.029	5.371	0.483
536.001	350.731	80.011	19.993	104.523	20.033	5.109	0.425
544.000	354.647	80.011	19.993	104.526	20.036	4.883	0.513
552.000	358.628	80.012	19.994	104.528	20.037	4.742	0.511
560.000	362.727	80.010	19.993	104.529	20.033	5.093	0.476
568.000	366.782	80.014	19.992	104.537	20.038	4.681	0.508
576.000	370.843	80.013	19.993	104.531	20.040	4.534	0.516
584.000	374.919	80.010	19.993	104.525	20.040	4.557	0.497
592.001	378.988	80.010	19.993	104.525	20.034	5.012	0.510
600.000	383.079	80.009	19.992	104.523	20.032	5.174	0.537
608.000	387.167	80.012	19.994	104.528	20.029	5.346	0.522
616.000	391.270	80.011	19.995	104.525	20.029	5.367	0.526
624.000	395.426	80.012	19.993	104.524	20.021	6.011	0.537
632.000	399.511	80.012	19.993	104.528	20.013	6.609	0.498
640.000	403.575	80.012	19.994	104.516	20.004	7.268	0.471
648.001	407.638	80.013	19.994	104.524	19.993	8.052	0.508
656.000	411.748	80.015	19.993	104.517	19.982	8.894	0.528
664.000	415.765	80.014	19.994	104.524	19.965	10.196	0.520
672.000	419.782	80.012	19.994	104.522	19.942	11.871	0.506
680.000	423.877	80.011	19.994	104.520	19.918	13.698	0.519
688.000	427.877	80.012	19.994	104.521	19.883	16.308	0.478
696.000	431.924	80.012	19.992	104.528	19.845	19.196	0.508
704.000	436.112	80.012	19.992	104.527	19.800	22.542	0.520
712.000	440.419	80.013	19.993	104.516	19.739	27.128	0.552
720.000	444.692	80.012	19.994	104.508	19.666	32.614	0.519
728.000	449.093	80.012	19.993	104.500	19.583	38.801	0.550
736.000	453.445	80.013	19.995	104.490	19.500	44.998	0.517
744.000	457.803	80.013	19.994	104.484	19.397	52.754	0.553
752.000	462.183	80.012	19.992	104.483	19.264	62.662	0.562
760.000	466.435	80.012	19.993	104.471	19.104	74.667	0.533
768.000	470.721	80.011	19.993	104.456	18.905	89.571	0.539
776.000	474.942	80.011	19.992	104.411	18.662	107.729	0.523
784.000	479.105	80.011	19.994	104.388	18.388	128.126	0.518
792.000	483.283	80.012	19.994	104.333	18.093	150.098	0.541
800.000	487.413	80.013	19.994	104.279	17.869	166.800	0.509
808.000	491.544	80.012	19.995	104.220	17.823	170.260	0.550
816.000	495.693	80.012	19.993	104.213	18.055	152.989	0.544
824.000	499.727	80.012	19.993	104.262	18.521	118.235	0.518
832.000	503.812	80.010	19.995	104.323	19.102	74.798	0.509
840.000	507.853	80.010	19.995	104.416	19.570	39.748	0.484
848.000	511.939	80.011	19.995	104.477	19.837	19.738	0.509
856.000	515.943	80.012	19.993	104.484	19.949	11.361	0.498
864.000	520.078	80.010	19.994	104.473	19.993	8.101	0.525
872.001	524.148	80.011	19.994	104.486	20.014	6.528	0.485
880.000	528.187	80.013	19.993	104.486	20.024	5.733	0.488
888.000	532.180	80.011	19.993	104.487	20.029	5.357	0.515
896.000	536.247	80.012	19.993	104.501	20.035	4.954	0.541
904.000	540.304	80.013	19.994	104.495	20.042	4.419	0.486
912.000	544.379	80.013	19.994	104.494	20.040	4.578	0.502
920.000	548.406	80.011	19.994	104.488	20.048	3.931	0.501
928.000	552.454	80.011	19.993	104.496	20.055	3.453	0.490
936.000	556.441	80.011	19.995	104.507	20.052	3.655	0.493
944.000	560.348	80.011	19.994	104.513	20.052	3.633	0.509
952.000	564.210	80.010	19.994	104.528	20.048	3.980	0.494
960.000	568.135	80.013	19.994	104.528	20.052	3.635	0.515
968.001	572.030	80.011	19.993	104.524	20.052	3.672	0.477
976.000	576.088	80.012	19.994	104.527	20.052	3.684	0.512
984.000	579.952	80.012	19.992	104.517	20.052	3.665	0.476
992.000	583.889	80.014	19.993	104.502	20.053	3.559	0.477
1000.000	587.794	80.013	19.993	104.507	20.060	3.056	0.493
1008.000	591.715	80.010	19.993	104.493	20.061	2.994	0.487
1016.000	595.960	80.011	19.994	104.506	20.063	2.813	0.528
1024.000	600.227	80.010	19.994	104.498	20.063	2.861	0.555
1032.000	604.622	80.010	19.994	104.494	20.060	3.069	0.542
1040.000	609.079	80.011	19.994	104.492	20.058	3.216	0.568
1048.001	613.492	80.014	19.993	104.487	20.063	2.807	0.509
1056.000	617.705	80.012	19.995	104.487	20.059	3.135	0.512
1064.001	621.745	80.013	19.996	104.487	20.060	3.052	0.480
1072.001	625.615	80.013	19.993	104.485	20.067	2.514	0.483
1080.000	629.370	80.012	19.993	104.489	20.056	3.353	0.466
1088.001	633.118	80.010	19.993	104.495	20.056	3.330	0.472
1096.000	636.883	80.011	19.994	104.501	20.060	3.042	0.503
1104.000	640.630	80.012	19.993	104.526	20.061	2.990	0.447
1112.001	644.574	80.012	19.993	104.508	20.056	3.373	0.512
1120.001	648.545	80.011	19.995	104.521	20.055	3.390	0.508
1128.001	652.545	80.012	19.995	104.523	20.051	3.738	0.476
1136.001	656.621	80.012	19.994	104.527	20.056	3.361	0.493
1144.001	660.603	80.012	19.992	104.527	20.062	2.891	0.502
1152.000	664.580	80.013	19.993	104.528	20.059	3.130	0.497
1160.000	668.461	80.013	19.993	104.530	20.057	3.259	0.477
1168.001	672.526	80.013	19.993	104.531	20.057	3.261	0.517
1176.001	676.537	80.010	19.993	104.525	20.060	3.015	0.518
1184.000	680.594	80.029	19.997	104.525	20.064	2.755	0.539
1192.000	684.654	80.010	19.995	104.494	20.066	2.570	0.504
1200.001	688.844	80.010	19.995	104.476	20.066	2.587	0.543
1208.001	692.900	80.012	19.993	104.482	20.073	2.076	0.491
1216.001	697.031	80.012	19.994	104.474	20.071	2.253	0.507
1224.000	701.084	80.011	19.995	104.479	20.070	2.327	0.508
1232.001	705.288	80.013	19.993	104.488	20.064	2.720	0.526
1240.000	709.700	80.014	19.992	104.486	20.065	2.697	0.509
1248.001	714.142	80.012	19.993	104.484	20.065	2.672	0.618
1256.001	718.736	80.011	19.993	104.483	20.067	2.526	0.589
1264.000	723.143	80.013	19.994	104.480	20.063	2.823	0.549
1272.000	727.412	80.011	19.993	104.462	20.062	2.863	0.515
1280.001	731.556	80.013	19.993	104.469	20.064	2.740	0.520
1288.001	735.630	80.011	19.993	104.460	20.068	2.446	0.523
1296.001	739.656	80.012	19.994	104.482	20.067	2.524	0.503
1304.000	743.544	80.013	19.994	104.459	20.066	2.598	0.490
1305.001	744.049	80.013	19.994	104.463	20.066	2.594	0.509