Folder: fsri_materials_database/01_Data/Bean_Bag_Chair_Beads/STA/N2/10K_min (part 2)

File: Bean_Bag_PS_Beads_STA_N2_10KData_220518_R3.csv
##Temp./Â°C,Time/min,Mass loss(subtr.2)/mg,DSC(subtr.2)/(mW/mg),Sensit./(uV/mW)
49.589,10.00917,-0.01252,0.006348899,1.07021
51.789,11.15503,-0.0124136,0.08760259,1.0696
53.989,11.51875,-0.01200677,0.12817,1.06899
56.189,11.81512,-0.0135855,0.15614,1.06838
58.389,12.08371,-0.01294445,0.17173,1.06776
60.589,12.3384,-0.01426618,0.1847,1.06713
62.789,12.58554,-0.01282746,0.1943,1.0665
64.989,12.82656,-0.01283264,0.19995,1.06586
67.189,13.0642,-0.0128135,0.20609,1.06522
69.389,13.2998,-0.01290962,0.20916,1.06458
71.589,13.5334,-0.0139976,0.21319,1.06393
73.789,13.76486,-0.01468984,0.21947,1.06327
75.989,13.99531,-0.01415289,0.22305,1.06261
78.189,14.22425,-0.01637666,0.23017,1.06194
80.389,14.4512,-0.01404998,0.23903,1.06127
82.589,14.67697,-0.01396841,0.24395,1.06059
84.789,14.90042,-0.01429373,0.24147,1.05991
86.989,15.12287,-0.01441693,0.23428,1.05923
89.189,15.343,-0.0145027,0.22835,1.05853
91.389,15.56289,-0.01449857,0.22978,1.05784
93.589,15.78135,-0.01448704,0.23453,1.05714
95.789,15.9989,-0.01580999,0.24128,1.05643
97.989,16.21602,-0.01713223,0.25237,1.05572
100.189,16.43242,-0.01451654,0.2627,1.055
102.389,16.6485,-0.0158108,0.27728,1.05428
104.589,16.86372,-0.0161063,0.29081,1.05355
106.789,17.0786,-0.01680135,0.29926,1.05282
108.989,17.2937,-0.01763742,0.30435,1.05208
111.189,17.50809,-0.0181101,0.30486,1.05133
113.389,17.7226,-0.01811602,0.30538,1.05059
115.589,17.93619,-0.01810994,0.30644,1.04983
117.789,18.14909,-0.0167897,0.30386,1.04907
119.989,18.36205,-0.01682905,0.30595,1.04831
122.189,18.5756,-0.02066255,0.3092,1.04754
124.389,18.7887,-0.01779324,0.3073,1.04676
126.589,19.00018,-0.01910004,0.30876,1.04598
128.789,19.2127,-0.01975957,0.31078,1.0452
130.989,19.42501,-0.01976001,0.31143,1.04441
133.189,19.63715,-0.02037191,0.31095,1.04361
135.389,19.84856,-0.02041082,0.3094,1.04281
137.589,20.06036,-0.02075,0.31067,1.042
139.789,20.2716,-0.02173762,0.31201,1.04119
141.989,20.48242,-0.02206,0.3113,1.04037
144.189,20.69463,-0.02171377,0.31278,1.03955
146.389,20.90598,-0.02139333,0.31316,1.03872
148.589,21.11702,-0.02174,0.31568,1.03789
150.789,21.32753,-0.02173964,0.31457,1.03705
152.989,21.53884,-0.02305,0.31189,1.03621
155.189,21.74906,-0.02437,0.31087,1.03536
157.389,21.96047,-0.02304999,0.31399,1.0345
159.589,22.17095,-0.02305001,0.31079,1.03364
161.789,22.38114,-0.0243581,0.307,1.03278
163.989,22.592,-0.02174794,0.30761,1.03191
166.189,22.8026,-0.02338,0.30518,1.03103
168.389,23.01287,-0.0259129,0.3063,1.03015
170.589,23.22316,-0.02283,0.30365,1.02926
172.789,23.43414,-0.02284001,0.30363,1.02837
174.989,23.64445,-0.02416,0.30397,1.02747
177.189,23.85539,-0.02286746,0.3059,1.02656
179.389,24.06596,-0.02547001,0.30909,1.02565
181.589,24.276,-0.02480632,0.31165,1.02474
183.789,24.48616,-0.02513977,0.32016,1.02382
185.989,24.6963,-0.02646178,0.32614,1.02289
188.189,24.9059,-0.02697098,0.33079,1.02196
190.389,25.11522,-0.02672048,0.33399,1.02102
192.589,25.32457,-0.02677878,0.33841,1.02008
194.789,25.53369,-0.0278152,0.34159,1.01913
196.989,25.74271,-0.02660012,0.34187,1.01818
199.189,25.95199,-0.02590603,0.34148,1.01722
201.389,26.16124,-0.02822287,0.342,1.01625
203.589,26.3706,-0.02755984,0.34131,1.01528
205.789,26.58039,-0.02886997,0.34425,1.01431
207.989,26.78995,-0.02755,0.34489,1.01332
210.189,26.99945,-0.02754507,0.34369,1.01234
212.389,27.20921,-0.03052369,0.34763,1.01134
214.589,27.4186,-0.02766133,0.34668,1.01034
216.789,27.6283,-0.02931,0.34734,1.00934
218.989,27.8377,-0.03063014,0.34922,1.00833
221.189,28.048,-0.03206293,0.34979,1.00731
223.389,28.2573,-0.03063,0.35073,1.00629
225.589,28.4664,-0.03078273,0.35236,1.00526
227.789,28.6759,-0.03200437,0.35499,1.00423
229.989,28.885,-0.03195393,0.35509,1.00319
232.189,29.09442,-0.03326,0.35501,1.00215
234.389,29.3034,-0.03425762,0.35749,1.0011
236.589,29.51316,-0.03425,0.35796,1.00004
238.789,29.7223,-0.03424988,0.35947,0.99898
240.989,29.93158,-0.0359465,0.36159,0.99791
243.189,30.1412,-0.03459096,0.36247,0.99684
245.389,30.35063,-0.03557004,0.3613,0.99576
247.589,30.55889,-0.0362292,0.36068,0.99467
249.789,30.76908,-0.03753967,0.36244,0.99358
251.989,30.97774,-0.03753758,0.36226,0.99249
254.189,31.18675,-0.03928249,0.36527,0.99138
256.389,31.39712,-0.04083993,0.36273,0.99028
258.589,31.60636,-0.0439771,0.36452,0.98916
260.789,31.8162,-0.04171,0.36545,0.98804
262.989,32.02551,-0.04170293,0.36631,0.98692
265.189,32.23451,-0.04335996,0.36563,0.98579
267.389,32.44401,-0.04600006,0.36842,0.98465
269.589,32.6531,-0.04467711,0.37031,0.98351
271.789,32.863,-0.04599908,0.36963,0.98236
273.989,33.0726,-0.04667809,0.37233,0.9812
276.189,33.28239,-0.04929119,0.37069,0.98004
278.389,33.49223,-0.05093995,0.37309,0.97888
280.589,33.70261,-0.05286072,0.37468,0.9777
282.789,33.91137,-0.05455991,0.37486,0.97653
284.989,34.1226,-0.05586993,0.37812,0.97534
287.189,34.33248,-0.05887028,0.37947,0.97415
289.389,34.5423,-0.05883999,0.38099,0.97296
291.589,34.7528,-0.06278886,0.38291,0.97175
293.789,34.9629,-0.06543027,0.38526,0.97055
295.989,35.17302,-0.0667505,0.38471,0.96933
298.189,35.3829,-0.07009428,0.38459,0.96811
300.389,35.59359,-0.07065503,0.38774,0.96689
302.589,35.80357,-0.07464817,0.38923,0.96566
304.789,36.0148,-0.07861837,0.39073,0.96442
306.989,36.22501,-0.0799182,0.39075,0.96318
309.189,36.43524,-0.08253986,0.39405,0.96193
311.389,36.6458,-0.08585,0.39594,0.96068
313.589,36.85602,-0.08848115,0.39703,0.95941
315.789,37.067,-0.09111684,0.39903,0.95815
317.989,37.2776,-0.09333436,0.40035,0.95688
320.189,37.4882,-0.09517664,0.40246,0.9556
322.389,37.6998,-0.10045,0.40767,0.95431
324.589,37.9107,-0.10576,0.41042,0.95302
326.789,38.1222,-0.10841,0.41395,0.95173
328.989,38.33354,-0.11231,0.41671,0.95042
331.189,38.5448,-0.11759,0.42274,0.94912
333.389,38.75615,-0.12296,0.43019,0.9478
335.589,38.96776,-0.12736,0.43575,0.94648
337.789,39.17907,-0.13296,0.44139,0.94516
339.989,39.39049,-0.13808,0.44857,0.94383
342.189,39.60202,-0.14634,0.45687,0.94249
344.389,39.81371,-0.15439,0.46628,0.94115
346.589,40.0253,-0.16068,0.47171,0.9398
348.789,40.23785,-0.16972,0.4844,0.93844
350.989,40.44992,-0.18001,0.4956,0.93708
353.189,40.66186,-0.19098,0.51156,0.93571
355.389,40.87388,-0.20223,0.52582,0.93434
357.589,41.0869,-0.2141,0.54428,0.93296
359.789,41.29973,-0.22903,0.56362,0.93158
361.989,41.51272,-0.24467,0.5891,0.93019
364.189,41.72606,-0.2618,0.61587,0.92879
366.389,41.939,-0.28235,0.64515,0.92739
368.589,42.15186,-0.3034,0.67897,0.92598
370.789,42.36513,-0.3264,0.71607,0.92456
372.989,42.57864,-0.35347,0.75885,0.92314
375.189,42.79202,-0.38327,0.80605,0.92172
377.389,43.0058,-0.4178,0.85846,0.92029
379.589,43.21915,-0.45318,0.91863,0.91885
381.789,43.43326,-0.49537,0.98661,0.91741
383.989,43.64739,-0.54193,1.06587,0.91596
386.189,43.86142,-0.59375,1.15624,0.9145
388.389,44.0754,-0.65392,1.26202,0.91304
390.589,44.28987,-0.72016,1.38135,0.91157
392.789,44.5045,-0.79412,1.51337,0.9101
394.989,44.71904,-0.88106,1.66663,0.90862
397.189,44.93456,-0.97673,1.82796,0.90714
399.389,45.15018,-1.08507,2.01393,0.90565
401.589,45.36623,-1.2084,2.22599,0.90415
403.789,45.58266,-1.34464,2.42386,0.90265
405.989,45.798,-1.49776,2.62661,0.90114
408.189,46.01478,-1.66238,2.823,0.89963
410.389,46.23127,-1.84264,2.99486,0.89811
412.589,46.44749,-2.03398,3.13197,0.89659
414.789,46.6634,-2.23432,3.22754,0.89506
416.989,46.87857,-2.44112,3.24926,0.89352
419.189,47.09339,-2.64397,3.192,0.89198
421.389,47.30761,-2.84112,3.03719,0.89043
423.589,47.52028,-3.0281,2.80791,0.88888
425.789,47.732,-3.19664,2.50567,0.88732
427.989,47.94473,-3.34556,2.14048,0.88575
430.189,48.15594,-3.4703,1.75085,0.88418
432.389,48.36704,-3.5712,1.37534,0.88261
434.589,48.57824,-3.64944,1.04405,0.88103
436.789,48.7885,-3.71093,0.77447,0.87944
438.989,49.00029,-3.75628,0.56072,0.87785
441.189,49.2129,-3.79103,0.39808,0.87625
443.389,49.42605,-3.81598,0.27893,0.87464
445.589,49.63937,-3.83485,0.19116,0.87304
447.789,49.85366,-3.85041,0.12725,0.87142
449.989,50.06755,-3.8617,0.07581165,0.8698
452.189,50.28178,-3.87113,0.03972189,0.86817
454.389,50.49677,-3.87733,0.00886886,0.86654
456.589,50.71265,-3.88233,-0.009862466,0.8649
458.789,50.92797,-3.88803,-0.03101154,0.86326
460.989,51.14355,-3.88913,-0.05105529,0.86161
463.189,51.35933,-3.89149,-0.06637013,0.85996
465.389,51.57489,-3.89282,-0.07794469,0.8583
467.589,51.79092,-3.89248,-0.08014767,0.85664
469.789,52.00647,-3.89149,-0.07429676,0.85497
471.989,52.2228,-3.89149,-0.07301209,0.85329
474.189,52.439,-3.89346,-0.07132947,0.85161
476.389,52.6548,-3.89082,-0.07371464,0.84993
478.589,52.8712,-3.89306,-0.07868885,0.84824
480.789,53.0876,-3.89214,-0.08357436,0.84654
482.989,53.30376,-3.89173,-0.0910183,0.84484
485.189,53.5211,-3.89201,-0.09662692,0.84313
487.389,53.7381,-3.89182,-0.09813558,0.84142
489.589,53.9549,-3.89316,-0.09858584,0.8397
491.789,54.17103,-3.89176,-0.09870643,0.83798
493.989,54.38848,-3.89225,-0.10124,0.83625
496.189,54.60516,-3.89226,-0.10428,0.83452
498.389,54.82269,-3.89138,-0.10381,0.83278
500.589,55.04036,-3.8927,-0.10753,0.83104
502.789,55.25765,-3.89336,-0.10658,0.82929
504.989,55.4759,-3.89369,-0.10967,0.82753
507.189,55.6939,-3.89402,-0.11029,0.82577
509.389,55.91115,-3.89303,-0.11143,0.82401
511.589,56.12876,-3.89171,-0.11356,0.82224
513.789,56.3464,-3.89243,-0.11387,0.82047
515.989,56.56361,-3.89368,-0.11737,0.81869
518.189,56.7801,-3.89302,-0.116,0.81691
520.389,56.99855,-3.89302,-0.11908,0.81512
522.589,57.216,-3.89434,-0.11926,0.81333
524.789,57.43348,-3.89302,-0.11963,0.81153
526.989,57.65124,-3.89302,-0.12032,0.80972
529.189,57.8686,-3.89302,-0.12038,0.80792
531.389,58.0862,-3.89217,-0.1216,0.8061
533.589,58.30396,-3.89412,-0.11949,0.80429
535.789,58.52168,-3.89413,-0.12057,0.80246
537.989,58.7391,-3.8938,-0.12391,0.80064
540.189,58.95665,-3.8938,-0.1254,0.79881
542.389,59.17386,-3.8938,-0.12582,0.79697
544.589,59.3917,-3.89521,-0.12651,0.79513
546.789,59.60941,-3.8938,-0.12701,0.79328
548.989,59.82719,-3.89494,-0.12969,0.79143
550.689,59.99592,-3.89347,-0.13172,0.79