Folder: fsri_materials_database/01_Data/Bean_Bag_Chair_Beads/STA/N2/10K_min

Note: 01_Data/README.md
# Materials and Products Database
## 01_Data

Raw data generated from each apparatus are included here in plain-text format. The data is organized first by material, next by the short name of test apparatus used, and where applicable additional filtering by test settings.

### material.json

Each material directory contains a json file of the same name as the material. This file links the data stored in the repository as well as data and graphs produced by the accompanying scripts (__02_Scripts__) to the respective landing page for the material on the front-end website.

File: Bean_Bag_Chair_Beads_STA_N2_10KData_220518_R2.csv
##Temp./Â°C,Time/min,Mass loss(subtr.2)/mg,DSC(subtr.2)/(mW/mg),Sensit./(uV/mW)
49.738,10.01,0.00505,-0.01056838,1.07017
51.938,11.15434,0.005795258,0.06738438,1.06956
54.138,11.51389,0.006196623,0.1131,1.06895
56.338,11.80986,0.005601081,0.14158,1.06833
58.538,12.0771,0.00613791,0.1577,1.06771
60.738,12.3302,0.004619132,0.16724,1.06709
62.938,12.5763,0.004633399,0.1757,1.06646
65.138,12.8147,0.004588228,0.18201,1.06582
67.338,13.05485,0.004608327,0.18625,1.06518
69.538,13.29115,0.00461021,0.18925,1.06453
71.738,13.5243,0.004423021,0.19482,1.06388
73.938,13.7562,0.005953624,0.19996,1.06322
76.138,13.98686,0.005602006,0.20613,1.06256
78.338,14.21502,0.00613212,0.2104,1.0619
80.538,14.4423,0.006025873,0.21938,1.06122
82.738,14.6679,0.005872869,0.22231,1.06055
84.938,14.89202,0.006027638,0.22247,1.05987
87.138,15.11461,0.007349001,0.21443,1.05918
89.338,15.33585,0.004715779,0.20917,1.05849
91.538,15.5558,0.007260096,0.20877,1.05779
93.738,15.77457,0.006042341,0.21159,1.05709
95.938,15.99368,0.007349926,0.21782,1.05638
98.138,16.2116,0.006031297,0.22478,1.05567
100.338,16.428,0.00469546,0.23535,1.05495
102.538,16.64433,0.005820975,0.25192,1.05423
104.738,16.86074,0.006250001,0.2651,1.0535
106.938,17.07584,0.005931503,0.27686,1.05277
109.138,17.29164,0.003831502,0.28078,1.05203
111.338,17.5069,0.00494,0.28198,1.05128
113.538,17.72178,0.004940549,0.28298,1.05053
115.738,17.93605,0.005002158,0.28457,1.04978
117.938,18.15107,0.004600019,0.28491,1.04902
120.138,18.36479,0.003282382,0.28696,1.04826
122.338,18.57817,0.003290018,0.28571,1.04749
124.538,18.79213,0.002514155,0.28681,1.04671
126.738,19.00553,0.00292362,0.286,1.04593
128.938,19.21855,0.002519926,0.28834,1.04515
131.138,19.4312,0.00252004,0.29126,1.04435
133.338,19.64329,0.00153707,0.29274,1.04356
135.538,19.85558,0.00154008,0.29356,1.04276
137.738,20.0674,0.0002195249,0.29558,1.04195
139.938,20.27959,0.001529989,0.29822,1.04114
142.138,20.49098,0.0005400413,0.29937,1.04032
144.338,20.70245,-0.0001261744,0.30026,1.0395
146.538,20.91378,0.0003307017,0.3025,1.03867
148.738,21.12464,-9.74891e-05,0.30411,1.03783
150.938,21.33523,-0.0001090956,0.30367,1.037
153.138,21.5457,-0.00142915,0.30421,1.03615
155.338,21.75544,-0.0001199884,0.3067,1.0353
157.538,21.96594,-0.0007796796,0.30506,1.03445
159.738,22.17551,-0.0001200012,0.30486,1.03358
161.938,22.38629,-0.001111706,0.30519,1.03272
164.138,22.59654,-0.002082192,0.30722,1.03185
166.338,22.80665,-0.00179471,0.30714,1.03097
168.538,23.01643,-0.001266168,0.30576,1.03009
170.738,23.22654,-0.002089737,0.30764,1.0292
172.938,23.43674,-0.004390638,0.30897,1.02831
175.138,23.64645,-0.00340031,0.30988,1.02741
177.338,23.8568,-0.003723428,0.31423,1.0265
179.538,24.0661,-0.00373995,0.31589,1.02559
181.738,24.2758,-0.004708225,0.32431,1.02468
183.938,24.48605,-0.004734401,0.32861,1.02376
186.138,24.6955,-0.004399091,0.33567,1.02283
188.338,24.90567,-0.004289989,0.33905,1.0219
190.538,25.11541,-0.004621733,0.34402,1.02096
192.738,25.32485,-0.005930021,0.34601,1.02002
194.938,25.53407,-0.005234065,0.34782,1.01907
197.138,25.74364,-0.006589999,0.34964,1.01811
199.338,25.9531,-0.00791026,0.35256,1.01715
201.538,26.16226,-0.006240456,0.3536,1.01619
203.738,26.37128,-0.005930585,0.3564,1.01522
205.938,26.581,-0.00725,0.35833,1.01424
208.138,26.79,-0.007250114,0.35832,1.01326
210.338,26.99928,-0.008227957,0.36091,1.01227
212.538,27.2082,-0.007248175,0.36297,1.01128
214.738,27.41715,-0.00782696,0.36474,1.01028
216.938,27.6264,-0.00790947,0.36484,1.00927
219.138,27.835,-0.01020891,0.36393,1.00826
221.338,28.04513,-0.00923,0.36616,1.00724
223.538,28.2541,-0.009230008,0.36816,1.00622
225.738,28.4639,-0.01022,0.36673,1.00519
227.938,28.67328,-0.009490118,0.36783,1.00416
230.138,28.883,-0.009571567,0.3706,1.00312
232.338,29.0922,-0.01154,0.3708,1.00208
234.538,29.30193,-0.01055025,0.36942,1.00103
236.738,29.51142,-0.01252,0.37171,0.99997
238.938,29.72075,-0.01288119,0.37205,0.99891
241.138,29.93018,-0.01318,0.3744,0.99784
243.338,30.1397,-0.01449,0.37614,0.99676
245.538,30.3486,-0.01511626,0.37937,0.99569
247.738,30.55817,-0.01581001,0.38071,0.9946
249.938,30.7673,-0.01586704,0.38348,0.99351
252.138,30.97624,-0.01779,0.38537,0.99241
254.338,31.1852,-0.01779013,0.38882,0.99131
256.538,31.39382,-0.01779192,0.38795,0.9902
258.738,31.60306,-0.01778731,0.38895,0.98909
260.938,31.81226,-0.0194125,0.3897,0.98797
263.138,32.02126,-0.02241484,0.39005,0.98684
265.338,32.231,-0.02405,0.39424,0.98571
267.538,32.44034,-0.02436512,0.39228,0.98457
269.738,32.65007,-0.02438,0.39414,0.98343
271.938,32.85938,-0.02701,0.39421,0.98228
274.138,33.06957,-0.02669349,0.39663,0.98112
276.338,33.27899,-0.02833054,0.39794,0.97996
278.538,33.489,-0.03062999,0.39947,0.9788
280.738,33.69919,-0.03195,0.40274,0.97762
282.938,33.90932,-0.03327,0.40342,0.97645
285.138,34.1193,-0.03490158,0.40843,0.97526
287.338,34.32958,-0.03622225,0.41086,0.97407
289.538,34.5398,-0.0391898,0.41103,0.97288
291.738,34.74929,-0.04216018,0.41494,0.97167
293.938,34.9598,-0.04249384,0.41777,0.97047
296.138,35.16985,-0.04611939,0.42028,0.96925
298.338,35.3799,-0.04875,0.41882,0.96803
300.538,35.58971,-0.05138088,0.41956,0.96681
302.738,35.79992,-0.05269998,0.42147,0.96557
304.938,36.0102,-0.05633167,0.42241,0.96434
307.138,36.2202,-0.05766432,0.42498,0.96309
309.338,36.43045,-0.06064894,0.43073,0.96184
311.538,36.6401,-0.0642299,0.43127,0.96059
313.738,36.85037,-0.06555013,0.43302,0.95933
315.938,37.06085,-0.06952833,0.43324,0.95806
318.138,37.2716,-0.07391063,0.43761,0.95679
320.338,37.48273,-0.07672973,0.44008,0.95551
322.538,37.69423,-0.0797105,0.44494,0.95423
324.738,37.90567,-0.08269445,0.44946,0.95294
326.938,38.11712,-0.08913173,0.4541,0.95164
329.138,38.32802,-0.0918595,0.46013,0.95034
331.338,38.53985,-0.09716514,0.46457,0.94903
333.538,38.7513,-0.10392,0.47213,0.94771
335.738,38.96282,-0.10852,0.47946,0.94639
337.938,39.1737,-0.11384,0.48521,0.94507
340.138,39.38565,-0.1193,0.49385,0.94374
342.338,39.59767,-0.12624,0.50209,0.9424
344.538,39.80999,-0.1357,0.5119,0.94105
346.738,40.02169,-0.14218,0.52105,0.9397
348.938,40.2336,-0.15099,0.53601,0.93835
351.138,40.44578,-0.16184,0.54688,0.93699
353.338,40.65803,-0.17091,0.56008,0.93562
355.538,40.871,-0.18313,0.57645,0.93425
357.738,41.08313,-0.19502,0.59661,0.93287
359.938,41.2954,-0.21004,0.6168,0.93148
362.138,41.50844,-0.22395,0.63938,0.93009
364.338,41.72124,-0.24222,0.66784,0.92869
366.538,41.93342,-0.26072,0.69991,0.92729
368.738,42.14693,-0.28257,0.73433,0.92588
370.938,42.36015,-0.30487,0.77243,0.92447
373.138,42.57193,-0.33221,0.8146,0.92305
375.338,42.78423,-0.36032,0.86207,0.92162
377.538,42.99774,-0.3935,0.91673,0.92019
379.738,43.212,-0.43059,0.97744,0.91875
381.938,43.42633,-0.47207,1.04039,0.91731
384.138,43.64009,-0.51447,1.11857,0.91586
386.338,43.8542,-0.56766,1.21282,0.9144
388.538,44.0688,-0.62684,1.31388,0.91294
390.738,44.28371,-0.69352,1.43565,0.91147
392.938,44.49832,-0.77092,1.57431,0.91
395.138,44.7134,-0.85586,1.72039,0.90852
397.338,44.92872,-0.95351,1.88678,0.90704
399.538,45.14391,-1.06053,2.06341,0.90555
401.738,45.3603,-1.1828,2.25448,0.90405
403.938,45.57649,-1.32024,2.46321,0.90255
406.138,45.79289,-1.47215,2.68134,0.90104
408.338,46.00918,-1.64309,2.87183,0.89953
410.538,46.22594,-1.82212,3.06417,0.89801
412.738,46.44236,-2.01676,3.19558,0.89648
414.938,46.6581,-2.21859,3.29107,0.89495
417.138,46.8737,-2.42722,3.35903,0.89342
419.338,47.08872,-2.63985,3.30881,0.89187
421.538,47.30276,-2.84382,3.16695,0.89033
423.738,47.51582,-3.03617,2.93191,0.88877
425.938,47.7283,-3.21428,2.64564,0.88721
428.138,47.9404,-3.3685,2.27651,0.88565
430.338,48.152,-3.50184,1.87797,0.88408
432.538,48.36325,-3.60858,1.48514,0.8825
434.738,48.5743,-3.69294,1.14048,0.88092
436.938,48.78537,-3.75504,0.84951,0.87933
439.138,48.9972,-3.80311,0.61904,0.87774
441.338,49.208,-3.84034,0.45213,0.87614
443.538,49.41932,-3.86769,0.32739,0.87454
445.738,49.6329,-3.88845,0.23646,0.87293
447.938,49.84774,-3.90299,0.17146,0.87131
450.138,50.0636,-3.91541,0.11785,0.86969
452.338,50.27837,-3.92467,0.08180961,0.86806
454.538,50.49317,-3.93315,0.05310961,0.86643
456.738,50.70835,-3.93847,0.02920295,0.86479
458.938,50.9237,-3.94298,0.01245218,0.86315
461.138,51.13924,-3.94672,-0.00394813,0.8615
463.338,51.35538,-3.94801,-0.0198278,0.85985
465.538,51.57127,-3.94935,-0.03322649,0.85819
467.738,51.78683,-3.94803,-0.03656501,0.85652
469.938,52.00329,-3.94925,-0.03014815,0.85485
472.138,52.2194,-3.94968,-0.0312421,0.85318
474.338,52.43626,-3.95001,-0.02948647,0.8515
476.538,52.65184,-3.95037,-0.02792559,0.84981
478.738,52.8689,-3.94902,-0.02868732,0.84812
480.938,53.0856,-3.94902,-0.0308951,0.84642
483.138,53.3024,-3.94902,-0.03280589,0.84472
485.338,53.5191,-3.95067,-0.0379336,0.84301
487.538,53.7361,-3.95227,-0.04188746,0.8413
489.738,53.95304,-3.95133,-0.0425536,0.83958
491.938,54.1703,-3.95133,-0.04486554,0.83786
494.138,54.38736,-3.95267,-0.04376751,0.83613
496.338,54.60445,-3.95265,-0.04306361,0.8344
498.538,54.82155,-3.95134,-0.0427079,0.83266
500.738,55.0381,-3.95133,-0.04627547,0.83092
502.938,55.25492,-3.95232,-0.04403513,0.82917
505.138,55.47234,-3.95232,-0.04645647,0.82741
507.338,55.6897,-3.95232,-0.04761959,0.82566
509.538,55.9078,-3.95222,-0.04741498,0.82389
511.738,56.12546,-3.9523,-0.04956396,0.82212
513.938,56.34398,-3.95297,-0.05078775,0.82035
516.138,56.5621,-3.95297,-0.0519195,0.81857
518.338,56.77978,-3.95297,-0.04999283,0.81679
520.538,56.9986,-3.95386,-0.04995552,0.815
522.738,57.2166,-3.95296,-0.05198948,0.8132
524.938,57.4352,-3.95363,-0.05195003,0.8114
527.138,57.6531,-3.95099,-0.0516257,0.8096
529.338,57.8713,-3.9533,-0.05174929,0.80779
531.538,58.0891,-3.95227,-0.05137563,0.80598
533.738,58.30681,-3.95363,-0.05407443,0.80416
535.938,58.5253,-3.95298,-0.05277627,0.80234
538.138,58.7438,-3.954,-0.05181116,0.80051
540.338,58.9616,-3.95396,-0.05289486,0.79868
542.538,59.17941,-3.95331,-0.05308988,0.79684
544.738,59.397,-3.95462,-0.05564093,0.795
546.938,59.61555,-3.95299,-0.0535915,0.79316
549.138,59.83348,-3.95429,-0.05454717,0.79131
550.738,59.99267,-3.95297,-0.05623277,0.78996

File: Bean_Bag_PS_Beads_STA_N2_10KData_220516_R1.csv
##Temp./Â°C,Time/min,Mass loss(subtr.2)/mg,DSC(subtr.2)/(mW/mg),Sensit./(uV/mW)
49.71,10.00917,0.01514,0.0237638,1.07018
52.81,11.307,0.01611773,0.16916,1.06932
55.91,11.75065,0.01589128,0.23145,1.06846
59.01,12.1287,0.0170805,0.2664,1.06758
62.11,12.47818,0.01656435,0.28821,1.06669
65.21,12.82236,0.01786072,0.30252,1.0658
68.31,13.1566,0.01651916,0.31416,1.06489
71.41,13.48562,0.01920672,0.32552,1.06398
74.51,13.81262,0.01788467,0.33533,1.06305
77.61,14.13582,0.01789053,0.3464,1.06212
80.71,14.4551,0.01920848,0.35991,1.06117
83.81,14.7721,0.01789021,0.36729,1.06022
86.91,15.0864,0.01789,0.36014,1.05925
90.01,15.39765,0.01657419,0.35757,1.05827
93.11,15.7066,0.01730395,0.3624,1.05729
96.21,16.01308,0.01787983,0.37502,1.05629
99.31,16.31958,0.01789572,0.39012,1.05529
102.41,16.62345,0.01750756,0.41263,1.05427
105.51,16.92752,0.01711986,0.43406,1.05324
108.61,17.2308,0.01586508,0.44367,1.0522
111.71,17.53344,0.01811295,0.45092,1.05116
114.81,17.83626,0.01942038,0.45484,1.0501
117.91,18.13853,0.01679,0.4577,1.04903
121.01,18.4405,0.0155305,0.46269,1.04795
124.11,18.74205,0.01679,0.46735,1.04686
127.21,19.0428,0.01547136,0.46986,1.04576
130.31,19.34207,0.01811032,0.47553,1.04465
133.41,19.6421,0.01679042,0.4793,1.04353
136.51,19.93948,0.01711837,0.48192,1.0424
139.61,20.23881,0.01579688,0.48464,1.04126
142.71,20.53695,0.01449079,0.48959,1.04011
145.81,20.8363,0.01448996,0.49122,1.03894
148.91,21.13416,0.01512166,0.49237,1.03777
152.01,21.43154,0.01580615,0.49397,1.03658
155.11,21.72833,0.01414568,0.49649,1.03539
158.21,22.02543,0.01383067,0.50164,1.03418
161.31,22.32161,0.01412783,0.5005,1.03297
164.41,22.61901,0.0115296,0.50126,1.03174
167.51,22.91597,0.01310901,0.50388,1.0305
170.61,23.2124,0.01184889,0.50598,1.02925
173.71,23.50858,0.01118939,0.51022,1.02799
176.81,23.80454,0.01053095,0.51462,1.02672
179.91,24.1012,0.01053957,0.52371,1.02544
183.01,24.39609,0.009219695,0.53451,1.02415
186.11,24.69226,0.01019996,0.54127,1.02284
189.21,24.98735,0.01057102,0.55006,1.02153
192.31,25.2835,0.01057464,0.55621,1.0202
195.41,25.57943,0.00821948,0.56253,1.01886
198.51,25.8756,0.00954816,0.56472,1.01752
201.61,26.17101,0.0079,0.57037,1.01616
204.71,26.46583,0.00659338,0.57305,1.01479
207.81,26.76091,0.005269588,0.57685,1.0134
210.91,27.0564,0.004649614,0.58065,1.01201
214.01,27.35118,0.003949985,0.58477,1.01061
217.11,27.64667,0.003950167,0.58694,1.00919
220.21,27.94166,0.004610238,0.58811,1.00777
223.31,28.23563,0.00329,0.59237,1.00633
226.41,28.52954,0.003278032,0.59585,1.00488
229.51,28.8245,0.0006648675,0.59817,1.00342
232.61,29.12071,-0.001320121,0.60113,1.00195
235.71,29.415,-0.001650006,0.60591,1.00046
238.81,29.70855,-0.0009888332,0.6087,0.99897
241.91,30.00478,-0.00363,0.61102,0.99746
245.01,30.2991,-0.00363001,0.61398,0.99595
248.11,30.59487,-0.005929959,0.619,0.99442
251.21,30.89002,-0.00593,0.64464,0.99288
254.31,31.18517,-0.00758,0.64041,0.99132
257.41,31.4794,-0.01021893,0.6328,0.98976
260.51,31.77458,-0.01020341,0.62786,0.98819
263.61,32.07013,-0.01252363,0.62768,0.9866
266.71,32.3654,-0.01269981,0.6282,0.985
269.81,32.66088,-0.01635561,0.62956,0.98339
272.91,32.95625,-0.01714308,0.63075,0.98177
276.01,33.25124,-0.01911329,0.63253,0.98014
279.11,33.54703,-0.02037752,0.6332,0.97849
282.21,33.84287,-0.02306594,0.63606,0.97684
285.31,34.13865,-0.0266932,0.64165,0.97517
288.41,34.43502,-0.02963994,0.64617,0.97349
291.51,34.72992,-0.0322798,0.64989,0.9718
294.61,35.02564,-0.03492362,0.65285,0.97009
297.71,35.32163,-0.03906186,0.65516,0.96838
300.81,35.6181,-0.04275625,0.65942,0.96665
303.91,35.91428,-0.04808804,0.65962,0.96492
307.01,36.20905,-0.0507297,0.66008,0.96317
310.11,36.50812,-0.05512205,0.66205,0.96141
313.21,36.8048,-0.05995406,0.66388,0.95963
316.31,37.10224,-0.06383284,0.66982,0.95785
319.41,37.39972,-0.06751089,0.6765,0.95605
322.51,37.69705,-0.07410589,0.68104,0.95424
325.61,37.9943,-0.08018422,0.68802,0.95242
328.71,38.29233,-0.08458457,0.69435,0.95059
331.81,38.5895,-0.09266145,0.70358,0.94875
334.91,38.88872,-0.09802509,0.71416,0.94689
338.01,39.1867,-0.10616,0.72309,0.94502
341.11,39.485,-0.11458,0.73298,0.94315
344.21,39.78382,-0.12506,0.74651,0.94125
347.31,40.0843,-0.1365,0.76115,0.93935
350.41,40.38355,-0.14847,0.78117,0.93744
353.51,40.68295,-0.16455,0.80027,0.93551
356.61,40.98237,-0.1796,0.82102,0.93358
359.71,41.282,-0.19732,0.84811,0.93163
362.81,41.582,-0.21915,0.88457,0.92967
365.91,41.88155,-0.2454,0.92537,0.92769
369.01,42.1821,-0.27305,0.97373,0.92571
372.11,42.48227,-0.30764,1.02348,0.92371
375.21,42.7832,-0.34788,1.08954,0.9217
378.31,43.08385,-0.39441,1.16859,0.91969
381.41,43.38495,-0.4489,1.26497,0.91765
384.51,43.68542,-0.51521,1.37585,0.91561
387.61,43.98785,-0.59295,1.51373,0.91356
390.71,44.28999,-0.67788,1.67365,0.91149
393.81,44.59217,-0.7755,1.86306,0.90942
396.91,44.8947,-0.89358,2.08034,0.90733
400.01,45.19624,-1.03013,2.31692,0.90523
403.11,45.499,-1.20519,2.59129,0.90311
406.21,45.80175,-1.41557,2.87515,0.90099
409.31,46.1053,-1.67155,3.14468,0.89886
412.41,46.40874,-1.94535,3.36329,0.89671
415.51,46.71257,-2.21808,3.48533,0.89455
418.61,47.01518,-2.52109,3.47651,0.89238
421.71,47.31602,-2.80884,3.29947,0.8902
424.81,47.61564,-3.08465,2.95739,0.88801
427.91,47.9129,-3.30661,2.48361,0.88581
431.01,48.21,-3.4957,1.95394,0.8836
434.11,48.50614,-3.63723,1.46016,0.88137
437.21,48.8022,-3.73461,1.06052,0.87914
440.31,49.09942,-3.8036,0.77221,0.87689
443.41,49.39821,-3.85351,0.57758,0.87463
446.51,49.69871,-3.88324,0.44336,0.87236
449.61,49.99982,-3.90155,0.35374,0.87008
452.71,50.30196,-3.92066,0.2949,0.86779
455.81,50.6061,-3.93236,0.25503,0.86548
458.91,50.91061,-3.93836,0.21651,0.86317
462.01,51.21305,-3.9521,0.19122,0.86085
465.11,51.51743,-3.94798,0.2186,0.85851
468.21,51.82496,-3.94573,0.16183,0.85617
471.31,52.13004,-3.94373,0.16045,0.85381
474.41,52.43529,-3.94375,0.16339,0.85144
477.51,52.7414,-3.94376,0.17118,0.84907
480.61,53.0466,-3.94199,0.17279,0.84668
483.71,53.35196,-3.94384,0.1737,0.84428
486.81,53.65746,-3.94309,0.175,0.84187
489.91,53.96337,-3.94312,0.17492,0.83945
493.01,54.2695,-3.94309,0.17385,0.83702
496.11,54.57575,-3.94309,0.17275,0.83458
499.21,54.882,-3.94278,0.17123,0.83213
502.31,55.18818,-3.94145,0.17084,0.82967
505.41,55.49516,-3.94274,0.17087,0.8272
508.51,55.8021,-3.94237,0.16602,0.82472
511.61,56.1089,-3.94112,0.16734,0.82223
514.71,56.41515,-3.9398,0.16664,0.81972
517.81,56.72211,-3.94255,0.16502,0.81721
520.91,57.0296,-3.94485,0.16425,0.81469
524.01,57.3354,-3.94485,0.16474,0.81216
527.11,57.64391,-3.94246,0.16009,0.80962
530.21,57.9517,-3.94026,0.15907,0.80708
533.31,58.25945,-3.94562,0.15617,0.80452
536.41,58.56726,-3.94644,0.1556,0.80195
539.51,58.87461,-3.9443,0.15712,0.79937
542.61,59.18221,-3.9443,0.1594,0.79678
545.71,59.4899,-3.94694,0.15864,0.79419
548.81,59.7975,-3.94562,0.16071,0.79158
551.91,60.1056,-3.94638,0.15925,0.78897
555.01,60.41324,-3.94826,0.16344,0.78635
558.11,60.72243,-3.94693,0.16185,0.78371
561.21,61.0307,-3.94847,0.1609,0.78107
564.31,61.3392,-3.94924,0.16384,0.77842
567.41,61.6479,-3.95056,0.16499,0.77577
570.51,61.95508,-3.95086,0.16923,0.7731
573.61,62.266,-3.95319,0.17173,0.77042
576.71,62.5758,-3.95319,0.17558,0.76774
579.81,62.8854,-3.95418,0.18106,0.76505
582.91,63.195,-3.95175,0.18288,0.76235
586.01,63.5049,-3.95154,0.18671,0.75964
589.11,63.81422,-3.95429,0.19029,0.75692
592.21,64.1232,-3.95339,0.19341,0.7542
595.31,64.43217,-3.95429,0.19845,0.75147
598.41,64.74176,-3.95715,0.20307,0.74873
601.51,65.05286,-3.95583,0.20714,0.74598
604.61,65.36339,-3.95385,0.206,0.74323
607.71,65.67392,-3.95484,0.20185,0.74046
610.81,65.98476,-3.95657,0.20332,0.7377
613.91,66.2958,-3.95709,0.20368,0.73492
617.01,66.606,-3.95473,0.20848,0.73213
620.11,66.91597,-3.95407,0.2152,0.72934
623.21,67.2263,-3.95408,0.21361,0.72655
626.31,67.53699,-3.95407,0.21454,0.72374
629.41,67.84778,-3.95661,0.21422,0.72093
632.51,68.15897,-3.95671,0.21883,0.71811
635.61,68.4705,-3.9566,0.22459,0.71529
638.71,68.7816,-3.95733,0.22734,0.71245
641.81,69.09269,-3.95572,0.22918,0.70962
644.91,69.40352,-3.96567,0.23442,0.70677
648.01,69.71579,-4.02278,0.25996,0.70392
651.11,70.02863,-4.00209,0.25265,0.70107
654.21,70.3406,-3.98054,0.24405,0.6982
657.31,70.6525,-3.96451,0.24752,0.69534
660.41,70.9641,-3.96203,0.25694,0.69246
663.51,71.27552,-3.95683,0.26627,0.68958
666.61,71.587,-3.95572,0.27105,0.6867
669.71,71.8986,-3.96395,0.28186,0.68381
672.81,72.21024,-3.96264,0.29302,0.68092
675.91,72.52208,-3.96492,0.29486,0.67802
679.01,72.83343,-3.96263,0.30343,0.67511
682.11,73.14578,-3.96164,0.30508,0.6722
685.21,73.45775,-3.96428,0.30755,0.66929
688.31,73.77048,-3.96527,0.31158,0.66637
691.41,74.0826,-3.96593,0.31184,0.66344
694.51,74.39454,-3.96194,0.29322,0.66051
697.61,74.70575,-3.95956,0.2909,0.65758
700.71,75.01805,-3.96219,0.29115,0.65465
703.81,75.33,-3.95408,0.29271,0.65171
706.91,75.641,-3.95697,0.2974,0.64876
710.01,75.95354,-3.95897,0.30569,0.64581
713.11,76.26568,-3.9589,0.30997,0.64286
716.21,76.57734,-3.96088,0.30803,0.6399
719.31,76.88875,-3.96088,0.31285,0.63695
722.41,77.2004,-3.9498,0.30827,0.63398
725.51,77.5126,-3.94991,0.30526,0.63102
728.61,77.82514,-3.95858,0.32104,0.62805
731.71,78.13799,-3.96121,0.32192,0.62508
734.81,78.4504,-3.95956,0.32292,0.6221
737.91,78.76345,-3.96571,0.31912,0.61913
741.01,79.0775,-3.95594,0.31207,0.61615
744.11,79.39,-3.96221,0.31028,0.61316
747.21,79.7032,-3.95188,0.30705,0.61018
750.31,80.0162,-3.95363,0.30373,0.60719
753.41,80.32906,-3.95726,0.30687,0.6042
756.51,80.64142,-3.95145,0.30239,0.60121
759.61,80.95404,-3.96193,0.30703,0.59822
762.71,81.26654,-3.96351,0.29943,0.59523
765.81,81.57927,-3.9601,0.29995,0.59223
768.91,81.89242,-3.96243,0.30367,0.58924
772.01,82.20526,-3.97812,0.31192,0.58624
775.11,82.51926,-3.97548,0.31729,0.58324
778.21,82.8331,-3.97416,0.31986,0.58024
781.31,83.14708,-3.9768,0.32792,0.57724
784.41,83.46131,-3.97778,0.33139,0.57423
787.51,83.77542,-3.97646,0.33525,0.57123
790.61,84.08915,-3.97867,0.33867,0.56823
793.71,84.40338,-3.9757,0.34471,0.56522
796.81,84.717,-3.97725,0.34775,0.56222
799.61,84.99843,-3.97197,0.35094,0.55951