Folder: fsri_materials_database/01_Data/Bean_Bag_Chair_Beads/STA/N2/30K_min (part 2)

File: Bean_Bag_PS_Beads_STA_N2_30KData_220518_R2.csv
##Temp./Â°C,Time/min,Mass loss(subtr.2)/mg,DSC(subtr.2)/(mW/mg),Sensit./(uV/mW)
48.618,10.00583,-0.01822,0.01170418,1.05399
50.818,10.7889,-0.01809737,0.13306,1.05354
53.018,10.98679,-0.01829861,0.21536,1.05309
55.218,11.136,-0.01881362,0.27999,1.05262
57.418,11.26213,-0.01808793,0.33362,1.05214
59.618,11.37457,-0.01634534,0.38025,1.05166
61.818,11.47845,-0.01623098,0.41924,1.05117
64.018,11.5756,-0.01756186,0.45257,1.05066
66.218,11.6684,-0.01629268,0.48585,1.05015
68.418,11.7575,-0.01825491,0.51388,1.04963
70.618,11.84394,-0.01738928,0.53755,1.04911
72.818,11.9286,-0.01771863,0.56216,1.04857
75.018,12.0115,-0.01757163,0.58255,1.04802
77.218,12.09271,-0.01757643,0.60304,1.04747
79.418,12.17272,-0.01755453,0.62407,1.04691
81.618,12.25179,-0.01734646,0.64448,1.04634
83.818,12.3298,-0.01711486,0.67006,1.04576
86.018,12.40714,-0.01714938,0.69305,1.04517
88.218,12.48359,-0.01822259,0.70413,1.04457
90.418,12.55915,-0.01735005,0.70045,1.04397
92.618,12.63492,-0.01745814,0.68642,1.04335
94.818,12.71002,-0.01751236,0.68471,1.04273
97.018,12.7848,-0.01745746,0.68678,1.0421
99.218,12.85886,-0.01746056,0.70118,1.04146
101.418,12.93282,-0.01710192,0.72261,1.04082
103.618,13.0068,-0.01747431,0.75677,1.04016
105.818,13.08034,-0.01747399,0.78712,1.0395
108.018,13.1539,-0.01744478,0.81554,1.03883
110.218,13.22799,-0.01883175,0.83632,1.03815
112.418,13.30141,-0.01871925,0.84912,1.03746
114.618,13.37474,-0.01878027,0.85588,1.03676
116.818,13.44789,-0.01769254,0.86703,1.03606
119.018,13.5209,-0.01880738,0.87711,1.03534
121.218,13.59384,-0.01810997,0.88254,1.03462
123.418,13.6662,-0.01878866,0.892,1.03389
125.618,13.73851,-0.01779006,0.89575,1.03316
127.818,13.8105,-0.01911232,0.8978,1.03241
130.018,13.88209,-0.01878,0.90634,1.03166
132.218,13.95362,-0.01878,0.9127,1.0309
134.418,14.0244,-0.01877977,0.92215,1.03013
136.618,14.09578,-0.01879341,0.93021,1.02935
138.818,14.1666,-0.01878,0.93649,1.02857
141.018,14.23724,-0.01878,0.94204,1.02778
143.218,14.3075,-0.01964953,0.95107,1.02698
145.418,14.37755,-0.0201,0.95459,1.02617
147.618,14.4473,-0.0201,0.96021,1.02535
149.818,14.51704,-0.01883666,0.96921,1.02453
152.018,14.5867,-0.02140883,0.97265,1.0237
154.218,14.656,-0.02009668,0.9786,1.02286
156.418,14.72521,-0.0201,0.98832,1.02201
158.618,14.79432,-0.02006764,0.99105,1.02116
160.818,14.86336,-0.02009,0.99344,1.0203
163.018,14.93249,-0.02009,0.99674,1.01943
165.218,15.00116,-0.02146059,0.99872,1.01855
167.418,15.06986,-0.02141,0.99793,1.01767
169.618,15.1382,-0.02141,0.99755,1.01678
171.818,15.20674,-0.02141,1.00054,1.01588
174.018,15.2745,-0.02154738,0.99787,1.01497
176.218,15.3434,-0.02273,0.99705,1.01406
178.418,15.41135,-0.02273,0.99813,1.01314
180.618,15.47919,-0.02273001,0.99937,1.01221
182.818,15.54695,-0.02407639,0.99746,1.01127
185.018,15.61457,-0.02306008,1.00062,1.01033
187.218,15.6822,-0.02307218,1.00014,1.00938
189.418,15.74965,-0.02438002,1.00447,1.00842
191.618,15.81686,-0.02438,1.01239,1.00746
193.818,15.88391,-0.02438001,1.01463,1.00649
196.018,15.951,-0.02572229,1.02273,1.00551
198.218,16.01803,-0.0257,1.03524,1.00452
200.418,16.08493,-0.02569983,1.04779,1.00353
202.618,16.15202,-0.02701987,1.06644,1.00253
204.818,16.21885,-0.02702009,1.07937,1.00152
207.018,16.28591,-0.02833001,1.09169,1.00051
209.218,16.35262,-0.02833,1.10323,0.99949
211.418,16.4193,-0.02833,1.11257,0.99846
213.618,16.48616,-0.02833003,1.1209,0.99742
215.818,16.55282,-0.02964991,1.12986,0.99638
218.018,16.61935,-0.02965,1.13476,0.99533
220.218,16.68611,-0.02965,1.13901,0.99428
222.418,16.7527,-0.02965574,1.14536,0.99322
224.618,16.81928,-0.03062997,1.15022,0.99215
226.818,16.88578,-0.03129003,1.15491,0.99107
229.018,16.95201,-0.03162048,1.15744,0.98999
231.218,17.0188,-0.03064027,1.16321,0.9889
233.418,17.08496,-0.03196006,1.16918,0.98781
235.618,17.15146,-0.03196,1.17321,0.98671
237.818,17.21777,-0.03196,1.17611,0.9856
240.018,17.284,-0.03329528,1.17978,0.98448
242.218,17.35042,-0.03452955,1.18315,0.98336
244.418,17.4166,-0.03588586,1.18757,0.98223
246.618,17.4829,-0.03458998,1.19443,0.9811
248.818,17.54919,-0.03459,1.19479,0.97996
251.018,17.61545,-0.03458998,1.19915,0.97881
253.218,17.68166,-0.03589595,1.20508,0.97766
255.418,17.74785,-0.0364487,1.20673,0.9765
257.618,17.8139,-0.03853939,1.20929,0.97534
259.818,17.88005,-0.03853968,1.21275,0.97416
262.018,17.9464,-0.03985004,1.216,0.97299
264.218,18.01255,-0.03985016,1.21922,0.9718
266.418,18.07858,-0.04019251,1.22414,0.97061
268.618,18.14462,-0.04143741,1.22654,0.96942
270.818,18.2108,-0.04150659,1.2296,0.96821
273.018,18.27639,-0.04249775,1.2318,0.96701
275.218,18.343,-0.04249504,1.23445,0.96579
277.418,18.40912,-0.04380998,1.23915,0.96457
279.618,18.47494,-0.04518202,1.24188,0.96335
281.818,18.54126,-0.0464813,1.24491,0.96211
284.018,18.6071,-0.04775822,1.24908,0.96088
286.218,18.6731,-0.04775963,1.25352,0.95963
288.418,18.73982,-0.04908005,1.25791,0.95838
290.618,18.80629,-0.05040672,1.26353,0.95713
292.818,18.87235,-0.05137343,1.26772,0.95587
295.018,18.93869,-0.05270003,1.27289,0.9546
297.218,19.0051,-0.05400879,1.2778,0.95333
299.418,19.0712,-0.05582799,1.28044,0.95205
301.618,19.13741,-0.05799761,1.28846,0.95077
303.818,19.20371,-0.0593137,1.28976,0.94948
306.018,19.27005,-0.05994571,1.29701,0.94818
308.218,19.33638,-0.06126653,1.29938,0.94688
310.418,19.40296,-0.06254017,1.30632,0.94558
312.618,19.46921,-0.06523653,1.30897,0.94427
314.818,19.53535,-0.06774674,1.3155,0.94295
317.018,19.602,-0.07067387,1.32098,0.94163
319.218,19.66844,-0.0733259,1.32441,0.9403
321.418,19.7349,-0.07361992,1.33212,0.93897
323.618,19.80152,-0.07708713,1.33732,0.93763
325.818,19.86785,-0.07981358,1.34385,0.93629
328.018,19.93461,-0.08395319,1.34875,0.93494
330.218,20.00131,-0.0866819,1.35446,0.93359
332.418,20.06791,-0.0894745,1.36091,0.93223
334.618,20.13475,-0.09262064,1.37171,0.93086
336.818,20.2015,-0.09538965,1.37893,0.9295
339.018,20.26837,-0.09897836,1.38708,0.92812
341.218,20.3352,-0.10301,1.39827,0.92674
343.418,20.40212,-0.10611,1.40758,0.92536
345.618,20.46904,-0.11063,1.41881,0.92397
347.818,20.53603,-0.11405,1.43298,0.92258
350.018,20.60301,-0.11902,1.44523,0.92118
352.218,20.67,-0.12279,1.46135,0.91977
354.418,20.7373,-0.12784,1.47805,0.91837
356.618,20.8044,-0.13285,1.49555,0.91695
358.818,20.87169,-0.14045,1.51677,0.91553
361.018,20.93909,-0.14646,1.54093,0.91411
363.218,21.00655,-0.15351,1.5639,0.91268
365.418,21.07396,-0.16101,1.59155,0.91125
367.618,21.1411,-0.17017,1.62232,0.90982
369.818,21.2087,-0.17832,1.65904,0.90837
372.018,21.27654,-0.18858,1.69932,0.90693
374.218,21.3443,-0.19877,1.74488,0.90548
376.418,21.4119,-0.21035,1.79457,0.90402
378.618,21.47985,-0.22197,1.85474,0.90256
380.818,21.54767,-0.23637,1.91874,0.9011
383.018,21.61543,-0.25405,1.9883,0.89963
385.218,21.68342,-0.27107,2.06653,0.89816
387.418,21.75142,-0.29035,2.15541,0.89668
389.618,21.81919,-0.31224,2.25366,0.8952
391.818,21.8877,-0.33601,2.3653,0.89371
394.018,21.9559,-0.36083,2.48952,0.89222
396.218,22.02417,-0.39023,2.62696,0.89073
398.418,22.0925,-0.42288,2.78132,0.88923
400.618,22.16092,-0.45892,2.95609,0.88773
402.818,22.2294,-0.49805,3.15558,0.88622
405.018,22.29812,-0.5447,3.38052,0.88471
407.218,22.36671,-0.59495,3.63111,0.8832
409.418,22.4357,-0.65101,3.90884,0.88168
411.618,22.50463,-0.71479,4.21827,0.88016
413.818,22.57375,-0.78511,4.54354,0.87863
416.018,22.64304,-0.86596,4.88333,0.8771
418.218,22.7123,-0.95238,5.27296,0.87556
420.418,22.78208,-1.04286,5.73632,0.87402
422.618,22.85187,-1.14426,6.17815,0.87248
424.818,22.9219,-1.26041,6.66673,0.87094
427.018,22.99195,-1.39585,7.11069,0.86939
429.218,23.06202,-1.52851,7.35196,0.86783
431.418,23.13254,-1.66579,6.66564,0.86627
433.618,23.20251,-1.92789,6.00826,0.86471
435.818,23.27199,-2.14335,6.20035,0.86315
438.018,23.34122,-2.33771,6.00514,0.86158
440.218,23.41041,-2.55024,6.14647,0.86001
442.418,23.47925,-2.76032,6.13992,0.85843
444.618,23.54843,-2.94453,6.15778,0.85685
446.818,23.61717,-3.14011,6.10865,0.85527
449.018,23.68592,-3.25907,6.02501,0.85368
451.218,23.7548,-3.39323,5.46708,0.85209
453.418,23.82335,-3.5292,4.64417,0.8505
455.618,23.8913,-3.6325,3.78641,0.8489
457.818,23.9592,-3.7127,2.98243,0.8473
460.018,24.02664,-3.77375,2.28245,0.8457
462.218,24.09392,-3.81981,1.7089,0.84409
464.418,24.16166,-3.85551,1.26043,0.84248
466.618,24.22916,-3.88262,0.9241,0.84087
468.818,24.2971,-3.90407,0.67638,0.83925
471.018,24.36494,-3.9207,0.49205,0.83763
473.218,24.4331,-3.93218,0.35788,0.83601
475.418,24.5017,-3.94106,0.26122,0.83438
477.618,24.57046,-3.94858,0.18124,0.83275
479.818,24.63916,-3.95429,0.12057,0.83112
482.018,24.70811,-3.95932,0.0769878,0.82949
484.218,24.77715,-3.96244,0.03278907,0.82785
486.418,24.8464,-3.96549,-0.003820959,0.82621
488.618,24.91573,-3.96681,-0.03794759,0.82456
490.818,24.98518,-3.96811,-0.0640207,0.82292
493.018,25.0548,-3.96812,-0.08357445,0.82127
495.218,25.1245,-3.96812,-0.09300588,0.81961
497.418,25.19408,-3.9681,-0.09790877,0.81796
499.618,25.26385,-3.96944,-0.09938779,0.8163
501.818,25.3338,-3.96944,-0.10106,0.81464
504.018,25.40373,-3.96811,-0.0986108,0.81298
506.218,25.47356,-3.96911,-0.10022,0.81131
508.418,25.54336,-3.97069,-0.09798099,0.80964
510.618,25.6133,-3.97076,-0.09965087,0.80797
512.818,25.68361,-3.97076,-0.09862448,0.80629
515.018,25.75435,-3.96944,-0.09715459,0.80462
517.218,25.82474,-3.96944,-0.09897998,0.80294
519.418,25.8952,-3.97045,-0.09961278,0.80125
521.618,25.96571,-3.96977,-0.10159,0.79957
523.818,26.03604,-3.96977,-0.10136,0.79788
526.018,26.1067,-3.96916,-0.10124,0.79619
528.218,26.17734,-3.96911,-0.10284,0.7945
530.418,26.24795,-3.9701,-0.1051,0.79281
532.618,26.31881,-3.9701,-0.10577,0.79111
534.818,26.3894,-3.9701,-0.10862,0.78941
537.018,26.46022,-3.9701,-0.11105,0.78771
539.218,26.53108,-3.97076,-0.11728,0.786
541.418,26.60217,-3.97076,-0.12039,0.7843
543.318,26.66351,-3.97076,-0.12516,0.78282