Folder: fsri_materials_database/01_Data/Bean_Bag_Chair_Beads/STA/N2/30K_min

Note: 01_Data/README.md
# Materials and Products Database
## 01_Data

Raw data generated from each apparatus are included here in plain-text format. The data is organized first by material, next by the short name of test apparatus used, and where applicable additional filtering by test settings.

### material.json

Each material directory contains a json file of the same name as the material. This file links the data stored in the repository as well as data and graphs produced by the accompanying scripts (__02_Scripts__) to the respective landing page for the material on the front-end website.

File: Bean_Bag_Chair_Beads_STA_N2_30KData_220518_R1.csv
##Temp./Â°C,Time/min,Mass loss(subtr.2)/mg,DSC(subtr.2)/(mW/mg),Sensit./(uV/mW)
48.615,10.00667,-0.00593,0.00290269,1.05399
50.815,10.78844,-0.006456857,0.11614,1.05354
53.015,10.98575,-0.006396678,0.19773,1.05309
55.215,11.13393,-0.008363292,0.26331,1.05262
57.415,11.25976,-0.006584343,0.3194,1.05214
59.615,11.37176,-0.0063087,0.3638,1.05166
61.815,11.47451,-0.006040903,0.40569,1.05117
64.015,11.57221,-0.0064143,0.44029,1.05066
66.215,11.66485,-0.00636609,0.4697,1.05015
68.415,11.75404,-0.005686705,0.49878,1.04963
70.615,11.84089,-0.006150607,0.52048,1.04911
72.815,11.92548,-0.00692876,0.54401,1.04857
75.015,12.0084,-0.004970255,0.56498,1.04802
77.215,12.0901,-0.005719645,0.58451,1.04747
79.415,12.17049,-0.006593285,0.60292,1.04691
81.615,12.24973,-0.00607416,0.62639,1.04634
83.815,12.32819,-0.00580777,0.64761,1.04576
86.015,12.40528,-0.005936927,0.67036,1.04517
88.215,12.48269,-0.007465254,0.68203,1.04457
90.415,12.5586,-0.006150984,0.67645,1.04397
92.615,12.6343,-0.004572506,0.66484,1.04335
94.815,12.70958,-0.005944958,0.6591,1.04273
97.015,12.78448,-0.005945019,0.66542,1.0421
99.215,12.85904,-0.00604965,0.68165,1.04146
101.415,12.93319,-0.00736646,0.70487,1.04082
103.615,13.00734,-0.00643059,0.73443,1.04016
105.815,13.08141,-0.008385749,0.77037,1.0395
108.015,13.1555,-0.00733891,0.80216,1.03883
110.215,13.229,-0.006386565,0.81793,1.03815
112.415,13.3026,-0.00769393,0.83105,1.03746
114.615,13.37595,-0.00735928,0.8382,1.03676
116.815,13.44899,-0.006040057,0.84063,1.03606
119.015,13.52154,-0.00602697,0.84656,1.03534
121.215,13.59401,-0.007357509,0.85474,1.03462
123.415,13.6667,-0.00736,0.86165,1.0339
125.615,13.7395,-0.007359991,0.86741,1.03316
127.815,13.8116,-0.00725253,0.87179,1.03241
130.015,13.88321,-0.007360912,0.88176,1.03166
132.215,13.95471,-0.008680766,0.88601,1.0309
134.415,14.0259,-0.00768997,0.89143,1.03013
136.615,14.0968,-0.00769,0.89787,1.02936
138.815,14.1673,-0.00768926,0.90076,1.02857
141.015,14.2371,-0.00868,0.90695,1.02778
143.215,14.3076,-0.00735875,0.91258,1.02698
145.415,14.37778,-0.008350015,0.9214,1.02617
147.615,14.4477,-0.008339218,0.92375,1.02536
149.815,14.5173,-0.00868003,0.92972,1.02453
152.015,14.58675,-0.0099901,0.93334,1.0237
154.215,14.6562,-0.009990001,0.93954,1.02286
156.415,14.7256,-0.008732634,0.9424,1.02202
158.615,14.7945,-0.008670025,0.94806,1.02116
160.815,14.86359,-0.009993299,0.94856,1.0203
163.015,14.93256,-0.00999,0.94833,1.01943
165.215,15.0017,-0.00999004,0.94827,1.01855
167.415,15.0709,-0.01132649,0.94869,1.01767
169.615,15.1396,-0.01262101,0.94968,1.01678
171.815,15.208,-0.01245272,0.94588,1.01588
174.015,15.2764,-0.01197,0.9443,1.01497
176.215,15.34464,-0.01196998,0.94445,1.01406
178.415,15.41278,-0.01327789,0.94326,1.01314
180.615,15.48051,-0.01197272,0.94193,1.01221
182.815,15.5485,-0.009989968,0.94473,1.01127
185.015,15.61615,-0.009989968,0.94509,1.01033
187.215,15.6838,-0.01260637,0.94676,1.00938
189.415,15.7511,-0.01263007,0.95136,1.00842
191.615,15.8184,-0.01394169,0.95547,1.00746
193.815,15.8857,-0.01394,0.96253,1.00649
196.015,15.95263,-0.01394,0.97192,1.00551
198.215,16.01981,-0.01393682,0.98259,1.00452
200.415,16.08696,-0.01658027,0.99756,1.00353
202.615,16.1539,-0.01526003,1.0116,1.00253
204.815,16.22073,-0.01527521,1.02383,1.00152
207.015,16.28758,-0.01801589,1.03794,1.00051
209.215,16.35442,-0.01700968,1.04942,0.99949
211.415,16.4213,-0.0179,1.05626,0.99846
213.615,16.488,-0.01790001,1.06418,0.99742
215.815,16.55486,-0.01856163,1.06943,0.99638
218.015,16.62126,-0.01719955,1.07735,0.99534
220.215,16.68804,-0.01821662,1.07906,0.99428
222.415,16.7547,-0.01952837,1.08576,0.99322
224.615,16.8213,-0.01954,1.08957,0.99215
226.815,16.8877,-0.01987175,1.09324,0.99107
229.015,16.95403,-0.02086154,1.09771,0.98999
231.215,17.0202,-0.02218049,1.10329,0.9889
233.415,17.08709,-0.02251,1.10504,0.98781
235.615,17.15344,-0.0234996,1.10827,0.98671
237.815,17.2197,-0.02383237,1.11053,0.9856
240.015,17.28585,-0.02383,1.11222,0.98448
242.215,17.3524,-0.02381721,1.11731,0.98336
244.415,17.4188,-0.02647004,1.11955,0.98224
246.615,17.48511,-0.02646956,1.12546,0.9811
248.815,17.55141,-0.02580993,1.12874,0.97996
251.015,17.61757,-0.02715788,1.13266,0.97882
253.215,17.6839,-0.02712099,1.13415,0.97766
255.415,17.75,-0.02844025,1.13969,0.9765
257.615,17.81619,-0.02844,1.14133,0.97534
259.815,17.88232,-0.02843993,1.14663,0.97417
262.015,17.9485,-0.02976128,1.14664,0.97299
264.215,18.0147,-0.03112195,1.15213,0.9718
266.415,18.08049,-0.03238799,1.15334,0.97061
268.615,18.14685,-0.03273539,1.1545,0.96942
270.815,18.2131,-0.03272021,1.16023,0.96822
273.015,18.27913,-0.03404006,1.16349,0.96701
275.215,18.34543,-0.03404,1.1651,0.96579
277.415,18.41147,-0.03531271,1.16656,0.96457
279.615,18.4777,-0.0366704,1.16894,0.96335
281.815,18.5439,-0.03662943,1.17351,0.96212
284.015,18.61,-0.03799093,1.1763,0.96088
286.215,18.6764,-0.03931026,1.18127,0.95963
288.415,18.74268,-0.03931079,1.18214,0.95839
290.615,18.80905,-0.04063099,1.18589,0.95713
292.815,18.87519,-0.04194029,1.19066,0.95587
295.015,18.9415,-0.0432631,1.19607,0.9546
297.215,19.00798,-0.04371209,1.19945,0.95333
299.415,19.0744,-0.0459051,1.20443,0.95205
301.615,19.14092,-0.04722903,1.20858,0.95077
303.815,19.20738,-0.04986751,1.21474,0.94948
306.015,19.27374,-0.05115838,1.22048,0.94819
308.215,19.3401,-0.05258962,1.22519,0.94688
310.415,19.40663,-0.05532912,1.23069,0.94558
312.615,19.47276,-0.0578123,1.23391,0.94427
314.815,19.53908,-0.05826486,1.24082,0.94295
317.015,19.60599,-0.06120502,1.24535,0.94163
319.215,19.67261,-0.06377046,1.2494,0.9403
321.415,19.7391,-0.06654474,1.25596,0.93897
323.615,19.80579,-0.06950822,1.26259,0.93763
325.815,19.8724,-0.07324821,1.26915,0.93629
328.015,19.93904,-0.07494585,1.27464,0.93494
330.215,20.00571,-0.07773386,1.27824,0.93359
332.415,20.07249,-0.08047385,1.28863,0.93223
334.615,20.1392,-0.08376828,1.29484,0.93087
336.815,20.20603,-0.08674113,1.30426,0.9295
339.015,20.27316,-0.08981146,1.31047,0.92812
341.215,20.33989,-0.09287837,1.32007,0.92674
343.415,20.40675,-0.0971691,1.32995,0.92536
345.615,20.47402,-0.10043,1.33985,0.92397
347.815,20.54107,-0.10484,1.35585,0.92258
350.015,20.60807,-0.10948,1.36743,0.92118
352.215,20.6753,-0.11442,1.38334,0.91978
354.415,20.7425,-0.11962,1.40055,0.91837
356.615,20.8097,-0.12471,1.4154,0.91695
358.815,20.87708,-0.13067,1.43731,0.91554
361.015,20.94444,-0.13785,1.4559,0.91411
363.215,21.0118,-0.14456,1.47752,0.91269
365.415,21.07911,-0.15166,1.50416,0.91125
367.615,21.14659,-0.15874,1.53104,0.90982
369.815,21.2141,-0.16819,1.56121,0.90838
372.015,21.28172,-0.17793,1.60033,0.90693
374.215,21.34926,-0.18804,1.6433,0.90548
376.415,21.41699,-0.19849,1.68831,0.90403
378.615,21.48469,-0.21171,1.74396,0.90257
380.815,21.55242,-0.22375,1.80234,0.9011
383.015,21.62044,-0.23896,1.87528,0.89963
385.215,21.68835,-0.25476,1.95462,0.89816
387.415,21.7563,-0.27464,2.04403,0.89668
389.615,21.8242,-0.29423,2.14682,0.8952
391.815,21.8924,-0.31619,2.25861,0.89372
394.015,21.96048,-0.34019,2.38878,0.89223
396.215,22.0287,-0.36903,2.52887,0.89073
398.415,22.09701,-0.40077,2.69483,0.88923
400.615,22.16553,-0.43591,2.87549,0.88773
402.815,22.23405,-0.47593,3.08133,0.88622
405.015,22.3028,-0.51919,3.30364,0.88471
407.215,22.37141,-0.56981,3.55432,0.8832
409.415,22.44033,-0.62672,3.83766,0.88168
411.615,22.50937,-0.69159,4.15367,0.88016
413.815,22.5783,-0.7611,4.49846,0.87863
416.015,22.6476,-0.83966,4.88801,0.8771
418.215,22.71696,-0.93034,5.35185,0.87556
420.415,22.7865,-1.03117,5.81913,0.87403
422.615,22.8562,-1.14536,6.32529,0.87248
424.815,22.92609,-1.27186,6.9142,0.87094
427.015,22.99635,-1.41367,7.45978,0.86939
429.215,23.0665,-1.56774,7.93928,0.86783
431.415,23.1369,-1.73391,8.39952,0.86628
433.615,23.2072,-1.92859,8.87684,0.86471
435.815,23.27759,-2.11577,9.22696,0.86315
438.015,23.34783,-2.30781,9.35508,0.86158
440.215,23.41808,-2.49764,9.3818,0.86001
442.415,23.4882,-2.68822,9.27267,0.85843
444.615,23.55801,-2.87937,8.99724,0.85685
446.815,23.62745,-3.062,8.49026,0.85527
449.015,23.69639,-3.23271,7.77511,0.85368
451.215,23.76494,-3.37135,6.89835,0.85209
453.415,23.83322,-3.49915,5.90092,0.8505
455.615,23.90095,-3.60538,4.88667,0.8489
457.815,23.9683,-3.68874,3.92999,0.8473
460.015,24.03559,-3.75433,3.08659,0.8457
462.215,24.10278,-3.80192,2.38978,0.84409
464.415,24.17009,-3.83928,1.83577,0.84248
466.615,24.2374,-3.86663,1.41822,0.84087
468.815,24.30501,-3.88755,1.10571,0.83925
471.015,24.3728,-3.90435,0.87058,0.83763
473.215,24.44057,-3.91728,0.70021,0.83601
475.415,24.50917,-3.9255,0.57317,0.83439
477.615,24.5778,-3.9324,0.472,0.83276
479.815,24.64645,-3.9377,0.39754,0.83112
482.015,24.71525,-3.94257,0.33413,0.82949
484.215,24.78434,-3.94715,0.28559,0.82785
486.415,24.85356,-3.94871,0.24307,0.82621
488.615,24.92279,-3.95132,0.20279,0.82457
490.815,24.99211,-3.95264,0.17311,0.82292
493.015,25.06152,-3.95264,0.14834,0.82127
495.215,25.1311,-3.95396,0.13962,0.81962
497.415,25.20074,-3.95396,0.13003,0.81796
499.615,25.27039,-3.95396,0.12929,0.8163
501.815,25.34026,-3.95396,0.12748,0.81464
504.015,25.40999,-3.95396,0.13073,0.81298
506.215,25.47981,-3.95396,0.13362,0.81131
508.415,25.55007,-3.95429,0.13436,0.80964
510.615,25.62022,-3.95429,0.13419,0.80797
512.815,25.69027,-3.95501,0.13268,0.8063
515.015,25.76043,-3.95528,0.13376,0.80462
517.215,25.83069,-3.9566,0.13069,0.80294
519.415,25.90108,-3.9566,0.12956,0.80126
521.615,25.97133,-3.9566,0.1259,0.79957
523.815,26.04177,-3.9566,0.12323,0.79788
526.015,26.11231,-3.9566,0.11987,0.79619
528.215,26.18279,-3.9566,0.11754,0.7945
530.415,26.2535,-3.9566,0.11164,0.79281
532.615,26.324,-3.9566,0.10634,0.79111
534.815,26.39472,-3.95663,0.0996355,0.78941
537.015,26.46531,-3.95791,0.09270044,0.78771
539.215,26.53616,-3.95791,0.08988996,0.78601
541.415,26.6066,-3.95923,0.08655441,0.7843
543.215,26.6644,-3.95792,0.08515048,0.7829

File: Bean_Bag_Chair_Beads_STA_N2_30KData_220519_R3.csv
##Temp./Â°C,Time/min,Mass loss(subtr.2)/mg,DSC(subtr.2)/(mW/mg),Sensit./(uV/mW)
48.646,10.00667,0.01152,-0.00893657,1.05399
50.846,10.78726,0.01056075,0.11008,1.05354
53.046,10.98628,0.009771715,0.19498,1.05308
55.246,11.1362,0.01081751,0.26407,1.05261
57.446,11.2621,0.01010464,0.32317,1.05214
59.646,11.37347,0.01053021,0.37536,1.05165
61.846,11.47838,0.0120436,0.41676,1.05116
64.046,11.57597,0.01061165,0.45566,1.05066
66.246,11.66877,0.01111979,0.48784,1.05015
68.446,11.75804,0.01159119,0.52041,1.04963
70.646,11.84477,0.01182648,0.54859,1.0491
72.846,11.92915,0.01131457,0.57278,1.04856
75.046,12.01194,0.0113178,0.59743,1.04802
77.246,12.09342,0.01283503,0.61958,1.04746
79.446,12.17341,0.01185473,0.63899,1.0469
81.646,12.25239,0.01160412,0.66353,1.04633
83.846,12.3306,0.01283726,0.68801,1.04575
86.046,12.40798,0.01330871,0.71205,1.04516
88.246,12.48439,0.01296134,0.73029,1.04456
90.446,12.5605,0.01174856,0.72988,1.04396
92.646,12.63596,0.01173938,0.72006,1.04335
94.846,12.71082,0.01178175,0.71269,1.04272
97.046,12.785,0.01186,0.71566,1.04209
99.246,12.8598,0.01183732,0.72728,1.04145
101.446,12.9336,0.01187093,0.749,1.04081
103.646,13.00775,0.01134583,0.77652,1.04015
105.846,13.08145,0.01272288,0.80985,1.03949
108.046,13.1549,0.01185356,0.84103,1.03882
110.246,13.2284,0.01185024,0.86488,1.03814
112.446,13.30137,0.01053978,0.88303,1.03745
114.646,13.3749,0.009723814,0.89447,1.03675
116.846,13.4482,0.01054,0.90877,1.03605
119.046,13.52095,0.01053999,0.91682,1.03533
121.246,13.5937,0.01185979,0.92721,1.03461
123.446,13.66601,0.01054,0.93233,1.03389
125.646,13.7378,0.01055956,0.94044,1.03315
127.846,13.80979,0.01052153,0.94763,1.0324
130.046,13.8811,0.01054,0.95587,1.03165
132.246,13.9533,0.01118891,0.96246,1.03089
134.446,14.0246,0.01186882,0.96945,1.03012
136.646,14.0957,0.01054,0.9782,1.02934
138.846,14.16642,0.01053586,0.98383,1.02856
141.046,14.23661,0.01054007,0.99109,1.02777
143.246,14.307,0.00952209,1.00027,1.02697
145.446,14.37715,0.00921499,1.00451,1.02616
147.646,14.44685,0.00790899,1.01546,1.02534
149.846,14.51665,0.009220002,1.02095,1.02452
152.046,14.5862,0.00921999,1.02935,1.02369
154.246,14.65565,0.007898644,1.036,1.02285
156.446,14.72502,0.00790008,1.04084,1.022
158.646,14.79365,0.00659009,1.04438,1.02115
160.846,14.863,0.006604131,1.05019,1.02029
163.046,14.93188,0.007580003,1.05372,1.01942
165.246,15.00065,0.00758,1.05871,1.01854
167.446,15.0694,0.00758,1.0612,1.01766
169.646,15.13795,0.00758,1.06153,1.01677
171.846,15.2063,0.00758,1.06484,1.01587
174.046,15.27466,0.007553528,1.06236,1.01496
176.246,15.3424,0.00659,1.06527,1.01405
178.446,15.4099,0.00535354,1.06349,1.01313
180.646,15.47861,0.00659,1.06592,1.0122
182.846,15.5465,0.0069344,1.06648,1.01126
185.046,15.61404,0.00659,1.06775,1.01032
187.246,15.68155,0.00658765,1.07212,1.00937
189.446,15.74874,0.005270026,1.07683,1.00841
191.646,15.81608,0.00527,1.08021,1.00745
193.846,15.88331,0.00556379,1.08885,1.00647
196.046,15.95041,0.005930589,1.10125,1.00549
198.246,16.01729,0.00501182,1.11474,1.00451
200.446,16.0842,0.003618981,1.12891,1.00351
202.646,16.1511,0.00326645,1.14562,1.00251
204.846,16.2182,0.00329,1.16202,1.00151
207.046,16.28507,0.00329,1.17424,1.00049
209.246,16.35184,0.00329,1.18624,0.99947
211.446,16.41864,0.00329,1.1935,0.99844
213.646,16.48515,0.002449031,1.2045,0.99741
215.846,16.55205,0.00198,1.21148,0.99637
218.046,16.61891,0.001970079,1.21486,0.99532
220.246,16.6856,0.000660707,1.22061,0.99427
222.446,16.75204,0.001980106,1.22601,0.9932
224.646,16.81832,0.00104535,1.2314,0.99213
226.846,16.8853,-0.0003299979,1.23551,0.99106
229.046,16.9517,-0.0003300318,1.24057,0.98998
231.246,17.01817,-0.000991032,1.24364,0.98889
233.446,17.0846,-0.0009899998,1.24923,0.98779
235.646,17.15097,-0.0008040478,1.2512,0.98669
237.846,17.21743,-0.000652608,1.25788,0.98558
240.046,17.28368,-0.001981182,1.26183,0.98447
242.246,17.3501,-0.00198,1.26444,0.98335
244.446,17.41633,-0.002072331,1.26843,0.98222
246.646,17.48254,-0.00329,1.27283,0.98109
248.846,17.54895,-0.004124851,1.27672,0.97995
251.046,17.61519,-0.004279945,1.27868,0.9788
253.246,17.6816,-0.00474075,1.28415,0.97765
255.446,17.74776,-0.004274044,1.28699,0.97649
257.646,17.814,-0.00692925,1.29252,0.97532
259.846,17.8802,-0.006920004,1.29313,0.97415
262.046,17.946,-0.008237433,1.2956,0.97297
264.246,18.01246,-0.009228963,1.30016,0.97179
266.446,18.0785,-0.0105377,1.30479,0.9706
268.646,18.1449,-0.01136273,1.30489,0.9694
270.846,18.21102,-0.01185998,1.30777,0.9682
273.046,18.277,-0.01284614,1.31128,0.96699
275.246,18.34338,-0.01284991,1.31497,0.96578
277.446,18.40954,-0.01417136,1.31586,0.96456
279.646,18.47571,-0.01415689,1.31923,0.96333
281.846,18.5419,-0.01679027,1.32293,0.9621
284.046,18.60815,-0.01676707,1.3266,0.96086
286.246,18.67437,-0.01680069,1.32878,0.95962
288.446,18.74065,-0.01812179,1.33212,0.95837
290.646,18.80696,-0.01812492,1.3339,0.95711
292.846,18.8733,-0.02073516,1.33719,0.95585
295.046,18.93947,-0.02173207,1.33952,0.95458
297.246,19.00607,-0.0230503,1.34496,0.95331
299.446,19.07239,-0.02336946,1.34904,0.95203
301.646,19.13831,-0.0251242,1.35118,0.95075
303.846,19.20506,-0.02758429,1.35482,0.94946
306.046,19.2716,-0.03025413,1.35833,0.94817
308.246,19.33801,-0.03161483,1.36538,0.94687
310.446,19.4044,-0.03416832,1.36664,0.94556
312.646,19.47071,-0.03610914,1.37355,0.94425
314.846,19.53732,-0.03867407,1.37702,0.94293
317.046,19.6039,-0.04139564,1.38318,0.94161
319.246,19.6704,-0.04269658,1.38858,0.94028
321.446,19.73697,-0.0455339,1.39242,0.93895
323.646,19.80344,-0.0488153,1.39893,0.93761
325.846,19.86978,-0.05168685,1.40463,0.93627
328.046,19.93681,-0.0548074,1.40978,0.93492
330.246,20.00359,-0.05876595,1.41605,0.93357
332.446,20.07024,-0.06055439,1.42196,0.93221
334.646,20.13705,-0.06479345,1.43084,0.93085
336.846,20.20385,-0.06750631,1.4365,0.92948
339.046,20.27065,-0.0708005,1.44574,0.9281
341.246,20.33765,-0.07420554,1.45488,0.92672
343.446,20.40457,-0.07753702,1.46637,0.92534
345.646,20.47167,-0.08214647,1.47852,0.92395
347.846,20.5386,-0.08662077,1.48734,0.92256
350.046,20.60572,-0.09158152,1.50141,0.92116
352.246,20.6729,-0.09610496,1.51738,0.91976
354.446,20.74005,-0.10145,1.5313,0.91835
356.646,20.80725,-0.10628,1.55,0.91693
358.846,20.8746,-0.11228,1.56771,0.91552
361.046,20.94181,-0.11809,1.59048,0.91409
363.246,21.00911,-0.12477,1.61309,0.91267
365.446,21.07667,-0.13249,1.64012,0.91123
367.646,21.14412,-0.14028,1.66821,0.9098
369.846,21.21187,-0.14985,1.70147,0.90836
372.046,21.27948,-0.15933,1.74057,0.90691
374.246,21.34695,-0.16921,1.78256,0.90546
376.446,21.41467,-0.18135,1.83098,0.904
378.646,21.4824,-0.19423,1.88553,0.90255
380.846,21.5502,-0.20701,1.94686,0.90108
383.046,21.61796,-0.22227,2.01801,0.89961
385.246,21.6859,-0.24089,2.09819,0.89814
387.446,21.75378,-0.25954,2.18549,0.89666
389.646,21.82176,-0.28074,2.28388,0.89518
391.846,21.88976,-0.30385,2.39278,0.8937
394.046,21.95802,-0.33001,2.51781,0.89221
396.246,22.0264,-0.35976,2.65956,0.89071
398.446,22.09456,-0.3897,2.8176,0.88921
400.646,22.16293,-0.42615,2.99391,0.88771
402.846,22.23142,-0.46745,3.19223,0.8862
405.046,22.30021,-0.51262,3.41977,0.88469
407.246,22.36883,-0.5634,3.67949,0.88318
409.446,22.43759,-0.61677,3.95691,0.88166
411.646,22.5067,-0.68496,4.28125,0.88014
413.846,22.57575,-0.75689,4.64333,0.87861
416.046,22.64494,-0.83823,5.03472,0.87708
418.246,22.7144,-0.92523,5.48456,0.87554
420.446,22.78386,-1.03095,5.99085,0.874
422.646,22.85371,-1.14513,6.46722,0.87246
424.846,22.92366,-1.27198,6.97474,0.87092
427.046,22.99377,-1.4106,7.47006,0.86937
429.246,23.06393,-1.55921,7.88025,0.86781
431.446,23.13404,-1.71476,8.24334,0.86625
433.646,23.20414,-1.87789,8.56475,0.86469
435.846,23.27444,-2.04289,8.51779,0.86313
438.046,23.34487,-2.25408,7.70701,0.86156
440.246,23.41451,-2.47934,7.75904,0.85999
442.446,23.48441,-2.66591,7.86313,0.85841
444.646,23.55436,-2.88507,7.70076,0.85683
446.846,23.624,-3.10128,7.22467,0.85525
449.046,23.693,-3.28473,6.49476,0.85366
451.246,23.76134,-3.42973,5.59884,0.85207
453.446,23.8292,-3.55695,4.63153,0.85048
455.646,23.89684,-3.66068,3.65435,0.84888
457.846,23.96389,-3.74148,2.75131,0.84728
460.046,24.03095,-3.80471,1.96581,0.84568
462.246,24.098,-3.85248,1.32695,0.84407
464.446,24.16522,-3.88621,0.82567,0.84246
466.646,24.2327,-3.91415,0.45033,0.84085
468.846,24.30001,-3.93365,0.17551,0.83923
471.046,24.3675,-3.94994,-0.02610824,0.83761
473.246,24.4358,-3.96102,-0.17729,0.83599
475.446,24.5041,-3.97011,-0.29123,0.83436
477.646,24.57287,-3.97806,-0.37986,0.83273
479.846,24.64166,-3.98394,-0.44766,0.8311
482.046,24.71045,-3.98845,-0.49987,0.82947
484.246,24.77956,-3.99242,-0.54656,0.82783
486.446,24.8486,-3.99487,-0.58393,0.82619
488.646,24.9179,-3.99711,-0.62347,0.82454
490.846,24.98696,-3.9971,-0.65758,0.8229
493.046,25.05658,-3.9971,-0.67852,0.82125
495.246,25.1262,-3.9971,-0.69522,0.81959
497.446,25.19556,-3.9971,-0.70142,0.81794
499.646,25.26559,-3.9971,-0.70816,0.81628
501.846,25.33533,-3.9971,-0.71083,0.81462
504.046,25.4052,-3.99809,-0.71343,0.81295
506.246,25.47504,-3.99809,-0.71649,0.81129
508.446,25.54504,-3.99809,-0.71672,0.80962
510.646,25.61494,-3.99815,-0.72016,0.80795
512.846,25.68516,-3.99644,-0.72071,0.80627
515.046,25.75529,-3.99643,-0.72363,0.80459
517.246,25.82544,-3.99776,-0.72579,0.80291
519.446,25.8958,-3.99776,-0.72848,0.80123
521.646,25.96614,-3.99776,-0.72915,0.79955
523.846,26.0363,-3.99776,-0.73329,0.79786
526.046,26.10689,-3.99776,-0.73751,0.79617
528.246,26.1775,-3.99743,-0.74298,0.79448
530.446,26.24788,-3.99842,-0.74794,0.79278
532.646,26.3185,-3.99842,-0.74756,0.79109
534.846,26.38907,-3.9971,-0.7546,0.78939
537.046,26.45978,-3.9971,-0.75857,0.78769
539.246,26.5307,-3.99709,-0.76123,0.78598
541.446,26.60112,-3.99678,-0.76576,0.78428
543.446,26.66586,-3.99545,-0.76848,0.78272