Folder: fsri_materials_database/01_Data/Bean_Bag_Chair_Beads/STA/N2/3K_min

Note: 01_Data/README.md
# Materials and Products Database
## 01_Data

Raw data generated from each apparatus are included here in plain-text format. The data is organized first by material, next by the short name of test apparatus used, and where applicable additional filtering by test settings.

### material.json

Each material directory contains a json file of the same name as the material. This file links the data stored in the repository as well as data and graphs produced by the accompanying scripts (__02_Scripts__) to the respective landing page for the material on the front-end website.

File: Bean_Bag_Chair_Beads_STA_N2_3KData_220517_R1.csv
##Temp./Â°C,Time/min,Mass loss(subtr.2)/mg,DSC(subtr.2)/(mW/mg),Sensit./(uV/mW)
50.249,10.01667,0.01668,0.008041771,1.05674
52.249,11.82488,0.01963941,0.06026341,1.05652
54.249,12.6371,0.01940066,0.06964317,1.05629
56.249,13.39153,0.02194995,0.0757437,1.05606
58.249,14.11483,0.02030175,0.0783463,1.05581
60.249,14.8216,0.02241334,0.07841196,1.05556
62.249,15.51736,0.0247247,0.07941793,1.05531
64.249,16.20215,0.02599711,0.08283887,1.05505
66.249,16.88425,0.02502854,0.08327305,1.05478
68.249,17.56264,0.0282533,0.08429848,1.05451
70.249,18.23488,0.02889585,0.08933642,1.05423
72.249,18.9074,0.02876398,0.08937444,1.05394
74.249,19.5808,0.02744004,0.09174078,1.05365
76.249,20.24899,0.02876,0.09470758,1.05335
78.249,20.9186,0.02909007,0.09236021,1.05304
80.249,21.58735,0.0307596,0.09245547,1.05273
82.249,22.25666,0.02908992,0.08783184,1.05241
84.249,22.9267,0.02941325,0.08730974,1.05208
86.249,23.59066,0.03073024,0.08817224,1.05175
88.249,24.25574,0.03138983,0.0886255,1.05141
90.249,24.92282,0.03131962,0.08888675,1.05106
92.249,25.58869,0.03106,0.09085943,1.05071
94.249,26.2552,0.03041435,0.09024143,1.05035
96.249,26.9191,0.03106406,0.09534727,1.04999
98.249,27.5823,0.02974991,0.09822827,1.04962
100.249,28.24683,0.02940248,0.10172,1.04924
102.249,28.9077,0.02854353,0.10455,1.04885
104.249,29.5726,0.02875996,0.10809,1.04846
106.249,30.23129,0.03041499,0.10988,1.04806
108.249,30.8928,0.03119806,0.11063,1.04765
110.249,31.55213,0.02758433,0.11092,1.04724
112.249,32.2089,0.0290029,0.11282,1.04682
114.249,32.8666,0.03227023,0.10883,1.0464
116.249,33.52775,0.02995198,0.10991,1.04596
118.249,34.1895,0.02929355,0.11185,1.04552
120.249,34.84924,0.02734726,0.11096,1.04508
122.249,35.51044,0.02864998,0.11493,1.04462
124.249,36.16578,0.02734105,0.11382,1.04416
126.249,36.82135,0.02568099,0.1146,1.04369
128.249,37.47899,0.02568081,0.11226,1.04322
130.249,38.13748,0.02572775,0.11187,1.04274
132.249,38.7866,0.02602599,0.11583,1.04225
134.249,39.44206,0.02601855,0.11693,1.04176
136.249,40.0993,0.02433523,0.11661,1.04125
138.249,40.7562,0.02450187,0.11575,1.04075
140.249,41.41193,0.02371239,0.11884,1.04023
142.249,42.066,0.02271848,0.11954,1.03971
144.249,42.7201,0.0226922,0.1214,1.03918
146.249,43.37375,0.02140188,0.11855,1.03864
148.249,44.03051,0.02371032,0.12091,1.0381
150.249,44.68009,0.02370998,0.12017,1.03754
152.249,45.33563,0.02141016,0.12234,1.03699
154.249,45.98665,0.020807,0.12225,1.03642
156.249,46.63964,0.02273,0.12298,1.03585
158.249,47.293,0.02266198,0.12348,1.03527
160.249,47.9463,0.02115396,0.1231,1.03468
162.249,48.59962,0.02074895,0.12493,1.03409
164.249,49.24928,0.02239405,0.12721,1.03349
166.249,49.89966,0.02172999,0.13055,1.03288
168.249,50.54763,0.02370774,0.13515,1.03227
170.249,51.199,0.02238102,0.13671,1.03164
172.249,51.85137,0.02272003,0.13793,1.03101
174.249,52.5018,0.02174804,0.13788,1.03038
176.249,53.1538,0.02338063,0.13633,1.02973
178.249,53.80457,0.02277873,0.13874,1.02908
180.249,54.45646,0.02239187,0.13768,1.02842
182.249,55.1095,0.0204014,0.13835,1.02776
184.249,55.75965,0.0220736,0.13997,1.02709
186.249,56.4104,0.02108,0.13987,1.02641
188.249,57.0601,0.02107979,0.14099,1.02572
190.249,57.71408,0.02354646,0.14278,1.02502
192.249,58.3672,0.02141,0.1414,1.02432
194.249,59.0185,0.01943066,0.14522,1.02361
196.249,59.66831,0.02108018,0.14648,1.0229
198.249,60.31535,0.02167718,0.14741,1.02217
200.249,60.9622,0.02142848,0.14716,1.02144
202.249,61.6076,0.02174422,0.15011,1.0207
204.249,62.2554,0.02012532,0.15115,1.01996
206.249,62.9038,0.02075593,0.1489,1.0192
208.249,63.55345,0.02052369,0.14896,1.01844
210.249,64.20397,0.01746099,0.14879,1.01768
212.249,64.85502,0.01907484,0.14948,1.0169
214.249,65.5008,0.01744871,0.15225,1.01612
216.249,66.14919,0.01810571,0.15145,1.01533
218.249,66.79833,0.01678999,0.14924,1.01453
220.249,67.446,0.01581,0.15059,1.01372
222.249,68.09103,0.01376531,0.15011,1.01291
224.249,68.74381,0.01544019,0.1542,1.01209
226.249,69.39229,0.0141583,0.15233,1.01126
228.249,70.04057,0.01259554,0.15371,1.01043
230.249,70.6865,0.01250842,0.15382,1.00959
232.249,71.33407,0.01119,0.15347,1.00874
234.249,71.9859,0.00899967,0.15445,1.00788
236.249,72.63556,0.01097,0.15551,1.00702
238.249,73.28184,0.00932,0.15322,1.00614
240.249,73.92934,0.008835363,0.15624,1.00526
242.249,74.5737,0.008338487,0.15958,1.00438
244.249,75.22143,0.006425379,0.15909,1.00348
246.249,75.8672,0.00603961,0.16065,1.00258
248.249,76.5167,0.00505,0.16006,1.00167
250.249,77.16414,0.001092943,0.16023,1.00076
252.249,77.81229,-0.000329353,0.16277,0.99983
254.249,78.45864,-0.0003189738,0.1709,0.9989
256.249,79.10644,-0.001954984,0.16248,0.99796
258.249,79.75402,-0.00133084,0.16115,0.99701
260.249,80.40348,-0.001980394,0.16301,0.99606
262.249,81.05078,-0.004928549,0.16342,0.9951
264.249,81.7004,-0.00724989,0.16392,0.99413
266.249,82.3496,-0.00854683,0.16411,0.99315
268.249,82.99292,-0.01297278,0.16557,0.99217
270.249,83.64349,-0.01447659,0.16653,0.99117
272.249,84.2911,-0.0161025,0.16887,0.99017
274.249,84.93709,-0.0176147,0.16944,0.98917
276.249,85.5852,-0.01863433,0.16846,0.98815
278.249,86.2345,-0.02118915,0.16989,0.98713
280.249,86.8826,-0.02382005,0.17177,0.9861
282.249,87.5316,-0.02936904,0.17149,0.98506
284.249,88.18137,-0.02733428,0.16962,0.98402
286.249,88.83299,-0.03128071,0.17139,0.98297
288.249,89.48232,-0.03365518,0.17216,0.98191
290.249,90.13133,-0.03490702,0.17197,0.98084
292.249,90.77978,-0.03885998,0.17611,0.97977
294.249,91.429,-0.04384004,0.17809,0.97868
296.249,92.0794,-0.04549518,0.17628,0.97759
298.249,92.73238,-0.04709906,0.1805,0.9765
300.249,93.38381,-0.04909527,0.18123,0.97539
302.249,94.03013,-0.05353642,0.18377,0.97428
304.249,94.6789,-0.05643397,0.18588,0.97316
306.249,95.33046,-0.06228405,0.18633,0.97203
308.249,95.98312,-0.06421917,0.18378,0.9709
310.249,96.63785,-0.06948824,0.18615,0.96976
312.249,97.28575,-0.07080585,0.1888,0.96861
314.249,97.93904,-0.07671871,0.19522,0.96745
316.249,98.5914,-0.08331211,0.19893,0.96629
318.249,99.24149,-0.08730646,0.20183,0.96511
320.249,99.89463,-0.08977486,0.20036,0.96393
322.249,100.547,-0.09759715,0.20295,0.96275
324.249,101.199,-0.10694,0.203,0.96155
326.249,101.85,-0.11483,0.21039,0.96035
328.249,102.498,-0.12142,0.21364,0.95914
330.249,103.152,-0.12995,0.21809,0.95793
332.249,103.807,-0.13854,0.21711,0.9567
334.249,104.461,-0.14899,0.22749,0.95547
336.249,105.112,-0.16035,0.23073,0.95423
338.249,105.764,-0.17397,0.23465,0.95299
340.249,106.421,-0.18593,0.23922,0.95173
342.249,107.074,-0.20054,0.24991,0.95047
344.249,107.725,-0.21363,0.25428,0.9492
346.249,108.374,-0.23091,0.2641,0.94793
348.249,109.024,-0.24956,0.27098,0.94665
350.249,109.676,-0.27012,0.27979,0.94536
352.249,110.33,-0.29275,0.29104,0.94406
354.249,110.987,-0.31813,0.30143,0.94275
356.249,111.64,-0.34554,0.31787,0.94144
358.249,112.296,-0.37606,0.33575,0.94012
360.249,112.9522,-0.41297,0.34871,0.93879
362.249,113.611,-0.4495,0.36764,0.93746
364.249,114.266,-0.49415,0.39254,0.93612
366.249,114.921,-0.54291,0.41962,0.93477
368.249,115.576,-0.59659,0.44724,0.93342
370.249,116.229,-0.65481,0.47745,0.93205
372.249,116.883,-0.72391,0.51397,0.93068
374.249,117.543,-0.80047,0.55556,0.92931
376.249,118.204,-0.88551,0.5993,0.92792
378.249,118.861,-0.98345,0.65075,0.92653
380.249,119.517,-1.0882,0.71149,0.92513
382.249,120.1748,-1.20797,0.77217,0.92373
384.249,120.831,-1.34036,0.82803,0.92231
386.249,121.489,-1.48969,0.89041,0.92089
388.249,122.151,-1.64823,0.94349,0.91947
390.249,122.809,-1.82122,0.99456,0.91803
392.249,123.4684,-2.0041,1.04392,0.91659
394.249,124.126,-2.1958,1.06074,0.91514
396.249,124.784,-2.39364,1.07933,0.91369
398.249,125.44,-2.59471,1.06433,0.91223
400.249,126.096,-2.79147,1.0284,0.91076
402.249,126.752,-2.97893,0.96336,0.90928
404.249,127.405,-3.14913,0.87626,0.9078
406.249,128.059,-3.30231,0.7761,0.90631
408.249,128.712,-3.43471,0.66285,0.90481
410.249,129.366,-3.54625,0.54931,0.90331
412.249,130.019,-3.63505,0.44943,0.9018
414.249,130.665,-3.7049,0.36302,0.90028
416.249,131.323,-3.75182,0.28966,0.89876
418.249,131.98,-3.80595,0.23669,0.89723
420.249,132.637,-3.83032,0.18912,0.89569
422.249,133.296,-3.86847,0.15896,0.89414
424.249,133.955,-3.8839,0.13676,0.89259
426.249,134.611,-3.89449,0.11295,0.89104
428.249,135.262,-3.90646,0.09729535,0.88947
430.249,135.924,-3.91676,0.08775541,0.8879
432.249,136.586,-3.92487,0.07986993,0.88632
434.249,137.245,-3.92889,0.07234706,0.88474
436.249,137.905,-3.93408,0.06377418,0.88315
438.249,138.565,-3.93674,0.05189143,0.88155
440.249,139.227,-3.93672,0.0581687,0.87995
442.249,139.8881,-3.93691,0.05836757,0.87834
444.249,140.5483,-3.93808,0.04972496,0.87672
446.249,141.207,-3.93867,0.04214245,0.87509
448.249,141.869,-3.93639,0.04218625,0.87346
450.249,142.527,-3.93903,0.04218787,0.87183
452.249,143.1878,-3.93942,0.03928016,0.87019
454.249,143.8517,-3.9387,0.03687914,0.86854
456.249,144.515,-3.93994,0.03794308,0.86688
458.249,145.181,-3.93935,0.03903394,0.86522
460.249,145.841,-3.94068,0.03451754,0.86355
462.249,146.5,-3.94034,0.03372475,0.86188
464.249,147.162,-3.94163,0.03710992,0.8602
466.249,147.8257,-3.94075,0.03585425,0.85851
468.249,148.489,-3.941,0.0352061,0.85682
470.249,149.151,-3.94265,0.03702397,0.85512
472.249,149.812,-3.94059,0.03523849,0.85341
474.249,150.474,-3.94312,0.03459506,0.8517
476.249,151.139,-3.9423,0.03474062,0.84999
478.249,151.804,-3.94365,0.03588823,0.84826
480.249,152.465,-3.94265,0.03546718,0.84653
482.249,153.13,-3.94263,0.03550526,0.8448
484.249,153.793,-3.94265,0.0351733,0.84306
486.249,154.454,-3.94232,0.03581347,0.84131
488.249,155.116,-3.94397,0.03598964,0.83956
490.249,155.778,-3.94364,0.03846289,0.8378
492.249,156.444,-3.94429,0.03457019,0.83603
494.249,157.108,-3.94485,0.03385772,0.83426
496.249,157.77,-3.94559,0.03729428,0.83249
498.249,158.436,-3.94413,0.03700189,0.83071
500.249,159.097,-3.94255,0.03564516,0.82892
502.249,159.763,-3.94569,0.0354056,0.82713
502.949,159.993,-3.94649,0.03635698,0.8265