Folder: fsri_materials_database/01_Data/FRP_Panel/STA/N2/10K_min (part 2)

File: FRP_Panel_STA_N2_10KData_22238_R3.csv
##Temp./Â°C,Time/min,Mass loss(subtr.2)/mg,DSC(subtr.2)/(mW/mg),Sensit./(uV/mW)
50.187,10.00917,0.00593,0.006145109,1.02684
53.387,11.48301,0.008441822,0.09250937,1.02656
56.587,12.0136,0.008537818,0.12955,1.02628
59.787,12.464,0.007822522,0.15326,1.02599
62.987,12.87781,0.01028644,0.16938,1.02569
66.187,13.2712,0.00978826,0.19121,1.02539
69.387,13.6497,0.009213069,0.2077,1.02508
72.587,14.01454,0.009444195,0.20678,1.02476
75.787,14.3723,0.008713047,0.20315,1.02444
78.987,14.72282,0.00793248,0.2072,1.02411
82.187,15.0656,0.006604589,0.21084,1.02377
85.387,15.40356,0.0061948,0.21785,1.02342
88.587,15.73665,0.006137141,0.22274,1.02307
91.787,16.06381,0.003972037,0.22768,1.0227
94.987,16.38779,0.003949508,0.23323,1.02233
98.187,16.70826,0.00396056,0.23388,1.02196
101.387,17.02611,0.00335883,0.23666,1.02157
104.587,17.34219,0.001316026,0.23957,1.02118
107.787,17.65653,3.644665e-06,0.24254,1.02077
110.987,17.96973,-0.00132,0.24573,1.02036
114.187,18.2824,-0.003567308,0.24685,1.01994
117.387,18.59515,-0.004939898,0.24624,1.01951
120.587,18.90684,-0.006249985,0.24738,1.01908
123.787,19.21804,-0.008889895,0.24706,1.01863
126.987,19.52773,-0.008903499,0.24886,1.01817
130.187,19.8377,-0.0108707,0.24944,1.01771
133.387,20.14634,-0.01218,0.25013,1.01723
136.587,20.4553,-0.01482142,0.24933,1.01675
139.787,20.7629,-0.0161404,0.24882,1.01625
142.987,21.06953,-0.0167907,0.24981,1.01575
146.187,21.37518,-0.01878001,0.25252,1.01523
149.387,21.68003,-0.01642655,0.24959,1.01471
152.587,21.98575,-0.01921,0.25062,1.01417
155.787,22.2905,-0.01921116,0.25107,1.01363
158.987,22.59504,-0.02316,0.25331,1.01307
162.187,22.8998,-0.02282425,0.25174,1.0125
165.387,23.20373,-0.02467165,0.24947,1.01192
168.587,23.508,-0.02590008,0.24917,1.01133
171.787,23.81202,-0.02722076,0.24626,1.01073
174.987,24.1164,-0.03051924,0.24457,1.01012
178.187,24.42035,-0.03381018,0.24223,1.0095
181.387,24.72437,-0.03424939,0.2397,1.00886
184.587,25.02818,-0.03776537,0.23797,1.00821
187.787,25.33221,-0.04039988,0.23806,1.00755
190.987,25.6357,-0.04434918,0.23807,1.00688
194.187,25.93955,-0.04567,0.244,1.0062
197.387,26.2429,-0.04730563,0.25517,1.0055
200.587,26.5466,-0.05390643,0.26835,1.00479
203.787,26.8501,-0.05522,0.28532,1.00407
206.987,27.1536,-0.05883963,0.30117,1.00333
210.187,27.4572,-0.06247176,0.31423,1.00259
213.387,27.7606,-0.06642003,0.32823,1.00182
216.587,28.06454,-0.07037004,0.33372,1.00105
219.787,28.36898,-0.07431937,0.33835,1.00026
222.987,28.6716,-0.0782971,0.34288,0.99946
226.187,28.97682,-0.08324384,0.3418,0.99865
229.387,29.2803,-0.0874947,0.34005,0.99782
232.587,29.58427,-0.09143653,0.33708,0.99697
235.787,29.88897,-0.09672001,0.33113,0.99612
238.987,30.1937,-0.10042,0.32638,0.99524
242.187,30.4985,-0.10439,0.32272,0.99436
245.387,30.80296,-0.10872,0.32428,0.99346
248.587,31.1076,-0.11398,0.32196,0.99254
251.787,31.4127,-0.11884,0.32745,0.99161
254.987,31.71596,-0.1258,0.33169,0.99067
258.187,32.02167,-0.12856,0.3377,0.98971
261.387,32.32582,-0.13738,0.33913,0.98873
264.587,32.6306,-0.14041,0.33714,0.98774
267.787,32.93545,-0.14433,0.33306,0.98674
270.987,33.24054,-0.15391,0.32607,0.98571
274.187,33.54567,-0.15981,0.31738,0.98468
277.387,33.85171,-0.1648,0.30494,0.98362
280.587,34.15737,-0.17256,0.29218,0.98255
283.787,34.4629,-0.17664,0.28302,0.98147
286.987,34.76891,-0.18323,0.2705,0.98037
290.187,35.07483,-0.18816,0.26046,0.97925
293.387,35.38114,-0.19226,0.25437,0.97811
296.587,35.6875,-0.19996,0.24627,0.97696
299.787,35.99452,-0.20567,0.24801,0.97579
302.987,36.30122,-0.20958,0.24988,0.97461
306.187,36.60845,-0.21485,0.24962,0.97341
309.387,36.91641,-0.22152,0.25127,0.97219
312.587,37.22472,-0.22888,0.25314,0.97095
315.787,37.53287,-0.23636,0.25474,0.9697
318.987,37.84149,-0.24303,0.25663,0.96843
322.187,38.15018,-0.24689,0.26113,0.96714
325.387,38.45902,-0.2536,0.26172,0.96584
328.587,38.76784,-0.26281,0.2663,0.96452
331.787,39.07627,-0.27121,0.26964,0.96317
334.987,39.38602,-0.28078,0.27192,0.96182
338.187,39.6944,-0.28876,0.27543,0.96044
341.387,40.00399,-0.30328,0.28068,0.95905
344.587,40.31241,-0.31179,0.28628,0.95763
347.787,40.62214,-0.32493,0.29152,0.9562
350.987,40.93121,-0.33806,0.29716,0.95475
354.187,41.2398,-0.35312,0.30387,0.95329
357.387,41.54953,-0.36711,0.31381,0.9518
360.587,41.8592,-0.38303,0.31973,0.9503
363.787,42.1693,-0.404,0.32672,0.94877
366.987,42.4802,-0.42442,0.33843,0.94723
370.187,42.79015,-0.44943,0.34998,0.94567
373.387,43.10086,-0.47435,0.36396,0.94409
376.587,43.41178,-0.50371,0.37888,0.9425
379.787,43.72254,-0.53495,0.4002,0.94088
382.987,44.0342,-0.57198,0.42396,0.93924
386.187,44.34531,-0.61282,0.45135,0.93759
389.387,44.6571,-0.6601,0.48004,0.93592
392.587,44.96901,-0.71269,0.51332,0.93422
395.787,45.28071,-0.77192,0.54243,0.93251
398.987,45.59312,-0.8409,0.57399,0.93078
402.187,45.90489,-0.91619,0.60215,0.92903
405.387,46.21699,-1.00066,0.6204,0.92726
408.587,46.5293,-1.08735,0.62892,0.92547
411.787,46.84138,-1.18029,0.62142,0.92366
414.987,47.1536,-1.27189,0.59201,0.92184
418.187,47.4659,-1.36521,0.54245,0.91999
421.387,47.7781,-1.44949,0.48489,0.91812
424.587,48.08976,-1.52238,0.41808,0.91624
427.787,48.40181,-1.58816,0.35083,0.91433
430.987,48.71415,-1.63818,0.28699,0.9124
434.187,49.0263,-1.67751,0.23193,0.91046
437.387,49.33915,-1.70636,0.189,0.9085
440.587,49.65218,-1.72415,0.15652,0.90651
443.787,49.96562,-1.73469,0.13455,0.90451
446.987,50.27857,-1.74456,0.11883,0.90249
450.187,50.5922,-1.74983,0.11158,0.90044
453.387,50.90587,-1.75213,0.10475,0.89838
456.587,51.2204,-1.75707,0.09977776,0.8963
459.787,51.5347,-1.76009,0.09749898,0.8942
462.987,51.84897,-1.76267,0.09557717,0.89208
466.187,52.1636,-1.76528,0.09601375,0.88994
469.387,52.47863,-1.76666,0.09500064,0.88778
472.587,52.794,-1.7703,0.09413055,0.8856
475.787,53.1088,-1.7732,0.09479127,0.8834
478.987,53.4251,-1.7742,0.09358323,0.88118
482.187,53.74109,-1.77716,0.09218289,0.87894
485.387,54.05794,-1.77887,0.09221526,0.87669
488.587,54.3747,-1.78112,0.08662244,0.87441
491.787,54.69178,-1.78114,0.08653352,0.87211
494.987,55.00877,-1.78486,0.08290916,0.8698
498.187,55.3252,-1.79111,0.07969824,0.86746
501.387,55.641,-1.79243,0.07661725,0.86511
504.587,55.9566,-1.79618,0.07360318,0.86274
507.787,56.272,-1.79531,0.07228303,0.86035
510.987,56.5878,-1.79773,0.06831099,0.85793
514.187,56.90334,-1.79802,0.06754457,0.8555
517.387,57.21943,-1.80198,0.06364821,0.85306
520.587,57.5353,-1.80193,0.06303861,0.85059
523.787,57.8522,-1.80395,0.06285166,0.8481
526.987,58.16845,-1.80627,0.0771041,0.8456
530.187,58.4854,-1.80595,0.08575895,0.84307
533.387,58.8027,-1.80856,0.08682432,0.84053
536.587,59.1197,-1.80846,0.08856328,0.83797
539.787,59.4357,-1.80939,0.09103441,0.83539
542.987,59.7523,-1.8078,0.08811776,0.83279
546.187,60.06951,-1.81109,0.06792219,0.83017
549.387,60.38691,-1.8133,0.05431339,0.82754
552.587,60.70494,-1.81372,0.04990476,0.82489
555.787,61.0229,-1.81241,0.04837861,0.82222
558.987,61.34123,-1.8132,0.0442175,0.81953
562.187,61.65988,-1.81241,0.04469609,0.81682
565.387,61.97765,-1.81372,0.04632988,0.8141
568.587,62.29597,-1.81372,0.04087963,0.81136
571.787,62.61395,-1.81405,0.03859148,0.8086
574.987,62.932,-1.8157,0.04019749,0.80582
578.187,63.2506,-1.81768,0.04233702,0.80303
581.387,63.56913,-1.8179,0.04420219,0.80022
584.587,63.889,-1.81658,0.04747398,0.79739
587.787,64.20761,-1.82185,0.0503193,0.79454
590.987,64.5269,-1.81922,0.05623001,0.79168
594.187,64.84599,-1.82313,0.06385903,0.7888
597.387,65.1652,-1.82316,0.06915765,0.78591
600.587,65.48422,-1.82481,0.0738238,0.783
603.787,65.80333,-1.82384,0.08120862,0.78007
606.987,66.12285,-1.82731,0.08961049,0.77713
610.187,66.44246,-1.82827,0.10109,0.77417
613.387,66.7629,-1.83132,0.11167,0.77119
616.587,67.08322,-1.83273,0.11901,0.7682
619.787,67.40315,-1.83433,0.13372,0.7652
622.987,67.72312,-1.8378,0.14746,0.76217
626.187,68.04296,-1.84161,0.16004,0.75914
629.387,68.36281,-1.84415,0.1746,0.75609
632.587,68.6824,-1.84835,0.19157,0.75302
635.787,69.0007,-1.85467,0.21228,0.74994
638.987,69.31974,-1.85953,0.23346,0.74684
642.187,69.63906,-1.86344,0.25272,0.74373
645.387,69.9585,-1.8707,0.27948,0.74061
648.587,70.27763,-1.87629,0.30859,0.73747
651.787,70.59783,-1.8843,0.34149,0.73431
654.987,70.91759,-1.89392,0.37152,0.73115
658.187,71.23852,-1.90084,0.41155,0.72797
661.387,71.5594,-1.91045,0.45221,0.72477
664.587,71.88015,-1.91994,0.49815,0.72157
667.787,72.2012,-1.93063,0.54246,0.71835
670.987,72.5221,-1.94276,0.59051,0.71511
674.187,72.84276,-1.95686,0.64732,0.71187
677.387,73.16281,-1.971,0.70725,0.70861
680.587,73.48269,-1.9892,0.77335,0.70534
683.787,73.80205,-2.00494,0.842,0.70206
686.987,74.12127,-2.0225,0.91595,0.69876
690.187,74.4409,-2.04278,1.00059,0.69546
693.387,74.7615,-2.06263,1.07213,0.69214
696.587,75.08213,-2.08867,1.15072,0.68881
699.787,75.40254,-2.11143,1.23258,0.68547
702.987,75.7227,-2.13709,1.31464,0.68212
706.187,76.0428,-2.16614,1.39573,0.67876
709.387,76.363,-2.1957,1.47348,0.67539
712.587,76.68339,-2.22836,1.5437,0.67201
715.787,77.00403,-2.2603,1.60317,0.66861
718.987,77.32553,-2.29709,1.65262,0.66521
722.187,77.64734,-2.32871,1.67811,0.6618
725.387,77.96895,-2.36391,1.67029,0.65838
728.587,78.28996,-2.39578,1.60675,0.65495
731.787,78.61216,-2.43003,1.48005,0.65151
734.987,78.93258,-2.45833,1.22654,0.64806
738.187,79.2527,-2.47939,0.75151,0.6446
741.387,79.57127,-2.48967,0.20768,0.64114
744.587,79.8912,-2.49281,-0.0167668,0.63767
747.787,80.21228,-2.49559,-0.08184265,0.63418
750.987,80.53486,-2.49492,-0.1011,0.6307
754.187,80.8563,-2.49502,-0.10762,0.6272
757.387,81.17788,-2.49756,-0.10993,0.6237
760.587,81.5004,-2.49789,-0.10928,0.62018
763.787,81.82308,-2.49888,-0.1131,0.61667
766.987,82.1455,-2.49953,-0.11013,0.61314
770.187,82.46738,-2.49791,-0.11267,0.60961
773.387,82.78904,-2.50052,-0.112,0.60608
776.587,83.11039,-2.49966,-0.11707,0.60253
779.787,83.43163,-2.49951,-0.11605,0.59899
782.987,83.7531,-2.49965,-0.12065,0.59543
786.187,84.07454,-2.5014,-0.12059,0.59187
789.387,84.39659,-2.5014,-0.12617,0.58831
792.587,84.71844,-2.50404,-0.12163,0.58474
795.387,84.99896,-2.50141,-0.1213,0.58162