Folder: fsri_materials_database/01_Data/FRP_Panel/STA/N2/10K_min

Note: 01_Data/README.md
# Materials and Products Database
## 01_Data

Raw data generated from each apparatus are included here in plain-text format. The data is organized first by material, next by the short name of test apparatus used, and where applicable additional filtering by test settings.

### material.json

Each material directory contains a json file of the same name as the material. This file links the data stored in the repository as well as data and graphs produced by the accompanying scripts (__02_Scripts__) to the respective landing page for the material on the front-end website.

File: FRP_Panel_STA_N2_10KData_22158_R1.csv
##Temp./Â°C,Time/min,Mass loss(subtr.2)/mg,DSC(subtr.2)/(mW/mg),Sensit./(uV/mW)
49.691,10.01,0.01877,0.0001773403,1.07018
52.691,11.2965,0.01830796,0.09054312,1.06935
55.691,11.72964,0.01908204,0.12428,1.06852
58.691,12.095,0.01845235,0.14322,1.06767
61.691,12.43781,0.0206854,0.16076,1.06681
64.691,12.7696,0.01986897,0.17535,1.06595
67.691,13.09329,0.01954584,0.19162,1.06508
70.691,13.4126,0.01951309,0.19103,1.06419
73.691,13.72829,0.01953949,0.18508,1.0633
76.691,14.041,0.01788913,0.18009,1.0624
79.691,14.3509,0.01921849,0.18239,1.06148
82.691,14.65841,0.01788516,0.18328,1.06056
85.691,14.9639,0.01657953,0.18808,1.05963
88.691,15.26586,0.01526081,0.19051,1.05869
91.691,15.5653,0.01525128,0.19411,1.05774
94.691,15.8634,0.01393951,0.19556,1.05678
97.691,16.16004,0.01262,0.19665,1.05581
100.691,16.4549,0.01217052,0.19923,1.05483
103.691,16.74961,0.01131002,0.19848,1.05385
106.691,17.04365,0.01032,0.20164,1.05285
109.691,17.33708,0.007380419,0.20254,1.05184
112.691,17.62997,0.006699686,0.203,1.05082
115.691,17.9242,0.00564146,0.20376,1.0498
118.691,18.2169,0.0067478,0.2051,1.04876
121.691,18.50846,0.003722384,0.20726,1.04771
124.691,18.80012,0.002410959,0.20689,1.04666
127.691,19.09125,0.001091098,0.20768,1.04559
130.691,19.38287,-0.0002153584,0.20531,1.04452
133.691,19.6729,-0.001369075,0.20527,1.04343
136.691,19.96329,-0.0008775308,0.20534,1.04233
139.691,20.25306,-0.002199978,0.20413,1.04123
142.691,20.54126,-0.004831732,0.20504,1.04011
145.691,20.82968,-0.004509324,0.20773,1.03899
148.691,21.11867,-0.006480296,0.20593,1.03785
151.691,21.406,-0.006802842,0.20734,1.03671
154.691,21.69368,-0.007790545,0.20541,1.03555
157.691,21.9813,-0.00813666,0.20703,1.03439
160.691,22.26833,-0.01089185,0.20659,1.03321
163.691,22.55621,-0.01174617,0.20477,1.03202
166.691,22.84386,-0.01309024,0.2042,1.03083
169.691,23.13105,-0.01570002,0.20196,1.02962
172.691,23.41825,-0.01702001,0.2003,1.02841
175.691,23.70486,-0.01965302,0.19873,1.02718
178.691,23.99154,-0.02229034,0.19577,1.02594
181.691,24.27698,-0.02294363,0.19265,1.0247
184.691,24.56352,-0.02690085,0.19403,1.02344
187.691,24.8499,-0.02953996,0.19313,1.02217
190.691,25.13589,-0.03150966,0.19238,1.02089
193.691,25.42214,-0.03353866,0.19767,1.01961
196.691,25.70755,-0.03710998,0.20918,1.01831
199.691,25.9936,-0.04006054,0.22053,1.017
202.691,26.2793,-0.04170154,0.23532,1.01568
205.691,26.56522,-0.04534,0.25233,1.01435
208.691,26.84964,-0.04929989,0.26544,1.01301
211.691,27.1358,-0.05197261,0.27608,1.01166
214.691,27.42169,-0.05430835,0.28354,1.0103
217.691,27.7074,-0.05850657,0.28903,1.00893
220.691,27.99332,-0.06312779,0.29403,1.00754
223.691,28.2788,-0.067329,0.29556,1.00615
226.691,28.5646,-0.07036956,0.29526,1.00475
229.691,28.8497,-0.07431991,0.29448,1.00333
232.691,29.1349,-0.07761654,0.2925,1.00191
235.691,29.42065,-0.08288517,0.28926,1.00047
238.691,29.7059,-0.086639,0.2871,0.99903
241.691,29.99158,-0.0901402,0.28396,0.99757
244.691,30.2774,-0.09454392,0.28321,0.9961
247.691,30.5629,-0.09770279,0.28621,0.99462
250.691,30.84865,-0.10166,0.28965,0.99313
253.691,31.13435,-0.10985,0.29315,0.99163
256.691,31.4209,-0.11062,0.30135,0.99012
259.691,31.70692,-0.11482,0.29841,0.9886
262.691,31.99315,-0.12142,0.30112,0.98707
265.691,32.27789,-0.12698,0.30263,0.98553
268.691,32.56422,-0.1347,0.29704,0.98397
271.691,32.84967,-0.13995,0.29152,0.98241
274.691,33.13573,-0.14628,0.28126,0.98083
277.691,33.42348,-0.15186,0.26977,0.97925
280.691,33.71141,-0.15837,0.2638,0.97765
283.691,33.99818,-0.16319,0.25616,0.97604
286.691,34.28264,-0.16661,0.2473,0.97442
289.691,34.56779,-0.17324,0.23704,0.97279
292.691,34.85671,-0.17932,0.23173,0.97115
295.691,35.14347,-0.18346,0.23065,0.9695
298.691,35.4298,-0.18839,0.22945,0.96784
301.691,35.71378,-0.19267,0.22962,0.96616
304.691,36.0032,-0.19959,0.23309,0.96448
307.691,36.29098,-0.20354,0.23017,0.96278
310.691,36.57675,-0.21013,0.23466,0.96107
313.691,36.8641,-0.214,0.23682,0.95936
316.691,37.15263,-0.22199,0.23844,0.95763
319.691,37.441,-0.22795,0.24273,0.95589
322.691,37.72831,-0.23419,0.24494,0.95414
325.691,38.01579,-0.24212,0.24896,0.95237
328.691,38.30563,-0.25096,0.25101,0.9506
331.691,38.59608,-0.25695,0.25412,0.94882
334.691,38.88562,-0.26448,0.25379,0.94702
337.691,39.17473,-0.27539,0.25961,0.94522
340.691,39.46359,-0.28364,0.26363,0.9434
343.691,39.7547,-0.29551,0.26331,0.94157
346.691,40.0441,-0.30719,0.27039,0.93973
349.691,40.33133,-0.3174,0.2774,0.93788
352.691,40.62353,-0.33097,0.28,0.93602
355.691,40.91183,-0.34501,0.29014,0.93415
358.691,41.20312,-0.35949,0.29613,0.93227
361.691,41.49198,-0.37586,0.3058,0.93037
364.691,41.78427,-0.39437,0.31688,0.92847
367.691,42.07369,-0.4143,0.32506,0.92655
370.691,42.3643,-0.43556,0.33608,0.92463
373.691,42.6564,-0.46107,0.34569,0.92269
376.691,42.94623,-0.48808,0.36326,0.92074
379.691,43.237,-0.51773,0.37925,0.91878
382.691,43.52964,-0.55093,0.40012,0.91681
385.691,43.821,-0.58915,0.42412,0.91483
388.691,44.1124,-0.62978,0.44988,0.91284
391.691,44.40388,-0.67687,0.47727,0.91084
394.691,44.69619,-0.72965,0.50804,0.90882
397.691,44.9882,-0.78973,0.53624,0.9068
400.691,45.28093,-0.85629,0.56305,0.90476
403.691,45.5721,-0.93024,0.58205,0.90272
406.691,45.8653,-1.00861,0.59381,0.90066
409.691,46.15782,-1.09166,0.59554,0.89859
412.691,46.45162,-1.17776,0.58174,0.89652
415.691,46.74387,-1.2633,0.55286,0.89443
418.691,47.03654,-1.34543,0.51088,0.89233
421.691,47.32911,-1.42375,0.45751,0.89022
424.691,47.62277,-1.4936,0.3943,0.8881
427.691,47.9139,-1.55239,0.32905,0.88597
430.691,48.20715,-1.60179,0.26387,0.88382
433.691,48.49896,-1.63984,0.21239,0.88167
436.691,48.79313,-1.66864,0.16785,0.87951
439.691,49.08769,-1.68742,0.12991,0.87734
442.691,49.38078,-1.70036,0.10172,0.87515
445.691,49.6746,-1.70836,0.0877036,0.87296
448.691,49.96763,-1.71485,0.07457118,0.87076
451.691,50.2618,-1.7193,0.06377497,0.86854
454.691,50.55604,-1.72332,0.06014305,0.86632
457.691,50.85066,-1.72591,0.05846788,0.86408
460.691,51.14562,-1.72855,0.05524438,0.86184
463.691,51.44164,-1.73078,0.05540521,0.85958
466.691,51.73692,-1.73447,0.05489676,0.85732
469.691,52.03223,-1.73579,0.06267214,0.85504
472.691,52.32767,-1.73875,0.06974993,0.85276
475.691,52.6222,-1.73974,0.07003986,0.85046
478.691,52.91809,-1.74238,0.07292385,0.84816
481.691,53.2126,-1.74501,0.07274512,0.84584
484.691,53.50655,-1.74766,0.0781972,0.84352
487.691,53.80035,-1.74896,0.07285474,0.84118
490.691,54.0992,-1.75031,0.07088458,0.83884
493.691,54.39532,-1.75324,0.06862754,0.83648
496.691,54.69255,-1.75423,0.06064907,0.83412
499.691,54.9874,-1.75686,0.06199671,0.83175
502.691,55.2841,-1.7594,0.05525596,0.82936
505.691,55.5814,-1.76049,0.05065414,0.82697
508.691,55.8781,-1.76175,0.04781615,0.82457
511.691,56.17575,-1.76413,0.0441758,0.82216
514.691,56.47269,-1.76679,0.03804803,0.81974
517.691,56.77015,-1.76675,0.03669034,0.81731
520.691,57.067,-1.76769,0.03354333,0.81487
523.691,57.3643,-1.76938,0.02657768,0.81242
526.691,57.6614,-1.7707,0.0211533,0.80997
529.691,57.95926,-1.7707,0.01696935,0.8075
532.691,58.25705,-1.77136,0.01033302,0.80503
535.691,58.55624,-1.77234,0.004458182,0.80255
538.691,58.8552,-1.77333,-0.005742905,0.80005
541.691,59.15379,-1.77564,-0.01526993,0.79755
544.691,59.45236,-1.77432,-0.03133259,0.79504
547.691,59.7509,-1.77432,-0.04304282,0.79252
550.691,60.04974,-1.77564,-0.06629608,0.79
553.691,60.34789,-1.77564,-0.06816348,0.78746
556.691,60.6472,-1.77563,-0.06970257,0.78492
559.691,60.9461,-1.77595,-0.06180988,0.78237
562.691,61.24485,-1.77733,-0.06169951,0.77981
565.691,61.54436,-1.77698,-0.05919535,0.77724
568.691,61.84355,-1.77729,-0.05688334,0.77467
571.691,62.14258,-1.77861,-0.04536061,0.77208
574.691,62.442,-1.7786,-0.04542633,0.76949
577.691,62.74256,-1.78063,-0.04265847,0.76689
580.691,63.0438,-1.78025,-0.03572013,0.76428
583.691,63.3437,-1.7809,-0.03086601,0.76167
586.691,63.6441,-1.78218,-0.02848283,0.75905
589.691,63.94481,-1.78354,-0.02396145,0.75642
592.691,64.24428,-1.78453,-0.01899039,0.75378
595.691,64.5443,-1.78524,-0.0148924,0.75113
598.691,64.84382,-1.78683,-0.005017624,0.74848
601.691,65.14315,-1.78914,0.002505366,0.74582
604.691,65.44275,-1.79047,0.01252161,0.74316
607.691,65.74259,-1.7921,0.02020363,0.74048
610.691,66.04227,-1.79474,0.14175,0.7378
613.691,66.34356,-1.79803,0.1545,0.73511
616.691,66.6442,-1.79995,0.16685,0.73242
619.691,66.94463,-1.80203,0.1738,0.72972
622.691,67.24537,-1.80497,0.19111,0.72701
625.691,67.54681,-1.80827,0.20302,0.7243
628.691,67.85025,-1.8122,0.2209,0.72158
631.691,68.1519,-1.81549,0.23705,0.71886
634.691,68.45196,-1.81959,0.2576,0.71612
637.691,68.75174,-1.82339,0.27395,0.71339
640.691,69.05428,-1.82977,0.30583,0.71064
643.691,69.35571,-1.83556,0.33389,0.70789
646.691,69.65624,-1.84085,0.35726,0.70514
649.691,69.95458,-1.84819,0.38084,0.70237
652.691,70.25633,-1.85596,0.41084,0.69961
655.691,70.55843,-1.86319,0.44626,0.69684
658.691,70.86046,-1.87206,0.48078,0.69406
661.691,71.16336,-1.88195,0.5156,0.69127
664.691,71.46486,-1.89181,0.55641,0.68849
667.691,71.76649,-1.9028,0.60455,0.68569
670.691,72.06855,-1.9152,0.6519,0.6829
673.691,72.37136,-1.92752,0.70365,0.68009
676.691,72.6739,-1.94086,0.76166,0.67728
679.691,72.97589,-1.9557,0.82322,0.67447
682.691,73.27842,-1.97276,0.88752,0.67165
685.691,73.5804,-1.99086,0.95522,0.66883
688.691,73.88265,-2.00922,1.02949,0.66601
691.691,74.1855,-2.02946,1.10425,0.66318
694.691,74.4885,-2.0504,1.17994,0.66034
697.691,74.79047,-2.07372,1.2609,0.65751
700.691,75.0926,-2.09753,1.33958,0.65466
703.691,75.39458,-2.12428,1.42109,0.65182
706.691,75.6968,-2.14832,1.50057,0.64897
709.691,75.99813,-2.17746,1.57404,0.64612
712.691,76.29951,-2.20629,1.63318,0.64326
715.691,76.60226,-2.23731,1.67866,0.6404
718.691,76.90534,-2.26953,1.70698,0.63754
721.691,77.2088,-2.30045,1.70406,0.63467
724.691,77.51215,-2.33132,1.66523,0.6318
727.691,77.8155,-2.36049,1.58397,0.62893
730.691,78.11786,-2.38807,1.43762,0.62605
733.691,78.42,-2.41227,1.17245,0.62318
736.691,78.72134,-2.42969,0.73638,0.6203
739.691,79.02395,-2.43948,0.2886,0.61741
742.691,79.3268,-2.4434,0.04776827,0.61453
745.691,79.62966,-2.4441,-0.04562068,0.61164
748.691,79.93258,-2.44345,-0.07438122,0.60875
749.291,79.9931,-2.44453,-0.07985034,0.60818

File: FRP_Panel_STA_N2_10KData_22238_R2.csv
##Temp./Â°C,Time/min,Mass loss(subtr.2)/mg,DSC(subtr.2)/(mW/mg),Sensit./(uV/mW)
50.119,10.01,0.03602,0.0007562311,1.02684
53.319,11.4781,0.03925692,0.09853989,1.02657
56.519,12.0085,0.03974037,0.13953,1.02628
59.719,12.45732,0.04389894,0.16217,1.02599
62.919,12.872,0.04453513,0.18427,1.0257
66.119,13.26435,0.04438764,0.20677,1.0254
69.319,13.64225,0.04460531,0.2245,1.02509
72.519,14.00785,0.04610408,0.22747,1.02477
75.719,14.36478,0.04623438,0.22544,1.02444
78.919,14.71434,0.04606023,0.22943,1.02411
82.119,15.0577,0.04679884,0.23419,1.02377
85.319,15.39494,0.04754988,0.24026,1.02343
88.519,15.7269,0.04424744,0.24789,1.02307
91.719,16.05505,0.04554294,0.25233,1.02271
94.919,16.3784,0.04557049,0.25685,1.02234
98.119,16.6991,0.04557438,0.26138,1.02197
101.319,17.01791,0.04304512,0.26506,1.02158
104.519,17.33464,0.04269154,0.26858,1.02119
107.719,17.64984,0.04162,0.27329,1.02078
110.919,17.96434,0.04028956,0.27523,1.02037
114.119,18.2772,0.03964307,0.27932,1.01995
117.319,18.59095,0.03830549,0.2829,1.01952
120.519,18.90255,0.03701185,0.28412,1.01909
123.719,19.2136,0.03634074,0.28516,1.01864
126.919,19.52316,0.03635041,0.28746,1.01818
130.119,19.83171,0.0331917,0.28754,1.01772
133.319,20.14043,0.03371006,0.28728,1.01724
136.519,20.448,0.03108,0.28993,1.01676
139.719,20.75473,0.0310109,0.29156,1.01626
142.919,21.06129,0.03106674,0.29126,1.01576
146.119,21.36628,0.0284405,0.29089,1.01524
149.319,21.67159,0.02712002,0.29076,1.01472
152.519,21.9766,0.02712869,0.29207,1.01418
155.719,22.2805,0.02711945,0.29499,1.01364
158.919,22.58444,0.02539791,0.29495,1.01308
162.119,22.88831,0.02349634,0.29609,1.01251
165.319,23.19256,0.02250983,0.29642,1.01193
168.519,23.4967,0.02120132,0.29591,1.01135
171.719,23.80102,0.0185604,0.29443,1.01074
174.919,24.1055,0.01789763,0.29147,1.01013
178.119,24.4103,0.0139403,0.29134,1.00951
181.319,24.71453,0.01296998,0.28799,1.00887
184.519,25.01851,0.01264033,0.28858,1.00823
187.719,25.32161,0.01064652,0.28916,1.00757
190.919,25.6253,0.006816627,0.2891,1.00689
194.119,25.92889,0.00438997,0.29931,1.00621
197.319,26.23195,0.0014397,0.30692,1.00551
200.519,26.5354,0.00012167,0.31935,1.0048
203.719,26.8388,-0.00381078,0.33778,1.00408
206.919,27.1424,-0.00776826,0.35562,1.00335
210.119,27.44603,-0.01042407,0.3699,1.0026
213.319,27.74965,-0.01437008,0.38366,1.00184
216.519,28.05422,-0.02052989,0.39039,1.00107
219.719,28.35844,-0.02282997,0.39742,1.00028
222.919,28.6628,-0.02526058,0.4011,0.99948
226.119,28.9669,-0.03039322,0.40313,0.99866
229.319,29.2703,-0.03435977,0.40583,0.99783
232.519,29.5743,-0.03830955,0.40252,0.99699
235.719,29.8781,-0.04095142,0.40025,0.99613
238.919,30.1815,-0.04536518,0.39757,0.99526
242.119,30.48605,-0.04950695,0.39732,0.99438
245.319,30.7902,-0.05347581,0.3959,0.99348
248.519,31.0943,-0.05851009,0.39706,0.99256
251.719,31.3984,-0.06548884,0.40219,0.99163
254.919,31.7035,-0.06808218,0.40675,0.99069
258.119,32.00802,-0.07456121,0.41031,0.98973
261.319,32.31261,-0.07996578,0.4109,0.98875
264.519,32.6173,-0.08430965,0.41205,0.98776
267.719,32.9223,-0.08915182,0.40706,0.98676
270.919,33.22691,-0.09543463,0.4033,0.98574
274.119,33.53178,-0.1033,0.39273,0.9847
277.319,33.8369,-0.10793,0.38589,0.98364
280.519,34.14293,-0.11382,0.37494,0.98258
283.719,34.44895,-0.12174,0.36585,0.98149
286.919,34.75465,-0.12512,0.35243,0.98039
290.119,35.0612,-0.13127,0.3428,0.97927
293.319,35.36815,-0.13788,0.33704,0.97814
296.519,35.67467,-0.14286,0.33538,0.97699
299.719,35.98144,-0.14973,0.33505,0.97582
302.919,36.28865,-0.15369,0.33563,0.97464
306.119,36.59636,-0.1579,0.33652,0.97343
309.319,36.9041,-0.16501,0.34101,0.97222
312.519,37.2117,-0.17046,0.34562,0.97098
315.719,37.5194,-0.17607,0.34774,0.96973
318.919,37.8266,-0.18305,0.35113,0.96846
322.119,38.13462,-0.18942,0.35443,0.96717
325.319,38.443,-0.19498,0.35294,0.96587
328.519,38.75127,-0.20406,0.35555,0.96454
331.719,39.06088,-0.21365,0.3601,0.9632
334.919,39.37011,-0.22133,0.3639,0.96184
338.119,39.67968,-0.22985,0.36607,0.96047
341.319,39.98965,-0.23933,0.36985,0.95908
344.519,40.29906,-0.25097,0.37395,0.95766
347.719,40.6094,-0.26299,0.3789,0.95623
350.919,40.9189,-0.27664,0.38507,0.95478
354.119,41.22929,-0.29156,0.39193,0.95332
357.319,41.53839,-0.30501,0.39768,0.95183
360.519,41.8483,-0.31944,0.40762,0.95033
363.719,42.15789,-0.33957,0.41968,0.94881
366.919,42.46846,-0.36045,0.43265,0.94727
370.119,42.77858,-0.38335,0.44421,0.94571
373.319,43.08928,-0.40777,0.45807,0.94413
376.519,43.4003,-0.43443,0.47392,0.94253
379.719,43.7117,-0.4645,0.49307,0.94091
382.919,44.02343,-0.49931,0.51642,0.93928
386.119,44.33531,-0.54211,0.54311,0.93762
389.319,44.6473,-0.58588,0.57311,0.93595
392.519,44.95841,-0.63698,0.60518,0.93426
395.719,45.27049,-0.69503,0.64207,0.93255
398.919,45.58295,-0.76133,0.67435,0.93082
402.119,45.8951,-0.83498,0.70536,0.92907
405.319,46.20742,-0.91635,0.72923,0.9273
408.519,46.52,-1.00538,0.73772,0.92551
411.719,46.83157,-1.0962,0.73547,0.9237
414.919,47.1439,-1.18986,0.70988,0.92187
418.119,47.45636,-1.28101,0.66824,0.92003
421.319,47.7692,-1.36633,0.61187,0.91816
424.519,48.08139,-1.44374,0.54893,0.91628
427.719,48.3943,-1.51027,0.4807,0.91437
430.919,48.70712,-1.56481,0.4098,0.91245
434.119,49.0204,-1.60857,0.34986,0.9105
437.319,49.33321,-1.6367,0.3001,0.90854
440.519,49.64605,-1.65181,0.26839,0.90655
443.719,49.9595,-1.67407,0.24616,0.90455
446.919,50.27262,-1.67925,0.22826,0.90253
450.119,50.58678,-1.68521,0.22008,0.90049
453.319,50.90067,-1.6901,0.21456,0.89843
456.519,51.21362,-1.69065,0.20963,0.89634
459.719,51.5274,-1.69328,0.21031,0.89424
462.919,51.8414,-1.69735,0.20691,0.89212
466.119,52.15589,-1.69853,0.2077,0.88998
469.319,52.46995,-1.70207,0.21036,0.88782
472.519,52.7849,-1.7047,0.20931,0.88564
475.719,53.0995,-1.70633,0.20985,0.88345
478.919,53.41434,-1.708,0.21103,0.88123
482.119,53.72979,-1.71063,0.20959,0.87899
485.319,54.04563,-1.71263,0.20809,0.87673
488.519,54.3624,-1.71656,0.20897,0.87446
491.719,54.6781,-1.71788,0.21205,0.87216
494.919,54.994,-1.72018,0.21048,0.86985
498.119,55.30981,-1.72051,0.20611,0.86751
501.319,55.6253,-1.72579,0.20725,0.86516
504.519,55.94169,-1.7276,0.20323,0.86279
507.719,56.2574,-1.72751,0.2027,0.8604
510.919,56.57362,-1.73039,0.20366,0.85799
514.119,56.8895,-1.73205,0.20238,0.85556
517.319,57.20701,-1.73378,0.20164,0.85311
520.519,57.52389,-1.73778,0.20236,0.85064
523.719,57.8408,-1.73917,0.20254,0.84815
526.919,58.15744,-1.73859,0.21717,0.84565
530.119,58.4749,-1.73786,0.22282,0.84313
533.319,58.79237,-1.73824,0.22563,0.84058
536.519,59.1095,-1.7395,0.23284,0.83802
539.719,59.4268,-1.74082,0.23625,0.83544
542.919,59.7447,-1.7428,0.22475,0.83285
546.119,60.0625,-1.74126,0.2067,0.83023
549.319,60.38054,-1.74258,0.20244,0.8276
552.519,60.6984,-1.7439,0.19801,0.82494
555.719,61.016,-1.74251,0.19388,0.82227
558.919,61.33328,-1.74377,0.19177,0.81958
562.119,61.6515,-1.7439,0.18947,0.81688
565.319,61.9702,-1.74522,0.1898,0.81416
568.519,62.28815,-1.74521,0.18999,0.81141
571.719,62.60541,-1.7462,0.18926,0.80866
574.919,62.92371,-1.74881,0.19107,0.80588
578.119,63.24335,-1.74763,0.19586,0.80309
581.319,63.56259,-1.74895,0.19462,0.80028
584.519,63.8816,-1.74828,0.1948,0.79745
587.719,64.2012,-1.74854,0.19635,0.7946
590.919,64.52071,-1.75131,0.2015,0.79174
594.119,64.83968,-1.75071,0.20472,0.78887
597.319,65.16,-1.75005,0.21192,0.78597
600.519,65.48005,-1.75169,0.21766,0.78306
603.719,65.79949,-1.754,0.22379,0.78013
606.919,66.1187,-1.75563,0.23016,0.77719
610.119,66.4376,-1.75729,0.23937,0.77423
613.319,66.75689,-1.75828,0.24876,0.77126
616.519,67.0762,-1.76059,0.26023,0.76827
619.719,67.3973,-1.76457,0.27177,0.76526
622.919,67.7188,-1.76793,0.29441,0.76224
626.119,68.04039,-1.76893,0.3089,0.7592
629.319,68.36211,-1.77256,0.32747,0.75615
632.519,68.6827,-1.77629,0.3457,0.75308
635.719,69.0029,-1.77915,0.36851,0.75
638.919,69.32273,-1.78474,0.38957,0.74691
642.119,69.6416,-1.78869,0.41399,0.7438
645.319,69.96082,-1.79396,0.43961,0.74067
648.519,70.2803,-1.79903,0.46915,0.73753
651.719,70.59917,-1.80766,0.50007,0.73438
654.919,70.91829,-1.81231,0.53211,0.73121
658.119,71.23779,-1.82164,0.56863,0.72803
661.319,71.5582,-1.83302,0.60823,0.72484
664.519,71.8788,-1.84108,0.64866,0.72163
667.719,72.19951,-1.85069,0.69193,0.71841
670.919,72.52009,-1.86302,0.74241,0.71518
674.119,72.8407,-1.87429,0.79382,0.71194
677.319,73.16195,-1.88667,0.85628,0.70868
680.519,73.48331,-1.90083,0.9149,0.70541
683.719,73.8044,-1.91778,0.98534,0.70213
686.919,74.12518,-1.93419,1.04994,0.69883
690.119,74.4452,-1.95482,1.1309,0.69553
693.319,74.765,-1.97542,1.21081,0.69221
696.519,75.0856,-1.99625,1.27816,0.68888
699.719,75.40596,-2.01922,1.35315,0.68554
702.919,75.72609,-2.04567,1.43461,0.68219
706.119,76.0474,-2.07101,1.50996,0.67883
709.319,76.3691,-2.10184,1.58404,0.67546
712.519,76.69094,-2.1335,1.66046,0.67208
715.719,77.0124,-2.16043,1.73217,0.66869
718.919,77.33259,-2.19132,1.79001,0.66528
722.119,77.6532,-2.23054,1.83358,0.66187
725.319,77.97328,-2.26258,1.8597,0.65845
728.519,78.29364,-2.29789,1.85157,0.65502
731.719,78.61345,-2.33221,1.79756,0.65158
734.919,78.93403,-2.35966,1.6589,0.64813
738.119,79.2556,-2.38887,1.35809,0.64468
741.319,79.57667,-2.41039,0.8397,0.64121
744.519,79.8977,-2.41962,0.34184,0.63774
747.719,80.21863,-2.42335,0.14366,0.63426
750.919,80.54037,-2.42334,0.08123351,0.63077
754.119,80.86113,-2.42334,0.06969868,0.62727
757.319,81.18134,-2.42598,0.0671638,0.62377
760.519,81.5016,-2.42532,0.06480949,0.62026
763.719,81.82332,-2.42729,0.06004996,0.61674
766.919,82.14509,-2.42729,0.05613707,0.61322
770.119,82.46655,-2.42719,0.05208726,0.60969
773.319,82.78833,-2.42884,0.05040579,0.60615
776.519,83.1101,-2.42609,0.04412463,0.60261
779.719,83.43213,-2.42707,0.04238337,0.59906
782.919,83.75466,-2.43004,0.04365156,0.59551
786.119,84.0778,-2.43008,0.03954438,0.59195
789.319,84.3998,-2.43004,0.0405728,0.58839
792.519,84.72208,-2.43144,0.04302513,0.58482
795.219,84.99368,-2.43138,0.04002901,0.5818