Folder: fsri_materials_database/01_Data/Lightweight_Gypsum_Wallboard_Painted_Paper/STA/N2/10K_min

Note: 01_Data/README.md
# Materials and Products Database
## 01_Data

Raw data generated from each apparatus are included here in plain-text format. The data is organized first by material, next by the short name of test apparatus used, and where applicable additional filtering by test settings.

### material.json

Each material directory contains a json file of the same name as the material. This file links the data stored in the repository as well as data and graphs produced by the accompanying scripts (__02_Scripts__) to the respective landing page for the material on the front-end website.

File: Lightweight_Gypsum_Wallboard_Painted_Paper_STA_N2_10KData_222202_R1.csv
##Temp./Â°C,Time/min,Mass loss(subtr.2)/mg,DSC(subtr.2)/(mW/mg),Sensit./(uV/mW)
49.779,10.01,-0.06197,-0.00541842,1.07511
52.779,11.28115,-0.06745872,0.05602285,1.07355
55.779,11.71318,-0.06685172,0.09162094,1.07199
58.779,12.08,-0.06944004,0.10955,1.07043
61.779,12.42373,-0.07189906,0.12324,1.06887
64.779,12.75569,-0.07448022,0.13229,1.06731
67.779,13.0817,-0.07714647,0.13812,1.06576
70.779,13.4033,-0.07663863,0.14413,1.0642
73.779,13.72192,-0.07516449,0.15222,1.06265
76.779,14.03696,-0.08153241,0.15828,1.0611
79.779,14.34917,-0.08326098,0.16346,1.05955
82.779,14.65676,-0.08392428,0.16742,1.058
85.779,14.9634,-0.08851119,0.17166,1.05645
88.779,15.2671,-0.08854039,0.17288,1.0549
91.779,15.5689,-0.0911501,0.17076,1.05336
94.779,15.86841,-0.09411971,0.16774,1.05182
97.779,16.1664,-0.09378504,0.16397,1.05027
100.779,16.46375,-0.09384013,0.1614,1.04873
103.779,16.76074,-0.09641463,0.15796,1.04719
106.779,17.05627,-0.09907778,0.15588,1.04566
109.779,17.35148,-0.10037,0.15504,1.04412
112.779,17.64612,-0.10268,0.15239,1.04259
115.779,17.93927,-0.10367,0.14942,1.04105
118.779,18.23201,-0.10431,0.14576,1.03952
121.779,18.52532,-0.1043,0.14142,1.03799
124.779,18.81866,-0.10563,0.13833,1.03646
127.779,19.1113,-0.10561,0.1369,1.03493
130.779,19.40273,-0.10959,0.13699,1.0334
133.779,19.69422,-0.10817,0.1385,1.03188
136.779,19.98486,-0.1109,0.13653,1.03035
139.779,20.27497,-0.11068,0.13588,1.02883
142.779,20.5653,-0.11068,0.13778,1.02731
145.779,20.85475,-0.11432,0.138,1.02578
148.779,21.1447,-0.11408,0.13938,1.02426
151.779,21.43346,-0.11305,0.14063,1.02274
154.779,21.72157,-0.11269,0.14296,1.02122
157.779,22.00894,-0.1154,0.14386,1.01971
160.779,22.29746,-0.11565,0.14748,1.01819
163.779,22.58576,-0.11671,0.149,1.01667
166.779,22.87347,-0.11671,0.14836,1.01516
169.779,23.1614,-0.11737,0.14902,1.01364
172.779,23.4477,-0.11803,0.14993,1.01213
175.779,23.7368,-0.1213,0.15035,1.01061
178.779,24.02456,-0.12328,0.15205,1.0091
181.779,24.31192,-0.12329,0.1546,1.00759
184.779,24.59885,-0.12406,0.1532,1.00607
187.779,24.8848,-0.12407,0.15765,1.00456
190.779,25.17183,-0.12537,0.15769,1.00305
193.779,25.4578,-0.12932,0.15696,1.00154
196.779,25.7435,-0.13064,0.15949,1.00003
199.779,26.02961,-0.13152,0.16332,0.99852
202.779,26.31611,-0.13482,0.16308,0.997
205.779,26.60265,-0.13683,0.16505,0.99549
208.779,26.8889,-0.13838,0.16692,0.99398
211.779,27.17558,-0.13866,0.16782,0.99247
214.779,27.4616,-0.14137,0.16811,0.99096
217.779,27.7474,-0.14797,0.17216,0.98945
220.779,28.03367,-0.15017,0.17379,0.98793
223.779,28.31962,-0.15463,0.17131,0.98642
226.779,28.60541,-0.15861,0.1727,0.98491
229.779,28.89207,-0.16322,0.17054,0.98339
232.779,29.1782,-0.16585,0.1696,0.98188
235.779,29.46623,-0.17211,0.16849,0.98036
238.779,29.7532,-0.17677,0.1707,0.97885
241.779,30.03945,-0.18132,0.17011,0.97733
244.779,30.3259,-0.18657,0.174,0.97581
247.779,30.61216,-0.19151,0.16701,0.97429
250.779,30.8983,-0.20181,0.16523,0.97277
253.779,31.18481,-0.20862,0.16185,0.97125
256.779,31.47107,-0.2135,0.16324,0.96973
259.779,31.7571,-0.22342,0.16545,0.9682
262.779,32.04398,-0.23003,0.16871,0.96668
265.779,32.3312,-0.23919,0.17028,0.96515
268.779,32.6175,-0.25163,0.17525,0.96362
271.779,32.90507,-0.26345,0.18117,0.96209
274.779,33.19278,-0.27536,0.18424,0.96056
277.779,33.48072,-0.29012,0.19011,0.95903
280.779,33.76938,-0.30713,0.19908,0.95749
283.779,34.05729,-0.32252,0.20277,0.95595
286.779,34.3457,-0.34221,0.21383,0.95441
289.779,34.6338,-0.36714,0.22134,0.95287
292.779,34.921,-0.3881,0.23182,0.95133
295.779,35.20944,-0.417,0.23963,0.94978
298.779,35.49771,-0.43895,0.25207,0.94823
301.779,35.78607,-0.46803,0.26601,0.94668
304.779,36.0747,-0.49907,0.27797,0.94512
307.779,36.363,-0.53376,0.28877,0.94357
310.779,36.65128,-0.56862,0.30109,0.94201
313.779,36.94015,-0.60636,0.31929,0.94044
316.779,37.229,-0.64715,0.33086,0.93888
319.779,37.51893,-0.68987,0.34367,0.93731
322.779,37.8087,-0.73535,0.35802,0.93574
325.779,38.0991,-0.78526,0.3777,0.93416
328.779,38.3897,-0.83916,0.39996,0.93258
331.779,38.6802,-0.89607,0.42569,0.931
334.779,38.97139,-0.95801,0.45873,0.92941
337.779,39.26169,-1.02447,0.49564,0.92782
340.779,39.5533,-1.09781,0.53193,0.92623
343.779,39.84453,-1.17865,0.57648,0.92463
346.779,40.13528,-1.26144,0.61127,0.92303
349.779,40.4258,-1.35288,0.64533,0.92143
352.779,40.71651,-1.44592,0.65906,0.91982
355.779,41.00703,-1.5433,0.65764,0.91821
358.779,41.2978,-1.64,0.62798,0.91659
361.779,41.5884,-1.7277,0.56673,0.91497
364.779,41.87993,-1.80706,0.47572,0.91334
367.779,42.1712,-1.87426,0.36631,0.91171
370.779,42.46141,-1.92931,0.25162,0.91007
373.779,42.7521,-1.96926,0.15828,0.90844
376.779,43.0423,-1.99715,0.0945622,0.90679
379.779,43.3328,-2.02115,0.06418984,0.90514
382.779,43.6228,-2.04096,0.0562424,0.90349
385.779,43.9138,-2.06557,0.06132021,0.90183
388.779,44.20686,-2.09066,0.07259885,0.90016
391.779,44.4985,-2.11885,0.08149251,0.89849
394.779,44.78946,-2.15032,0.08906385,0.89682
397.779,45.0826,-2.18577,0.09142845,0.89514
400.779,45.37528,-2.21981,0.08344616,0.89345
403.779,45.66895,-2.25827,0.06683059,0.89176
406.779,45.96224,-2.29302,0.04096328,0.89006
409.779,46.25544,-2.32638,-0.0005376008,0.88836
412.779,46.5492,-2.34736,-0.04483565,0.88665
415.779,46.84228,-2.36566,-0.08311043,0.88494
418.779,47.13536,-2.38003,-0.10805,0.88322
421.779,47.42918,-2.39371,-0.12118,0.88149
424.779,47.72306,-2.40551,-0.12936,0.87976
427.779,48.01678,-2.40997,-0.13366,0.87802
430.779,48.31102,-2.4173,-0.13834,0.87628
433.779,48.60503,-2.42704,-0.14288,0.87453
436.779,48.89948,-2.43131,-0.14409,0.87277
439.779,49.19293,-2.43528,-0.14643,0.87101
442.779,49.48752,-2.44339,-0.14726,0.86924
445.779,49.78315,-2.44754,-0.14719,0.86746
448.779,50.07862,-2.45018,-0.15409,0.86568
451.779,50.37298,-2.45436,-0.15537,0.86389
454.779,50.66874,-2.46086,-0.15394,0.8621
457.779,50.96423,-2.46434,-0.15144,0.86029
460.779,51.25913,-2.46838,-0.15042,0.85848
463.779,51.55468,-2.47134,-0.14761,0.85667
466.779,51.84953,-2.47529,-0.15052,0.85484
469.779,52.1445,-2.47924,-0.15389,0.85301
472.779,52.44013,-2.48055,-0.15718,0.85117
475.779,52.73483,-2.48285,-0.15623,0.84933
478.779,53.03134,-2.48819,-0.15806,0.84747
481.779,53.32767,-2.49098,-0.15795,0.84561
484.779,53.6248,-2.49431,-0.15954,0.84375
487.779,53.92182,-2.49766,-0.16199,0.84187
490.779,54.21861,-2.49635,-0.14504,0.83999
493.779,54.51583,-2.49898,-0.14272,0.8381
496.779,54.81143,-2.50292,-0.14069,0.8362
499.779,55.10849,-2.50293,-0.14094,0.8343
502.779,55.40529,-2.50416,-0.1439,0.83239
505.779,55.70171,-2.50624,-0.14867,0.83047
508.779,55.99901,-2.5065,-0.15383,0.82854
511.779,56.29603,-2.50972,-0.15731,0.8266
514.779,56.59391,-2.51431,-0.16714,0.82466
517.779,56.89212,-2.51554,-0.18519,0.82271
520.779,57.19002,-2.51817,-0.19874,0.82075
523.779,57.48675,-2.51489,-0.20541,0.81878
526.779,57.78507,-2.51918,-0.21406,0.81681
529.779,58.08426,-2.5218,-0.22583,0.81482
532.779,58.38309,-2.52038,-0.2409,0.81283
535.779,58.6821,-2.52451,-0.24901,0.81083
538.779,58.9804,-2.52575,-0.26138,0.80883
541.779,59.2784,-2.52706,-0.27252,0.80681
544.779,59.5771,-2.52837,-0.27417,0.80479
547.779,59.8741,-2.52845,-0.27738,0.80275
550.779,60.1734,-2.53195,-0.27636,0.80071
553.779,60.47342,-2.53463,-0.28042,0.79867
556.779,60.77245,-2.53427,-0.282,0.79661
559.779,61.07252,-2.53465,-0.28582,0.79454
562.779,61.37194,-2.53857,-0.28733,0.79247
565.779,61.6725,-2.53726,-0.28833,0.79039
568.779,61.9725,-2.53492,-0.28698,0.7883
571.779,62.27166,-2.53858,-0.28907,0.7862
574.779,62.5714,-2.54055,-0.2908,0.7841
577.779,62.8711,-2.53989,-0.28941,0.78198
580.779,63.17103,-2.54252,-0.28976,0.77986
583.779,63.47147,-2.54252,-0.29222,0.77773
586.779,63.77166,-2.54253,-0.29489,0.77559
589.779,64.07174,-2.54655,-0.29631,0.77344
592.779,64.372,-2.54812,-0.29219,0.77128
595.779,64.67263,-2.55042,-0.29051,0.76912
598.779,64.9725,-2.5501,-0.28969,0.76694
601.779,65.27282,-2.54912,-0.29321,0.76476
604.779,65.57311,-2.55141,-0.28817,0.76257
607.779,65.8737,-2.55437,-0.28839,0.76037
610.779,66.1747,-2.55537,-0.28329,0.75816
613.779,66.47596,-2.55727,-0.28215,0.75595
616.779,66.77721,-2.55864,-0.27792,0.75373
619.779,67.07894,-2.55997,-0.2718,0.75149
622.779,67.38064,-2.56205,-0.26542,0.74925
625.779,67.68126,-2.56074,-0.256,0.747
628.779,67.98199,-2.56468,-0.24942,0.74475
631.779,68.28189,-2.56747,-0.24233,0.74248
634.779,68.58211,-2.57045,-0.23345,0.74021
637.779,68.88417,-2.57183,-0.23034,0.73793
640.779,69.1857,-2.57435,-0.22383,0.73564
643.779,69.4879,-2.57938,-0.22202,0.73334
646.779,69.79019,-2.5807,-0.21875,0.73103
649.779,70.09268,-2.58333,-0.22024,0.72872
652.779,70.39549,-2.58595,-0.23151,0.72639
655.779,70.6977,-2.58859,-0.23794,0.72406
658.779,70.9999,-2.59056,-0.24214,0.72173
661.779,71.3019,-2.59354,-0.2415,0.71938
664.779,71.60265,-2.59473,-0.23675,0.71702
667.779,71.9056,-2.59847,-0.2414,0.71466
670.779,72.20869,-2.60009,-0.25516,0.71229
673.779,72.51034,-2.60175,-0.28404,0.70991
676.779,72.81214,-2.60051,-0.33116,0.70753
679.779,73.11495,-2.6028,-0.33712,0.70513
682.779,73.41824,-2.60242,-0.33417,0.70273
685.779,73.72139,-2.60307,-0.33724,0.70032
688.779,74.0243,-2.60505,-0.33817,0.69791
691.779,74.3279,-2.60504,-0.33955,0.69548
694.779,74.63074,-2.60702,-0.33613,0.69305
697.779,74.93445,-2.60604,-0.34436,0.69061
700.779,75.23784,-2.60573,-0.34688,0.68816
703.779,75.5417,-2.60724,-0.34644,0.68571
706.779,75.8446,-2.6079,-0.34782,0.68325
709.779,76.1469,-2.60626,-0.34854,0.68078
712.779,76.44965,-2.6079,-0.34664,0.6783
715.779,76.75445,-2.6092,-0.35258,0.67582
718.779,77.05803,-2.61018,-0.35008,0.67333
721.779,77.36195,-2.60988,-0.35561,0.67083
724.779,77.6644,-2.60988,-0.35444,0.66833
727.779,77.96692,-2.61152,-0.34854,0.66582
730.779,78.2697,-2.61283,-0.3521,0.6633
733.779,78.5718,-2.61185,-0.34922,0.66078
736.779,78.87383,-2.61026,-0.3531,0.65825
739.779,79.17713,-2.61317,-0.34568,0.65571
742.779,79.4806,-2.6128,-0.34431,0.65316
745.779,79.78396,-2.61425,-0.34822,0.65061
747.879,79.99804,-2.61429,-0.34885,0.64883

File: Lightweight_Gypsum_Wallboard_Painted_Paper_STA_N2_10KData_222202_R2.csv
##Temp./Â°C,Time/min,Mass loss(subtr.2)/mg,DSC(subtr.2)/(mW/mg),Sensit./(uV/mW)
49.788,10.00917,-0.00867,0.02564091,1.07511
52.788,11.28369,-0.01250614,0.12362,1.07355
55.788,11.71735,-0.01160105,0.17228,1.07198
58.788,12.08563,-0.01249222,0.20135,1.07042
61.788,12.42867,-0.01458892,0.22539,1.06886
64.788,12.7606,-0.01418542,0.23872,1.06731
67.788,13.0866,-0.01415341,0.25024,1.06575
70.788,13.4088,-0.01641817,0.26224,1.0642
73.788,13.72621,-0.01522627,0.27067,1.06264
76.788,14.04009,-0.01860661,0.28341,1.06109
79.788,14.3529,-0.0234001,0.29311,1.05954
82.788,14.66092,-0.02075218,0.29842,1.05799
85.788,14.96693,-0.02361589,0.3051,1.05644
88.788,15.269,-0.02324404,0.30806,1.0549
91.788,15.57081,-0.02446014,0.30929,1.05335
94.788,15.8705,-0.02576599,0.30618,1.05181
97.788,16.16881,-0.02543953,0.30511,1.05027
100.788,16.4654,-0.027927,0.3028,1.04873
103.788,16.7616,-0.02906906,0.30251,1.04719
106.788,17.0567,-0.03050001,0.30302,1.04565
109.788,17.3503,-0.0291799,0.30462,1.04412
112.788,17.64286,-0.02918011,0.30818,1.04258
115.788,17.93658,-0.03047284,0.30252,1.04105
118.788,18.23003,-0.03048849,0.29912,1.03952
121.788,18.52285,-0.03061365,0.29844,1.03798
124.788,18.8154,-0.03312,0.2981,1.03645
127.788,19.1078,-0.03212704,0.29784,1.03493
130.788,19.39846,-0.03224086,0.29824,1.0334
133.788,19.68958,-0.02830184,0.29948,1.03187
136.788,19.9807,-0.03498942,0.30162,1.03035
139.788,20.27113,-0.03202555,0.30261,1.02882
142.788,20.5615,-0.0306959,0.30456,1.0273
145.788,20.85141,-0.03443634,0.30554,1.02578
148.788,21.14087,-0.0324838,0.30784,1.02426
151.788,21.43025,-0.03523811,0.31162,1.02274
154.788,21.71811,-0.03347491,0.31213,1.02122
157.788,22.00729,-0.03169864,0.31594,1.0197
160.788,22.29491,-0.03466,0.31923,1.01818
163.788,22.58286,-0.03498407,0.32261,1.01667
166.788,22.87131,-0.0346568,0.3279,1.01515
169.788,23.15867,-0.03728745,0.32879,1.01364
172.788,23.44674,-0.03730004,0.33401,1.01212
175.788,23.73384,-0.03598658,0.33752,1.01061
178.788,24.02072,-0.03734952,0.34008,1.0091
181.788,24.30767,-0.0423162,0.34001,1.00758
184.788,24.59447,-0.04200318,0.34204,1.00607
187.788,24.88136,-0.04272555,0.34741,1.00456
190.788,25.1688,-0.04354327,0.34798,1.00305
193.788,25.45525,-0.04460264,0.34856,1.00153
196.788,25.74246,-0.04514058,0.35263,1.00002
199.788,26.03019,-0.04388368,0.35331,0.99851
202.788,26.3174,-0.04912453,0.35806,0.997
205.788,26.6038,-0.04947,0.36218,0.99549
208.788,26.8903,-0.05022995,0.3652,0.99398
211.788,27.1772,-0.05896437,0.3702,0.99247
214.788,27.46365,-0.05802302,0.37024,0.99095
217.788,27.7506,-0.05934049,0.37643,0.98944
220.788,28.03742,-0.06363108,0.37851,0.98793
223.788,28.32367,-0.06422816,0.38138,0.98642
226.788,28.6104,-0.06538023,0.38531,0.9849
229.788,28.89718,-0.07327498,0.38954,0.98339
232.788,29.18351,-0.07891639,0.39084,0.98187
235.788,29.47035,-0.08249001,0.39328,0.98036
238.788,29.75735,-0.08705038,0.38799,0.97884
241.788,30.04393,-0.09034817,0.3896,0.97733
244.788,30.3304,-0.0929031,0.39006,0.97581
247.788,30.6171,-0.1014,0.39249,0.97429
250.788,30.90325,-0.10607,0.39337,0.97277
253.788,31.1905,-0.11276,0.3957,0.97125
256.788,31.47715,-0.11737,0.39802,0.96972
259.788,31.76445,-0.12531,0.40137,0.9682
262.788,32.05157,-0.13186,0.40563,0.96667
265.788,32.3392,-0.14566,0.40752,0.96515
268.788,32.6269,-0.15063,0.40908,0.96362
271.788,32.9144,-0.16281,0.41708,0.96209
274.788,33.2021,-0.17326,0.42368,0.96056
277.788,33.48969,-0.19669,0.43221,0.95902
280.788,33.77767,-0.20764,0.44092,0.95749
283.788,34.06432,-0.22413,0.45066,0.95595
286.788,34.3524,-0.24379,0.45984,0.95441
289.788,34.63885,-0.25577,0.46803,0.95287
292.788,34.92654,-0.27804,0.48449,0.95132
295.788,35.21542,-0.3031,0.49444,0.94977
298.788,35.50335,-0.33328,0.50727,0.94823
301.788,35.79142,-0.3534,0.51785,0.94667
304.788,36.08013,-0.38996,0.52929,0.94512
307.788,36.36857,-0.42079,0.54293,0.94356
310.788,36.65784,-0.45127,0.556,0.942
313.788,36.9471,-0.48961,0.57021,0.94044
316.788,37.2372,-0.53055,0.58588,0.93887
319.788,37.52724,-0.56535,0.59933,0.9373
322.788,37.81698,-0.60969,0.61898,0.93573
325.788,38.107,-0.65944,0.63888,0.93416
328.788,38.39707,-0.70732,0.66304,0.93258
331.788,38.68691,-0.75781,0.69065,0.93099
334.788,38.9773,-0.81894,0.72211,0.92941
337.788,39.2682,-0.88094,0.76168,0.92782
340.788,39.55903,-0.95237,0.80651,0.92623
343.788,39.84993,-1.02864,0.84929,0.92463
346.788,40.14076,-1.11205,0.88942,0.92303
349.788,40.43162,-1.19894,0.9207,0.92142
352.788,40.72292,-1.29178,0.93759,0.91981
355.788,41.01383,-1.3852,0.93124,0.9182
358.788,41.30508,-1.47379,0.89437,0.91658
361.788,41.59538,-1.55556,0.82679,0.91496
364.788,41.88612,-1.63668,0.73633,0.91334
367.788,42.1764,-1.69192,0.62991,0.91171
370.788,42.46662,-1.74216,0.52441,0.91007
373.788,42.75748,-1.77867,0.43587,0.90843
376.788,43.04817,-1.80709,0.38389,0.90679
379.788,43.3395,-1.82818,0.35993,0.90514
382.788,43.63167,-1.84418,0.3586,0.90348
385.788,43.92371,-1.87194,0.36777,0.90182
388.788,44.21606,-1.89572,0.37689,0.90016
391.788,44.5084,-1.92003,0.39301,0.89849
394.788,44.80108,-1.9536,0.40195,0.89681
397.788,45.09301,-1.98159,0.40158,0.89513
400.788,45.38565,-2.02438,0.39987,0.89345
403.788,45.6777,-2.04637,0.38574,0.89176
406.788,45.97012,-2.08465,0.35838,0.89006
409.788,46.26318,-2.11319,0.32196,0.88836
412.788,46.55588,-2.13829,0.27877,0.88665
415.788,46.84851,-2.15878,0.24169,0.88494
418.788,47.14227,-2.17108,0.21855,0.88322
421.788,47.43548,-2.1807,0.20167,0.88149
424.788,47.72972,-2.18658,0.19368,0.87976
427.788,48.0236,-2.19274,0.18871,0.87802
430.788,48.3174,-2.21055,0.19299,0.87628
433.788,48.6113,-2.21589,0.19202,0.87452
436.788,48.90583,-2.22011,0.19481,0.87277
439.788,49.20013,-2.22627,0.19419,0.871
442.788,49.4946,-2.23485,0.19507,0.86924
445.788,49.78941,-2.22672,0.19384,0.86746
448.788,50.0847,-2.24374,0.19241,0.86568
451.788,50.37947,-2.24363,0.19371,0.86389
454.788,50.67287,-2.24893,0.19518,0.86209
457.788,50.96818,-2.25854,0.19515,0.86029
460.788,51.26441,-2.25124,0.19251,0.85848
463.788,51.55945,-2.26109,0.19115,0.85666
466.788,51.85491,-2.26216,0.19224,0.85484
469.788,52.15033,-2.26612,0.19623,0.853
472.788,52.44676,-2.27862,0.19478,0.85117
475.788,52.74332,-2.27059,0.19122,0.84932
478.788,53.03997,-2.27665,0.18757,0.84747
481.788,53.3364,-2.2735,0.18606,0.84561
484.788,53.63276,-2.28254,0.18991,0.84374
487.788,53.9286,-2.28021,0.18976,0.84187
490.788,54.2246,-2.28807,0.18874,0.83998
493.788,54.52114,-2.28851,0.18844,0.8381
496.788,54.81794,-2.28937,0.19999,0.8362
499.788,55.1143,-2.28956,0.20563,0.83429
502.788,55.4105,-2.29127,0.20808,0.83238
505.788,55.70729,-2.29464,0.20589,0.83046
508.788,56.00439,-2.29815,0.2104,0.82853
511.788,56.30174,-2.29975,0.21139,0.8266
514.788,56.5987,-2.30033,0.21107,0.82465
517.788,56.89669,-2.30442,0.2073,0.8227
520.788,57.1944,-2.30637,0.20648,0.82074
523.788,57.49208,-2.30253,0.19838,0.81878
526.788,57.79003,-2.31043,0.18467,0.8168
529.788,58.08797,-2.30944,0.18359,0.81482
532.788,58.3865,-2.31081,0.17745,0.81283
535.788,58.6857,-2.31143,0.17364,0.81083
538.788,58.9842,-2.31607,0.17016,0.80882
541.788,59.2826,-2.31488,0.16597,0.8068
544.788,59.5828,-2.31411,0.15929,0.80478
547.788,59.88188,-2.31854,0.15404,0.80275
550.788,60.18375,-2.31591,0.15064,0.80071
553.788,60.48364,-2.32109,0.14983,0.79866
556.788,60.78305,-2.32103,0.14714,0.7966
559.788,61.0819,-2.32163,0.14738,0.79454
562.788,61.381,-2.32809,0.14876,0.79247
565.788,61.68,-2.32011,0.14766,0.79038
568.788,61.9788,-2.32567,0.14656,0.78829
571.788,62.27839,-2.32245,0.14964,0.7862
574.788,62.57886,-2.32678,0.15397,0.78409
577.788,62.8786,-2.32963,0.15506,0.78197
580.788,63.17929,-2.32601,0.15485,0.77985
583.788,63.4802,-2.33064,0.159,0.77772
586.788,63.7818,-2.33081,0.16263,0.77558
589.788,64.08305,-2.33048,0.1622,0.77343
592.788,64.38328,-2.32917,0.16652,0.77127
595.788,64.68377,-2.33423,0.17443,0.76911
598.788,64.98445,-2.33423,0.18005,0.76694
601.788,65.28645,-2.33943,0.18828,0.76475
604.788,65.58768,-2.33632,0.19013,0.76256
607.788,65.8877,-2.33565,0.19969,0.76036
610.788,66.18781,-2.33986,0.20076,0.75816
613.788,66.48854,-2.33871,0.21104,0.75594
616.788,66.78933,-2.34487,0.21715,0.75372
619.788,67.09045,-2.34754,0.22643,0.75149
622.788,67.3917,-2.34992,0.23019,0.74925
625.788,67.6927,-2.33934,0.23775,0.747
628.788,67.99393,-2.34615,0.24612,0.74474
631.788,68.2948,-2.36209,0.26285,0.74247
634.788,68.59685,-2.35597,0.27044,0.7402
637.788,68.89867,-2.35275,0.27349,0.73792
640.788,69.20204,-2.35641,0.28433,0.73563
643.788,69.50429,-2.35944,0.29181,0.73333
646.788,69.80605,-2.35792,0.29379,0.73102
649.788,70.10645,-2.36527,0.30099,0.72871
652.788,70.40818,-2.36532,0.30236,0.72639
655.788,70.7099,-2.36944,0.30172,0.72406
658.788,71.0116,-2.37393,0.29894,0.72172
661.788,71.3146,-2.37261,0.2949,0.71937
664.788,71.61756,-2.37756,0.29815,0.71702
667.788,71.9204,-2.3807,0.31063,0.71465
670.788,72.223,-2.37796,0.30001,0.71228
673.788,72.5246,-2.38355,0.29416,0.70991
676.788,72.82579,-2.38396,0.26855,0.70752
679.788,73.12756,-2.38775,0.22721,0.70513
682.788,73.4306,-2.38918,0.20918,0.70272
685.788,73.73365,-2.38774,0.20241,0.70032
688.788,74.03689,-2.38994,0.19833,0.6979
691.788,74.3399,-2.39359,0.19834,0.69547
694.788,74.6434,-2.38345,0.19398,0.69304
697.788,74.94584,-2.39956,0.19943,0.6906
700.788,75.2488,-2.38744,0.19236,0.68816
703.788,75.5512,-2.38776,0.19314,0.6857
706.788,75.8536,-2.39206,0.19003,0.68324
709.788,76.15768,-2.39171,0.19343,0.68077
712.788,76.4627,-2.39174,0.19486,0.6783
715.788,76.76691,-2.39707,0.19536,0.67581
718.788,77.071,-2.3973,0.20177,0.67332
721.788,77.37432,-2.39038,0.20492,0.67083
724.788,77.67644,-2.39173,0.21046,0.66832
727.788,77.97957,-2.39873,0.21282,0.66581
730.788,78.2831,-2.39938,0.21206,0.66329
733.788,78.5855,-2.39666,0.20972,0.66077
736.788,78.88771,-2.39454,0.2094,0.65824
739.788,79.18926,-2.39676,0.21287,0.6557
742.788,79.49248,-2.39642,0.20719,0.65316
745.788,79.79723,-2.39412,0.21137,0.65061
747.688,79.9906,-2.40112,0.2095,0.64899