Folder: fsri_materials_database/01_Data/Lightweight_Gypsum_Wallboard_Painted_Paper/STA/N2/10K_min (part 2)

File: Lightweight_Gypsum_Wallboard_Painted_Paper_STA_N2_10KData_222302_R3.csv
##Temp./Â°C,Time/min,Mass loss(subtr.2)/mg,DSC(subtr.2)/(mW/mg),Sensit./(uV/mW)
49.838,10.01,0.00658,0.008654343,1.07508
52.938,11.29107,0.004066576,0.10799,1.07347
56.038,11.73227,0.00331021,0.15615,1.07185
59.138,12.1091,0.00316028,0.18555,1.07024
62.238,12.46176,0.00471478,0.20454,1.06863
65.338,12.80176,0.003085514,0.21855,1.06702
68.438,13.13909,0.00345477,0.23092,1.06541
71.538,13.4715,0.004830005,0.24419,1.06381
74.638,13.8001,0.00351146,0.25473,1.0622
77.738,14.12385,0.00187071,0.26564,1.0606
80.838,14.44535,0.0008884637,0.27399,1.059
83.938,14.76331,-0.00263347,0.28233,1.0574
87.038,15.07807,-0.00197108,0.28748,1.0558
90.138,15.3895,-0.004609814,0.29069,1.0542
93.238,15.6989,-0.00729166,0.28858,1.05261
96.338,16.00515,-0.007315554,0.28975,1.05101
99.438,16.3139,-0.00888813,0.28583,1.04942
102.538,16.61966,-0.00756015,0.2822,1.04783
105.638,16.92538,-0.008902522,0.27963,1.04624
108.738,17.23025,-0.01020036,0.27643,1.04465
111.838,17.53402,-0.01020108,0.27856,1.04307
114.938,17.83736,-0.01143055,0.27889,1.04148
118.038,18.14072,-0.01212174,0.27732,1.0399
121.138,18.44342,-0.0128306,0.27409,1.03832
124.238,18.74517,-0.01547007,0.26972,1.03673
127.338,19.04743,-0.01415164,0.2678,1.03516
130.438,19.34929,-0.01414914,0.26834,1.03358
133.538,19.65053,-0.01475517,0.26954,1.032
136.638,19.9525,-0.01546,0.27154,1.03042
139.738,20.25301,-0.01545998,0.27417,1.02885
142.838,20.55327,-0.01687217,0.27487,1.02728
145.938,20.85279,-0.01752636,0.2768,1.0257
149.038,21.15195,-0.01711854,0.28106,1.02413
152.138,21.45017,-0.01711003,0.28205,1.02256
155.238,21.74857,-0.01842992,0.28442,1.02099
158.338,22.04694,-0.01973902,0.28876,1.01942
161.438,22.34424,-0.01974,0.29231,1.01786
164.538,22.64252,-0.01898006,0.29438,1.01629
167.638,22.9411,-0.01898,0.29656,1.01472
170.738,23.23953,-0.02029985,0.29975,1.01316
173.838,23.5382,-0.02024376,0.29917,1.01159
176.938,23.83711,-0.01996859,0.30215,1.01003
180.038,24.13551,-0.02061973,0.30363,1.00846
183.138,24.4324,-0.02193,0.30635,1.0069
186.238,24.73023,-0.0245598,0.30778,1.00534
189.338,25.02753,-0.02518441,0.30874,1.00378
192.438,25.3249,-0.02785824,0.3152,1.00221
195.538,25.6209,-0.02786,0.31537,1.00065
198.638,25.9173,-0.02648992,0.31845,0.99909
201.738,26.21503,-0.03003122,0.31565,0.99753
204.838,26.5122,-0.03311384,0.32005,0.99597
207.938,26.80749,-0.03313,0.32175,0.99441
211.038,27.10639,-0.03445296,0.32232,0.99284
214.138,27.404,-0.03841196,0.33006,0.99128
217.238,27.70079,-0.04036,0.32956,0.98972
220.338,27.99676,-0.04431194,0.33585,0.98816
223.438,28.29236,-0.0456467,0.33877,0.98659
226.538,28.58925,-0.04951157,0.34158,0.98503
229.638,28.88553,-0.05375205,0.33822,0.98346
232.738,29.1821,-0.05905314,0.34102,0.9819
235.838,29.47855,-0.06317953,0.33672,0.98033
238.938,29.77485,-0.06701701,0.33964,0.97877
242.038,30.0705,-0.07177123,0.33873,0.9772
245.138,30.36635,-0.07678392,0.33884,0.97563
248.238,30.66175,-0.08336543,0.34046,0.97406
251.338,30.95795,-0.09223678,0.33993,0.97249
254.438,31.25674,-0.09689036,0.34179,0.97092
257.538,31.55395,-0.10495,0.34538,0.96934
260.638,31.85083,-0.11156,0.34672,0.96777
263.738,32.1477,-0.1229,0.34989,0.96619
266.838,32.4445,-0.13258,0.35509,0.96461
269.938,32.74139,-0.14216,0.35563,0.96303
273.038,33.03815,-0.15556,0.36215,0.96145
276.138,33.33547,-0.17191,0.3677,0.95987
279.238,33.63312,-0.18432,0.37335,0.95828
282.338,33.9297,-0.20267,0.38435,0.95669
285.438,34.22602,-0.22171,0.39233,0.9551
288.538,34.52329,-0.2416,0.40621,0.95351
291.638,34.82036,-0.26384,0.41443,0.95191
294.738,35.11868,-0.28648,0.42358,0.95032
297.838,35.4166,-0.31073,0.43223,0.94872
300.938,35.71516,-0.34086,0.44473,0.94711
304.038,36.0133,-0.37086,0.45606,0.94551
307.138,36.3116,-0.40398,0.4709,0.9439
310.238,36.61007,-0.43974,0.48541,0.94229
313.338,36.90815,-0.47742,0.49835,0.94067
316.438,37.20642,-0.51916,0.51189,0.93906
319.538,37.50481,-0.56293,0.52663,0.93743
322.638,37.80428,-0.60588,0.5414,0.93581
325.738,38.10395,-0.65855,0.56009,0.93418
328.838,38.40359,-0.71196,0.58587,0.93255
331.938,38.70322,-0.77167,0.61358,0.93091
335.038,39.00336,-0.83554,0.64761,0.92928
338.138,39.3028,-0.9037,0.68543,0.92763
341.238,39.6025,-0.97808,0.72838,0.92599
344.338,39.90275,-1.0663,0.77311,0.92434
347.438,40.20343,-1.15477,0.80805,0.92268
350.538,40.50375,-1.25105,0.83769,0.92102
353.638,40.80408,-1.34982,0.84767,0.91936
356.738,41.1048,-1.44958,0.83097,0.91769
359.838,41.40432,-1.54252,0.78059,0.91602
362.938,41.70508,-1.62887,0.69812,0.91434
366.038,42.00507,-1.70432,0.59773,0.91266
369.138,42.30531,-1.76318,0.48781,0.91097
372.238,42.60552,-1.81074,0.38903,0.90928
375.338,42.90594,-1.8417,0.32459,0.90758
378.438,43.20645,-1.86781,0.28483,0.90588
381.538,43.50806,-1.891,0.27826,0.90417
384.638,43.80973,-1.91377,0.28086,0.90246
387.738,44.11085,-1.93821,0.28953,0.90074
390.838,44.41218,-1.96451,0.29816,0.89902
393.938,44.71427,-1.99822,0.31426,0.89729
397.038,45.01678,-2.03057,0.31709,0.89555
400.138,45.31745,-2.06664,0.31791,0.89381
403.238,45.6201,-2.10643,0.30725,0.89207
406.338,45.9232,-2.14439,0.28072,0.89031
409.438,46.2269,-2.17856,0.2436,0.88856
412.538,46.53058,-2.20616,0.2001,0.88679
415.638,46.83509,-2.22614,0.15829,0.88502
418.738,47.1393,-2.24206,0.13131,0.88324
421.838,47.44104,-2.2536,0.11871,0.88146
424.938,47.74532,-2.26277,0.10828,0.87967
428.038,48.04813,-2.27216,0.10177,0.87787
431.138,48.353,-2.28032,0.09817799,0.87607
434.238,48.6566,-2.28917,0.09693147,0.87426
437.338,48.95997,-2.29463,0.09747028,0.87245
440.438,49.2639,-2.30122,0.09925153,0.87062
443.538,49.56771,-2.30663,0.09904138,0.86879
446.638,49.87271,-2.31446,0.09682008,0.86695
449.738,50.17828,-2.31986,0.09856619,0.86511
452.838,50.48328,-2.3223,0.0943714,0.86326
455.938,50.7887,-2.32908,0.09420437,0.8614
459.038,51.09449,-2.33423,0.09447606,0.85953
462.138,51.39911,-2.33777,0.09422362,0.85766
465.238,51.70533,-2.34015,0.09340117,0.85578
468.338,52.01061,-2.34282,0.09269622,0.85389
471.438,52.31649,-2.3461,0.08984205,0.85199
474.538,52.62295,-2.34936,0.09001834,0.85009
477.638,52.92774,-2.35331,0.08925791,0.84818
480.738,53.23464,-2.35777,0.08968672,0.84626
483.838,53.5407,-2.35869,0.08934089,0.84433
486.938,53.84689,-2.36132,0.08937855,0.8424
490.038,54.1536,-2.36281,0.08735093,0.84046
493.138,54.46026,-2.3679,0.08699156,0.83851
496.238,54.76676,-2.37251,0.08488271,0.83655
499.338,55.0735,-2.37514,0.08466325,0.83458
502.438,55.3802,-2.37777,0.08963869,0.8326
505.538,55.6861,-2.37916,0.09797567,0.83062
508.638,55.9922,-2.38013,0.10282,0.82863
511.738,56.29922,-2.38271,0.10102,0.82663
514.838,56.6069,-2.38534,0.10345,0.82462
517.938,56.916,-2.38417,0.10312,0.8226
521.038,57.22439,-2.38765,0.10816,0.82058
524.138,57.53301,-2.38962,0.10673,0.81855
527.238,57.8411,-2.39037,0.1056,0.8165
530.338,58.1495,-2.39489,0.10049,0.81445
533.438,58.4584,-2.39622,0.08771477,0.81239
536.538,58.76675,-2.39752,0.07998911,0.81033
539.638,59.0758,-2.39882,0.07538265,0.80825
542.738,59.38425,-2.40016,0.06944893,0.80616
545.838,59.6923,-2.40278,0.06502834,0.80407
548.938,60.0011,-2.40673,0.06101665,0.80197
552.038,60.30998,-2.4064,0.04815882,0.79986
555.138,60.61914,-2.40904,0.03368838,0.79774
558.238,60.92952,-2.409,0.02718008,0.79561
561.338,61.24057,-2.41035,0.02049075,0.79347
564.438,61.55059,-2.41235,0.01451938,0.79132
567.538,61.86114,-2.41172,0.01085657,0.78917
570.638,62.1716,-2.41397,0.008528329,0.787
573.738,62.48195,-2.41458,0.009744123,0.78483
576.838,62.79246,-2.41681,0.01155401,0.78265
579.938,63.1023,-2.41694,0.01286548,0.78045
583.038,63.4127,-2.42097,0.01018741,0.77825
586.138,63.7224,-2.42089,0.01139919,0.77604
589.238,64.03222,-2.42349,0.009836356,0.77383
592.338,64.34225,-2.42286,0.01210977,0.7716
595.438,64.65223,-2.42432,0.01826582,0.76936
598.538,64.96212,-2.42648,0.02094688,0.76712
601.638,65.27288,-2.42614,0.02239369,0.76486
604.738,65.58386,-2.42649,0.02810405,0.7626
607.838,65.8964,-2.42911,0.03287268,0.76033
610.938,66.20866,-2.43034,0.04159314,0.75805
614.038,66.52068,-2.43272,0.04508143,0.75576
617.138,66.8326,-2.43438,0.05350499,0.75346
620.238,67.14402,-2.43569,0.06312659,0.75115
623.338,67.45458,-2.43734,0.06975858,0.74883
626.438,67.76637,-2.44062,0.08199034,0.74651
629.538,68.0775,-2.44206,0.0924304,0.74417
632.638,68.38834,-2.44434,0.09829798,0.74183
635.738,68.69926,-2.44567,0.11366,0.73948
638.838,69.00969,-2.44797,0.12318,0.73712
641.938,69.32078,-2.45165,0.13555,0.73475
645.038,69.63165,-2.45121,0.14289,0.73237
648.138,69.94336,-2.45493,0.15005,0.72998
651.238,70.25477,-2.45631,0.15622,0.72759
654.338,70.5674,-2.45993,0.15943,0.72518
657.438,70.8814,-2.46256,0.15641,0.72277
660.538,71.19491,-2.4652,0.15206,0.72035
663.638,71.50725,-2.46652,0.15167,0.71792
666.738,71.81894,-2.47045,0.1573,0.71548
669.838,72.13125,-2.47211,0.16955,0.71304
672.938,72.4436,-2.47375,0.17191,0.71058
676.038,72.75649,-2.47628,0.16437,0.70812
679.138,73.0701,-2.48133,0.1511,0.70565
682.238,73.38367,-2.48428,0.10739,0.70317
685.338,73.69752,-2.48461,0.08470489,0.70068
688.438,74.011,-2.48593,0.08744415,0.69818
691.538,74.32343,-2.48625,0.08733462,0.69568
694.638,74.63624,-2.48621,0.09024105,0.69316
697.738,74.94875,-2.48856,0.09068627,0.69064
700.838,75.26222,-2.4879,0.08990339,0.68812
703.938,75.5749,-2.48658,0.08724106,0.68558
707.038,75.8878,-2.48658,0.08749452,0.68303
710.138,76.19989,-2.48757,0.08640053,0.68048
713.238,76.5128,-2.48724,0.08318817,0.67792
716.338,76.82745,-2.48757,0.08159382,0.67536
719.438,77.14106,-2.48987,0.0802548,0.67278
722.538,77.45474,-2.48986,0.08235117,0.6702
725.638,77.76926,-2.48988,0.08604157,0.66761
728.738,78.0831,-2.4912,0.0826915,0.66501
731.838,78.3967,-2.49185,0.08870577,0.66241
734.938,78.7101,-2.49119,0.08769505,0.6598
738.038,79.0243,-2.49316,0.08905955,0.65718
741.138,79.33927,-2.49384,0.0918793,0.65456
744.238,79.65351,-2.49448,0.0922461,0.65192
747.338,79.96629,-2.49504,0.0983496,0.64929
747.638,79.99647,-2.49647,0.09728783,0.64903