Folder: fsri_materials_database/01_Data/Lightweight_Gypsum_Wallboard_Painted_Paper/STA/N2/3K_min

Note: 01_Data/README.md
# Materials and Products Database
## 01_Data

Raw data generated from each apparatus are included here in plain-text format. The data is organized first by material, next by the short name of test apparatus used, and where applicable additional filtering by test settings.

### material.json

Each material directory contains a json file of the same name as the material. This file links the data stored in the repository as well as data and graphs produced by the accompanying scripts (__02_Scripts__) to the respective landing page for the material on the front-end website.

File: Lightweight_Gypsum_Wallboard_Painted_Paper_STA_N2_3KData_222302_R1.csv
##Temp./Â°C,Time/min,Mass loss(subtr.2)/mg,DSC(subtr.2)/(mW/mg),Sensit./(uV/mW)
50.14,10.01667,-0.03587,0.01352253,1.048
53.34,12.323,-0.04059216,0.06732636,1.04659
56.54,13.5253,-0.0445588,0.08087167,1.04518
59.74,14.66673,-0.04728086,0.08574207,1.04377
62.94,15.77696,-0.05090499,0.09290423,1.04238
66.14,16.8744,-0.05534461,0.10142,1.04098
69.34,17.95366,-0.05756014,0.10434,1.0396
72.54,19.03219,-0.06057122,0.10331,1.03821
75.74,20.09916,-0.06211511,0.10876,1.03683
78.94,21.16585,-0.06548922,0.10519,1.03546
82.14,22.2373,-0.06999237,0.10252,1.03409
85.34,23.30813,-0.07006823,0.10011,1.03273
88.54,24.3734,-0.06957902,0.09567493,1.03137
91.74,25.44404,-0.07276807,0.09261013,1.03001
94.94,26.50863,-0.07602168,0.09516545,1.02866
98.14,27.5709,-0.07544257,0.0893498,1.02732
101.34,28.6377,-0.0773383,0.09287101,1.02597
104.54,29.6934,-0.07933044,0.09325659,1.02464
107.74,30.75556,-0.07901425,0.09142486,1.0233
110.94,31.81227,-0.08172135,0.09194199,1.02197
114.14,32.86148,-0.0803645,0.09464019,1.02064
117.34,33.91945,-0.08449146,0.09032055,1.01932
120.54,34.98123,-0.08491337,0.09154518,1.018
123.74,36.03585,-0.0847894,0.09157737,1.01668
126.94,37.08955,-0.08511799,0.09298878,1.01536
130.14,38.1456,-0.08545997,0.09276109,1.01405
133.34,39.19265,-0.08824201,0.0932922,1.01274
136.54,40.25092,-0.09153363,0.08786951,1.01143
139.74,41.30588,-0.09127731,0.0927764,1.01013
142.94,42.35685,-0.09344221,0.09472556,1.00882
146.14,43.4006,-0.09378286,0.09826655,1.00752
149.34,44.44636,-0.09745345,0.09995606,1.00622
152.54,45.49338,-0.09507511,0.09890849,1.00492
155.74,46.54412,-0.09899652,0.09693264,1.00363
158.94,47.58954,-0.10189,0.10167,1.00233
162.14,48.63024,-0.107,0.10557,1.00104
165.34,49.67623,-0.10528,0.1028,0.99975
168.54,50.71989,-0.10509,0.10349,0.99845
171.74,51.7616,-0.10849,0.10684,0.99716
174.94,52.80335,-0.10831,0.1079,0.99587
178.14,53.85063,-0.11221,0.10722,0.99458
181.34,54.89943,-0.11584,0.10641,0.99329
184.54,55.9466,-0.1176,0.1077,0.992
187.74,56.9848,-0.12111,0.10866,0.99071
190.94,58.02106,-0.1247,0.11032,0.98942
194.14,59.05961,-0.12635,0.11124,0.98813
197.34,60.10265,-0.13514,0.1058,0.98684
200.54,61.14833,-0.13512,0.11108,0.98555
203.74,62.1885,-0.14107,0.11449,0.98425
206.94,63.2251,-0.14554,0.11161,0.98296
210.14,64.2637,-0.15115,0.11143,0.98166
213.34,65.29783,-0.15116,0.11151,0.98037
216.54,66.34317,-0.1605,0.11211,0.97907
219.74,67.3857,-0.16629,0.11191,0.97777
222.94,68.42034,-0.16845,0.11552,0.97646
226.14,69.45875,-0.17769,0.11673,0.97516
229.34,70.4962,-0.18039,0.11259,0.97385
232.54,71.53939,-0.18868,0.1161,0.97254
235.74,72.57489,-0.19664,0.11688,0.97123
238.94,73.61234,-0.20251,0.1161,0.96991
242.14,74.65645,-0.21335,0.11777,0.9686
245.34,75.69678,-0.22298,0.11808,0.96727
248.54,76.74377,-0.2348,0.11712,0.96595
251.74,77.78125,-0.24296,0.11613,0.96462
254.94,78.81942,-0.25942,0.11,0.96329
258.14,79.85959,-0.27495,0.11328,0.96195
261.34,80.8982,-0.28936,0.11051,0.96061
264.54,81.93974,-0.31113,0.11451,0.95927
267.74,82.9831,-0.33289,0.11693,0.95792
270.94,84.02384,-0.35335,0.11882,0.95656
274.14,85.06829,-0.38047,0.12377,0.9552
277.34,86.10517,-0.40538,0.12889,0.95384
280.54,87.14538,-0.43726,0.13111,0.95247
283.74,88.1879,-0.46595,0.13479,0.9511
286.94,89.2324,-0.50318,0.13716,0.94972
290.14,90.28069,-0.54076,0.14225,0.94833
293.34,91.321,-0.58267,0.14606,0.94694
296.54,92.35769,-0.62672,0.14977,0.94554
299.74,93.4046,-0.67499,0.15534,0.94414
302.94,94.45156,-0.72503,0.15785,0.94273
306.14,95.49932,-0.77542,0.1665,0.94132
309.34,96.53608,-0.83402,0.17479,0.93989
312.54,97.58208,-0.89622,0.18286,0.93846
315.74,98.63207,-0.96355,0.19458,0.93703
318.94,99.67177,-1.03959,0.20746,0.93558
322.14,100.716,-1.12191,0.22266,0.93413
325.34,101.768,-1.21481,0.23529,0.93267
328.54,102.814,-1.31349,0.24944,0.93121
331.74,103.863,-1.41517,0.25617,0.92973
334.94,104.906,-1.5205,0.25305,0.92825
338.14,105.948,-1.62153,0.24414,0.92676
341.34,106.991,-1.71798,0.21403,0.92526
344.54,108.041,-1.79895,0.17789,0.92375
347.74,109.09,-1.86506,0.13776,0.92224
350.94,110.134,-1.91035,0.10676,0.92072
354.14,111.177,-1.94766,0.08048907,0.91918
357.34,112.225,-1.97569,0.07233119,0.91764
360.54,113.2753,-2.00238,0.06861584,0.91609
363.74,114.325,-2.02877,0.07352292,0.91453
366.94,115.372,-2.05736,0.07572581,0.91296
370.14,116.415,-2.08669,0.08156868,0.91138
373.34,117.47,-2.11908,0.08435424,0.90979
376.54,118.523,-2.15976,0.08489029,0.90819
379.74,119.581,-2.19801,0.08115486,0.90658
382.94,120.636,-2.23704,0.07614827,0.90496
386.14,121.687,-2.27467,0.06306936,0.90333
389.34,122.7422,-2.30634,0.05022908,0.90169
392.54,123.788,-2.32673,0.03630113,0.90004
395.74,124.838,-2.34557,0.02870539,0.89838
398.94,125.896,-2.35882,0.02297731,0.89671
402.14,126.956,-2.36875,0.01914119,0.89503
405.34,128.011,-2.37888,0.01515991,0.89334
408.54,129.056,-2.38933,0.01730577,0.89163
411.74,130.112,-2.39763,0.01570304,0.88992
414.94,131.177,-2.4036,0.01458563,0.88819
418.14,132.2314,-2.40882,0.01645084,0.88645
421.34,133.284,-2.41803,0.01863661,0.8847
424.54,134.342,-2.42231,0.0216271,0.88294
427.74,135.396,-2.42823,0.01806844,0.88116
430.94,136.454,-2.43754,0.01984912,0.87938
434.14,137.517,-2.44082,0.01806478,0.87758
437.34,138.579,-2.44569,0.01985966,0.87577
440.54,139.634,-2.45094,0.01997528,0.87395
443.74,140.695,-2.45445,0.01801961,0.87212
446.94,141.755,-2.45861,0.01778997,0.87027
450.14,142.814,-2.46217,0.01985266,0.86841
453.34,143.868,-2.4669,0.02446981,0.86654
456.54,144.929,-2.46879,0.02214123,0.86466
459.74,145.996,-2.47011,0.02065305,0.86276
462.94,147.057,-2.47288,0.02231853,0.86085
466.14,148.121,-2.47814,0.0255624,0.85893
469.34,149.1799,-2.47913,0.02010906,0.85699
472.54,150.236,-2.4814,0.02173649,0.85505
475.74,151.303,-2.48494,0.0174153,0.85309
478.94,152.365,-2.48737,0.01085159,0.85111
482.14,153.427,-2.48897,0.00248089,0.84912
485.34,154.491,-2.49259,0.00370786,0.84712
488.54,155.556,-2.49702,-0.008782018,0.84511
491.74,156.626,-2.498,-0.01107177,0.84308
494.94,157.698,-2.49961,-0.02143579,0.84104
498.14,158.763,-2.50482,-0.02488264,0.83899
501.34,159.826,-2.50655,-0.02318327,0.83692
504.54,160.886,-2.50645,-0.02591224,0.83484
507.74,161.958,-2.5093,-0.02456158,0.83275
510.94,163.02,-2.51059,-0.02587452,0.83064
514.14,164.091,-2.51181,-0.02564609,0.82852
517.34,165.161,-2.51693,-0.02224519,0.82638
520.54,166.226,-2.51993,-0.01651527,0.82423
523.74,167.293,-2.51677,-0.02087141,0.82207
526.94,168.363,-2.52125,-0.02255823,0.81989
530.14,169.432,-2.51955,-0.02096833,0.8177
533.34,170.503,-2.5246,-0.01778506,0.8155
536.54,171.572,-2.52242,-0.01916353,0.81328
539.74,172.645,-2.52703,-0.01526615,0.81105
542.94,173.709,-2.52535,-0.02040261,0.8088
546.14,174.783,-2.52827,-0.01618118,0.80654
549.34,175.842,-2.53092,-0.01781626,0.80427
552.54,176.9068,-2.53056,-0.01775893,0.80198
555.74,177.984,-2.53384,-0.01824825,0.79968
558.94,179.0586,-2.53399,-0.01586674,0.79737
562.14,180.127,-2.53686,-0.0145948,0.79504
565.34,181.194,-2.53375,-0.01102025,0.79269
568.54,182.272,-2.53607,-0.01084176,0.79034
571.74,183.347,-2.5389,-0.01001252,0.78797
574.94,184.415,-2.54283,-0.009929154,0.78558
578.14,185.487,-2.5424,-0.005151343,0.78319
581.34,186.562,-2.54402,-0.00482246,0.78077
584.54,187.647,-2.54743,0.0045506,0.77835
587.74,188.715,-2.54912,0.00413617,0.77591
590.94,189.7874,-2.54908,0.00629477,0.77346
594.14,190.871,-2.55039,0.009281422,0.77099
597.34,191.943,-2.55305,0.01095451,0.76851
600.54,193.008,-2.55351,0.01393557,0.76602
603.74,194.089,-2.55693,0.01925629,0.76351
606.94,195.164,-2.55735,0.02017024,0.76099
610.14,196.237,-2.55946,0.02321631,0.75845
613.34,197.321,-2.5663,0.01725111,0.75591
616.54,198.4,-2.56787,0.02242037,0.75335
619.74,199.469,-2.57015,0.02544377,0.75077
622.94,200.545,-2.57292,0.01741722,0.74818
626.14,201.6236,-2.57588,0.02285057,0.74558
629.34,202.704,-2.57881,0.02030833,0.74297
632.54,203.782,-2.58567,0.01995435,0.74034
635.74,204.86,-2.5865,0.01786726,0.7377
638.94,205.924,-2.58632,0.01191188,0.73505
642.14,207.003,-2.58597,0.00025909,0.73239
645.34,208.087,-2.59166,-0.0124783,0.72971
648.54,209.163,-2.59177,-0.00840069,0.72702
651.74,210.244,-2.58981,-0.01111413,0.72431
654.94,211.316,-2.58915,-0.01884862,0.7216
658.14,212.4,-2.59079,-0.01080406,0.71887
661.34,213.479,-2.5934,-0.007205311,0.71613
664.54,214.554,-2.59007,-0.00960115,0.71338
667.74,215.626,-2.59346,-0.00127466,0.71061
670.94,216.705,-2.59223,-0.00509842,0.70783
674.14,217.785,-2.59338,-0.005832876,0.70504
677.34,218.869,-2.59242,-0.00153082,0.70224
680.54,219.949,-2.59343,-0.001139915,0.69943
683.74,221.024,-2.59073,-0.001488177,0.69661
686.94,222.104,-2.5954,0.005951646,0.69377
690.14,223.183,-2.5966,0.002245787,0.69092
693.34,224.264,-2.59644,0.009460348,0.68806
696.54,225.3349,-2.59958,0.01184952,0.68519
699.74,226.42,-2.59955,0.01071596,0.68231
702.94,227.507,-2.59937,0.01957141,0.67942
706.14,228.584,-2.60232,0.02500332,0.67652
709.34,229.678,-2.60775,0.03572321,0.6736
712.54,230.749,-2.60534,0.04460649,0.67068
715.74,231.828,-2.60725,0.04539328,0.66775
718.94,232.917,-2.60692,0.05181176,0.6648
722.14,234,-2.60725,0.05777806,0.66184
725.34,235.08,-2.609,0.06304011,0.65888
728.54,236.161,-2.60767,0.06435223,0.6559
731.74,237.241,-2.609,0.07273587,0.65292
734.94,238.33,-2.61065,0.07835925,0.64992
738.14,239.4045,-2.61042,0.07714242,0.64692
741.34,240.499,-2.61294,0.08284722,0.6439
744.54,241.579,-2.61428,0.08260333,0.64088
747.74,242.664,-2.6154,0.07901955,0.63785
750.94,243.748,-2.61842,0.08233975,0.63481
754.14,244.832,-2.61555,0.08201791,0.63176
757.34,245.9045,-2.62165,0.09237776,0.6287
760.54,246.992,-2.62086,0.09101389,0.62563
763.74,248.084,-2.62227,0.08778508,0.62255
766.94,249.167,-2.62423,0.09319293,0.61947
770.14,250.247,-2.62586,0.10694,0.61638
773.34,251.334,-2.6272,0.11947,0.61327
776.54,252.424,-2.6282,0.12401,0.61017
779.74,253.5,-2.63072,0.13655,0.60705
782.94,254.586,-2.63271,0.13849,0.60393
786.14,255.6677,-2.63521,0.14491,0.6008
789.34,256.759,-2.63579,0.14754,0.59766
792.54,257.837,-2.6394,0.1526,0.59452
795.74,258.917,-2.64048,0.15882,0.59136
798.84,259.977,-2.63902,0.15767,0.5883