Folder: fsri_materials_database/01_Data/Overstuffed_Chair_Polyester_Batting/STA/N2/10K_min

Note: 01_Data/README.md
# Materials and Products Database
## 01_Data

Raw data generated from each apparatus are included here in plain-text format. The data is organized first by material, next by the short name of test apparatus used, and where applicable additional filtering by test settings.

### material.json

Each material directory contains a json file of the same name as the material. This file links the data stored in the repository as well as data and graphs produced by the accompanying scripts (__02_Scripts__) to the respective landing page for the material on the front-end website.

File: Overstuffed_Chair_Polyester_Batting_STA_N2_10KData_220131_R2.csv
##Temp./Â°C,Time/min,DSC(subtr.2)/(mW/mg),Mass(subtr.2)/%,Sensit./(uV/mW)
49.362,10.01,-0.007082496,100.69,1.07447
52.062,11.22601,0.07144112,100.714,1.07427
54.762,11.63133,0.11379,100.751,1.07406
57.462,11.9712,0.1375,100.791,1.07384
60.162,12.28576,0.15306,100.751,1.07359
62.862,12.58838,0.16306,100.755,1.07333
65.562,12.8855,0.17034,100.781,1.07305
68.262,13.17785,0.18664,100.755,1.07276
70.962,13.46611,0.18819,100.788,1.07244
73.662,13.75191,0.18776,100.822,1.07212
76.362,14.0348,0.19124,100.776,1.07177
79.062,14.314,0.1952,100.824,1.07141
81.762,14.5912,0.20105,100.789,1.07103
84.462,14.86679,0.20419,100.822,1.07063
87.162,15.13977,0.20548,100.822,1.07022
89.862,15.41105,0.21144,100.788,1.06979
92.562,15.68031,0.21451,100.814,1.06934
95.262,15.9481,0.21608,100.814,1.06887
97.962,16.21656,0.22055,100.822,1.06839
100.662,16.48337,0.22217,100.822,1.0679
103.362,16.74934,0.22724,100.855,1.06738
106.062,17.01474,0.23108,100.855,1.06685
108.762,17.2793,0.23365,100.865,1.06631
111.462,17.54368,0.23875,100.856,1.06574
114.162,17.8081,0.24205,100.889,1.06516
116.862,18.07222,0.24748,100.864,1.06457
119.562,18.3365,0.25407,100.889,1.06395
122.262,18.59971,0.26293,100.889,1.06332
124.962,18.86317,0.27551,100.923,1.06268
127.662,19.12614,0.29125,100.8886,1.06202
130.362,19.38779,0.30704,100.888,1.06134
133.062,19.65008,0.31349,100.889,1.06064
135.762,19.91142,0.29681,100.9224,1.05993
138.462,20.17197,0.27278,100.889,1.05921
141.162,20.43194,0.25922,100.89,1.05847
143.862,20.6917,0.2544,100.923,1.05771
146.562,20.95119,0.25768,100.923,1.05693
149.262,21.21015,0.26032,100.931,1.05614
151.962,21.4695,0.26475,100.923,1.05534
154.662,21.7284,0.26478,100.962,1.05451
157.362,21.98736,0.27015,100.9146,1.05368
160.062,22.2461,0.27037,100.915,1.05282
162.762,22.5048,0.27624,100.915,1.05195
165.462,22.7635,0.27575,100.939,1.05107
168.162,23.02219,0.27776,100.936,1.05017
170.862,23.2811,0.27619,100.9312,1.04925
173.562,23.5393,0.28256,100.931,1.04832
176.262,23.79835,0.28143,100.931,1.04737
178.962,24.05697,0.28649,100.9312,1.04641
181.662,24.31496,0.2865,100.9312,1.04543
184.362,24.57384,0.2879,100.932,1.04444
187.062,24.83234,0.29499,100.898,1.04343
189.762,25.08996,0.29407,100.931,1.04241
192.462,25.3478,0.2972,100.923,1.04137
195.162,25.60516,0.30407,100.8977,1.04032
197.862,25.8626,0.30671,100.915,1.03925
200.562,26.11993,0.30674,100.965,1.03817
203.262,26.3773,0.30954,100.931,1.03707
205.962,26.63413,0.31216,100.915,1.03596
208.662,26.8916,0.31477,100.966,1.03483
211.362,27.1489,0.31757,100.898,1.03369
214.062,27.40635,0.31879,100.933,1.03253
216.762,27.6639,0.325,100.8977,1.03136
219.462,27.9215,0.33299,100.898,1.03018
222.162,28.17955,0.33622,100.923,1.02898
224.862,28.4373,0.3428,100.923,1.02776
227.562,28.69521,0.35087,100.923,1.02653
230.262,28.95335,0.361,100.889,1.02529
232.962,29.2121,0.37447,100.889,1.02403
235.662,29.47012,0.39019,100.881,1.02276
238.362,29.72819,0.41315,100.906,1.02148
241.062,29.98563,0.4524,100.906,1.02018
243.762,30.24369,0.50387,100.923,1.01887
246.462,30.5026,0.58604,100.909,1.01754
249.162,30.7617,0.73389,100.889,1.0162
251.862,31.0218,0.95885,100.8892,1.01485
254.562,31.282,1.09108,100.881,1.01348
257.262,31.54138,0.7833,100.882,1.0121
259.962,31.798,0.46986,100.872,1.0107
262.662,32.05434,0.38324,100.892,1.00929
265.362,32.3116,0.3596,100.864,1.00787
268.062,32.56886,0.35851,100.846,1.00644
270.762,32.82627,0.35589,100.8555,1.00499
273.462,33.08381,0.35636,100.847,1.00353
276.162,33.34149,0.35859,100.864,1.00206
278.862,33.59912,0.35834,100.864,1.00057
281.562,33.85727,0.35916,100.847,0.99907
284.262,34.11515,0.35904,100.856,0.99756
286.962,34.3731,0.36074,100.866,0.99603
289.662,34.6312,0.36258,100.83,0.99449
292.362,34.88962,0.36478,100.847,0.99294
295.062,35.1469,0.36807,100.809,0.99138
297.762,35.40473,0.36801,100.8305,0.9898
300.462,35.6625,0.37095,100.812,0.98822
303.162,35.92069,0.37009,100.78,0.98662
305.862,36.17927,0.37005,100.813,0.985
308.562,36.43833,0.36908,100.746,0.98338
311.262,36.69773,0.37237,100.738,0.98174
313.962,36.95671,0.37353,100.771,0.9801
316.662,37.2162,0.376,100.704,0.97844
319.362,37.47555,0.37609,100.705,0.97676
322.062,37.73512,0.37792,100.669,0.97508
324.762,37.995,0.37899,100.696,0.97338
327.462,38.25481,0.379,100.637,0.97168
330.162,38.51509,0.38036,100.628,0.96996
332.862,38.7757,0.38018,100.595,0.96823
335.562,39.03662,0.38136,100.561,0.96649
338.262,39.29696,0.38324,100.561,0.96474
340.962,39.5571,0.38457,100.527,0.96297
343.662,39.81755,0.38727,100.477,0.9612
346.362,40.078,0.39185,100.4518,0.95941
349.062,40.33848,0.39179,100.4518,0.95762
351.762,40.59918,0.39762,100.409,0.95581
354.462,40.8607,0.40198,100.376,0.95399
357.162,41.1221,0.40378,100.283,0.95216
359.862,41.38366,0.40905,100.267,0.95032
362.562,41.6452,0.41401,100.199,0.94847
365.262,41.9064,0.4188,100.136,0.94661
367.962,42.16806,0.42049,100.077,0.94474
370.662,42.4297,0.42524,99.9468,0.94286
373.362,42.69187,0.42686,99.83753,0.94097
376.062,42.95442,0.43512,99.68711,0.93907
378.762,43.21757,0.44271,99.48428,0.93716
381.462,43.4793,0.45124,99.2684,0.93524
384.162,43.74232,0.45866,98.9594,0.93331
386.862,44.00396,0.47214,98.63002,0.93137
389.562,44.26702,0.48366,98.19697,0.92942
392.262,44.53029,0.49019,97.64835,0.92746
394.962,44.79408,0.50884,97.0099,0.92549
397.662,45.05813,0.52112,96.24559,0.92352
400.362,45.32197,0.53481,95.35259,0.92153
403.062,45.5856,0.55836,94.31448,0.91953
405.762,45.84919,0.57692,93.11901,0.91753
408.462,46.11309,0.60072,91.66251,0.91551
411.162,46.37791,0.62949,89.92472,0.91349
413.862,46.643,0.66478,87.94285,0.91146
416.562,46.9078,0.69255,85.57625,0.90942
419.262,47.17261,0.75012,82.87709,0.90737
421.962,47.43765,0.78907,79.63602,0.90531
424.662,47.70227,0.82178,75.98223,0.90324
427.362,47.9672,0.85978,71.93473,0.90116
430.062,48.23283,0.85879,67.3229,0.89908
432.762,48.49783,0.86701,62.59,0.89699
435.462,48.7626,0.87107,57.50858,0.89489
438.162,49.0263,0.85029,52.3906,0.89278
440.862,49.29022,0.80991,47.41953,0.89067
443.562,49.5537,0.74579,42.70228,0.88854
446.262,49.81775,0.64812,38.60848,0.88641
448.962,50.08173,0.52958,35.20908,0.88427
451.662,50.34604,0.41943,32.61334,0.88212
454.362,50.61,0.32863,30.65928,0.87997
457.062,50.87507,0.26263,29.19815,0.87781
459.762,51.13985,0.21219,28.0312,0.87564
462.462,51.40549,0.16062,27.11866,0.87346
465.162,51.67142,0.1071,26.39677,0.87128
467.862,51.93673,0.06481137,25.78678,0.86909
470.562,52.20302,0.02566435,25.2835,0.86689
473.262,52.46918,-0.01086276,24.8579,0.86469
475.962,52.73555,-0.04433178,24.5377,0.86248
478.662,53.0019,-0.07219218,24.26441,0.86026
481.362,53.26894,-0.09582519,23.99895,0.85803
484.062,53.53474,-0.10719,23.77355,0.8558
486.762,53.8008,-0.08928196,23.604,0.85356
489.462,54.0673,-0.09231226,23.4668,0.85132
492.162,54.33406,-0.10794,23.34056,0.84907
494.862,54.601,-0.10117,23.2049,0.84681
497.562,54.86825,-0.11231,23.09691,0.84455
500.262,55.1347,-0.11597,22.96489,0.84228
502.962,55.4012,-0.11913,22.86625,0.84001
505.662,55.6688,-0.12635,22.7652,0.83773
508.362,55.936,-0.13411,22.70044,0.83544
511.062,56.20339,-0.13685,22.58709,0.83315
513.762,56.4712,-0.14118,22.52123,0.83085
516.462,56.7391,-0.14044,22.45397,0.82855
519.162,57.0068,-0.14697,22.41316,0.82624
521.862,57.27423,-0.14933,22.3445,0.82393
524.562,57.54095,-0.15072,22.26044,0.82161
527.262,57.809,-0.15465,22.21,0.81929
529.962,58.07801,-0.1565,22.17822,0.81696
532.662,58.34724,-0.16268,22.12585,0.81462
535.362,58.6164,-0.16366,22.05857,0.81229
538.062,58.88541,-0.15483,22.0248,0.80994
540.762,59.1544,-0.1559,22.01374,0.80759
543.462,59.4229,-0.1558,21.96574,0.80524
546.162,59.69067,-0.1589,21.93197,0.80288
548.862,59.95921,-0.15792,21.89846,0.80052
551.562,60.22814,-0.15766,21.8312,0.79816
554.262,60.49674,-0.16573,21.8274,0.79579
556.962,60.76575,-0.16897,21.7332,0.79341
559.662,61.03515,-0.17544,21.73016,0.79103
562.362,61.30477,-0.18283,21.6958,0.78865
565.062,61.5747,-0.18919,21.64603,0.78627
567.762,61.84495,-0.19484,21.60587,0.78388
570.462,62.11464,-0.19342,21.51134,0.78148
573.162,62.38358,-0.19399,21.49437,0.77908
575.862,62.65229,-0.19678,21.47476,0.77668
578.562,62.9216,-0.20478,21.3988,0.77428
581.262,63.1911,-0.2079,21.3345,0.77187
583.962,63.45992,-0.21075,21.30937,0.76946
586.662,63.72971,-0.2152,21.2673,0.76704
589.362,63.99925,-0.22291,21.19999,0.76463
592.062,64.26934,-0.22384,21.15748,0.76221
594.762,64.5403,-0.23239,21.12415,0.75978
597.462,64.81115,-0.23305,21.03171,0.75735
600.162,65.0822,-0.23472,20.99794,0.75493
602.862,65.35259,-0.238,20.92258,0.75249
605.562,65.6232,-0.24369,20.88745,0.75006
608.262,65.89406,-0.24821,20.89366,0.74762
610.962,66.16463,-0.25139,20.81981,0.74518
613.662,66.43561,-0.25986,20.78721,0.74274
616.362,66.70691,-0.25611,20.72379,0.74029
619.062,66.97765,-0.26017,20.68668,0.73785
621.762,67.24845,-0.26385,20.65295,0.7354
624.462,67.5185,-0.26024,20.58587,0.73295
627.162,67.78928,-0.25981,20.5266,0.73049
629.862,68.0602,-0.26101,20.5601,0.72804
632.562,68.33148,-0.26337,20.49185,0.72558
635.262,68.60135,-0.26713,20.45934,0.72312
637.962,68.8708,-0.26787,20.42557,0.72066
640.662,69.14155,-0.26881,20.42558,0.7182
643.362,69.4118,-0.27266,20.3921,0.71574
646.062,69.68312,-0.27576,20.35857,0.71327
648.762,69.95482,-0.2798,20.29105,0.71081
651.462,70.22708,-0.28185,20.3209,0.70834
654.162,70.4991,-0.28861,20.22379,0.70587
656.862,70.77144,-0.29455,20.2584,0.7034
659.562,71.04258,-0.29506,20.22384,0.70093
662.262,71.31381,-0.29577,20.15522,0.69846
664.962,71.5857,-0.29914,20.14808,0.69598
667.662,71.8582,-0.30018,20.14782,0.69351
670.362,72.1306,-0.30331,20.1143,0.69103
673.062,72.40374,-0.30844,20.0808,0.68856
675.762,72.67657,-0.30467,20.07212,0.68608
678.462,72.9486,-0.31305,20.0721,0.68361
681.162,73.22143,-0.31769,20.03034,0.68113
683.862,73.49364,-0.32824,20.00486,0.67865
686.562,73.76541,-0.33409,19.98987,0.67618
689.262,74.03745,-0.34268,19.96294,0.6737
691.962,74.30969,-0.34344,19.9379,0.67122
694.662,74.58148,-0.3515,19.9574,0.66874
697.362,74.85324,-0.35652,19.93845,0.66626
698.762,74.99512,-0.35939,19.90384,0.66498

File: Overstuffed_Chair_Polyester_Batting_STA_N2_10KData_220201_R3.csv
##Temp./Â°C,Time/min,DSC(subtr.2)/(mW/mg),Mass(subtr.2)/%,Sensit./(uV/mW)
49.28,10.01,-0.00926926,100.846,1.07447
51.98,11.23077,0.08105651,100.937,1.07428
54.68,11.63305,0.12793,100.949,1.07407
57.38,11.97102,0.15051,100.975,1.07384
60.08,12.28497,0.16376,101.007,1.0736
62.78,12.5869,0.17369,100.988,1.07334
65.48,12.8827,0.1831,101.024,1.07306
68.18,13.1739,0.19841,101,1.07277
70.88,13.4628,0.199,101.041,1.07245
73.58,13.74896,0.20053,101.056,1.07213
76.28,14.0322,0.20109,101.09,1.07178
78.98,14.3117,0.20439,101.056,1.07142
81.68,14.59048,0.20793,101.122,1.07104
84.38,14.866,0.21361,101.121,1.07064
87.08,15.13822,0.21662,101.121,1.07023
89.78,15.4099,0.2201,101.153,1.0698
92.48,15.67932,0.22551,101.178,1.06935
95.18,15.94716,0.22996,101.153,1.06889
97.88,16.21584,0.23122,101.191,1.06841
100.58,16.48285,0.23443,101.158,1.06791
103.28,16.74909,0.23957,101.1994,1.0674
105.98,17.01495,0.24053,101.191,1.06687
108.68,17.28027,0.24339,101.191,1.06632
111.38,17.54515,0.24766,101.194,1.06576
114.08,17.8094,0.25385,101.194,1.06518
116.78,18.0734,0.26054,101.226,1.06458
119.48,18.3365,0.26581,101.228,1.06397
122.18,18.59962,0.275,101.2345,1.06334
124.88,18.8624,0.28588,101.2266,1.0627
127.58,19.1254,0.30301,101.229,1.06204
130.28,19.3886,0.31642,101.259,1.06136
132.98,19.65121,0.31922,101.259,1.06067
135.68,19.91258,0.30185,101.259,1.05996
138.38,20.17437,0.27519,101.2916,1.05923
141.08,20.4348,0.26273,101.259,1.05849
143.78,20.6938,0.26054,101.259,1.05773
146.48,20.9535,0.26275,101.283,1.05696
149.18,21.21248,0.26587,101.258,1.05617
151.88,21.472,0.26838,101.255,1.05536
154.58,21.73099,0.27006,101.299,1.05454
157.28,21.9892,0.2716,101.267,1.0537
159.98,22.2485,0.2753,101.3,1.05285
162.68,22.50725,0.27388,101.324,1.05198
165.38,22.76586,0.27845,101.331,1.0511
168.08,23.02454,0.27713,101.338,1.0502
170.78,23.2833,0.28121,101.307,1.04928
173.48,23.54148,0.28299,101.307,1.04835
176.18,23.79965,0.28404,101.316,1.0474
178.88,24.05804,0.28672,101.34,1.04644
181.58,24.31566,0.29035,101.326,1.04546
184.28,24.5729,0.29191,101.31,1.04447
186.98,24.8304,0.29031,101.359,1.04347
189.68,25.08804,0.2935,101.326,1.04244
192.38,25.34544,0.29567,101.3516,1.04141
195.08,25.6026,0.29757,101.359,1.04035
197.78,25.86081,0.298,101.359,1.03928
200.48,26.119,0.30221,101.358,1.0382
203.18,26.3772,0.30447,101.359,1.03711
205.88,26.6353,0.30439,101.36,1.03599
208.58,26.8932,0.30851,101.359,1.03487
211.28,27.1511,0.31238,101.391,1.03372
213.98,27.40904,0.31641,101.4,1.03257
216.68,27.66667,0.3206,101.325,1.0314
219.38,27.92403,0.32546,101.393,1.03021
222.08,28.181,0.33372,101.374,1.02901
224.78,28.43958,0.3414,101.375,1.0278
227.48,28.69787,0.34781,101.3914,1.02657
230.18,28.95615,0.35397,101.407,1.02533
232.88,29.2149,0.36654,101.375,1.02407
235.58,29.47304,0.3892,101.407,1.0228
238.28,29.7307,0.41145,101.352,1.02152
240.98,29.98917,0.44754,101.383,1.02022
243.68,30.24778,0.50551,101.383,1.01891
246.38,30.50631,0.59403,101.383,1.01758
249.08,30.7646,0.75566,101.359,1.01624
251.78,31.02433,0.98761,101.367,1.01489
254.48,31.28411,1.06657,101.365,1.01352
257.18,31.5424,0.70823,101.399,1.01214
259.88,31.799,0.44669,101.375,1.01074
262.58,32.05488,0.36878,101.4076,1.00934
265.28,32.31205,0.34734,101.391,1.00792
267.98,32.56916,0.34166,101.359,1.00648
270.68,32.82648,0.34168,101.375,1.00503
273.38,33.08337,0.3436,101.357,1.00357
276.08,33.3404,0.34459,101.367,1.0021
278.78,33.5981,0.3466,101.367,1.00061
281.48,33.85561,0.34744,101.344,0.99911
284.18,34.11333,0.34927,101.324,0.9976
286.88,34.3718,0.34986,101.346,0.99608
289.58,34.62952,0.34671,101.3325,0.99454
292.28,34.88743,0.34826,101.333,0.99299
294.98,35.14568,0.34931,101.3318,0.99143
297.68,35.40367,0.34932,101.291,0.98985
300.38,35.6616,0.34993,101.275,0.98827
303.08,35.92,0.34929,101.232,0.98667
305.78,36.17882,0.34929,101.248,0.98505
308.48,36.43723,0.34816,101.248,0.98343
311.18,36.69639,0.34837,101.216,0.98179
313.88,36.95561,0.34734,101.183,0.98015
316.58,37.21566,0.34943,101.199,0.97849
319.28,37.47565,0.34841,101.159,0.97681
321.98,37.7359,0.34746,101.159,0.97513
324.68,37.99592,0.3471,101.128,0.97344
327.38,38.25633,0.3475,101.094,0.97173
330.08,38.51682,0.34752,101.062,0.97001
332.78,38.77698,0.35381,100.997,0.96828
335.48,39.0373,0.35373,101.032,0.96654
338.18,39.2973,0.35733,101,0.96479
340.88,39.55704,0.35995,100.935,0.96303
343.58,39.81762,0.36098,100.967,0.96125
346.28,40.07759,0.36102,100.934,0.95947
348.98,40.33912,0.36271,100.894,0.95767
351.68,40.60094,0.36307,100.837,0.95586
354.38,40.8615,0.36825,100.804,0.95405
357.08,41.12189,0.37113,100.74,0.95222
359.78,41.38243,0.37746,100.702,0.95038
362.48,41.64328,0.37874,100.6,0.94853
365.18,41.90465,0.38063,100.602,0.94667
367.88,42.16632,0.38638,100.448,0.9448
370.58,42.42857,0.38771,100.362,0.94292
373.28,42.69095,0.39508,100.202,0.94103
375.98,42.95312,0.40481,100.033,0.93913
378.68,43.2157,0.40916,99.90394,0.93722
381.38,43.4786,0.41516,99.6614,0.9353
384.08,43.74211,0.42339,99.34949,0.93337
386.78,44.00538,0.43441,99.00288,0.93143
389.48,44.26889,0.44796,98.52341,0.92948
392.18,44.53141,0.45986,98.02354,0.92752
394.88,44.79403,0.47883,97.40154,0.92555
397.58,45.0565,0.49375,96.5694,0.92358
400.28,45.31969,0.50708,95.711,0.92159
402.98,45.58356,0.51738,94.6541,0.91959
405.68,45.8479,0.53629,93.455,0.91759
408.38,46.11231,0.5653,91.9352,0.91557
411.08,46.37695,0.59625,90.23859,0.91355
413.78,46.64168,0.63313,88.1824,0.91152
416.48,46.90737,0.70227,85.75725,0.90948
419.18,47.1721,0.73184,82.84264,0.90743
421.88,47.43696,0.71591,79.59962,0.90537
424.58,47.70173,0.75884,76.03229,0.9033
427.28,47.96707,0.76986,72.03239,0.90123
429.98,48.23149,0.81306,67.53664,0.89914
432.68,48.49478,0.81303,62.7643,0.89705
435.38,48.75887,0.82007,57.70515,0.89495
438.08,49.02309,0.80071,52.6388,0.89285
440.78,49.28788,0.74758,47.5197,0.89073
443.48,49.55348,0.66898,42.7768,0.88861
446.18,49.81797,0.55794,38.64725,0.88648
448.88,50.08274,0.43637,35.2074,0.88434
451.58,50.34702,0.32352,32.66235,0.88219
454.28,50.61063,0.22906,30.73272,0.88004
456.98,50.8746,0.15404,29.24592,0.87787
459.68,51.13967,0.09703941,28.13215,0.87571
462.38,51.40592,0.04414073,27.1845,0.87353
465.08,51.67216,-0.000749611,26.468,0.87135
467.78,51.93938,-0.04383304,25.86603,0.86916
470.48,52.20704,-0.08117013,25.35373,0.86696
473.18,52.4742,-0.11547,24.97036,0.86475
475.88,52.74083,-0.15017,24.6818,0.86254
478.58,53.0073,-0.17696,24.354,0.86033
481.28,53.27327,-0.1953,24.10922,0.8581
483.98,53.53977,-0.21518,23.88941,0.85587
486.68,53.80515,-0.21176,23.71764,0.85363
489.38,54.0706,-0.20539,23.55626,0.85139
492.08,54.33642,-0.20441,23.4105,0.84914
494.78,54.6016,-0.21034,23.31476,0.84688
497.48,54.8675,-0.23755,23.1846,0.84462
500.18,55.1342,-0.24574,23.0553,0.84235
502.88,55.4006,-0.25271,22.95758,0.84008
505.58,55.6674,-0.25486,22.8441,0.8378
508.28,55.93391,-0.26155,22.7468,0.83551
510.98,56.20139,-0.26252,22.66837,0.83322
513.68,56.4682,-0.2679,22.59825,0.83092
516.38,56.7366,-0.27497,22.51172,0.82862
519.08,57.00509,-0.27765,22.4362,0.82631
521.78,57.2729,-0.28218,22.3708,0.824
524.48,57.54061,-0.28698,22.3064,0.82168
527.18,57.80868,-0.28989,22.26602,0.81936
529.88,58.077,-0.29312,22.18691,0.81703
532.58,58.3457,-0.29615,22.19847,0.8147
535.28,58.61485,-0.30099,22.1552,0.81236
537.98,58.8826,-0.30248,22.0761,0.81001
540.68,59.1516,-0.30926,22.07674,0.80767
543.38,59.42043,-0.31293,22.01207,0.80531
546.08,59.6896,-0.31525,21.92343,0.80296
548.78,59.95895,-0.31927,21.92291,0.80059
551.48,60.228,-0.32355,21.8823,0.79823
554.18,60.4965,-0.32697,21.85135,0.79586
556.88,60.76469,-0.33347,21.81718,0.79348
559.58,61.0334,-0.33818,21.72002,0.79111
562.28,61.30219,-0.34053,21.70686,0.78872
564.98,61.57156,-0.34633,21.65542,0.78634
567.68,61.84094,-0.35096,21.61502,0.78395
570.38,62.11091,-0.35683,21.5578,0.78155
573.08,62.3818,-0.36206,21.48319,0.77916
575.78,62.65209,-0.36836,21.46084,0.77676
578.48,62.9222,-0.37386,21.4203,0.77435
581.18,63.1934,-0.38059,21.3554,0.77194
583.88,63.4634,-0.38602,21.35543,0.76953
586.58,63.7317,-0.38979,21.26662,0.76712
589.28,64.00187,-0.39549,21.20952,0.7647
591.98,64.27109,-0.40598,21.1611,0.76228
594.68,64.54135,-0.411,21.13443,0.75986
597.38,64.8113,-0.41761,21.10401,0.75743
600.08,65.08059,-0.41996,21.07167,0.755
602.78,65.3502,-0.42825,21.01503,0.75257
605.48,65.62043,-0.43113,20.9746,0.75013
608.18,65.8912,-0.43449,20.9021,0.74769
610.88,66.1626,-0.44228,20.86873,0.74525
613.58,66.43392,-0.44426,20.80275,0.74281
616.28,66.70545,-0.44964,20.73967,0.74037
618.98,66.9768,-0.45305,20.74749,0.73792
621.68,67.2479,-0.45715,20.65046,0.73547
624.38,67.51855,-0.46188,20.65024,0.73302
627.08,67.7885,-0.46657,20.58539,0.73057
629.78,68.05847,-0.46958,20.56168,0.72811
632.48,68.32949,-0.46992,20.5206,0.72566
635.18,68.59994,-0.47863,20.46392,0.7232
637.88,68.87122,-0.48297,20.43712,0.72074
640.58,69.1421,-0.48953,20.39905,0.71827
643.28,69.41322,-0.49234,20.39901,0.71581
645.98,69.68503,-0.49727,20.3776,0.71335
648.68,69.9572,-0.50431,20.31299,0.71088
651.38,70.2291,-0.51319,20.2803,0.70841
654.08,70.5008,-0.51933,20.2803,0.70594
656.78,70.77271,-0.52835,20.2963,0.70347
659.48,71.0441,-0.53447,20.2261,0.701
662.18,71.31529,-0.53814,20.21775,0.69853
664.88,71.5861,-0.54938,20.1756,0.69606
667.58,71.85831,-0.55376,20.15506,0.69358
670.28,72.13006,-0.56747,20.11551,0.69111
672.98,72.40186,-0.57485,20.08299,0.68863
675.68,72.67367,-0.58188,20.05049,0.68616
678.38,72.9466,-0.59556,20.01822,0.68368
681.08,73.2189,-0.60232,19.9859,0.68121
683.78,73.4902,-0.61852,19.99384,0.67873
686.48,73.76142,-0.63035,19.94803,0.67625
689.18,74.03226,-0.649,19.948,0.67377
691.88,74.30311,-0.66093,19.92197,0.6713
694.58,74.5761,-0.67376,19.90756,0.66882
697.28,74.84908,-0.68455,19.89926,0.66634
698.68,74.99172,-0.69503,19.883,0.66506