Folder: fsri_materials_database/01_Data/Cotton_Batting/MCC

Note: 01_Data/README.md
# Materials and Products Database
## 01_Data

Raw data generated from each apparatus are included here in plain-text format. The data is organized first by material, next by the short name of test apparatus used, and where applicable additional filtering by test settings.

### material.json

Each material directory contains a json file of the same name as the material. This file links the data stored in the repository as well as data and graphs produced by the accompanying scripts (__02_Scripts__) to the respective landing page for the material on the front-end website.

File: Cotton_Batting_MCC_30K_min_220222_R1.txt
Sample ID:	C:\MCC\MCC Cal\Test\Cotton_Batting_DelCo_MCC_30K_min_220222_R1.txt
Sample Weight (mg):	4.51
Heating Rate (C/s):	0.5
Combustor Temp (C):	900
N2 Flow Rate (cc/min):	80
O2 Flow Rate (cc/min):	20
Calibration File:	C:\MCC\MCC Cal\Coeff1 JN10440_30_210304.txt.txt
T Correction Coefficients:	0	1.024463	0
Time Shift (s):	14
*
Time (s)	Temperature (C)	N2 flow rate (cc/min)	O2 flow rate (cc/min)	Flow Rate (cc/min)	Oxygen (%)	HRR (W/g)	Heating rate (C/s)
0.000	113.011	80.003	19.995	103.720	19.967	0.097	-0.016
7.500	113.034	80.005	19.994	103.684	19.964	0.339	0.015
14.999	113.008	80.005	19.994	103.738	19.957	0.826	-0.006
22.499	113.192	80.004	19.993	103.763	19.943	1.834	0.053
29.999	113.670	80.001	19.993	103.915	19.933	2.545	0.081
37.500	114.609	80.001	19.993	103.916	19.927	3.022	0.157
44.999	115.924	80.004	19.994	103.899	19.922	3.364	0.187
52.499	117.547	80.004	19.994	103.896	19.920	3.500	0.226
59.999	119.486	80.001	19.995	103.931	19.916	3.816	0.269
67.499	121.745	80.003	19.994	103.959	19.911	4.127	0.313
74.999	124.282	80.003	19.994	103.959	19.911	4.186	0.356
82.499	127.090	80.003	19.994	103.959	19.910	4.207	0.395
89.999	130.106	80.004	19.996	103.971	19.905	4.569	0.429
97.500	133.328	80.004	19.993	103.969	19.909	4.265	0.438
104.999	136.679	80.004	19.993	103.985	19.904	4.632	0.461
112.499	140.185	80.002	19.993	103.970	19.909	4.326	0.483
119.999	143.877	80.001	19.992	103.965	19.908	4.355	0.525
127.499	147.540	80.002	19.994	103.967	19.904	4.639	0.457
134.999	151.357	80.003	19.994	103.926	19.909	4.314	0.453
142.499	155.168	80.002	19.994	103.942	19.910	4.214	0.507
149.999	159.011	80.004	19.994	103.934	19.912	4.111	0.464
157.499	162.850	80.004	19.995	103.944	19.911	4.135	0.507
164.999	166.674	80.003	19.993	103.909	19.910	4.239	0.510
172.499	170.511	80.003	19.993	103.932	19.911	4.151	0.530
180.000	174.232	80.004	19.995	103.907	19.914	3.951	0.488
187.500	178.013	80.002	19.994	103.921	19.914	3.918	0.537
195.000	181.726	80.003	19.995	103.918	19.910	4.193	0.511
202.499	185.394	80.004	19.994	103.901	19.912	4.084	0.489
209.999	189.156	80.003	19.993	103.909	19.914	3.901	0.544
217.499	192.822	80.003	19.994	103.908	19.917	3.709	0.473
225.000	196.554	80.003	19.994	103.906	19.916	3.813	0.513
232.499	200.211	80.005	19.992	103.894	19.909	4.273	0.488
239.999	203.889	80.004	19.994	103.909	19.917	3.726	0.481
247.499	207.580	80.002	19.995	103.950	19.917	3.723	0.486
255.000	211.277	80.006	19.995	103.864	19.917	3.732	0.454
262.499	214.988	80.004	19.993	103.919	19.909	4.256	0.480
269.999	218.724	80.001	19.996	103.884	19.914	3.916	0.501
277.499	222.478	80.002	19.995	103.907	19.915	3.893	0.499
284.999	226.188	80.003	19.995	103.902	19.914	3.965	0.484
292.499	229.975	80.005	19.994	103.874	19.915	3.841	0.487
299.999	233.696	80.002	19.994	103.883	19.920	3.517	0.514
307.500	237.480	80.003	19.996	103.879	19.919	3.547	0.505
314.999	241.200	80.003	19.994	103.879	19.922	3.330	0.496
322.500	244.915	80.005	19.993	103.854	19.920	3.522	0.488
329.999	248.641	80.002	19.992	103.880	19.912	4.059	0.487
337.499	252.403	80.005	19.995	103.907	19.914	3.937	0.509
344.999	256.135	80.007	19.995	103.871	19.921	3.424	0.485
352.499	259.830	80.003	19.994	103.880	19.917	3.709	0.511
359.999	263.536	80.001	19.993	103.858	19.919	3.564	0.482
367.499	267.232	80.002	19.994	103.871	19.912	4.103	0.479
374.999	270.960	80.003	19.995	103.855	19.915	3.878	0.504
382.499	274.711	80.002	19.994	103.874	19.911	4.110	0.507
390.000	278.468	80.001	19.994	103.901	19.916	3.768	0.518
397.499	282.187	80.005	19.995	103.830	19.908	4.328	0.506
405.000	285.964	80.005	19.995	103.879	19.910	4.227	0.488
412.500	289.709	80.004	19.994	103.844	19.905	4.557	0.478
419.999	293.496	80.005	19.993	103.869	19.901	4.852	0.501
427.499	297.209	80.005	19.993	103.847	19.892	5.494	0.466
434.999	301.037	80.002	19.994	103.920	19.893	5.428	0.537
442.500	304.755	80.002	19.993	103.892	19.889	5.757	0.492
450.000	308.502	80.003	19.995	103.809	19.875	6.737	0.482
457.499	312.343	80.001	19.994	103.863	19.879	6.474	0.541
464.999	316.144	80.001	19.995	103.869	19.862	7.637	0.477
472.499	319.988	80.002	19.994	103.864	19.857	8.014	0.524
479.999	323.722	80.003	19.993	103.908	19.844	8.927	0.494
487.499	327.556	80.003	19.994	103.881	19.827	10.194	0.514
494.999	331.341	80.002	19.993	103.895	19.806	11.688	0.506
502.499	335.189	80.005	19.993	103.895	19.773	14.040	0.522
509.999	339.001	80.006	19.994	103.869	19.745	16.071	0.508
517.499	342.810	80.003	19.994	103.871	19.741	16.363	0.507
524.999	346.569	80.003	19.995	103.932	19.735	16.781	0.509
532.499	350.356	80.001	19.995	103.891	19.692	19.859	0.526
539.999	354.222	80.002	19.995	103.959	19.626	24.665	0.523
547.499	358.022	80.003	19.994	104.018	19.563	29.180	0.480
555.000	361.968	80.002	19.995	103.844	19.524	31.928	0.518
562.499	365.859	80.003	19.994	103.976	19.464	36.357	0.513
569.999	369.632	80.005	19.994	104.041	19.383	42.125	0.514
577.500	373.543	80.004	19.994	103.958	19.193	55.873	0.535
584.999	377.460	80.006	19.994	104.094	19.162	58.130	0.506
592.499	381.304	80.004	19.993	104.061	19.095	62.978	0.516
599.999	385.138	80.003	19.994	104.054	19.010	69.066	0.521
607.499	388.914	80.003	19.993	104.240	18.652	94.979	0.507
614.999	392.742	80.001	19.995	104.031	18.565	101.190	0.535
622.499	396.593	80.002	19.994	104.215	18.526	104.022	0.489
629.999	400.474	80.002	19.994	104.245	18.400	113.121	0.517
637.499	404.277	80.004	19.994	104.253	18.264	122.975	0.499
644.999	408.133	80.005	19.996	104.282	18.131	132.576	0.487
652.499	411.870	80.004	19.995	104.279	18.047	138.662	0.507
659.999	415.560	80.005	19.994	104.295	18.022	140.369	0.493
667.499	419.345	80.005	19.994	104.238	18.094	135.115	0.531
674.999	423.075	80.003	19.994	104.217	18.286	121.135	0.507
682.499	426.844	80.001	19.994	104.130	18.544	102.485	0.510
689.999	430.641	80.003	19.993	104.042	18.823	82.391	0.543
697.500	434.466	80.004	19.993	103.960	19.100	62.464	0.529
704.999	438.252	80.001	19.994	103.933	19.317	46.823	0.501
712.500	442.031	80.002	19.994	103.882	19.461	36.457	0.482
719.999	445.835	80.004	19.995	103.845	19.550	30.082	0.509
727.499	449.638	80.005	19.994	103.845	19.604	26.195	0.523
734.999	453.459	80.004	19.995	103.845	19.640	23.598	0.532
742.499	457.269	80.004	19.994	103.844	19.655	22.546	0.512
750.000	461.116	80.006	19.993	103.842	19.659	22.274	0.513
757.499	464.932	80.003	19.993	103.797	19.654	22.624	0.517
764.999	468.724	80.003	19.994	103.877	19.652	22.756	0.510
772.499	472.554	80.004	19.994	103.808	19.650	22.906	0.485
779.999	476.503	80.004	19.994	103.809	19.643	23.385	0.516
787.499	480.360	80.002	19.993	103.809	19.640	23.575	0.501
794.999	484.170	80.003	19.994	103.828	19.644	23.320	0.481
802.499	488.069	80.002	19.994	103.810	19.659	22.268	0.538
809.999	491.851	80.003	19.994	103.794	19.669	21.507	0.490
817.499	495.718	80.002	19.994	103.805	19.690	20.009	0.508
825.000	499.611	80.004	19.995	103.806	19.713	18.328	0.511
832.499	503.421	80.004	19.995	103.782	19.742	16.304	0.509
839.999	507.306	80.001	19.995	103.784	19.769	14.321	0.520
847.499	511.171	80.003	19.994	103.802	19.799	12.153	0.493
854.999	515.177	80.004	19.995	103.811	19.825	10.354	0.554
862.499	519.061	80.003	19.994	103.815	19.847	8.711	0.525
869.999	522.960	80.001	19.995	103.807	19.860	7.797	0.527
877.500	526.849	80.002	19.994	103.806	19.866	7.403	0.548
884.999	530.709	80.004	19.992	103.813	19.874	6.807	0.504
892.499	534.560	80.004	19.994	103.804	19.879	6.423	0.518
899.999	538.441	80.004	19.995	103.803	19.882	6.224	0.527
907.499	542.266	80.004	19.994	103.789	19.888	5.807	0.538
914.999	546.132	80.004	19.996	103.824	19.891	5.597	0.545
922.499	549.994	80.002	19.995	103.822	19.887	5.836	0.526
929.999	553.859	80.002	19.994	103.838	19.896	5.248	0.532
937.499	557.745	80.004	19.994	103.793	19.896	5.187	0.532
944.999	561.608	80.004	19.993	103.807	19.898	5.112	0.514
952.499	565.405	80.002	19.995	103.804	19.902	4.763	0.499
959.999	569.239	80.005	19.995	103.801	19.904	4.614	0.492
967.499	573.043	80.005	19.994	103.796	19.903	4.736	0.523
974.999	576.878	80.004	19.994	103.792	19.904	4.675	0.530
982.500	580.576	80.003	19.994	103.805	19.903	4.726	0.493
989.999	584.389	80.002	19.995	103.791	19.904	4.649	0.522
997.499	588.110	80.005	19.994	103.782	19.905	4.567	0.488
1005.000	591.902	80.001	19.994	103.812	19.908	4.381	0.532
1012.500	595.751	80.001	19.995	103.818	19.911	4.132	0.521
1019.999	599.551	80.002	19.995	103.787	19.907	4.417	0.520
1027.500	603.374	80.001	19.995	103.808	19.910	4.206	0.509
1034.999	607.253	80.001	19.994	103.799	19.907	4.433	0.500
1042.499	611.119	80.002	19.993	103.795	19.909	4.293	0.496
1049.999	615.046	80.001	19.995	103.795	19.908	4.377	0.539
1057.499	618.955	80.003	19.994	103.815	19.910	4.227	0.528
1064.999	622.741	80.003	19.993	103.784	19.896	5.214	0.517
1072.500	626.455	80.006	19.993	103.805	19.911	4.145	0.437
1079.999	630.419	80.006	19.992	103.794	19.907	4.417	0.891
1087.500	634.241	80.001	19.996	103.801	19.908	4.327	0.505
1094.999	638.061	80.002	19.995	103.799	19.912	4.052	0.485
1102.499	641.900	80.003	19.994	103.783	19.910	4.224	0.502
1109.999	645.758	80.003	19.995	103.802	19.910	4.212	0.508
1117.499	649.579	80.002	19.995	103.806	19.911	4.133	0.517
1124.999	653.378	80.004	19.993	103.798	19.913	4.029	0.503
1132.499	657.216	80.003	19.995	103.794	19.910	4.228	0.429
1139.999	661.005	80.001	19.994	103.778	19.911	4.139	0.523
1147.499	664.854	80.006	19.994	103.787	19.914	3.963	0.504
1155.000	668.672	80.010	19.992	103.817	19.914	3.929	0.489
1162.500	672.474	80.001	19.995	103.810	19.917	3.739	0.573
1169.999	676.253	80.001	19.994	103.789	19.917	3.701	0.480
1177.500	680.039	80.002	19.995	103.779	19.909	4.284	0.493
1184.999	683.850	80.011	19.994	103.805	19.919	3.556	0.518
1192.499	687.637	79.998	19.996	103.785	19.915	3.848	0.257
1200.000	691.412	80.010	19.993	103.804	19.915	3.853	0.522
1207.499	695.280	80.009	19.995	103.815	19.917	3.693	0.527
1214.999	699.096	80.005	19.995	103.782	19.914	3.940	0.530
1222.499	702.899	80.005	19.993	103.793	19.913	4.017	0.511
1229.999	706.682	79.999	19.996	103.797	19.915	3.865	0.522
1237.499	710.446	79.999	19.997	103.771	19.916	3.784	0.506
1244.999	714.220	80.006	19.994	103.802	19.913	4.004	0.508
1252.499	718.055	80.009	19.993	103.798	19.918	3.635	0.495
1260.000	721.856	80.008	19.993	103.770	19.914	3.927	0.497
1267.500	725.633	80.003	19.994	103.806	19.917	3.744	0.461
1274.999	729.372	80.004	19.995	103.808	19.914	3.933	0.499
1282.499	733.201	80.005	19.993	103.787	19.918	3.615	0.492
1289.999	736.967	79.986	19.995	103.762	19.913	4.014	0.516
1297.499	740.831	80.014	19.993	103.775	19.913	4.006	0.522
1302.499	743.358	80.003	19.996	103.802	19.910	4.249	0.508

File: Cotton_Batting_MCC_30K_min_220223_R3.txt
Sample ID:	C:\MCC\MCC Cal\Test\Cotton_Batting_DelCo_MCC_30K_min_220223_R3.txt
Sample Weight (mg):	4.66
Heating Rate (C/s):	0.5
Combustor Temp (C):	900
N2 Flow Rate (cc/min):	80
O2 Flow Rate (cc/min):	20
Calibration File:	C:\MCC\MCC Cal\Coeff1 JN10440_30_210304.txt.txt
T Correction Coefficients:	0	1.024463	0
Time Shift (s):	14
*
Time (s)	Temperature (C)	N2 flow rate (cc/min)	O2 flow rate (cc/min)	Flow Rate (cc/min)	Oxygen (%)	HRR (W/g)	Heating rate (C/s)
0.000	111.957	80.005	19.995	103.757	20.081	0.305	-0.008
8.000	111.990	80.004	19.994	103.736	20.081	0.294	-0.006
16.000	111.985	80.007	19.995	103.813	20.073	0.884	-0.007
24.000	112.203	80.007	19.993	103.794	20.073	0.875	0.015
32.000	112.638	80.006	19.993	103.836	20.065	1.459	0.041
40.001	113.338	80.006	19.994	103.914	20.055	2.154	0.068
48.000	114.379	80.006	19.994	103.930	20.052	2.315	0.116
56.001	115.811	80.006	19.994	103.935	20.045	2.795	0.196
64.000	117.542	80.004	19.994	103.505	20.091	-0.386	0.233
72.001	119.531	80.004	19.995	103.845	20.076	0.643	0.254
80.000	121.872	80.004	19.994	103.924	20.045	2.845	0.332
88.000	124.380	80.004	19.993	103.993	20.042	3.055	0.350
96.000	127.079	80.006	19.994	103.994	20.036	3.450	0.372
104.000	129.943	80.006	19.992	104.022	20.039	3.249	0.350
112.000	132.987	80.006	19.993	103.993	20.034	3.611	0.394
120.001	136.235	80.008	19.994	104.010	20.032	3.727	0.406
128.000	139.629	80.008	19.994	104.000	20.032	3.702	0.425
136.000	143.231	80.006	19.994	104.005	20.030	3.884	0.451
144.000	146.937	80.005	19.995	104.009	20.031	3.835	0.483
152.000	150.762	80.005	19.995	104.011	20.031	3.826	0.526
160.000	154.605	80.006	19.994	104.018	20.030	3.856	0.486
168.000	158.640	80.005	19.994	104.002	20.029	3.977	0.536
176.000	162.653	80.005	19.995	104.001	20.032	3.763	0.501
184.000	166.778	80.009	19.995	104.004	20.029	3.950	0.514
192.000	170.864	80.007	19.995	103.984	20.032	3.760	0.498
200.000	174.962	80.006	19.994	103.969	20.034	3.607	0.524
208.000	179.036	80.006	19.993	103.958	20.033	3.691	0.509
216.000	183.084	80.008	19.993	103.986	20.033	3.664	0.482
224.000	187.121	80.006	19.991	103.974	20.034	3.585	0.475
232.000	191.140	80.006	19.994	103.968	20.033	3.685	0.474
240.000	195.145	80.007	19.994	103.965	20.038	3.312	0.496
248.000	199.023	80.006	19.995	103.964	20.035	3.495	0.494
256.000	203.025	80.006	19.995	103.961	20.032	3.759	0.527
264.000	206.715	80.006	19.995	103.962	20.036	3.420	0.213
272.000	210.860	80.006	19.995	103.962	20.037	3.397	0.507
280.000	214.821	80.006	19.994	103.969	20.040	3.169	0.506
288.000	218.771	80.008	19.994	103.951	20.040	3.190	0.495
296.000	222.764	80.008	19.993	103.962	20.040	3.199	0.517
304.000	226.685	80.008	19.994	103.945	20.040	3.202	0.503
312.000	230.663	80.007	19.995	103.949	20.034	3.566	0.480
320.000	234.618	80.008	19.994	103.945	20.039	3.247	0.483
328.000	238.568	80.006	19.994	103.942	20.040	3.207	0.504
336.000	242.422	80.006	19.995	103.952	20.037	3.372	0.464
344.000	246.413	80.005	19.993	103.930	20.042	3.069	0.488
352.000	250.391	80.007	19.994	103.939	20.040	3.176	0.495
360.000	254.319	80.007	19.994	103.948	20.042	3.055	0.482
368.000	258.234	80.005	19.994	103.947	20.038	3.309	0.488
376.000	262.186	80.008	19.994	103.935	20.038	3.327	0.494
384.000	266.125	80.007	19.993	103.948	20.035	3.498	0.486
392.000	270.102	80.008	19.994	103.937	20.035	3.519	0.515
400.000	274.129	80.006	19.994	103.939	20.033	3.648	0.494
408.000	278.150	80.006	19.995	103.935	20.026	4.117	0.483
416.000	282.157	80.006	19.994	103.938	20.025	4.191	0.488
424.000	286.237	80.006	19.993	103.926	20.020	4.573	0.527
432.000	290.252	80.008	19.994	103.925	20.019	4.624	0.526
440.000	294.332	80.008	19.995	103.939	20.012	5.140	0.521
448.000	298.372	80.007	19.994	103.906	20.007	5.471	0.532
456.000	302.433	80.010	19.995	103.929	20.003	5.776	0.513
464.000	306.482	80.007	19.993	103.926	19.987	6.865	0.537
472.000	310.493	80.007	19.994	103.991	19.984	7.042	0.474
480.000	314.533	80.007	19.993	103.926	19.972	7.928	0.515
488.000	318.536	80.007	19.994	103.918	19.965	8.421	0.499
496.000	322.537	80.006	19.994	103.955	19.947	9.669	0.522
504.000	326.507	80.004	19.994	103.963	19.911	12.195	0.484
512.000	330.546	80.007	19.994	103.956	19.904	12.625	0.505
520.000	334.572	80.008	19.993	103.969	19.861	15.670	0.523
528.000	338.589	80.007	19.994	103.964	19.832	17.636	0.507
536.000	342.603	80.006	19.993	103.956	19.800	19.887	0.507
544.000	346.591	80.009	19.993	103.945	19.771	21.935	0.500
552.000	350.633	80.006	19.994	104.028	19.699	26.927	0.520
560.000	354.767	80.007	19.995	104.035	19.631	31.697	0.527
568.000	358.932	80.006	19.995	104.104	19.496	41.099	0.509
576.000	363.155	80.007	19.994	103.896	19.526	39.014	0.559
584.000	367.230	80.005	19.993	104.065	19.455	43.951	0.509
592.000	371.402	80.006	19.994	103.954	19.340	51.949	0.495
600.000	375.606	80.009	19.993	104.116	19.255	57.914	0.502
608.000	379.720	80.007	19.994	104.124	19.174	63.583	0.532
616.000	383.766	80.005	19.993	104.149	18.989	76.580	0.532
624.000	387.780	80.008	19.993	104.230	18.837	87.206	0.529
632.000	391.824	80.008	19.995	104.218	18.648	100.413	0.498
640.000	395.920	80.006	19.994	104.410	18.401	117.717	0.484
648.000	399.958	80.007	19.995	104.314	18.265	127.214	0.516
656.000	403.968	80.005	19.994	104.395	18.183	132.969	0.504
664.000	407.974	80.004	19.995	104.379	18.079	140.216	0.497
672.000	412.047	80.005	19.994	104.382	18.014	144.688	0.517
680.000	415.994	80.007	19.993	104.354	18.044	142.502	0.519
688.000	420.018	80.009	19.994	104.305	18.221	130.073	0.514
696.000	424.028	80.008	19.994	104.202	18.487	111.384	0.492
704.000	428.117	80.007	19.993	104.146	18.816	88.413	0.535
712.000	432.162	80.010	19.994	104.046	19.133	66.287	0.476
720.000	436.320	80.007	19.993	103.999	19.388	48.518	0.527
728.000	440.541	80.005	19.992	103.944	19.554	37.007	0.530
736.000	444.669	80.007	19.993	103.923	19.649	30.396	0.504
744.000	448.861	80.005	19.994	103.905	19.714	25.852	0.536
752.000	452.972	80.006	19.995	103.892	19.742	23.933	0.529
760.000	457.045	80.006	19.995	103.899	19.759	22.690	0.504
768.000	461.126	80.007	19.995	103.866	19.763	22.480	0.547
776.000	465.108	80.009	19.994	103.824	19.757	22.839	0.497
784.000	469.103	80.008	19.994	103.881	19.755	23.021	0.500
792.000	473.205	80.010	19.994	103.862	19.742	23.930	0.509
800.000	477.246	80.009	19.992	103.864	19.745	23.684	0.494
808.001	481.267	80.008	19.992	103.852	19.749	23.438	0.510
816.000	485.308	80.007	19.993	103.922	19.759	22.731	0.506
824.000	489.333	80.007	19.993	103.859	19.779	21.351	0.514
832.000	493.351	80.006	19.995	103.848	19.790	20.569	0.500
840.000	497.515	80.005	19.994	103.848	19.823	18.252	0.521
848.000	501.642	80.006	19.994	103.880	19.860	15.667	0.539
856.000	505.804	80.007	19.996	103.844	19.894	13.345	0.539
864.000	509.933	80.007	19.994	103.853	19.925	11.191	0.491
872.000	514.064	80.009	19.993	103.860	19.952	9.267	0.493
880.000	518.226	80.011	19.993	103.872	19.977	7.534	0.507
888.000	522.374	80.007	19.996	103.845	19.990	6.658	0.470
896.000	526.574	80.011	19.993	103.847	20.006	5.534	0.512
904.000	530.705	80.000	19.994	103.840	20.009	5.330	0.531
912.000	534.809	80.009	19.994	103.838	20.020	4.566	0.516
920.000	538.927	80.008	19.994	103.865	20.021	4.530	0.513
928.000	543.086	80.007	19.996	103.849	20.019	4.664	0.529
936.000	547.156	80.009	19.993	103.896	20.027	4.097	0.524
944.000	551.256	80.006	19.993	103.832	20.027	4.106	0.542
952.001	555.303	80.006	19.993	103.849	20.030	3.875	0.479
960.000	559.411	80.009	19.995	103.875	20.030	3.865	0.511
968.000	563.397	80.009	19.993	103.837	20.027	4.048	0.516
976.000	567.402	80.006	19.993	103.857	20.030	3.842	0.494
984.000	571.360	80.007	19.994	103.853	20.032	3.749	0.510
992.000	575.454	80.008	19.995	103.852	20.033	3.645	0.526
1000.000	579.491	80.007	19.994	103.889	20.037	3.350	0.515
1008.000	583.607	80.006	19.994	103.855	20.040	3.200	0.485
1016.000	587.706	80.007	19.994	103.858	20.042	3.000	0.526
1024.001	591.718	80.008	19.993	103.847	20.042	3.068	0.509
1032.000	595.857	80.007	19.995	103.848	20.042	3.066	0.484
1040.000	600.002	80.009	19.994	103.853	20.044	2.916	0.535
1048.000	604.110	80.010	19.994	103.844	20.043	2.937	0.535
1056.000	608.230	80.014	19.992	103.836	20.039	3.244	0.524
1064.000	612.275	80.001	19.994	103.835	20.040	3.143	0.498
1072.000	616.388	80.009	19.994	103.867	20.045	2.845	0.506
1080.000	620.540	80.000	19.995	103.835	20.044	2.927	0.541
1088.001	624.643	79.994	19.995	103.854	20.045	2.808	0.502
1096.000	628.700	80.007	19.994	103.840	20.045	2.801	0.478
1104.001	632.755	80.018	19.993	103.871	20.051	2.415	0.496
1112.000	636.810	80.004	19.994	103.832	20.047	2.665	0.488
1120.000	640.928	80.008	19.994	103.829	20.049	2.519	0.504
1128.000	645.003	80.008	19.995	103.873	20.050	2.479	0.498
1136.000	649.039	80.009	19.994	103.837	20.049	2.525	0.504
1144.000	653.115	80.005	19.993	103.866	20.050	2.505	0.503
1152.000	657.183	80.004	19.996	103.840	20.053	2.264	0.489
1160.000	661.271	80.004	19.994	103.857	20.051	2.404	0.514
1168.000	665.255	80.008	19.994	103.852	20.053	2.289	0.488
1176.001	669.263	80.011	19.995	103.853	20.056	2.033	0.486
1184.001	673.287	80.011	19.993	103.845	20.054	2.227	0.487
1192.000	677.472	80.014	19.994	103.858	20.055	2.151	0.544
1200.000	681.520	80.009	19.995	103.848	20.055	2.118	0.503
1208.001	685.576	80.010	19.994	103.874	20.056	2.064	0.495
1216.000	689.687	80.010	19.994	103.841	20.057	1.970	0.488
1224.001	693.771	80.005	19.995	103.877	20.055	2.152	0.516
1232.001	697.814	80.008	19.994	103.854	20.054	2.212	0.478
1240.000	701.869	80.009	19.995	103.876	20.055	2.162	0.518
1248.001	705.883	80.007	19.994	103.856	20.054	2.172	0.495
1256.001	710.020	80.005	19.995	103.849	20.051	2.427	0.554
1264.000	714.045	80.008	19.994	103.861	20.053	2.303	0.490
1272.000	718.190	80.009	19.993	103.857	20.055	2.145	0.520
1280.000	722.295	80.009	19.994	103.871	20.056	2.081	0.527
1288.000	726.247	80.009	19.994	103.858	20.057	2.014	0.487
1296.000	730.268	80.010	19.993	103.847	20.053	2.258	0.516
1304.000	734.338	80.007	19.993	103.873	20.055	2.120	0.493
1312.001	738.424	80.008	19.994	103.844	20.059	1.876	0.529
1320.000	742.547	80.007	19.995	103.843	20.055	2.094	0.510
1322.000	743.534	80.008	19.995	103.834	20.058	1.908	0.504