Folder: fsri_materials_database/01_Data/LatexPillow_B_Inner_Fabric/MCC

Note: 01_Data/README.md
# Materials and Products Database
## 01_Data

Raw data generated from each apparatus are included here in plain-text format. The data is organized first by material, next by the short name of test apparatus used, and where applicable additional filtering by test settings.

### material.json

Each material directory contains a json file of the same name as the material. This file links the data stored in the repository as well as data and graphs produced by the accompanying scripts (__02_Scripts__) to the respective landing page for the material on the front-end website.

File: LatexPillow_B_Inner_Fabric_MCC_30K_min_211213_R2.txt
Sample ID:	C:\MCC\MCC Cal\Test\LatexPillow_B_Inner_Fabric_MCC_30K_min_211213_R2.txt
Sample Weight (mg):	4.75
Heating Rate (C/s):	0.5
Combustor Temp (C):	900
N2 Flow Rate (cc/min):	80
O2 Flow Rate (cc/min):	20
Calibration File:	C:\MCC\MCC Cal\Coeff1 JN10440_30_210304.txt.txt
T Correction Coefficients:	0	1.024463	0
Time Shift (s):	14
*
Time (s)	Temperature (C)	N2 flow rate (cc/min)	O2 flow rate (cc/min)	Flow Rate (cc/min)	Oxygen (%)	HRR (W/g)	Heating rate (C/s)
0.000	107.838	80.014	19.992	103.055	19.981	0.105	-0.004
8.000	107.894	80.013	19.994	103.070	19.980	0.187	0.041
16.001	107.942	80.013	19.995	103.097	19.975	0.525	0.003
24.000	108.141	80.007	19.995	103.171	19.965	1.206	0.019
32.001	108.635	80.007	19.995	103.254	19.956	1.768	0.072
40.000	109.596	80.005	19.994	103.219	19.953	1.981	0.125
48.000	110.736	80.007	19.994	103.230	19.953	1.974	0.138
56.000	112.168	80.009	19.994	103.257	19.950	2.168	0.172
64.000	113.895	80.011	19.995	103.251	19.949	2.244	0.226
72.001	115.826	80.010	19.994	103.309	19.945	2.535	0.232
80.000	117.943	80.011	19.993	103.262	19.949	2.252	0.279
88.001	120.147	80.010	19.994	103.287	19.943	2.642	0.285
96.001	122.659	80.009	19.994	103.287	19.942	2.741	0.336
104.000	125.259	80.007	19.994	103.295	19.939	2.938	0.335
112.001	128.057	80.010	19.996	103.317	19.938	3.021	0.354
120.000	131.100	80.008	19.995	103.316	19.937	3.086	0.412
128.000	134.306	80.006	19.995	103.320	19.935	3.184	0.428
136.000	137.704	80.008	19.995	103.327	19.937	3.080	0.420
144.000	141.273	80.011	19.994	103.328	19.933	3.367	0.463
152.000	145.007	80.009	19.994	103.326	19.937	3.055	0.491
160.000	148.781	80.008	19.996	103.331	19.936	3.140	0.520
168.000	152.647	80.010	19.993	103.333	19.942	2.760	0.469
176.000	156.602	80.010	19.996	103.325	19.944	2.639	0.472
184.001	160.612	80.010	19.994	103.301	19.941	2.797	0.534
192.000	164.653	80.009	19.995	103.295	19.951	2.113	0.523
200.000	168.669	80.008	19.995	103.288	19.948	2.322	0.473
208.000	172.796	80.007	19.994	103.285	19.953	2.021	0.522
216.000	176.808	80.005	19.996	103.284	19.956	1.783	0.484
224.000	180.851	80.008	19.997	103.240	19.961	1.439	0.495
232.000	184.811	80.009	19.993	103.278	19.962	1.362	0.471
240.000	188.900	80.008	19.995	103.287	19.964	1.267	0.522
248.000	192.863	80.009	19.995	103.264	19.964	1.272	0.521
256.000	196.730	80.011	19.993	103.235	19.972	0.723	0.469
264.000	200.717	80.011	19.995	103.266	19.969	0.934	0.489
272.000	204.620	80.008	19.995	103.221	19.975	0.492	0.493
280.000	208.571	80.007	19.994	103.219	19.979	0.248	0.537
288.000	212.463	80.007	19.995	103.234	19.980	0.192	0.495
296.000	216.410	80.008	19.995	103.226	19.978	0.294	0.506
304.000	220.313	80.008	19.994	103.220	19.979	0.229	0.480
312.000	224.169	80.008	19.995	103.214	19.980	0.135	0.464
320.000	228.250	80.008	19.996	103.202	19.988	-0.370	0.576
328.000	232.098	80.008	19.995	103.216	19.981	0.124	0.364
336.000	236.055	80.011	19.994	103.210	19.988	-0.357	0.441
344.000	240.276	80.011	19.994	103.207	19.993	-0.728	0.480
352.000	244.261	80.008	19.995	103.216	19.994	-0.806	0.476
360.000	248.176	80.009	19.994	103.175	19.995	-0.855	0.483
368.000	252.166	79.993	19.995	103.235	19.991	-0.608	0.506
376.001	255.984	80.009	19.995	103.239	19.993	-0.688	0.484
384.000	259.874	80.013	19.994	103.221	19.991	-0.590	0.477
392.000	263.821	80.009	19.994	103.227	19.991	-0.599	0.522
400.000	267.671	80.011	19.995	103.216	19.991	-0.588	0.535
408.000	271.663	80.008	19.996	103.232	19.994	-0.766	0.539
416.000	275.675	80.008	19.995	103.219	19.995	-0.882	0.489
424.001	279.650	80.010	19.993	103.219	20.001	-1.281	0.511
432.000	283.703	80.000	19.995	103.220	20.003	-1.370	0.544
440.000	287.770	80.012	19.995	103.215	20.001	-1.287	0.505
448.000	291.811	80.012	19.994	103.215	20.008	-1.703	0.502
456.000	295.847	80.009	19.995	103.212	20.007	-1.683	0.502
464.000	299.909	80.002	19.994	103.216	20.011	-1.951	0.514
472.000	303.924	80.004	19.996	103.227	20.014	-2.149	0.503
480.000	308.079	80.008	19.994	103.218	20.015	-2.204	0.506
488.000	312.188	80.009	19.995	103.219	20.020	-2.548	0.508
496.000	316.323	80.011	19.994	103.215	20.022	-2.679	0.520
504.000	320.427	80.009	19.996	103.205	20.022	-2.705	0.516
512.000	324.538	80.008	19.995	103.210	20.026	-2.964	0.527
520.000	328.626	80.008	19.994	103.210	20.027	-3.012	0.519
528.000	332.682	79.996	19.997	103.192	20.029	-3.186	0.516
536.000	336.783	80.010	19.993	103.201	20.029	-3.190	0.522
544.000	340.813	80.006	19.994	103.216	20.031	-3.293	0.533
552.000	344.787	80.005	19.993	103.198	20.031	-3.295	0.507
560.000	348.856	80.004	19.994	103.193	20.030	-3.254	0.499
568.000	352.923	80.013	19.995	103.203	20.035	-3.550	0.521
576.000	356.952	80.022	19.993	103.195	20.031	-3.281	0.513
584.000	360.996	80.011	19.994	103.199	20.024	-2.838	0.497
592.000	364.989	80.008	19.995	103.189	20.013	-2.056	0.503
600.000	369.036	79.999	19.997	103.210	20.007	-1.657	0.494
608.000	373.094	80.007	19.995	103.216	19.986	-0.268	0.521
616.001	377.240	80.006	19.994	103.220	19.961	1.431	0.525
624.000	381.350	80.007	19.995	103.216	19.936	3.122	0.512
632.000	385.521	80.012	19.994	103.222	19.932	3.392	0.505
640.000	389.696	80.019	19.992	103.244	19.899	5.682	0.509
648.000	394.017	80.000	19.994	103.261	19.834	10.071	0.556
656.000	398.227	80.013	19.993	103.250	19.795	12.702	0.501
664.000	402.333	80.009	19.994	103.294	19.731	17.093	0.502
672.000	406.406	80.008	19.994	103.333	19.632	23.811	0.515
680.000	410.447	80.014	19.995	103.359	19.504	32.501	0.502
688.000	414.459	80.006	19.994	103.450	19.335	44.052	0.450
696.000	418.465	80.004	19.995	103.521	19.132	57.845	0.515
704.000	422.433	80.007	19.994	103.570	18.884	74.779	0.491
712.000	426.439	80.008	19.995	103.677	18.638	91.645	0.505
720.000	430.379	80.003	19.997	103.780	18.345	111.708	0.480
728.000	434.458	80.011	19.993	103.869	18.038	132.835	0.529
736.000	438.523	80.014	19.993	103.992	17.804	148.938	0.521
744.000	442.526	80.007	19.994	104.057	17.608	162.379	0.513
752.000	446.594	80.009	19.993	104.106	17.482	170.944	0.504
760.000	450.710	80.006	19.994	104.094	17.460	172.345	0.527
768.000	454.717	80.008	19.995	104.038	17.651	159.024	0.482
776.000	458.791	80.020	19.994	103.925	18.040	132.268	0.494
784.000	462.881	80.004	19.995	103.756	18.537	98.300	0.495
792.000	467.010	80.003	19.995	103.586	19.074	61.683	0.486
800.000	471.122	80.011	19.994	103.473	19.449	36.181	0.493
808.000	475.246	80.008	19.995	103.356	19.677	20.687	0.520
816.000	479.371	80.007	19.994	103.301	19.817	11.245	0.532
824.000	483.445	80.007	19.993	103.248	19.904	5.287	0.529
832.000	487.484	80.007	19.995	103.227	19.965	1.176	0.510
840.000	491.571	80.008	19.995	103.213	20.008	-1.752	0.553
848.000	495.616	80.005	19.995	103.178	20.035	-3.579	0.505
856.000	499.676	80.009	19.994	103.173	20.053	-4.761	0.486
864.000	503.737	80.001	19.995	103.167	20.065	-5.603	0.505
872.000	507.871	80.004	19.995	103.152	20.071	-6.022	0.488
880.000	511.948	80.008	19.995	103.139	20.074	-6.209	0.480
888.000	516.097	80.007	19.994	103.142	20.077	-6.419	0.465
896.000	520.214	80.009	19.993	103.150	20.085	-6.972	0.495
904.000	524.388	80.005	19.995	103.137	20.090	-7.267	0.498
912.000	528.457	80.008	19.994	103.133	20.092	-7.422	0.512
920.000	532.523	80.008	19.994	103.137	20.090	-7.284	0.511
928.000	536.684	80.002	19.995	103.140	20.095	-7.657	0.510
936.000	540.793	80.005	19.995	103.138	20.094	-7.574	0.489
944.000	544.899	80.008	19.994	103.139	20.096	-7.723	0.526
952.000	549.122	80.007	19.995	103.135	20.102	-8.122	0.541
960.000	553.295	80.006	19.995	103.131	20.099	-7.895	0.504
968.000	557.472	80.009	19.994	103.135	20.106	-8.348	0.517
976.000	561.676	80.010	19.995	103.133	20.107	-8.457	0.516
984.000	565.762	80.005	19.995	103.136	20.104	-8.222	0.528
992.000	569.864	80.004	19.995	103.136	20.108	-8.486	0.552
1000.000	573.954	80.007	19.993	103.129	20.104	-8.208	0.534
1008.000	578.008	80.006	19.994	103.139	20.104	-8.259	0.472
1016.000	582.057	80.006	19.994	103.134	20.104	-8.208	0.499
1024.001	586.124	80.009	19.996	103.132	20.103	-8.187	0.524
1032.000	590.104	80.009	19.994	103.119	20.102	-8.084	0.485
1040.000	594.155	80.008	19.994	103.115	20.100	-7.963	0.497
1048.000	598.275	80.008	19.994	103.127	20.105	-8.317	0.512
1056.000	602.408	80.007	19.996	103.129	20.103	-8.197	0.507
1064.000	606.514	80.006	19.993	103.121	20.105	-8.283	0.506
1072.000	610.588	80.008	19.995	103.106	20.109	-8.596	0.509
1080.000	614.715	80.007	19.995	103.106	20.108	-8.522	0.502
1088.000	618.801	80.006	19.995	103.098	20.105	-8.329	0.484
1096.000	622.896	80.007	19.994	103.112	20.116	-9.079	0.511
1104.000	626.927	80.007	19.994	103.097	20.118	-9.171	0.511
1112.001	631.032	80.008	19.995	103.106	20.120	-9.323	0.528
1120.000	635.213	80.007	19.995	103.099	20.126	-9.756	0.554
1128.000	639.373	80.009	19.994	103.114	20.125	-9.685	0.531
1136.000	643.483	80.006	19.994	103.104	20.131	-10.055	0.504
1144.000	647.562	80.005	19.995	103.096	20.133	-10.177	0.518
1152.000	651.645	80.006	19.995	103.095	20.134	-10.290	0.478
1160.000	655.786	80.005	19.994	103.097	20.138	-10.546	0.510
1168.000	659.922	80.008	19.994	103.098	20.142	-10.813	0.509
1176.001	664.071	80.005	19.995	103.099	20.142	-10.811	0.528
1184.000	668.259	80.007	19.994	103.097	20.144	-10.938	0.499
1192.000	672.381	80.007	19.995	103.099	20.150	-11.367	0.498
1200.000	676.531	80.006	19.993	103.106	20.151	-11.405	0.520
1208.001	680.629	80.009	19.995	103.094	20.153	-11.527	0.490
1216.000	684.701	80.006	19.994	103.095	20.155	-11.697	0.509
1224.000	688.813	80.008	19.995	103.094	20.161	-12.078	0.502
1232.000	692.922	80.006	19.996	103.095	20.159	-11.974	0.525
1240.001	697.076	80.007	19.995	103.088	20.160	-12.006	0.515
1248.000	701.198	80.006	19.996	103.102	20.163	-12.211	0.526
1256.001	705.257	80.008	19.993	103.101	20.161	-12.080	0.511
1264.000	709.413	80.006	19.995	103.087	20.168	-12.563	0.523
1272.000	713.509	80.007	19.994	103.090	20.168	-12.550	0.544
1280.000	717.577	80.008	19.995	103.092	20.165	-12.343	0.494
1288.001	721.647	80.008	19.994	103.092	20.174	-12.956	0.506
1296.001	725.728	80.006	19.995	103.094	20.167	-12.492	0.512
1304.001	729.849	80.005	19.994	103.085	20.175	-13.042	0.510
1312.000	733.946	80.005	19.995	103.095	20.177	-13.190	0.504
1320.001	738.031	80.006	19.995	103.091	20.179	-13.333	0.484
1328.000	742.106	80.005	19.996	103.076	20.174	-13.001	0.511
1331.000	743.637	80.005	19.995	103.091	20.181	-13.459	0.513

File: LatexPillow_B_Inner_Fabric_MCC_30K_min_211213_R3.txt
Sample ID:	C:\MCC\MCC Cal\Test\LatexPillow_B_Inner_Fabric_MCC_30K_min_211213_R3.txt
Sample Weight (mg):	4.1
Heating Rate (C/s):	0.5
Combustor Temp (C):	900
N2 Flow Rate (cc/min):	80
O2 Flow Rate (cc/min):	20
Calibration File:	C:\MCC\MCC Cal\Coeff1 JN10440_30_210304.txt.txt
T Correction Coefficients:	0	1.024463	0
Time Shift (s):	14
*
Time (s)	Temperature (C)	N2 flow rate (cc/min)	O2 flow rate (cc/min)	Flow Rate (cc/min)	Oxygen (%)	HRR (W/g)	Heating rate (C/s)
-0.001	107.444	80.014	19.995	103.053	19.920	-0.013	-0.018
8.000	107.457	80.007	19.994	103.051	19.922	-0.150	0.038
16.000	107.455	80.007	19.993	103.043	19.917	0.210	0.014
24.000	107.432	80.007	19.994	103.077	19.917	0.210	-0.001
32.000	107.592	80.008	19.993	103.132	19.906	1.046	0.042
39.999	107.956	80.008	19.994	103.246	19.890	2.341	0.059
48.001	108.890	80.010	19.993	103.267	19.879	3.173	0.145
55.999	110.310	80.010	19.995	103.285	19.877	3.351	0.182
63.999	112.237	80.007	19.993	103.305	19.869	3.971	0.268
71.999	114.532	80.010	19.995	103.322	19.866	4.188	0.304
79.999	117.195	80.009	19.994	103.314	19.871	3.830	0.329
87.999	120.181	80.009	19.995	103.325	19.873	3.652	0.403
95.999	123.415	80.008	19.995	103.330	19.871	3.803	0.402
103.999	126.976	80.010	19.995	103.331	19.867	4.169	0.413
111.999	130.620	80.009	19.994	103.332	19.866	4.182	0.473
120.000	134.466	80.009	19.994	103.326	19.867	4.152	0.460
127.999	138.450	80.010	19.995	103.327	19.867	4.130	0.511
136.000	142.526	80.011	19.993	103.321	19.869	4.018	0.507
144.000	146.690	80.010	19.995	103.297	19.863	4.421	0.507
152.000	150.803	80.008	19.995	103.293	19.870	3.889	0.512
160.000	154.830	80.010	19.994	103.293	19.868	4.020	0.501
168.000	158.905	80.010	19.994	103.290	19.870	3.867	0.505
176.000	162.982	80.007	19.994	103.291	19.872	3.782	0.373
184.000	167.084	80.007	19.996	103.288	19.879	3.192	0.546
192.000	171.020	80.010	19.995	103.275	19.877	3.345	0.489
200.000	175.010	80.007	19.994	103.256	19.878	3.303	0.491
208.000	178.879	80.011	19.994	103.264	19.880	3.101	0.515
216.000	182.808	80.011	19.995	103.268	19.880	3.082	0.480
224.000	186.809	80.009	19.995	103.273	19.881	3.054	0.517
232.000	190.735	80.026	19.994	103.262	19.885	2.728	0.513
240.000	194.656	80.010	19.993	103.259	19.887	2.597	0.509
248.000	198.551	80.003	19.995	103.253	19.883	2.852	0.459
256.000	202.464	79.999	19.996	103.244	19.882	2.955	0.475
264.000	206.385	80.010	19.995	103.255	19.888	2.520	0.468
272.000	210.369	80.012	19.994	103.250	19.886	2.672	0.548
280.000	214.361	80.012	19.994	103.244	19.887	2.578	0.512
288.000	218.244	80.008	19.995	103.249	19.887	2.561	0.509
296.000	222.257	80.010	19.994	103.250	19.892	2.203	0.491
304.000	226.216	80.010	19.993	103.239	19.889	2.424	0.507
312.000	230.234	80.008	19.994	103.252	19.895	1.967	0.532
320.000	234.270	80.010	19.994	103.246	19.894	2.018	0.522
328.000	238.257	80.004	19.996	103.236	19.892	2.162	0.468
336.000	242.253	80.012	19.994	103.246	19.894	2.022	0.481
344.000	246.232	79.998	19.996	103.232	19.897	1.785	0.483
352.000	250.221	80.002	19.995	103.231	19.897	1.789	0.524
360.000	254.197	80.009	19.994	103.216	19.899	1.590	0.495
368.000	258.196	80.018	19.993	103.218	19.903	1.285	0.488
376.000	262.101	79.998	19.997	103.215	19.900	1.542	0.471
384.000	266.092	80.013	19.996	103.209	19.903	1.330	0.496
392.000	270.064	80.006	19.995	103.215	19.906	1.058	0.497
400.000	274.090	80.008	19.994	103.228	19.903	1.290	0.479
408.000	278.109	80.010	19.994	103.217	19.909	0.857	0.512
416.000	282.071	80.011	19.993	103.210	19.908	0.915	0.508
424.000	286.028	80.006	19.995	103.216	19.914	0.428	0.523
432.000	290.099	80.014	19.994	103.215	19.914	0.450	0.524
440.000	294.146	80.012	19.994	103.213	19.915	0.403	0.518
448.000	298.192	80.014	19.994	103.210	19.913	0.550	0.496
456.000	302.205	80.004	19.996	103.209	19.911	0.715	0.469
464.000	306.224	80.012	19.994	103.203	19.918	0.122	0.481
472.000	310.230	80.006	19.995	103.188	19.921	-0.114	0.503
480.000	314.334	80.006	19.997	103.200	19.925	-0.416	0.512
488.000	318.393	80.007	19.995	103.191	19.925	-0.458	0.512
496.000	322.468	80.009	19.993	103.200	19.930	-0.801	0.530
504.000	326.589	80.012	19.994	103.195	19.930	-0.795	0.557
512.000	330.641	80.002	19.996	103.209	19.934	-1.092	0.523
520.000	334.830	80.012	19.994	103.208	19.930	-0.846	0.527
528.000	339.035	80.012	19.992	103.202	19.928	-0.647	0.569
536.000	343.099	80.012	19.994	103.182	19.927	-0.574	0.487
544.000	347.243	80.017	19.994	103.183	19.934	-1.146	0.523
552.000	351.315	80.016	19.994	103.184	19.939	-1.514	0.516
560.000	355.556	80.011	19.994	103.178	19.935	-1.169	0.514
568.000	359.584	79.994	19.996	103.175	19.935	-1.178	0.495
576.000	363.627	80.005	19.995	103.190	19.927	-0.546	0.496
584.000	367.597	80.006	19.995	103.177	19.921	-0.131	0.507
592.000	371.558	80.012	19.994	103.179	19.910	0.737	0.480
600.000	375.633	80.010	19.995	103.200	19.888	2.489	0.488
608.000	379.709	80.002	19.995	103.207	19.863	4.454	0.523
616.000	383.814	80.007	19.994	103.206	19.847	5.725	0.483
624.000	387.969	80.012	19.995	103.215	19.838	6.426	0.478
632.000	392.040	80.002	19.995	103.228	19.799	9.459	0.493
640.000	396.159	80.007	19.994	103.250	19.729	15.019	0.503
648.000	400.144	80.003	19.995	103.224	19.680	18.841	0.488
656.000	404.226	80.005	19.996	103.294	19.610	24.372	0.519
664.000	408.190	80.014	19.995	103.330	19.516	31.741	0.490
672.000	412.091	80.008	19.996	103.368	19.386	42.023	0.481
680.000	416.030	80.010	19.994	103.420	19.218	55.317	0.506
688.000	420.020	80.008	19.995	103.515	19.021	70.832	0.519
696.000	424.079	80.008	19.994	103.565	18.805	87.934	0.503
704.000	428.087	80.015	19.993	103.676	18.557	107.631	0.498
712.000	432.150	80.014	19.994	103.751	18.317	126.673	0.513
720.000	436.286	80.007	19.995	103.845	18.110	143.089	0.519
728.000	440.371	80.016	19.994	103.908	17.909	159.113	0.510
736.000	444.459	80.006	19.994	103.946	17.762	170.713	0.529
744.000	448.492	79.992	19.996	103.970	17.719	174.009	0.523
752.000	452.630	80.010	19.996	103.940	17.840	164.260	0.552
760.000	456.734	80.013	19.996	103.832	18.143	140.131	0.545
768.000	460.906	80.015	19.995	103.702	18.553	107.665	0.532
776.000	465.063	80.008	19.994	103.550	19.033	69.765	0.530
784.000	469.254	79.996	19.995	103.433	19.392	41.478	0.532
792.000	473.465	80.017	19.993	103.344	19.608	24.494	0.519
800.000	477.658	80.016	19.994	103.280	19.746	13.636	0.515
808.000	481.846	80.009	19.995	103.252	19.834	6.694	0.542
816.000	485.958	80.013	19.994	103.228	19.889	2.433	0.535
824.000	490.009	79.997	19.996	103.192	19.930	-0.797	0.503
832.000	494.230	80.005	19.995	103.187	19.957	-2.910	0.524
840.000	498.346	80.013	19.994	103.183	19.977	-4.464	0.511
848.000	502.459	80.007	19.996	103.163	19.986	-5.211	0.528
856.000	506.493	80.003	19.997	103.150	19.992	-5.649	0.478
864.000	510.590	80.008	19.994	103.151	19.988	-5.358	0.462
872.000	514.660	79.998	19.996	103.141	19.996	-5.998	0.529
880.000	518.735	79.996	19.995	103.135	20.003	-6.546	0.508
888.000	522.864	80.005	19.994	103.142	20.003	-6.520	0.520
896.000	526.954	80.011	19.994	103.132	20.015	-7.471	0.493
904.000	531.092	80.008	19.994	103.142	20.012	-7.231	0.526
912.000	535.161	80.007	19.994	103.142	20.014	-7.394	0.490
920.000	539.250	80.007	19.996	103.132	20.017	-7.621	0.530
928.000	543.338	80.012	19.994	103.127	20.020	-7.854	0.518
936.000	547.519	80.006	19.996	103.125	20.020	-7.884	0.518
944.000	551.598	80.009	19.994	103.134	20.019	-7.835	0.500
952.000	555.737	80.013	19.994	103.136	20.017	-7.612	0.511
960.000	559.824	80.011	19.994	103.127	20.021	-7.939	0.491
968.000	563.937	80.005	19.995	103.137	20.022	-8.023	0.509
976.000	568.094	80.006	19.995	103.133	20.022	-8.027	0.540
984.000	572.202	80.009	19.996	103.132	20.026	-8.340	0.525
992.000	576.466	80.005	19.994	103.131	20.030	-8.676	0.519
1000.000	580.614	80.009	19.994	103.127	20.030	-8.700	0.520
1008.000	584.754	80.010	19.995	103.128	20.027	-8.454	0.517
1016.000	588.898	80.013	19.993	103.129	20.027	-8.389	0.551
1024.000	592.968	80.009	19.994	103.136	20.026	-8.322	0.507
1031.999	597.067	80.012	19.995	103.130	20.027	-8.446	0.490
1040.000	601.166	80.008	19.994	103.115	20.030	-8.649	0.532
1047.999	605.218	80.007	19.995	103.121	20.033	-8.896	0.492
1055.999	609.279	80.009	19.994	103.110	20.035	-9.014	0.487
1063.999	613.368	80.008	19.994	103.110	20.035	-9.026	0.531
1071.999	617.551	80.006	19.994	103.128	20.042	-9.628	0.548
1079.999	621.654	80.009	19.995	103.117	20.041	-9.543	0.550
1087.999	625.716	80.011	19.994	103.119	20.044	-9.735	0.486
1095.999	629.884	80.008	19.995	103.118	20.046	-9.905	0.514
1103.999	634.114	80.011	19.994	103.108	20.049	-10.151	0.547
1111.999	638.308	80.009	19.995	103.104	20.051	-10.318	0.518
1119.999	642.493	80.006	19.996	103.096	20.059	-10.913	0.522
1127.999	646.633	80.008	19.995	103.093	20.064	-11.322	0.558
1135.999	650.751	80.009	19.994	103.096	20.067	-11.564	0.507
1143.999	654.823	80.008	19.994	103.095	20.070	-11.804	0.492
1151.999	658.827	80.006	19.993	103.103	20.072	-11.946	0.512
1160.000	662.876	80.009	19.994	103.096	20.077	-12.336	0.516
1168.000	666.886	80.010	19.994	103.094	20.077	-12.368	0.531
1175.999	671.087	80.009	19.994	103.094	20.081	-12.693	0.498
1183.999	675.357	80.009	19.995	103.096	20.088	-13.228	0.538
1192.000	679.641	80.009	19.995	103.093	20.091	-13.429	0.559
1199.999	683.850	80.008	19.994	103.099	20.091	-13.412	0.521
1207.999	688.068	80.006	19.995	103.094	20.099	-14.036	0.504
1215.999	692.259	80.007	19.996	103.096	20.100	-14.168	0.529
1223.999	696.365	80.007	19.995	103.093	20.102	-14.291	0.536
1231.999	700.377	80.008	19.995	103.094	20.106	-14.642	0.490
1239.999	704.271	80.009	19.995	103.086	20.106	-14.589	0.513
1248.000	708.176	80.007	19.993	103.091	20.109	-14.862	0.450
1255.999	712.034	80.008	19.995	103.094	20.110	-14.938	0.464
1263.999	716.126	80.010	19.993	103.097	20.109	-14.824	0.498
1272.000	720.211	80.007	19.994	103.095	20.113	-15.178	0.519
1280.000	724.266	80.006	19.994	103.087	20.117	-15.513	0.481
1287.999	728.355	80.007	19.995	103.086	20.115	-15.291	0.523
1295.999	732.351	80.006	19.996	103.092	20.119	-15.642	0.492
1304.000	736.292	80.006	19.996	103.091	20.118	-15.554	0.499
1312.000	740.319	80.007	19.996	103.092	20.119	-15.644	0.491
1318.499	743.661	80.009	19.994	103.082	20.118	-15.548	0.514