Folder: fsri_materials_database/01_Data/Tyvek_Wrap/Cone (part 2)

File: Tyvek_Cone_HF75Scan_220308_R1.csv
Names,Time,Stack TC,Smoke TC,Exh Press,Smoke Comp,Smoke Meas,CO Meter,CO2 Meter,O2 Meter,Sample Mass,Ext Coeff,Start Test,Flame Verif
Chan Gain,,500,500,1,1,1,1,1,1,1,1,1.0,1.0
Offset,,0,0,0.134161,0,0,0,0,0,0,0,0.0,0.0
Gain,,1,1,25.011,15.9695,16.7489,1,1,1,1.00099,1.01863,1.0,1.0
Units,sec,C,C,Pa,%,%,%,%,%,g,/m,,
Baseline,,39.1041,41.2164,144.295,120.134,116.603,0.00100108,0.0603572,20.9974,-836.097,0.266605,,
9,2,38.7949,40.7518,142.885,119.161,116.276,0.00107331,0.067149,20.9883,176.455,0.218953,0.0,0.0
18,4.25,38.6581,40.7581,143.739,119.164,115.364,0.00118076,0.0663432,20.9888,176.515,0.289598,0.0,0.0
27,6.5,39.1482,40.7843,141.462,119.174,112.914,0.00147634,0.0652032,20.989,176.475,0.482165,0.0,0.0
36,8.75,38.3367,40.8186,139.836,119.173,111.547,0.00190617,0.0642872,20.988,176.445,0.590871,0.0,0.0
45,11,38.9227,40.7736,146.243,119.212,112.879,0.00217082,0.0652804,20.983,176.415,0.487729,0.0,0.0
54,13.25,38.5175,40.993,136.095,119.225,114.326,0.00218102,0.0726767,20.9722,176.425,0.374859,0.0,1.0
63,15.5,39.096,41.097,139.91,119.253,112.497,0.00215103,0.0857548,20.9535,176.195,0.52115,0.0,1.0
72,17.75,38.9909,40.9213,138.846,119.266,110.78,0.0022235,0.105151,20.9095,176.365,0.659515,0.0,1.0
81,20,39.477,41.4498,136.686,119.296,108.548,0.00234067,0.133749,20.8664,176.305,0.8437,0.0,0.0
90,22.25,39.7343,41.6674,137.769,119.291,110.302,0.00255462,0.151917,20.8457,176.295,0.699973,0.0,0.0
99,24.5,40.5834,43.1027,139.79,119.338,112.896,0.00250156,0.150527,20.849,176.225,0.49581,0.0,0.0
108,26.75,40.6177,42.9848,142.507,119.358,113.746,0.00224733,0.137613,20.8745,176.235,0.430322,0.0,0.0
117,29,41.3373,43.4437,141.903,119.374,114.394,0.00186903,0.12286,20.8995,176.215,0.380753,0.0,0.0
126,31.25,41.3759,43.6857,137.282,119.383,115.724,0.00153147,0.110527,20.9203,176.175,0.278163,0.0,0.0
135,33.5,41.4115,43.7925,142.323,119.4,115.284,0.00144249,0.101391,20.9343,176.145,0.313449,0.0,0.0
144,35.75,41.3666,44.2258,142.22,119.441,115.696,0.00157557,0.095275,20.9426,176.155,0.284635,0.0,0.0
153,38,41.2841,43.8807,143.614,119.447,115.566,0.00163066,0.0913002,20.9479,176.135,0.295145,0.0,0.0
162,40.25,41.4719,43.9568,147.51,119.467,116.187,0.00150992,0.088814,20.9517,176.135,0.248789,0.0,0.0
171,42.5,41.4748,44.0086,145.079,119.506,115.76,0.0012942,0.0870609,20.9545,176.115,0.284586,0.0,0.0
180,44.75,41.6592,43.9537,142.464,119.512,115.924,0.00118081,0.0851955,20.957,176.155,0.272407,0.0,0.0
189,47,41.7528,43.7456,144.577,119.5,115.253,0.00126441,0.0837028,20.9586,176.125,0.32334,0.0,0.0
198,49.25,42.0611,43.6808,143.697,119.523,115.651,0.00137398,0.0824007,20.9611,176.105,0.294232,0.0,0.0
207,51.5,41.7875,44.1931,142.405,119.561,115.546,0.0013669,0.0805997,20.9643,176.065,0.305253,0.0,0.0
216,53.75,42.0252,43.8202,145.616,119.576,115.936,0.00128323,0.0785371,20.9691,176.055,0.276272,0.0,0.0
225,56,41.3078,44.4462,140.337,119.589,115.595,0.00130821,0.0764688,20.9732,176.065,0.303494,0.0,0.0
234,58.25,41.8139,44.0517,140.899,119.623,115.66,0.0013784,0.0750574,20.975,176.035,0.301027,0.0,0.0
243,60.5,41.6476,44.1945,141.839,119.637,115.352,0.0014311,0.0737362,20.977,176.055,0.325889,0.0,0.0
252,62.75,41.7584,43.9369,142.287,119.652,115.839,0.00143274,0.0725153,20.9778,176.045,0.289324,0.0,0.0
261,65,41.3427,43.7085,142.035,119.652,115.718,0.0012713,0.0719095,20.9781,176.055,0.29871,0.0,0.0
270,67.25,41.4663,43.923,141.834,119.684,115.879,0.00106243,0.0720472,20.9785,176.015,0.288691,0.0,0.0
279,69.5,41.5342,44.0264,141.635,119.672,116.094,0.0010242,0.0721968,20.9793,176.015,0.271239,0.0,0.0
288,71.75,41.5707,43.705,145.544,119.677,116.085,0.00113209,0.0719808,20.9799,176.005,0.272276,0.0,0.0
297,74,41.6078,44.4249,139.986,119.696,115.517,0.00131335,0.07137,20.9813,175.995,0.317474,0.0,0.0
306,76.25,41.3559,43.7445,140.459,119.717,115.567,0.00154938,0.0705664,20.9829,175.985,0.315315,0.0,0.0
315,78.5,41.7359,43.7585,140.018,119.676,116.312,0.0017467,0.0697582,20.9839,175.995,0.254788,0.0,0.0
324,80.75,41.5669,43.8913,141.874,119.678,115.836,0.00181949,0.0688608,20.9857,175.995,0.291526,0.0,0.0
333,83,41.256,44.068,139.507,119.689,115.119,0.00180661,0.0686987,20.9864,175.965,0.347853,0.0,0.0
342,85.25,41.5792,44.0907,143.404,119.698,115.755,0.00175642,0.0683023,20.9866,175.975,0.299329,0.0,0.0
351,87.5,40.9422,43.7303,140.651,119.673,115.64,0.00169469,0.0680404,20.9869,175.945,0.30628,0.0,0.0
360,89.75,40.1666,43.5132,142.219,119.691,115.837,0.00163565,0.0673216,20.988,175.965,0.292469,0.0,0.0
369,92,41.0652,43.2947,143.043,119.672,115.43,0.00154748,0.0665803,20.9893,175.945,0.322493,0.0,0.0
378,94.25,40.2424,42.6301,140.873,119.65,115.41,0.00140624,0.0662284,20.9898,175.925,0.322399,0.0,0.0
387,96.5,40.812,42.886,142.216,119.641,115.79,0.00142672,0.0660408,20.9914,175.935,0.292385,0.0,0.0
396,98.75,40.8374,42.996,142.046,119.634,114.722,0.00154529,0.06504,20.9921,175.925,0.374623,0.0,0.0
405,101,40.783,43.2208,142.432,119.627,114.676,0.0015226,0.0636469,20.9947,175.945,0.377734,0.0,0.0
414,103.25,40.6299,43.2479,144.522,119.607,116.136,0.00150948,0.0623997,20.9962,175.925,0.263098,0.0,0.0
423,105.5,40.338,42.9462,142.698,119.577,115.746,0.00156715,0.0614973,20.9967,175.915,0.290933,0.0,0.0
432,107.75,40.2245,42.4467,144.306,119.565,114.924,0.00166404,0.0609955,20.997,175.905,0.353775,0.0,0.0
441,110,40.8969,42.8891,143.307,119.552,115.703,0.00172089,0.0607042,20.997,175.915,0.292394,0.0,0.0
450,112.25,39.9682,42.7331,143.344,119.517,115.422,0.00162492,0.0604711,20.9971,175.905,0.311508,0.0,0.0
459,114.5,39.9737,42.4044,141.662,119.498,115.571,0.00144397,0.0603469,20.9975,175.905,0.29854,0.0,0.0
468,116.75,40.0282,42.6029,141.766,119.488,116.469,0.00133872,0.0602844,20.9979,175.885,0.228685,0.0,0.0
477,119,39.8886,42.2769,141.376,119.46,115.365,0.00136551,0.0602332,20.998,175.895,0.311713,0.0,0.0
486,121.25,40.2778,42.4909,141.633,119.411,115.59,0.00143495,0.0601714,20.998,175.885,0.290665,0.0,0.0
495,123.5,40.1176,42.1118,145.915,119.399,114.521,0.0013795,0.0601498,20.998,175.895,0.372757,0.0,0.0
504,125.75,40.6059,42.3623,144.015,119.358,115.06,0.00129576,0.0601073,20.9981,175.885,0.327641,0.0,0.0
513,128,40.0164,42.5628,144.175,119.321,115.866,0.0013027,0.0598771,20.9981,175.885,0.262528,0.0,0.0
522,130.25,40.4906,42.4834,138.291,119.299,115.562,0.00134078,0.0596889,20.9987,175.885,0.284368,0.0,0.0
531,132.5,40.8083,42.6431,140.752,119.294,115.783,0.00135512,0.0598337,20.9992,175.875,0.266909,0.0,0.0
540,134.75,40.0689,42.2275,140.613,119.238,115.477,0.00128191,0.0598481,20.9994,175.855,0.286445,0.0,0.0
549,137,39.9914,42.7489,141.969,119.198,114.899,0.00122751,0.0598631,20.9983,175.855,0.328215,0.0,0.0
558,139.25,39.8652,42.9826,142.899,119.172,116.338,0.00124821,0.0599211,20.9978,175.835,0.215082,0.0,0.0
567,141.5,40.3468,42.4068,143.038,119.141,115.371,0.00122388,0.0598665,20.9976,175.825,0.287326,0.0,0.0
576,143.75,40.2319,42.3887,143.445,119.103,114.807,0.00133137,0.0597084,20.9975,175.825,0.328247,0.0,0.0
585,146,40.1677,42.1358,144.216,119.061,115.778,0.00136711,0.0597065,20.9974,175.835,0.249838,0.0,0.0
594,148.25,40.2196,42.3407,142.299,119.05,114.814,0.00127379,0.0597352,20.9985,175.825,0.323706,0.0,0.0
603,150.5,39.9752,42.5085,143.173,118.987,115.42,0.00127328,0.059849,20.9993,175.805,0.27197,0.0,0.0
612,152.75,40.6655,42.1692,137.687,118.967,115.576,0.00127288,0.0600255,20.9985,175.815,0.258411,0.0,0.0
621,155,39.4787,42.1548,141.945,118.935,115.511,0.00134735,0.0602667,20.9978,175.815,0.260976,0.0,0.0
630,157.25,39.9345,42.1573,141.455,118.921,115.215,0.00143684,0.060326,20.9976,175.825,0.282875,0.0,0.0
639,159.5,39.6905,41.7182,144.953,118.899,114.6,0.00148821,0.0603676,20.9975,175.795,0.329043,0.0,0.0
648,161.75,39.9197,42.7265,138.661,118.853,114.636,0.00148389,0.0603093,20.9977,175.795,0.32277,0.0,0.0
657,164,40.1571,42.2991,144.203,118.847,114.431,0.00134533,0.0602917,20.998,175.805,0.338324,0.0,0.0
666,166.25,40.269,42.5535,140.043,118.835,113.716,0.00118637,0.0604718,20.9982,175.785,0.393458,0.0,0.0
675,168.5,40.5036,42.0862,140.468,118.811,115.056,0.00115643,0.0604563,20.9982,175.785,0.28693,0.0,0.0
684,170.75,40.0207,42.3444,144.03,118.803,115.101,0.00120363,0.0603773,20.9983,175.775,0.282854,0.0,0.0
693,173,40.2267,42.8456,141.791,118.795,114.459,0.00126252,0.0603245,20.9983,175.775,0.332242,0.0,0.0
702,175.25,39.9191,42.8047,142.014,118.759,114.244,0.0012518,0.0604629,20.9983,175.755,0.346347,0.0,0.0
711,177.5,40.3566,42.3765,142.877,118.749,114.742,0.00117857,0.0606441,20.9983,175.755,0.30672,0.0,0.0
720,179.75,40.5092,43.1305,141.497,118.75,114.404,0.00106382,0.0605784,20.9983,175.735,0.333105,0.0,0.0
729,182,39.8709,42.021,140.4,118.747,115.636,0.000981373,0.060524,20.9983,175.755,0.23719,0.0,0.0
738,184.25,40.7032,42.6764,141.755,118.729,114.783,0.0010047,0.0603954,20.9986,175.735,0.301995,0.0,0.0
747,186.5,40.1238,43.1649,139.432,118.74,115.151,0.00106769,0.0603917,20.9983,175.725,0.274197,0.0,0.0
756,188.75,40.1789,43.0148,137.87,118.744,114.323,0.00103435,0.0604539,20.9975,175.735,0.339052,0.0,0.0
765,191,40.4359,42.53,140.453,118.743,114.455,0.000945298,0.0605077,20.9972,175.735,0.328601,0.0,0.0
774,193.25,40.2612,42.568,142.319,118.733,114.462,0.000927195,0.0606356,20.9971,175.715,0.327312,0.0,0.0
783,195.5,40.3317,43.1316,143.431,118.768,114.776,,0.0605287,,175.725,0.305523,0.0,0.0
792,197.75,40.8284,42.6023,142.322,118.764,114.491,,,,175.745,0.327424,0.0,0.0
801,200,40.3041,42.7342,143.571,118.76,114.647,,,,175.725,0.314933,0.0,0.0
810,202.25,39.9464,42.1535,140.705,118.76,114.499,,,,175.695,0.326453,0.0,0.0
819,204.5,40.3626,42.6812,141.8,118.78,114.709,,,,175.715,0.311577,0.0,0.0

File: Tyvek_Cone_HF75Scan_220308_R3.csv
Names,Time,Stack TC,Smoke TC,Exh Press,Smoke Comp,Smoke Meas,CO Meter,CO2 Meter,O2 Meter,Sample Mass,Ext Coeff,Start Test,Flame Verif
Chan Gain,,500,500,1,1,1,1,1,1,1,1,1.0,1.0
Offset,,0,0,0.134161,0,0,0,0,0,0,0,0.0,0.0
Gain,,1,1,25.011,15.9695,16.7489,1,1,1,1.00099,1.01863,1.0,1.0
Units,sec,C,C,Pa,%,%,%,%,%,g,/m,,
Baseline,,42.1898,44.2505,141.481,119.428,115.38,0.000820012,0.0586784,20.9997,-836.772,0.308129,,
6,1.25,41.7234,43.2478,142.713,119.402,116.24,0.00081214,0.0588814,21.0025,180.84,0.239853,0.0,0.0
12,2.75,41.4295,43.7579,141.901,119.421,114.561,0.000912085,0.0589653,21.0017,180.97,0.371288,0.0,0.0
18,4.25,41.2254,43.8692,138.434,119.454,114.466,0.00110816,0.0592583,20.9995,181.02,0.38115,0.0,0.0
24,5.75,41.3731,42.978,143.217,119.458,114.612,0.00135474,0.0606084,20.9947,180.98,0.369997,0.0,0.0
30,7.25,41.5454,43.1189,143.386,119.49,114.168,0.00159161,0.0635495,20.9889,180.96,0.407134,0.0,1.0
36,8.75,41.5129,43.4832,141.122,119.508,115.154,0.0018126,0.0694463,20.9803,180.97,0.331647,0.0,1.0
42,10.25,41.5051,44.1988,136.028,119.547,112.664,0.00202594,0.0789081,20.9684,180.96,0.529872,0.0,1.0
48,11.75,41.7445,43.9195,142.362,119.553,112.247,0.00225101,0.0912521,20.9486,180.92,0.563413,0.0,1.0
54,13.25,41.4592,43.4557,138.371,119.601,113.285,0.00233619,0.101214,20.9323,180.88,0.484764,0.0,0.0
60,14.75,42.2516,43.8726,138.374,119.595,115.08,0.0023007,0.106999,20.9236,180.86,0.343807,0.0,0.0
66,16.25,41.7498,44.2382,146.637,119.624,114.228,0.0021963,0.105881,20.927,180.85,0.412473,0.0,0.0
72,17.75,42.1914,44.5504,140.3,119.638,114.742,0.00211276,0.100766,20.9362,180.82,0.373358,0.0,0.0
78,19.25,42.2349,43.9758,138.195,119.67,114.571,0.00200908,0.0943429,20.9487,180.83,0.389069,0.0,0.0
84,20.75,42.1953,43.8283,138.415,119.671,114.076,0.0018942,0.0876074,20.959,180.84,0.427889,0.0,0.0
90,22.25,42.7009,44.875,137.261,119.712,115.236,0.00181969,0.0826693,20.966,180.84,0.340521,0.0,0.0
96,23.75,42.1437,44.6492,137.312,119.715,114.803,0.00182484,0.0783807,20.9724,180.86,0.374333,0.0,0.0
102,25.25,42.349,44.8665,140.149,119.745,115.691,0.00189666,0.0753861,20.9769,180.73,0.307754,0.0,0.0
108,26.75,41.8459,44.3116,141.623,119.752,115.365,0.00198182,0.0732716,20.9801,180.78,0.333522,0.0,0.0
114,28.25,42.1118,44.2505,141.782,119.767,114.974,0.00204678,0.0720888,20.982,180.78,0.364947,0.0,0.0
120,29.75,41.6379,44.1411,141.055,119.795,114.482,0.00203102,0.0716632,20.9829,180.79,0.405315,0.0,0.0
126,31.25,42.1559,44.311,139.798,119.803,115.639,0.00201304,0.0717352,20.9825,180.81,0.316108,0.0,0.0
132,32.75,42.1094,44.5212,139.048,119.84,114.537,0.00198475,0.0720622,20.9822,180.79,0.404467,0.0,0.0
138,34.25,41.7154,44.5687,138.734,119.854,115.323,0.00197584,0.0723576,20.9806,180.78,0.344402,0.0,0.0
144,35.75,42.3715,44.2724,141.261,119.883,114.835,0.00197887,0.0726599,20.9786,180.75,0.384407,0.0,0.0
150,37.25,42.2591,44.1543,139.781,119.883,115.19,0.00195421,0.0728009,20.9776,180.75,0.356772,0.0,0.0
156,38.75,41.9097,44.4688,138.867,119.92,115.746,0.00185939,0.0730098,20.9771,180.74,0.316573,0.0,0.0
162,40.25,41.9179,44.0169,144.027,119.931,115.125,0.00172559,0.072936,20.9779,180.74,0.36548,0.0,0.0
168,41.75,41.9896,44.2429,141.877,119.965,115.204,0.00165495,0.072703,20.9775,180.73,0.361802,0.0,0.0
174,43.25,41.5181,44.4431,139.26,119.963,115.102,0.00168361,0.0727394,20.9771,180.73,0.369626,0.0,0.0
180,44.75,42.366,44.3219,139.322,120.013,114.82,0.00177718,0.0726995,20.9768,180.73,0.395293,0.0,0.0
186,46.25,42.0419,45.2534,138.265,120.002,115.232,0.00184449,0.0726732,20.9766,180.73,0.362417,0.0,0.0
192,47.75,42.0444,44.7293,138.226,120.024,116.082,0.0018327,0.0727091,20.9766,180.689,0.298418,0.0,0.0
198,49.25,42.6688,44.326,141.932,120.042,115.555,0.00174394,0.072752,20.9765,180.71,0.340341,0.0,0.0
204,50.75,42.0481,44.4022,143.609,120.076,115.349,0.00161883,0.0727819,20.9765,180.7,0.358898,0.0,0.0
210,52.25,42.2051,44.8125,135.455,120.089,115.78,0.00155086,0.0727147,20.9765,180.669,0.326486,0.0,0.0
216,53.75,42.0373,45.2175,142.148,120.117,115.79,0.00157452,0.0725283,20.9774,180.689,0.327803,0.0,0.0
222,55.25,42.696,44.8813,139.127,120.114,116.717,0.00164237,0.0722406,20.978,180.669,0.256355,0.0,0.0
228,56.75,42.0899,44.3386,138.562,120.129,115.767,0.00167742,0.0719619,20.9786,180.68,0.330482,0.0,0.0
234,58.25,42.4804,43.7693,138.459,120.143,115.47,0.0016769,0.0718726,20.9793,180.659,0.354483,0.0,0.0
240,59.75,42.3222,44.6862,138.51,120.157,115.37,0.00164781,0.0718015,20.9797,180.659,0.363253,0.0,0.0
246,61.25,42.5674,44.5378,137.905,120.168,114.709,0.0016298,0.0716797,20.9803,180.659,0.415461,0.0,0.0
252,62.75,41.8077,44.0932,138.601,120.173,116.485,0.00164027,0.0715726,20.9812,180.649,0.278528,0.0,0.0
258,64.25,42.7459,44.9252,141.346,120.194,115.994,0.00167764,0.0714049,20.9817,180.619,0.317802,0.0,0.0
264,65.75,42.5427,44.5858,137.69,120.225,116.462,0.00174287,0.0711992,20.9816,180.609,0.284165,0.0,0.0
270,67.25,42.5498,44.5632,139.249,120.223,115.332,0.00178509,0.071129,20.9809,180.619,0.37115,0.0,0.0
276,68.75,42.6626,44.9473,141.4,120.241,116.07,0.00176806,0.0711925,20.9805,180.639,0.315491,0.0,0.0
282,70.25,43.0771,45.0838,138.988,120.255,115.23,0.001718,0.0712804,20.9803,180.639,0.381353,0.0,0.0
288,71.75,42.7172,44.9321,138.485,120.238,115.593,0.0016995,0.071282,20.9802,180.599,0.352099,0.0,0.0
294,73.25,41.5212,45.0159,138.29,120.251,115.228,0.00174256,0.0712739,20.9801,180.609,0.381258,0.0,0.0
300,74.75,42.8561,45.0782,136.316,120.249,116.027,0.00183701,0.0712254,20.9801,180.609,0.319378,0.0,0.0
306,76.25,42.694,44.8139,137.407,120.27,115.675,0.00193538,0.0711282,20.9801,180.609,0.348059,0.0,0.0
312,77.75,42.6479,45.0959,140.991,120.255,115.986,0.00196168,0.0709834,20.981,180.579,0.322923,0.0,0.0
318,79.25,42.6841,45.0311,141.956,120.262,115.847,0.00193932,0.0706046,20.9817,180.599,0.334223,0.0,0.0
324,80.75,43.0464,44.7402,140.646,120.268,116.584,0.00187836,0.0701821,20.9828,180.599,0.278024,0.0,0.0
330,82.25,42.7023,45.0744,140.375,120.283,115.67,0.00184695,0.0698479,20.9846,180.609,0.349431,0.0,0.0
336,83.75,42.5085,45.1214,140.501,120.262,116.737,0.0018196,0.0694891,20.9861,180.599,0.265808,0.0,0.0
342,85.25,42.6325,45.1353,142.169,120.274,116.693,0.00175245,0.0690102,20.987,180.579,0.270081,0.0,0.0
348,86.75,42.665,45.0091,140.587,120.257,116.087,0.00169805,0.068467,20.9885,180.579,0.315347,0.0,0.0
354,88.25,42.8621,45.0694,136.857,120.276,116.026,0.00170493,0.0678802,20.9893,180.609,0.321482,0.0,0.0
360,89.75,42.8746,45.4171,141,120.262,115.354,0.00173571,0.0667625,20.9913,180.589,0.372269,0.0,0.0
366,91.25,42.4351,45.0169,144.337,120.28,115.305,0.00173253,0.0650815,20.9931,180.579,0.377487,0.0,0.0
372,92.75,42.357,44.9397,138.571,120.252,115.301,0.00167681,0.0636182,20.9946,180.559,0.375628,0.0,0.0
378,94.25,42.8521,44.8429,145.344,120.259,115.825,0.00166314,0.0623483,20.9957,180.569,0.335737,0.0,0.0
384,95.75,42.5792,44.7232,140.052,120.244,115.987,0.00175447,0.0615232,20.9971,180.549,0.322124,0.0,0.0
390,97.25,42.6916,44.4096,139.221,120.248,115.851,0.00190387,0.0610197,20.9978,180.539,0.332818,0.0,0.0
396,98.75,42.3968,44.7532,142.211,120.238,115.706,0.00204611,0.0607304,20.9982,180.529,0.343297,0.0,0.0
402,100.25,42.7028,44.8866,144.052,120.235,115.121,0.00213158,0.0606817,20.9984,180.529,0.38839,0.0,0.0
408,101.75,42.8736,44.8777,141.713,120.247,115.087,0.00214311,0.0606649,20.9985,180.519,0.391918,0.0,0.0
414,103.25,42.2912,44.7918,137.112,120.22,114.797,0.00210242,0.0605537,20.9981,180.509,0.412492,0.0,0.0
420,104.75,42.7679,44.5496,142.04,120.24,115.543,0.00205946,0.0604143,20.9976,180.519,0.356042,0.0,0.0
426,106.25,42.6154,44.2296,136.996,120.228,115.885,0.0020344,0.0601653,20.9973,180.529,0.328731,0.0,0.0
432,107.75,42.2317,44.771,142.29,120.223,115.22,0.00200405,0.0599852,20.9972,180.529,0.379751,0.0,0.0
438,109.25,43.0788,44.6065,144.093,120.212,116.572,0.00192086,0.0597656,20.9982,180.519,0.274723,0.0,0.0
444,110.75,42.8849,45.1071,138.575,120.215,115.261,0.00178692,0.0595902,20.9987,180.529,0.376041,0.0,0.0
450,112.25,42.4824,44.6355,138.121,120.193,115.312,0.0016506,0.0594027,20.999,180.509,0.37041,0.0,0.0
456,113.75,42.5292,44.8157,143.349,120.192,115.614,0.00156525,0.0592761,20.9992,180.529,0.346999,0.0,0.0
462,115.25,42.0093,45.1766,143.135,120.164,116.485,0.00160797,0.0591341,20.9981,180.509,0.277911,0.0,0.0
468,116.75,41.7585,44.8921,142.814,120.174,115.932,0.00171654,0.0591101,20.9984,180.479,0.321045,0.0,0.0
474,118.25,42.4624,44.8604,144.125,120.16,116.217,0.00175994,0.0592803,20.9988,180.509,0.298151,0.0,0.0
480,119.75,41.9701,44.5395,139.601,120.16,116.347,0.0016447,0.0592342,20.9991,180.489,0.288102,0.0,0.0
486,121.25,42.6968,45.0186,138.502,120.133,116.542,0.00148603,0.059128,20.9992,180.489,0.271126,0.0,0.0
492,122.75,42.9223,44.8744,140.01,120.119,115.294,0.00137487,0.0591369,20.9988,180.479,0.366327,0.0,0.0
498,124.25,41.8902,44.2395,141.365,120.099,115.922,0.00137593,0.0591618,20.9983,180.489,0.31629,0.0,0.0
504,125.75,42.1934,44.9094,138.429,120.106,115.668,0.00142698,0.0591499,20.9981,180.469,0.336435,0.0,0.0
510,127.25,42.5815,44.9526,142.415,120.058,115.866,0.00155461,0.0591683,20.9979,180.479,0.31754,0.0,0.0
516,128.75,41.8524,44.4436,141.338,120.073,115.539,0.00163738,0.0591091,20.9984,180.449,0.343964,0.0,0.0
522,130.25,41.9337,44.6642,139.507,120.028,115.114,0.00164787,0.0591197,20.9986,180.449,0.373499,0.0,0.0
528,131.75,42.0244,45.0641,138.774,120.001,116.407,0.00160403,0.0591202,20.9993,180.439,0.271686,0.0,0.0
534,133.25,42.9119,44.4842,139.701,119.984,115.414,0.0015436,0.0590851,20.9994,180.479,0.346978,0.0,0.0
540,134.75,42.1259,45.0645,142.688,119.946,115.936,,0.0591429,,180.449,0.303834,0.0,0.0
546,136.25,42.4325,44.5664,140.994,119.926,115.778,,0.0592104,,180.439,0.314487,0.0,0.0
552,137.75,42.2685,44.6475,140.033,119.888,115.5,,,,180.459,0.333179,0.0,0.0
558,139.25,41.7846,44.9005,142.19,119.851,115.296,,,,180.449,0.346207,0.0,0.0
564,140.75,42.7801,44.1419,140.655,119.817,115.81,,,,180.479,0.303941,0.0,0.0
570,142.25,42.6793,44.8662,141.387,119.791,115.769,,,,180.449,0.30517,0.0,0.0
576,143.75,42.4289,44.4397,142.865,119.748,115.613,,,,180.479,0.314051,0.0,0.0
579,144.5,42.2096,44.4181,137.547,119.728,116.072,,,,180.439,0.277115,0.0,0.0

File: Tyvek_Wrap_Cone_HF25Scalar_220401_R1.csv
LABORATORY,FSRI
TEST IDENT,Tyvek_HF25_1
OPERATOR,Dow
MATERIAL,Tyvek
ORIENTATION,Horizontal
HEAT FLUX,25
SURF AREA,0.00884
C FACTOR,0.0397155
SPEC HOLDER DIFF,-566
SPECIMEN MASS,0.67
SCAN TIME,0.25
O2 DELAY TIME,11
CO DELAY TIME,11
CO2 DELAY TIME,8
FLOW FACTOR,1
SCAN COUNT,2884
TIME TO IGN,0
END OF TEST SCAN,2404
END OF TEST TIME,601
TEST STATUS,1
PRE TEST CMT,Dimensions: 101.07 x 101.30 x 0.12 mm; with frame; with calcium silicate substrate
POST TEST CMT,The sample shriveled and did not ignite.