Folder: fsri_materials_database/01_Data/Tyvek_Wrap/Cone (part 4)

File: Tyvek_Wrap_Cone_HF75Scan_220308_R2.csv
Names,Time,Stack TC,Smoke TC,Exh Press,Smoke Comp,Smoke Meas,CO Meter,CO2 Meter,O2 Meter,Sample Mass,Ext Coeff,Start Test,Flame Verif
Chan Gain,,500,500,1,1,1,1,1,1,1,1,1.0,1.0
Offset,,0,0,0.134161,0,0,0,0,0,0,0,0.0,0.0
Gain,,1,1,25.011,15.9695,16.7489,1,1,1,1.00099,1.01863,1.0,1.0
Units,sec,C,C,Pa,%,%,%,%,%,g,/m,,
Baseline,,41.2646,43.333,142.296,119.98,116.218,0.000822973,0.059162,20.9979,-836.488,0.284701,,
9,2,40.5828,42.7953,140.959,119.59,116.195,0.000835135,0.065414,20.9915,194.133,0.257302,0.0,0.0
18,4.25,40.2927,42.4579,141.432,119.55,115.481,0.00103119,0.0665219,20.9912,194.103,0.309471,0.0,0.0
27,6.5,40.625,43.007,139.585,119.489,113.139,0.00148787,0.0675244,20.9886,194.103,0.487959,0.0,0.0
36,8.75,40.2812,41.9304,140.145,119.489,112.533,0.00188402,0.0680749,20.9852,194.073,0.535884,0.0,0.0
45,11,40.7065,42.5159,136.939,119.501,114.271,0.00196937,0.0728438,20.9714,194.123,0.399863,0.0,1.0
54,13.25,40.8722,42.8271,139.455,119.509,114.304,0.0017126,0.0857141,20.9524,194.083,0.397921,0.0,1.0
63,15.5,40.5253,42.3979,143.593,119.544,113.215,0.00157916,0.101287,20.9291,194.023,0.48606,0.0,0.0
72,17.75,41.2568,43.3085,137.181,119.544,112.015,0.00147725,0.113912,20.9067,194.003,0.581212,0.0,0.0
81,20,41.5293,43.7974,139.021,119.579,112.947,0.0014734,0.119562,20.9004,193.983,0.509813,0.0,0.0
90,22.25,42.139,43.6473,140.754,119.612,115.358,0.00155077,0.114322,20.9125,193.963,0.323517,0.0,0.0
99,24.5,42.3715,43.8156,141.069,119.631,115.746,0.00160085,0.103448,20.9306,193.943,0.294937,0.0,0.0
108,26.75,42.0013,44.2789,141.923,119.644,115.102,0.00153892,0.09318,20.947,193.923,0.345817,0.0,0.0
117,29,41.9167,44.3829,141.065,119.684,115.635,0.0014029,0.0865063,20.9588,193.913,0.307511,0.0,0.0
126,31.25,42.2414,44.1608,145.385,119.713,115.672,0.00133722,0.0818486,20.9668,193.943,0.306775,0.0,0.0
135,33.5,42.0619,44.3172,140.588,119.742,115.513,0.0013495,0.0793287,20.9712,193.933,0.321321,0.0,0.0
144,35.75,41.9693,44.0956,140.687,119.75,115.382,0.00125416,0.0778435,20.9732,193.893,0.33203,0.0,0.0
153,38,42.0746,44.266,140.449,119.794,115.049,0.00104852,0.0768107,20.974,193.893,0.361185,0.0,0.0
162,40.25,41.9155,44.5094,138.612,119.824,115.576,0.00111543,0.0769592,20.9738,193.873,0.322527,0.0,0.0
171,42.5,41.9751,44.3151,139.075,119.827,114.889,0.00133724,0.0772279,20.9733,193.853,0.376054,0.0,0.0
180,44.75,42.4593,44.6782,141.153,119.853,115.812,0.00138083,0.0770209,20.974,193.863,0.306433,0.0,0.0
189,47,41.7181,43.9778,141.486,119.9,115.351,0.00133409,0.0770105,20.9743,193.843,0.345602,0.0,0.0
198,49.25,42.3446,44.9599,138.327,119.944,116.061,0.00133823,0.0776964,20.9727,193.843,0.29404,0.0,0.0
207,51.5,41.9304,44.8263,138.656,119.942,115.674,0.00139152,0.0787982,20.9718,193.843,0.323733,0.0,0.0
216,53.75,42.3611,44.3041,140.799,119.976,115.887,0.0014702,0.0795154,20.9714,193.823,0.309828,0.0,0.0
225,56,42.2045,44.6688,141.086,120.017,115.157,0.00151988,0.0793318,20.9712,193.823,0.369373,0.0,0.0
234,58.25,41.5281,45.4553,139.27,120.042,115.465,0.00151428,0.0782947,20.9723,193.803,0.347375,0.0,0.0
243,60.5,42.1492,45.1907,141.942,120.071,115.391,0.00150985,0.0763332,20.9743,193.793,0.35529,0.0,0.0
252,62.75,42.0233,44.7654,141.883,120.099,116.527,0.00151297,0.0744459,20.9769,193.803,0.2698,0.0,0.0
261,65,42.7036,44.2439,140.974,120.12,116.996,0.00154028,0.0727805,20.9789,193.762,0.23549,0.0,0.0
270,67.25,42.8113,44.0352,141.036,120.14,115.078,0.00163342,0.071787,20.9796,193.773,0.384658,0.0,0.0
279,69.5,42.192,44.8151,137.041,120.192,116.293,0.00168202,0.070828,20.981,193.783,0.294617,0.0,0.0
288,71.75,42.8532,44.2864,140.512,120.216,116.052,0.00170078,0.0702462,20.9826,193.752,0.314987,0.0,0.0
297,74,42.5911,44.5738,137.589,120.241,116.038,0.00173168,0.0706472,20.9829,193.773,0.317969,0.0,0.0
306,76.25,42.3732,44.5251,138.468,120.25,116.123,0.00177517,0.0722892,20.9816,193.773,0.312014,0.0,0.0
315,78.5,41.5919,45.5145,142.465,120.298,116.895,0.00174327,0.0738023,20.9792,193.742,0.256442,0.0,0.0
324,80.75,42.2655,44.7475,134.39,120.302,116.526,0.00168148,0.0748204,20.9781,193.752,0.284986,0.0,0.0
333,83,42.3219,44.5945,139.997,120.323,116.705,0.00163048,0.0750755,20.9782,193.702,0.272759,0.0,0.0
342,85.25,42.1496,45.0814,136.264,120.332,115.802,0.00156466,0.0747977,20.9792,193.722,0.342906,0.0,0.0
351,87.5,42.8559,44.3054,141.477,120.361,116.272,0.00154457,0.0742843,20.9795,193.712,0.30879,0.0,0.0
360,89.75,42.4831,44.84,141.565,120.37,116.159,0.00151362,0.0736569,20.9808,193.732,0.318163,0.0,0.0
369,92,42.909,44.4683,141.461,120.383,115.951,0.00158235,0.0728208,20.9816,193.692,0.335195,0.0,0.0
378,94.25,42.5737,45.0225,142.335,120.406,115.109,0.00176621,0.0706069,20.9841,193.672,0.402006,0.0,0.0
387,96.5,42.4001,44.4464,139.926,120.418,115.407,0.00200061,0.0672582,20.9879,193.712,0.379811,0.0,0.0
396,98.75,42.2358,44.1844,137.744,120.418,115.239,0.00214634,0.0640645,20.991,193.692,0.392801,0.0,0.0
405,101,41.9661,44.2193,138.191,120.419,115.847,0.00218399,0.061967,20.9936,193.672,0.345874,0.0,0.0
414,103.25,42.3167,44.5842,142.482,120.445,115.364,0.00217153,0.0608461,20.9951,193.652,0.385125,0.0,0.0
423,105.5,41.6543,43.7826,136.967,120.446,115.652,0.00217125,0.0602298,20.9957,193.672,0.362896,0.0,0.0
432,107.75,42.0405,44.1645,141.493,120.446,115.969,0.00224892,0.0599524,20.9963,193.642,0.338443,0.0,0.0
441,110,41.6132,44.3523,142.747,120.454,115.631,0.00236838,0.0598765,20.9967,193.612,0.365128,0.0,0.0
450,112.25,42.1191,43.6433,144.631,120.467,115.664,0.00243866,0.0599277,20.9968,193.632,0.363504,0.0,0.0
459,114.5,41.6466,43.7201,142.531,120.452,116.914,0.00235555,0.0599508,20.9969,193.632,0.266353,0.0,0.0
468,116.75,41.5968,43.9397,139.499,120.448,116.27,0.00218903,0.059817,20.9969,193.612,0.315422,0.0,0.0
477,119,41.9293,43.8902,140.413,120.464,115.264,0.00199555,0.0596927,20.998,193.632,0.394218,0.0,0.0
486,121.25,42.2423,43.7515,140.513,120.443,115.297,0.00171515,0.059656,20.9986,193.622,0.390165,0.0,0.0
495,123.5,42.1598,43.7403,139.531,120.429,116.059,0.00151572,0.0596378,21,193.592,0.330213,0.0,0.0
504,125.75,41.8214,43.7202,141.297,120.417,115.94,0.00152459,0.0595452,21.0002,193.602,0.338594,0.0,0.0
513,128,41.6221,43.7884,142.089,120.421,115.207,0.00159006,0.0594546,21.0003,193.602,0.395516,0.0,0.0
522,130.25,41.9634,44.4378,138.867,120.399,116.075,0.00161727,0.059364,21.0002,193.612,0.326862,0.0,0.0
531,132.5,41.3439,43.7809,140.826,120.377,115.893,0.00158304,0.0594056,21.0004,193.592,0.339178,0.0,0.0
540,134.75,42.0728,43.8658,136.622,120.375,116.231,0.00156011,0.0592566,21.0004,193.582,0.313057,0.0,0.0
549,137,41.9498,44.2402,139.846,120.357,117.096,0.00163529,0.0593319,21.0005,193.562,0.245441,0.0,0.0
558,139.25,41.3611,43.4996,144.782,120.318,116.136,0.00163199,0.0592294,21.0005,193.562,0.316096,0.0,0.0
567,141.5,41.1963,43.8628,145.305,120.321,115.715,0.00156398,0.059119,20.9991,193.562,0.348817,0.0,0.0
576,143.75,42.0075,43.8451,139.878,120.323,115.316,0.00146637,0.0592299,20.998,193.582,0.379764,0.0,0.0
585,146,42.0091,44.2341,143.066,120.321,116.784,0.00133831,0.0593026,20.9976,193.562,0.266629,0.0,0.0
594,148.25,41.9447,44.3079,141.929,120.293,115.966,0.001368,0.0592917,20.9975,193.562,0.32732,0.0,0.0
603,150.5,41.7964,43.952,139.997,120.296,116.711,0.00146034,0.0592878,20.9974,193.542,0.270338,0.0,0.0
612,152.75,41.8166,44.0672,142.411,120.258,117.278,0.00150272,0.0593795,20.9974,193.532,0.224257,0.0,0.0
621,155,42.2919,43.6408,138.733,120.231,116.187,0.00156999,0.0593676,20.9974,193.522,0.305762,0.0,0.0
630,157.25,41.9214,43.9848,140.233,120.2,116.185,0.00153463,0.0591615,20.9974,193.522,0.303598,0.0,0.0
639,159.5,41.6543,44.2748,137.85,120.198,116.566,0.00141901,0.0592203,20.9974,193.542,0.274143,0.0,0.0
648,161.75,42.0064,44.0786,140.131,120.14,115.582,0.00136197,0.0593665,20.9974,193.502,0.345535,0.0,0.0
657,164,41.8612,43.8178,142.529,120.102,116.003,0.00144018,0.0594213,20.9974,193.512,0.310319,0.0,0.0
666,166.25,41.5772,43.8431,139.394,120.088,115.699,0.00152941,0.0594434,20.9974,193.512,0.332684,0.0,0.0
675,168.5,41.5916,44.0386,138.072,120.053,116.158,0.00151537,0.0594074,20.9974,193.492,0.294698,0.0,0.0
684,170.75,42.0271,44.3901,141.638,120.011,116.402,0.00151384,0.0593635,20.9972,193.492,0.272842,0.0,0.0
693,173,41.7947,44.3807,140.806,119.981,115.569,0.00149822,0.0592264,20.9972,193.492,0.334739,0.0,0.0
702,175.25,41.661,43.9876,140.68,119.962,116.404,0.00149218,0.0592677,20.9976,193.472,0.26898,0.0,0.0
711,177.5,41.9936,43.3116,143.711,119.921,116.534,0.00141009,0.0592609,20.9978,193.482,0.256047,0.0,0.0
720,179.75,41.8385,44.0979,139.443,119.887,116.232,0.00123593,0.059333,20.997,193.482,0.276622,0.0,0.0
729,182,42.2113,44.4093,140.813,119.875,115.643,0.000996276,0.0593335,20.9972,193.482,0.321168,0.0,0.0
738,184.25,41.4135,43.9832,144.84,119.857,115.272,0.00090451,0.0592803,20.9973,193.482,0.348541,0.0,0.0
747,186.5,42.1445,43.6894,138.908,119.83,115.874,0.00096991,0.0591795,20.9973,193.492,0.299955,0.0,0.0
756,188.75,41.5779,43.7986,143.767,119.803,116.351,0.00113468,0.0592527,20.9977,193.472,0.261296,0.0,0.0
765,191,41.5536,44.109,137.411,119.79,116.443,0.00124659,0.0591969,20.9979,193.472,0.253252,0.0,0.0
774,193.25,41.8435,44.2054,140.75,119.786,115.632,0.00121681,0.0593472,20.9975,193.462,0.31535,0.0,0.0
783,195.5,42.2653,44.7481,136.567,119.759,115.892,0.0011163,0.0593014,20.9973,193.442,0.293268,0.0,0.0
792,197.75,41.5877,44.0109,143.763,119.761,115.957,0.00107708,0.0593893,20.998,193.442,0.28845,0.0,0.0
801,200,41.6641,44.2519,139.752,119.765,115.38,0.00117109,0.059173,20.9989,193.472,0.333316,0.0,0.0
810,202.25,41.9509,44.6094,138.098,119.737,115.821,0.00119274,0.0592821,20.9997,193.432,0.297151,0.0,0.0
819,204.5,41.5615,44.2371,142.837,119.736,115.514,,0.059329,,193.422,0.320806,0.0,0.0
828,206.75,41.4909,44.0286,141.116,119.732,116.643,,,,193.442,0.233563,0.0,0.0
837,209,41.8471,44.3871,137.113,119.718,115.928,,,,193.412,0.287451,0.0,0.0
846,211.25,42.2275,43.9639,142.306,119.716,115.913,,,,193.412,0.288455,0.0,0.0
855,213.5,41.8564,44.4617,144.399,119.734,116.458,,,,193.402,0.247893,0.0,0.0
858,214.25,41.6825,44.4595,139.743,119.769,115.744,,,,193.422,0.305392,0.0,0.0