Folder: fsri_materials_database/01_Data/Tyvek_Wrap/Cone

Note: 01_Data/README.md
# Materials and Products Database
## 01_Data

Raw data generated from each apparatus are included here in plain-text format. The data is organized first by material, next by the short name of test apparatus used, and where applicable additional filtering by test settings.

### material.json

Each material directory contains a json file of the same name as the material. This file links the data stored in the repository as well as data and graphs produced by the accompanying scripts (__02_Scripts__) to the respective landing page for the material on the front-end website.

File: Tyvek_Cone_HF25Scalar_220401_R2.csv
LABORATORY,FSRI
TEST IDENT,Tyvek_HF25_2
OPERATOR,Dow
MATERIAL,Tyvek
ORIENTATION,Horizontal
HEAT FLUX,25
SURF AREA,0.00884
C FACTOR,0.0397155
SPEC HOLDER DIFF,-566
SPECIMEN MASS,0.65
SCAN TIME,0.25
O2 DELAY TIME,11
CO DELAY TIME,11
CO2 DELAY TIME,8
FLOW FACTOR,1
SCAN COUNT,2886
TIME TO IGN,0
END OF TEST SCAN,2406
END OF TEST TIME,601.5
TEST STATUS,1
PRE TEST CMT,Dimensions: 101.98 x 101.58 x 0.11 mm; with frame; with calcium silicate substrate
POST TEST CMT,The sample shriveled and did not ignite. Ended test after 10 minutes.

File: Tyvek_Cone_HF25Scan_220401_R1.csv
Names,Time,Stack TC,Smoke TC,Exh Press,Smoke Comp,Smoke Meas,CO Meter,CO2 Meter,O2 Meter,Sample Mass,Ext Coeff,Start Test,Flame Verif
Chan Gain,,500,500,1,1,1,1,1,1,1,1,1.0,1.0
Offset,,0,0,0.133521,0,0,0,0,0,0,0,0.0,0.0
Gain,,1,1,25.011,13.1585,13.8929,1,1,1,1.00096,1.01488,1.0,1.0
Units,sec,C,C,Pa,%,%,%,%,%,g,/m,,
Baseline,,19.5801,20.3573,152.675,99.5743,98.6068,0.000787572,0.0685043,21.0166,-834.266,0.0869675,,
31,7.5,18.3592,18.7148,157.231,98.1475,96.5187,0.000605575,0.0671051,21.0227,185.409,0.14898,0.0,0.0
62,15.25,18.5813,19.6293,152.704,98.6648,96.8609,0.00100759,0.0672501,21.0234,185.429,0.164269,0.0,0.0
93,23,19.05,19.4737,154.216,99.0177,97.0212,0.000830338,0.0675872,21.0214,185.459,0.181343,0.0,0.0
124,30.75,18.6697,19.1072,151.978,99.0796,97.0212,0.000826046,0.0676937,21.0214,185.429,0.186901,0.0,0.0
155,38.5,19.2145,19.8689,154.857,99.0205,97.8042,0.000872502,0.0674207,21.0191,185.419,0.110029,0.0,0.0
186,46.25,18.8607,20.0299,150.111,98.8507,97.1144,0.000710731,0.0691925,21.015,185.419,0.157756,0.0,0.0
217,54,19.6427,20.3151,153.142,99.1021,97.0619,0.000574843,0.0705416,21.0138,185.399,0.185188,0.0,0.0
248,61.75,19.6912,19.6001,152.809,99.5703,97.4943,0.000770724,0.0695575,21.0159,185.399,0.187573,0.0,0.0
279,69.5,19.9147,20.2546,150.916,99.4358,97.7665,0.000768941,0.0700586,21.015,185.399,0.150717,0.0,0.0
310,77.25,19.7979,20.1227,149.939,99.0752,97.2505,0.000682416,0.0691625,21.0147,185.379,0.165482,0.0,0.0
341,85,19.7742,20.2462,153.694,99.4932,97.5325,0.000711609,0.0705877,21.0161,185.409,0.177192,0.0,0.0
372,92.75,19.3904,20.5727,153.816,99.7899,97.0178,0.000852024,0.0693466,21.0193,185.409,0.250812,0.0,0.0
403,100.5,19.7786,20.1884,151.861,99.5113,97.382,0.000403241,0.0684331,21.0196,185.369,0.192558,0.0,0.0
434,108.25,19.9281,20.5427,149.676,98.678,96.5259,0.00070517,0.0711535,21.0139,185.379,0.196302,0.0,0.0
465,116,19.4919,20.3585,152.653,97.8769,95.8739,0.000502129,0.0723431,21.0102,185.379,0.184077,0.0,0.0
496,123.75,20.1364,20.8495,151.421,97.8596,96.0091,0.000819277,0.0719145,21.0107,185.379,0.169957,0.0,0.0
527,131.5,20.164,20.7527,147.165,98.5596,96.5268,0.000828418,0.0726168,21.012,185.379,0.18553,0.0,0.0
558,139.25,20.0625,20.677,154.578,99.09,96.9109,0.000379025,0.0703579,21.0171,185.389,0.197959,0.0,0.0
589,147,19.8509,20.7841,154.264,98.9675,97.2844,0.000515655,0.0688776,21.0189,185.349,0.152703,0.0,0.0
620,154.75,19.8262,20.3543,148.551,98.8756,96.2915,0.000956738,0.068311,21.0177,185.369,0.235759,0.0,0.0
651,162.5,19.3037,20.3709,153.272,99.5506,96.8872,0.000648323,0.0691251,21.0174,185.389,0.241426,0.0,0.0
682,170.25,19.6341,20.3627,152.04,99.1511,96.8834,0.000564556,0.0686906,21.0205,185.389,0.205974,0.0,0.0
713,178,20.1253,20.6336,151.414,99.743,96.9453,0.000428792,0.066615,21.0256,185.389,0.253275,0.0,0.0
744,185.75,19.9398,20.7606,151.14,99.5121,97.0084,0.000426182,0.0655117,21.0277,185.399,0.226843,0.0,0.0
775,193.5,19.6727,20.5984,150.939,98.4407,95.9981,0.000423395,0.065438,21.0278,185.359,0.223682,0.0,0.0
806,201.25,19.6897,21.0038,154.396,97.7705,95.4664,0.000599596,0.0655305,21.0267,185.379,0.212306,0.0,0.0
837,209,19.5839,20.9041,150.791,98.064,95.5275,0.000350764,0.0653623,21.0254,185.329,0.233303,0.0,0.0
868,216.75,19.4728,21.0085,150.662,98.776,95.893,0.0005018,0.0667629,21.0204,185.359,0.26371,0.0,0.0
899,224.5,19.6471,20.9096,148.24,99.1161,96.5467,0.000563383,0.0711864,21.0135,185.359,0.233824,0.0,0.0
930,232.25,20.0358,20.532,151.014,98.9165,96.2754,0.000722559,0.071066,21.0128,185.339,0.240935,0.0,0.0
961,240,19.5902,21.2091,150.425,98.6985,96.0536,0.000643412,0.0712423,21.0131,185.339,0.241817,0.0,0.0
992,247.75,20.1735,20.9017,155.105,99.4269,96.5789,0.000441052,0.0701144,21.0164,185.329,0.258726,0.0,0.0
1023,255.5,19.443,20.5631,154.052,99.4667,96.7235,0.00038885,0.0693245,21.0177,185.349,0.248968,0.0,0.0
1054,263.25,20.0857,21.4599,155.746,99.0258,96.3267,0.000590582,0.0695477,21.0173,185.329,0.246018,0.0,0.0
1085,271,19.8574,21.065,150.427,99.3675,96.8058,0.000404116,0.0699756,21.0157,185.319,0.232518,0.0,0.0
1116,278.75,19.8852,20.9943,155.658,99.6904,96.6612,0.000761049,0.0693213,21.017,185.329,0.274702,0.0,0.0
1147,286.5,20.2993,20.7742,147.771,99.7883,96.98,0.000655423,0.0705565,21.0148,185.319,0.254132,0.0,0.0
1178,294.25,20.2102,20.77,151.334,99.6687,97.0178,0.000684746,0.0702033,21.0139,185.299,0.239986,0.0,0.0
1209,302,20.1785,20.7035,148.323,99.3816,97.2654,0.000437748,0.0696727,21.0137,185.299,0.191612,0.0,0.0
1240,309.75,20.3076,20.6307,151.889,99.0298,96.6773,0.000660546,0.0681473,21.0164,185.299,0.214032,0.0,0.0
1271,317.5,19.6778,20.7159,153.282,98.5909,95.4202,0.000640508,0.0675975,21.0187,185.309,0.291006,0.0,0.0
1302,325.25,20.2353,21.0848,152.009,98.1592,95.1489,0.000456868,0.0676436,21.0203,185.309,0.277294,0.0,0.0
1333,333,20.5808,21.0298,153.028,97.8901,95.3838,0.000657134,0.0673897,21.0207,185.299,0.230909,0.0,0.0
1364,340.75,20.3998,21.099,149.763,97.8026,95.0005,0.000556446,0.0671568,21.0167,185.278,0.258789,0.0,0.0
1395,348.5,20.2079,21.4047,152.463,97.8697,95.0615,0.000616745,0.0690546,21.0138,185.288,0.259171,0.0,0.0
1426,356.25,20.0566,21.2611,151.157,98.0624,95.6979,0.000279002,0.0703364,21.014,185.288,0.217288,0.0,0.0
1457,364,19.7136,20.9867,149.983,98.2941,96.0358,0.000595083,0.0685549,21.019,185.278,0.206919,0.0,0.0
1488,371.75,20.3561,21.0462,152.486,98.5411,95.594,0.000509275,0.0679729,21.018,185.288,0.270306,0.0,0.0
1519,379.5,19.9575,20.9135,150.631,98.7856,96.0138,0.000574284,0.0706794,21.0143,185.288,0.253368,0.0,0.0
1550,387.25,20.0911,21.1106,151.294,98.9394,95.9663,0.000259753,0.0696172,21.0156,185.278,0.271621,0.0,0.0
1581,395,19.971,20.9344,151.81,99.0298,96.6146,0.000286933,0.0676402,21.0173,185.288,0.219813,0.0,0.0
1612,402.75,19.7575,20.9196,148.464,99.0828,95.9188,0.000330838,0.0670997,21.0206,185.268,0.288918,0.0,0.0
1643,410.5,20.6345,21.2881,152.646,99.1133,96.1227,0.000333035,0.0669892,21.019,185.278,0.272752,0.0,0.0
1674,418.25,20.16,21.2704,155.466,99.1169,96.8431,0.000266545,0.0669346,21.0189,185.288,0.20661,0.0,0.0
1705,426,20.1946,21.1457,153.289,99.09,96.4882,0.00046397,0.0668081,21.0181,185.268,0.236875,0.0,0.0
1736,433.75,20.1168,21.1938,152.662,99.0659,96.0375,0.00064547,0.0687526,21.0199,185.258,0.276391,0.0,0.0
1767,441.5,20.1233,20.8666,149.931,99.0149,96.2279,0.000741941,0.0699426,21.0183,185.248,0.254178,0.0,0.0
1798,449.25,20.1624,20.8285,153.486,98.9744,96.2644,0.000421713,0.067567,21.019,185.258,0.247157,0.0,0.0
1829,457,20.1208,20.6504,152.83,98.935,96.4789,0.000427915,0.0667872,21.0207,185.258,0.223799,0.0,0.0
1860,464.75,20.1332,20.9812,151.181,98.9487,96.2775,0.000499402,0.0664781,21.0229,185.278,0.243631,0.0,0.0
1891,472.5,20.1617,21.1205,155.291,98.9443,96.2881,0.000476453,0.0661841,21.0231,185.258,0.242253,0.0,0.0
1922,480.25,20.5989,21.1328,152.036,98.9483,96.7282,0.000571309,0.0678327,21.0193,185.248,0.202018,0.0,0.0
1953,488,20.4356,20.7906,152.816,98.9571,96.2177,0.000557002,0.0678034,21.0192,185.238,0.249918,0.0,0.0
1984,495.75,20.2345,21.172,155.042,98.9728,96.0125,0.00037348,0.0698804,21.0139,185.238,0.270334,0.0,0.0
2015,503.5,20.1995,20.9762,153.901,99.0101,96.721,0.00057576,0.0690657,21.0213,185.238,0.208243,0.0,0.0
2046,511.25,20.1635,21.0812,150.638,99.0418,96.4009,0.000373378,0.0675289,21.0225,185.228,0.240607,0.0,0.0
2077,519,20.4556,20.9789,154.313,99.0531,96.2571,0.000339445,0.0675877,21.0226,185.228,0.254901,0.0,0.0
2108,526.75,20.2602,21.0749,153.826,99.0924,95.8921,0.000416927,0.0672761,21.0197,185.218,0.292263,0.0,0.0
2139,534.5,20.2488,21.3152,154.452,99.1041,96.6006,0.000222596,0.0669639,21.0197,185.228,0.227777,0.0,0.0
2170,542.25,20.0957,21.2273,151.48,99.1077,96.1414,0.000478009,0.0682669,21.0198,185.228,0.270519,0.0,0.0
2201,550,20.0084,20.6032,149.722,99.1049,96.2652,0.000175565,0.0673085,21.0226,185.238,0.258809,0.0,0.0
2232,557.75,19.9395,20.9712,146.69,99.096,96.8435,0.000664396,0.0668103,21.0219,185.208,0.204695,0.0,0.0
2263,565.5,19.9535,20.7441,151.503,99.1041,96.2766,0.000788108,0.066263,21.0219,185.238,0.25768,0.0,0.0
2294,573.25,20.2307,20.9756,150.508,99.1081,96.3678,0.000686709,0.0660902,21.0242,185.218,0.249615,0.0,0.0
2325,581,20.4185,21.0162,153.614,99.1037,96.5929,0.000676228,0.0662052,21.0263,185.208,0.228446,0.0,0.0
2356,588.75,20.0504,21.0487,151.55,99.1093,96.7651,0.00052888,0.065925,21.0275,185.218,0.213099,0.0,0.0
2387,596.5,20.1391,20.8552,151.447,99.1181,96.2491,0.000243931,0.066035,21.0234,185.238,0.26149,0.0,0.0
2418,604.25,19.4956,20.3757,152.161,99.1101,96.4479,0.000684596,0.0674783,21.0201,185.208,0.242397,0.0,0.0
2449,612,19.5052,20.6143,151.799,99.0756,96.6701,0.000224304,0.0674233,21.0187,185.188,0.21881,0.0,0.0
2480,619.75,20.0256,20.4428,154.665,99.0189,96.3793,0.000282994,0.0669495,21.0208,185.188,0.240547,0.0,0.0
2511,627.5,19.8248,20.5545,154.047,98.9266,96.0091,0.000450435,0.0665479,21.0233,185.198,0.266494,0.0,0.0
2542,635.25,19.6223,20.1716,152.343,98.7507,96.1431,0.000426983,0.0658486,21.0247,185.188,0.238237,0.0,0.0
2573,643,19.7938,20.3612,148.948,98.5977,95.8247,0.000488612,0.0648901,21.0272,185.198,0.253966,0.0,0.0
2604,650.75,19.728,20.4093,151.272,98.3736,95.7221,0.000537333,0.0653549,21.0274,185.208,0.243249,0.0,0.0
2635,658.5,20.2172,20.783,148.051,98.1857,96.0579,0.00045937,0.0655927,21.0254,185.299,0.19505,0.0,0.0
2666,666.25,19.3991,20.4673,155.248,98.0022,95.6992,0.000414853,0.0679325,21.0219,185.178,0.2117,0.0,0.0
2697,674,19.813,20.4957,151.705,97.8781,95.0399,0.00016443,0.070557,21.0173,185.178,0.261964,0.0,0.0
2728,681.75,19.6396,20.3664,151.686,97.7877,95.4325,0.000354158,0.0678167,21.0205,185.178,0.217042,0.0,0.0
2759,689.5,19.49,20.7083,154.236,97.8034,95.3007,0.00073496,0.0666502,21.0246,185.178,0.230777,0.0,0.0
2790,697.25,19.776,20.4133,153.197,97.9146,95.4033,0.000439784,0.0665267,21.025,185.168,0.231317,0.0,0.0
2821,705,20.002,20.2433,156.74,98.1303,95.536,0.000275083,0.0662223,21.0248,185.168,0.238526,0.0,0.0
2852,712.75,19.8104,21.0662,152.326,98.4086,96.113,,0.0663227,,185.168,0.210128,0.0,0.0
2883,720.5,20.1893,20.7323,153.022,98.7411,96.4827,,,,185.168,0.205978,0.0,0.0
2884,720.75,19.299,20.4719,154.215,98.7246,96.5158,,,,185.168,0.201442,0.0,0.0

File: Tyvek_Cone_HF50Scalar_220308_R2.csv
LABORATORY,FSRI
TEST IDENT,Tyvek_HF50_2
OPERATOR,Dow
MATERIAL,Tyvek
ORIENTATION,Horizontal
HEAT FLUX,50
SURF AREA,0.00884
C FACTOR,0.039038
SPEC HOLDER DIFF,-566
SPECIMEN MASS,0.7
SCAN TIME,0.25
O2 DELAY TIME,11
CO DELAY TIME,11
CO2 DELAY TIME,8
FLOW FACTOR,1
SCAN COUNT,673
TIME TO IGN,34
END OF TEST SCAN,193
END OF TEST TIME,48.25
TEST STATUS,1
PRE TEST CMT,Dimensions: 101 x 101 x 0.11; with frame; with calcium silicate substrate
POST TEST CMT,"The sample immediately shriveled towards the edges upon exposure. Enough mass shriveled towards the same corner to subsesequently ignite, unlike previous replicates where the mass of the sample was too thinly distributed after shriveling to ignite. "

File: Tyvek_Cone_HF50Scan_220308_R3.csv
Names,Time,Stack TC,Smoke TC,Exh Press,Smoke Comp,Smoke Meas,CO Meter,CO2 Meter,O2 Meter,Sample Mass,Ext Coeff,Start Test,Flame Verif
Chan Gain,,500,500,1,1,1,1,1,1,1,1,1.0,1.0
Offset,,0,0,0.134161,0,0,0,0,0,0,0,0.0,0.0
Gain,,1,1,25.011,15.9695,16.7489,1,1,1,1.00099,1.01863,1.0,1.0
Units,sec,C,C,Pa,%,%,%,%,%,g,/m,,
Baseline,,31.7389,33.1458,149.252,119.181,115.805,0.00110323,0.0586103,21.0039,-835.593,0.256843,,
30,7.25,30.5108,31.7407,148.4,119.463,115.475,0.00119447,0.0608611,21.0046,183.412,0.303384,0.0,0.0
60,14.75,30.2139,32.0927,149.14,119.452,113.632,0.00192114,0.059534,21.0015,183.362,0.446279,0.0,0.0
90,22.25,31.319,32.3502,147.184,119.426,113.165,0.00269813,0.0588565,21.0004,183.332,0.481122,0.0,0.0
120,29.75,30.8006,32.2898,144.744,119.425,113.861,0.00242428,0.0590631,21.0028,183.312,0.426326,0.0,0.0
150,37.25,31.5233,33.4177,150.837,119.408,115.551,0.0020775,0.0589134,21.003,183.292,0.293374,0.0,0.0
180,44.75,31.469,32.4535,147.473,119.383,115.55,0.00178228,0.0585961,21.0027,183.282,0.291632,0.0,0.0
210,52.25,31.5999,32.3967,145.045,119.347,115.118,0.001748,0.0585357,21.0033,183.272,0.322393,0.0,0.0
240,59.75,31.289,32.8812,153.518,119.323,115.758,0.00159188,0.0584916,21.0029,183.252,0.271033,0.0,0.0
270,67.25,30.4861,32.8726,148.187,119.316,115.631,0.00174623,0.0585417,21.0058,183.242,0.280276,0.0,0.0
300,74.75,31.1878,32.3015,151.183,119.308,115.04,0.00164906,0.0584752,21.0075,183.232,0.32551,0.0,0.0
330,82.25,31.3654,32.6425,150.827,119.264,115.136,0.00143283,0.058569,21.0093,183.212,0.31476,0.0,0.0
360,89.75,31.0216,32.1232,145.827,119.234,115.928,0.00200214,0.0587981,21.0069,183.182,0.251262,0.0,0.0
390,97.25,31.0172,32.6152,149.014,119.175,115.389,0.00155012,0.0585746,21.0056,183.182,0.288502,0.0,0.0
420,104.75,31.075,32.8007,142.392,119.166,116.007,0.00172479,0.0581134,21.0069,183.152,0.240079,0.0,0.0
450,112.25,31.3885,33.0944,152.324,119.16,115.841,0.00180496,0.0577865,21.0084,183.172,0.252406,0.0,0.0
480,119.75,31.6437,33.0331,146.555,119.143,114.856,0.00173338,0.0576316,21.0091,183.142,0.327505,0.0,0.0
510,127.25,31.5462,32.9774,149.418,119.165,115.329,0.0014393,0.0577223,21.009,183.102,0.292403,0.0,0.0
540,134.75,31.5499,32.8282,149.486,119.161,115.419,0.00144094,0.0584165,21.0074,183.112,0.285107,0.0,0.0
570,142.25,31.4573,33.4116,149.68,119.134,115.58,0.00138871,0.0582086,21.0069,183.092,0.270641,0.0,0.0
600,149.75,31.7432,33.393,145.709,119.109,115.74,0.00109613,0.0579666,21.0063,183.082,0.256377,0.0,0.0
630,157.25,31.9693,33.2848,147.181,119.081,115.167,0.000903265,0.0581167,21.0067,183.082,0.298606,0.0,0.0
660,164.75,31.3556,33.0295,147.337,119.048,115.455,0.00107661,0.0579294,21.0093,183.092,0.273893,0.0,0.0
690,172.25,31.9419,33.3036,148.626,119.037,114.566,0.00126463,0.0579245,21.0087,183.062,0.34207,0.0,0.0
720,179.75,32.0262,33.4869,148.913,119.034,115.986,0.00109667,0.0582169,21.0064,183.042,0.231788,0.0,0.0
750,187.25,32.0252,33.2431,150.18,119.003,115.513,0.000985857,0.0583705,21.0067,183.032,0.265905,0.0,0.0
780,194.75,31.6092,33.7746,148.343,118.949,115.56,0.00106062,0.0584934,21.0052,183.052,0.258242,0.0,0.0
810,202.25,31.4799,32.9499,148.917,118.903,115.567,0.00086308,0.0635188,20.9979,183.042,0.254325,0.0,0.0
840,209.75,32.0063,33.5822,149.148,118.839,115.18,0.00105756,0.0621367,21.0029,183.002,0.279494,0.0,0.0
870,217.25,31.9811,33.6143,142.944,118.788,115.112,0.0011705,0.0599256,21.0042,182.992,0.280881,0.0,0.0
900,224.75,32.1036,33.6797,149.647,118.721,114.444,0.0008251,0.0590385,21.0064,182.982,0.327865,0.0,0.0
930,232.25,31.8484,33.7543,146.238,118.652,114.82,0.00106186,0.0586375,21.0056,183.002,0.293371,0.0,0.0
960,239.75,32.0501,33.7743,149.578,118.604,115.59,0.00148233,0.0584988,21.0048,182.972,0.230033,0.0,0.0
990,247.25,32.6944,34.2201,152.107,118.552,115.238,0.00106784,0.0586626,21.003,182.972,0.253366,0.0,0.0
1020,254.75,32.0307,34.2896,148.27,118.538,114.952,0.00105504,0.0585965,21.0047,182.962,0.274445,0.0,0.0
1050,262.25,32.3013,33.5848,148.901,118.536,115.415,0.000940953,0.0584435,21.0037,182.952,0.238411,0.0,0.0
1080,269.75,31.8858,34.0208,150.261,118.568,115.891,0.00119914,0.0584031,21.0057,182.942,0.204073,0.0,0.0
1110,277.25,31.6552,33.4055,145.293,118.618,114.847,0.0013506,0.0584969,21.0072,182.942,0.288693,0.0,0.0
1140,284.75,32.2982,33.9384,146.076,118.654,115.156,0.00111067,0.0582397,21.0069,182.922,0.267346,0.0,0.0
1170,292.25,32.505,33.7073,149.757,118.674,115.761,0.000783134,0.0584173,21.0058,182.922,0.222015,0.0,0.0
1200,299.75,32.0027,33.5608,149.655,118.673,114.806,0.000836321,0.0583093,21.0061,182.932,0.296024,0.0,0.0
1230,307.25,32.7407,33.8858,147.072,118.649,114.374,0.000893213,0.0585299,21.0062,182.892,0.327904,0.0,0.0
1260,314.75,32.2816,34.1957,148.626,118.629,114.824,0.000896037,0.058639,21.0062,182.892,0.291251,0.0,0.0
1290,322.25,33.2112,34.3888,146.295,118.593,114.449,0.00117309,0.0587131,21.0046,182.902,0.317814,0.0,0.0
1320,329.75,32.55,34.025,146.558,118.619,115.432,0.00114142,0.0587776,21.0035,182.882,0.243388,0.0,0.0
1350,337.25,32.8132,33.8506,145.291,118.627,114.844,0.00106336,0.058947,21.0018,182.872,0.289553,0.0,0.0
1380,344.75,32.2899,34.1232,150.818,118.625,115.824,0.0010615,0.0590481,21.0034,182.862,0.21353,0.0,0.0
1410,352.25,32.5978,34.2554,146.949,118.638,115.788,0.00111174,0.058931,21.0043,182.842,0.217245,0.0,0.0
1440,359.75,32.7645,34.0806,148.613,118.617,115.117,0.00118927,0.0592824,21.0047,182.842,0.267571,0.0,0.0
1470,367.25,32.7675,34.0533,150.427,118.652,115.004,0.00106414,0.0592801,21.0046,182.832,0.278986,0.0,0.0
1500,374.75,32.6908,34.2226,147.754,118.645,114.824,0.00112499,0.0592182,21.0052,182.832,0.292539,0.0,0.0
1530,382.25,32.5015,34.1786,146.404,118.644,115.321,0.000945238,0.059101,21.0047,182.812,0.253811,0.0,0.0
1560,389.75,32.794,34.1308,146.894,118.691,115.868,0.000866422,0.0591701,21.006,182.812,0.215058,0.0,0.0
1590,397.25,32.6918,34.6131,146.741,118.708,115.444,0.00123571,0.0590544,21.0065,182.782,0.249115,0.0,0.0
1620,404.75,32.3541,34.217,149.078,118.75,115.91,0.0012026,0.0590961,21.0065,182.792,0.216264,0.0,0.0
1650,412.25,32.9898,34.4731,146.088,118.78,114.964,0.000931187,0.059132,21.0062,182.792,0.291808,0.0,0.0
1680,419.75,33.047,34.2383,146.131,118.801,114.907,0.000885317,0.0591767,21.0051,182.782,0.297759,0.0,0.0
1710,427.25,32.8711,34.783,147.368,118.842,114.7,0.000918059,0.0590842,21.0057,182.762,0.316989,0.0,0.0
1740,434.75,33.0062,34.6229,150.113,118.831,115.611,0.00119208,0.0590023,21.0056,182.762,0.245427,0.0,0.0
1770,442.25,32.734,34.1023,145.382,118.85,114.874,0.000988965,0.0593078,21.0046,182.742,0.30404,0.0,0.0
1800,449.75,33.0387,34.5504,145.234,118.858,116.41,0.00136244,0.0590898,21.0038,182.732,0.185908,0.0,0.0
1830,457.25,32.9723,34.5559,146.406,118.892,115.035,0.0012522,0.0589856,21.0041,182.732,0.29468,0.0,0.0
1860,464.75,33.5049,34.6897,145.227,118.927,114.919,0.000859706,0.0587848,21.0051,182.722,0.306334,0.0,0.0
1890,472.25,32.9332,34.6366,145.796,118.96,115.379,0.00112944,0.058779,21.0052,182.702,0.273086,0.0,0.0
1920,479.75,32.5577,34.8053,146.911,119.057,116.301,0.000846207,0.0585333,21.0059,182.702,0.209244,0.0,0.0
1950,487.25,32.9118,34.6933,145.056,119.13,115.338,0.000909066,0.0586959,21.0069,182.712,0.289062,0.0,0.0
1980,494.75,33.4148,34.4741,148.015,119.231,115.598,0.000955038,0.0585317,21.0055,182.691,0.276453,0.0,0.0
2010,502.25,32.8268,34.4348,153.351,119.32,115.661,0.000781593,0.0585971,21.0053,182.671,0.278316,0.0,0.0
2040,509.75,32.7943,35.004,148.957,119.382,116.537,0.00103906,0.0586792,21.0058,182.681,0.215559,0.0,0.0
2070,517.25,32.9669,34.7722,150.757,119.46,116.3,0.00103848,0.0586454,21.0058,182.651,0.239521,0.0,0.0
2100,524.75,33.0954,34.571,147.865,119.508,116.879,0.000990346,0.0587675,21.0058,182.661,0.198745,0.0,0.0
2130,532.25,32.4551,34.8647,148.874,119.545,116.899,0.000980394,0.0590004,21.0058,182.641,0.200027,0.0,0.0
2160,539.75,33.2184,34.9442,146.1,119.59,116.369,0.00108043,0.0589254,21.0054,182.631,0.243984,0.0,0.0
2190,547.25,33.6324,35.0373,148.615,119.588,116.66,0.00081192,0.0588483,21.0054,182.621,0.221498,0.0,0.0
2220,554.75,33.2254,34.9854,147.397,119.599,116.334,0.00084268,0.0587147,21.0075,182.591,0.247309,0.0,0.0
2250,562.25,33.1487,34.4329,147.11,119.603,115.753,0.000910885,0.058771,21.007,182.611,0.29235,0.0,0.0
2280,569.75,33.4571,34.7169,146.462,119.604,115.193,0.00125477,0.0587899,21.0065,182.601,0.335733,0.0,0.0
2310,577.25,32.9809,34.6723,149.284,119.61,116.609,0.00111799,0.058598,21.007,182.571,0.227089,0.0,0.0
2340,584.75,33.3325,35.2463,147.004,119.576,116.787,0.000899944,0.0585965,21.0071,182.601,0.210882,0.0,0.0
2370,592.25,33.5117,35.0019,151.445,119.576,116.368,0.000699142,0.0585872,21.005,182.551,0.24297,0.0,0.0
2400,599.75,33.4295,34.9514,148.001,119.553,117.534,0.000770674,0.0586309,21.0068,182.561,0.152178,0.0,0.0
2430,607.25,32.6965,34.8327,150.469,119.51,114.966,0.000623831,0.0587816,21.0048,182.551,0.346323,0.0,0.0
2460,614.75,32.7194,34.6126,150.151,119.486,115.404,0.00104026,0.0586562,21.0067,182.541,0.310561,0.0,0.0
2490,622.25,32.6257,34.8141,143.445,119.453,116.809,0.000975753,0.0586446,21.0053,182.521,0.199982,0.0,0.0
2520,629.75,32.8068,34.1927,145.358,119.459,115.483,0.00119316,0.0585048,21.0055,182.531,0.30246,0.0,0.0
2550,637.25,32.7516,34.2543,148.334,119.444,115.694,0.000934281,0.0586758,21.0061,182.521,0.285051,0.0,0.0
2580,644.75,33.287,34.1977,146.799,119.425,116.041,0.000518536,0.0585447,21.007,182.521,0.256828,0.0,0.0
2610,652.25,32.9784,34.8191,144.111,119.426,116.299,0.000817058,0.0583336,21.0066,182.501,0.237046,0.0,0.0
2640,659.75,32.7883,34.6202,145.367,119.413,115.413,0.00102211,0.0582714,21.0045,182.501,0.304456,0.0,0.0
2670,667.25,32.5742,34.586,148.059,119.403,115.96,0.00108946,0.0583173,21.0063,182.491,0.261444,0.0,0.0
2700,674.75,32.8768,34.3973,152.286,119.372,116.328,0.000873823,0.057872,21.0062,182.481,0.230797,0.0,0.0
2730,682.25,32.8098,34.3587,147.99,119.351,117.157,0.000501915,0.0581916,21.0062,182.461,0.165808,0.0,0.0
2760,689.75,33.2418,34.606,150.743,119.35,116.119,0.00065688,0.0584554,21.006,182.451,0.245267,0.0,0.0
2790,697.25,32.4789,34.6871,147.805,119.315,115.854,0.000765021,0.0582125,21.0055,182.441,0.262997,0.0,0.0
2820,704.75,33.1759,34.0508,146.768,119.317,115.957,0.000975098,0.0583645,21.0036,182.441,0.255262,0.0,0.0
2850,712.25,33.2608,35.1461,147.143,119.292,115.379,,0.0582762,,182.431,0.297983,0.0,0.0
2880,719.75,32.4686,34.5645,147.01,119.293,115.998,,,,182.421,0.250208,0.0,0.0
2886,721.25,32.454,34.5349,149.007,119.291,116.138,,,,182.411,0.239317,0.0,0.0

File: Tyvek_Cone_HF75Scalar_220308_R3.csv
LABORATORY,FSRI
TEST IDENT,Tyvek_HF75_3
OPERATOR,Dow
MATERIAL,Tyvek
ORIENTATION,Horizontal
HEAT FLUX,75
SURF AREA,0.00884
C FACTOR,0.039038
SPEC HOLDER DIFF,-566
SPECIMEN MASS,0.7
SCAN TIME,0.25
O2 DELAY TIME,11
CO DELAY TIME,11
CO2 DELAY TIME,8
FLOW FACTOR,1
SCAN COUNT,579
TIME TO IGN,7.25
END OF TEST SCAN,99
END OF TEST TIME,24.75
TEST STATUS,1
PRE TEST CMT,Thickness: 0.12 mm; with frame; with calcium silicate substrate
POST TEST CMT,"The sample immediately shriveled towards the edges upon exposure. Ignition occurred along one edge of the sample and did not spread further due to a lack of sample mass to sustain flame travel. A small flame (less than 1 cm tall) returned after end of test, then extinguished during following 2 minutes of additional data collection. "