Folder: fsri_materials_database/01_Data/Tyvek_Wrap/Cone (part 3)

File: Tyvek_Wrap_Cone_HF25Scan_220401_R2.csv
Names,Time,Stack TC,Smoke TC,Exh Press,Smoke Comp,Smoke Meas,CO Meter,CO2 Meter,O2 Meter,Sample Mass,Ext Coeff,Start Test,Flame Verif
Chan Gain,,500,500,1,1,1,1,1,1,1,1,1.0,1.0
Offset,,0,0,0.133521,0,0,0,0,0,0,0,0.0,0.0
Gain,,1,1,25.011,13.1585,13.8929,1,1,1,1.00096,1.01488,1.0,1.0
Units,sec,C,C,Pa,%,%,%,%,%,g,/m,,
Baseline,,19.4571,20.2811,152.676,97.7959,96.3065,0.00068481,0.0714402,21.0115,-834.331,0.136667,,
31,7.5,17.7116,18.6662,155.788,98.7989,97.1645,0.000459476,0.0737887,21.0082,179.963,0.148504,0.0,0.0
62,15.25,18.421,18.3511,150.072,98.937,97.3985,0.000518545,0.073143,21.0087,179.963,0.139526,0.0,0.0
93,23,18.1968,19.1663,154.196,99.0667,98.1621,0.000682033,0.0813443,20.9996,179.943,0.081668,0.0,0.0
124,30.75,18.3983,18.921,154.512,99.2137,97.4197,0.000962818,0.0797512,21.0052,179.933,0.16245,0.0,0.0
155,38.5,18.6649,19.0508,155.046,99.3378,98.4559,0.000655564,0.0732695,21.0122,179.933,0.0793858,0.0,0.0
186,46.25,18.1419,19.204,153.633,99.4342,98.2079,0.000457812,0.0707528,21.0179,179.933,0.110474,0.0,0.0
217,54,18.5918,20.0331,153.238,99.5185,98.1676,0.000716851,0.0693737,21.022,179.923,0.121672,0.0,0.0
248,61.75,18.172,19.4817,155.39,99.5486,98.0387,0.000881739,0.0690295,21.0201,179.923,0.136063,0.0,0.0
279,69.5,18.805,19.7285,156.515,99.5851,98.6255,0.000639725,0.0689931,21.0183,179.923,0.0862043,0.0,0.0
310,77.25,18.9462,20.2172,153.868,99.6261,98.5365,0.000422177,0.0693118,21.0186,179.913,0.0979062,0.0,0.0
341,85,19.11,19.8313,156.494,99.6675,98.1286,0.000235696,0.0690164,21.0179,179.913,0.138527,0.0,0.0
372,92.75,18.8472,19.6598,152.879,99.7072,98.4813,0.000419266,0.0687449,21.0193,179.913,0.110132,0.0,0.0
403,100.5,18.9278,19.5657,153.464,99.7321,98.6399,0.000512978,0.0691639,21.019,179.903,0.0980321,0.0,0.0
434,108.25,19.3148,19.6231,151.521,99.7526,98.0285,0.000673574,0.069584,21.019,179.913,0.155211,0.0,0.0
465,116,18.9486,19.5652,157.241,99.7703,98.8612,0.000528363,0.0685782,21.0195,179.923,0.081485,0.0,0.0
496,123.75,19.1977,19.9387,152.518,99.7855,98.0836,0.000237937,0.0680482,21.0204,179.923,0.153144,0.0,0.0
527,131.5,19.3231,19.7999,154.319,99.7883,98.7188,0.000625083,0.0681344,21.0216,179.913,0.0959357,0.0,0.0
558,139.25,18.4282,20.2126,155.691,99.7683,98.2795,0.000605622,0.0682221,21.0212,179.893,0.133844,0.0,0.0
589,147,19.2222,20.0831,151.926,99.7277,98.3647,0.000181908,0.0690878,21.021,179.893,0.122507,0.0,0.0
620,154.75,19.3107,20.1488,151.552,99.6984,98.3372,0.000278036,0.0706958,21.0192,179.903,0.122384,0.0,0.0
651,162.5,18.6439,20.0335,152.856,99.6285,98.5318,0.000475578,0.0711608,21.0177,179.883,0.0985433,0.0,0.0
682,170.25,18.5238,19.6494,150.864,99.5446,98.1735,0.000357699,0.0710583,21.019,179.883,0.123468,0.0,0.0
713,178,19.3128,19.9626,155.302,99.4868,98.3164,0.00048097,0.0701029,21.0206,179.893,0.105348,0.0,0.0
744,185.75,18.8056,20.4607,154.452,99.3992,97.7084,0.000599588,0.0704769,21.0169,179.883,0.152735,0.0,0.0
775,193.5,19.1297,20.3656,152.385,99.341,97.8776,0.000587065,0.0718379,21.0143,179.883,0.132119,0.0,0.0
806,201.25,19.5041,20.5924,153.401,99.2739,97.9819,0.000584432,0.0713786,21.0163,179.883,0.116625,0.0,0.0
837,209,19.3256,20.2638,152.795,99.239,97.8581,0.000449596,0.070153,21.015,179.873,0.124747,0.0,0.0
868,216.75,19.5549,20.2486,153.878,99.1944,97.803,0.000364973,0.0696167,21.0156,179.863,0.125764,0.0,0.0
899,224.5,19.4469,20.1377,152.087,99.1792,98.0578,0.000386096,0.0695964,21.0157,179.893,0.101231,0.0,0.0
930,232.25,19.8558,20.1108,151.441,99.125,97.5545,0.000535282,0.0698957,21.0207,179.883,0.142171,0.0,0.0
961,240,19.2798,19.8112,153.162,99.0732,97.8691,0.000384065,0.0694308,21.0206,179.863,0.108855,0.0,0.0
992,247.75,19.7091,20.3845,150.629,99.0338,97.7716,0.000670345,0.0700028,21.018,179.873,0.114192,0.0,0.0
1023,255.5,19.3747,20.2263,152.71,99.0025,98.051,0.000562258,0.0698954,21.0191,179.863,0.085972,0.0,0.0
1054,263.25,19.739,20.3128,149.712,99.1466,97.4235,0.000505148,0.0691206,21.0205,179.863,0.156081,0.0,0.0
1085,271,19.3946,20.2387,151.608,99.3016,98.3673,0.000464008,0.0690308,21.0187,179.863,0.0841619,0.0,0.0
1116,278.75,18.9658,20.7857,152.884,99.4277,98.2643,0.000340329,0.0692914,21.0181,179.853,0.104788,0.0,0.0
1147,286.5,19.7922,20.3902,150.878,99.5157,97.8797,0.000502134,0.0683917,21.0185,179.853,0.147566,0.0,0.0
1178,294.25,19.4689,20.3326,151.028,99.5615,98.4457,0.00063797,0.0683101,21.0187,179.843,0.100328,0.0,0.0
1209,302,19.6486,20.0827,150.015,99.5795,98.0048,0.000561858,0.067727,21.0231,179.853,0.141908,0.0,0.0
1240,309.75,19.6321,20.2635,149.2,99.5647,98.3792,0.000666648,0.0671349,21.0271,179.843,0.106637,0.0,0.0
1271,317.5,19.6343,20.331,150.249,99.5378,98.3516,0.000519317,0.0669814,21.0268,179.833,0.106725,0.0,0.0
1302,325.25,19.6759,20.4606,152.55,99.4872,97.9743,0.000757821,0.0670137,21.0256,179.843,0.13642,0.0,0.0
1333,333,19.6145,20.642,154.927,99.4185,97.8492,0.00089284,0.0670696,21.0251,179.843,0.141646,0.0,0.0
1364,340.75,19.2558,20.719,150.351,99.3338,98.2918,0.000761167,0.0676604,21.0254,179.833,0.0938746,0.0,0.0
1395,348.5,20.4704,20.5038,154.624,99.233,98.0875,0.000527498,0.0672123,21.0233,179.823,0.103365,0.0,0.0
1426,356.25,19.7548,20.4788,153.93,99.1065,97.6224,0.000541488,0.0672698,21.023,179.823,0.134323,0.0,0.0
1457,364,19.7411,21.0021,149.38,98.9318,97.8509,0.000585045,0.067414,21.023,179.833,0.0978022,0.0,0.0
1488,371.75,19.5849,19.7488,150.102,98.7724,97.3298,0.000495717,0.067732,21.023,179.833,0.13098,0.0,0.0
1519,379.5,19.6492,20.191,148.724,98.7836,97.8992,0.000370958,0.0679322,21.0219,179.833,0.0800621,0.0,0.0
1550,387.25,19.4465,20.5059,151.995,98.821,97.6105,0.000458232,0.0682852,21.0219,179.833,0.109722,0.0,0.0
1581,395,19.5301,21.0356,153.529,98.8651,98.4839,0.000250307,0.0681654,21.0247,179.833,0.0343967,0.0,0.0
1612,402.75,19.6844,20.8788,147.672,98.9049,97.566,0.000268916,0.067751,21.0249,179.823,0.12134,0.0,0.0
1643,410.5,19.7159,20.6129,152.095,98.9479,97.5914,0.000356431,0.0682203,21.0227,179.823,0.122886,0.0,0.0
1674,418.25,19.7009,20.4613,152.982,98.9756,97.9603,0.000250321,0.0682502,21.0219,179.803,0.091794,0.0,0.0
1705,426,19.3544,20.1165,150.043,98.9989,98.196,0.000432871,0.068035,21.0225,179.813,0.0724915,0.0,0.0
1736,433.75,19.6211,20.462,152.469,99.0254,98.0629,0.00015651,0.0677785,21.0226,179.813,0.0869526,0.0,0.0
1767,441.5,19.8073,21.1652,154.87,99.0679,97.976,0.000407928,0.0671412,21.0244,179.813,0.0986724,0.0,0.0
1798,449.25,19.7385,20.6506,150.791,99.0547,97.8759,0.000525359,0.0667712,21.027,179.813,0.106577,0.0,0.0
1829,457,19.5661,20.6088,153.533,99.0515,97.7165,0.000320594,0.0665455,21.0265,179.803,0.120801,0.0,0.0
1860,464.75,19.9507,20.359,155.18,99.0699,98.2185,0.000557795,0.0667823,21.0222,179.793,0.0768431,0.0,0.0
1891,472.5,20.0997,20.6475,149.08,99.0607,97.5159,0.000532935,0.0666188,21.0233,179.793,0.139921,0.0,0.0
1922,480.25,20.254,20.8882,153.996,99.0543,97.8615,0.000322787,0.0666688,21.0239,179.783,0.107853,0.0,0.0
1953,488,19.8659,20.6307,155.003,99.0563,98.2448,0.000416417,0.0666625,21.0267,179.793,0.0732346,0.0,0.0
1984,495.75,20.1759,20.7191,152.846,99.0615,98.0849,0.000319415,0.0664953,21.0269,179.793,0.088199,0.0,0.0
2015,503.5,20.166,21.0884,150.789,99.0663,98.2393,-6.74641e-06,0.0661009,21.0275,179.783,0.0746365,0.0,0.0
2046,511.25,19.8223,20.6312,157.051,99.0635,98.5615,0.000399558,0.0663609,21.029,179.773,0.0452314,0.0,0.0
2077,519,19.7206,20.5886,158.929,99.0603,97.4646,0.000627831,0.066138,21.0293,179.783,0.144569,0.0,0.0
2108,526.75,19.8831,20.7723,151.959,99.0591,98.0213,0.000690138,0.0661486,21.0293,179.793,0.093757,0.0,0.0
2139,534.5,19.8948,20.8114,152.259,99.0631,97.8093,0.000559232,0.066531,21.0277,179.793,0.113393,0.0,0.0
2170,542.25,19.9401,20.579,151.705,99.0643,98.1515,0.000480819,0.0668406,21.0264,179.783,0.0824124,0.0,0.0
2201,550,19.9011,20.9632,151.677,99.0848,98.2651,0.000524456,0.0669472,21.0262,179.783,0.0739524,0.0,0.0
2232,557.75,19.5513,20.779,154.89,99.1005,98.4877,0.000257577,0.0675233,21.0226,179.773,0.0552165,0.0,0.0
2263,565.5,19.4844,20.9687,150.873,99.0876,98.0306,0.00033542,0.0682082,21.0224,179.763,0.0954727,0.0,0.0
2294,573.25,20.1255,20.6081,152.625,99.1061,98.5055,0.000310531,0.0681989,21.0226,179.763,0.0541122,0.0,0.0
2325,581,19.9498,20.4688,149.422,99.0812,97.8458,0.000300365,0.0676783,21.0227,179.773,0.111698,0.0,0.0
2356,588.75,20.18,20.9901,153.891,99.0579,97.7288,0.000286253,0.0678601,21.0236,179.763,0.120259,0.0,0.0
2387,596.5,20.1416,20.9321,147.112,99.0495,98.478,0.000239111,0.0678049,21.0245,179.753,0.0515159,0.0,0.0
2418,604.25,19.5653,20.23,153.077,99.0049,98.1939,0.00033364,0.0675531,21.0239,179.683,0.0732251,0.0,0.0
2449,612,19.4536,20.4884,154.144,98.9643,97.4481,0.000335496,0.0676574,21.0231,179.773,0.13745,0.0,0.0
2480,619.75,18.979,19.9611,147.535,98.9194,97.7992,0.000500571,0.0691952,21.0208,179.743,0.10139,0.0,0.0
2511,627.5,19.775,20.4183,149.827,98.8282,97.6817,0.000302566,0.0684779,21.0212,179.743,0.10388,0.0,0.0
2542,635.25,19.3865,20.2607,155.732,98.7342,97.7411,0.000613207,0.0672412,21.0243,179.753,0.0900019,0.0,0.0
2573,643,19.5802,20.3769,152.417,98.6282,97.5075,0.000623476,0.0671277,21.0246,179.753,0.101742,0.0,0.0
2604,650.75,19.7202,20.4621,154.036,98.517,97.3701,0.00045338,0.0671083,21.0256,179.743,0.104247,0.0,0.0
2635,658.5,19.6724,20.2854,155.082,98.4331,97.4888,0.000340694,0.0669475,21.0254,179.753,0.0858123,0.0,0.0
2666,666.25,19.511,20.9871,152.113,98.372,97.1763,0.000428297,0.0668788,21.0255,179.723,0.108871,0.0,0.0
2697,674,19.8844,20.021,151.188,98.3536,97.8564,0.000425816,0.0666444,21.0287,179.733,0.0451142,0.0,0.0
2728,681.75,19.2048,20.4037,148.837,98.3343,97.4867,0.00024051,0.0667682,21.0291,179.723,0.0770672,0.0,0.0
2759,689.5,19.7946,20.1634,152.641,98.3536,97.4528,0.000467738,0.0669829,21.0279,179.713,0.0819109,0.0,0.0
2790,697.25,19.7165,20.3113,150.02,98.358,97.5422,0.000369565,0.0669066,21.0228,179.713,0.0741408,0.0,0.0
2821,705,19.8106,20.1657,151.005,98.3511,97.4583,0.000188398,0.0666724,21.0237,179.713,0.0811884,0.0,0.0
2852,712.75,19.4575,20.365,149.531,98.3612,97.3107,,0.0665678,,179.713,0.0955851,0.0,0.0
2883,720.5,19.1853,20.3327,153.915,98.3339,97.5287,,,,179.723,0.0731978,0.0,0.0
2886,721.25,19.4436,20.5998,152.401,98.3287,97.5147,,,,179.713,0.0740029,0.0,0.0

File: Tyvek_Wrap_Cone_HF50Scan_220308_R2.csv
Names,Time,Stack TC,Smoke TC,Exh Press,Smoke Comp,Smoke Meas,CO Meter,CO2 Meter,O2 Meter,Sample Mass,Ext Coeff,Start Test,Flame Verif
Chan Gain,,500,500,1,1,1,1,1,1,1,1,1.0,1.0
Offset,,0,0,0.134161,0,0,0,0,0,0,0,0.0,0.0
Gain,,1,1,25.011,15.9695,16.7489,1,1,1,1.00099,1.01863,1.0,1.0
Units,sec,C,C,Pa,%,%,%,%,%,g,/m,,
Baseline,,31.9136,33.3865,149.097,120.309,116.723,0.00102956,0.0582495,21.0049,-835.356,0.270434,,
7,1.5,30.6933,32.5702,151.451,120.243,116.396,0.000915784,0.0606263,21.0032,194.994,0.290569,0.0,0.0
14,3.25,30.7469,32.3338,143.695,120.247,116.346,0.000910835,0.060678,21.0027,195.064,0.294665,0.0,0.0
21,5,30.9955,32.2621,149.653,120.242,116.084,0.000956465,0.0608074,21.002,195.034,0.314424,0.0,0.0
28,6.75,31.2168,32.3619,147.046,120.228,116.961,0.00100411,0.0615327,21.0021,195.074,0.246114,0.0,0.0
35,8.5,30.9259,31.8326,150.486,120.236,115.885,0.00105143,0.0623099,21.0011,195.034,0.329308,0.0,0.0
42,10.25,31.1822,32.398,142.293,120.251,115.877,0.00118743,0.0628326,21.0005,195.074,0.331065,0.0,0.0
49,12,30.3899,32.109,147.631,120.242,115.097,0.00142937,0.0626217,21.0002,195.034,0.390761,0.0,0.0
56,13.75,31.0147,32.5022,149.045,120.237,114.455,0.00168094,0.0621486,21,195.044,0.440339,0.0,0.0
63,15.5,31.0622,32.0966,151.927,120.231,114.353,0.00193326,0.061875,20.9992,195.034,0.447889,0.0,0.0
70,17.25,31.0339,32.5754,149.367,120.231,114.749,0.00220143,0.0617663,20.9983,195.024,0.416952,0.0,0.0
77,19,30.7499,32.1957,149.248,120.248,113.265,0.00241116,0.0616548,20.9979,195.004,0.534517,0.0,0.0
84,20.75,31.2676,32.8807,151.622,120.231,113.877,0.00254185,0.061528,20.9977,195.004,0.48515,0.0,0.0
91,22.5,31.4065,32.3176,147.497,120.22,113.013,0.00255931,0.062257,20.9964,194.984,0.552395,0.0,0.0
98,24.25,31.115,32.3564,146.865,120.227,116.857,0.00241661,0.065529,20.9913,194.994,0.254048,0.0,0.0
105,26,31.0015,32.393,148.291,120.219,115.963,0.00225882,0.0730292,20.9817,194.964,0.32209,0.0,0.0
112,27.75,31.1313,32.6201,145.644,120.226,115.244,0.00216209,0.0826277,20.9676,194.954,0.378142,0.0,0.0
119,29.5,31.4423,32.8227,143.994,120.212,113.268,0.0021453,0.09491,20.9431,194.914,0.531632,0.0,0.0
126,31.25,31.2574,32.9949,143.302,120.196,113.758,0.00208587,0.108504,20.9237,194.904,0.491895,0.0,0.0
133,33,31.7857,33.3845,148.371,120.212,114.941,0.00199508,0.115437,20.9157,194.874,0.400624,0.0,0.0
140,34.75,32.3299,33.2596,148.723,120.207,115.816,0.0019128,0.114448,20.9218,194.854,0.332532,0.0,1.0
147,36.5,32.5736,34.0829,146.775,120.225,115.478,0.00184639,0.108193,20.9326,194.784,0.359977,0.0,1.0
154,38.25,33.0285,33.8962,146.082,120.177,115.913,0.00173344,0.0998383,20.9461,194.874,0.322836,0.0,1.0
161,40,32.2083,33.8763,149.905,120.185,116.699,0.00163289,0.09109,20.9593,194.894,0.26298,0.0,0.0
168,41.75,31.8433,33.3555,151.331,120.191,117.062,0.00159943,0.0835233,20.9707,194.884,0.235747,0.0,0.0
175,43.5,32.2652,34.0005,150.796,120.203,116.057,0.00162527,0.0786293,20.9771,194.864,0.313652,0.0,0.0
182,45.25,32.4531,34.3782,149.509,120.172,116.271,0.00161753,0.0754042,20.9826,194.844,0.294856,0.0,0.0
189,47,32.0189,33.9253,146.875,120.179,117.339,0.00153874,0.0724537,20.9869,194.864,0.213683,0.0,0.0
196,48.75,32.4818,33.6971,150.102,120.18,116.896,0.00147626,0.0695765,20.9896,194.844,0.2476,0.0,0.0
203,50.5,31.4644,33.3651,148.655,120.167,117.072,0.00140625,0.0671807,20.993,194.854,0.233116,0.0,0.0
210,52.25,31.5722,33.302,147.929,120.146,116.201,0.00137469,0.0656504,20.9951,194.864,0.298321,0.0,0.0
217,54,31.7686,33.1296,144.689,120.148,116.637,0.00141013,0.0647824,20.9961,194.854,0.265038,0.0,0.0
224,55.75,31.7707,33.1991,146.794,120.152,116.353,0.00147525,0.0639325,20.998,194.854,0.287091,0.0,0.0
231,57.5,31.4616,33.0777,148.365,120.146,116.613,0.00146435,0.0632237,20.9999,194.844,0.266698,0.0,0.0
238,59.25,31.2163,33.1653,149.309,120.138,116.395,0.00131203,0.0624488,21.001,194.844,0.282818,0.0,0.0
245,61,31.7268,32.9905,153.352,120.131,115.641,0.00116783,0.0617433,21.0018,194.834,0.340376,0.0,0.0
252,62.75,31.417,33.0091,150.323,120.13,116.523,0.00102905,0.0611114,21.0032,194.854,0.272395,0.0,0.0
259,64.5,31.1758,32.9556,150.997,120.143,116.474,0.00086115,0.0605049,21.0041,194.834,0.27714,0.0,0.0
266,66.25,31.4589,33.0929,150.895,120.15,116.546,0.000740749,0.0598585,21.0045,194.824,0.272081,0.0,0.0
273,68,31.0851,32.7481,147.955,120.141,116.043,0.000772374,0.0593785,21.0056,194.824,0.310112,0.0,0.0
280,69.75,31.2228,32.8632,147.649,120.118,115.716,0.000868131,0.058985,21.0063,194.814,0.333594,0.0,0.0
287,71.5,30.9022,32.8667,151.971,120.131,116.037,0.000927489,0.0588263,21.0063,194.814,0.309859,0.0,0.0
294,73.25,31.0425,32.7131,150.522,120.127,117.135,0.000988219,0.0585274,21.0071,194.814,0.225383,0.0,0.0
301,75,30.9777,32.4431,145.201,120.108,116.528,0.00111725,0.0582992,21.0079,194.804,0.270335,0.0,0.0
308,76.75,31.2608,32.7648,149.038,120.107,116.922,0.00131484,0.0582156,21.0083,194.804,0.24021,0.0,0.0
315,78.5,30.7885,31.6705,148.157,120.115,116.526,0.00144525,0.0581623,21.0084,194.794,0.271036,0.0,0.0
322,80.25,30.9182,32.9817,144.172,120.125,116.102,0.00144764,0.0581825,21.0085,194.784,0.304391,0.0,0.0
329,82,31.1069,32.6366,150.499,120.087,115.826,0.00139757,0.0582411,21.0086,194.814,0.322827,0.0,0.0
336,83.75,30.8911,32.2967,148.176,120.075,115.844,0.00135293,0.0581908,21.008,194.794,0.32058,0.0,0.0
343,85.5,30.9467,32.4901,151.537,120.082,116.308,0.00127975,0.0582765,21.0071,194.794,0.285324,0.0,0.0
350,87.25,31.3859,32.6081,147.787,120.088,116.368,0.00119828,0.0582884,21.0067,194.794,0.2812,0.0,0.0
357,89,31.3334,32.5271,148.523,120.078,115.804,0.0011388,0.0582728,21.0065,194.794,0.323798,0.0,0.0
364,90.75,31.1001,32.8097,149.201,120.072,116.672,0.0010669,0.0582843,21.0064,194.794,0.256645,0.0,0.0
371,92.5,31.2272,32.532,150.966,120.05,116.195,0.000904161,0.0582724,21.0067,194.784,0.291646,0.0,0.0
378,94.25,31.5523,32.8462,148.056,120.063,117.227,0.00073849,0.0583267,21.0069,194.784,0.21362,0.0,0.0
385,96,30.7706,32.0714,151.346,120.051,116.049,0.000719537,0.0583773,21.0072,194.773,0.302931,0.0,0.0
392,97.75,31.4125,32.2718,147.028,120.029,115.696,0.000857144,0.0584165,21.0074,194.773,0.328496,0.0,0.0
399,99.5,30.9932,32.7239,146.295,120.017,116.985,0.000969152,0.0583551,21.0075,194.773,0.228658,0.0,0.0
406,101.25,31.0502,32.6234,151.151,120.03,116.186,0.00110412,0.0582974,21.0074,194.784,0.290831,0.0,0.0
413,103,31.2505,32.098,152.42,120.043,116.627,0.00119185,0.0584415,21.0071,194.794,0.25799,0.0,0.0
420,104.75,31.1493,32.4046,148.48,120.025,116.349,0.00111102,0.0584913,21.0069,194.794,0.278012,0.0,0.0
427,106.5,30.6262,31.9835,150.998,119.99,117.702,0.000950498,0.0584245,21.0068,194.784,0.172093,0.0,0.0
434,108.25,30.9636,32.5699,152.185,120.007,117.183,0.00084748,0.0583524,21.0068,194.784,0.212835,0.0,0.0
441,110,30.142,32.1505,147.952,120,115.849,0.00086268,0.0583418,21.0068,194.773,0.31456,0.0,0.0
448,111.75,30.5892,32.944,148.127,119.998,116.553,0.000936836,0.0583711,21.0068,194.794,0.260292,0.0,0.0
455,113.5,31.023,32.3791,149.89,120.021,116.172,0.00103001,0.0584293,21.0068,194.773,0.291242,0.0,0.0
462,115.25,31.0217,32.4256,146.89,119.971,115.757,0.00114798,0.0584913,21.0068,194.763,0.319481,0.0,0.0
469,117,31.0518,32.3314,150.809,119.979,115.995,0.00121369,0.0584963,21.0068,194.743,0.301696,0.0,0.0
476,118.75,31.0361,32.3501,147.393,119.972,116.027,0.0012447,0.0584092,21.0072,194.743,0.298783,0.0,0.0
483,120.5,30.4201,32.3497,148.964,119.967,116.014,0.00127235,0.0582977,21.0077,194.753,0.299331,0.0,0.0
490,122.25,31.1826,32.6973,149.529,119.942,115.74,0.00125763,0.0582644,21.008,194.753,0.318681,0.0,0.0
497,124,31.1821,32.5349,149.609,119.94,116.678,0.0011975,0.0582246,21.0081,194.743,0.246417,0.0,0.0
504,125.75,30.813,32.4452,149.26,119.939,115.978,0.00114212,0.0582598,21.0082,194.733,0.300018,0.0,0.0
511,127.5,30.9159,32.4804,146.706,119.933,115.674,0.00114621,0.0582224,21.0082,194.733,0.323119,0.0,0.0
518,129.25,30.974,32.3121,147.924,119.908,116.679,0.00119894,0.0582421,21.0083,194.713,0.243942,0.0,0.0
525,131,31.1342,32.6639,148.526,119.885,115.371,0.00123671,0.058222,21.0083,194.723,0.342932,0.0,0.0
532,132.75,30.8169,32.8746,152.242,119.887,116.874,0.00127306,0.0581548,21.0075,194.743,0.227404,0.0,0.0
539,134.5,30.7927,32.3378,147.995,119.882,115.889,0.00133516,0.0581483,21.0067,194.733,0.302662,0.0,0.0
546,136.25,30.7296,32.1069,147.106,119.862,115.238,0.00140231,0.0582186,21.0063,194.723,0.35152,0.0,0.0
553,138,30.7377,32.6277,150.463,119.834,116.536,0.00141345,0.0582707,21.0061,194.723,0.249423,0.0,0.0
560,139.75,30.6141,32.4579,146.899,119.832,115.667,0.00136243,0.0582899,21.006,194.723,0.316081,0.0,0.0
567,141.5,30.6978,31.9312,148.318,119.823,115.57,0.00128566,0.0583495,21.006,194.713,0.322892,0.0,0.0
574,143.25,31.2458,31.5444,149.616,119.813,116.059,0.00119776,0.0583055,21.0056,194.723,0.284461,0.0,0.0
581,145,30.4195,31.927,153.6,119.786,115.949,0.00116808,0.0583433,21.0054,194.723,0.290893,0.0,0.0
588,146.75,31.0334,32.8106,147.761,119.776,115.728,0.00121843,0.0584502,21.0054,194.723,0.307239,0.0,0.0
595,148.5,30.6143,32.9752,148.616,119.788,115.771,0.0013022,0.0584676,21.0053,194.723,0.304795,0.0,0.0
602,150.25,31.2578,32.7424,144.609,119.764,115.735,0.00142564,0.0584721,21.0053,194.723,0.305775,0.0,0.0
609,152,31.0383,32.5532,146.044,119.751,116.18,0.00154848,0.0584008,21.0053,194.723,0.270526,0.0,0.0
616,153.75,30.6875,31.9369,154.221,119.732,116.015,0.00161525,0.0583394,21.0053,194.723,0.281739,0.0,0.0
623,155.5,30.6707,32.2852,152.48,119.724,115.858,0.00161143,0.0583176,21.0053,194.733,0.29329,0.0,0.0
630,157.25,30.5886,32.494,150.362,119.731,116.865,,0.0584137,,194.713,0.216438,0.0,0.0
637,159,30.9881,32.4566,144.311,119.719,116.168,,0.0588296,,194.713,0.26903,0.0,0.0
644,160.75,31.0844,32.5063,147.326,119.684,115.64,,,,194.693,0.307117,0.0,0.0
651,162.5,31.2727,32.591,147.835,119.678,115.681,,,,194.683,0.30352,0.0,0.0
658,164.25,31.1305,32.2196,147.263,119.687,116.012,,,,194.683,0.278629,0.0,0.0
665,166,31.0731,32.3376,148.188,119.683,115.251,,,,194.683,0.337185,0.0,0.0
672,167.75,31.2282,32.8312,145.968,119.659,115.927,,,,194.683,0.283168,0.0,0.0
673,168,30.2737,32.5288,148.498,119.68,114.98,,,,194.683,0.357959,0.0,0.0

File: Tyvek_Wrap_Cone_HF75Scalar_220308_R2.csv
LABORATORY,FSRI
TEST IDENT,Tyvek_HF75_2
OPERATOR,Dow
MATERIAL,Tyvek
ORIENTATION,Horizontal
HEAT FLUX,75
SURF AREA,0.00884
C FACTOR,0.039038
SPEC HOLDER DIFF,-566
SPECIMEN MASS,0.6
SCAN TIME,0.25
O2 DELAY TIME,11
CO DELAY TIME,11
CO2 DELAY TIME,8
FLOW FACTOR,1
SCAN COUNT,858
TIME TO IGN,10
END OF TEST SCAN,378
END OF TEST TIME,94.5
TEST STATUS,1
PRE TEST CMT,Thickness: 0.12 mm; with frame; with calcium silicate substrate
POST TEST CMT,The sample immediately shriveled towards the edges upon exposure. Ignition occurred in two corners of the sample and did not spread further due to a lack of sample mass to sustain flame travel. Some mass dripped down the outside of the frame - see post test pictures.