Folder: fsri_materials_database/01_Data/Gypsum_Wallboard_Gypsum_Core/MCC

Note: 01_Data/README.md
# Materials and Products Database
## 01_Data

Raw data generated from each apparatus are included here in plain-text format. The data is organized first by material, next by the short name of test apparatus used, and where applicable additional filtering by test settings.

### material.json

Each material directory contains a json file of the same name as the material. This file links the data stored in the repository as well as data and graphs produced by the accompanying scripts (__02_Scripts__) to the respective landing page for the material on the front-end website.

File: Gypsum_Wallboard_Gypsum_Core_MCC_30K_min_211004_R2.txt
Sample ID:	C:\MCC\MCC Cal\Test\Gypsum_Wallboard_GypsumCore_MCC_30K_min_211004_R2.txt
Sample Weight (mg):	4.76
Heating Rate (C/s):	0.5
Combustor Temp (C):	900
N2 Flow Rate (cc/min):	80
O2 Flow Rate (cc/min):	20
Calibration File:	C:\MCC\MCC Cal\Coeff1 JN10440_30_210304.txt.txt
T Correction Coefficients:	0	1.024463	0
Time Shift (s):	14
*
Time (s)	Temperature (C)	N2 flow rate (cc/min)	O2 flow rate (cc/min)	Flow Rate (cc/min)	Oxygen (%)	HRR (W/g)	Heating rate (C/s)
0.000	108.320	79.997	19.997	100.640	20.019	0.050	-0.017
8.000	108.301	79.995	19.996	100.654	20.016	0.210	-0.026
16.000	108.351	79.996	19.995	100.661	20.018	0.108	0.022
24.000	108.451	79.997	19.995	100.762	20.007	0.847	0.044
32.000	108.929	79.996	19.994	100.816	19.992	1.816	0.070
39.999	109.915	79.994	19.996	100.876	19.975	2.910	0.135
47.999	111.478	79.995	19.996	100.867	19.973	3.056	0.171
55.999	113.326	79.996	19.995	100.866	19.969	3.354	0.254
64.000	115.605	79.995	19.995	100.873	19.974	2.978	0.300
71.999	118.156	79.996	19.995	100.889	19.978	2.736	0.361
79.999	120.960	79.996	19.996	100.893	19.970	3.294	0.358
87.999	123.917	79.997	19.996	100.900	19.973	3.092	0.349
95.999	127.190	79.996	19.994	100.900	19.967	3.440	0.427
103.999	130.533	79.997	19.995	100.905	19.972	3.141	0.418
111.999	134.123	79.997	19.995	100.899	19.969	3.362	0.462
120.000	137.803	79.997	19.994	100.899	19.973	3.096	0.456
128.000	141.586	79.995	19.995	100.896	19.970	3.276	0.472
136.000	145.530	79.997	19.995	100.897	19.969	3.330	0.506
144.000	149.457	79.996	19.995	100.891	19.971	3.222	0.524
152.000	153.454	79.995	19.995	100.886	19.974	2.987	0.495
160.000	157.424	79.996	19.997	100.885	19.972	3.163	0.526
168.000	161.437	79.995	19.996	100.878	19.971	3.224	0.532
176.000	165.374	79.995	19.995	100.860	19.970	3.269	0.494
184.000	169.442	79.997	19.995	100.859	19.974	3.001	0.521
192.000	173.460	79.997	19.994	100.856	19.981	2.510	0.562
200.000	177.473	79.995	19.996	100.848	19.978	2.711	0.512
208.000	181.485	79.996	19.995	100.850	19.976	2.841	0.487
216.000	185.463	79.997	19.995	100.853	19.979	2.676	0.529
224.000	189.474	79.997	19.995	100.837	19.981	2.504	0.499
232.000	193.384	79.995	19.996	100.833	19.979	2.696	0.517
240.000	197.329	79.995	19.995	100.847	19.980	2.599	0.490
248.000	201.188	79.997	19.996	100.838	19.978	2.701	0.504
256.000	205.128	79.996	19.996	100.823	19.982	2.498	0.493
264.000	209.092	79.996	19.997	100.820	19.979	2.658	0.468
272.000	213.025	79.998	19.996	100.818	19.983	2.423	0.481
280.000	216.937	79.996	19.994	100.818	19.985	2.288	0.487
288.000	220.905	79.996	19.996	100.821	19.980	2.576	0.483
296.000	224.859	79.995	19.995	100.820	19.979	2.696	0.519
304.000	228.825	79.996	19.995	100.818	19.982	2.469	0.511
312.000	232.820	79.995	19.995	100.818	19.975	2.934	0.492
320.000	236.821	79.994	19.996	100.814	19.980	2.624	0.510
328.000	240.713	79.996	19.995	100.841	19.980	2.618	0.524
336.000	244.696	79.997	19.996	100.802	19.982	2.442	0.487
344.000	248.688	79.995	19.997	100.811	19.979	2.672	0.507
352.000	252.753	79.996	19.996	100.800	19.978	2.715	0.480
360.000	256.730	79.996	19.996	100.813	19.981	2.548	0.496
368.000	260.740	79.994	19.995	100.807	19.977	2.771	0.491
376.000	264.719	79.996	19.995	100.794	19.983	2.381	0.497
384.000	268.708	79.995	19.995	100.803	19.982	2.469	0.561
392.000	272.729	79.996	19.996	100.794	19.981	2.533	0.515
400.000	276.658	79.996	19.996	100.785	19.985	2.300	0.474
408.000	280.647	79.996	19.995	100.794	19.982	2.465	0.511
416.000	284.620	79.997	19.996	100.798	19.985	2.289	0.462
424.000	288.635	79.996	19.997	100.784	19.988	2.080	0.496
432.000	292.683	79.996	19.995	100.786	19.986	2.190	0.487
440.000	296.694	79.999	19.996	100.782	19.980	2.589	0.505
448.000	300.690	79.995	19.995	100.781	19.982	2.492	0.491
456.000	304.672	79.996	19.997	100.777	19.983	2.434	0.510
464.000	308.621	79.996	19.995	100.778	19.979	2.637	0.501
472.000	312.982	79.996	19.996	100.780	19.981	2.506	0.782
480.000	316.732	79.995	19.995	100.810	19.983	2.402	0.494
488.000	320.730	79.994	19.995	100.783	19.981	2.522	0.513
496.000	324.729	79.996	19.996	100.781	19.985	2.290	0.481
504.000	328.783	79.997	19.994	100.783	19.982	2.488	0.502
512.000	332.834	79.996	19.995	100.779	19.984	2.335	0.514
520.000	336.921	79.998	19.995	100.778	19.987	2.154	0.514
528.000	340.993	79.996	19.995	100.777	19.982	2.494	0.509
536.000	344.951	79.994	19.996	100.767	19.983	2.375	0.487
544.000	348.972	79.993	19.996	100.775	19.983	2.382	0.485
552.000	352.955	79.994	19.994	100.775	19.980	2.578	0.505
560.000	357.008	79.995	19.994	100.770	19.984	2.342	0.490
568.000	360.949	79.993	19.996	100.760	19.984	2.306	0.530
576.000	364.924	79.996	19.996	100.754	19.981	2.509	0.503
584.000	368.934	79.996	19.995	100.761	19.981	2.538	0.507
592.000	372.949	79.997	19.996	100.767	19.982	2.448	0.507
600.000	376.892	79.997	19.995	100.764	19.979	2.680	0.468
608.000	380.929	79.996	19.994	100.748	19.983	2.421	0.491
616.000	384.808	79.994	19.995	100.742	19.984	2.347	0.487
624.000	388.751	79.994	19.995	100.748	19.988	2.056	0.505
632.000	392.670	79.996	19.995	100.758	19.991	1.860	0.474
640.000	396.693	79.995	19.997	100.746	19.984	2.306	0.495
648.000	400.622	79.996	19.995	100.754	19.986	2.195	0.505
656.000	404.551	79.997	19.996	100.743	19.984	2.346	0.482
664.000	408.526	79.998	19.995	100.750	19.984	2.324	0.528
672.000	412.532	79.996	19.996	100.744	19.983	2.430	0.504
680.000	416.424	79.999	19.996	100.745	19.983	2.388	0.474
688.000	420.429	79.998	19.995	100.747	19.985	2.272	0.487
696.000	424.381	79.994	19.994	100.746	19.985	2.277	0.485
704.000	428.420	79.996	19.996	100.750	19.981	2.563	0.550
712.000	432.439	79.995	19.996	100.740	19.983	2.381	0.495
720.000	436.576	79.997	19.995	100.741	19.985	2.291	0.516
728.000	440.785	79.994	19.996	100.746	19.985	2.264	0.525
736.000	444.924	79.995	19.997	100.742	19.987	2.135	0.485
744.000	449.215	79.998	19.996	100.749	19.991	1.860	0.562
752.000	453.470	79.997	19.996	100.742	19.990	1.950	0.512
760.000	457.761	79.997	19.996	100.744	19.991	1.874	0.516
768.000	461.997	79.996	19.997	100.744	19.987	2.167	0.551
776.000	466.177	79.998	19.995	100.740	19.987	2.104	0.533
784.000	470.376	79.996	19.996	100.741	19.989	2.013	0.546
792.000	474.581	79.995	19.996	100.741	19.988	2.047	0.534
800.000	478.694	79.996	19.996	100.739	19.989	2.007	0.495
808.000	482.730	79.994	19.995	100.743	19.989	1.979	0.509
816.000	486.811	79.994	19.996	100.741	19.990	1.923	0.494
824.000	490.929	79.996	19.996	100.741	19.991	1.842	0.502
832.000	495.023	79.996	19.996	100.737	19.993	1.711	0.476
840.000	499.057	79.996	19.995	100.740	19.992	1.838	0.511
848.000	502.984	79.996	19.996	100.742	19.992	1.815	0.472
856.000	506.991	79.999	19.996	100.738	19.992	1.822	0.497
864.000	511.023	79.996	19.995	100.741	19.992	1.835	0.508
872.000	515.053	79.995	19.994	100.740	19.995	1.623	0.512
880.000	519.089	79.996	19.996	100.739	19.991	1.882	0.465
888.000	523.205	79.995	19.995	100.742	19.989	2.022	0.519
896.000	527.293	79.995	19.997	100.744	19.990	1.959	0.516
904.000	531.576	79.997	19.996	100.739	19.991	1.867	0.540
912.000	535.854	79.998	19.997	100.740	19.991	1.901	0.517
920.000	540.052	79.997	19.997	100.733	19.986	2.194	0.519
928.000	544.190	79.999	19.996	100.734	19.990	1.971	0.513
936.000	548.260	80.000	19.995	100.739	19.994	1.693	0.493
944.000	552.307	79.996	19.996	100.739	19.994	1.707	0.520
952.000	556.343	79.995	19.995	100.740	19.992	1.799	0.472
960.000	560.253	79.995	19.997	100.732	19.990	1.943	0.484
968.000	564.104	79.997	19.995	100.732	19.992	1.795	0.491
976.000	567.927	79.995	19.995	100.729	19.990	1.917	0.481
984.000	571.726	79.997	19.996	100.727	19.990	1.971	0.462
992.000	575.610	79.997	19.996	100.723	19.991	1.862	0.484
1000.000	579.357	79.997	19.995	100.727	19.991	1.889	0.431
1008.000	583.185	79.995	19.997	100.737	19.991	1.849	0.478
1016.000	587.106	79.997	19.996	100.741	19.986	2.232	0.499
1024.000	591.184	79.997	19.995	100.741	19.985	2.282	0.511
1031.999	595.352	79.997	19.995	100.735	19.992	1.808	0.547
1039.999	599.473	79.996	19.996	100.740	19.993	1.749	0.521
1047.999	603.597	79.995	19.997	100.738	19.988	2.094	0.492
1055.999	607.657	79.996	19.996	100.740	19.991	1.864	0.486
1063.999	611.752	79.996	19.995	100.740	19.991	1.867	0.525
1071.999	615.880	79.998	19.996	100.743	19.983	2.428	0.535
1079.999	619.961	79.996	19.996	100.742	19.991	1.887	0.494
1087.999	624.031	79.997	19.997	100.744	19.983	2.395	0.502
1095.999	628.042	79.997	19.996	100.733	19.989	2.012	0.514
1103.999	632.049	79.995	19.996	100.703	19.987	2.153	0.505
1111.999	636.067	79.996	19.997	100.738	19.990	1.907	0.502
1119.999	640.054	79.997	19.997	100.739	19.987	2.166	0.486
1127.999	644.062	79.997	19.997	100.741	19.987	2.112	0.474
1135.999	648.119	79.997	19.997	100.744	19.986	2.232	0.516
1143.999	652.241	79.995	19.995	100.743	19.987	2.149	0.511
1151.999	656.483	79.998	19.996	100.745	19.985	2.279	0.536
1160.000	660.677	79.999	19.996	100.743	19.992	1.813	0.519
1167.999	664.908	79.997	19.997	100.742	19.991	1.900	0.546
1175.999	669.131	79.998	19.996	100.739	19.980	2.615	0.534
1183.999	673.237	79.997	19.996	100.740	19.987	2.121	0.517
1191.999	677.333	79.995	19.996	100.741	19.989	2.036	0.514
1200.000	681.486	79.994	19.996	100.743	19.984	2.356	0.511
1207.999	685.614	79.994	19.995	100.742	19.992	1.830	0.517
1215.999	689.662	79.994	19.996	100.744	19.986	2.178	0.552
1223.999	693.697	79.995	19.995	100.743	19.983	2.408	0.503
1231.999	697.704	79.996	19.996	100.741	19.982	2.480	0.509
1239.999	701.687	79.998	19.996	100.744	19.979	2.669	0.506
1247.999	705.674	79.998	19.997	100.738	19.985	2.290	0.496
1255.999	709.760	79.998	19.997	100.742	19.990	1.971	0.526
1264.000	713.785	79.999	19.996	100.738	19.987	2.165	0.495
1271.999	717.845	79.995	19.996	100.735	19.986	2.200	0.493
1279.999	721.817	79.995	19.996	100.738	19.988	2.063	0.504
1287.999	725.789	79.995	19.997	100.736	19.990	1.941	0.518
1295.999	729.821	79.996	19.996	100.725	19.987	2.127	0.497
1304.000	733.760	79.994	19.996	100.727	19.989	2.018	0.474
1312.000	737.755	79.997	19.995	100.732	19.989	2.021	0.507
1319.999	741.742	79.998	19.997	100.739	19.990	1.912	0.516
1323.499	743.468	79.997	19.996	100.721	19.988	2.093	0.519

File: Gypsum_Wallboard_Gypsum_Core_MCC_30K_min_211004_R3.txt
Sample ID:	C:\MCC\MCC Cal\Test\Gypsum_Wallboard_GypsumCore_MCC_30K_min_211004_R3.txt
Sample Weight (mg):	4.5
Heating Rate (C/s):	0.5
Combustor Temp (C):	900
N2 Flow Rate (cc/min):	80
O2 Flow Rate (cc/min):	20
Calibration File:	C:\MCC\MCC Cal\Coeff1 JN10440_30_210304.txt.txt
T Correction Coefficients:	0	1.024463	0
Time Shift (s):	14
*
Time (s)	Temperature (C)	N2 flow rate (cc/min)	O2 flow rate (cc/min)	Flow Rate (cc/min)	Oxygen (%)	HRR (W/g)	Heating rate (C/s)
0.000	108.340	79.995	19.997	100.583	20.085	0.325	0.015
8.000	108.345	79.997	19.995	100.604	20.088	0.133	-0.010
16.000	108.387	79.996	19.994	100.659	20.077	0.884	0.035
24.000	108.678	79.993	19.996	100.738	20.064	1.789	0.054
32.000	109.479	79.994	19.996	100.742	20.058	2.257	0.133
39.999	110.478	79.997	19.996	100.740	20.057	2.271	0.122
47.999	111.793	79.995	19.995	100.782	20.049	2.833	0.213
55.999	113.460	79.994	19.996	100.806	20.048	2.938	0.217
63.999	115.434	79.996	19.995	100.828	20.042	3.366	0.268
71.999	117.757	79.995	19.996	100.838	20.046	3.056	0.300
80.000	120.389	79.994	19.996	100.838	20.042	3.351	0.364
87.999	123.277	79.995	19.995	100.855	20.042	3.363	0.394
95.999	126.328	79.994	19.997	100.849	20.040	3.502	0.422
103.999	129.595	79.994	19.996	100.891	20.040	3.477	0.444
111.999	133.030	79.993	19.996	100.856	20.040	3.477	0.438
120.000	136.742	79.995	19.997	100.855	20.038	3.627	0.481
127.999	140.455	79.994	19.996	100.857	20.038	3.629	0.468
136.000	144.314	79.995	19.996	100.860	20.041	3.437	0.477
144.000	148.276	79.995	19.996	100.850	20.038	3.646	0.513
152.000	152.206	79.997	19.995	100.849	20.043	3.261	0.511
160.000	156.059	79.997	19.996	100.833	20.045	3.155	0.471
168.000	160.067	79.996	19.995	100.845	20.043	3.255	0.529
176.000	164.082	79.995	19.996	100.831	20.047	3.004	0.522
184.000	168.113	79.995	19.996	100.828	20.049	2.886	0.525
192.000	172.103	79.995	19.996	100.821	20.046	3.097	0.504
200.000	176.122	79.994	19.995	100.820	20.049	2.873	0.518
208.000	180.102	79.993	19.997	100.821	20.052	2.618	0.488
216.000	184.189	79.993	19.996	100.822	20.051	2.720	0.528
224.000	188.247	79.996	19.995	100.818	20.054	2.524	0.518
232.000	192.281	79.996	19.995	100.813	20.053	2.604	0.484
240.000	196.287	79.995	19.996	100.806	20.055	2.452	0.457
248.000	200.232	79.997	19.996	100.785	20.057	2.330	0.476
256.000	204.144	79.996	19.995	100.793	20.053	2.591	0.458
264.000	208.061	79.995	19.996	100.793	20.051	2.693	0.518
272.000	211.927	79.996	19.996	100.799	20.058	2.222	0.497
280.000	215.732	79.996	19.996	100.795	20.058	2.224	0.472
288.000	219.688	79.995	19.997	100.757	20.061	2.044	0.521
296.000	223.625	79.996	19.998	100.782	20.056	2.368	0.492
304.000	227.469	79.998	19.997	100.779	20.062	1.961	0.496
312.000	231.351	79.997	19.996	100.780	20.059	2.172	0.454
320.000	235.225	79.995	19.995	100.782	20.059	2.174	0.465
328.000	239.064	79.997	19.996	100.795	20.057	2.267	0.487
336.000	243.058	79.996	19.996	100.802	20.062	1.980	0.536
344.000	247.096	79.995	19.994	100.807	20.057	2.301	0.500
352.000	251.297	79.995	19.995	100.788	20.054	2.474	0.531
360.000	255.475	79.995	19.997	100.794	20.055	2.411	0.504
368.000	259.660	79.995	19.996	100.785	20.064	1.839	0.543
376.000	263.830	79.994	19.998	100.780	20.056	2.358	0.513
384.000	267.891	79.996	19.995	100.781	20.057	2.320	0.496
392.000	271.981	79.995	19.997	100.779	20.053	2.579	0.527
400.000	275.941	79.995	19.996	100.779	20.051	2.727	0.478
408.000	279.927	79.996	19.995	100.762	20.059	2.141	0.473
416.000	283.751	79.996	19.996	100.765	20.054	2.497	0.465
424.000	287.584	79.995	19.997	100.764	20.056	2.362	0.436
432.000	291.440	79.996	19.996	100.775	20.051	2.710	0.458
440.000	295.426	79.995	19.995	100.774	20.054	2.503	0.503
448.000	299.426	79.995	19.996	100.781	20.054	2.533	0.489
456.000	303.411	79.995	19.998	100.781	20.049	2.847	0.526
464.000	307.441	79.996	19.996	100.781	20.050	2.794	0.493
472.000	311.463	79.995	19.995	100.776	20.052	2.637	0.546
480.000	315.536	79.994	19.996	100.768	20.057	2.297	0.504
488.000	319.613	79.996	19.994	100.770	20.054	2.504	0.514
496.000	323.670	79.996	19.995	100.769	20.059	2.158	0.477
504.000	327.694	79.995	19.996	100.758	20.056	2.354	0.511
512.000	331.657	79.995	19.995	100.762	20.059	2.135	0.502
520.000	335.635	79.995	19.995	100.757	20.052	2.631	0.497
528.000	339.502	79.996	19.995	100.762	20.061	2.036	0.450
536.000	343.440	79.995	19.995	100.756	20.060	2.103	0.476
544.000	347.431	79.995	19.996	100.764	20.055	2.413	0.487
552.000	351.383	79.997	19.995	100.758	20.054	2.524	0.497
560.000	355.453	79.997	19.997	100.697	20.060	2.101	0.496
568.000	359.509	79.995	19.997	100.761	20.050	2.764	0.535
576.000	363.798	79.996	19.997	100.770	20.053	2.597	0.598
584.000	367.763	79.995	19.996	100.762	20.056	2.361	0.545
592.000	371.928	79.995	19.995	100.758	20.058	2.200	0.529
600.000	376.159	79.995	19.995	100.750	20.053	2.583	0.517
608.000	380.229	79.994	19.996	100.745	20.055	2.418	0.480
616.000	384.203	79.995	19.995	100.744	20.059	2.156	0.487
624.000	388.132	79.996	19.995	100.741	20.055	2.411	0.501
632.000	392.117	79.996	19.996	100.741	20.055	2.439	0.503
640.000	396.077	79.995	19.996	100.741	20.056	2.358	0.521
648.000	400.046	79.996	19.996	100.748	20.053	2.571	0.490
656.000	404.227	79.997	19.996	100.769	20.055	2.445	0.554
664.000	408.453	79.994	19.997	100.769	20.053	2.559	0.562
672.000	412.732	79.996	19.996	100.756	20.054	2.502	0.573
680.000	417.021	79.996	19.996	100.757	20.053	2.606	0.566
688.000	421.382	79.995	19.997	100.748	20.052	2.620	0.529
696.000	425.714	79.995	19.995	100.745	20.054	2.536	0.545
704.000	430.026	79.997	19.995	100.746	20.050	2.798	0.522
712.000	434.332	79.996	19.995	100.742	20.051	2.684	0.540
720.000	438.534	79.996	19.995	100.743	20.054	2.481	0.508
728.000	442.669	79.996	19.997	100.748	20.053	2.599	0.518
736.000	446.869	79.998	19.995	100.740	20.052	2.646	0.512
744.000	450.914	79.995	19.997	100.734	20.051	2.716	0.469
752.000	455.037	79.993	19.997	100.739	20.048	2.945	0.521
760.000	459.092	79.995	19.995	100.738	20.048	2.907	0.472
768.000	463.097	79.995	19.995	100.739	20.051	2.735	0.471
776.000	467.148	79.995	19.996	100.742	20.049	2.853	0.518
784.000	471.238	79.996	19.997	100.743	20.053	2.593	0.498
792.000	475.355	79.996	19.994	100.737	20.049	2.855	0.531
800.000	479.414	79.997	19.996	100.743	20.053	2.589	0.493
808.000	483.513	79.998	19.995	100.740	20.053	2.593	0.509
816.000	487.673	79.998	19.995	100.707	20.052	2.627	0.515
824.000	491.713	79.996	19.996	100.738	20.051	2.707	0.499
832.000	495.850	79.996	19.996	100.735	20.050	2.755	0.482
840.000	499.920	79.995	19.995	100.742	20.053	2.589	0.498
848.000	503.975	79.994	19.996	100.740	20.050	2.800	0.479
856.000	508.103	79.993	19.996	100.733	20.050	2.806	0.525
864.000	512.137	79.997	19.996	100.738	20.051	2.697	0.476
872.000	516.270	79.997	19.996	100.740	20.045	3.165	0.510
880.000	520.401	79.997	19.995	100.727	20.050	2.794	0.519
888.000	524.497	79.997	19.995	100.739	20.051	2.711	0.505
896.000	528.576	79.998	19.995	100.734	20.050	2.802	0.510
904.000	532.643	79.996	19.995	100.732	20.044	3.171	0.486
912.000	536.758	79.995	19.996	100.736	20.049	2.855	0.526
920.000	540.793	79.995	19.995	100.730	20.050	2.788	0.507
928.000	544.830	79.997	19.997	100.743	20.050	2.771	0.523
936.000	548.879	79.993	19.996	100.738	20.047	3.007	0.516
944.000	552.920	79.996	19.995	100.737	20.043	3.254	0.528
952.000	557.001	79.997	19.994	100.737	20.045	3.123	0.510
960.000	561.031	79.996	19.997	100.736	20.044	3.171	0.488
968.000	565.090	79.996	19.994	100.734	20.043	3.270	0.512
976.000	569.198	79.997	19.994	100.729	20.046	3.083	0.495
984.000	573.216	79.996	19.995	100.741	20.047	2.977	0.495
992.000	577.349	79.997	19.995	100.738	20.042	3.332	0.494
1000.000	581.428	79.994	19.996	100.739	20.043	3.304	0.508
1008.000	585.416	79.995	19.995	100.729	20.042	3.378	0.495
1016.000	589.464	79.994	19.997	100.736	20.040	3.488	0.512
1024.000	593.445	79.995	19.996	100.739	20.045	3.114	0.477
1031.999	597.528	79.996	19.997	100.738	20.041	3.424	0.488
1039.999	601.611	79.995	19.995	100.738	20.041	3.395	0.495
1047.999	605.678	79.996	19.995	100.744	20.039	3.532	0.504
1055.999	609.781	79.997	19.995	100.740	20.034	3.878	0.520
1063.999	613.803	79.996	19.996	100.737	20.034	3.914	0.486
1072.000	617.844	79.995	19.995	100.736	20.038	3.652	0.499
1080.000	621.930	79.996	19.996	100.741	20.039	3.568	0.517
1088.000	626.028	79.995	19.997	100.739	20.040	3.477	0.520
1096.000	630.097	79.994	19.998	100.743	20.039	3.572	0.488
1104.000	634.142	79.995	19.997	100.735	20.039	3.536	0.523
1112.000	638.244	79.996	19.995	100.742	20.037	3.726	0.532
1120.000	642.310	79.995	19.995	100.742	20.034	3.870	0.518
1128.000	646.306	79.996	19.997	100.744	20.040	3.483	0.540
1136.000	650.361	79.998	19.995	100.740	20.037	3.720	0.501
1144.000	654.462	79.997	19.997	100.742	20.034	3.937	0.515
1152.000	658.507	79.995	19.996	100.747	20.035	3.857	0.514
1160.000	662.443	79.996	19.996	100.748	20.037	3.709	0.506
1168.000	666.247	79.997	19.994	100.747	20.037	3.667	0.462
1176.000	669.944	79.996	19.995	100.745	20.031	4.099	0.431
1184.000	673.592	79.994	19.996	100.752	20.028	4.314	0.454
1192.000	677.354	79.996	19.995	100.749	20.034	3.906	0.438
1200.000	681.145	79.997	19.995	100.747	20.028	4.289	0.496
1208.001	685.000	79.998	19.996	100.742	20.026	4.494	0.469
1216.000	688.902	79.998	19.997	100.748	20.030	4.188	0.503
1224.000	692.939	79.996	19.996	100.755	20.030	4.171	0.504
1232.000	697.096	79.997	19.995	100.754	20.026	4.466	0.525
1240.000	701.281	79.996	19.995	100.747	20.025	4.500	0.552
1248.000	705.432	79.995	19.996	100.749	20.028	4.340	0.501
1256.000	709.568	79.994	19.995	100.742	20.025	4.548	0.560
1264.001	713.681	79.996	19.995	100.748	20.021	4.796	0.527
1272.000	717.863	79.997	19.996	100.743	20.024	4.570	0.503
1280.000	722.099	79.997	19.996	100.744	20.019	4.971	0.513
1288.000	726.334	79.996	19.996	100.742	20.026	4.445	0.529
1296.000	730.570	79.997	19.996	100.744	20.023	4.642	0.516
1304.000	734.743	79.996	19.996	100.743	20.024	4.606	0.510
1312.000	738.827	79.994	19.996	100.741	20.023	4.638	0.484
1320.000	742.879	79.995	19.997	100.742	20.022	4.749	0.515
1321.500	743.648	79.997	19.996	100.742	20.023	4.669	0.497