Folder: fsri_materials_database/01_Data/Polyurethane_Foam/FTIR/ATR

Note: 01_Data/README.md
# Materials and Products Database
## 01_Data

Raw data generated from each apparatus are included here in plain-text format. The data is organized first by material, next by the short name of test apparatus used, and where applicable additional filtering by test settings.

### material.json

Each material directory contains a json file of the same name as the material. This file links the data stored in the repository as well as data and graphs produced by the accompanying scripts (__02_Scripts__) to the respective landing page for the material on the front-end website.

File: Polyurethane_Foam_ATR_210608_R1.tst
4497.79,-0.00554
4484.29,-0.00535
4470.79,-0.00526
4457.29,-0.00516
4443.79,-0.00496
4430.28,-0.00492
4416.78,-0.00450
4403.28,-0.00413
4389.78,-0.00430
4376.28,-0.00398
4362.78,-0.00377
4349.28,-0.00372
4335.78,-0.00330
4322.28,-0.00321
4308.77,-0.00372
4295.27,-0.00367
4281.77,-0.00385
4268.27,-0.00379
4254.77,-0.00381
4241.27,-0.00385
4227.77,-0.00390
4214.27,-0.00392
4200.77,-0.00377
4187.26,-0.00366
4173.76,-0.00360
4160.26,-0.00352
4146.76,-0.00348
4133.26,-0.00333
4119.76,-0.00330
4106.26,-0.00291
4092.76,-0.00304
4079.26,-0.00255
4065.75,-0.00276
4052.25,-0.00272
4038.75,-0.00258
4025.25,-0.00217
4011.75,-0.00210
3998.25,-0.00227
3984.75,-0.00220
3971.25,-0.00129
3957.75,-0.00135
3944.25,-0.00037
3930.74,0.00040
3917.24,0.00012
3903.74,0.00368
3890.24,0.00046
3876.74,-0.00060
3863.24,0.00308
3849.74,0.00118
3836.24,0.00306
3822.74,0.00263
3809.23,-0.00090
3795.73,-0.00029
3782.23,-0.00063
3768.73,0.00103
3755.23,0.00267
3741.73,0.00368
3728.23,0.00177
3714.73,0.00099
3701.23,-0.00052
3687.72,0.00222
3674.22,0.00430
3660.72,-0.00008
3647.22,0.00586
3633.72,0.00276
3620.22,0.00572
3606.72,0.00460
3593.22,0.00482
3579.72,0.00445
3566.21,0.00958
3552.71,0.00599
3539.21,0.00481
3525.71,0.00849
3512.21,0.00620
3498.71,0.00614
3485.21,0.00609
3471.71,0.00524
3458.21,0.00592
3444.7,0.00638
3431.2,0.00568
3417.7,0.00665
3404.2,0.00784
3390.7,0.01066
3377.2,0.01365
3363.7,0.01715
3350.2,0.01939
3336.7,0.02311
3323.2,0.02605
3309.69,0.02961
3296.19,0.03134
3282.69,0.03134
3269.19,0.02933
3255.69,0.02582
3242.19,0.02128
3228.69,0.01749
3215.19,0.01498
3201.69,0.01353
3188.18,0.01176
3174.68,0.01041
3161.18,0.00916
3147.68,0.00886
3134.18,0.00865
3120.68,0.00860
3107.18,0.00797
3093.68,0.00828
3080.18,0.00896
3066.67,0.00909
3053.17,0.00877
3039.67,0.00883
3026.17,0.00939
3012.67,0.01041
2999.17,0.01819
2985.67,0.04406
2972.17,0.07445
2958.67,0.04445
2945.16,0.04443
2931.66,0.06908
2918.16,0.06618
2904.66,0.07196
2891.16,0.07604
2877.66,0.08308
2864.16,0.08740
2850.66,0.06221
2837.16,0.03192
2823.66,0.01948
2810.15,0.01631
2796.65,0.01511
2783.15,0.01371
2769.65,0.01203
2756.15,0.01070
2742.65,0.00958
2729.15,0.00870
2715.65,0.00741
2702.15,0.00667
2688.64,0.00598
2675.14,0.00578
2661.64,0.00545
2648.14,0.00472
2634.64,0.00413
2621.14,0.00348
2607.64,0.00325
2594.14,0.00332
2580.64,0.00311
2567.13,0.00248
2553.63,0.00217
2540.13,0.00210
2526.63,0.00198
2513.13,0.00194
2499.63,0.00195
2486.13,0.00203
2472.63,0.00207
2459.13,0.00189
2445.62,0.00169
2432.12,0.00195
2418.62,0.00184
2405.12,0.00204
2391.62,0.00225
2378.12,0.00250
2364.62,-0.00443
2351.12,0.00034
2337.62,-0.00300
2324.12,0.00071
2310.61,0.00338
2297.11,0.00359
2283.61,0.00423
2270.11,0.00425
2256.61,0.00324
2243.11,0.00280
2229.61,0.00213
2216.11,0.00160
2202.61,0.00130
2189.1,0.00056
2175.6,-0.00001
2162.1,-0.00120
2148.6,0.00086
2135.1,0.00125
2121.6,0.00133
2108.1,0.00144
2094.6,0.00205
2081.1,0.00225
2067.59,0.00293
2054.09,0.00267
2040.59,0.00292
2027.09,0.00284
2013.59,0.00299
2000.09,0.00325
1986.59,0.00360
1973.09,0.00313
1959.59,0.00352
1946.08,0.00476
1932.58,0.00412
1919.08,0.00564
1905.58,0.00480
1892.08,0.00536
1878.58,0.00474
1865.08,0.00590
1851.58,0.00503
1838.08,0.00597
1824.57,0.00725
1811.07,0.00792
1797.57,0.00983
1784.07,0.00950
1770.57,0.01306
1757.07,0.01573
1743.57,0.04052
1730.07,0.08174
1716.57,0.08290
1703.07,0.06948
1689.56,0.05649
1676.06,0.05372
1662.56,0.05884
1649.06,0.08239
1635.56,0.08878
1622.06,0.06214
1608.56,0.08044
1595.06,0.09250
1581.56,0.06467
1568.05,0.08827
1554.55,0.14698
1541.05,0.17814
1527.55,0.17154
1514.05,0.12717
1500.55,0.11481
1487.05,0.09252
1473.55,0.10906
1460.05,0.10687
1446.54,0.11630
1433.04,0.06765
1419.54,0.07138
1406.04,0.07550
1392.54,0.06977
1379.04,0.11249
1365.54,0.09174
1352.04,0.06367
1338.54,0.07773
1325.03,0.06933
1311.53,0.08444
1298.03,0.10147
1284.53,0.09085
1271.03,0.09577
1257.53,0.10236
1244.03,0.12334
1230.53,0.17310
1217.03,0.16873
1203.53,0.12921
1190.02,0.10434
1176.52,0.10930
1163.02,0.14486
1149.52,0.18064
1136.02,0.22594
1122.52,0.29659
1109.02,0.39427
1095.52,0.44610
1082.02,0.43561
1068.51,0.36674
1055.01,0.28074
1041.51,0.19093
1028.01,0.14622
1014.51,0.15867
1001.01,0.14475
987.508,0.08995
974.007,0.07630
960.506,0.06962
947.005,0.06852
933.503,0.10090
920.002,0.10022
906.501,0.08627
893,0.06715
879.499,0.07216
865.998,0.07694
852.497,0.06895
838.996,0.06932
825.495,0.08623
811.994,0.09524
798.493,0.07568
784.992,0.06690
771.49,0.07819
757.989,0.07563
744.488,0.06631
730.987,0.06162
717.486,0.06984
703.985,0.07622
690.484,0.08290
676.983,0.09093
663.482,0.09565
649.981,0.08924
636.48,0.08572
622.979,0.07854
609.477,0.07660
599.834,0.08330

File: Polyurethane_Foam_ATR_210608_R2.tst
4497.79,-0.00527
4484.29,-0.00484
4470.79,-0.00476
4457.29,-0.00459
4443.79,-0.00446
4430.28,-0.00418
4416.78,-0.00378
4403.28,-0.00385
4389.78,-0.00378
4376.28,-0.00360
4362.78,-0.00325
4349.28,-0.00323
4335.78,-0.00285
4322.28,-0.00310
4308.77,-0.00314
4295.27,-0.00335
4281.77,-0.00331
4268.27,-0.00313
4254.77,-0.00326
4241.27,-0.00344
4227.77,-0.00340
4214.27,-0.00333
4200.77,-0.00316
4187.26,-0.00323
4173.76,-0.00304
4160.26,-0.00304
4146.76,-0.00299
4133.26,-0.00276
4119.76,-0.00267
4106.26,-0.00241
4092.76,-0.00271
4079.26,-0.00220
4065.75,-0.00236
4052.25,-0.00219
4038.75,-0.00222
4025.25,-0.00151
4011.75,-0.00163
3998.25,-0.00179
3984.75,-0.00150
3971.25,-0.00111
3957.75,-0.00089
3944.25,0.00008
3930.74,0.00099
3917.24,0.00077
3903.74,0.00456
3890.24,0.00082
3876.74,-0.00017
3863.24,0.00351
3849.74,0.00147
3836.24,0.00352
3822.74,0.00327
3809.23,-0.00019
3795.73,0.00007
3782.23,-0.00006
3768.73,0.00139
3755.23,0.00355
3741.73,0.00451
3728.23,0.00255
3714.73,0.00194
3701.23,0.00019
3687.72,0.00275
3674.22,0.00467
3660.72,0.00051
3647.22,0.00611
3633.72,0.00323
3620.22,0.00670
3606.72,0.00527
3593.22,0.00544
3579.72,0.00513
3566.21,0.01049
3552.71,0.00663
3539.21,0.00560
3525.71,0.00943
3512.21,0.00703
3498.71,0.00718
3485.21,0.00710
3471.71,0.00621
3458.21,0.00694
3444.7,0.00743
3431.2,0.00661
3417.7,0.00778
3404.2,0.00892
3390.7,0.01170
3377.2,0.01470
3363.7,0.01839
3350.2,0.02044
3336.7,0.02418
3323.2,0.02700
3309.69,0.03066
3296.19,0.03233
3282.69,0.03237
3269.19,0.03030
3255.69,0.02678
3242.19,0.02219
3228.69,0.01844
3215.19,0.01606
3201.69,0.01437
3188.18,0.01263
3174.68,0.01114
3161.18,0.00998
3147.68,0.00956
3134.18,0.00944
3120.68,0.00930
3107.18,0.00865
3093.68,0.00897
3080.18,0.00965
3066.67,0.00973
3053.17,0.00937
3039.67,0.00953
3026.17,0.00992
3012.67,0.01102
2999.17,0.01863
2985.67,0.04460
2972.17,0.07462
2958.67,0.04462
2945.16,0.04478
2931.66,0.06914
2918.16,0.06619
2904.66,0.07205
2891.16,0.07625
2877.66,0.08319
2864.16,0.08746
2850.66,0.06222
2837.16,0.03228
2823.66,0.01991
2810.15,0.01670
2796.65,0.01557
2783.15,0.01412
2769.65,0.01262
2756.15,0.01114
2742.65,0.01012
2729.15,0.00914
2715.65,0.00788
2702.15,0.00712
2688.64,0.00648
2675.14,0.00633
2661.64,0.00591
2648.14,0.00526
2634.64,0.00454
2621.14,0.00402
2607.64,0.00372
2594.14,0.00388
2580.64,0.00363
2567.13,0.00300
2553.63,0.00259
2540.13,0.00257
2526.63,0.00247
2513.13,0.00235
2499.63,0.00245
2486.13,0.00252
2472.63,0.00255
2459.13,0.00246
2445.62,0.00227
2432.12,0.00251
2418.62,0.00234
2405.12,0.00258
2391.62,0.00275
2378.12,0.00318
2364.62,-0.00371
2351.12,0.00126
2337.62,-0.00176
2324.12,0.00164
2310.61,0.00425
2297.11,0.00423
2283.61,0.00462
2270.11,0.00463
2256.61,0.00363
2243.11,0.00353
2229.61,0.00285
2216.11,0.00237
2202.61,0.00190
2189.1,0.00163
2175.6,0.00089
2162.1,0.00010
2148.6,0.00186
2135.1,0.00218
2121.6,0.00210
2108.1,0.00196
2094.6,0.00270
2081.1,0.00291
2067.59,0.00349
2054.09,0.00347
2040.59,0.00389
2027.09,0.00354
2013.59,0.00396
2000.09,0.00401
1986.59,0.00458
1973.09,0.00421
1959.59,0.00435
1946.08,0.00563
1932.58,0.00490
1919.08,0.00642
1905.58,0.00531
1892.08,0.00576
1878.58,0.00504
1865.08,0.00631
1851.58,0.00550
1838.08,0.00652
1824.57,0.00772
1811.07,0.00830
1797.57,0.01032
1784.07,0.01003
1770.57,0.01369
1757.07,0.01627
1743.57,0.04089
1730.07,0.08235
1716.57,0.08353
1703.07,0.07045
1689.56,0.05753
1676.06,0.05469
1662.56,0.05994
1649.06,0.08360
1635.56,0.08920
1622.06,0.06310
1608.56,0.08135
1595.06,0.09340
1581.56,0.06510
1568.05,0.08854
1554.55,0.14749
1541.05,0.18025
1527.55,0.17309
1514.05,0.12849
1500.55,0.11602
1487.05,0.09363
1473.55,0.11018
1460.05,0.10780
1446.54,0.11720
1433.04,0.06876
1419.54,0.07256
1406.04,0.07657
1392.54,0.07083
1379.04,0.11339
1365.54,0.09276
1352.04,0.06461
1338.54,0.07877
1325.03,0.07033
1311.53,0.08542
1298.03,0.10242
1284.53,0.09189
1271.03,0.09680
1257.53,0.10291
1244.03,0.12449
1230.53,0.17439
1217.03,0.17041
1203.53,0.13041
1190.02,0.10547
1176.52,0.11011
1163.02,0.14605
1149.52,0.18163
1136.02,0.22703
1122.52,0.29842
1109.02,0.39638
1095.52,0.44775
1082.02,0.43727
1068.51,0.36881
1055.01,0.28287
1041.51,0.19287
1028.01,0.14791
1014.51,0.16027
1001.01,0.14638
987.508,0.09151
974.007,0.07771
960.506,0.07103
947.005,0.06974
933.503,0.10210
920.002,0.10155
906.501,0.08773
893,0.06807
879.499,0.07363
865.998,0.07830
852.497,0.07037
838.996,0.07052
825.495,0.08721
811.994,0.09576
798.493,0.07609
784.992,0.06820
771.49,0.07989
757.989,0.07713
744.488,0.06739
730.987,0.06347
717.486,0.07193
703.985,0.07805
690.484,0.08468
676.983,0.09280
663.482,0.09689
649.981,0.09118
636.48,0.08788
622.979,0.08456
609.477,0.08242
599.834,0.08953

File: Polyurethane_Foam_ATR_210608_R3.tst
4497.79,-0.00556
4484.29,-0.00517
4470.79,-0.00517
4457.29,-0.00486
4443.79,-0.00461
4430.28,-0.00470
4416.78,-0.00434
4403.28,-0.00425
4389.78,-0.00388
4376.28,-0.00396
4362.78,-0.00367
4349.28,-0.00346
4335.78,-0.00322
4322.28,-0.00311
4308.77,-0.00350
4295.27,-0.00357
4281.77,-0.00361
4268.27,-0.00355
4254.77,-0.00357
4241.27,-0.00351
4227.77,-0.00352
4214.27,-0.00363
4200.77,-0.00352
4187.26,-0.00345
4173.76,-0.00327
4160.26,-0.00322
4146.76,-0.00334
4133.26,-0.00313
4119.76,-0.00307
4106.26,-0.00259
4092.76,-0.00294
4079.26,-0.00239
4065.75,-0.00263
4052.25,-0.00245
4038.75,-0.00224
4025.25,-0.00196
4011.75,-0.00176
3998.25,-0.00190
3984.75,-0.00182
3971.25,-0.00120
3957.75,-0.00097
3944.25,-0.00013
3930.74,0.00084
3917.24,0.00039
3903.74,0.00420
3890.24,0.00077
3876.74,-0.00036
3863.24,0.00377
3849.74,0.00142
3836.24,0.00296
3822.74,0.00269
3809.23,-0.00038
3795.73,-0.00017
3782.23,-0.00033
3768.73,0.00124
3755.23,0.00295
3741.73,0.00379
3728.23,0.00207
3714.73,0.00094
3701.23,-0.00018
3687.72,0.00221
3674.22,0.00434
3660.72,0.00028
3647.22,0.00611
3633.72,0.00311
3620.22,0.00631
3606.72,0.00487
3593.22,0.00528
3579.72,0.00504
3566.21,0.01034
3552.71,0.00640
3539.21,0.00540
3525.71,0.00928
3512.21,0.00677
3498.71,0.00697
3485.21,0.00669
3471.71,0.00593
3458.21,0.00673
3444.7,0.00741
3431.2,0.00663
3417.7,0.00753
3404.2,0.00884
3390.7,0.01166
3377.2,0.01469
3363.7,0.01819
3350.2,0.02041
3336.7,0.02403
3323.2,0.02699
3309.69,0.03068
3296.19,0.03242
3282.69,0.03264
3269.19,0.03052
3255.69,0.02707
3242.19,0.02231
3228.69,0.01844
3215.19,0.01587
3201.69,0.01438
3188.18,0.01269
3174.68,0.01115
3161.18,0.00992
3147.68,0.00947
3134.18,0.00938
3120.68,0.00923
3107.18,0.00867
3093.68,0.00881
3080.18,0.00966
3066.67,0.00970
3053.17,0.00937
3039.67,0.00940
3026.17,0.00990
3012.67,0.01089
2999.17,0.01862
2985.67,0.04445
2972.17,0.07457
2958.67,0.04456
2945.16,0.04468
2931.66,0.06887
2918.16,0.06595
2904.66,0.07190
2891.16,0.07616
2877.66,0.08311
2864.16,0.08744
2850.66,0.06220
2837.16,0.03232
2823.66,0.01989
2810.15,0.01667
2796.65,0.01563
2783.15,0.01411
2769.65,0.01252
2756.15,0.01111
2742.65,0.01004
2729.15,0.00909
2715.65,0.00785
2702.15,0.00700
2688.64,0.00638
2675.14,0.00614
2661.64,0.00576
2648.14,0.00514
2634.64,0.00446
2621.14,0.00383
2607.64,0.00349
2594.14,0.00367
2580.64,0.00338
2567.13,0.00275
2553.63,0.00242
2540.13,0.00236
2526.63,0.00222
2513.13,0.00208
2499.63,0.00220
2486.13,0.00216
2472.63,0.00241
2459.13,0.00219
2445.62,0.00199
2432.12,0.00228
2418.62,0.00217
2405.12,0.00235
2391.62,0.00250
2378.12,0.00289
2364.62,-0.00480
2351.12,0.00062
2337.62,-0.00274
2324.12,0.00105
2310.61,0.00387
2297.11,0.00390
2283.61,0.00453
2270.11,0.00439
2256.61,0.00351
2243.11,0.00301
2229.61,0.00237
2216.11,0.00182
2202.61,0.00158
2189.1,0.00067
2175.6,0.00041
2162.1,-0.00039
2148.6,0.00123
2135.1,0.00168
2121.6,0.00171
2108.1,0.00170
2094.6,0.00243
2081.1,0.00272
2067.59,0.00310
2054.09,0.00276
2040.59,0.00341
2027.09,0.00277
2013.59,0.00347
2000.09,0.00361
1986.59,0.00392
1973.09,0.00347
1959.59,0.00406
1946.08,0.00492
1932.58,0.00447
1919.08,0.00597
1905.58,0.00484
1892.08,0.00554
1878.58,0.00488
1865.08,0.00607
1851.58,0.00531
1838.08,0.00622
1824.57,0.00754
1811.07,0.00815
1797.57,0.01020
1784.07,0.00979
1770.57,0.01352
1757.07,0.01613
1743.57,0.04108
1730.07,0.08238
1716.57,0.08349
1703.07,0.07025
1689.56,0.05782
1676.06,0.05538
1662.56,0.06088
1649.06,0.08523
1635.56,0.09251
1622.06,0.06444
1608.56,0.08260
1595.06,0.09463
1581.56,0.06624
1568.05,0.09032
1554.55,0.14968
1541.05,0.18191
1527.55,0.17480
1514.05,0.12993
1500.55,0.11700
1487.05,0.09410
1473.55,0.11073
1460.05,0.10847
1446.54,0.11793
1433.04,0.06905
1419.54,0.07282
1406.04,0.07697
1392.54,0.07128
1379.04,0.11416
1365.54,0.09344
1352.04,0.06508
1338.54,0.07920
1325.03,0.07077
1311.53,0.08596
1298.03,0.10321
1284.53,0.09253
1271.03,0.09746
1257.53,0.10386
1244.03,0.12560
1230.53,0.17591
1217.03,0.17150
1203.53,0.13124
1190.02,0.10614
1176.52,0.11126
1163.02,0.14757
1149.52,0.18391
1136.02,0.22970
1122.52,0.30149
1109.02,0.40074
1095.52,0.45331
1082.02,0.44251
1068.51,0.37286
1055.01,0.28579
1041.51,0.19430
1028.01,0.14879
1014.51,0.16133
1001.01,0.14734
987.508,0.09165
974.007,0.07768
960.506,0.07093
947.005,0.06944
933.503,0.10252
920.002,0.10194
906.501,0.08791
893,0.06829
879.499,0.07332
865.998,0.07820
852.497,0.07003
838.996,0.07044
825.495,0.08679
811.994,0.09609
798.493,0.07582
784.992,0.06771
771.49,0.07856
757.989,0.07748
744.488,0.06678
730.987,0.06231
717.486,0.07097
703.985,0.07763
690.484,0.08457
676.983,0.09303
663.482,0.09690
649.981,0.09145
636.48,0.08747
622.979,0.08016
609.477,0.07275
599.834,0.08548

File: Polyurethane_Foam_ATR_210608_R5.tst
4497.79,-0.00564
4484.29,-0.00557
4470.79,-0.00533
4457.29,-0.00541
4443.79,-0.00511
4430.28,-0.00531
4416.78,-0.00458
4403.28,-0.00433
4389.78,-0.00432
4376.28,-0.00415
4362.78,-0.00398
4349.28,-0.00370
4335.78,-0.00376
4322.28,-0.00349
4308.77,-0.00349
4295.27,-0.00390
4281.77,-0.00396
4268.27,-0.00374
4254.77,-0.00389
4241.27,-0.00387
4227.77,-0.00374
4214.27,-0.00378
4200.77,-0.00371
4187.26,-0.00382
4173.76,-0.00360
4160.26,-0.00346
4146.76,-0.00341
4133.26,-0.00322
4119.76,-0.00342
4106.26,-0.00297
4092.76,-0.00296
4079.26,-0.00266
4065.75,-0.00286
4052.25,-0.00258
4038.75,-0.00251
4025.25,-0.00212
4011.75,-0.00199
3998.25,-0.00211
3984.75,-0.00204
3971.25,-0.00152
3957.75,-0.00142
3944.25,-0.00032
3930.74,0.00074
3917.24,0.00022
3903.74,0.00425
3890.24,0.00047
3876.74,-0.00045
3863.24,0.00293
3849.74,0.00098
3836.24,0.00286
3822.74,0.00235
3809.23,-0.00061
3795.73,-0.00007
3782.23,-0.00055
3768.73,0.00092
3755.23,0.00273
3741.73,0.00394
3728.23,0.00180
3714.73,0.00121
3701.23,-0.00014
3687.72,0.00209
3674.22,0.00475
3660.72,0.00033
3647.22,0.00548
3633.72,0.00319
3620.22,0.00641
3606.72,0.00549
3593.22,0.00616
3579.72,0.00582
3566.21,0.01124
3552.71,0.00763
3539.21,0.00674
3525.71,0.01077
3512.21,0.00848
3498.71,0.00846
3485.21,0.00852
3471.71,0.00766
3458.21,0.00847
3444.7,0.00919
3431.2,0.00835
3417.7,0.00938
3404.2,0.01049
3390.7,0.01341
3377.2,0.01624
3363.7,0.01975
3350.2,0.02179
3336.7,0.02533
3323.2,0.02806
3309.69,0.03157
3296.19,0.03324
3282.69,0.03316
3269.19,0.03112
3255.69,0.02775
3242.19,0.02319
3228.69,0.01952
3215.19,0.01709
3201.69,0.01558
3188.18,0.01382
3174.68,0.01231
3161.18,0.01101
3147.68,0.01063
3134.18,0.01032
3120.68,0.01007
3107.18,0.00947
3093.68,0.00974
3080.18,0.01051
3066.67,0.01051
3053.17,0.01018
3039.67,0.01010
3026.17,0.01053
3012.67,0.01156
2999.17,0.01917
2985.67,0.04478
2972.17,0.07422
2958.67,0.04431
2945.16,0.04479
2931.66,0.06854
2918.16,0.06583
2904.66,0.07157
2891.16,0.07560
2877.66,0.08262
2864.16,0.08638
2850.66,0.06114
2837.16,0.03193
2823.66,0.01998
2810.15,0.01677
2796.65,0.01559
2783.15,0.01410
2769.65,0.01258
2756.15,0.01112
2742.65,0.01011
2729.15,0.00918
2715.65,0.00795
2702.15,0.00706
2688.64,0.00644
2675.14,0.00624
2661.64,0.00589
2648.14,0.00524
2634.64,0.00455
2621.14,0.00393
2607.64,0.00363
2594.14,0.00370
2580.64,0.00344
2567.13,0.00280
2553.63,0.00251
2540.13,0.00254
2526.63,0.00232
2513.13,0.00228
2499.63,0.00232
2486.13,0.00235
2472.63,0.00251
2459.13,0.00234
2445.62,0.00204
2432.12,0.00222
2418.62,0.00222
2405.12,0.00237
2391.62,0.00241
2378.12,0.00277
2364.62,-0.00435
2351.12,0.00054
2337.62,-0.00258
2324.12,0.00131
2310.61,0.00383
2297.11,0.00390
2283.61,0.00433
2270.11,0.00426
2256.61,0.00319
2243.11,0.00299
2229.61,0.00249
2216.11,0.00206
2202.61,0.00170
2189.1,0.00099
2175.6,0.00044
2162.1,-0.00029
2148.6,0.00119
2135.1,0.00180
2121.6,0.00171
2108.1,0.00179
2094.6,0.00241
2081.1,0.00280
2067.59,0.00328
2054.09,0.00300
2040.59,0.00378
2027.09,0.00320
2013.59,0.00339
2000.09,0.00351
1986.59,0.00419
1973.09,0.00329
1959.59,0.00425
1946.08,0.00536
1932.58,0.00450
1919.08,0.00594
1905.58,0.00506
1892.08,0.00552
1878.58,0.00485
1865.08,0.00622
1851.58,0.00528
1838.08,0.00634
1824.57,0.00762
1811.07,0.00829
1797.57,0.01059
1784.07,0.01058
1770.57,0.01437
1757.07,0.01748
1743.57,0.04274
1730.07,0.08421
1716.57,0.08636
1703.07,0.07325
1689.56,0.06055
1676.06,0.05804
1662.56,0.06390
1649.06,0.08768
1635.56,0.08918
1622.06,0.06534
1608.56,0.08298
1595.06,0.09409
1581.56,0.06604
1568.05,0.08959
1554.55,0.14890
1541.05,0.18287
1527.55,0.17650
1514.05,0.13181
1500.55,0.11880
1487.05,0.09557
1473.55,0.11227
1460.05,0.10970
1446.54,0.11862
1433.04,0.07029
1419.54,0.07420
1406.04,0.07831
1392.54,0.07297
1379.04,0.11611
1365.54,0.09478
1352.04,0.06645
1338.54,0.08024
1325.03,0.07197
1311.53,0.08694
1298.03,0.10407
1284.53,0.09355
1271.03,0.09853
1257.53,0.10553
1244.03,0.12749
1230.53,0.17666
1217.03,0.17232
1203.53,0.13300
1190.02,0.10851
1176.52,0.11301
1163.02,0.14794
1149.52,0.18364
1136.02,0.22937
1122.52,0.30126
1109.02,0.39995
1095.52,0.45245
1082.02,0.44400
1068.51,0.37557
1055.01,0.28807
1041.51,0.19729
1028.01,0.15102
1014.51,0.16292
1001.01,0.14812
987.508,0.09265
974.007,0.07865
960.506,0.07148
947.005,0.07057
933.503,0.10345
920.002,0.10278
906.501,0.08811
893,0.06902
879.499,0.07391
865.998,0.07858
852.497,0.07068
838.996,0.07154
825.495,0.08867
811.994,0.09733
798.493,0.07837
784.992,0.06996
771.49,0.08176
757.989,0.07885
744.488,0.06950
730.987,0.06443
717.486,0.07326
703.985,0.07989
690.484,0.08636
676.983,0.09507
663.482,0.09915
649.981,0.09375
636.48,0.09062
622.979,0.08476
609.477,0.08489
599.834,0.08983