Folder: fsri_materials_database/01_Data/Polyurethane_Foam/FTIR/IS

Note: 01_Data/README.md
# Materials and Products Database
## 01_Data

Raw data generated from each apparatus are included here in plain-text format. The data is organized first by material, next by the short name of test apparatus used, and where applicable additional filtering by test settings.

### material.json

Each material directory contains a json file of the same name as the material. This file links the data stored in the repository as well as data and graphs produced by the accompanying scripts (__02_Scripts__) to the respective landing page for the material on the front-end website.

File: Polyurethane_Foam_IS_REFLECT_BL_210623_R2.dpt
5996.41,0.02754
5977.12,0.01999
5957.84,0.01073
5938.55,0.01711
5919.26,0.02126
5899.97,0.02091
5880.69,0.01527
5861.4,0.01703
5842.11,0.01150
5822.82,0.01859
5803.54,0.01728
5784.25,0.02130
5764.96,0.02032
5745.68,0.01536
5726.39,0.01719
5707.1,0.01782
5687.81,0.01231
5668.53,0.02493
5649.24,0.01838
5629.95,0.01831
5610.66,0.01985
5591.38,0.01213
5572.09,0.01323
5552.8,0.01936
5533.52,0.01887
5514.23,0.01617
5494.94,0.01605
5475.65,0.02100
5456.37,0.01235
5437.08,0.01328
5417.79,0.01864
5398.5,0.01729
5379.22,0.01321
5359.93,0.01479
5340.64,0.01857
5321.36,0.02285
5302.07,0.01652
5282.78,0.01667
5263.49,0.01662
5244.21,0.01998
5224.92,0.01819
5205.63,0.01874
5186.34,0.01343
5167.06,0.01779
5147.77,0.01914
5128.48,0.01730
5109.2,0.01782
5089.91,0.01856
5070.62,0.01974
5051.33,0.01632
5032.05,0.01377
5012.76,0.01711
4993.47,0.01691
4974.18,0.01634
4954.9,0.01747
4935.61,0.01856
4916.32,0.01486
4897.04,0.01658
4877.75,0.01781
4858.46,0.01491
4839.17,0.01579
4819.89,0.01692
4800.6,0.01547
4781.31,0.01553
4762.02,0.01568
4742.74,0.01611
4723.45,0.01435
4704.16,0.01585
4684.88,0.01460
4665.59,0.01676
4646.3,0.01597
4627.01,0.01523
4607.73,0.01573
4588.44,0.01534
4569.15,0.01758
4549.87,0.01669
4530.58,0.01364
4511.29,0.01428
4492,0.01601
4472.72,0.01389
4453.43,0.01411
4434.14,0.01397
4414.85,0.01680
4395.57,0.01408
4376.28,0.01737
4356.99,0.01478
4337.71,0.01514
4318.42,0.01629
4299.13,0.01486
4279.84,0.01593
4260.56,0.01405
4241.27,0.01638
4221.98,0.01558
4202.69,0.01414
4183.41,0.01412
4164.12,0.01378
4144.83,0.01471
4125.55,0.01432
4106.26,0.01520
4086.97,0.01500
4067.68,0.01432
4048.4,0.01586
4029.11,0.01509
4009.82,0.01419
3990.53,0.01367
3971.25,0.01399
3951.96,0.01264
3932.67,0.01529
3913.39,0.01198
3894.1,0.01423
3874.81,0.01008
3855.52,0.01322
3836.24,0.01192
3816.95,0.01471
3797.66,0.01540
3778.37,0.01352
3759.09,0.01113
3739.8,0.01419
3720.51,0.01531
3701.23,0.01577
3681.94,0.01500
3662.65,0.00967
3643.36,0.01030
3624.08,0.01203
3604.79,0.00944
3585.5,0.01210
3566.21,0.01764
3546.93,0.01488
3527.64,0.01487
3508.35,0.01428
3489.07,0.01363
3469.78,0.01199
3450.49,0.01320
3431.2,0.01224
3411.92,0.01216
3392.63,0.01379
3373.34,0.01222
3354.05,0.01295
3334.77,0.01326
3315.48,0.01295
3296.19,0.01304
3276.91,0.01324
3257.62,0.01317
3238.33,0.01239
3219.04,0.01266
3199.76,0.01312
3180.47,0.01348
3161.18,0.01386
3141.89,0.01316
3122.61,0.01349
3103.32,0.01237
3084.03,0.01384
3064.75,0.01294
3045.46,0.00809
3026.17,0.00557
3006.88,0.00495
2987.6,0.00348
2968.31,0.00771
2949.02,0.01106
2929.74,0.01320
2910.45,0.01286
2891.16,0.01238
2871.87,0.01304
2852.59,0.01372
2833.3,0.01313
2814.01,0.01282
2794.72,0.01362
2775.44,0.01278
2756.15,0.01324
2736.86,0.01397
2717.58,0.01267
2698.29,0.01243
2679,0.01364
2659.71,0.01414
2640.43,0.01385
2621.14,0.01358
2601.85,0.01316
2582.56,0.01330
2563.28,0.01368
2543.99,0.01384
2524.7,0.01359
2505.42,0.01273
2486.13,0.01341
2466.84,0.01344
2447.55,0.01304
2428.27,0.01288
2408.98,0.01307
2389.69,0.00781
2370.4,0.00688
2351.12,0.01121
2331.83,0.01938
2312.54,0.01734
2293.26,0.01451
2273.97,0.01224
2254.68,0.01243
2235.39,0.01313
2216.11,0.01264
2196.82,0.01312
2177.53,0.01263
2158.24,0.01313
2138.96,0.01255
2119.67,0.01301
2100.38,0.01243
2081.1,0.01237
2061.81,0.01240
2042.52,0.01377
2023.23,0.01276
2003.95,0.01169
1984.66,0.01304
1965.37,0.01306
1946.08,0.01341
1926.8,0.01098
1907.51,0.01349
1888.22,0.01409
1868.94,0.01687
1849.65,0.01121
1830.36,0.01407
1811.07,0.01105
1791.79,0.01487
1772.5,0.01658
1753.21,0.00837
1733.92,0.02121
1714.64,0.01339
1695.35,0.01179
1676.06,0.00981
1656.78,0.00755
1637.49,0.01580
1618.2,0.01501
1598.91,0.01136
1579.63,0.00921
1560.34,0.01653
1541.05,0.02211
1521.76,0.01626
1502.48,0.01003
1483.19,0.00696
1463.9,0.00562
1444.62,0.00539
1425.33,0.00063
1406.04,0.00123
1386.75,0.00677
1367.47,0.00437
1348.18,0.00758
1328.89,0.01018
1309.61,0.01108
1290.32,0.01065
1271.03,0.01103
1251.74,0.01191
1232.46,0.01182
1213.17,0.01084
1193.88,0.00913
1174.59,0.00597
1155.31,0.00001
1136.02,0.00001
1116.73,0.00389
1097.45,0.00743
1078.16,0.01043
1058.87,0.01131
1039.58,0.01093
1020.3,0.01217
1001.01,0.01391
981.722,0.00797
962.434,0.00254
943.147,0.00203
923.86,0.00567
904.573,0.00950
885.285,0.00945
865.998,0.00978
846.711,0.01019
827.424,0.01003
808.136,0.01094
788.849,0.01091
769.562,0.01107
750.274,0.00807
730.987,0.01071
711.7,0.00995
692.413,0.01069
673.125,0.00781
653.838,0.00678
634.551,0.01216
615.264,0.01129
595.976,0.00971
576.689,0.00494
557.402,0.01248
538.115,0.00401
518.827,0.00884
499.54,0.00790
480.253,0.00844
460.966,0.00013
441.678,0.01233
422.391,0.00858
403.104,0.00522
399.246,0.00001