Folder: fsri_materials_database/01_Data/Polyester_Microfiber_Sheet/STA/N2/10K_min (part 2)

File: Polyester_Microfiber_Sheet_STA_N2_10KData_220527_R3.csv
##Temp./Â°C,Time/min,Mass loss(subtr.2)/mg,DSC(subtr.2)/(mW/mg),Sensit./(uV/mW)
49.688,10.01,0.0237,0.001454919,1.07018
52.588,11.27776,0.02660883,0.09910191,1.06938
55.488,11.70297,0.02616335,0.14806,1.06857
58.388,12.06202,0.02797483,0.17286,1.06776
61.288,12.39521,0.02939154,0.18894,1.06693
64.188,12.7167,0.02792462,0.20116,1.0661
67.088,13.03004,0.0271121,0.21249,1.06525
69.988,13.3404,0.0285388,0.22182,1.0644
72.888,13.6477,0.02956243,0.22477,1.06354
75.788,13.95098,0.02852977,0.2209,1.06267
78.688,14.2523,0.03089658,0.21185,1.06179
81.588,14.5504,0.0311732,0.20634,1.0609
84.488,14.84695,0.03177424,0.19911,1.06001
87.388,15.1405,0.03051009,0.19791,1.0591
90.288,15.4314,0.0311765,0.19508,1.05819
93.188,15.7204,0.03050659,0.19553,1.05726
96.088,16.00754,0.03050665,0.19703,1.05633
98.988,16.2933,0.03186464,0.20103,1.05539
101.888,16.57822,0.03175674,0.20685,1.05444
104.788,16.86327,0.03249113,0.21184,1.05348
107.688,17.14698,0.03315011,0.21915,1.05251
110.588,17.4301,0.03325,0.22451,1.05154
113.488,17.7129,0.03325813,0.23128,1.05055
116.388,17.99626,0.03457001,0.23659,1.04956
119.288,18.27894,0.03325365,0.24225,1.04855
122.188,18.56103,0.03589362,0.24827,1.04754
125.088,18.84241,0.03588952,0.25483,1.04652
127.988,19.12319,0.03587794,0.26377,1.04549
130.888,19.40474,0.03556018,0.26872,1.04444
133.788,19.68463,0.03480901,0.27298,1.04339
136.688,19.96526,0.03556,0.27614,1.04234
139.588,20.24466,0.03558337,0.27965,1.04127
142.488,20.52423,0.03818904,0.28341,1.04019
145.388,20.80327,0.03650712,0.28721,1.0391
148.288,21.08151,0.0359955,0.28959,1.03801
151.188,21.36032,0.03622074,0.29091,1.0369
154.088,21.6387,0.03754,0.29874,1.03578
156.988,21.91541,0.03651558,0.29981,1.03466
159.888,22.19277,0.03748391,0.30208,1.03353
162.788,22.46969,0.03686152,0.30822,1.03238
165.688,22.74673,0.03686532,0.311,1.03123
168.588,23.02365,0.0372,0.31424,1.03007
171.488,23.30026,0.03971099,0.31474,1.0289
174.388,23.57718,0.03621996,0.31854,1.02771
177.288,23.85435,0.03754003,0.3217,1.02652
180.188,24.1311,0.03622001,0.32537,1.02532
183.088,24.40713,0.03753059,0.32579,1.02411
185.988,24.6835,0.03721396,0.32841,1.02289
188.888,24.95905,0.03588978,0.3314,1.02166
191.788,25.2358,0.03721,0.33111,1.02042
194.688,25.51146,0.03843758,0.33663,1.01918
197.588,25.78761,0.03751687,0.33868,1.01792
200.488,26.06342,0.03743019,0.34109,1.01665
203.388,26.3389,0.03742962,0.34356,1.01537
206.288,26.6149,0.03611014,0.34666,1.01408
209.188,26.89038,0.03611223,0.35147,1.01279
212.088,27.16583,0.03577999,0.35308,1.01148
214.988,27.442,0.0361233,0.3576,1.01016
217.888,27.71766,0.03710044,0.36101,1.00884
220.788,27.9926,0.03556299,0.36525,1.0075
223.688,28.269,0.03578,0.36933,1.00615
226.588,28.54533,0.0358728,0.37648,1.0048
229.488,28.8209,0.03479942,0.38527,1.00343
232.388,29.09658,0.03479013,0.39538,1.00205
235.288,29.3726,0.03512,0.40773,1.00067
238.188,29.64917,0.03379999,0.42469,0.99927
241.088,29.9256,0.03610835,0.44517,0.99786
243.988,30.20178,0.03439244,0.47664,0.99645
246.888,30.47847,0.03347029,0.5244,0.99502
249.788,30.75455,0.03416111,0.60077,0.99358
252.688,31.032,0.03315372,0.76134,0.99214
255.588,31.3104,0.03282037,1.06348,0.99068
258.488,31.58949,0.03346836,1.2487,0.98921
261.388,31.8676,0.03351309,0.94092,0.98774
264.288,32.1425,0.03248742,0.62659,0.98625
267.188,32.41727,0.03051096,0.49016,0.98475
270.088,32.69137,0.03083968,0.43416,0.98325
272.988,32.9672,0.03218464,0.41112,0.98173
275.888,33.24264,0.03063149,0.40276,0.9802
278.788,33.5178,0.03083911,0.39927,0.97866
281.688,33.79416,0.02950611,0.39902,0.97712
284.588,34.0698,0.02822005,0.3996,0.97556
287.488,34.3471,0.02895792,0.39906,0.97399
290.388,34.62381,0.02786982,0.39959,0.97241
293.288,34.90014,0.02721989,0.39977,0.97082
296.188,35.1769,0.02788247,0.40196,0.96922
299.088,35.45374,0.02614043,0.40282,0.96761
301.988,35.73147,0.02656002,0.40594,0.966
304.888,36.00875,0.02524044,0.4047,0.96437
307.788,36.2864,0.02655995,0.40565,0.96273
310.688,36.56365,0.02623,0.40626,0.96108
313.588,36.8411,0.02490989,0.40776,0.95942
316.488,37.11906,0.02458651,0.40764,0.95774
319.388,37.3968,0.02444958,0.40875,0.95606
322.288,37.67483,0.0232618,0.4105,0.95437
325.188,37.95268,0.02193802,0.41157,0.95267
328.088,38.2307,0.02359,0.41343,0.95096
330.988,38.5089,0.02351696,0.41347,0.94924
333.888,38.7874,0.02196495,0.41466,0.9475
336.788,39.06619,0.0204749,0.4148,0.94576
339.688,39.34503,0.01964096,0.41767,0.94401
342.588,39.62402,0.02136754,0.41695,0.94225
345.488,39.90297,0.01866349,0.41635,0.94047
348.388,40.18207,0.01865,0.41912,0.93869
351.288,40.46198,0.01601001,0.42073,0.93689
354.188,40.74225,0.01600998,0.4199,0.93509
357.088,41.02155,0.01470201,0.42708,0.93328
359.988,41.3022,0.01304994,0.42823,0.93145
362.888,41.58278,0.01074002,0.43029,0.92962
365.788,41.8633,0.00940111,0.43906,0.92777
368.688,42.14393,0.005428923,0.44575,0.92592
371.588,42.42496,0.00284351,0.45466,0.92405
374.488,42.7061,-0.001110523,0.46039,0.92217
377.388,42.9882,-0.00556766,0.47049,0.92029
380.288,43.2691,-0.01306036,0.47938,0.91839
383.188,43.54997,-0.02120026,0.49184,0.91648
386.088,43.832,-0.03311339,0.50527,0.91457
388.988,44.11345,-0.04814571,0.52078,0.91264
391.888,44.3945,-0.06631689,0.53647,0.9107
394.788,44.67653,-0.08766199,0.5459,0.90876
397.688,44.95816,-0.1138,0.54924,0.9068
400.588,45.23977,-0.14314,0.4427,0.90483
403.488,45.5212,-0.17713,0.40694,0.90286
406.388,45.80307,-0.21293,0.37994,0.90087
409.288,46.08449,-0.25035,0.34123,0.89887
412.188,46.36646,-0.29611,0.35834,0.89687
415.088,46.64853,-0.35384,0.39321,0.89485
417.988,46.93059,-0.42727,0.44448,0.89282
420.888,47.21295,-0.51569,0.50077,0.89078
423.788,47.49651,-0.62619,0.54683,0.88874
426.688,47.77963,-0.75415,0.60818,0.88668
429.588,48.06344,-0.90634,0.66268,0.88461
432.488,48.3471,-1.07945,0.70238,0.88254
435.388,48.6307,-1.27266,0.72999,0.88045
438.288,48.91496,-1.48198,0.74656,0.87835
441.188,49.1991,-1.70221,0.74298,0.87625
444.088,49.48252,-1.9269,0.71763,0.87413
446.988,49.7656,-2.13977,0.6626,0.87201
449.888,50.04845,-2.32782,0.58438,0.86987
452.788,50.33142,-2.48045,0.48576,0.86773
455.688,50.61438,-2.58687,0.38139,0.86558
458.588,50.89795,-2.66488,0.30152,0.86341
461.488,51.18168,-2.72255,0.25319,0.86124
464.388,51.46581,-2.76474,0.20993,0.85906
467.288,51.74942,-2.79908,0.16246,0.85687
470.188,52.03386,-2.82216,0.11844,0.85466
473.088,52.31876,-2.84408,0.09577376,0.85245
475.988,52.60324,-2.86186,0.06270556,0.85023
478.888,52.888,-2.8749,0.03503521,0.848
481.788,53.1729,-2.88701,0.01289206,0.84577
484.688,53.458,-2.89684,0.00362603,0.84352
487.588,53.7433,-2.90421,-0.00718492,0.84126
490.488,54.0283,-2.91083,-0.0177786,0.839
493.388,54.3137,-2.91631,-0.02719464,0.83672
496.288,54.59916,-2.92555,-0.02688352,0.83444
499.188,54.8857,-2.9289,-0.03364455,0.83215
502.088,55.1723,-2.93122,-0.04334925,0.82984
504.988,55.4594,-2.93683,-0.0446572,0.82753
507.888,55.7456,-2.93976,-0.04777914,0.82521
510.788,56.03334,-2.94375,-0.05044181,0.82289
513.688,56.3199,-2.94495,-0.05455663,0.82055
516.588,56.60731,-2.95197,-0.05541151,0.81821
519.488,56.89356,-2.95033,-0.05993144,0.81585
522.388,57.1813,-2.95494,-0.05896627,0.81349
525.288,57.4686,-2.95889,-0.06068766,0.81112
528.188,57.7562,-2.9616,-0.06119255,0.80874
531.088,58.04263,-2.96286,-0.07195175,0.80635
533.988,58.3297,-2.96482,-0.0665547,0.80396
536.888,58.61719,-2.96494,-0.06515219,0.80155
539.788,58.9046,-2.96744,-0.06435389,0.79914
542.688,59.19245,-2.96877,-0.06471148,0.79672
545.588,59.4805,-2.97141,-0.06832948,0.79429
548.488,59.7687,-2.97304,-0.06931493,0.79185
551.388,60.05746,-2.97338,-0.07294529,0.78941
554.288,60.34581,-2.9755,-0.07075362,0.78696
557.188,60.63426,-2.97702,-0.07273771,0.7845
560.088,60.92289,-2.97959,-0.07408744,0.78203
562.988,61.2116,-2.98095,-0.07596853,0.77956
565.888,61.4999,-2.98095,-0.08014504,0.77707
568.788,61.78855,-2.98447,-0.07910227,0.77458
571.688,62.07796,-2.98505,-0.08304959,0.77208
574.588,62.36741,-2.9869,-0.08129072,0.76958
577.488,62.65687,-2.98952,-0.08543568,0.76707
580.388,62.94568,-2.99215,-0.08538703,0.76455
583.288,63.2355,-2.9939,-0.08408031,0.76202
586.188,63.52522,-2.99545,-0.08098072,0.75949
589.088,63.8141,-2.99746,-0.08140439,0.75694
591.988,64.10471,-2.9994,-0.08031175,0.7544
594.888,64.39488,-3.0017,-0.08378767,0.75184
597.788,64.68434,-3.00467,-0.08559712,0.74928
600.688,64.97369,-3.00753,-0.08489909,0.74671
603.588,65.2645,-3.00776,-0.08710481,0.74414
606.488,65.5545,-3.01103,-0.08600877,0.74155
609.388,65.84414,-3.01236,-0.08703251,0.73897
612.288,66.13431,-3.01357,-0.08938729,0.73637
615.188,66.4237,-3.01499,-0.08827896,0.73377
618.088,66.71377,-3.01531,-0.08741881,0.73116
620.988,67.0033,-3.01828,-0.08947982,0.72855
623.888,67.2933,-3.0199,-0.08866727,0.72593
626.788,67.5834,-3.02124,-0.09194866,0.72331
629.688,67.87298,-3.0239,-0.09382499,0.72068
632.588,68.1648,-3.02519,-0.093048,0.71804
635.488,68.4556,-3.02782,-0.09448502,0.7154
638.388,68.7462,-3.02915,-0.09912761,0.71275
641.288,69.0373,-3.02906,-0.10111,0.71009
644.188,69.32845,-3.03245,-0.10505,0.70744
647.088,69.61896,-3.03316,-0.10529,0.70477
649.988,69.91005,-3.03442,-0.10561,0.7021
652.888,70.20173,-3.0364,-0.10637,0.69943
655.788,70.49348,-3.03708,-0.10744,0.69675
658.688,70.78551,-3.03706,-0.11003,0.69406
661.588,71.07746,-3.03911,-0.11365,0.69137
664.488,71.36905,-3.04029,-0.11563,0.68868
667.388,71.66011,-3.04102,-0.1189,0.68598
670.288,71.95031,-3.04233,-0.12589,0.68327
673.188,72.2422,-3.04497,-0.12562,0.68056
676.088,72.5338,-3.04496,-0.13348,0.67785
678.988,72.8253,-3.04496,-0.13422,0.67513
681.888,73.1166,-3.04623,-0.13594,0.67241
684.788,73.4085,-3.04661,-0.13773,0.66968
687.688,73.70066,-3.04825,-0.14415,0.66695
690.588,73.99251,-3.04998,-0.14908,0.66422
693.488,74.28491,-3.04957,-0.15748,0.66148
696.388,74.57642,-3.05009,-0.15968,0.65874
699.288,74.86766,-3.05088,-0.16381,0.65599
700.588,74.9986,-3.05088,-0.1671,0.65476