Folder: fsri_materials_database/01_Data/Polyester_Microfiber_Sheet/STA/N2/30K_min

Note: 01_Data/README.md
# Materials and Products Database
## 01_Data

Raw data generated from each apparatus are included here in plain-text format. The data is organized first by material, next by the short name of test apparatus used, and where applicable additional filtering by test settings.

### material.json

Each material directory contains a json file of the same name as the material. This file links the data stored in the repository as well as data and graphs produced by the accompanying scripts (__02_Scripts__) to the respective landing page for the material on the front-end website.

File: Polyester_Microfiber_Sheet_STA_N2_30KData_220526_R1.csv
##Temp./Â°C,Time/min,Mass loss(subtr.2)/mg,DSC(subtr.2)/(mW/mg),Sensit./(uV/mW)
48.586,10.00667,-0.00857,-0.00126359,1.054
51.386,10.8473,-0.00989628,0.12319,1.05343
54.186,11.06804,-0.00825085,0.21318,1.05284
56.986,11.23504,-0.00914615,0.28345,1.05224
59.786,11.37926,-0.00883098,0.34346,1.05162
62.586,11.50906,-0.008694465,0.3903,1.05099
65.386,11.62921,-0.01126962,0.43535,1.05035
68.186,11.74364,-0.00849692,0.47489,1.04969
70.986,11.85319,-0.009350554,0.51287,1.04902
73.786,11.95995,-0.01066796,0.5479,1.04833
76.586,12.0639,-0.00909902,0.57506,1.04763
79.386,12.1656,-0.007976916,0.58131,1.04692
82.186,12.26635,-0.009326546,0.57036,1.04619
84.986,12.36514,-0.01076005,0.55938,1.04545
87.786,12.46294,-0.009801987,0.54949,1.04469
90.586,12.55936,-0.009516421,0.54383,1.04392
93.386,12.65489,-0.01103092,0.53866,1.04314
96.186,12.75005,-0.01087737,0.53669,1.04234
98.986,12.84477,-0.01096612,0.54055,1.04153
101.786,12.93869,-0.009670219,0.54706,1.04071
104.586,13.0326,-0.009668219,0.55664,1.03987
107.386,13.12638,-0.009659909,0.57102,1.03902
110.186,13.2198,-0.00869485,0.5859,1.03816
112.986,13.31299,-0.00967011,0.6026,1.03728
115.786,13.4063,-0.0096769,0.61749,1.03639
118.586,13.4991,-0.01020526,0.63346,1.03548
121.386,13.59169,-0.00965987,0.64922,1.03457
124.186,13.684,-0.009664882,0.66554,1.03364
126.986,13.7757,-0.00968892,0.68226,1.0327
129.786,13.867,-0.009670134,0.69843,1.03174
132.586,13.95798,-0.009669957,0.71475,1.03077
135.386,14.04861,-0.01012399,0.72992,1.02979
138.186,14.13882,-0.009660003,0.74605,1.0288
140.986,14.2286,-0.009999672,0.76155,1.02779
143.786,14.31826,-0.01098009,0.77723,1.02677
146.586,14.40745,-0.009669996,0.78995,1.02574
149.386,14.4963,-0.01065573,0.80257,1.02469
152.186,14.58482,-0.01065757,0.81092,1.02364
154.986,14.6737,-0.01098389,0.8249,1.02257
157.786,14.7617,-0.01066,0.83805,1.02148
160.586,14.8499,-0.01066,0.84537,1.02039
163.386,14.93754,-0.01086868,0.85533,1.01928
166.186,15.0253,-0.01096494,0.86736,1.01817
168.986,15.1128,-0.0123,0.87728,1.01703
171.786,15.1999,-0.0123,0.88791,1.01589
174.586,15.28731,-0.0123,0.90108,1.01474
177.386,15.37393,-0.01229994,0.91224,1.01357
180.186,15.46057,-0.01171213,0.91721,1.01239
182.986,15.54698,-0.0123,0.92912,1.0112
185.786,15.63314,-0.0123,0.9413,1.01
188.586,15.7189,-0.01096756,0.95182,1.00878
191.386,15.8044,-0.01361953,0.96181,1.00756
194.186,15.89,-0.01427912,0.96886,1.00632
196.986,15.97528,-0.01297344,0.97955,1.00507
199.786,16.0606,-0.01334128,0.99165,1.00381
202.586,16.14591,-0.01428,1.00117,1.00254
205.386,16.23087,-0.01428,1.01258,1.00126
208.186,16.31602,-0.01558902,1.02235,0.99997
210.986,16.40096,-0.01494004,1.03634,0.99866
213.786,16.48586,-0.01626,1.04795,0.99734
216.586,16.57076,-0.01560535,1.06521,0.99602
219.386,16.65558,-0.0156,1.07902,0.99468
222.186,16.7403,-0.0156,1.09277,0.99333
224.986,16.82488,-0.01690722,1.11078,0.99197
227.786,16.90953,-0.01560512,1.13044,0.9906
230.586,16.9943,-0.01692256,1.1546,0.98922
233.386,17.07883,-0.01690861,1.18382,0.98782
236.186,17.16354,-0.01822877,1.22687,0.98642
238.986,17.24788,-0.01790137,1.27839,0.98501
241.786,17.33223,-0.01691981,1.3474,0.98358
244.586,17.41706,-0.01856548,1.44657,0.98215
247.386,17.50175,-0.01921,1.59532,0.9807
250.186,17.58626,-0.01920997,1.8367,0.97925
252.986,17.67124,-0.02052998,2.22533,0.97778
255.786,17.7561,-0.01986964,2.72637,0.97631
258.586,17.84137,-0.01987075,3.02695,0.97482
261.386,17.9265,-0.01921,2.76738,0.97333
264.186,18.01117,-0.01921,2.2439,0.97182
266.986,18.0954,-0.01987459,1.84592,0.9703
269.786,18.1793,-0.02020004,1.58985,0.96878
272.586,18.26296,-0.02151993,1.43549,0.96724
275.386,18.3468,-0.02152,1.34056,0.9657
278.186,18.4306,-0.02152,1.28651,0.96414
280.986,18.5146,-0.02284293,1.25632,0.96258
283.786,18.5987,-0.02282884,1.23839,0.96101
286.586,18.6827,-0.02159837,1.23032,0.95942
289.386,18.76697,-0.0224831,1.22494,0.95783
292.186,18.8512,-0.02152008,1.22436,0.95623
294.986,18.93542,-0.02316311,1.22412,0.95462
297.786,19.0196,-0.02317006,1.22184,0.953
300.586,19.10383,-0.02284005,1.22072,0.95137
303.386,19.1884,-0.02218128,1.22182,0.94973
306.186,19.27279,-0.0235,1.22079,0.94808
308.986,19.35749,-0.02343861,1.22255,0.94643
311.786,19.44175,-0.02449,1.22323,0.94476
314.586,19.52642,-0.02448632,1.22357,0.94309
317.386,19.6111,-0.02602623,1.22366,0.94141
320.186,19.6959,-0.02613,1.22327,0.93972
322.986,19.78055,-0.02613,1.22403,0.93802
325.786,19.86541,-0.02613,1.22566,0.93631
328.586,19.95045,-0.02744915,1.22645,0.93459
331.386,20.0352,-0.02745,1.22631,0.93287
334.186,20.12027,-0.02745035,1.22785,0.93113
336.986,20.2052,-0.02877,1.22905,0.92939
339.786,20.2903,-0.02877,1.23283,0.92764
342.586,20.37546,-0.02877,1.23252,0.92588
345.386,20.46077,-0.03008945,1.23477,0.92412
348.186,20.54573,-0.03009,1.23587,0.92234
350.986,20.63136,-0.0314008,1.23794,0.92056
353.786,20.7164,-0.0314,1.23833,0.91877
356.586,20.80239,-0.0313999,1.24017,0.91697
359.386,20.88795,-0.03304836,1.24126,0.91517
362.186,20.9736,-0.03370994,1.24441,0.91335
364.986,21.0592,-0.03370977,1.2496,0.91153
367.786,21.14469,-0.03489013,1.25447,0.90971
370.586,21.23092,-0.03627303,1.26033,0.90787
373.386,21.31685,-0.03634,1.26711,0.90603
376.186,21.40278,-0.03686384,1.27357,0.90418
378.986,21.4889,-0.03831776,1.28136,0.90232
381.786,21.57501,-0.03961412,1.29278,0.90045
384.586,21.6612,-0.04097557,1.30909,0.89858
387.386,21.74745,-0.04360059,1.32314,0.8967
390.186,21.8334,-0.04524512,1.34188,0.89482
392.986,21.91992,-0.04928862,1.36025,0.89292
395.786,22.00677,-0.05182143,1.38329,0.89102
398.586,22.0933,-0.05719999,1.41123,0.88912
401.386,22.18,-0.0638996,1.44538,0.8872
404.186,22.26669,-0.07027246,1.48055,0.88528
406.986,22.35353,-0.08016148,1.51675,0.88336
409.786,22.4405,-0.09140919,1.55374,0.88142
412.586,22.52746,-0.1065,1.58659,0.87948
415.386,22.61457,-0.12588,1.62221,0.87754
418.186,22.70158,-0.14864,1.65123,0.87559
420.986,22.78866,-0.17507,1.68324,0.87363
423.786,22.87578,-0.20797,1.62484,0.87166
426.586,22.96317,-0.24614,1.5745,0.86969
429.386,23.05041,-0.29042,1.54894,0.86771
432.186,23.13788,-0.34237,1.52773,0.86573
434.986,23.22544,-0.39956,1.48905,0.86374
437.786,23.31273,-0.46269,1.44012,0.86174
440.586,23.40036,-0.53005,1.46839,0.85974
443.386,23.48818,-0.61906,1.58063,0.85774
446.186,23.57602,-0.72376,1.72825,0.85572
448.986,23.66403,-0.85125,1.90285,0.8537
451.786,23.75229,-1.00644,2.05695,0.85168
454.586,23.8405,-1.17402,2.17907,0.84965
457.386,23.92902,-1.36865,2.27619,0.84762
460.186,24.0174,-1.57524,2.33177,0.84558
462.986,24.10594,-1.79381,2.32572,0.84353
465.786,24.19444,-2.02614,2.25028,0.84148
468.586,24.28304,-2.23992,2.10558,0.83942
471.386,24.3716,-2.43007,1.90261,0.83736
474.186,24.45945,-2.59288,1.65458,0.83529
476.986,24.54797,-2.73122,1.40025,0.83322
479.786,24.63616,-2.83181,1.14873,0.83115
482.586,24.7244,-2.9076,0.92945,0.82906
485.386,24.8126,-2.967,0.72885,0.82698
488.186,24.90103,-3.00922,0.55662,0.82489
490.986,24.98941,-3.04467,0.41409,0.82279
493.786,25.0781,-3.07065,0.28667,0.82069
496.586,25.1666,-3.0916,0.18253,0.81858
499.386,25.2554,-3.10867,0.09791145,0.81648
502.186,25.34415,-3.12471,0.0308448,0.81436
504.986,25.43342,-3.13499,-0.0204051,0.81224
507.786,25.52235,-3.14475,-0.0583741,0.81012
510.586,25.61166,-3.15276,-0.08633608,0.80799
513.386,25.70091,-3.15957,-0.10766,0.80586
516.186,25.79022,-3.16303,-0.12092,0.80372
518.986,25.87995,-3.16824,-0.13505,0.80158
521.786,25.96964,-3.1717,-0.13059,0.79944
524.586,26.0594,-3.17626,-0.14142,0.79729
527.386,26.14924,-3.1785,-0.14801,0.79514
530.186,26.2391,-3.18174,-0.15301,0.79298
532.986,26.32913,-3.18444,-0.1571,0.79082
535.786,26.4192,-3.18571,-0.15633,0.78866
538.586,26.50948,-3.18836,-0.16157,0.78649
541.386,26.5997,-3.19097,-0.16422,0.78432
544.186,26.6902,-3.19204,-0.16747,0.78215
546.986,26.7805,-3.19332,-0.16861,0.77997
549.786,26.87088,-3.19493,-0.17243,0.77779
552.586,26.9615,-3.19625,-0.17873,0.7756
555.386,27.05177,-3.19756,-0.18069,0.77342
558.186,27.1425,-3.19888,-0.18371,0.77122
560.986,27.23312,-3.20019,-0.18678,0.76903
563.786,27.32384,-3.2021,-0.18787,0.76683
566.586,27.4146,-3.20349,-0.18882,0.76463
569.386,27.50546,-3.2048,-0.19387,0.76243
572.186,27.59641,-3.20745,-0.19622,0.76022
574.986,27.68719,-3.21007,-0.19561,0.75801
577.786,27.7782,-3.21157,-0.19996,0.7558
580.586,27.8691,-3.21337,-0.20162,0.75358
583.386,27.9605,-3.21469,-0.20432,0.75136
586.186,28.05139,-3.21619,-0.20655,0.74914
588.986,28.14278,-3.21864,-0.20886,0.74692
591.786,28.23415,-3.21996,-0.20966,0.74469
594.586,28.32555,-3.22225,-0.21113,0.74246
597.386,28.41692,-3.22352,-0.21472,0.74023
600.186,28.50815,-3.22489,-0.21779,0.73799
602.986,28.5996,-3.22882,-0.22159,0.73576
605.786,28.6911,-3.22973,-0.22266,0.73352
608.586,28.7827,-3.23049,-0.22533,0.73128
611.386,28.8744,-3.23324,-0.22266,0.72903
614.186,28.96603,-3.23454,-0.22353,0.72679
616.986,29.0578,-3.23587,-0.22703,0.72454
619.786,29.1493,-3.23861,-0.22495,0.72229
622.586,29.2411,-3.2396,-0.22472,0.72004
625.386,29.33305,-3.24224,-0.22907,0.71779
628.186,29.4246,-3.24561,-0.23218,0.71553
630.986,29.5167,-3.24608,-0.23529,0.71327
633.786,29.60851,-3.24748,-0.23706,0.71101
636.586,29.70062,-3.24885,-0.23684,0.70875
639.386,29.79267,-3.25146,-0.25703,0.70649
642.186,29.8845,-3.25161,-0.24486,0.70423
644.986,29.9766,-3.25278,-0.24363,0.70196
647.786,30.0686,-3.25552,-0.24237,0.69969
650.586,30.16067,-3.25684,-0.2327,0.69742
653.386,30.2529,-3.25816,-0.2353,0.69515
656.186,30.34511,-3.25947,-0.2406,0.69288
658.986,30.4372,-3.26079,-0.24169,0.69061
661.786,30.5294,-3.26178,-0.23881,0.68833
664.586,30.6213,-3.26392,-0.24035,0.68606
667.386,30.7138,-3.26513,-0.24124,0.68378
670.186,30.80612,-3.26705,-0.24443,0.6815
672.986,30.89815,-3.26837,-0.2488,0.67923
675.786,30.9907,-3.2697,-0.21016,0.67695
678.586,31.0831,-3.27001,-0.25381,0.67466
681.386,31.1755,-3.27001,-0.27789,0.67238
684.186,31.26773,-3.27133,-0.30053,0.6701
686.986,31.3603,-3.27265,-0.31114,0.66782
689.786,31.4528,-3.27394,-0.32039,0.66553
692.586,31.54532,-3.27501,-0.32868,0.66325
695.386,31.63792,-3.27528,-0.34487,0.66096
696.186,31.66452,-3.27528,-0.34836,0.66031

File: Polyester_Microfiber_Sheet_STA_N2_30KData_220526_R2.csv
##Temp./Â°C,Time/min,Mass loss(subtr.2)/mg,DSC(subtr.2)/(mW/mg),Sensit./(uV/mW)
48.55,10.00667,-0.00132,0.01028912,1.05401
51.35,10.84808,-0.0002206345,0.15681,1.05343
54.15,11.06902,-0.0007180139,0.25441,1.05285
56.95,11.2364,-0.002863033,0.33007,1.05224
59.75,11.37947,-0.0005499951,0.39257,1.05163
62.55,11.50902,-0.0005409319,0.44813,1.051
65.35,11.62925,0.00695818,0.49601,1.05036
68.15,11.7431,0.001310591,0.54002,1.0497
70.95,11.85324,-0.00209014,0.58252,1.04903
73.75,11.95947,-0.00147692,0.62601,1.04834
76.55,12.0636,-0.001231715,0.6538,1.04764
79.35,12.16563,-0.003913533,0.65805,1.04692
82.15,12.26592,-0.00280742,0.65092,1.0462
84.95,12.3647,-0.002949733,0.63978,1.04546
87.75,12.46239,-0.000127604,0.63342,1.0447
90.55,12.55913,-0.002364736,0.63149,1.04393
93.35,12.65456,-0.004297404,0.62904,1.04315
96.15,12.74962,-0.004632479,0.63152,1.04235
98.95,12.84402,-0.00718557,0.63622,1.04154
101.75,12.93857,-0.01057718,0.64841,1.04072
104.55,13.0326,-0.01057019,0.66126,1.03988
107.35,13.12636,-0.006580027,0.6752,1.03903
110.15,13.21965,-0.00527049,0.69172,1.03817
112.95,13.3131,-0.003949999,0.70763,1.03729
115.75,13.40603,-0.00395664,0.72469,1.0364
118.55,13.49874,-0.00395007,0.74308,1.0355
121.35,13.59125,-0.003952349,0.76177,1.03458
124.15,13.68334,-0.003953555,0.77846,1.03365
126.95,13.77505,-0.002632862,0.79583,1.03271
129.75,13.86631,-0.00132002,0.81513,1.03175
132.55,13.9574,-0.002659135,0.83361,1.03078
135.35,14.0479,-0.002629717,0.85032,1.0298
138.15,14.13819,-0.002643141,0.86997,1.02881
140.95,14.22804,-0.002630817,0.88749,1.0278
143.75,14.31741,-0.002598972,0.90363,1.02678
146.55,14.4066,-0.003300313,0.91628,1.02575
149.35,14.4955,-0.002569338,0.93157,1.02471
152.15,14.58415,-0.002614095,0.94627,1.02365
154.95,14.67239,-0.00396004,0.95747,1.02258
157.75,14.76034,-0.003961447,0.9704,1.0215
160.55,14.84884,-0.004298642,0.9836,1.0204
163.35,14.9366,-0.003950643,0.9977,1.0193
166.15,15.02435,-0.00395,1.00571,1.01818
168.95,15.112,-0.003948872,1.01802,1.01705
171.75,15.19941,-0.004613042,1.02965,1.01591
174.55,15.2867,-0.00427993,1.04059,1.01475
177.35,15.3734,-0.00428,1.05137,1.01359
180.15,15.46003,-0.00428,1.0633,1.01241
182.95,15.5465,-0.00428,1.07318,1.01122
185.75,15.6327,-0.004282376,1.08481,1.01001
188.55,15.7182,-0.0056,1.09449,1.0088
191.35,15.80415,-0.00559628,1.1101,1.00758
194.15,15.88974,-0.006825219,1.11787,1.00634
196.95,15.97519,-0.0056,1.127,1.00509
199.75,16.0608,-0.006580707,1.14159,1.00383
202.55,16.14614,-0.00659,1.15228,1.00256
205.35,16.23125,-0.006590486,1.16484,1.00128
208.15,16.31618,-0.00725,1.17843,0.99998
210.95,16.40139,-0.007582105,1.18937,0.99868
213.75,16.48601,-0.00758,1.20748,0.99736
216.55,16.5713,-0.007579874,1.22061,0.99603
219.35,16.656,-0.008891865,1.23856,0.9947
222.15,16.74093,-0.00889,1.25487,0.99335
224.95,16.8257,-0.007581335,1.27346,0.99199
227.75,16.91023,-0.007576421,1.29571,0.99062
230.55,16.9949,-0.009533162,1.32302,0.98923
233.35,17.07955,-0.00955,1.35773,0.98784
236.15,17.16431,-0.008237422,1.40131,0.98644
238.95,17.2488,-0.00960144,1.45569,0.98503
241.75,17.33324,-0.01087,1.52995,0.9836
244.55,17.41793,-0.009568559,1.63602,0.98217
247.35,17.50248,-0.009560053,1.79474,0.98072
250.15,17.58718,-0.01087016,2.05213,0.97927
252.95,17.67212,-0.009549997,2.47129,0.9778
255.75,17.7572,-0.01085848,2.999,0.97633
258.55,17.84248,-0.0122417,3.26233,0.97484
261.35,17.92762,-0.01219007,2.92673,0.97335
264.15,18.01219,-0.01018668,2.40115,0.97184
266.95,18.0965,-0.01021,2.01002,0.97032
269.75,18.18056,-0.01155218,1.76056,0.9688
272.55,18.26426,-0.01152626,1.60934,0.96726
275.35,18.34819,-0.01283768,1.51872,0.96572
278.15,18.43205,-0.01152002,1.46559,0.96416
280.95,18.516,-0.01284246,1.43478,0.9626
283.75,18.60002,-0.01283999,1.41889,0.96103
286.55,18.68401,-0.01350036,1.41351,0.95944
289.35,18.76804,-0.01482001,1.40873,0.95785
292.15,18.85219,-0.01482273,1.40984,0.95625
294.95,18.93629,-0.01349977,1.40865,0.95464
297.75,19.0206,-0.01482001,1.40764,0.95302
300.55,19.1046,-0.01482,1.40931,0.95139
303.35,19.1891,-0.01482,1.40949,0.94975
306.15,19.27337,-0.01350015,1.41174,0.94811
308.95,19.3576,-0.01342819,1.41394,0.94645
311.75,19.44196,-0.01614,1.41451,0.94478
314.55,19.5263,-0.01643983,1.41403,0.94311
317.35,19.61086,-0.01729619,1.41706,0.94143
320.15,19.6954,-0.01705656,1.41807,0.93974
322.95,19.78012,-0.01745,1.41958,0.93804
325.75,19.86496,-0.01745124,1.42134,0.93633
328.55,19.9497,-0.01840752,1.42309,0.93461
331.35,20.03441,-0.01876996,1.42464,0.93289
334.15,20.1195,-0.01943,1.42573,0.93115
336.95,20.20441,-0.01943511,1.42714,0.92941
339.75,20.2894,-0.02073882,1.43202,0.92766
342.55,20.37455,-0.0216012,1.43217,0.92591
345.35,20.45984,-0.02207,1.43189,0.92414
348.15,20.54514,-0.02207,1.43551,0.92237
350.95,20.63052,-0.02207,1.43608,0.92058
353.75,20.7158,-0.02310081,1.44105,0.91879
356.55,20.80128,-0.02471788,1.44271,0.917
359.35,20.88695,-0.0247,1.44564,0.91519
362.15,20.9724,-0.02470065,1.44969,0.91338
364.95,21.05801,-0.02720631,1.45033,0.91156
367.75,21.14387,-0.02613297,1.45478,0.90973
370.55,21.22965,-0.02734,1.45973,0.90789
373.35,21.31549,-0.02733975,1.46531,0.90605
376.15,21.4013,-0.02864992,1.47818,0.9042
378.95,21.48736,-0.03130164,1.48718,0.90234
381.75,21.57341,-0.03260997,1.49866,0.90048
384.55,21.6598,-0.03260719,1.51124,0.89861
387.35,21.74622,-0.0339218,1.52525,0.89673
390.15,21.83268,-0.03662693,1.53926,0.89484
392.95,21.91905,-0.04020286,1.55782,0.89295
395.75,22.00531,-0.04244005,1.57714,0.89105
398.55,22.09221,-0.04759295,1.60105,0.88914
401.35,22.17867,-0.05438349,1.63095,0.88723
404.15,22.26577,-0.06119328,1.66516,0.88531
406.95,22.35256,-0.07080485,1.69855,0.88338
409.75,22.4398,-0.08232445,1.73319,0.88145
412.55,22.52681,-0.09466358,1.76482,0.87951
415.35,22.61392,-0.11184,1.79661,0.87756
418.15,22.70105,-0.13235,1.82992,0.87561
420.95,22.78825,-0.15947,1.85998,0.87365
423.75,22.87558,-0.18919,1.89263,0.87169
426.55,22.96321,-0.22864,1.94637,0.86972
429.35,23.05058,-0.27559,1.99656,0.86774
432.15,23.13835,-0.33098,2.06721,0.86575
434.95,23.2262,-0.39836,2.14495,0.86376
437.75,23.31384,-0.4782,2.25341,0.86177
440.55,23.40166,-0.57458,2.37684,0.85977
443.35,23.49005,-0.68912,2.48618,0.85776
446.15,23.57818,-0.81837,2.60992,0.85575
448.95,23.66655,-0.96885,2.70828,0.85373
451.75,23.75468,-1.13448,2.76287,0.85171
454.55,23.84305,-1.315,2.84005,0.84968
457.35,23.9316,-1.51175,2.88648,0.84764
460.15,24.02006,-1.71804,2.90022,0.8456
462.95,24.10864,-1.93189,2.85986,0.84356
465.75,24.19693,-2.1383,2.75354,0.8415
468.55,24.28526,-2.33475,2.59182,0.83945
471.35,24.37335,-2.50925,2.37765,0.83739
474.15,24.46173,-2.65441,2.1263,0.83532
476.95,24.55001,-2.76636,1.86534,0.83325
479.75,24.63776,-2.84998,1.63039,0.83117
482.55,24.72585,-2.91173,1.42785,0.82909
485.35,24.81411,-2.95892,1.25649,0.827
488.15,24.90241,-2.99418,1.09923,0.82491
490.95,24.991,-3.02342,0.95947,0.82282
493.75,25.0794,-3.04898,0.83367,0.82072
496.55,25.168,-3.06781,0.72681,0.81861
499.35,25.25662,-3.08283,0.63501,0.8165
502.15,25.3456,-3.09588,0.55618,0.81439
504.95,25.43454,-3.10638,0.49462,0.81227
507.75,25.52373,-3.11677,0.44407,0.81015
510.55,25.61285,-3.12495,0.4079,0.80802
513.35,25.7023,-3.12982,0.37954,0.80589
516.15,25.7917,-3.13511,0.35975,0.80375
518.95,25.88113,-3.14051,0.34801,0.80161
521.75,25.9709,-3.14496,0.33359,0.79947
524.55,26.0606,-3.14964,0.32232,0.79732
527.35,26.15033,-3.15147,0.31283,0.79517
530.15,26.23992,-3.15518,0.30587,0.79301
532.95,26.33002,-3.1578,0.28044,0.79085
535.75,26.42012,-3.16044,0.28778,0.78869
538.55,26.5101,-3.1632,0.29125,0.78652
541.35,26.60037,-3.16606,0.28888,0.78435
544.15,26.69035,-3.16868,0.28948,0.78218
546.95,26.7811,-3.17107,0.28661,0.78
549.75,26.87132,-3.17357,0.28613,0.77782
552.55,26.96167,-3.17474,0.28263,0.77563
555.35,27.05234,-3.17626,0.28126,0.77344
558.15,27.1428,-3.17757,0.27643,0.77125
560.95,27.23337,-3.17889,0.2751,0.76906
563.75,27.3239,-3.18021,0.27006,0.76686
566.55,27.4147,-3.18156,0.26808,0.76466
569.35,27.50535,-3.18284,0.26572,0.76246
572.15,27.5961,-3.18516,0.26396,0.76025
574.95,27.6867,-3.18679,0.25827,0.75804
577.75,27.778,-3.18679,0.2568,0.75583
580.55,27.86905,-3.18942,0.25421,0.75361
583.35,27.96017,-3.19075,0.25195,0.75139
586.15,28.05091,-3.19206,0.24949,0.74917
588.95,28.1424,-3.19213,0.24567,0.74695
591.75,28.2337,-3.19471,0.24473,0.74472
594.55,28.32497,-3.19728,0.23927,0.74249
597.35,28.4164,-3.19889,0.23724,0.74026
600.15,28.5079,-3.20129,0.23651,0.73802
602.95,28.5995,-3.20258,0.23372,0.73579
605.75,28.691,-3.20535,0.22853,0.73355
608.55,28.78252,-3.20535,0.22787,0.73131
611.35,28.8742,-3.20666,0.22689,0.72906
614.15,28.9657,-3.21029,0.22878,0.72682
616.95,29.0578,-3.21277,0.22745,0.72457
619.75,29.14935,-3.21455,0.22651,0.72232
622.55,29.2414,-3.21702,0.22539,0.72007
625.35,29.3331,-3.21861,0.22606,0.71781
628.15,29.42507,-3.22095,0.22774,0.71556
630.95,29.517,-3.22225,0.22757,0.7133
633.75,29.60875,-3.22354,0.22973,0.71104
636.55,29.70085,-3.22626,0.22888,0.70878
639.35,29.79291,-3.2262,0.22722,0.70652
642.15,29.8849,-3.22895,0.23221,0.70425
644.95,29.97699,-3.23117,0.23015,0.70199
647.75,30.069,-3.23286,0.23441,0.69972
650.55,30.16103,-3.23409,0.2382,0.69745
653.35,30.25313,-3.23675,0.24249,0.69518
656.15,30.3453,-3.23806,0.24646,0.69291
658.95,30.43739,-3.23806,0.2469,0.69064
661.75,30.5295,-3.23802,0.24558,0.68836
664.55,30.62176,-3.24069,0.25169,0.68609
667.35,30.71391,-3.24295,0.25649,0.68381
670.15,30.8061,-3.24333,0.26071,0.68153
672.95,30.8985,-3.24465,0.26484,0.67925
675.75,30.9908,-3.24474,0.26478,0.67697
678.55,31.0829,-3.24634,0.26456,0.67469
681.35,31.1755,-3.24733,0.26587,0.67241
684.15,31.2677,-3.24734,0.26583,0.67013
686.95,31.3601,-3.24894,0.26748,0.66785
689.75,31.45246,-3.25084,0.26648,0.66556
692.55,31.5449,-3.25091,0.26854,0.66328
695.35,31.63755,-3.25237,0.26659,0.66099
696.15,31.66395,-3.25255,0.26698,0.66034