Folder: fsri_materials_database/01_Data/Polyester_Microfiber_Sheet/STA/N2/30K_min (part 2)

File: Polyester_Microfiber_Sheet_STA_N2_30KData_220527_R3.csv
##Temp./Â°C,Time/min,Mass loss(subtr.2)/mg,DSC(subtr.2)/(mW/mg),Sensit./(uV/mW)
48.681,10.00667,-0.0046,0.0005456296,1.05398
51.481,10.84987,-0.00271651,0.14151,1.05341
54.281,11.06963,-0.002807197,0.2408,1.05282
57.081,11.23743,-0.00579107,0.31991,1.05222
59.881,11.3813,-0.00358724,0.38534,1.0516
62.681,11.51095,-0.00192445,0.43731,1.05097
65.481,11.6305,-0.001844605,0.48217,1.05032
68.281,11.7462,-0.002085645,0.52612,1.04967
71.081,11.85638,-0.003162072,0.56918,1.04899
73.881,11.96307,-0.002407157,0.60554,1.04831
76.681,12.06743,-0.003000563,0.63718,1.04761
79.481,12.16946,-0.001499259,0.64154,1.04689
82.281,12.26948,-0.00327172,0.63266,1.04616
85.081,12.36903,-0.00354572,0.62109,1.04542
87.881,12.4664,-0.003067479,0.61365,1.04466
90.681,12.56329,-0.002137018,0.60568,1.04389
93.481,12.6591,-0.00150067,0.6034,1.04311
96.281,12.75421,-0.00308198,0.60394,1.04231
99.081,12.84887,-0.00160404,0.60434,1.0415
101.881,12.943,-0.001699009,0.61142,1.04068
104.681,13.03694,-0.00165631,0.62397,1.03984
107.481,13.13035,-0.001623017,0.6394,1.03899
110.281,13.22436,-0.000989579,0.65406,1.03813
113.081,13.3177,-0.001667,0.6681,1.03725
115.881,13.4109,-0.00163968,0.6852,1.03636
118.681,13.5036,-0.001638962,0.70476,1.03545
121.481,13.596,-0.00162676,0.72122,1.03454
124.281,13.6885,-0.002522305,0.73907,1.03361
127.081,13.7803,-0.001981076,0.75536,1.03266
129.881,13.8719,-0.00328199,0.77061,1.03171
132.681,13.9628,-0.00296022,0.78474,1.03074
135.481,14.0535,-0.00164,0.80441,1.02976
138.281,14.14383,-0.002960231,0.82138,1.02876
141.081,14.23356,-0.00428005,0.83824,1.02775
143.881,14.3232,-0.002173637,0.85406,1.02673
146.681,14.41239,-0.003269976,0.86943,1.0257
149.481,14.50128,-0.003387207,0.88161,1.02466
152.281,14.5899,-0.004586688,0.89285,1.0236
155.081,14.6783,-0.0046,0.90469,1.02253
157.881,14.7664,-0.00362032,0.91705,1.02145
160.681,14.8544,-0.00362,0.92855,1.02035
163.481,14.94236,-0.00362,0.93873,1.01925
166.281,15.0302,-0.003622454,0.94806,1.01813
169.081,15.11774,-0.003290005,0.95899,1.017
171.881,15.205,-0.004609519,0.96735,1.01585
174.681,15.2921,-0.00461139,0.98144,1.0147
177.481,15.37884,-0.00362036,0.99185,1.01353
180.281,15.46565,-0.00428,1.00247,1.01235
183.081,15.55207,-0.004838091,1.01086,1.01116
185.881,15.6381,-0.00494,1.02141,1.00996
188.681,15.7239,-0.00494,1.03112,1.00874
191.481,15.8095,-0.00626686,1.04073,1.00752
194.281,15.89514,-0.00529803,1.04994,1.00628
197.081,15.98059,-0.00461,1.06085,1.00503
199.881,16.06543,-0.004608962,1.06872,1.00377
202.681,16.15106,-0.005929999,1.08212,1.0025
205.481,16.23646,-0.006204016,1.09191,1.00122
208.281,16.3216,-0.006919997,1.104,0.99992
211.081,16.40651,-0.008230052,1.11717,0.99862
213.881,16.49145,-0.008230003,1.13008,0.9973
216.681,16.57639,-0.008560175,1.14613,0.99597
219.481,16.66139,-0.008559999,1.15899,0.99463
222.281,16.74584,-0.009866972,1.1751,0.99328
225.081,16.83106,-0.008808215,1.18992,0.99192
227.881,16.9158,-0.009549999,1.21381,0.99055
230.681,17.0001,-0.009539999,1.24148,0.98917
233.481,17.08473,-0.00954,1.27361,0.98778
236.281,17.16912,-0.008854011,1.31598,0.98637
239.081,17.25385,-0.00888,1.36828,0.98496
241.881,17.33845,-0.008834591,1.44038,0.98353
244.681,17.42286,-0.0102,1.54298,0.9821
247.481,17.5072,-0.01152146,1.69788,0.98065
250.281,17.59166,-0.01019034,1.95,0.9792
253.081,17.67636,-0.01020444,2.35215,0.97773
255.881,17.76127,-0.01286865,2.87379,0.97626
258.681,17.8462,-0.01416,3.17279,0.97477
261.481,17.93123,-0.01283911,2.8674,0.97328
264.281,18.01569,-0.01153402,2.33806,0.97177
267.081,18.09979,-0.01283998,1.93602,0.97025
269.881,18.1835,-0.01284,1.67635,0.96873
272.681,18.26732,-0.01415326,1.52198,0.96719
275.481,18.351,-0.01416,1.42766,0.96565
278.281,18.43455,-0.01418707,1.377,0.96409
281.081,18.5186,-0.01548008,1.34622,0.96253
283.881,18.60249,-0.01416008,1.32997,0.96095
286.681,18.68669,-0.01548,1.32355,0.95937
289.481,18.77064,-0.01547999,1.3175,0.95778
292.281,18.8548,-0.01616222,1.31676,0.95618
295.081,18.93911,-0.01839079,1.31594,0.95456
297.881,19.02327,-0.01909992,1.31549,0.95294
300.681,19.10758,-0.01811001,1.31697,0.95131
303.481,19.19177,-0.01811,1.31485,0.94968
306.281,19.27629,-0.01691677,1.3161,0.94803
309.081,19.36068,-0.01677977,1.31811,0.94637
311.881,19.44492,-0.01943033,1.31771,0.94471
314.681,19.52971,-0.01943098,1.31657,0.94303
317.481,19.61427,-0.01943,1.31654,0.94135
320.281,19.699,-0.02040138,1.31766,0.93966
323.081,19.78383,-0.02074871,1.31884,0.93796
325.881,19.8686,-0.02337993,1.32181,0.93625
328.681,19.95334,-0.02338001,1.31974,0.93453
331.481,20.0384,-0.02469,1.32056,0.93281
334.281,20.12347,-0.02467655,1.32152,0.93107
337.081,20.20841,-0.02437002,1.32536,0.92933
339.881,20.29345,-0.02567999,1.3253,0.92758
342.681,20.37847,-0.02678877,1.32557,0.92582
345.481,20.4636,-0.02634,1.32808,0.92406
348.281,20.54893,-0.02634,1.32718,0.92228
351.081,20.63413,-0.02634022,1.32929,0.9205
353.881,20.71958,-0.02766,1.33088,0.91871
356.681,20.80513,-0.02766,1.3338,0.91691
359.481,20.89051,-0.02898804,1.33637,0.91511
362.281,20.9762,-0.02997,1.3396,0.91329
365.081,21.06154,-0.02997016,1.34255,0.91147
367.881,21.14763,-0.03128,1.34781,0.90964
370.681,21.23349,-0.03259995,1.35249,0.90781
373.481,21.31944,-0.0326,1.35553,0.90596
376.281,21.40522,-0.03391958,1.36203,0.90411
379.081,21.49138,-0.03524003,1.37215,0.90226
381.881,21.57757,-0.03689392,1.3798,0.90039
384.681,21.6637,-0.03951602,1.38818,0.89852
387.481,21.75018,-0.04191045,1.39519,0.89664
390.281,21.83659,-0.04347059,1.40574,0.89475
393.081,21.92321,-0.04615815,1.41476,0.89286
395.881,22.00974,-0.04902817,1.43555,0.89096
398.681,22.0963,-0.05306384,1.45653,0.88905
401.481,22.18306,-0.06022596,1.48636,0.88714
404.281,22.26971,-0.06607,1.52077,0.88522
407.081,22.35665,-0.07513361,1.55539,0.88329
409.881,22.4436,-0.08789745,1.59958,0.88136
412.681,22.53071,-0.10143,1.63108,0.87942
415.481,22.6178,-0.11773,1.67016,0.87747
418.281,22.70497,-0.13756,1.63237,0.87552
421.081,22.79223,-0.16179,1.52526,0.87356
423.881,22.8794,-0.19014,1.46607,0.87159
426.681,22.9667,-0.22079,1.42067,0.86962
429.481,23.05419,-0.25806,1.38833,0.86765
432.281,23.1416,-0.301,1.33202,0.86566
435.081,23.22901,-0.34915,1.33419,0.86367
437.881,23.3167,-0.41007,0.93929,0.86168
440.681,23.4041,-0.54057,0.23032,0.85967
443.481,23.491,-0.74159,-1.10827,0.85767
446.281,23.57777,-0.91975,-1.56015,0.85565
449.081,23.66394,-1.10354,-1.17319,0.85364
451.881,23.75119,-1.2397,-0.52515,0.85161
454.681,23.83915,-1.40168,-0.08762813,0.84958
457.481,23.92746,-1.58086,0.20503,0.84755
460.281,24.0158,-1.77529,0.38308,0.84551
463.081,24.10436,-1.97315,0.4573,0.84346
465.881,24.19304,-2.17064,0.44019,0.84141
468.681,24.2815,-2.35769,0.3455,0.83935
471.481,24.3699,-2.52432,0.19009,0.83729
474.281,24.45826,-2.66737,-0.01129201,0.83522
477.081,24.54665,-2.77991,-0.23326,0.83315
479.881,24.63488,-2.86736,-0.43715,0.83108
482.681,24.72318,-2.93182,-0.60515,0.82899
485.481,24.8118,-2.97819,-0.74451,0.82691
488.281,24.90035,-3.01509,-0.86115,0.82482
491.081,24.98881,-3.04318,-0.92445,0.82272
493.881,25.07757,-3.06869,-0.99347,0.82062
496.681,25.16635,-3.0866,-1.06982,0.81851
499.481,25.25534,-3.10189,-1.13364,0.8164
502.281,25.34412,-3.11194,-1.19357,0.81429
505.081,25.43337,-3.12179,-1.23656,0.81217
507.881,25.5225,-3.13023,-1.27177,0.81005
510.681,25.6119,-3.13569,-1.25911,0.80792
513.481,25.70147,-3.14225,-1.28419,0.80579
516.281,25.79064,-3.14768,-1.30384,0.80365
519.081,25.88054,-3.15271,-1.31899,0.80151
521.881,25.97041,-3.15504,-1.32978,0.79937
524.681,26.06022,-3.15923,-1.33618,0.79722
527.481,26.15,-3.16087,-1.34135,0.79507
530.281,26.23992,-3.1645,-1.34442,0.79291
533.081,26.32987,-3.16855,-1.34953,0.79075
535.881,26.4199,-3.1712,-1.35397,0.78859
538.681,26.51008,-3.17383,-1.35755,0.78642
541.481,26.60036,-3.17692,-1.36287,0.78425
544.281,26.6906,-3.17894,-1.36656,0.78208
547.081,26.7809,-3.17954,-1.36695,0.7799
549.881,26.8714,-3.18218,-1.37369,0.77772
552.681,26.9618,-3.18481,-1.37832,0.77553
555.481,27.05238,-3.18613,-1.38262,0.77334
558.281,27.143,-3.18481,-1.38724,0.77115
561.081,27.23365,-3.18517,-1.3956,0.76896
563.881,27.32442,-3.18744,-1.40035,0.76676
566.681,27.4151,-3.18875,-1.40609,0.76456
569.481,27.506,-3.1914,-1.41037,0.76235
572.281,27.5969,-3.19209,-1.41845,0.76014
575.081,27.688,-3.19281,-1.42584,0.75793
577.881,27.779,-3.19437,-1.43226,0.75572
580.681,27.8698,-3.19568,-1.43844,0.75351
583.481,27.9611,-3.19702,-1.44469,0.75129
586.281,28.0521,-3.20097,-1.4484,0.74907
589.081,28.14322,-3.19963,-1.45658,0.74684
591.881,28.2345,-3.20203,-1.4632,0.74461
594.681,28.32585,-3.20359,-1.46956,0.74238
597.481,28.4171,-3.20756,-1.4773,0.74015
600.281,28.5084,-3.20886,-1.48429,0.73792
603.081,28.59974,-3.21017,-1.48917,0.73568
605.881,28.69122,-3.21211,-1.49106,0.73344
608.681,28.7827,-3.21346,-1.49443,0.7312
611.481,28.8742,-3.21478,-1.50268,0.72896
614.281,28.96572,-3.217,-1.50998,0.72671
617.081,29.0575,-3.21884,-1.51354,0.72446
619.881,29.1492,-3.22016,-1.52222,0.72221
622.681,29.2407,-3.22281,-1.53001,0.71996
625.481,29.3326,-3.22344,-1.53742,0.71771
628.281,29.4243,-3.22482,-1.54635,0.71545
631.081,29.5161,-3.2274,-1.55963,0.7132
633.881,29.608,-3.22875,-1.56717,0.71094
636.681,29.7,-3.23136,-1.57645,0.70868
639.481,29.7919,-3.23267,-1.5889,0.70641
642.281,29.88375,-3.23399,-1.60177,0.70415
645.081,29.9759,-3.23527,-1.60973,0.70188
647.881,30.0679,-3.23798,-1.62425,0.69962
650.681,30.16,-3.24058,-1.63204,0.69735
653.481,30.2521,-3.24184,-1.63445,0.69508
656.281,30.3442,-3.24321,-1.64413,0.6928
659.081,30.4362,-3.24422,-1.64962,0.69053
661.881,30.52842,-3.24651,-1.66258,0.68826
664.681,30.62067,-3.24854,-1.67185,0.68598
667.481,30.7128,-3.2494,-1.69071,0.6837
670.281,30.80497,-3.25134,-1.70818,0.68143
673.081,30.8974,-3.25277,-1.68499,0.67915
675.881,30.98961,-3.25276,-1.70772,0.67687
678.681,31.082,-3.25408,-1.72995,0.67459
681.481,31.17438,-3.25408,-1.74935,0.67231
684.281,31.2668,-3.25409,-1.77182,0.67002
687.081,31.35933,-3.2554,-1.79197,0.66774
689.881,31.45168,-3.25671,-1.81059,0.66546
692.681,31.54412,-3.25803,-1.82825,0.66317
695.481,31.6366,-3.2594,-1.8564,0.66089
696.381,31.66631,-3.25935,-1.86301,0.66015