Folder: fsri_materials_database/01_Data/Polyester_Microfiber_Sheet/STA/N2/3K_min

Note: 01_Data/README.md
# Materials and Products Database
## 01_Data

Raw data generated from each apparatus are included here in plain-text format. The data is organized first by material, next by the short name of test apparatus used, and where applicable additional filtering by test settings.

### material.json

Each material directory contains a json file of the same name as the material. This file links the data stored in the repository as well as data and graphs produced by the accompanying scripts (__02_Scripts__) to the respective landing page for the material on the front-end website.

File: Polyester_Microfiber_Sheet_STA_N2_3KData_220527_R1.csv
##Temp./Â°C,Time/min,Mass loss(subtr.2)/mg,DSC(subtr.2)/(mW/mg),Sensit./(uV/mW)
50.242,10.01667,-0.00944,-0.002358199,1.05674
53.142,12.19859,-0.01021515,0.05244246,1.05642
56.042,13.31076,-0.01123052,0.05933686,1.05608
58.942,14.36125,-0.01235567,0.06314058,1.05573
61.842,15.3735,-0.01185009,0.06788847,1.05536
64.742,16.36459,-0.01316997,0.07052973,1.05498
67.642,17.34796,-0.01317062,0.07319461,1.05459
70.542,18.3267,-0.01024636,0.07159738,1.05418
73.442,19.29431,-0.01119588,0.06947935,1.05377
76.342,20.26556,-0.01347364,0.06641227,1.05333
79.242,21.2357,-0.01485767,0.06547744,1.05289
82.142,22.2084,-0.01270735,0.06359376,1.05243
85.042,23.1756,-0.01317855,0.06381424,1.05195
87.942,24.14322,-0.01366501,0.06035469,1.05146
90.842,25.10849,-0.013665,0.06294476,1.05096
93.742,26.07241,-0.01319599,0.06119078,1.05044
96.642,27.0404,-0.01318402,0.06590084,1.04991
99.542,27.99786,-0.01349591,0.06742055,1.04937
102.442,28.95605,-0.01275256,0.07091174,1.04881
105.342,29.9122,-0.01384778,0.07248645,1.04824
108.242,30.86668,-0.01351,0.07593408,1.04765
111.142,31.8273,-0.01251038,0.0755528,1.04705
114.042,32.78368,-0.01219001,0.07585701,1.04644
116.942,33.7431,-0.01325724,0.07810873,1.04581
119.842,34.70093,-0.01053788,0.0803133,1.04517
122.742,35.65721,-0.01120001,0.08360803,1.04451
125.642,36.6076,-0.01073396,0.08490646,1.04384
128.542,37.55976,-0.01056339,0.08504418,1.04315
131.442,38.51421,-0.01151742,0.08882965,1.04245
134.342,39.4664,-0.01151974,0.09237549,1.04173
137.242,40.4182,-0.01145832,0.09439899,1.041
140.142,41.3688,-0.01251,0.09618447,1.04026
143.042,42.3172,-0.01217204,0.09607595,1.0395
145.942,43.26701,-0.01217941,0.09836367,1.03872
148.842,44.21553,-0.01182827,0.1028,1.03793
151.742,45.16068,-0.01114943,0.09956913,1.03713
154.642,46.10885,-0.0118583,0.10066,1.03631
157.542,47.05658,-0.01251,0.10116,1.03548
160.442,48.00462,-0.01086005,0.10105,1.03463
163.342,48.9512,-0.01311741,0.10264,1.03376
166.242,49.8934,-0.01421654,0.10284,1.03288
169.142,50.83934,-0.01383974,0.10324,1.03199
172.042,51.78628,-0.01548017,0.10368,1.03108
174.942,52.725,-0.01546703,0.10643,1.03016
177.842,53.66907,-0.01481305,0.10533,1.02922
180.742,54.61254,-0.01548445,0.10815,1.02826
183.642,55.55254,-0.01497763,0.1076,1.02729
186.542,56.4955,-0.01514998,0.10897,1.02631
189.442,57.43466,-0.01580028,0.10856,1.02531
192.342,58.3748,-0.01580598,0.10876,1.02429
195.242,59.31276,-0.01648612,0.10861,1.02326
198.142,60.2517,-0.01581,0.10915,1.02221
201.042,61.19993,-0.01712639,0.11113,1.02115
203.942,62.144,-0.01713,0.11502,1.02007
206.842,63.083,-0.01811115,0.11517,1.01898
209.742,64.02153,-0.01735101,0.11586,1.01787
212.642,64.96164,-0.01877,0.11621,1.01675
215.542,65.90175,-0.02045632,0.11998,1.01561
218.442,66.8438,-0.02108004,0.12004,1.01445
221.342,67.78336,-0.02141119,0.1207,1.01328
224.242,68.72038,-0.02041968,0.12354,1.01209
227.142,69.66154,-0.02139841,0.12358,1.01089
230.042,70.60082,-0.0214011,0.12814,1.00968
232.942,71.53703,-0.02271693,0.1291,1.00844
235.842,72.47531,-0.0237093,0.13146,1.00719
238.742,73.41506,-0.02559189,0.13673,1.00593
241.642,74.35669,-0.02500152,0.14243,1.00465
244.542,75.2948,-0.02632235,0.15022,1.00335
247.442,76.23733,-0.02502788,0.16408,1.00204
250.342,77.17883,-0.02700051,0.18884,1.00071
253.242,78.11893,-0.02635001,0.23499,0.99937
256.142,79.06267,-0.02791202,0.37008,0.99801
259.042,80.0073,-0.02911336,0.3921,0.99663
261.942,80.9464,-0.0276684,0.27788,0.99524
264.842,81.8818,-0.02798033,0.1973,0.99384
267.742,82.81779,-0.03160977,0.16027,0.99242
270.642,83.75787,-0.03065031,0.14509,0.99098
273.542,84.69872,-0.03161001,0.141,0.98952
276.442,85.64217,-0.03094991,0.1393,0.98805
279.342,86.58026,-0.03195067,0.1393,0.98657
282.242,87.52583,-0.03161993,0.13559,0.98507
285.142,88.46746,-0.03161992,0.13441,0.98355
288.042,89.40912,-0.03157675,0.13496,0.98202
290.942,90.35401,-0.02957689,0.13611,0.98047
293.842,91.29319,-0.03000357,0.13752,0.9789
296.742,92.23464,-0.03227749,0.13813,0.97732
299.642,93.1725,-0.03326001,0.13822,0.97573
302.542,94.11619,-0.03325544,0.135,0.97412
305.442,95.05881,-0.03458,0.13917,0.97249
308.342,95.99929,-0.03391913,0.13904,0.97085
311.242,96.94612,-0.03532066,0.13594,0.96919
314.142,97.8907,-0.03523338,0.13592,0.96751
317.042,98.83371,-0.03559211,0.13954,0.96582
319.942,99.776,-0.03656044,0.13971,0.96412
322.842,100.721,-0.0375503,0.13923,0.96239
325.742,101.667,-0.03918274,0.13709,0.96066
328.642,102.612,-0.03918984,0.1408,0.9589
331.542,103.558,-0.04213262,0.14179,0.95714
334.442,104.505,-0.04413594,0.14369,0.95535
337.342,105.4485,-0.04544,0.145,0.95355
340.242,106.399,-0.04844873,0.14682,0.95174
343.142,107.35,-0.05104044,0.14631,0.94991
346.042,108.296,-0.05266374,0.15166,0.94806
348.942,109.243,-0.05729189,0.15363,0.9462
351.842,110.192,-0.06262451,0.15648,0.94432
354.742,111.141,-0.06750701,0.16153,0.94243
357.642,112.09,-0.07402352,0.16695,0.94052
360.542,113.036,-0.0821418,0.17233,0.9386
363.442,113.986,-0.09261078,0.16608,0.93666
366.342,114.9361,-0.10705,0.17029,0.93471
369.242,115.8849,-0.12425,0.1743,0.93274
372.142,116.8355,-0.14554,0.18208,0.93076
375.042,117.783,-0.17191,0.1911,0.92876
377.942,118.733,-0.20517,0.19818,0.92674
380.842,119.686,-0.24759,0.20774,0.92472
383.742,120.636,-0.29603,0.2198,0.92267
386.642,121.585,-0.35615,0.23199,0.92061
389.542,122.539,-0.42882,0.24481,0.91854
392.442,123.495,-0.51707,0.25935,0.91645
395.342,124.447,-0.62542,0.27693,0.91435
398.242,125.397,-0.75021,0.28646,0.91223
401.142,126.353,-0.89803,0.30044,0.9101
404.042,127.304,-1.06525,0.31227,0.90795
406.942,128.257,-1.25172,0.31535,0.90579
409.842,129.21,-1.45807,0.32058,0.90361
412.742,130.166,-1.68226,0.3205,0.90142
415.642,131.1191,-1.91065,0.31267,0.89922
418.542,132.076,-2.13977,0.29656,0.897
421.442,133.029,-2.34957,0.27403,0.89477
424.342,133.981,-2.5333,0.24442,0.89252
427.242,134.938,-2.67854,0.20929,0.89026
430.142,135.892,-2.7865,0.17514,0.88798
433.042,136.844,-2.86492,0.14851,0.88569
435.942,137.805,-2.92571,0.13012,0.88339
438.842,138.76,-2.97308,0.11637,0.88107
441.742,139.717,-3.01018,0.0998856,0.87874
444.642,140.674,-3.0373,0.08260853,0.8764
447.542,141.632,-3.06157,0.06771727,0.87404
450.442,142.59,-3.08084,0.05835083,0.87167
453.342,143.547,-3.09628,0.05346862,0.86929
456.242,144.502,-3.10707,0.04156264,0.86689
459.142,145.461,-3.11718,0.0162123,0.86448
462.042,146.427,-3.12706,0.005531,0.86205
464.942,147.385,-3.13102,-0.002226502,0.85961
467.842,148.343,-3.13821,-0.007563888,0.85716
470.742,149.304,-3.14255,-0.009273933,0.8547
473.642,150.266,-3.14683,-0.01530324,0.85222
476.542,151.2296,-3.15274,-0.01187679,0.84973
479.442,152.185,-3.15496,-0.01042544,0.84723
482.342,153.146,-3.1577,-0.01928352,0.84472
485.242,154.11,-3.16149,-0.004078081,0.84219
488.142,155.073,-3.16363,0.00165923,0.83965
491.042,156.0388,-3.16626,-0.001631174,0.8371
493.942,157.002,-3.1679,0.00248686,0.83454
496.842,157.965,-3.17119,-4.160732e-05,0.83196
499.742,158.927,-3.17245,0.002687531,0.82937
502.642,159.89,-3.17713,0.002572525,0.82677
505.542,160.856,-3.17877,0.005415725,0.82416
508.442,161.817,-3.1791,0.00373977,0.82154
511.342,162.778,-3.18048,0.00653091,0.8189
514.242,163.745,-3.18274,0.002020793,0.81626
517.142,164.716,-3.18273,-0.0002444485,0.8136
520.042,165.681,-3.18471,0.00316432,0.81093
522.942,166.644,-3.18635,0.00478784,0.80825
525.842,167.61,-3.18604,0.003451333,0.80556
528.742,168.573,-3.18767,0.005873191,0.80286
531.642,169.539,-3.19063,0.004926838,0.80015
534.542,170.503,-3.19163,0.001786988,0.79742
537.442,171.469,-3.19325,-0.00145413,0.79469
540.342,172.438,-3.19689,-0.00338732,0.79194
543.242,173.408,-3.19697,-0.001933074,0.78919
546.142,174.371,-3.19966,-0.00430848,0.78642
549.042,175.336,-3.19854,-0.00378165,0.78365
551.942,176.304,-3.19887,-0.004932859,0.78086
554.842,177.278,-3.19854,-0.006029211,0.77807
557.742,178.249,-3.21007,-0.00193544,0.77526
560.642,179.216,-3.20799,-0.005680887,0.77245
563.542,180.187,-3.20455,-0.00478561,0.76963
566.442,181.157,-3.2172,0.001659119,0.76679
569.342,182.126,-3.21983,0.00701702,0.76395
572.242,183.095,-3.21477,0.00692205,0.7611
575.142,184.064,-3.21983,0.01045893,0.75824
578.042,185.036,-3.22445,0.01422969,0.75537
580.942,186.006,-3.22053,0.01720427,0.75249
583.842,186.976,-3.22074,0.01948642,0.7496
586.742,187.954,-3.22017,0.02161272,0.74671
589.642,188.925,-3.22411,0.02419988,0.7438
592.542,189.888,-3.2257,0.0272695,0.74089
595.442,190.862,-3.22807,0.02913818,0.73797
598.342,191.835,-3.22807,0.03416647,0.73504
601.242,192.807,-3.22972,0.03465336,0.73211
604.142,193.782,-3.23003,0.03873492,0.72916
607.042,194.756,-3.23096,0.04632231,0.72621
609.942,195.728,-3.23334,0.04709865,0.72325
612.842,196.701,-3.23465,0.05113756,0.72029
615.742,197.672,-3.2363,0.05358979,0.71731
618.642,198.642,-3.2363,0.06027548,0.71433
621.542,199.616,-3.23663,0.06577522,0.71134
624.442,200.591,-3.23696,0.06860932,0.70835
627.342,201.568,-3.23794,0.06447615,0.70535
630.242,202.545,-3.24091,0.0673934,0.70234
633.142,203.518,-3.24234,0.06578973,0.69933
636.042,204.488,-3.24286,0.07202799,0.69631
638.942,205.463,-3.24222,0.07169151,0.69328
641.842,206.438,-3.24354,0.07431111,0.69025
644.742,207.412,-3.24421,0.07278775,0.68721
647.642,208.389,-3.24454,0.07045647,0.68417
650.542,209.3651,-3.24684,0.0676652,0.68112
653.442,210.337,-3.24715,0.07068675,0.67807
656.342,211.317,-3.24651,0.06670839,0.67501
659.242,212.288,-3.24786,0.06675393,0.67195
662.142,213.263,-3.24848,0.06877475,0.66888
665.042,214.2443,-3.24981,0.06702512,0.6658
667.942,215.2222,-3.24948,0.07208222,0.66272
670.842,216.194,-3.2495,0.06996137,0.65964
673.742,217.173,-3.25046,0.06364701,0.65655
676.642,218.149,-3.2518,0.06058022,0.65346
679.542,219.123,-3.25028,0.05412216,0.65037
682.442,220.096,-3.25081,0.05314127,0.64727
685.342,221.074,-3.251,0.04916581,0.64417
688.242,222.05,-3.25178,0.05292242,0.64106
691.142,223.023,-3.25342,0.04923741,0.63795
694.042,224.004,-3.2537,0.049378,0.63484
696.942,224.977,-3.2531,0.04528484,0.63172
699.842,225.954,-3.25475,0.0482978,0.6286
701.942,226.659,-3.25606,0.04681398,0.62634