Folder: fsri_materials_database/01_Data/LDPE/STA/N2/10K_min (part 2)

File: LDPE_STA_N2_10KData_210907_R3.csv
##Temp./Â°C,Time/min,Mass(subtr.2)/%,DSC(subtr.2)/(mW/mg),Sensit./(uV/mW)
49.676,10.01,99.54115,0.02319663,1.03585
52.176,12.3474,99.47548,0.1362,1.03572
54.676,13.03634,99.47372,0.19557,1.03556
57.176,13.5798,99.50591,0.24021,1.03538
59.676,14.0557,99.47782,0.27107,1.03517
62.176,14.48775,99.47551,0.29468,1.03494
64.676,14.88809,99.44876,0.31491,1.03467
67.176,15.26415,99.50879,0.33484,1.03438
69.676,15.62014,99.47345,0.35685,1.03407
72.176,15.96106,99.4627,0.37733,1.03372
74.676,16.28764,99.43024,0.401,1.03336
77.176,16.6048,99.428,0.42461,1.03296
79.676,16.91226,99.45,0.45277,1.03254
82.176,17.2114,99.43261,0.47761,1.0321
84.676,17.5031,99.41764,0.50903,1.03163
87.176,17.7886,99.4511,0.54182,1.03113
89.676,18.06741,99.4812,0.5809,1.03061
92.176,18.34154,99.41818,0.61517,1.03006
94.676,18.61024,99.4528,0.63478,1.02949
97.176,18.87588,99.3922,0.6876,1.0289
99.676,19.1384,99.4528,0.77283,1.02828
102.176,19.39834,99.4554,0.89992,1.02763
104.676,19.6559,99.4224,1.05544,1.02696
107.176,19.91249,99.4528,1.23949,1.02627
109.676,20.16732,99.48528,1.42441,1.02556
112.176,20.41972,99.45993,1.33472,1.02482
114.676,20.6671,99.45034,0.73779,1.02406
117.176,20.9112,99.43779,0.52053,1.02327
119.676,21.1543,99.4479,0.46331,1.02246
122.176,21.39584,99.47793,0.45231,1.02163
124.676,21.6376,99.44272,0.45186,1.02077
127.176,21.87681,99.44038,0.45636,1.0199
129.676,22.11534,99.3822,0.45943,1.019
132.176,22.35197,99.47285,0.4639,1.01808
134.676,22.5867,99.47309,0.46661,1.01713
137.176,22.8214,99.71692,0.47332,1.01617
139.676,23.05386,99.5133,0.47655,1.01518
142.176,23.28562,99.35705,0.47977,1.01417
144.676,23.51647,99.32291,0.48326,1.01315
147.176,23.74669,99.34687,0.48686,1.0121
149.676,23.97639,99.41578,0.48966,1.01102
152.176,24.2055,99.40741,0.49626,1.00993
154.676,24.4341,99.43514,0.49828,1.00882
157.176,24.66229,99.4653,0.5009,1.00769
159.676,24.8902,99.43517,0.50683,1.00654
162.176,25.1174,99.41339,0.51102,1.00536
164.676,25.3449,99.44385,0.51527,1.00417
167.176,25.57166,99.3818,0.5171,1.00296
169.676,25.79871,99.4152,0.52245,1.00173
172.176,26.02509,99.38486,0.52476,1.00048
174.676,26.2519,99.3848,0.52799,0.99921
177.176,26.4773,99.38986,0.53377,0.99792
179.676,26.70298,99.38463,0.53737,0.99662
182.176,26.92817,99.38173,0.5387,0.9953
184.676,27.15268,99.3545,0.54384,0.99395
187.176,27.37705,99.35248,0.54598,0.99259
189.676,27.6006,99.34599,0.54948,0.99122
192.176,27.82423,99.36065,0.55316,0.98982
194.676,28.04755,99.35947,0.55589,0.98841
197.176,28.2711,99.35977,0.56053,0.98698
199.676,28.4939,99.35954,0.56664,0.98553
202.176,28.7173,99.35954,0.56851,0.98407
204.676,28.9405,99.35954,0.57321,0.98259
207.176,29.1632,99.36793,0.5783,0.9811
209.676,29.3863,99.32951,0.58367,0.97958
212.176,29.6093,99.38715,0.58714,0.97806
214.676,29.83219,99.35693,0.58734,0.97651
217.176,30.05507,99.33886,0.58916,0.97496
219.676,30.27836,99.37218,0.59236,0.97338
222.176,30.5013,99.29604,0.59677,0.97179
224.676,30.7243,99.3318,0.59583,0.97019
227.176,30.94698,99.3469,0.60094,0.96857
229.676,31.1701,99.31655,0.60418,0.96694
232.176,31.39357,99.3317,0.60343,0.96529
234.676,31.6164,99.36367,0.60566,0.96363
237.176,31.84017,99.35715,0.60874,0.96196
239.676,32.06337,99.33426,0.60832,0.96027
242.176,32.287,99.30455,0.61224,0.95857
244.676,32.51032,99.30414,0.61258,0.95685
247.176,32.73383,99.3267,0.61451,0.95513
249.676,32.95756,99.3044,0.61454,0.95339
252.176,33.1817,99.32398,0.61599,0.95163
254.676,33.4056,99.33888,0.61886,0.94987
257.176,33.62959,99.36199,0.61881,0.94809
259.676,33.854,99.3621,0.61962,0.9463
262.176,34.07816,99.33201,0.6207,0.9445
264.676,34.30211,99.28242,0.62533,0.94269
267.176,34.52635,99.31149,0.62611,0.94087
269.676,34.75099,99.28104,0.62699,0.93903
272.176,34.97587,99.2748,0.62989,0.93719
274.676,35.20058,99.30412,0.62983,0.93533
277.176,35.42519,99.32685,0.63033,0.93347
279.676,35.65085,99.29686,0.63423,0.93159
282.176,35.87592,99.30414,0.63465,0.9297
284.676,36.10117,99.32301,0.63612,0.92781
287.176,36.3274,99.30667,0.63498,0.9259
289.676,36.55346,99.29139,0.63698,0.92399
292.176,36.7798,99.32189,0.64064,0.92206
294.676,37.00631,99.23106,0.64111,0.92013
297.176,37.23257,99.2839,0.64204,0.91819
299.676,37.46002,99.26137,0.64529,0.91624
302.176,37.68717,99.25356,0.64888,0.91428
304.676,37.9142,99.2839,0.64894,0.91231
307.176,38.14192,99.29214,0.65301,0.91033
309.676,38.36956,99.29133,0.65801,0.90835
312.176,38.5978,99.23145,0.66015,0.90636
314.676,38.82597,99.12528,0.66601,0.90436
317.176,39.0538,99.29828,0.66732,0.90235
319.676,39.28306,99.3005,0.66894,0.90034
322.176,39.51164,99.10053,0.67347,0.89832
324.676,39.7409,99.256,0.67923,0.8963
327.176,39.9702,99.25632,0.68053,0.89426
329.676,40.19939,99.25522,0.68758,0.89223
332.176,40.4285,99.2333,0.68709,0.89018
334.676,40.65803,99.2637,0.69092,0.88813
337.176,40.88746,99.2333,0.69345,0.88607
339.676,41.11719,99.226,0.69813,0.88401
342.176,41.34725,99.2409,0.69807,0.88195
344.676,41.5777,99.27404,0.69843,0.87988
347.176,41.80826,99.24114,0.70322,0.8778
349.676,42.0389,99.22944,0.70458,0.87572
352.176,42.26967,99.19816,0.71071,0.87363
354.676,42.50107,99.1678,0.70975,0.87154
357.176,42.733,99.1982,0.71064,0.86945
359.676,42.96483,99.1689,0.71564,0.86735
362.176,43.1965,99.10736,0.71868,0.86525
364.676,43.4284,99.11278,0.72414,0.86314
367.176,43.6611,99.1156,0.72607,0.86103
369.676,43.8936,99.07701,0.7321,0.85892
372.176,44.12543,99.07701,0.73569,0.85681
374.676,44.3589,99.04615,0.74051,0.85469
377.176,44.59167,98.9919,0.74395,0.85257
379.676,44.82515,99.05449,0.74568,0.85045
382.176,45.05918,98.9881,0.74854,0.84832
384.676,45.29292,98.97616,0.74628,0.84619
387.176,45.52701,98.8833,0.74641,0.84407
389.676,45.7615,99.11946,0.74821,0.84193
392.176,45.99577,98.8066,0.74808,0.8398
394.676,46.22988,98.7068,0.74809,0.83767
397.176,46.46475,98.69721,0.74668,0.83553
399.676,46.69912,98.60335,0.74586,0.8334
402.176,46.93456,98.54276,0.74582,0.83126
404.676,47.17011,98.50985,0.7395,0.82912
407.176,47.40514,98.46933,0.73794,0.82698
409.676,47.6411,98.27423,0.73297,0.82485
412.176,47.87707,98.23557,0.73023,0.82271
414.676,48.11295,98.1382,0.73215,0.82057
417.176,48.34968,97.99854,0.73573,0.81843
419.676,48.58594,97.78611,0.73951,0.81629
422.176,48.82287,97.48481,0.75636,0.81415
424.676,49.0602,97.2308,0.77132,0.81201
427.176,49.2973,96.99444,0.78909,0.80988
429.676,49.53453,96.66642,0.80849,0.80774
432.176,49.77172,96.3194,0.83696,0.80561
434.676,50.00975,95.96575,0.86178,0.80347
437.176,50.2476,95.51384,0.89464,0.80134
439.676,50.48591,94.93225,0.93054,0.79921
442.176,50.72426,94.28565,0.97009,0.79708
444.676,50.96293,93.5571,1.01462,0.79495
447.176,51.20176,92.59181,1.06725,0.79282
449.676,51.44061,91.441,1.11765,0.7907
452.176,51.67941,90.13384,1.17252,0.78858
454.676,51.91856,88.48302,1.22948,0.78646
457.176,52.15665,86.61092,1.29217,0.78434
459.676,52.3956,84.2894,1.36532,0.78223
462.176,52.63511,81.6228,1.43767,0.78012
464.676,52.87517,78.35499,1.51662,0.77801
467.176,53.11461,74.56936,1.60052,0.7759
469.676,53.35491,70.09527,1.69848,0.7738
472.176,53.59515,64.85592,1.79209,0.7717
474.676,53.8362,58.99782,1.88554,0.76961
477.176,54.07603,52.4833,1.97344,0.76751
479.676,54.31674,45.40488,2.0876,0.76542
482.176,54.55562,35.66363,2.17295,0.76334
484.676,54.79524,26.9074,2.00987,0.76126
487.176,55.0373,19.01171,1.77873,0.75918
489.676,55.27997,12.19661,1.47825,0.75711
492.176,55.5236,6.89703,1.1392,0.75504
494.676,55.76648,3.40832,0.81703,0.75298
497.176,56.0101,1.41341,0.55159,0.75092
499.676,56.2525,0.40021,0.35328,0.74886
502.176,56.49513,0.03801312,0.22533,0.74681
504.676,56.73755,-0.11269,0.15929,0.74477
507.176,56.9795,-0.14464,0.11633,0.74273
509.676,57.22217,-0.16232,0.05284427,0.74069
512.176,57.46527,-0.18589,0.08586051,0.73866
514.676,57.7086,-0.10944,0.09439304,0.73664
517.176,57.9526,-0.10431,0.093075,0.73462
519.676,58.196,-0.1293,0.08977658,0.7326
522.176,58.43917,-0.17725,0.09117128,0.7306
524.676,58.6831,-0.11663,0.09104536,0.72859
527.176,58.92711,-0.12451,0.08736873,0.7266
529.676,59.17195,-0.11678,0.08913222,0.72461
532.176,59.41649,-0.13449,0.09110311,0.72262
534.676,59.66138,-0.16485,0.09336794,0.72064
537.176,59.90636,-0.13449,0.09245872,0.71867
539.676,60.1501,-0.13472,0.09466727,0.7167
542.176,60.39594,-0.13472,0.09602879,0.71474
544.676,60.64141,-0.16482,0.09355713,0.71279
547.176,60.887,-0.13472,0.09519011,0.71084
549.676,61.1321,-0.1649,0.09402379,0.7089
552.176,61.3776,-0.1123,0.09430849,0.70697
554.676,61.6237,-0.17502,0.09510326,0.70504
557.176,61.86974,-0.13472,0.09827929,0.70312
559.676,62.11541,-0.16499,0.09951962,0.70121
562.176,62.3625,-0.12708,0.09992576,0.6993
564.676,62.60841,-0.09643218,0.10138,0.6974
567.176,62.8544,-0.19274,0.10256,0.69551
569.676,63.10082,-0.1623,0.10122,0.69362
572.176,63.3474,-0.18712,0.10432,0.69174
574.676,63.5941,-0.14704,0.10541,0.68987
577.176,63.8412,-0.14713,0.10418,0.68801
579.676,64.0885,-0.16234,0.0995604,0.68615
582.176,64.33652,-0.16186,0.10333,0.6843
584.676,64.58457,-0.14713,0.10445,0.68246
587.176,64.83202,-0.16622,0.1014,0.68063
589.676,65.07965,-0.17743,0.10181,0.67881
592.176,65.32778,-0.14612,0.10466,0.67699
594.676,65.57581,-0.17245,0.10496,0.67518
597.176,65.82393,-0.18505,0.10214,0.67338
599.676,66.0715,-0.15494,0.10248,0.67158
602.176,66.3201,-0.18506,0.09741933,0.66979
604.676,66.56879,-0.17039,0.10042,0.66802
607.176,66.81765,-0.15634,0.1006,0.66625
609.676,67.06644,-0.10947,0.0974181,0.66448
612.176,67.31544,-0.14595,0.09791163,0.66273
614.676,67.56426,-0.1451,0.09813858,0.66098
617.176,67.8138,-0.16988,0.09855588,0.65925
619.676,68.06392,-0.14929,0.09665208,0.65752
622.176,68.31323,-0.14713,0.09886042,0.6558
624.676,68.56274,-0.14948,0.09856485,0.65408
627.176,68.81319,-0.11672,0.10158,0.65238
629.676,69.06353,-0.14701,0.101,0.65068
632.176,69.31304,-0.08718233,0.09800035,0.64899
634.676,69.56234,-0.14713,0.09799995,0.64732
637.176,69.8118,-0.14713,0.10009,0.64564
638.976,69.9924,-0.16251,0.09875806,0.64445