Folder: fsri_materials_database/01_Data/LDPE/STA/N2/10K_min

Note: 01_Data/README.md
# Materials and Products Database
## 01_Data

Raw data generated from each apparatus are included here in plain-text format. The data is organized first by material, next by the short name of test apparatus used, and where applicable additional filtering by test settings.

### material.json

Each material directory contains a json file of the same name as the material. This file links the data stored in the repository as well as data and graphs produced by the accompanying scripts (__02_Scripts__) to the respective landing page for the material on the front-end website.

File: LDPE_STA_N2_10KData_210903_R1.csv
##Temp./Â°C,Time/min,Mass(subtr.2)/%,DSC(subtr.2)/(mW/mg),Sensit./(uV/mW)
49.785,10.01,101.833,0.02043446,1.03584
52.285,12.34564,102.017,0.13507,1.03571
54.785,13.02946,102.1586,0.19696,1.03556
57.285,13.57262,102.227,0.23769,1.03537
59.785,14.04855,102.232,0.2666,1.03516
62.285,14.48047,102.291,0.28784,1.03492
64.785,14.88,102.307,0.30979,1.03466
67.285,15.25581,102.286,0.32756,1.03437
69.785,15.61232,102.371,0.34728,1.03405
72.285,15.95212,102.391,0.36831,1.03371
74.785,16.27936,102.496,0.39615,1.03334
77.285,16.5949,102.488,0.41565,1.03294
79.785,16.90263,102.525,0.44311,1.03252
82.285,17.19983,102.5246,0.46994,1.03208
84.785,17.49322,102.564,0.49996,1.0316
87.285,17.77843,102.604,0.5342,1.03111
89.785,18.0577,102.63,0.57315,1.03059
92.285,18.33145,102.603,0.61495,1.03004
94.785,18.60116,102.646,0.66712,1.02947
97.285,18.86668,102.645,0.73495,1.02887
99.785,19.12929,102.687,0.82881,1.02825
102.285,19.38959,102.685,0.95141,1.0276
104.785,19.64659,102.715,1.10147,1.02693
107.285,19.90182,102.767,1.28391,1.02624
109.785,20.15709,102.766,1.47925,1.02553
112.285,20.40871,102.846,1.2724,1.02479
114.785,20.6557,102.846,0.64883,1.02402
117.285,20.90044,102.836,0.48451,1.02323
119.785,21.14344,102.844,0.44793,1.02242
122.285,21.38642,102.896,0.44138,1.02159
124.785,21.6268,102.894,0.43877,1.02074
127.285,21.86651,102.915,0.44513,1.01986
129.785,22.1052,102.895,0.4464,1.01896
132.285,22.342,102.946,0.44655,1.01804
134.785,22.57731,102.975,0.45568,1.01709
137.285,22.8115,102.946,0.45235,1.01613
139.785,23.04443,103.032,0.45849,1.01514
142.285,23.27655,103.05,0.46255,1.01413
144.785,23.5073,103.027,0.4616,1.0131
147.285,23.73691,103,0.46696,1.01205
149.785,23.96565,103.003,0.46405,1.01098
152.285,24.19579,103.043,0.47197,1.00988
154.785,24.42461,103.014,0.47381,1.00877
157.285,24.6525,103.044,0.47493,1.00764
159.785,24.8801,103.003,0.47678,1.00649
162.285,25.10759,103.023,0.48198,1.00531
164.785,25.33413,103.102,0.48254,1.00412
167.285,25.56135,103.083,0.48262,1.00291
169.785,25.78756,103.053,0.48462,1.00168
172.285,26.0141,103.053,0.48946,1.00043
174.785,26.24015,103.133,0.48938,0.99916
177.285,26.46572,103.126,0.48825,0.99787
179.785,26.69035,103.087,0.49015,0.99656
182.285,26.9155,103.087,0.49162,0.99524
184.785,27.1394,103.127,0.49395,0.99389
187.285,27.36304,103.116,0.49581,0.99253
189.785,27.58667,103.1369,0.49511,0.99116
192.285,27.8103,103.106,0.4933,0.98976
194.785,28.0334,103.137,0.49487,0.98835
197.285,28.2565,103.177,0.49947,0.98692
199.785,28.47935,103.107,0.49876,0.98547
202.285,28.70229,103.185,0.49967,0.98401
204.785,28.9249,103.123,0.50146,0.98253
207.285,29.14834,103.18,0.5038,0.98103
209.785,29.37132,103.18,0.50378,0.97952
212.285,29.5943,103.18,0.50727,0.97799
214.785,29.8176,103.19,0.50687,0.97645
217.285,30.04015,103.23,0.50655,0.97489
219.785,30.2634,103.1791,0.50849,0.97331
222.285,30.48651,103.26,0.50955,0.97172
224.785,30.7096,103.301,0.50996,0.97012
227.285,30.93267,103.22,0.50908,0.9685
229.785,31.1562,103.263,0.50926,0.96687
232.285,31.37942,103.2506,0.51195,0.96522
234.785,31.60277,103.326,0.5127,0.96356
237.285,31.82651,103.2907,0.51249,0.96188
239.785,32.05039,103.271,0.51241,0.9602
242.285,32.27405,103.291,0.51361,0.95849
244.785,32.49771,103.291,0.51209,0.95678
247.285,32.72184,103.341,0.51649,0.95505
249.785,32.946,103.342,0.51506,0.95331
252.285,33.17017,103.301,0.51159,0.95156
254.785,33.39444,103.3003,0.51362,0.94979
257.285,33.61838,103.37,0.51579,0.94802
259.785,33.84248,103.361,0.5145,0.94623
262.285,34.06688,103.3081,0.51008,0.94443
264.785,34.2911,103.361,0.51496,0.94261
267.285,34.51551,103.32,0.51687,0.94079
269.785,34.74002,103.384,0.51824,0.93895
272.285,34.96485,103.385,0.52021,0.93711
274.785,35.18999,103.424,0.52005,0.93525
277.285,35.41519,103.385,0.52145,0.93339
279.785,35.6404,103.404,0.52188,0.93151
282.285,35.86544,103.431,0.52178,0.92962
284.785,36.0918,103.438,0.52463,0.92772
287.285,36.3173,103.449,0.52684,0.92582
289.785,36.54319,103.3909,0.52646,0.9239
292.285,36.7696,103.451,0.52691,0.92198
294.785,36.9957,103.471,0.52732,0.92004
297.285,37.2226,103.431,0.52961,0.9181
299.785,37.44955,103.471,0.5338,0.91615
302.285,37.67609,103.511,0.53814,0.91419
304.785,37.90368,103.4714,0.54519,0.91222
307.285,38.13158,103.511,0.55399,0.91025
309.785,38.35892,103.511,0.5596,0.90826
312.285,38.58674,103.511,0.5669,0.90627
314.785,38.81518,103.484,0.57622,0.90427
317.285,39.04313,103.473,0.57813,0.90227
319.785,39.27182,103.441,0.58368,0.90025
322.285,39.50016,103.491,0.58958,0.89823
324.785,39.72893,103.551,0.5873,0.89621
327.285,39.958,103.521,0.59214,0.89418
329.785,40.18717,103.4811,0.59395,0.89214
332.285,40.4165,103.522,0.6041,0.89009
334.785,40.64581,103.564,0.60283,0.88804
337.285,40.87519,103.521,0.60401,0.88599
339.785,41.10479,103.55,0.60716,0.88392
342.285,41.3352,103.568,0.61025,0.88186
344.785,41.56538,103.479,0.61477,0.87978
347.285,41.79627,103.448,0.61745,0.87771
349.785,42.02684,103.419,0.62159,0.87563
352.285,42.25855,103.408,0.62551,0.87354
354.785,42.49026,103.417,0.63078,0.87145
357.285,42.72229,103.448,0.63562,0.86936
359.785,42.95476,103.335,0.63901,0.86726
362.285,43.1862,103.448,0.64441,0.86516
364.785,43.41896,103.448,0.64661,0.86305
367.285,43.651,103.408,0.65678,0.86094
369.785,43.88343,103.2872,0.66768,0.85883
372.285,44.11613,103.247,0.67521,0.85671
374.785,44.34864,103.2431,0.67585,0.8546
377.285,44.58147,103.2033,0.68351,0.85248
379.785,44.81467,103.163,0.69191,0.85035
382.285,45.04784,103.1235,0.70187,0.84823
384.785,45.28118,103.123,0.7088,0.8461
387.285,45.51514,103.053,0.71621,0.84397
389.785,45.74888,102.951,0.72255,0.84184
392.285,45.98276,102.764,0.72976,0.83971
394.785,46.21731,102.661,0.74323,0.83758
397.285,46.45205,102.308,0.75256,0.83544
399.785,46.68687,102.629,0.75251,0.8333
402.285,46.9217,102.302,0.76956,0.83117
404.785,47.1573,102.26,0.77186,0.82903
407.285,47.39334,102.058,0.7866,0.82689
409.785,47.6292,101.918,0.79614,0.82475
412.285,47.86458,101.745,0.81158,0.82261
414.785,48.10093,101.578,0.82723,0.82047
417.285,48.33735,101.254,0.83727,0.81834
419.785,48.57432,100.921,0.84977,0.8162
422.285,48.81111,100.668,0.86758,0.81406
424.785,49.04795,100.287,0.88596,0.81192
427.285,49.2851,99.86465,0.90262,0.80978
429.785,49.52231,99.4192,0.91878,0.80765
432.285,49.7598,98.8399,0.93703,0.80551
434.785,49.9977,98.19,0.95478,0.80338
437.285,50.23591,97.44191,0.98495,0.80125
439.785,50.4744,96.5017,1.01807,0.79911
442.285,50.71224,95.47061,1.05854,0.79698
444.785,50.95055,94.37094,1.11774,0.79486
447.285,51.189,93.0209,1.18172,0.79273
449.785,51.4285,91.39658,1.25406,0.79061
452.285,51.66715,89.50072,1.33055,0.78849
454.785,51.90668,87.35005,1.4202,0.78637
457.285,52.14611,84.84524,1.51951,0.78425
459.785,52.3859,81.84987,1.61745,0.78214
462.285,52.6255,78.4988,1.70077,0.78002
464.785,52.86531,74.47389,1.79189,0.77792
467.285,53.10487,70.03729,1.8691,0.77581
469.785,53.34496,64.86815,1.94592,0.77371
472.285,53.58555,59.23925,2.00256,0.77161
474.785,53.826,52.9707,2.03524,0.76951
477.285,54.06645,46.18688,2.03153,0.76742
479.785,54.30724,39.17532,1.98362,0.76533
482.285,54.54798,31.9725,1.87472,0.76325
484.785,54.78881,25.0621,1.70162,0.76117
487.285,55.031,18.662,1.47118,0.75909
489.785,55.2736,13.3529,1.20565,0.75702
492.285,55.51653,9.27616,0.92526,0.75495
494.785,55.7592,6.48972,0.65243,0.75289
497.285,56.00221,4.8426,0.4063,0.75083
499.785,56.24449,4.12943,0.21363,0.74877
502.285,56.48766,3.86559,0.10448,0.74672
504.785,56.7301,3.72684,0.03778247,0.74468
507.285,56.97277,3.60698,-0.00305635,0.74264
509.785,57.21524,3.6508,-0.11382,0.7406
512.285,57.4581,3.64329,-0.04870764,0.73857
514.785,57.70145,3.72296,-0.03386364,0.73655
517.285,57.94503,3.68353,-0.03672532,0.73453
519.785,58.189,3.71618,-0.03412615,0.73252
522.285,58.43269,3.6752,-0.03246957,0.73051
524.785,58.67621,3.64339,-0.03122407,0.72851
527.285,58.92015,3.61287,-0.02883201,0.72651
529.785,59.1639,3.66011,-0.02354105,0.72452
532.285,59.4082,3.70507,-0.02350652,0.72253
534.785,59.6529,3.7348,-0.02012946,0.72056
537.285,59.8979,3.71373,-0.01272715,0.71858
539.785,60.14272,3.67155,-0.00771239,0.71662
542.285,60.38725,3.67306,-0.00891862,0.71466
544.785,60.63281,3.71341,-0.004075784,0.7127
547.285,60.8786,3.7142,0.0003220323,0.71076
549.785,61.1244,3.70642,0.0139697,0.70882
552.285,61.3699,3.73714,0.01544442,0.70688
554.785,61.6149,3.66337,0.02354835,0.70496
557.285,61.86056,3.72348,0.02610327,0.70304
559.785,62.10632,3.68353,0.03346575,0.70112
562.285,62.3528,3.68334,0.03572232,0.69922
564.785,62.59891,3.75364,0.03803476,0.69732
567.285,62.84593,3.6701,0.04323189,0.69542
569.785,63.0932,3.71372,0.03812027,0.69354
572.285,63.3405,3.7136,0.03984485,0.69166
574.785,63.587,3.67319,0.04290064,0.68979
577.285,63.83466,3.757,0.03830242,0.68793
579.785,64.0823,3.71706,0.03590289,0.68607
582.285,64.3304,3.72288,0.03571193,0.68422
584.785,64.57802,3.76372,0.03530849,0.68238
587.285,64.8254,3.76266,0.02651595,0.68055
589.785,65.07264,3.76718,0.02600023,0.67873
592.285,65.3201,3.71341,0.02918359,0.67691
594.785,65.568,3.75194,0.03036929,0.6751
597.285,65.8169,3.86878,0.0209648,0.6733
599.785,66.06538,3.89421,0.02098986,0.6715
602.285,66.3133,3.82382,0.01629512,0.66972
604.785,66.56188,3.89418,0.01067165,0.66794
607.285,66.81064,3.86394,0.0118239,0.66617
609.785,67.0594,3.89455,0.008303474,0.66441
612.285,67.3083,3.91478,0.001134847,0.66265
614.785,67.55664,3.9378,0.00107938,0.66091
617.285,67.80591,3.72617,0.00360231,0.65917
619.785,68.05519,3.90732,-5.53922e-05,0.65744
622.285,68.30391,3.94756,-0.006637822,0.65572
624.785,68.5538,3.9204,-0.00590771,0.65401
627.285,68.80303,3.95196,-0.003480633,0.6523
629.785,69.05311,3.91424,-0.00565418,0.65061
632.285,69.3031,3.95765,-0.008807123,0.64892
634.785,69.55329,3.97775,-0.01466464,0.64724
637.285,69.80279,3.99893,-0.01518584,0.64557
639.185,69.99265,3.95762,-0.01763697,0.64431

File: LDPE_STA_N2_10KData_210907_R2.csv
##Temp./Â°C,Time/min,Mass(subtr.2)/%,DSC(subtr.2)/(mW/mg),Sensit./(uV/mW)
49.232,10.01,99.21576,0.01681189,1.03587
51.732,12.30056,99.08835,0.15636,1.03575
54.232,12.99164,98.99741,0.23744,1.03559
56.732,13.53744,99.03171,0.2926,1.03542
59.232,14.016,99.03839,0.32858,1.03521
61.732,14.44953,99.02626,0.36039,1.03498
64.232,14.85038,98.99795,0.38572,1.03472
66.732,15.22546,99.00022,0.41041,1.03444
69.232,15.583,98.97281,0.43722,1.03412
71.732,15.92319,98.973,0.46524,1.03379
74.232,16.25067,98.95315,0.49638,1.03342
76.732,16.5666,98.95782,0.52545,1.03303
79.232,16.8742,98.95521,0.55489,1.03262
81.732,17.17336,98.9816,0.58824,1.03218
84.232,17.46549,98.95822,0.61915,1.03171
86.732,17.7506,98.9489,0.66035,1.03122
89.232,18.02889,98.91454,0.69613,1.0307
91.732,18.30335,98.88417,0.70529,1.03016
94.232,18.57287,98.9468,0.68117,1.02959
96.732,18.83825,98.8854,0.65481,1.029
99.232,19.10024,98.9209,0.66957,1.02839
101.732,19.35906,98.88514,0.76235,1.02775
104.232,19.61586,98.88507,0.94491,1.02709
106.732,19.8716,98.86882,1.1567,1.0264
109.232,20.12687,98.92084,1.37433,1.02569
111.732,20.3778,98.88123,1.28237,1.02495
114.232,20.625,98.88206,0.63984,1.02419
116.732,20.8692,98.90165,0.44211,1.02341
119.232,21.11242,98.88332,0.3928,1.02261
121.732,21.35428,98.8087,0.38633,1.02178
124.232,21.59519,98.81058,0.38425,1.02093
126.732,21.83425,98.84647,0.38797,1.02005
129.232,22.072,98.81782,0.39285,1.01916
131.732,22.30882,98.84644,0.39526,1.01824
134.232,22.54354,98.7911,0.40159,1.0173
136.732,22.7774,98.84729,0.40524,1.01634
139.232,23.0102,98.8464,0.40876,1.01536
141.732,23.24201,98.84663,0.4115,1.01435
144.232,23.47268,98.81994,0.41413,1.01333
146.732,23.70279,98.85341,0.41765,1.01228
149.232,23.9319,98.84647,0.42406,1.01122
151.732,24.16121,98.8106,0.42646,1.01013
154.232,24.38909,98.81062,0.43009,1.00902
156.732,24.61656,98.80471,0.43447,1.00789
159.232,24.84385,98.81152,0.43374,1.00674
161.732,25.07114,98.80163,0.43883,1.00557
164.232,25.29821,98.81093,0.4407,1.00439
166.732,25.52451,98.8106,0.44122,1.00318
169.232,25.75129,98.81058,0.44779,1.00195
171.732,25.97772,98.84314,0.45212,1.0007
174.232,26.20372,98.79252,0.45258,0.99944
176.732,26.429,98.82853,0.45304,0.99815
179.232,26.65428,98.79266,0.45758,0.99685
181.732,26.8789,98.79266,0.46028,0.99553
184.232,27.10337,98.79296,0.46161,0.99419
186.732,27.3272,98.79425,0.46209,0.99284
189.232,27.551,98.79293,0.46576,0.99146
191.732,27.77478,98.7568,0.468,0.99007
194.232,27.9981,98.7576,0.46875,0.98866
196.732,28.2212,98.7496,0.47186,0.98723
199.232,28.44394,98.7672,0.47513,0.98579
201.732,28.6669,98.73017,0.47817,0.98433
204.232,28.88983,98.75667,0.47971,0.98286
206.732,29.1131,98.73016,0.4816,0.98136
209.232,29.3357,98.73914,0.48154,0.97985
211.732,29.5591,98.76611,0.48114,0.97833
214.232,29.78221,98.73016,0.48655,0.97679
216.732,30.00494,98.7392,0.48989,0.97523
219.232,30.22778,98.69461,0.49102,0.97366
221.732,30.4508,98.7652,0.48973,0.97208
224.232,30.6738,98.73017,0.49388,0.97048
226.732,30.8968,98.73016,0.49383,0.96886
229.232,31.12025,98.73017,0.49621,0.96723
231.732,31.3436,98.7302,0.49741,0.96559
234.232,31.567,98.73016,0.50043,0.96393
236.732,31.7905,98.73016,0.50044,0.96226
239.232,32.01408,98.73016,0.50362,0.96057
241.732,32.23782,98.73016,0.50112,0.95887
244.232,32.46151,98.7401,0.50741,0.95716
246.732,32.68452,98.70365,0.50988,0.95544
249.232,32.90916,98.73017,0.50909,0.9537
251.732,33.13308,98.7302,0.51202,0.95195
254.232,33.35715,98.70393,0.51603,0.95018
256.732,33.58106,98.73906,0.51598,0.94841
259.232,33.80512,98.67033,0.51729,0.94662
261.732,34.02946,98.69174,0.51901,0.94482
264.232,34.25403,98.69421,0.52012,0.94301
266.732,34.47814,98.75408,0.52194,0.94119
269.232,34.70285,98.71821,0.52323,0.93936
271.732,34.92738,98.68234,0.52745,0.93752
274.232,35.15224,98.6815,0.52741,0.93566
276.732,35.3774,98.64599,0.53,0.9338
279.232,35.60239,98.67962,0.52826,0.93192
281.732,35.82804,98.69086,0.5332,0.93004
284.232,36.05431,98.6883,0.5379,0.92815
286.732,36.28004,98.6524,0.54211,0.92624
289.232,36.50635,98.67935,0.54365,0.92433
291.732,36.7329,98.64375,0.55075,0.9224
294.232,36.95983,98.66171,0.55587,0.92047
296.732,37.18676,98.67962,0.56193,0.91853
299.232,37.4139,98.68859,0.56827,0.91658
301.732,37.6408,98.65272,0.57348,0.91462
304.232,37.86725,98.61707,0.58152,0.91266
306.732,38.09561,98.65268,0.58125,0.91068
309.232,38.32343,98.6251,0.58639,0.9087
311.732,38.5513,98.58125,0.58979,0.90671
314.232,38.77905,98.6348,0.59477,0.90472
316.732,39.00743,98.59918,0.59861,0.90271
319.232,39.23534,98.6168,0.60122,0.9007
321.732,39.46403,98.61681,0.60553,0.89868
324.232,39.69218,98.6169,0.60813,0.89666
326.732,39.92075,98.58107,0.61369,0.89463
329.232,40.14979,98.5809,0.61459,0.89259
331.732,40.37915,98.5633,0.61826,0.89054
334.232,40.60841,98.5633,0.62131,0.8885
336.732,40.83846,98.55435,0.62503,0.88644
339.232,41.06844,98.5633,0.64544,0.88438
341.732,41.29889,98.56328,0.67019,0.88231
344.232,41.52913,98.53633,0.6745,0.88024
346.732,41.75952,98.53641,0.67742,0.87817
349.232,41.99005,98.50078,0.6801,0.87609
351.732,42.22166,98.49785,0.68454,0.874
354.232,42.4525,98.52745,0.69193,0.87191
356.732,42.68399,98.47605,0.69792,0.86982
359.232,42.91565,98.4742,0.69767,0.86772
361.732,43.1474,98.40775,0.703,0.86562
364.232,43.3795,98.4204,0.70899,0.86352
366.732,43.61197,98.44681,0.71468,0.86141
369.232,43.84406,98.3931,0.72306,0.8593
371.732,44.07671,98.33971,0.72795,0.85718
374.232,44.30942,98.33968,0.73225,0.85507
376.732,44.54251,98.30376,0.74088,0.85295
379.232,44.7761,98.26821,0.74908,0.85082
381.732,45.00938,98.23232,0.7553,0.8487
384.232,45.24329,98.15375,0.7627,0.84657
386.732,45.4775,98.125,0.76629,0.84444
389.232,45.71127,98.05251,0.77082,0.84231
391.732,45.9463,98.0226,0.77908,0.84018
394.232,46.18079,97.91134,0.78552,0.83805
396.732,46.41506,97.8659,0.79138,0.83591
399.232,46.6502,97.7401,0.8032,0.83378
401.732,46.88518,97.68678,0.81208,0.83164
404.232,47.12058,97.54117,0.82252,0.8295
406.732,47.356,97.39849,0.83456,0.82736
409.232,47.59187,97.2686,0.84559,0.82523
411.732,47.82793,97.0818,0.85907,0.82309
414.232,48.06457,96.84567,0.87694,0.82095
416.732,48.3012,96.64259,0.89299,0.81881
419.232,48.53791,96.22192,0.91551,0.81667
421.732,48.77449,95.96136,0.9335,0.81453
424.232,49.0112,95.69583,0.95943,0.81239
426.732,49.24824,95.23589,0.98433,0.81026
429.232,49.48534,94.82796,1.01399,0.80812
431.732,49.72322,94.3233,1.04955,0.80598
434.232,49.96093,93.67571,1.08746,0.80385
436.732,50.19925,92.91503,1.1264,0.80172
439.232,50.43697,92.0656,1.17565,0.79959
441.732,50.6761,91.08235,1.22653,0.79746
444.232,50.91455,90.0094,1.28394,0.79533
446.732,51.1537,88.70006,1.351,0.7932
449.232,51.39282,87.10509,1.42261,0.79108
451.732,51.63243,85.297,1.50153,0.78896
454.232,51.87202,83.20053,1.59002,0.78684
456.732,52.11189,80.7389,1.69222,0.78472
459.232,52.35133,77.83006,1.79319,0.7826
461.732,52.5915,74.36554,1.91217,0.78049
464.232,52.83126,70.37635,2.02196,0.77838
466.732,53.0704,65.8685,2.12715,0.77628
469.232,53.31116,60.7623,2.23205,0.77417
471.732,53.551,55.0745,2.31364,0.77207
474.232,53.7923,48.76755,2.37881,0.76998
476.732,54.03297,42.04671,2.40663,0.76788
479.232,54.2737,35.045,2.37805,0.7658
481.732,54.5149,27.84357,2.28527,0.76371
484.232,54.7561,20.87085,2.10985,0.76163
486.732,54.9981,14.4879,1.84844,0.75955
489.232,55.24025,9.0062,1.51621,0.75748
491.732,55.48301,4.79765,1.15782,0.75541
494.232,55.7258,1.88226,0.80299,0.75334
496.732,55.9683,0.19837,0.51294,0.75128
499.232,56.2107,-0.6397,0.31877,0.74923
501.732,56.4528,-0.9827,0.20056,0.74718
504.232,56.69515,-1.08994,0.13967,0.74513
506.732,56.9376,-1.15887,0.09278731,0.74309
509.232,57.1801,-1.13506,0.04169905,0.74105
511.732,57.4226,-1.14401,0.06436455,0.73902
514.232,57.6658,-1.13576,0.07152286,0.737
516.732,57.90911,-1.08126,0.07870805,0.73498
519.232,58.1522,-1.10049,0.08313572,0.73296
521.732,58.3956,-1.12168,0.08233434,0.73095
524.232,58.63958,-1.09021,0.0816005,0.72895
526.732,58.8834,-1.1348,0.08801517,0.72695
529.232,59.1278,-1.13886,0.09400095,0.72496
531.732,59.37243,-1.10788,0.09720644,0.72297
534.232,59.61708,-1.12582,0.09260673,0.72099
536.732,59.86181,-1.12564,0.09409619,0.71902
539.232,60.10631,-1.13448,0.09541014,0.71705
541.732,60.3516,-1.09294,0.09216722,0.71509
544.232,60.5964,-1.12887,0.09152377,0.71314
546.732,60.84166,-1.11087,0.09886906,0.71119
549.232,61.08744,-1.11151,0.09959041,0.70924
551.732,61.33348,-1.1481,0.10918,0.70731
554.232,61.57926,-1.0866,0.10971,0.70538
556.732,61.82465,-1.11114,0.10779,0.70346
559.232,62.07108,-1.08424,0.11057,0.70154
561.732,62.31749,-1.11984,0.1137,0.69964
564.232,62.56395,-1.15711,0.11883,0.69774
566.732,62.8109,-1.10216,0.11314,0.69584
569.232,63.0581,-1.12878,0.11232,0.69396
571.732,63.3057,-1.1289,0.11555,0.69208
574.232,63.55296,-1.13209,0.1157,0.6902
576.732,63.79991,-1.11087,0.10995,0.68834
579.232,64.0474,-1.13772,0.11285,0.68648
581.732,64.2945,-1.1019,0.10882,0.68463
584.232,64.54139,-1.1378,0.10646,0.68279
586.732,64.78817,-1.11667,0.10797,0.68096
589.232,65.0351,-1.10218,0.10555,0.67913
591.732,65.2827,-1.10189,0.10465,0.67731
594.232,65.5309,-1.1019,0.10605,0.6755
596.732,65.77869,-1.1019,0.10593,0.67369
599.232,66.02716,-1.1383,0.10003,0.6719
601.732,66.27577,-1.07494,0.10128,0.67011
604.232,66.5244,-1.11087,0.1037,0.66833
606.732,66.77264,-1.0754,0.09950623,0.66656
609.232,67.02149,-1.10043,0.10078,0.6648
611.732,67.27054,-1.06625,0.10664,0.66304
614.232,67.51908,-1.06932,0.10367,0.66129
616.732,67.76801,-1.14907,0.10308,0.65955
619.232,68.01664,-1.11386,0.10588,0.65782
621.732,68.26722,-1.06929,0.10617,0.6561
624.232,68.51638,-1.08723,0.10455,0.65439
626.732,68.76653,-1.08723,0.10097,0.65268
629.232,69.016,-1.05181,0.09795292,0.65098
631.732,69.2662,-1.06036,0.0992286,0.64929
634.232,69.51573,-1.08723,0.09746817,0.64761
636.732,69.76555,-1.05115,0.08682617,0.64594
639.032,69.99585,-1.07826,0.08595565,0.64441