Folder: fsri_materials_database/01_Data/LDPE/STA/N2/30K_min

Note: 01_Data/README.md
# Materials and Products Database
## 01_Data

Raw data generated from each apparatus are included here in plain-text format. The data is organized first by material, next by the short name of test apparatus used, and where applicable additional filtering by test settings.

### material.json

Each material directory contains a json file of the same name as the material. This file links the data stored in the repository as well as data and graphs produced by the accompanying scripts (__02_Scripts__) to the respective landing page for the material on the front-end website.

File: LDPE_STA_N2_30KData_210908_R1.csv
##Temp./Â°C,Time/min,Mass(subtr.2)/%,DSC(subtr.2)/(mW/mg),Sensit./(uV/mW)
49.277,10.01,98.9067,0.0204162,1.05401
51.677,11.5227,98.86392,0.16925,1.05405
54.077,11.86786,98.8635,0.28021,1.05406
56.477,12.11784,98.86219,0.37783,1.05405
58.877,12.32698,98.83757,0.45877,1.05401
61.277,12.512,98.76562,0.52743,1.05394
63.677,12.6828,98.7967,0.5746,1.05384
66.077,12.8432,98.7677,0.61391,1.05371
68.477,12.99455,98.77359,0.64746,1.05356
70.877,13.14051,98.74185,0.68331,1.05338
73.277,13.2812,98.75219,0.72138,1.05317
75.677,13.41724,98.72788,0.7615,1.05294
78.077,13.5495,98.7639,0.80484,1.05267
80.477,13.6776,98.77741,0.85225,1.05238
82.877,13.8022,98.73375,0.91041,1.05207
85.277,13.92293,98.72384,0.97639,1.05173
87.677,14.0402,98.72057,1.04836,1.05136
90.077,14.15449,98.67381,1.13365,1.05096
92.477,14.2658,98.70767,1.21981,1.05054
94.877,14.3743,98.7172,1.32389,1.05009
97.277,14.4801,98.74851,1.47554,1.04962
99.677,14.5839,98.70009,1.68379,1.04912
102.077,14.68581,98.67441,1.86938,1.0486
104.477,14.78549,98.7255,2.10077,1.04805
106.877,14.88385,98.70136,2.42206,1.04748
109.277,14.98064,98.60306,2.77423,1.04688
111.677,15.0759,98.66424,3.00265,1.04625
114.077,15.16983,98.66473,2.60066,1.0456
116.477,15.26193,98.7026,1.99432,1.04493
118.877,15.35224,98.62623,1.61445,1.04423
121.277,15.4413,98.6326,1.39681,1.04351
123.677,15.52929,98.61544,1.27684,1.04276
126.077,15.6159,98.5687,1.21179,1.04199
128.477,15.7018,98.58936,1.18087,1.0412
130.877,15.7864,98.60925,1.16692,1.04038
133.277,15.87079,98.6119,1.16767,1.03954
135.677,15.95379,98.5664,1.17026,1.03868
138.077,16.03635,98.59585,1.18132,1.03779
140.477,16.11798,98.56666,1.1912,1.03688
142.877,16.19892,98.61155,1.20661,1.03595
145.277,16.27929,98.60445,1.2212,1.035
147.677,16.3587,98.64496,1.23651,1.03402
150.077,16.43758,98.63539,1.2495,1.03302
152.477,16.51577,98.58685,1.26567,1.032
154.877,16.59367,98.60468,1.27878,1.03096
157.277,16.67095,98.56265,1.29513,1.0299
159.677,16.7477,98.60468,1.31368,1.02882
162.077,16.82408,98.6015,1.32636,1.02771
164.477,16.89989,98.626,1.34389,1.02658
166.877,16.97537,98.55972,1.3588,1.02544
169.277,17.05015,98.57234,1.37422,1.02427
171.677,17.12473,98.6037,1.38712,1.02308
174.077,17.19901,98.51682,1.40124,1.02187
176.477,17.27255,98.51727,1.42036,1.02065
178.877,17.34563,98.55075,1.43308,1.0194
181.277,17.41832,98.6039,1.45008,1.01813
183.677,17.4907,98.56269,1.46341,1.01685
186.077,17.56251,98.5202,1.47653,1.01554
188.477,17.634,98.52125,1.49148,1.01422
190.877,17.70512,98.56866,1.50599,1.01288
193.277,17.77594,98.56625,1.51667,1.01152
195.677,17.84639,98.5237,1.52995,1.01014
198.077,17.9164,98.48684,1.54336,1.00874
200.477,17.98636,98.48141,1.55555,1.00733
202.877,18.05612,98.48069,1.56826,1.00589
205.277,18.12562,98.50267,1.58113,1.00444
207.677,18.19504,98.482,1.59534,1.00298
210.077,18.26398,98.48141,1.60917,1.00149
212.477,18.3327,98.47112,1.62072,0.99999
214.877,18.4013,98.47083,1.63322,0.99847
217.277,18.46963,98.47083,1.64741,0.99694
219.677,18.53789,98.47072,1.65586,0.99539
222.077,18.60592,98.43915,1.66987,0.99382
224.477,18.67364,98.41609,1.67689,0.99224
226.877,18.7416,98.39712,1.69158,0.99065
229.277,18.8091,98.42917,1.70042,0.98903
231.677,18.8765,98.43598,1.71405,0.98741
234.077,18.94368,98.43938,1.72405,0.98576
236.477,19.0109,98.3971,1.73429,0.98411
238.877,19.07784,98.39712,1.74775,0.98244
241.277,19.14471,98.39711,1.75968,0.98075
243.677,19.21152,98.44118,1.76782,0.97905
246.077,19.27809,98.4391,1.77639,0.97734
248.477,19.34455,98.44181,1.78847,0.97561
250.877,19.411,98.3831,1.79694,0.97387
253.277,19.4774,98.39998,1.80824,0.97212
255.677,19.5436,98.39705,1.8184,0.97035
258.077,19.60967,98.39712,1.82381,0.96857
260.477,19.6756,98.39712,1.83778,0.96678
262.877,19.7417,98.3981,1.84601,0.96498
265.277,19.80728,98.35481,1.8539,0.96316
267.677,19.8732,98.35481,1.86685,0.96134
270.077,19.93891,98.3548,1.87416,0.9595
272.477,20.00464,98.31273,1.88492,0.95765
274.877,20.07035,98.35463,1.89284,0.95578
277.277,20.13586,98.39705,1.9016,0.95391
279.677,20.20139,98.35485,1.90897,0.95203
282.077,20.26686,98.3548,1.92003,0.95013
284.477,20.33233,98.31323,1.9246,0.94823
286.877,20.39776,98.32765,1.93606,0.94632
289.277,20.4632,98.3126,1.9429,0.94439
291.677,20.52863,98.32313,1.9483,0.94246
294.077,20.594,98.31905,1.95914,0.94051
296.477,20.65931,98.3125,1.96403,0.93856
298.877,20.72477,98.2706,1.96914,0.9366
301.277,20.79018,98.2705,1.9746,0.93463
303.677,20.85547,98.22842,1.9831,0.93265
306.077,20.92083,98.22853,1.98655,0.93066
308.477,20.98601,98.23169,1.99234,0.92867
310.877,21.0514,98.27131,1.99655,0.92666
313.277,21.11675,98.22853,2.00412,0.92465
315.677,21.182,98.22853,2.00784,0.92263
318.077,21.2473,98.2307,2.01076,0.92061
320.477,21.31273,98.24931,2.01094,0.91857
322.877,21.3781,98.24945,2.01903,0.91653
325.277,21.44343,98.20725,2.02258,0.91448
327.677,21.50903,98.20737,2.03068,0.91243
330.077,21.5745,98.20737,2.03746,0.91037
332.477,21.6398,98.20737,2.05062,0.9083
334.877,21.70535,98.1866,2.06391,0.90623
337.277,21.77084,98.1439,2.07866,0.90415
339.677,21.83655,98.1439,2.09204,0.90207
342.077,21.9022,98.1439,2.10865,0.89998
344.477,21.96783,98.14579,2.11774,0.89789
346.877,22.0335,98.05972,2.13381,0.89579
349.277,22.09937,98.1439,2.14434,0.89369
351.677,22.1652,98.102,2.15619,0.89158
354.077,22.23114,98.08396,2.17078,0.88947
356.477,22.29719,98.1016,2.17812,0.88735
358.877,22.3631,98.10211,2.19267,0.88523
361.277,22.42919,98.08077,2.20039,0.88311
363.677,22.4954,98.08077,2.21645,0.88098
366.077,22.56167,98.0808,2.22525,0.87885
368.477,22.62793,98.11211,2.23899,0.87671
370.877,22.6943,98.0929,2.24807,0.87458
373.277,22.76085,98.00675,2.26256,0.87244
375.677,22.82735,98.00673,2.27718,0.8703
378.077,22.89391,98.00668,2.2897,0.86815
380.477,22.9607,97.96477,2.30093,0.86601
382.877,23.02746,97.96474,2.31416,0.86386
385.277,23.0942,97.96474,2.33066,0.86171
387.677,23.16108,97.96474,2.3448,0.85956
390.077,23.22816,97.96474,2.36412,0.8574
392.477,23.2952,97.96474,2.38057,0.85525
394.877,23.3624,97.92785,2.39851,0.85309
397.277,23.42965,97.88051,2.41789,0.85093
399.677,23.49673,97.83808,2.43632,0.84878
402.077,23.56437,97.79594,2.45434,0.84662
404.477,23.63186,97.75265,2.47596,0.84446
406.877,23.69934,97.71155,2.50194,0.8423
409.277,23.76706,97.66898,2.52508,0.84014
411.677,23.83482,97.6133,2.54631,0.83799
414.077,23.9027,97.53445,2.569,0.83583
416.477,23.9706,97.4433,2.59379,0.83367
418.877,24.03848,97.414,2.62379,0.83151
421.277,24.10686,97.32275,2.64948,0.82936
423.677,24.17513,97.25318,2.6808,0.8272
426.077,24.2435,97.16609,2.71605,0.82505
428.477,24.31188,97.0484,2.75173,0.8229
430.877,24.38048,96.8847,2.79029,0.82075
433.277,24.44934,96.7173,2.83083,0.8186
435.677,24.51811,96.53817,2.8791,0.81645
438.077,24.58694,96.36665,2.94325,0.8143
440.477,24.65588,96.17484,3.00414,0.81216
442.877,24.72485,95.89228,3.04755,0.81002
445.277,24.794,95.5418,3.11065,0.80788
447.677,24.86305,95.21039,3.18076,0.80574
450.077,24.93235,94.8465,3.261,0.80361
452.477,25.0017,94.4269,3.34249,0.80148
454.877,25.07111,93.93856,3.43243,0.79935
457.277,25.1407,93.3193,3.56686,0.79722
459.677,25.2102,92.69255,3.79005,0.7951
462.077,25.27985,91.762,3.81072,0.79299
464.477,25.3495,90.80761,3.89192,0.79087
466.877,25.41941,89.73129,4.0065,0.78876
469.277,25.48925,88.4601,4.14662,0.78665
471.677,25.55902,86.97247,4.31989,0.78455
474.077,25.62885,85.3241,4.49046,0.78245
476.477,25.69876,83.28582,4.70619,0.78036
478.877,25.7685,80.99107,4.91484,0.77827
481.277,25.83834,78.34732,5.15349,0.77618
483.677,25.908,75.32253,5.38922,0.7741
486.077,25.97769,71.75222,5.63952,0.77202
488.477,26.04737,67.75829,5.84284,0.76995
490.877,26.1171,63.386,6.08809,0.76789
493.277,26.18685,58.52535,6.2771,0.76583
495.677,26.2565,52.41607,6.40819,0.76377
498.077,26.3263,46.40038,6.49162,0.76172
500.477,26.3964,39.87099,6.45394,0.75967
502.877,26.46688,33.21719,6.25499,0.75763
505.277,26.5378,26.34245,5.85143,0.7556
507.677,26.6091,19.8765,5.2354,0.75357
510.077,26.68073,13.90806,4.45001,0.75155
512.477,26.7531,9.16955,3.57004,0.74953
514.877,26.8266,5.13851,2.68802,0.74752
517.277,26.9011,2.2801,1.92884,0.74552
519.677,26.97595,0.37427,1.36834,0.74352
522.077,27.05054,-0.57494,0.99077,0.74153
524.477,27.1245,-1.13482,0.737,0.73955
526.877,27.1978,-1.37058,0.5571,0.73757
529.277,27.27082,-1.55651,0.43474,0.7356
531.677,27.3437,-1.6176,0.36117,0.73363
534.077,27.41633,-1.61523,0.32766,0.73167
536.477,27.48938,-1.5755,0.30069,0.72972
538.877,27.56222,-1.53333,0.28245,0.72778
541.277,27.6353,-1.51755,0.27053,0.72584
543.677,27.7085,-1.53421,0.27307,0.72391
546.077,27.78177,-1.53342,0.27815,0.72199
548.477,27.85502,-1.49906,0.28531,0.72008
550.877,27.9284,-1.5439,0.29317,0.71817
553.277,28.00191,-1.58583,0.29862,0.71627
555.677,28.0755,-1.62835,0.30878,0.71438
558.077,28.14923,-1.59646,0.31294,0.7125
560.477,28.22297,-1.59648,0.31674,0.71062
562.877,28.29665,-1.63781,0.32375,0.70875
565.277,28.3704,-1.63878,0.32719,0.70689
567.677,28.4443,-1.64021,0.32529,0.70504
570.077,28.5182,-1.55441,0.32283,0.70319
572.477,28.5923,-1.59667,0.32556,0.70136
574.877,28.6664,-1.62879,0.32955,0.69953
577.277,28.7405,-1.68149,0.32951,0.69771
579.677,28.81467,-1.63731,0.32854,0.6959
582.077,28.88895,-1.7229,0.33605,0.69409
584.477,28.9635,-1.69271,0.34148,0.6923
586.877,29.038,-1.67373,0.33732,0.69051
589.277,29.11255,-1.51115,0.33162,0.68873
591.677,29.18733,-1.3383,0.33332,0.68697
594.077,29.262,-1.23522,0.32899,0.6852
596.477,29.3366,-1.38688,0.34113,0.68345
598.877,29.4113,-1.62922,0.34525,0.68171
601.277,29.4861,-1.69652,0.34406,0.67997
603.677,29.56105,-1.65257,0.34912,0.67825
606.077,29.63598,-1.65174,0.35046,0.67653
608.477,29.71112,-1.61189,0.34853,0.67482
610.877,29.78622,-1.65256,0.35104,0.67312
613.277,29.86127,-1.69155,0.35648,0.67143
615.677,29.9365,-1.74527,0.35425,0.66975
617.677,29.99942,-1.68726,0.35749,0.66836

File: LDPE_STA_N2_30KData_210908_R2.csv
##Temp./Â°C,Time/min,Mass(subtr.2)/%,DSC(subtr.2)/(mW/mg),Sensit./(uV/mW)
49.265,10.01,99.5,-0.007516877,1.05401
51.665,11.5258,99.3832,0.15644,1.05405
54.065,11.87066,99.3429,0.27797,1.05406
56.465,12.121,99.36668,0.38512,1.05405
58.865,12.33008,99.36112,0.47834,1.05401
61.265,12.51634,99.38765,0.55366,1.05394
63.665,12.6869,99.3821,0.61271,1.05384
66.065,12.84688,99.38502,0.65757,1.05371
68.465,12.99858,99.35345,0.69594,1.05356
70.865,13.145,99.34778,0.7345,1.05338
73.265,13.28554,99.34607,0.77374,1.05317
75.665,13.4215,99.3354,0.81635,1.05294
78.065,13.5532,99.32927,0.86233,1.05267
80.465,13.682,99.3186,0.91323,1.05239
82.865,13.8064,99.32454,0.96739,1.05207
85.265,13.92738,99.33944,1.02664,1.05173
87.665,14.04461,99.29813,1.09399,1.05136
90.065,14.15879,99.3098,1.17166,1.05096
92.465,14.27019,99.3421,1.25206,1.05054
94.865,14.37875,99.36373,1.33643,1.0501
97.265,14.4851,99.36479,1.38455,1.04962
99.665,14.58881,99.3541,1.47637,1.04913
102.065,14.6905,99.2765,1.65989,1.0486
104.465,14.79062,99.30369,1.89573,1.04805
106.865,14.8893,99.34753,2.1862,1.04748
109.265,14.9857,99.35361,2.48962,1.04688
111.665,15.08234,99.29998,2.77249,1.04625
114.065,15.1767,99.32655,2.81538,1.04561
116.465,15.2694,99.32823,2.37353,1.04493
118.865,15.3598,99.327,1.90418,1.04423
121.265,15.449,99.32685,1.59531,1.04351
123.665,15.53635,99.3232,1.40709,1.04277
126.065,15.62279,99.30768,1.29715,1.042
128.465,15.70825,99.29205,1.23211,1.0412
130.865,15.79313,99.27741,1.19625,1.04039
133.265,15.87696,99.269,1.18087,1.03955
135.665,15.95996,99.26788,1.17552,1.03868
138.065,16.0418,99.2688,1.17965,1.0378
140.465,16.12351,99.25502,1.18448,1.03689
142.865,16.20436,99.26631,1.19537,1.03596
145.265,16.2846,99.2687,1.2062,1.035
147.665,16.3639,99.2672,1.21963,1.03403
150.065,16.4427,99.2633,1.23397,1.03303
152.465,16.52086,99.24299,1.24808,1.03201
154.865,16.59845,99.21677,1.26188,1.03097
157.265,16.6756,99.24302,1.27677,1.0299
159.665,16.75238,99.2454,1.29277,1.02882
162.065,16.82855,99.22555,1.30766,1.02772
164.465,16.90423,99.26398,1.32397,1.02659
166.865,16.97946,99.2427,1.33935,1.02544
169.265,17.05454,99.2398,1.35389,1.02428
171.665,17.12906,99.24059,1.3687,1.02309
174.065,17.203,99.21461,1.38324,1.02188
176.465,17.27655,99.24046,1.3972,1.02065
178.865,17.3497,99.21525,1.41278,1.01941
181.265,17.42243,99.25968,1.42828,1.01814
183.665,17.49459,99.2393,1.44223,1.01685
186.065,17.56651,99.23,1.45467,1.01555
188.465,17.6379,99.2033,1.4711,1.01423
190.865,17.709,99.2058,1.48507,1.01288
193.265,17.77983,99.20271,1.49962,1.01152
195.665,17.8503,99.17726,1.5135,1.01014
198.065,17.9206,99.20264,1.52886,1.00875
200.465,17.9905,99.1773,1.54341,1.00733
202.865,18.05994,99.17724,1.55749,1.0059
205.265,18.12963,99.20269,1.57201,1.00445
207.665,18.19877,99.19524,1.58942,1.00298
210.065,18.26784,99.19574,1.60394,1.0015
212.465,18.33664,99.17096,1.61614,1.0
214.865,18.40512,99.17794,1.63024,0.99848
217.265,18.47348,99.18638,1.64389,0.99695
219.665,18.5417,99.18996,1.65563,0.9954
222.065,18.6098,99.1773,1.66863,0.99383
224.465,18.6778,99.1519,1.68204,0.99225
226.865,18.7454,99.17641,1.6943,0.99065
229.265,18.81286,99.2025,1.70617,0.98904
231.665,18.8803,99.17654,1.71981,0.98742
234.065,18.94756,99.1508,1.73268,0.98577
236.465,19.01472,99.1349,1.74538,0.98412
238.865,19.08176,99.1519,1.75691,0.98245
241.265,19.14862,99.152,1.76872,0.98076
243.665,19.21523,99.12647,1.78068,0.97906
246.065,19.28181,99.12689,1.79114,0.97735
248.465,19.34848,99.10135,1.80267,0.97562
250.865,19.41489,99.12129,1.81074,0.97388
253.265,19.4813,99.10167,1.82154,0.97213
255.665,19.54745,99.15194,1.8321,0.97036
258.065,19.61361,99.10165,1.84063,0.96858
260.465,19.67963,99.10135,1.84857,0.96679
262.865,19.74569,99.0744,1.85956,0.96499
265.265,19.81149,99.07596,1.86755,0.96317
267.665,19.87721,99.07596,1.87501,0.96134
270.065,19.94293,99.07596,1.88459,0.95951
272.465,20.0085,99.07596,1.89282,0.95766
274.865,20.07403,99.07596,1.90129,0.95579
277.265,20.13989,99.07596,1.90687,0.95392
279.665,20.2054,99.07596,1.91726,0.95204
282.065,20.27086,99.07596,1.92593,0.95014
284.465,20.33638,99.0761,1.93092,0.94824
286.865,20.40176,99.09473,1.93697,0.94633
289.265,20.46718,99.09498,1.94466,0.9444
291.665,20.5326,99.07024,1.95387,0.94247
294.065,20.59797,99.095,1.95873,0.94052
296.465,20.66346,99.095,1.96374,0.93857
298.865,20.72879,99.095,1.96942,0.93661
301.265,20.79399,99.0955,1.97762,0.93464
303.665,20.85922,99.07589,1.98253,0.93266
306.065,20.92463,99.0603,1.98737,0.93067
308.465,20.98989,99.05062,1.99396,0.92868
310.865,21.05515,99.04423,1.99772,0.92667
313.265,21.12051,99.04423,2.00088,0.92466
315.665,21.18585,99.06495,2.0037,0.92264
318.065,21.25112,99.06365,2.00504,0.92062
320.465,21.31636,99.03789,2.00824,0.91858
322.865,21.38177,99.03834,2.01206,0.91654
325.265,21.44714,99.0254,2.01508,0.91449
327.665,21.51243,98.99911,2.01777,0.91244
330.065,21.57774,98.99385,2.02297,0.91038
332.465,21.64319,98.99385,2.02914,0.90831
334.865,21.70869,98.99387,2.03634,0.90624
337.265,21.77415,99.019,2.04436,0.90416
339.665,21.83955,99.00725,2.05039,0.90208
342.065,21.9054,98.99385,2.05628,0.89999
344.465,21.97109,98.99385,2.06299,0.8979
346.865,22.03685,98.995,2.0721,0.8958
349.265,22.10254,98.9431,2.08227,0.8937
351.665,22.16839,98.91804,2.09014,0.89159
354.065,22.2344,98.93463,2.09662,0.88948
356.465,22.30029,98.93692,2.10319,0.88736
358.865,22.3662,98.937,2.11114,0.88524
361.265,22.43219,98.9115,2.11966,0.88312
363.665,22.49822,98.91293,2.12635,0.88099
366.065,22.5645,98.88615,2.13451,0.87886
368.465,22.63066,98.88615,2.14173,0.87673
370.865,22.697,98.88615,2.14693,0.87459
373.265,22.7634,98.91339,2.15515,0.87245
375.665,22.8298,98.8841,2.16459,0.87031
378.065,22.89655,98.86522,2.1738,0.86816
380.465,22.96315,98.865,2.18129,0.86602
382.865,23.02978,98.85874,2.19135,0.86387
385.265,23.09659,98.83371,2.20167,0.86172
387.665,23.1635,98.80798,2.21213,0.85957
390.065,23.23048,98.7827,2.22682,0.85741
392.465,23.29768,98.75749,2.23573,0.85526
394.865,23.36476,98.7337,2.24523,0.8531
397.265,23.4319,98.73213,2.25792,0.85095
399.665,23.49929,98.68048,2.27048,0.84879
402.065,23.56672,98.65475,2.28515,0.84663
404.465,23.63428,98.6237,2.29984,0.84447
406.865,23.7021,98.59074,2.31323,0.84231
409.265,23.76972,98.54698,2.33236,0.84016
411.665,23.83749,98.52708,2.3503,0.838
414.065,23.90542,98.46974,2.37258,0.83584
416.465,23.97351,98.41063,2.39466,0.83368
418.865,24.04149,98.35562,2.41585,0.83152
421.265,24.10961,98.27314,2.4419,0.82937
423.665,24.178,98.1919,2.46924,0.82721
426.065,24.24636,98.08717,2.50489,0.82506
428.465,24.3149,97.98823,2.534,0.82291
430.865,24.38341,97.88462,2.58942,0.82076
433.265,24.45203,97.6917,2.68491,0.81861
435.665,24.52072,97.5908,2.6898,0.81646
438.065,24.5897,97.38291,2.70275,0.81431
440.465,24.6587,97.20766,2.72765,0.81217
442.865,24.7276,96.94431,2.75734,0.81003
445.265,24.79665,96.68689,2.80451,0.80789
447.665,24.8658,96.3874,2.85683,0.80575
450.065,24.935,96.0256,2.9188,0.80362
452.465,25.004,95.6191,2.98846,0.80149
454.865,25.07358,95.21194,3.07086,0.79936
457.265,25.14305,94.67,3.15722,0.79724
459.665,25.2127,94.10053,3.25767,0.79511
462.065,25.2823,93.42994,3.36864,0.793
464.465,25.35202,92.62804,3.49807,0.79088
466.865,25.42171,91.7138,3.61704,0.78877
469.265,25.49129,90.57927,3.76714,0.78666
471.665,25.5611,89.34271,3.9262,0.78456
474.065,25.6309,87.84813,4.08936,0.78246
476.465,25.70032,86.05221,4.29325,0.78037
478.865,25.7698,84.06137,4.49972,0.77828
481.265,25.83919,81.70997,4.71374,0.77619
483.665,25.90844,78.93804,4.96824,0.77411
486.065,25.97769,75.7867,5.23492,0.77203
488.465,26.04692,71.6414,5.50275,0.76996
490.865,26.11599,67.41956,5.76552,0.7679
493.265,26.1855,62.6009,6.00639,0.76584
495.665,26.2553,56.735,6.20391,0.76378
498.065,26.3252,50.66134,6.35116,0.76173
500.465,26.3949,44.13745,6.41579,0.75968
502.865,26.4642,37.32519,6.39349,0.75764
505.265,26.53316,30.3477,6.26282,0.75561
507.665,26.6017,23.63521,5.96647,0.75358
510.065,26.67292,18.10729,5.33833,0.75156
512.465,26.74755,12.3796,4.45316,0.74954
514.865,26.8213,7.49536,3.4408,0.74753
517.265,26.89443,4.16071,2.44658,0.74553
519.665,26.96775,1.81515,1.62837,0.74353
522.065,27.0425,0.32196,1.06085,0.74154
524.465,27.118,-0.48326,0.70907,0.73956
526.865,27.1928,-0.90299,0.49426,0.73758
529.265,27.26701,-1.02102,0.35751,0.73561
531.665,27.34048,-1.11459,0.26602,0.73364
534.065,27.41357,-1.16245,0.20258,0.73168
536.465,27.48668,-1.21294,0.17437,0.72973
538.865,27.55963,-1.24402,0.15753,0.72779
541.265,27.63277,-1.26774,0.15043,0.72585
543.665,27.70614,-1.24225,0.14725,0.72392
546.065,27.7795,-1.2423,0.14438,0.722
548.465,27.85292,-1.2423,0.13553,0.72009
550.865,27.92633,-1.24231,0.13035,0.71818
553.265,27.99992,-1.26769,0.12741,0.71628
555.665,28.0736,-1.24831,0.12902,0.71439
558.065,28.1473,-1.2928,0.13363,0.71251
560.465,28.2211,-1.26762,0.13628,0.71063
562.865,28.2951,-1.26771,0.13908,0.70876
565.265,28.369,-1.24894,0.14497,0.7069
567.665,28.44299,-1.24884,0.14268,0.70505
570.065,28.51707,-1.24909,0.14641,0.7032
572.465,28.59122,-1.27404,0.14554,0.70137
574.865,28.66532,-1.27435,0.14577,0.69954
577.265,28.7398,-1.29308,0.14716,0.69772
579.665,28.81417,-1.29461,0.14644,0.69591
582.065,28.8887,-1.2677,0.14849,0.6941
584.465,28.96317,-1.2677,0.14801,0.69231
586.865,29.03772,-1.26758,0.14852,0.69052
589.265,29.11225,-1.29308,0.14733,0.68874
591.665,29.18696,-1.29308,0.15014,0.68697
594.065,29.2614,-1.29308,0.14851,0.68521
596.465,29.33623,-1.29304,0.15004,0.68346
598.865,29.41102,-1.2684,0.14907,0.68172
601.265,29.486,-1.29308,0.15064,0.67998
603.665,29.56085,-1.29308,0.15166,0.67826
606.065,29.6359,-1.29315,0.1525,0.67654
608.465,29.71105,-1.26771,0.14583,0.67483
610.865,29.78626,-1.26743,0.14793,0.67313
613.265,29.86154,-1.31844,0.14768,0.67144
615.665,29.93683,-1.26774,0.14667,0.66976
617.665,29.99959,-1.2677,0.14668,0.66836