Folder: fsri_materials_database/01_Data/LDPE/STA/N2/30K_min (part 2)

File: LDPE_STA_N2_30KData_210908_R3.csv
##Temp./Â°C,Time/min,Mass(subtr.2)/%,DSC(subtr.2)/(mW/mg),Sensit./(uV/mW)
49.22,10.01,100.073,0.02235887,1.054
51.52,11.50981,100.183,0.21981,1.05405
53.82,11.85004,100.129,0.36901,1.05406
56.12,12.0967,99.79773,0.49468,1.05405
58.42,12.30189,99.94612,0.60541,1.05402
60.72,12.48373,100.024,0.69811,1.05395
63.02,12.6501,100.015,0.76904,1.05387
65.32,12.80589,100.038,0.82861,1.05375
67.62,12.95461,100.044,0.88313,1.05362
69.92,13.09554,100.155,0.93147,1.05345
72.22,13.23325,100.125,0.98738,1.05327
74.52,13.366,100.048,1.03685,1.05305
76.82,13.49416,100.1,1.0826,1.05281
79.12,13.6191,100.055,1.13171,1.05255
81.42,13.7403,100.203,1.1878,1.05226
83.72,13.8575,100.092,1.2367,1.05195
86.02,13.9725,100.071,1.2615,1.05162
88.32,14.08399,100.169,1.27124,1.05125
90.62,14.19263,100.127,1.24693,1.05087
92.92,14.29871,100.153,1.19112,1.05046
95.22,14.40211,100.094,1.13507,1.05003
97.52,14.50305,100.118,1.24371,1.04957
99.82,14.60154,100.136,1.40117,1.04909
102.12,14.6989,100.137,1.68065,1.04859
104.42,14.79456,100.098,1.9801,1.04806
106.72,14.88911,100.069,2.30052,1.04751
109.02,14.98209,100.0814,2.63194,1.04694
111.32,15.0741,100.096,2.83457,1.04635
113.62,15.1646,100.105,2.61742,1.04573
115.92,15.25305,100.103,2.11197,1.04509
118.22,15.3399,100.146,1.71121,1.04442
120.52,15.4253,100.14,1.462,1.04374
122.82,15.5093,100.063,1.30924,1.04303
125.12,15.5927,100.095,1.22141,1.0423
127.42,15.67506,100.107,1.17297,1.04155
129.72,15.75665,100.086,1.14694,1.04078
132.02,15.83738,100.129,1.13497,1.03999
134.32,15.91743,100.129,1.1326,1.03917
136.62,15.9967,100.112,1.13703,1.03833
138.92,16.07518,100.062,1.14314,1.03748
141.22,16.15302,100.0298,1.15454,1.0366
143.52,16.23033,100.086,1.16376,1.0357
145.82,16.3066,100.085,1.17664,1.03478
148.12,16.3828,100.101,1.18874,1.03384
150.42,16.45836,100.115,1.20487,1.03288
152.72,16.53301,100.057,1.21517,1.0319
155.02,16.60736,100.079,1.22789,1.0309
157.32,16.68132,100.113,1.24293,1.02988
159.62,16.75465,100.081,1.25672,1.02884
161.92,16.82759,100.08,1.26764,1.02778
164.22,16.90036,100.051,1.28118,1.02671
166.52,16.9724,100.061,1.29506,1.02561
168.82,17.04429,100.087,1.30782,1.02449
171.12,17.11543,100.082,1.32275,1.02336
173.42,17.18628,100.08,1.33438,1.02221
175.72,17.2571,100.094,1.34722,1.02104
178.02,17.32723,100.105,1.36146,1.01985
180.32,17.39686,100.078,1.37305,1.01864
182.62,17.46633,100.004,1.38503,1.01742
184.92,17.5353,100.067,1.39858,1.01617
187.22,17.60397,100.067,1.40993,1.01492
189.52,17.67217,100.041,1.42427,1.01364
191.82,17.74008,100.058,1.43493,1.01234
194.12,17.8077,100.058,1.44755,1.01103
196.42,17.87516,100.088,1.46157,1.00971
198.72,17.94211,100.059,1.4711,1.00836
201.02,18.0091,100.117,1.48232,1.007
203.32,18.07556,100.088,1.4938,1.00563
205.62,18.14215,100.088,1.50553,1.00423
207.92,18.20861,100.117,1.5168,1.00283
210.22,18.27466,100.09,1.52728,1.0014
212.52,18.34054,100.031,1.53548,0.99996
214.82,18.40597,100.025,1.54687,0.99851
217.12,18.47135,99.9877,1.55702,0.99704
219.42,18.53683,100.014,1.56794,0.99556
221.72,18.60207,100.043,1.57863,0.99406
224.02,18.6671,100.017,1.58741,0.99255
226.32,18.7319,100.017,1.59676,0.99102
228.62,18.79663,100.017,1.60547,0.98948
230.92,18.86117,99.9816,1.61338,0.98792
233.22,18.9257,99.98311,1.62068,0.98635
235.52,18.99006,99.98311,1.63109,0.98477
237.82,19.05433,100.014,1.6382,0.98317
240.12,19.11846,100.024,1.64437,0.98157
242.42,19.18242,100.0414,1.65093,0.97994
244.72,19.24636,100.012,1.65931,0.97831
247.02,19.31014,100.012,1.66599,0.97666
249.32,19.3738,100.039,1.67222,0.975
251.62,19.43742,100.0068,1.68172,0.97333
253.92,19.50105,99.99289,1.68953,0.97165
256.22,19.56436,100.024,1.69551,0.96995
258.52,19.6277,100.054,1.70157,0.96824
260.82,19.69096,100.01,1.71041,0.96653
263.12,19.75413,100.01,1.71798,0.9648
265.42,19.81733,99.98325,1.72415,0.96305
267.72,19.88036,99.9584,1.73085,0.9613
270.02,19.9434,99.95866,1.7372,0.95954
272.32,20.00623,99.98735,1.74564,0.95777
274.62,20.06919,99.97474,1.75109,0.95598
276.92,20.13208,99.92634,1.75961,0.95419
279.22,20.19494,99.9222,1.76363,0.95239
281.52,20.25779,99.95322,1.76992,0.95057
283.82,20.3205,99.98799,1.77696,0.94875
286.12,20.38315,99.98801,1.78295,0.94692
288.42,20.44584,99.95968,1.78859,0.94508
290.72,20.50872,99.92968,1.79408,0.94323
293.02,20.57134,99.92956,1.79956,0.94137
295.32,20.63387,99.92956,1.80343,0.9395
297.62,20.69663,99.99214,1.81022,0.93763
299.92,20.75921,99.9635,1.81466,0.93574
302.22,20.82185,99.93425,1.81938,0.93385
304.52,20.8845,99.93316,1.82435,0.93195
306.82,20.947,99.90495,1.82637,0.93005
309.12,21.0096,99.92027,1.83042,0.92813
311.42,21.0722,99.91699,1.83292,0.92621
313.72,21.13475,99.93421,1.83317,0.92428
316.02,21.19726,99.94713,1.83783,0.92234
318.32,21.25984,99.93424,1.83876,0.9204
320.62,21.32244,99.90912,1.83853,0.91845
322.92,21.38511,99.93627,1.84051,0.91649
325.22,21.44761,99.90677,1.8411,0.91453
327.52,21.51022,99.8757,1.84374,0.91256
329.82,21.57292,99.90733,1.8453,0.91059
332.12,21.63571,99.90743,1.84676,0.90861
334.42,21.69836,99.8854,1.85319,0.90663
336.72,21.76117,99.86376,1.85685,0.90464
339.02,21.82394,99.86405,1.86248,0.90264
341.32,21.88671,99.88561,1.86706,0.90064
343.62,21.94965,99.85624,1.87191,0.89864
345.92,22.01267,99.86094,1.87487,0.89663
348.22,22.07563,99.88765,1.88161,0.89461
350.52,22.13866,99.8224,1.88636,0.8926
352.82,22.2017,99.8222,1.89382,0.89057
355.12,22.2649,99.8514,1.89711,0.88855
357.42,22.3281,99.8514,1.89986,0.88652
359.72,22.3915,99.8156,1.90725,0.88448
362.02,22.45487,99.79403,1.91466,0.88245
364.32,22.51826,99.79533,1.92003,0.88041
366.62,22.58166,99.79513,1.92689,0.87837
368.92,22.6452,99.76964,1.93415,0.87632
371.22,22.7088,99.77853,1.94113,0.87427
373.52,22.77253,99.7683,1.94872,0.87222
375.82,22.83628,99.76844,1.95694,0.87017
378.12,22.90009,99.76844,1.96103,0.86811
380.42,22.96398,99.7393,1.97039,0.86606
382.72,23.02805,99.7393,1.97913,0.864
385.02,23.09214,99.71451,1.98531,0.86194
387.32,23.15634,99.65074,1.99493,0.85988
389.62,23.22054,99.65176,2.00388,0.85781
391.92,23.28475,99.62779,2.01193,0.85575
394.22,23.34911,99.62227,2.02182,0.85368
396.52,23.41345,99.6237,2.03048,0.85162
398.82,23.47812,99.5668,2.03776,0.84955
401.12,23.54285,99.53396,2.04904,0.84748
403.42,23.60756,99.48865,2.05931,0.84541
405.72,23.67227,99.47703,2.07187,0.84334
408.02,23.73697,99.40772,2.08673,0.84127
410.32,23.80197,99.35339,2.10782,0.83921
412.62,23.8671,99.30202,2.13239,0.83714
414.92,23.93225,99.2791,2.14447,0.83507
417.22,23.99748,99.22214,2.16124,0.833
419.52,24.0626,99.1566,2.1784,0.83094
421.82,24.128,99.04988,2.20014,0.82887
424.12,24.1935,98.97589,2.22318,0.8268
426.42,24.25891,98.86318,2.25105,0.82474
428.72,24.32453,98.68414,2.28176,0.82268
431.02,24.3904,98.5124,2.31341,0.82062
433.32,24.4562,98.345,2.3498,0.81856
435.62,24.52212,98.22346,2.38854,0.8165
437.92,24.58809,98.12957,2.44022,0.81444
440.22,24.65417,97.86916,2.47759,0.81239
442.52,24.72028,97.59053,2.5209,0.81034
444.82,24.78642,97.30373,2.5713,0.80829
447.12,24.8527,96.97881,2.6291,0.80624
449.42,24.9192,96.5905,2.69562,0.80419
451.72,24.98563,96.05115,2.77544,0.80215
454.02,25.052,95.53149,2.84936,0.80011
456.32,25.11824,94.94926,2.93688,0.79807
458.62,25.1848,94.25854,3.0339,0.79604
460.92,25.2518,93.40952,3.11936,0.79401
463.22,25.31851,92.55572,3.21393,0.79198
465.52,25.38532,91.5428,3.32669,0.78995
467.82,25.4521,90.3904,3.45188,0.78793
470.12,25.51891,89.05974,3.57876,0.78591
472.42,25.5856,87.51401,3.73008,0.7839
474.72,25.6524,85.83192,3.87728,0.78189
477.02,25.71929,83.76255,4.03847,0.77988
479.32,25.78601,81.4023,4.22772,0.77788
481.62,25.85269,78.78109,4.39445,0.77588
483.92,25.91916,75.7248,4.58261,0.77389
486.22,25.98573,72.30659,4.76103,0.7719
488.52,26.05246,67.76212,4.96578,0.76992
490.82,26.1194,63.18951,5.17882,0.76794
493.12,26.18617,57.91066,5.37044,0.76596
495.42,26.2526,51.67798,5.52263,0.76399
497.72,26.31877,45.43119,5.63038,0.76202
500.02,26.38471,38.86694,5.63859,0.76006
502.32,26.45053,32.33439,5.50477,0.75811
504.62,26.51848,26.5334,5.21276,0.75616
506.92,26.588,19.9135,4.77033,0.75421
509.22,26.65625,14.2819,4.11646,0.75227
511.52,26.72395,9.42975,3.36699,0.75034
513.82,26.79277,6.51198,2.56137,0.74841
516.12,26.86437,3.88398,1.78174,0.74648
518.42,26.93648,2.03281,1.19747,0.74457
520.72,27.00897,0.93668,0.82852,0.74266
523.02,27.081,0.44305,0.60073,0.74075
525.32,27.152,0.17598,0.43658,0.73885
527.62,27.22304,0.09813882,0.31289,0.73696
529.92,27.2933,0.06936479,0.23205,0.73507
532.22,27.36335,0.00564261,0.18774,0.73319
534.52,27.4334,0.03679939,0.16753,0.73131
536.82,27.50348,0.037215,0.15827,0.72945
539.12,27.57361,0.006980042,0.14335,0.72758
541.42,27.6437,-0.02133195,0.13252,0.72573
543.72,27.71408,0.008939648,0.11713,0.72388
546.02,27.7844,0.007777447,0.10595,0.72204
548.32,27.85456,0.00970435,0.0987244,0.7202
550.62,27.92509,-0.002179518,0.09497687,0.71837
552.92,27.9958,0.007233219,0.09578354,0.71655
555.22,28.0664,-0.02344536,0.09527831,0.71474
557.52,28.13712,0.005240221,0.09771888,0.71293
559.82,28.2078,0.06351529,0.10224,0.71113
562.12,28.27828,0.07863729,0.10837,0.70934
564.42,28.34938,0.07844724,0.11195,0.70755
566.72,28.42019,0.02008995,0.11484,0.70578
569.02,28.49108,0.01999533,0.11848,0.70401
571.32,28.5619,0.01999537,0.11785,0.70224
573.62,28.6329,0.01999537,0.11984,0.70049
575.92,28.70406,0.01999537,0.12476,0.69874
578.22,28.77512,0.02003664,0.1245,0.697
580.52,28.8464,0.04923643,0.12586,0.69526
582.82,28.9175,0.02000018,0.13041,0.69354
585.12,28.98885,-0.009143668,0.13467,0.69182
587.42,29.0601,0.02000178,0.13585,0.69011
589.72,29.13144,0.01267248,0.13229,0.68841
592.02,29.20308,0.01265897,0.13937,0.68671
594.32,29.2746,0.0428732,0.13971,0.68503
596.62,29.346,0.04173584,0.13748,0.68335
598.92,29.41787,0.01992477,0.14022,0.68168
601.22,29.4897,0.01327244,0.14438,0.68002
603.52,29.56164,-0.00911337,0.14102,0.67836
605.82,29.6335,-0.01085368,0.14903,0.67671
608.12,29.70572,-0.01679848,0.15345,0.67508
610.42,29.77788,-0.01666562,0.14975,0.67345
612.72,29.8498,0.01264305,0.15118,0.67182
615.02,29.9219,0.04154257,0.15119,0.67021
617.32,29.99407,0.01335555,0.15517,0.6686
617.42,29.9972,0.01312307,0.15476,0.66854