Folder: fsri_materials_database/01_Data/LDPE/STA/N2/3K_min

Note: 01_Data/README.md
# Materials and Products Database
## 01_Data

Raw data generated from each apparatus are included here in plain-text format. The data is organized first by material, next by the short name of test apparatus used, and where applicable additional filtering by test settings.

### material.json

Each material directory contains a json file of the same name as the material. This file links the data stored in the repository as well as data and graphs produced by the accompanying scripts (__02_Scripts__) to the respective landing page for the material on the front-end website.

File: LDPE_STA_N2_3KData_210908_R2.csv
##Temp./Â°C,Time/min,DSC(subtr.2)/mW,Mass loss(subtr.2)/mg,Sensit./(uV/mW)
49.606,10.01,0.07733594,-0.01371,1.03585
52.206,13.968,0.40832,-0.01721999,1.03572
54.806,15.513,0.53199,-0.01522226,1.03556
57.406,16.78685,0.59134,-0.01531906,1.03536
60.006,17.9226,0.60496,-0.01698073,1.03514
62.606,18.98228,0.60823,-0.0208449,1.03489
65.206,19.99052,0.60259,-0.02083999,1.03461
67.806,20.9621,0.59779,-0.02028897,1.0343
70.406,21.90824,0.58357,-0.01896989,1.03397
73.006,22.8374,0.50224,-0.02040314,1.0336
75.606,23.75147,0.44925,-0.0203072,1.03321
78.206,24.65385,0.34725,-0.02170863,1.03279
80.806,25.54787,0.2217,-0.0190488,1.03234
83.406,26.43412,0.10725,-0.02034855,1.03187
86.006,27.31012,-0.01695523,-0.02182999,1.03136
88.606,28.18181,-0.11722,-0.02248033,1.03083
91.206,29.0478,-0.22425,-0.02380166,1.03028
93.806,29.91,-0.35861,-0.02314,1.02969
96.406,30.7649,-0.45584,-0.02183,1.02908
99.006,31.61774,-0.48203,-0.02315155,1.02845
101.606,32.4662,-0.43759,-0.02247606,1.02778
104.206,33.31517,-0.10455,-0.02314,1.02709
106.806,34.17073,0.48413,-0.02182,1.02638
109.406,35.02678,1.23488,-0.02183001,1.02564
112.006,35.88066,1.00174,-0.02447801,1.02487
114.606,36.7229,0.56056,-0.02143182,1.02408
117.206,37.56402,0.57292,-0.02229259,1.02326
119.806,38.40813,0.57878,-0.01974294,1.02242
122.406,39.25023,0.58324,-0.01963,1.02155
125.006,40.0905,0.58448,-0.0227,1.02066
127.606,40.9283,0.59344,-0.02139121,1.01974
130.206,41.76425,0.59627,-0.0204,1.01881
132.806,42.6006,0.60693,-0.01952,1.01784
135.406,43.4347,0.60587,-0.02216004,1.01685
138.006,44.26785,0.60626,-0.02037305,1.01584
140.606,45.1006,0.61016,-0.02029018,1.01481
143.206,45.92896,0.61952,-0.01963026,1.01375
145.806,46.76054,0.62452,-0.01897,1.01267
148.406,47.5892,0.62827,-0.02129029,1.01157
151.006,48.41493,0.62672,-0.01956904,1.01045
153.606,49.2391,0.63897,-0.01940857,1.0093
156.206,50.06431,0.64949,-0.01776051,1.00813
158.806,50.89139,0.64336,-0.01854271,1.00694
161.406,51.71788,0.64001,-0.01739709,1.00573
164.006,52.54354,0.64658,-0.0181,1.00449
166.606,53.36674,0.65766,-0.01731803,1.00324
169.206,54.19158,0.65341,-0.01865035,1.00196
171.806,55.0157,0.66358,-0.01683323,1.00067
174.406,55.84134,0.64914,-0.01580041,0.99935
177.006,56.6661,0.66562,-0.01711,0.99801
179.606,57.49054,0.67899,-0.01645035,0.99666
182.206,58.31629,0.6819,-0.01662097,0.99528
184.806,59.14005,0.6801,-0.01513,0.99388
187.406,59.9642,0.69206,-0.01678,0.99247
190.006,60.78689,0.69312,-0.0138352,0.99103
192.606,61.609,0.69715,-0.01524,0.98958
195.206,62.43172,0.70412,-0.01524997,0.98811
197.806,63.2541,0.70918,-0.0136,0.98662
200.406,64.07927,0.70616,-0.01457998,0.98511
203.006,64.9011,0.7156,-0.01390926,0.98358
205.606,65.72225,0.71171,-0.01689161,0.98204
208.206,66.54239,0.73173,-0.01471449,0.98048
210.806,67.36454,0.73626,-0.01656002,0.9789
213.406,68.18474,0.72839,-0.01656,0.9773
216.006,69.00493,0.73592,-0.01359824,0.97569
218.606,69.82709,0.73483,-0.01590661,0.97406
221.206,70.6494,0.72904,-0.01689455,0.97241
223.806,71.4725,0.74358,-0.01546001,0.97075
226.406,72.29516,0.73836,-0.01678,0.96907
229.006,73.11868,0.74764,-0.01545998,0.96738
231.606,73.94256,0.75674,-0.0154706,0.96567
234.206,74.7661,0.76487,-0.01515111,0.96395
236.806,75.58957,0.7561,-0.01677956,0.96221
239.406,76.41288,0.7724,-0.01546662,0.96045
242.006,77.2358,0.77607,-0.01361115,0.95869
244.606,78.05966,0.77996,-0.0167898,0.9569
247.206,78.88335,0.78655,-0.01438547,0.95511
249.806,79.70767,0.79811,-0.01706039,0.9533
252.406,80.5327,0.80367,-0.01425,0.95147
255.006,81.35906,0.8185,-0.01524,0.94964
257.606,82.18592,0.84185,-0.01454758,0.94779
260.206,83.01063,0.84524,-0.01525,0.94592
262.806,83.83532,0.84776,-0.0146131,0.94405
265.406,84.6609,0.85172,-0.01531132,0.94216
268.006,85.4855,0.86002,-0.01598162,0.94026
270.606,86.31094,0.86669,-0.01787932,0.93835
273.206,87.1376,0.86284,-0.01524013,0.93643
275.806,87.96628,0.85836,-0.0142614,0.93449
278.406,88.7936,0.87168,-0.0152507,0.93255
281.006,89.62037,0.88207,-0.01689046,0.93059
283.606,90.44834,0.89077,-0.0149051,0.92862
286.206,91.27787,0.901,-0.01522649,0.92664
288.806,92.1079,0.89119,-0.01633675,0.92465
291.406,92.937,0.88143,-0.01633074,0.92266
294.006,93.76677,0.87866,-0.01743385,0.92065
296.606,94.59644,0.88083,-0.01623,0.91863
299.206,95.42527,0.89645,-0.01623996,0.9166
301.806,96.25485,0.89534,-0.01624849,0.91457
304.406,97.0848,0.89585,-0.01695293,0.91252
307.006,97.91699,0.91187,-0.01699984,0.91047
309.606,98.74978,0.90978,-0.01699938,0.9084
312.206,99.58325,0.91857,-0.01901375,0.90633
314.806,100.415,0.93304,-0.01831,0.90426
317.406,101.246,0.95289,-0.01699868,0.90217
320.006,102.081,0.95551,-0.02032164,0.90008
322.606,102.915,0.97267,-0.01852625,0.89797
325.206,103.748,0.95769,-0.01846128,0.89587
327.806,104.584,0.97119,-0.01930483,0.89375
330.406,105.416,0.98604,-0.02259236,0.89163
333.006,106.252,0.99193,-0.0204777,0.8895
335.606,107.089,0.99935,-0.0212057,0.88737
338.206,107.927,1.01956,-0.02281004,0.88523
340.806,108.763,1.03886,-0.02490695,0.88308
343.406,109.601,1.03973,-0.02423029,0.88093
346.006,110.4433,1.06862,-0.0255611,0.87877
348.606,111.284,1.06453,-0.0260999,0.87661
351.206,112.123,1.08925,-0.02927997,0.87444
353.806,112.962,1.1037,-0.02960992,0.87227
356.406,113.801,1.09609,-0.03223264,0.87009
359.006,114.64,1.09624,-0.03432291,0.86791
361.606,115.481,1.10802,-0.03433539,0.86573
364.206,116.326,1.11617,-0.03707,0.86354
366.806,117.1644,1.08107,-0.03970973,0.86135
369.406,118.006,1.05276,-0.0433201,0.85915
372.006,118.849,0.99671,-0.04497037,0.85695
374.606,119.692,1.15235,-0.05243,0.85475
377.206,120.537,1.18177,-0.05637996,0.85254
379.806,121.38,1.04608,-0.06391768,0.85034
382.406,122.228,1.0041,-0.07113581,0.84813
385.006,123.072,1.00008,-0.07480975,0.84591
387.606,123.9181,1.01328,-0.08205155,0.8437
390.206,124.765,1.02169,-0.09008442,0.84148
392.806,125.613,1.05859,-0.10101,0.83926
395.406,126.46,1.09343,-0.11184,0.83705
398.006,127.31,1.1352,-0.12538,0.83482
400.606,128.162,1.16036,-0.13783,0.8326
403.206,129.0083,1.14911,-0.15272,0.83038
405.806,129.857,1.06268,-0.171,0.82816
408.406,130.706,0.95452,-0.19267,0.82593
411.006,131.554,0.88072,-0.21794,0.82371
413.606,132.403,0.81923,-0.24941,0.82148
416.206,133.256,0.7946,-0.281,0.81926
418.806,134.108,0.8294,-0.32083,0.81703
421.406,134.959,0.86644,-0.36887,0.81481
424.006,135.813,0.94824,-0.42158,0.81259
426.606,136.666,1.02053,-0.48884,0.81036
429.206,137.522,1.11966,-0.56594,0.80814
431.806,138.373,1.17879,-0.65753,0.80592
434.406,139.228,1.29504,-0.76626,0.8037
437.006,140.084,1.42328,-0.89439,0.80148
439.606,140.941,1.5482,-1.04707,0.79927
442.206,141.797,1.71275,-1.22199,0.79705
444.806,142.655,1.88005,-1.42469,0.79484
447.406,143.518,2.03997,-1.65506,0.79263
450.006,144.376,2.18211,-1.91438,0.79042
452.606,145.236,2.34009,-2.20322,0.78821
455.206,146.096,2.37325,-2.51033,0.78601
457.806,146.955,2.34848,-2.83092,0.78381
460.406,147.813,2.23017,-3.14989,0.78161
463.006,148.672,1.99498,-3.44274,0.77942
465.606,149.531,1.60782,-3.6975,0.77722
468.206,150.393,1.2131,-3.89474,0.77504
470.806,151.257,0.40007,-4.02212,0.77285
473.406,152.114,0.12432,-4.09398,0.77067
476.006,152.975,0.20002,-4.12376,0.76849
478.606,153.839,0.20144,-4.13648,0.76632
481.206,154.703,0.15653,-4.13898,0.76415
483.806,155.5654,0.05512238,-4.13855,0.76198
486.406,156.426,0.07792534,-4.14093,0.75982
489.006,157.288,0.0874056,-4.13883,0.75766
491.606,158.152,0.08259743,-4.13804,0.75551
494.206,159.014,0.09862551,-4.13628,0.75337
496.806,159.878,0.09094956,-4.13625,0.75122
499.406,160.745,0.13679,-4.13674,0.74908
502.006,161.613,0.13664,-4.13768,0.74695
504.606,162.477,0.12226,-4.13725,0.74483
507.206,163.34,0.12426,-4.13757,0.7427
509.806,164.209,0.13608,-4.13597,0.74059
512.406,165.076,0.12984,-4.13747,0.73848
515.006,165.94,0.15002,-4.13702,0.73637
517.606,166.813,0.15181,-4.13757,0.73427
520.206,167.684,0.13927,-4.139,0.73218
522.806,168.554,0.163,-4.13791,0.73009
525.406,169.42,0.14578,-4.13868,0.72801
528.006,170.2889,0.15137,-4.13547,0.72594
530.606,171.16,0.16548,-4.13472,0.72387
533.206,172.029,0.13962,-4.13231,0.72181
535.806,172.901,0.13858,-4.13461,0.71975
538.406,173.772,0.1592,-4.13593,0.7177
541.006,174.642,0.13178,-4.13417,0.71566
543.606,175.512,0.15361,-4.13768,0.71362
546.206,176.386,0.14285,-4.13553,0.7116
548.806,177.26,0.13532,-4.13604,0.70958
551.406,178.133,0.1264,-4.13702,0.70756
554.006,179.007,0.12933,-4.13769,0.70556
556.606,179.882,0.12525,-4.13604,0.70356
559.206,180.7575,0.1099,-4.13341,0.70156
561.806,181.63,0.10873,-4.13567,0.69958
564.406,182.506,0.10201,-4.13605,0.6976
567.006,183.379,0.10307,-4.13571,0.69564
569.606,184.252,0.08159744,-4.13604,0.69367
572.206,185.13,0.0783615,-4.13933,0.69172
574.806,186.008,0.0935215,-4.13522,0.68978
577.406,186.885,0.13729,-4.13381,0.68784
580.006,187.762,0.07405296,-4.13547,0.68591
582.606,188.639,0.08488156,-4.13364,0.68399
585.206,189.515,0.06795835,-4.133,0.68207
587.806,190.396,0.08767227,-4.13154,0.68017
590.406,191.278,0.0789188,-4.1322,0.67827
593.006,192.154,0.07331351,-4.13397,0.67639
595.606,193.032,0.06605828,-4.1322,0.67451
598.206,193.91,0.07015773,-4.13353,0.67264
600.806,194.791,0.06616293,-4.13385,0.67077
603.406,195.673,0.06607584,-4.13341,0.66892
606.006,196.554,0.05911431,-4.13111,0.66707
608.606,197.433,0.06958588,-4.13023,0.66524
611.206,198.314,0.05343182,-4.13055,0.66341
613.806,199.1925,0.06694087,-4.13312,0.66159
616.406,200.0754,0.04953326,-4.13209,0.65978
619.006,200.963,0.07209679,-4.13209,0.65798
621.606,201.841,0.05061932,-4.13306,0.65619
624.206,202.721,0.0672264,-4.12983,0.6544
626.806,203.609,0.10375,-4.13184,0.65263
629.406,204.49,0.06191061,-4.13418,0.65087
632.006,205.374,0.07407059,-4.13132,0.64911
634.606,206.257,0.05891653,-4.13384,0.64736
637.206,207.139,0.03469667,-4.13221,0.64562
639.806,208.023,0.03972248,-4.13363,0.6439
642.406,208.911,0.03828163,-4.13553,0.64218
645.006,209.798,0.02635981,-4.13111,0.64047
645.506,209.968,0.02249898,-4.13199,0.64014