Folder: fsri_materials_database/01_Data/R13_Fiberglass_Insulation/Cone (part 2)

File: R13_Fiberglass_Insulation_Cone_HF50Scan_220429_R1.csv
Names,Time,Stack TC,Smoke TC,Exh Press,Smoke Comp,Smoke Meas,CO Meter,CO2 Meter,O2 Meter,Sample Mass,Ext Coeff,Start Test,Flame Verif
Chan Gain,,500,500,1,1,1,1,1,1,1,1,1.0,1.0
Offset,,0,0,0.138979,0,0,0,0,0,0,0,0.0,0.0
Gain,,1,1,25.011,14.099,15.1965,1,1,1,1.00087,0.986176,1.0,1.0
Units,sec,C,C,Pa,%,%,%,%,%,g,/m,,
Baseline,,31.2573,32.3119,148.664,106.288,103.057,0.0006223,0.0437839,21.0317,-837.346,0.267098,,
83,20.5,29.914,30.3548,148.849,105.817,102.804,0.00139782,0.0518205,21.0253,-354.458,0.249925,0.0,0.0
166,41.25,30.4622,31.8626,147.457,106.109,102.967,0.00158592,0.0487814,21.0285,-354.498,0.260089,0.0,0.0
249,62,31.4189,32.5511,148.826,106.196,102.906,0.000790556,0.0472178,21.0276,-354.508,0.272239,0.0,0.0
332,82.75,31.7155,32.942,149.443,105.988,103.022,0.000672686,0.0437503,21.0369,-354.578,0.245522,0.0,0.0
415,103.5,31.6928,33.0978,150.546,105.665,102.391,0.000266989,0.0444799,21.0373,-354.548,0.272266,0.0,0.0
498,124.25,31.7301,33.0631,149.063,105.318,102.365,0.000515415,0.0460554,21.0277,-354.608,0.246061,0.0,0.0
581,145,32.0183,33.1635,148.116,105.327,102.716,0.000597025,0.0439935,21.0348,-354.578,0.217147,0.0,0.0
664,165.75,31.9899,33.6824,146.048,105.362,102.427,0.000795338,0.0429711,21.0362,-354.658,0.244376,0.0,0.0
747,186.5,32.1491,33.3136,144.154,105.396,102.27,0.000134688,0.0430066,21.0353,-354.638,0.260529,0.0,0.0
830,207.25,32.8973,33.6997,145.004,105.427,102.266,0.000542695,0.0441102,21.0358,-354.598,0.263276,0.0,0.0
913,228,32.0684,33.215,146.493,105.464,102.49,0.000616736,0.0441369,21.036,-354.608,0.247424,0.0,0.0
996,248.75,32.3647,33.4765,149.146,105.464,102.505,0.000391571,0.0444328,21.032,-354.678,0.246241,0.0,0.0
1079,269.5,32.1219,33.171,146.133,105.452,102.551,0.000297306,0.0439274,21.0323,-354.658,0.241309,0.0,0.0
1162,290.25,32.1105,33.3111,146.604,105.422,102.463,0.000253868,0.0436131,21.0354,-354.668,0.24623,0.0,0.0
1245,311,31.8513,33.2922,150.399,105.37,102.139,0.000223039,0.0423221,21.039,-354.668,0.269405,0.0,0.0
1328,331.75,32.3853,33.0277,148.791,105.316,102.472,0.000102411,0.0418182,21.038,-354.668,0.236833,0.0,0.0
1411,352.5,32.4036,33.367,145.363,105.3,102.22,0.000259658,0.0418677,21.039,-354.648,0.256778,0.0,0.0
1494,373.25,32.0815,33.4607,149.416,105.357,102.672,0.000353038,0.0417833,21.036,-354.648,0.223297,0.0,0.0
1577,394,32.2911,33.3192,150.962,105.328,102.32,0.000672286,0.0416631,21.0397,-354.668,0.250641,0.0,0.0
1660,414.75,32.1329,33.4146,145.491,105.325,102.074,0.000483518,0.041729,21.0404,-354.628,0.271235,0.0,0.0
1743,435.5,32.4782,33.6231,146.933,105.307,102.26,0.000128442,0.0418387,21.0414,-354.618,0.254001,0.0,0.0
1826,456.25,32.8883,33.3804,152.062,105.321,102.27,0.000219853,0.0419824,21.0399,-354.668,0.254272,0.0,0.0
1909,477,32.5043,33.763,145.1,105.478,102.57,0.000225622,0.042184,21.0404,-354.668,0.241854,0.0,0.0
1992,497.75,32.3522,33.9154,145.681,105.662,102.55,3.60558e-05,0.0420682,21.0378,-354.648,0.25859,0.0,0.0
2075,518.5,32.479,34.126,144.391,105.866,102.738,0.000229983,0.0422078,21.0383,-354.618,0.259443,0.0,0.0
2158,539.25,32.8813,33.7303,148.146,106.057,103.117,0.000316602,0.0420829,21.0388,-354.648,0.243156,0.0,0.0
2241,560,33.1377,33.6312,146.608,106.168,103.154,0.000490941,0.0422808,21.0373,-354.638,0.249207,0.0,0.0
2324,580.75,32.7262,33.7673,143.783,106.187,103.38,0.000437252,0.0424128,21.0393,-354.658,0.231751,0.0,0.0
2407,601.5,32.7532,34.2215,152.085,106.122,103.062,0.000111448,0.0429805,21.0356,-354.668,0.25312,0.0,0.0
2490,622.25,32.7102,34.0347,148.27,106.093,103.162,0.00028503,0.0430004,21.0394,-354.628,0.242369,0.0,0.0
2573,643,32.4646,34.2555,144.139,106.167,103.328,7.43142e-05,0.0429876,21.0406,-354.628,0.234491,0.0,0.0
2656,663.75,32.8636,34.1338,150.094,106.186,103.071,1.07418e-05,0.0426713,21.0403,-354.628,0.257573,0.0,0.0
2739,684.5,32.9939,34.345,150.857,106.147,103.475,0.000240428,0.0423323,21.0395,-354.648,0.220578,0.0,0.0
2822,705.25,32.4983,34.2832,148.117,106.13,103.132,0.000258097,0.0437666,21.0347,-354.608,0.247914,0.0,0.0
2905,726,32.7415,33.9099,145.715,106.09,103.079,0.000110128,0.0428144,21.0384,-354.638,0.249048,0.0,0.0
2988,746.75,32.9046,33.9725,148.765,106.119,103.065,0.000324597,0.0430181,21.0381,-354.628,0.252641,0.0,0.0
3071,767.5,32.8707,34.2788,147.149,106.168,103.208,0.000169419,0.0444248,21.0344,-354.658,0.244623,0.0,0.0
3154,788.25,32.7082,33.7913,146.61,106.191,103.054,0.000576535,0.0427251,21.0406,-354.648,0.259356,0.0,0.0
3237,809,33.1255,34.1647,144.788,106.182,103.234,0.00035298,0.0429309,21.039,-354.618,0.243568,0.0,0.0
3320,829.75,32.7035,34.007,142.13,106.181,103.291,0.000147482,0.0423036,21.0395,-354.618,0.238719,0.0,0.0
3403,850.5,32.3077,34.1588,148.436,106.16,102.931,0.000468034,0.0425674,21.0396,-354.618,0.267228,0.0,0.0
3486,871.25,32.6407,34.2126,146.499,106.041,102.978,0.000105437,0.0427143,21.0397,-354.578,0.253572,0.0,0.0
3569,892,32.0279,34.0579,148.086,105.822,102.8,5.92627e-05,0.0417527,21.0396,-354.608,0.250589,0.0,0.0
3652,912.75,32.9748,33.6438,145.708,105.431,102.559,0.000190405,0.0423929,21.0393,-354.648,0.238945,0.0,0.0
3735,933.5,32.6823,33.8163,147.528,105.339,102.588,0.000210402,0.0423379,21.0401,-354.638,0.228963,0.0,0.0
3818,954.25,32.6149,33.7655,148.403,105.431,102.235,2.34847e-05,0.0450561,21.0353,-354.658,0.266332,0.0,0.0
3901,975,32.2535,33.9549,146.418,105.523,102.34,0.000302126,0.0439332,21.0369,-354.608,0.26491,0.0,0.0
3984,995.75,32.0277,33.8628,144.251,105.621,102.652,0.00047494,0.0425661,21.0399,-354.658,0.246605,0.0,0.0
4067,1016.5,32.8764,34.0793,149.2,105.689,102.69,0.000302145,0.0432423,21.0383,-354.608,0.249042,0.0,0.0
4150,1037.25,32.3343,33.8946,149.141,105.606,102.49,0.000329369,0.0430838,21.0395,-354.648,0.259132,0.0,0.0
4233,1058,32.715,33.5912,148.497,105.416,102.412,0.000216893,0.043721,21.0383,-354.608,0.250122,0.0,0.0
4316,1078.75,32.379,33.7607,146.376,105.197,102.055,0.000243019,0.043984,21.0371,-354.668,0.262305,0.0,0.0
4399,1099.5,32.1446,33.6332,147.559,104.891,101.66,0.000235259,0.0458594,21.0331,-354.618,0.270633,0.0,0.0
4482,1120.25,32.3805,33.5045,146.783,104.647,101.793,0.000315726,0.0432806,21.0352,-354.618,0.239171,0.0,0.0
4565,1141,32.2724,33.9198,149.367,104.572,101.638,0.000202965,0.0430359,21.0391,-354.618,0.246157,0.0,0.0
4648,1161.75,32.5442,33.8719,148.273,104.449,101.312,0.000521828,0.0439021,21.0363,-354.638,0.263797,0.0,0.0
4731,1182.5,31.8785,33.444,149.82,104.388,101.314,0.000267057,0.0433809,21.0372,-354.668,0.258577,0.0,0.0
4814,1203.25,32.3187,33.5237,148.322,104.387,101.288,0.000309069,0.0430203,21.0374,-354.638,0.260688,0.0,0.0
4897,1224,32.3724,33.0733,147.312,104.429,101.613,0.000155934,0.0423818,21.0386,-354.598,0.23646,0.0,0.0
4980,1244.75,31.6225,33.4254,148.032,104.411,101.407,0.000511172,0.0425136,21.041,-354.618,0.252551,0.0,0.0
5063,1265.5,32.9004,33.3714,151.08,104.337,101.007,0.000303532,0.0427625,21.0407,-354.588,0.28055,0.0,0.0
5146,1286.25,32.5738,33.525,147.965,104.315,101.356,0.000187595,0.0429793,21.0389,-354.588,0.248954,0.0,0.0
5229,1307,32.4158,34.1123,149.474,104.31,101.218,0.000360744,0.0425704,21.0393,-354.598,0.260249,0.0,0.0
5312,1327.75,32.4849,33.4797,144.242,104.258,101.379,-1.84481e-05,0.0433031,21.0392,-354.618,0.242188,0.0,0.0
5395,1348.5,32.4331,33.7189,148.063,104.228,101.445,0.000668433,0.0421868,21.041,-354.608,0.234143,0.0,0.0
5478,1369.25,32.7289,34.353,149.971,104.213,101.115,0.00019588,0.0421388,21.0416,-354.598,0.261061,0.0,0.0
5561,1390,32.4085,33.6193,145.128,104.23,101.08,0.000524104,0.0421619,21.0401,-354.598,0.265469,0.0,0.0
5644,1410.75,32.5693,33.4575,149.119,104.261,101.326,0.000449756,0.0422557,21.041,-354.608,0.247062,0.0,0.0
5727,1431.5,32.1067,33.6253,148.304,104.24,101.069,8.63962e-05,0.0427356,21.0393,-354.608,0.2672,0.0,0.0
5810,1452.25,32.4188,33.4661,148.535,104.232,100.993,0.000308363,0.0440298,21.0378,-354.598,0.273069,0.0,0.0
5893,1473,32.6747,33.8267,148.44,104.22,101.133,0.000332961,0.0440973,21.0364,-354.618,0.260045,0.0,0.0
5976,1493.75,32.108,33.2487,149.018,104.298,101.318,0.000422298,0.0433832,21.0374,-354.628,0.250773,0.0,0.0
6059,1514.5,32.1514,33.2515,146.244,104.615,101.513,2.64036e-05,0.0423375,21.0401,-354.558,0.26034,0.0,0.0
6142,1535.25,32.4524,33.4952,147.878,104.959,101.921,0.000280894,0.0436866,21.0372,-354.608,0.254124,0.0,0.0
6225,1556,32.127,33.17,146.463,105.225,101.875,0.00018877,0.0430053,21.0372,-354.638,0.27987,0.0,0.0
6308,1576.75,32.3349,33.5787,153.179,105.374,102.346,0.000249272,0.0421322,21.0406,-354.658,0.252261,0.0,0.0
6391,1597.5,32.3379,33.4393,147.67,105.436,102.354,0.000200579,0.0419958,21.0407,-354.608,0.256566,0.0,0.0
6474,1618.25,32.3566,33.3949,145.003,105.566,102.47,0.000384036,0.0420115,21.0415,-354.628,0.257502,0.0,0.0
6557,1639,32.5693,33.4155,151.225,105.664,102.606,0.000367481,0.0418045,21.0414,-354.648,0.254074,0.0,0.0
6640,1659.75,32.2771,33.3995,150.897,105.674,102.629,0.000209265,0.0419563,21.0426,-354.608,0.252968,0.0,0.0
6723,1680.5,31.6563,33.7408,147.581,105.628,102.757,0.000467699,0.0417899,21.0402,-354.628,0.238373,0.0,0.0
6806,1701.25,32.162,33.6235,147.063,105.56,102.381,0.000224789,0.0421808,21.0393,-354.648,0.264455,0.0,0.0
6889,1722,31.8921,33.4888,149.776,105.517,102.273,0.000395822,0.0419042,21.041,-354.598,0.270098,0.0,0.0
6972,1742.75,32.1584,33.5539,149.908,105.52,102.421,0.000478982,0.0418161,21.0427,-354.658,0.257876,0.0,0.0
7055,1763.5,32.1473,33.4692,147.444,105.554,102.638,0.000513762,0.0430012,21.0387,-354.638,0.242279,0.0,0.0
7138,1784.25,32.5739,33.4771,151.041,105.564,102.317,0.000378827,0.043622,21.0392,-354.568,0.270255,0.0,0.0
7221,1805,32.379,33.4248,148.233,105.542,102.335,0.000398603,0.042358,21.0421,-354.608,0.266889,0.0,0.0
7304,1825.75,31.3922,32.9905,146.861,105.559,102.429,0.000339952,0.0419531,21.0399,-354.578,0.260349,0.0,0.0
7387,1846.5,31.8197,32.9721,148.075,105.572,102.22,0.00025255,0.04236,21.0417,-354.598,0.279128,0.0,0.0
7470,1867.25,31.5926,32.8833,147.114,105.553,102.598,0.000285719,0.0441127,21.0388,-354.628,0.245571,0.0,0.0
7553,1888,31.9051,33.0005,144.526,105.514,102.581,0.000128056,0.0433934,21.0395,-354.588,0.243883,0.0,0.0
7636,1908.75,32.2449,32.9201,146.058,105.396,102.27,0.000399296,0.0437533,21.0383,-354.648,0.260494,0.0,0.0
7719,1929.5,31.9,33.1723,146.498,105.301,102.141,0.000623119,0.0426765,21.0393,-354.568,0.263598,0.0,0.0
7775,1943.5,31.7527,32.8243,147.718,105.677,102.575,,,,-354.608,0.257786,0.0,0.0

File: R13_Fiberglass_Insulation_Cone_HF50Scan_220429_R2.csv
Names,Time,Stack TC,Smoke TC,Exh Press,Smoke Comp,Smoke Meas,CO Meter,CO2 Meter,O2 Meter,Sample Mass,Ext Coeff,Start Test,Flame Verif
Chan Gain,,500,500,1,1,1,1,1,1,1,1,1.0,1.0
Offset,,0,0,0.135741,0,0,0,0,0,0,0,0.0,0.0
Gain,,1,1,25.011,14.8585,16.6522,1,1,1,1.00087,1.0138,1.0,1.0
Units,sec,C,C,Pa,%,%,%,%,%,g,/m,,
Baseline,,39.032,40.1766,135.793,114.055,120.618,0.000501723,0.0486239,21.0083,-4.64674,-0.497477,,
34,8.25,36.2745,38.5484,137.322,113.803,120.753,0.00139491,0.0553861,21.0026,492.667,-0.52718,0.0,0.0
68,16.75,37.3465,38.6125,137.48,113.732,121.068,0.00170531,0.05755,21.0012,492.567,-0.555884,0.0,0.0
102,25.25,37.4476,38.7403,135.678,113.696,121.351,0.00131663,0.0547017,21.0024,492.537,-0.579415,0.0,0.0
136,33.75,38.0393,39.2505,140.64,113.635,122.331,0.00122317,0.0525981,21.005,492.467,-0.655757,0.0,0.0
170,42.25,37.7313,39.437,134.369,113.579,120.376,0.00110923,0.0512338,21.0081,492.437,-0.516926,0.0,0.0
204,50.75,38.303,38.8122,134.772,113.514,121.054,0.00107788,0.0506912,21.0088,492.477,-0.571946,0.0,0.0
238,59.25,38.4403,38.885,136.621,113.42,119.944,0.00105338,0.0505383,21.0099,492.407,-0.49739,0.0,0.0
272,67.75,38.5846,39.4319,131.093,113.366,119.879,0.000798919,0.0508056,21.01,492.457,-0.496764,0.0,0.0
306,76.25,38.887,39.734,134.571,113.302,121.328,0.000651248,0.0498192,21.0093,492.407,-0.608652,0.0,0.0
340,84.75,37.9946,39.2253,128.56,113.226,119.542,0.000642528,0.0490292,21.0095,492.417,-0.482731,0.0,0.0
374,93.25,38.5761,39.3603,137.797,113.3,120.029,0.000715766,0.0488941,21.01,492.387,-0.513108,0.0,0.0
408,101.75,38.4791,39.9215,136.216,113.472,120.476,0.00061766,0.0488492,21.0127,492.367,-0.532665,0.0,0.0
442,110.25,38.2112,39.7224,134.927,113.572,120.876,0.000441722,0.0487093,21.0123,492.367,-0.554324,0.0,0.0
476,118.75,38.3159,39.8899,135.907,113.639,120.053,0.000442151,0.0484158,21.0121,492.377,-0.48826,0.0,0.0
510,127.25,38.2921,39.5208,131.16,113.657,119.839,0.000403924,0.0481299,21.0121,492.357,-0.47105,0.0,0.0
544,135.75,38.6222,39.7728,134.272,113.655,120.819,0.000394319,0.0479651,21.0121,492.347,-0.54364,0.0,0.0
578,144.25,38.4176,39.6042,136.257,113.63,121.073,0.000471457,0.0477775,21.0148,492.377,-0.564201,0.0,0.0
612,152.75,38.2626,39.373,136.223,113.557,120.606,0.000397844,0.0475025,21.0151,492.347,-0.535511,0.0,0.0
646,161.25,38.2307,39.461,137.415,113.474,120.278,0.00031179,0.0471942,21.0136,492.357,-0.517847,0.0,0.0
680,169.75,38.3565,40.1922,134.841,113.371,120.537,0.000444668,0.0473277,21.0147,492.337,-0.545058,0.0,0.0
714,178.25,38.6676,39.8017,135.258,113.287,119.825,0.000513643,0.0474096,21.0147,492.337,-0.498993,0.0,0.0
748,186.75,38.7288,40.0691,133.369,113.156,119.67,0.00036858,0.0472089,21.0142,492.337,-0.497739,0.0,0.0
782,195.25,38.5467,39.7916,132.045,112.938,120.038,0.000195366,0.0473779,21.0138,492.347,-0.542197,0.0,0.0
816,203.75,38.7214,40.1694,131.784,112.958,119.68,0.000295856,0.0472893,21.0131,492.377,-0.514007,0.0,0.0
850,212.25,39.1827,40.2835,134.209,113.08,119.832,0.000176863,0.0470484,21.0151,492.327,-0.515729,0.0,0.0
884,220.75,38.6854,40.3876,135.922,113.188,120.418,0.0005649,0.0471296,21.0166,492.347,-0.550625,0.0,0.0
918,229.25,38.3537,40.3479,136.181,113.306,120.302,0.00027975,0.0470965,21.0157,492.327,-0.532769,0.0,0.0
952,237.75,38.6397,40.3046,136.189,113.41,121.271,0.000294241,0.0471661,21.0143,492.327,-0.59601,0.0,0.0
986,246.25,38.8658,40.0118,133.587,113.527,121.054,0.000531891,0.0472026,21.012,492.337,-0.570916,0.0,0.0
1020,254.75,39.0732,40.0573,137.069,113.617,120.759,0.000384971,0.0472844,21.0123,492.317,-0.542134,0.0,0.0
1054,263.25,39.0852,40.6314,133.988,113.658,120.62,0.000427702,0.0470816,21.013,492.327,-0.52868,0.0,0.0
1088,271.75,38.7515,40.0456,135.873,113.697,119.801,0.000389824,0.0470913,21.0141,492.317,-0.465061,0.0,0.0
1122,280.25,38.9743,40.2532,135.049,113.706,120.219,0.000505516,0.0468464,21.0146,492.327,-0.495382,0.0,0.0
1156,288.75,38.6797,40.0634,132.608,113.731,119.847,0.000154329,0.0466821,21.0132,492.347,-0.465871,0.0,0.0
1190,297.25,38.9694,40.6866,132.558,113.748,120.439,0.00019437,0.0468669,21.0122,492.327,-0.508274,0.0,0.0
1224,305.75,39.346,40.5306,135.007,113.758,119.517,0.000205554,0.0469199,21.013,492.337,-0.4392,0.0,0.0
1258,314.25,38.4473,40.3897,138.031,113.775,120.282,0.000249635,0.0469125,21.0131,492.367,-0.49458,0.0,0.0
1292,322.75,39.3564,40.6696,134.04,113.783,121.24,5.18247e-05,0.0469001,21.0117,492.327,-0.564486,0.0,0.0
1326,331.25,38.7949,40.5738,135.701,113.779,120.685,0.000440656,0.0471163,21.0117,492.307,-0.524042,0.0,0.0
1360,339.75,39.123,40.4276,132.106,113.776,121.078,0.000235712,0.0472496,21.0122,492.327,-0.553119,0.0,0.0
1394,348.25,38.953,40.1231,134.146,113.741,120.659,0.000303473,0.0473539,21.0124,492.357,-0.525039,0.0,0.0
1428,356.75,38.8183,40.364,135.515,113.692,120.887,0.000244044,0.0473645,21.0143,492.347,-0.545668,0.0,0.0
1462,365.25,39.3015,40.3278,132.976,113.631,120.017,0.000113327,0.0473438,21.0136,492.317,-0.486188,0.0,0.0
1496,373.75,39.1448,40.6662,134.093,113.54,121.359,0.000173644,0.0474243,21.0139,492.307,-0.59222,0.0,0.0
1530,382.25,38.5781,40.5654,132.468,113.442,119.455,5.14681e-05,0.0473451,21.0131,492.307,-0.459254,0.0,0.0
1564,390.75,39.6568,40.2163,136.41,113.312,120.195,0.000155413,0.0471556,21.013,492.337,-0.524487,0.0,0.0
1598,399.25,39.1508,40.0845,134.585,113.176,119.749,0.000227488,0.0472878,21.0135,492.317,-0.502061,0.0,0.0
1632,407.75,39.0733,40.408,133.746,113.075,119.728,0.000352918,0.0472773,21.0129,492.327,-0.508462,0.0,0.0
1666,416.25,38.9621,40.1593,134.61,112.927,120.06,0.000162899,0.0470991,21.0129,492.347,-0.544708,0.0,0.0
1700,424.75,38.781,40.5585,136.628,112.806,120.151,0.000320188,0.0469949,21.0121,492.317,-0.560947,0.0,0.0
1734,433.25,38.4241,40.1079,134.494,112.724,120.376,0.000434251,0.0468222,21.0125,492.337,-0.584068,0.0,0.0
1768,441.75,39.4906,39.8423,133.162,112.641,119.247,0.000462003,0.0468245,21.0138,492.347,-0.506874,0.0,0.0
1802,450.25,38.8838,40.3262,137.119,112.597,118.202,0.000312472,0.0471918,21.0142,492.317,-0.432086,0.0,0.0
1836,458.75,39.2812,40.3375,133.885,112.558,120.134,0.000548762,0.047209,21.0156,492.347,-0.579318,0.0,0.0
1870,467.25,38.6264,40.3713,135.703,112.567,119.524,-0.000137417,0.0475293,21.0147,492.317,-0.533342,0.0,0.0
1904,475.75,39.045,40.3213,134.539,112.575,119.414,0.000167896,0.04762,21.015,492.307,-0.524489,0.0,0.0
1938,484.25,39.2295,40.5775,136.099,112.562,119.123,0.000445479,0.0473098,21.015,492.337,-0.503818,0.0,0.0
1972,492.75,38.8644,40.2562,137.76,112.555,117.829,4.79541e-05,0.0473215,21.014,492.317,-0.407199,0.0,0.0
2006,501.25,39.4222,40.408,136.336,112.541,119.415,-4.61501e-05,0.0471024,21.0138,492.337,-0.52729,0.0,0.0
2040,509.75,38.8269,40.3157,135.239,112.526,119.384,0.000146478,0.0469428,21.0159,492.337,-0.526125,0.0,0.0
2074,518.25,38.7891,40.4128,133.496,112.531,119.238,0.000559484,0.0465465,21.0154,492.377,-0.514859,0.0,0.0
2108,526.75,38.877,40.321,131.892,112.483,120.165,0.000625207,0.0469337,21.0154,492.317,-0.587562,0.0,0.0
2142,535.25,38.6874,40.61,136.413,112.481,119.55,0.000355149,0.0468643,21.0149,492.327,-0.54197,0.0,0.0
2176,543.75,38.9769,40.0933,132.982,112.47,119.688,0.00015943,0.0468443,21.0138,492.347,-0.553145,0.0,0.0
2210,552.25,39.251,40.1308,134.259,112.457,120.299,0.000357041,0.0470762,21.013,492.337,-0.599418,0.0,0.0
2244,560.75,38.6023,40.3321,130.78,112.454,119.009,0.00021585,0.0472124,21.0143,492.347,-0.503808,0.0,0.0
2278,569.25,39.3779,40.7569,134.523,112.424,118.491,0.000753732,0.0468141,21.0147,492.317,-0.467469,0.0,0.0
2312,577.75,38.919,40.2657,133.019,112.428,119.712,0.000416176,0.0470676,21.0161,492.327,-0.55829,0.0,0.0
2346,586.25,38.9023,40.1489,133.008,112.431,120.528,0.000315202,0.0470525,21.0145,492.307,-0.618425,0.0,0.0
2380,594.75,39.3706,39.7626,134.559,112.434,118.828,0.000474555,0.0470814,21.0152,492.317,-0.491895,0.0,0.0
2414,603.25,38.8053,40.3047,137.576,112.445,119.112,0.000262444,0.0468223,21.0153,492.327,-0.512305,0.0,0.0
2448,611.75,39.1334,40.1823,136.8,112.441,118.516,0.000440665,0.0470193,21.014,492.317,-0.4679,0.0,0.0
2482,620.25,38.8101,40.163,138.659,112.47,119.348,0.000494804,0.0469646,21.0136,492.327,-0.527885,0.0,0.0
2516,628.75,38.5697,40.0306,137.822,112.48,119.009,0.000134116,0.0471869,21.0144,492.327,-0.501764,0.0,0.0
2550,637.25,39.0054,40.2832,134.124,112.509,118.676,0.000538185,0.0471226,21.0136,492.307,-0.474636,0.0,0.0
2584,645.75,38.4314,40.4593,131.915,112.555,118.835,0.000366552,0.047049,21.0135,492.327,-0.48278,0.0,0.0
2618,654.25,38.7196,40.6213,135.226,112.611,119.15,5.66186e-05,0.046987,21.0147,492.337,-0.501996,0.0,0.0
2652,662.75,38.3231,40.0339,134.778,112.663,119.201,0.000205606,0.0472106,21.0152,492.297,-0.501671,0.0,0.0
2686,671.25,37.3504,38.0089,131.622,112.717,118.533,0.000133176,0.0474344,21.0144,492.367,-0.447419,0.0,0.0
2720,679.75,36.5026,38.444,134.786,112.782,119.372,0.000362735,0.047828,21.0138,492.337,-0.504957,0.0,0.0
2754,688.25,36.9119,38.7616,132.826,112.919,120.391,0.00063346,0.0478757,21.0142,492.347,-0.56975,0.0,0.0
2788,696.75,37.3427,38.649,133.14,113.059,120.059,0.00019347,0.047424,21.0134,492.347,-0.534249,0.0,0.0
2822,705.25,36.7422,38.5083,132.36,113.201,120.269,0.000157795,0.0474374,21.0143,492.347,-0.538661,0.0,0.0
2856,713.75,37.0291,39.1611,134.111,113.303,119.862,0.000421144,0.0473852,21.0136,492.337,-0.500499,0.0,0.0
2890,722.25,36.7613,38.191,133.785,113.338,120.791,0.000241639,0.0473919,21.0124,492.337,-0.566382,0.0,0.0
2924,730.75,37.0519,38.2284,134.556,113.387,120.066,0.000116469,0.0474805,21.0141,492.317,-0.508953,0.0,0.0
2958,739.25,36.781,38.1776,138.106,113.386,120.435,0.000200039,0.0474345,21.0125,492.347,-0.536309,0.0,0.0
2992,747.75,37.1624,37.9542,133.279,113.36,119.031,-4.09901e-06,0.0475193,21.0121,492.327,-0.434117,0.0,0.0
3026,756.25,36.9609,38.1928,133.77,113.319,119.963,0.000153172,0.0472844,21.0113,492.327,-0.506681,0.0,0.0
3060,764.75,36.8239,38.2518,138.64,113.27,120.468,0.000157884,0.0473259,21.0138,492.327,-0.547857,0.0,0.0
3094,773.25,36.4346,38.2954,136.112,113.23,118.84,0.000265766,0.0468553,21.0133,492.327,-0.430084,0.0,0.0
3128,781.75,36.6835,38.2418,134.778,113.203,120.191,,,,492.347,-0.532696,0.0,0.0
3151,787.5,36.8993,37.8424,136.057,113.195,119.076,,,,492.357,-0.450492,0.0,0.0