Folder: fsri_materials_database/01_Data/R13_Fiberglass_Insulation/Cone (part 3)

File: R13_Fiberglass_Insulation_Cone_HF50Scan_220429_R3.csv
Names,Time,Stack TC,Smoke TC,Exh Press,Smoke Comp,Smoke Meas,CO Meter,CO2 Meter,O2 Meter,Sample Mass,Ext Coeff,Start Test,Flame Verif
Chan Gain,,500,500,1,1,1,1,1,1,1,1,1.0,1.0
Offset,,0,0,0.13436,0,0,0,0,0,0,0,0.0,0.0
Gain,,1,1,25.011,14.4414,16.1819,1,1,1,1.0009,1.01483,1.0,1.0
Units,sec,C,C,Pa,%,%,%,%,%,g,/m,,
Baseline,,27.5431,28.4792,138.199,108.808,109.882,0.000978093,0.0585141,21.0085,-494.982,-0.0874248,,
31,7.5,27.0429,27.7182,140.16,108.774,111.036,0.00236359,0.0680415,20.9994,6.81612,-0.183191,0.0,0.0
62,15.25,27.5071,28.0209,137.313,108.801,110.348,0.00253379,0.0670336,20.9999,6.71603,-0.125629,0.0,0.0
93,23,28.5234,28.9329,138.352,108.821,110.012,0.00171147,0.0630926,21.0045,6.65597,-0.0968751,0.0,0.0
124,30.75,27.8185,29.1663,138.014,108.854,110.489,0.00164449,0.0619076,21.0075,6.63596,-0.132765,0.0,0.0
155,38.5,28.3338,29.3635,139.178,108.898,110.393,0.0012679,0.0613446,21.0083,6.59592,-0.12136,0.0,0.0
186,46.25,28.9757,29.6844,136.927,108.974,110.48,0.00112497,0.0614525,21.0064,6.59592,-0.122212,0.0,0.0
217,54,29.195,29.8073,134.673,109.031,111.176,0.00108936,0.0629354,21.0048,6.58591,-0.173386,0.0,0.0
248,61.75,29.2238,29.7639,138.733,109.108,110.476,0.000814059,0.0625166,21.0055,6.55588,-0.110884,0.0,0.0
279,69.5,29.3432,30.2592,135.099,109.193,110.789,0.00086129,0.0605193,21.0084,6.55588,-0.129211,0.0,0.0
310,77.25,29.5889,30.2416,137.906,109.276,110.459,0.000860186,0.0593387,21.0139,6.52586,-0.0958007,0.0,0.0
341,85,29.7522,30.7113,138.858,109.345,110.863,0.000928141,0.0584269,21.0131,6.51585,-0.122698,0.0,0.0
372,92.75,29.6953,30.5447,133.961,109.379,110.705,0.000731319,0.0583485,21.013,6.49583,-0.107238,0.0,0.0
403,100.5,29.9553,30.9849,135.566,109.424,111.111,0.00104836,0.0581774,21.0137,6.49583,-0.136237,0.0,0.0
434,108.25,30.1322,30.6854,133.854,109.448,111.031,0.00100505,0.058308,21.0145,6.49583,-0.127814,0.0,0.0
465,116,29.9121,31.5877,139.62,109.478,110.606,0.00112133,0.0580023,21.0137,6.47581,-0.091265,0.0,0.0
496,123.75,30.4784,31.1832,140.833,109.473,111.132,0.000819085,0.0579349,21.0136,6.47581,-0.133924,0.0,0.0
527,131.5,30.0428,31.2977,137.545,109.463,110.596,0.000714895,0.0577907,21.0142,6.4658,-0.0916445,0.0,0.0
558,139.25,30.2774,31.496,132.762,109.453,111,0.000793615,0.0578702,21.0137,6.47581,-0.124968,0.0,0.0
589,147,30.317,31.4797,135.232,109.423,110.689,0.000606199,0.0580251,21.014,6.45579,-0.102456,0.0,0.0
620,154.75,30.7191,31.5213,137,109.374,110.817,0.000467515,0.0576578,21.0136,6.4658,-0.116717,0.0,0.0
651,162.5,30.7798,31.8927,136.777,109.303,110.166,0.000818828,0.0580808,21.0129,6.44579,-0.0700154,0.0,0.0
682,170.25,30.6297,31.3223,132.948,109.246,110.87,0.00109277,0.0581451,21.0129,6.45579,-0.131366,0.0,0.0
713,178,30.6854,31.7924,137.723,109.135,110.384,0.000800641,0.0579616,21.0133,6.44579,-0.101322,0.0,0.0
744,185.75,30.707,31.7119,137.961,109.015,110.428,0.000817261,0.0578621,21.0137,6.43578,-0.114573,0.0,0.0
775,193.5,30.675,31.8811,136.73,108.896,109.894,0.00063763,0.0578043,21.0151,6.44579,-0.0811926,0.0,0.0
806,201.25,31.0567,32.1438,134.165,108.74,109.814,0.000772296,0.0576453,21.0148,6.44579,-0.0875127,0.0,0.0
837,209,30.5712,31.6183,137.959,108.578,109.852,0.000979053,0.0578311,21.0125,6.45579,-0.103846,0.0,0.0
868,216.75,30.829,32.6891,136.626,108.36,109.67,0.000748318,0.0591218,21.0106,6.43578,-0.10693,0.0,0.0
899,224.5,30.8613,31.6649,139.07,108.116,109.687,0.000663557,0.0587977,21.0128,6.43578,-0.12849,0.0,0.0
930,232.25,30.2848,32.4116,135.285,107.879,109.596,0.000793538,0.0577447,21.0146,6.42577,-0.14054,0.0,0.0
961,240,31.0689,32.1816,140.118,107.721,109.383,0.000802523,0.056925,21.0167,6.41576,-0.1363,0.0,0.0
992,247.75,30.477,32.2749,135.635,107.62,109.002,0.0009138,0.0571007,21.0154,6.40575,-0.113604,0.0,0.0
1023,255.5,30.7194,32.0186,133.708,107.526,108.945,0.000776682,0.0571396,21.0141,6.39574,-0.116734,0.0,0.0
1054,263.25,31.3763,32.3341,136.568,107.453,108.92,0.00078266,0.0577521,21.0145,6.39574,-0.120774,0.0,0.0
1085,271,31.1239,32.1945,138.677,107.398,108.707,0.000747171,0.0584092,21.0105,6.39574,-0.107773,0.0,0.0
1116,278.75,31.4507,32.4625,131.684,107.395,109.108,0.000617437,0.0579738,21.0125,6.38573,-0.140846,0.0,0.0
1147,286.5,31.1162,31.5233,134.435,107.402,108.807,0.000398194,0.057803,21.0165,6.39574,-0.11569,0.0,0.0
1178,294.25,30.775,32.4701,135.605,107.442,109.234,0.000863942,0.0577839,21.0155,6.38573,-0.147203,0.0,0.0
1209,302,31.1233,32.7521,133.241,107.489,109.271,0.000675069,0.0576643,21.0151,6.36571,-0.146391,0.0,0.0
1240,309.75,31.4801,32.1782,133.999,107.556,109.063,0.000709637,0.0578043,21.0137,6.37572,-0.123851,0.0,0.0
1271,317.5,30.8603,32.6935,135.978,107.649,109.188,0.000613175,0.0576421,21.0144,6.38573,-0.12639,0.0,0.0
1302,325.25,31.7193,32.6363,135.095,107.746,109.176,0.000672596,0.0578033,21.0137,6.37572,-0.117373,0.0,0.0
1333,333,31.4202,33.104,134.319,107.821,109.175,0.000671148,0.0572907,21.0144,6.39574,-0.111105,0.0,0.0
1364,340.75,31.8623,33.1182,135.285,107.882,109.145,0.000752422,0.0572476,21.0148,6.38573,-0.103588,0.0,0.0
1395,348.5,31.493,33.0282,134.774,107.945,109.533,0.000904579,0.057745,21.014,6.37572,-0.130067,0.0,0.0
1426,356.25,32.058,32.5082,136.503,108.025,109.39,0.000638304,0.0578135,21.0133,6.36571,-0.111768,0.0,0.0
1457,364,31.3781,33.0755,135.888,108.103,109.127,0.0004797,0.0574752,21.0133,6.38573,-0.083941,0.0,0.0
1488,371.75,31.7437,33.3131,139.659,108.164,109.203,0.000436849,0.057534,21.0144,6.3557,-0.0851719,0.0,0.0
1519,379.5,31.7324,33.1788,138.738,108.233,109.982,0.000576848,0.0576111,21.0136,6.36571,-0.142661,0.0,0.0
1550,387.25,31.9165,32.9878,139.068,108.32,110.117,0.000541872,0.0575311,21.0144,6.36571,-0.146465,0.0,0.0
1581,395,31.7837,33.0261,132.752,108.403,110.504,0.000623125,0.0577326,21.0144,6.3557,-0.170831,0.0,0.0
1612,402.75,31.6231,32.7518,134.782,108.462,110.064,0.000839211,0.0579409,21.0136,6.3457,-0.130464,0.0,0.0
1643,410.5,31.721,33.3205,133.466,108.549,110.392,0.000896932,0.0575999,21.0143,6.3457,-0.149823,0.0,0.0
1674,418.25,31.9066,33.4323,135.991,108.607,109.885,0.000898142,0.0575248,21.0169,6.3557,-0.104138,0.0,0.0
1705,426,31.9311,32.9799,138.961,108.671,110.181,0.000792734,0.0576815,21.0174,6.3457,-0.122874,0.0,0.0
1736,433.75,32.1864,32.7266,135.589,108.71,110.624,0.00033229,0.0573939,21.0198,6.33569,-0.155302,0.0,0.0
1767,441.5,31.8937,32.8061,136.236,108.743,109.963,0.000641998,0.0573002,21.0182,6.3457,-0.0993778,0.0,0.0
1798,449.25,32.1357,32.8874,136.815,108.785,110.257,0.00085576,0.0570674,21.0154,6.3457,-0.119594,0.0,0.0
1829,457,31.7186,33.318,136.978,108.816,110.197,0.00101832,0.0570373,21.0167,6.33569,-0.112204,0.0,0.0
1860,464.75,31.718,33.3308,135.444,108.829,110.35,0.000545267,0.0569757,21.0153,6.32568,-0.123556,0.0,0.0
1891,472.5,32.2569,32.8526,135.988,108.824,110.215,0.000446324,0.0572964,21.0146,6.3457,-0.113067,0.0,0.0
1922,480.25,32.2567,33.7055,129.721,108.785,110.596,0.000542636,0.0576126,21.0127,6.3457,-0.146904,0.0,0.0
1953,488,32.1111,33.2122,137.626,108.726,110.09,0.000567979,0.058172,21.0123,6.32568,-0.110941,0.0,0.0
1984,495.75,32.2221,33.4101,136.685,108.65,110.153,0.000698715,0.0581046,21.0137,6.33569,-0.122255,0.0,0.0
2015,503.5,32.2518,33.2733,133.161,108.545,109.842,0.000718233,0.0574107,21.0151,6.3457,-0.105792,0.0,0.0
2046,511.25,32.6108,33.1898,136.333,108.487,109.915,0.00081071,0.0571536,21.0172,6.33569,-0.116372,0.0,0.0
2077,519,32.4715,33.3565,133.847,108.441,109.676,0.000721942,0.0574413,21.0182,6.32568,-0.100828,0.0,0.0
2108,526.75,32.0636,33.0447,137.812,108.398,109.813,0.000663501,0.0575186,21.0168,6.32568,-0.11551,0.0,0.0
2139,534.5,31.977,33.4471,134.937,108.367,109.967,0.000538413,0.057306,21.0165,6.31567,-0.13049,0.0,0.0
2170,542.25,32.1091,33.2868,136.357,108.294,109.764,0.000493983,0.0571491,21.0168,6.31567,-0.11998,0.0,0.0
2201,550,32.7017,33.1051,134.417,108.246,109.956,0.000458121,0.0571581,21.0174,6.30566,-0.139455,0.0,0.0
2232,557.75,32.7225,33.2385,136.059,108.272,109.995,0.000641972,0.057291,21.0167,6.32568,-0.140551,0.0,0.0
2263,565.5,32.4567,33.3132,136.593,108.424,110.077,0.000392057,0.0574575,21.0172,6.31567,-0.134731,0.0,0.0
2294,573.25,32.2431,33.65,139.634,108.571,110.144,0.000520556,0.0576001,21.0172,6.33569,-0.128039,0.0,0.0
2325,581,32.0932,33.1629,135.785,108.679,110.471,0.000569439,0.0579319,21.0157,6.30566,-0.145573,0.0,0.0
2356,588.75,32.554,33.4988,136.863,108.789,110.879,0.000665173,0.0575995,21.0143,6.31567,-0.169366,0.0,0.0
2387,596.5,32.2215,33.417,139.451,108.908,110.674,0.00063104,0.0577221,21.0147,6.31567,-0.143126,0.0,0.0
2418,604.25,32.1787,32.8687,138.434,108.995,110.55,0.000599246,0.0573477,21.0154,6.31567,-0.126056,0.0,0.0
2449,612,31.6162,33.7593,135.077,109.09,110.419,0.000603933,0.0575725,21.0159,6.30566,-0.107817,0.0,0.0
2480,619.75,31.7174,33.3658,137.912,109.148,110.765,0.000418212,0.0571169,21.0159,6.31567,-0.130936,0.0,0.0
2511,627.5,31.8005,33.3828,137.752,109.186,110.836,0.000639913,0.0568689,21.0159,6.29565,-0.133482,0.0,0.0
2542,635.25,32.0733,33.2175,134.805,109.21,110.853,0.000878052,0.0573231,21.0139,6.31567,-0.132967,0.0,0.0
2573,643,32.2822,33.2644,135.963,109.235,110.633,0.0007186,0.0573226,21.0128,6.28564,-0.113251,0.0,0.0
2604,650.75,31.7421,33.5388,135.136,109.221,110.739,0.000750483,0.0578582,21.0118,6.30566,-0.122904,0.0,0.0
2635,658.5,31.6606,33.4859,137.511,109.197,111.341,0.0010767,0.0579574,21.0132,6.30566,-0.173064,0.0,0.0
2666,666.25,32.0175,33.3762,134.259,109.164,110.826,0.000761397,0.0578058,21.0159,6.30566,-0.134447,0.0,0.0
2697,674,32.2816,33.0674,136.118,109.126,110.242,0.000480021,0.0573661,21.0171,6.29565,-0.0906394,0.0,0.0
2728,681.75,32.009,33.4067,137.314,109.093,110.923,0.000525795,0.0568452,21.0165,6.29565,-0.148082,0.0,0.0
2759,689.5,32.0696,33.4807,131.575,109.103,110.898,0.000657203,0.0571426,21.0169,6.29565,-0.145309,0.0,0.0
2790,697.25,31.8788,33.2451,141.52,109.086,110.185,0.000376648,0.0571603,21.015,6.29565,-0.0891729,0.0,0.0
2821,705,31.6842,33.5499,136.479,109.076,110.325,0.000243006,0.0573583,21.0175,6.28564,-0.101364,0.0,0.0
2852,712.75,32.2363,32.9473,140.292,109.028,110.114,,0.0572065,,6.30566,-0.0882104,0.0,0.0
2883,720.5,32.0343,32.9403,136.698,108.98,110.074,,,,6.27563,-0.0888626,0.0,0.0
2886,721.25,32.4004,33.48,133.395,108.999,110.58,,,,6.28564,-0.128233,0.0,0.0

File: R13_Fiberglass_Insulation_Cone_HF75Scalar_220429_R3.csv
LABORATORY,FSRI
TEST IDENT,R13Insulation_HF75_3
OPERATOR,Dow
MATERIAL,R13 Fiberglass Insulation (pink)
ORIENTATION,Horizontal
HEAT FLUX,75
SURF AREA,0.01
C FACTOR,0.0414268
SPEC HOLDER DIFF,-566
SPECIMEN MASS,5.49
SCAN TIME,0.25
O2 DELAY TIME,11
CO DELAY TIME,11
CO2 DELAY TIME,8
FLOW FACTOR,1
SCAN COUNT,2887
TIME TO IGN,0
END OF TEST SCAN,2407
END OF TEST TIME,601.75
TEST STATUS,1
PRE TEST CMT,Dimensions: 99.4 x 99.4 x 23.1 mm
POST TEST CMT,Sample gradually shrivelled throughout the test (see post test pictures). No ignition. Test ended after 10 minutes. No mass loss after 10 minutes in replicate R1.

File: R13_Fiberglass_Insulation_Cone_HF75Scan_220429_R3.csv
Names,Time,Stack TC,Smoke TC,Exh Press,Smoke Comp,Smoke Meas,CO Meter,CO2 Meter,O2 Meter,Sample Mass,Ext Coeff,Start Test,Flame Verif
Chan Gain,,500,500,1,1,1,1,1,1,1,1,1.0,1.0
Offset,,0,0,0.13436,0,0,0,0,0,0,0,0.0,0.0
Gain,,1,1,25.011,14.4414,16.1819,1,1,1,1.0009,1.01483,1.0,1.0
Units,sec,C,C,Pa,%,%,%,%,%,g,/m,,
Baseline,,43.6855,45.3003,131.477,110.151,113.58,0.000572249,0.0579774,21.0078,-496.552,-0.272767,,
31,7.5,41.2689,42.2473,127.099,109.9,114.459,0.00289667,0.0756257,20.9886,4.72424,-0.361777,0.0,0.0
62,15.25,42.2277,44.117,127.344,109.887,114.552,0.00319719,0.0753678,20.9861,4.62415,-0.370066,0.0,0.0
93,23,42.9453,44.4186,132.622,109.891,113.794,0.00312846,0.0721167,20.9906,4.55409,-0.310676,0.0,0.0
124,30.75,43.6436,44.9724,131.39,109.921,114.273,0.00252301,0.0688615,20.9928,4.54408,-0.345644,0.0,0.0
155,38.5,44.2015,45.1316,126.33,109.963,114.545,0.00204276,0.0664088,20.9997,4.48402,-0.363389,0.0,0.0
186,46.25,44.1863,45.7952,126.999,109.993,113.675,0.00131042,0.0636322,21.0032,4.53407,-0.293118,0.0,0.0
217,54,44.1509,45.9333,126.582,110.061,113.799,0.000950149,0.0613735,21.0061,4.49403,-0.297296,0.0,0.0
248,61.75,44.3482,46.1956,130.897,110.073,114.94,0.000634921,0.0600863,21.0054,4.48402,-0.385161,0.0,0.0
279,69.5,44.9212,46.7399,129.517,110.091,114.249,0.000558778,0.0597247,21.0042,4.49403,-0.330033,0.0,0.0
310,77.25,44.8283,46.4647,127.701,110.112,114.8,0.000455233,0.0600433,21.0044,4.49403,-0.371085,0.0,0.0
341,85,44.7775,46.4493,126.844,110.127,113.073,0.000261973,0.0590779,21.0075,4.46401,-0.235014,0.0,0.0
372,92.75,45.5819,46.867,128.791,110.153,114.1,0.00056223,0.05891,21.008,4.454,-0.313453,0.0,0.0
403,100.5,45.3778,47.3977,127.5,110.175,114.732,0.000350776,0.0585972,21.008,4.49403,-0.360781,0.0,0.0
434,108.25,45.4346,47.8044,129.058,110.222,114.421,0.000347485,0.0583966,21.0089,4.48402,-0.332872,0.0,0.0
465,116,45.634,47.572,131.759,110.249,113.649,0.000597763,0.058487,21.0066,4.44399,-0.270375,0.0,0.0
496,123.75,45.818,47.7322,132.975,110.277,114.095,0.000405486,0.0582351,21.0073,4.43398,-0.302994,0.0,0.0
527,131.5,45.6062,47.4242,130.884,110.299,114.638,0.0006416,0.058318,21.0104,4.46401,-0.343495,0.0,0.0
558,139.25,45.9967,47.605,130.655,110.312,113.882,0.000231833,0.0583698,21.0093,4.43398,-0.283562,0.0,0.0
589,147,45.9227,47.6736,128.574,110.323,114.655,0.000357528,0.0583005,21.0075,4.41396,-0.342843,0.0,0.0
620,154.75,45.7623,47.8083,130.117,110.345,115.738,0.000217667,0.0586174,21.0064,4.43398,-0.424789,0.0,0.0
651,162.5,46.0145,48.262,129.118,110.344,115.169,0.000368764,0.0583618,21.0084,4.43398,-0.380961,0.0,0.0
682,170.25,46.3156,47.8718,129.091,110.343,114.845,0.000527104,0.0583651,21.0085,4.42397,-0.355993,0.0,0.0
713,178,45.7089,48.0634,128.976,110.334,114.721,0.000694344,0.0581541,21.0091,4.42397,-0.347128,0.0,0.0
744,185.75,46.1988,48.0976,127.708,110.323,114.625,0.000607888,0.0583003,21.0101,4.41396,-0.340539,0.0,0.0
775,193.5,46.6779,48.0409,130.752,110.314,114.845,0.000476592,0.0583531,21.0102,4.40395,-0.358303,0.0,0.0
806,201.25,46.6707,47.979,129.088,110.283,114.531,0.000665937,0.0580811,21.0088,4.38393,-0.336451,0.0,0.0
837,209,46.6296,48.3856,129.555,110.26,114.167,0.000510837,0.0580977,21.0091,4.42397,-0.310002,0.0,0.0
868,216.75,46.5711,48.5227,130.857,110.203,114.098,0.000570946,0.0578984,21.0109,4.39394,-0.309165,0.0,0.0
899,224.5,45.9897,48.3525,132.094,110.131,115.056,0.000660142,0.0576553,21.0103,4.39394,-0.389443,0.0,0.0
930,232.25,46.3337,48.4949,131.709,110.051,114.838,0.000465531,0.0573307,21.0114,4.40395,-0.379025,0.0,0.0
961,240,46.254,48.4196,131.067,109.974,113.619,0.000175799,0.057511,21.0115,4.39394,-0.290283,0.0,0.0
992,247.75,46.0977,48.2783,128.029,109.893,114.665,0.000275575,0.0574877,21.0101,4.37393,-0.378388,0.0,0.0
1023,255.5,46.2108,48.5589,132.032,109.835,113.485,0.000316707,0.0576837,21.0103,4.39394,-0.291033,0.0,0.0
1054,263.25,46.6961,48.354,131.203,109.721,114.029,0.000595014,0.0577198,21.0127,4.38393,-0.342766,0.0,0.0
1085,271,46.761,48.7718,129.456,109.631,113.77,0.000366961,0.0576343,21.0124,4.37393,-0.329875,0.0,0.0
1116,278.75,46.2337,48.1533,131.07,109.51,113.455,0.000621975,0.057689,21.0136,4.36392,-0.314999,0.0,0.0
1147,286.5,46.6618,48.6432,130.431,109.355,113.751,0.000634918,0.0578238,21.0131,4.37393,-0.350798,0.0,0.0
1178,294.25,45.9001,48.4041,129.14,109.194,113.334,0.000507118,0.0577133,21.0136,4.38393,-0.331263,0.0,0.0
1209,302,46.7432,48.7037,127.338,109.048,113.202,0.000758315,0.0576854,21.0144,4.38393,-0.332799,0.0,0.0
1240,309.75,46.9246,48.8553,128.588,109.179,113.254,0.000476585,0.0576882,21.0145,4.37393,-0.326196,0.0,0.0
1271,317.5,46.7768,49.355,127.975,109.127,112.562,-0.000127452,0.0576337,21.0114,4.38393,-0.275853,0.0,0.0
1302,325.25,46.571,48.2676,132.677,109.004,113.31,0.00019857,0.0575138,21.0123,4.37393,-0.344895,0.0,0.0
1333,333,46.5129,48.9374,126.634,108.865,113.372,0.000371502,0.0574912,21.0103,4.36392,-0.36109,0.0,0.0
1364,340.75,46.9056,48.8214,130.623,108.776,112.663,0.000570508,0.057437,21.0118,4.41396,-0.312555,0.0,0.0
1395,348.5,46.7566,49.0622,129.785,108.696,113.024,0.000429987,0.0574846,21.0113,4.38393,-0.3476,0.0,0.0
1426,356.25,46.5514,48.6038,129.925,108.632,113.738,0.00021133,0.0572923,21.0106,4.35391,-0.408862,0.0,0.0
1457,364,46.7676,48.8245,131.03,108.574,112.286,0.000275238,0.057302,21.0105,4.40395,-0.299228,0.0,0.0
1488,371.75,46.6898,49.3365,131.8,108.527,111.84,0.00030984,0.0572907,21.0111,4.37393,-0.267711,0.0,0.0
1519,379.5,46.5565,48.5336,128.972,108.491,113.063,0.000193865,0.0574831,21.0121,4.37393,-0.367396,0.0,0.0
1550,387.25,46.7008,48.9679,132.002,108.497,112.262,0.000535428,0.0574211,21.0101,4.39394,-0.303634,0.0,0.0
1581,395,46.8934,48.7867,131.18,108.521,112.656,0.00015872,0.0575228,21.01,4.35391,-0.332953,0.0,0.0
1612,402.75,47.0267,48.8414,132.679,108.565,113.367,0.000146785,0.0576467,21.0096,4.38393,-0.385314,0.0,0.0
1643,410.5,46.8407,48.983,130.58,108.614,113.724,0.000237001,0.0576413,21.0106,4.37393,-0.409299,0.0,0.0
1674,418.25,46.853,49.0443,131.288,108.655,112.977,1.75531e-05,0.0576846,21.0111,4.38393,-0.347297,0.0,0.0
1705,426,46.8175,49.034,128.888,108.695,112.509,0.000296544,0.0578604,21.0106,4.35391,-0.307011,0.0,0.0
1736,433.75,47.1862,49.2291,128.061,108.738,112.408,0.00014365,0.0578775,21.0096,4.36392,-0.295536,0.0,0.0
1767,441.5,47.037,49.0268,129.963,108.833,113.223,0.000551823,0.0577782,21.0104,4.35391,-0.352079,0.0,0.0
1798,449.25,46.9891,48.7521,130.136,108.921,113.242,0.000493685,0.0577283,21.0092,4.39394,-0.346347,0.0,0.0
1829,457,46.4052,48.9736,132.602,109.066,113.148,0.000624069,0.0577197,21.0079,4.39394,-0.32705,0.0,0.0
1860,464.75,47.0015,49.1288,131.78,109.156,112.781,0.000551478,0.0578771,21.0077,4.35391,-0.290837,0.0,0.0
1891,472.5,46.9808,49.0742,128.442,109.264,113.371,0.000629242,0.0580517,21.008,4.35391,-0.328422,0.0,0.0
1922,480.25,47.1116,49.1025,130.973,109.335,113.528,0.000225417,0.0577279,21.0104,4.38393,-0.335004,0.0,0.0
1953,488,47.0168,48.8035,126.774,109.402,114.59,0.00048791,0.057951,21.009,4.36392,-0.412454,0.0,0.0
1984,495.75,46.5634,48.724,130.444,109.459,113.583,0.00062759,0.0578906,21.0068,4.38393,-0.329185,0.0,0.0
2015,503.5,46.9346,48.9882,130.368,109.522,114.092,0.000216866,0.0579006,21.0066,4.39394,-0.363915,0.0,0.0
2046,511.25,47.3097,49.0829,128.194,109.596,113.59,0.00026159,0.0577182,21.0079,4.36392,-0.318624,0.0,0.0
2077,519,47.135,49.3292,130.382,109.658,113.183,0.000314241,0.0579284,21.0077,4.38393,-0.281633,0.0,0.0
2108,526.75,47.0068,49.3403,133.047,109.729,114.34,0.000484404,0.058109,21.0093,4.3439,-0.366488,0.0,0.0
2139,534.5,47.2115,49.0379,127.799,109.763,113.57,0.000534934,0.0583088,21.0086,4.36392,-0.303556,0.0,0.0
2170,542.25,47.092,49.0326,129.881,109.81,114.631,0.000444786,0.0580925,21.0091,4.36392,-0.382493,0.0,0.0
2201,550,47.1523,49.0293,131.586,109.838,113.242,0.000140208,0.05808,21.0086,4.3439,-0.271707,0.0,0.0
2232,557.75,46.6842,48.9485,128.202,109.858,114.929,8.8094e-05,0.0581547,21.0086,4.37393,-0.401694,0.0,0.0
2263,565.5,47.0661,49.3744,130.284,109.855,114.335,0.000396885,0.05813,21.0086,4.35391,-0.355847,0.0,0.0
2294,573.25,47.1761,49.192,131.007,109.857,114.291,0.000576254,0.0589701,21.0093,4.42397,-0.352282,0.0,0.0
2325,581,47.2917,49.4441,129.043,109.846,113.737,0.000370762,0.0605639,21.0087,4.36392,-0.309839,0.0,0.0
2356,588.75,47.0787,48.7099,130.268,109.829,113.632,0.000522999,0.0601226,21.0093,4.37393,-0.302998,0.0,0.0
2387,596.5,47.2085,49.155,131.88,109.825,114.443,0.000848796,0.0598114,21.008,4.36392,-0.366728,0.0,0.0
2418,604.25,45.674,47.9392,131.152,109.826,114.206,0.000313088,0.0592326,21.0076,4.38393,-0.348199,0.0,0.0
2449,612,45.4164,47.5781,128.866,109.818,113.992,0.000464716,0.0595688,21.0065,4.42397,-0.332085,0.0,0.0
2480,619.75,45.5711,47.3177,127.434,109.811,113.683,0.00011981,0.0588975,21.0075,4.40395,-0.308557,0.0,0.0
2511,627.5,44.9138,47.4396,129.88,109.813,114.454,9.50189e-05,0.0584461,21.0068,4.39394,-0.368502,0.0,0.0
2542,635.25,45.2808,47.3877,131.136,109.827,113.805,0.00041167,0.0584455,21.0065,4.38393,-0.316743,0.0,0.0
2573,643,45.08,47.5167,128.4,109.827,114.249,0.000651541,0.0586503,21.0063,4.40395,-0.351405,0.0,0.0
2604,650.75,45.4489,47.2625,133.122,109.829,113.867,0.000450817,0.0586327,21.0066,4.38393,-0.321392,0.0,0.0
2635,658.5,45.9918,47.464,131.82,109.845,113.165,0.000409545,0.0584476,21.0066,4.38393,-0.265114,0.0,0.0
2666,666.25,45.8188,47.6409,129.595,109.833,113.506,0.000192457,0.0585254,21.0082,4.40395,-0.292806,0.0,0.0
2697,674,45.1955,47.3604,125.205,109.828,113.885,0.000293749,0.058286,21.0092,4.37393,-0.32293,0.0,0.0
2728,681.75,45.084,47.1635,134.099,109.815,115.216,0.00034459,0.058217,21.0088,4.40395,-0.42739,0.0,0.0
2759,689.5,45.561,47.4175,129.626,109.786,114.381,0.000216702,0.0581034,21.0086,4.37393,-0.364996,0.0,0.0
2790,697.25,44.9316,47.2689,136.131,109.798,114.681,0.000495545,0.0582499,21.0065,4.39394,-0.387368,0.0,0.0
2821,705,45.3289,46.8565,129.176,109.751,114.294,0.000506183,0.0587397,21.0071,4.37393,-0.361089,0.0,0.0
2852,712.75,45.4349,47.3791,134.634,109.705,113.559,,0.0591175,,4.40395,-0.307425,0.0,0.0
2883,720.5,45.5027,47.1355,129.368,109.695,114.104,,,,4.41396,-0.350806,0.0,0.0
2887,721.5,45.2957,46.9095,130.558,109.703,113.35,,,,4.37393,-0.291139,0.0,0.0