Folder: fsri_materials_database/01_Data/R13_Fiberglass_Insulation/Cone

Note: 01_Data/README.md
# Materials and Products Database
## 01_Data

Raw data generated from each apparatus are included here in plain-text format. The data is organized first by material, next by the short name of test apparatus used, and where applicable additional filtering by test settings.

### material.json

Each material directory contains a json file of the same name as the material. This file links the data stored in the repository as well as data and graphs produced by the accompanying scripts (__02_Scripts__) to the respective landing page for the material on the front-end website.

File: R13_Fiberglass_Insulation_Cone_HF25Scalar_220429_R1.csv
LABORATORY,FSRI
TEST IDENT,R13Insulation_HF25_1
OPERATOR,Dow
MATERIAL,R13 Fiberglass Insulation (pink)
ORIENTATION,Horizontal
HEAT FLUX,25
SURF AREA,0.01
C FACTOR,0.0411223
SPEC HOLDER DIFF,-566
SPECIMEN MASS,6.29
SCAN TIME,0.25
O2 DELAY TIME,11
CO DELAY TIME,11
CO2 DELAY TIME,8
FLOW FACTOR,1
SCAN COUNT,7716
TIME TO IGN,0
END OF TEST SCAN,7236
END OF TEST TIME,1809
TEST STATUS,1
PRE TEST CMT,Dimensions: 98.7 x 98.2 x 31.4 mm
POST TEST CMT,No ignition. Test ended after 30 minutes.

File: R13_Fiberglass_Insulation_Cone_HF25Scalar_220429_R3.csv
LABORATORY,FSRI
TEST IDENT,R13Insulation_HF25_3
OPERATOR,Dow
MATERIAL,R13 Fiberglass Insulation (pink)
ORIENTATION,Horizontal
HEAT FLUX,25
SURF AREA,0.01
C FACTOR,0.0411223
SPEC HOLDER DIFF,-566
SPECIMEN MASS,7.34
SCAN TIME,0.25
O2 DELAY TIME,11
CO DELAY TIME,11
CO2 DELAY TIME,8
FLOW FACTOR,1
SCAN COUNT,2885
TIME TO IGN,0
END OF TEST SCAN,2405
END OF TEST TIME,601.25
TEST STATUS,1
PRE TEST CMT,Dimensions: 99.2 x 99.6 x 31.4 mm
POST TEST CMT,No ignition. Test ended after 10 minutes. No mass loss after 10 minutes in replicate R1.

File: R13_Fiberglass_Insulation_Cone_HF25Scan_220429_R1.csv
Names,Time,Stack TC,Smoke TC,Exh Press,Smoke Comp,Smoke Meas,CO Meter,CO2 Meter,O2 Meter,Sample Mass,Ext Coeff,Start Test,Flame Verif
Chan Gain,,500,500,1,1,1,1,1,1,1,1,1.0,1.0
Offset,,0,0,0.134537,0,0,0,0,0,0,0,0.0,0.0
Gain,,1,1,25.011,14.8585,16.6522,1,1,1,1.00087,1.0138,1.0,1.0
Units,sec,C,C,Pa,%,%,%,%,%,g,/m,,
Baseline,,18.0014,18.5599,141.46,110.998,111.364,0.000380512,0.0549247,21.0062,-833.728,-0.0293333,,
84,20.75,17.4604,18.1158,139.92,111.086,111.669,0.000154973,0.055849,21.0064,-338.463,-0.0465878,0.0,0.0
168,41.75,19.1257,19.1697,139.252,111.485,111.848,0.000398916,0.0542553,21.0129,-338.533,-0.028935,0.0,0.0
252,62.75,18.7354,19.3355,137.427,111.702,112.038,0.000139803,0.0540517,21.0116,-338.583,-0.0267246,0.0,0.0
336,83.75,18.7526,19.6836,138.978,111.77,112.477,0.000589143,0.0537269,21.0131,-338.634,-0.0560546,0.0,0.0
420,104.75,18.9532,19.7233,139.653,111.82,112.379,0.000215426,0.0531871,21.0134,-338.654,-0.0443687,0.0,0.0
504,125.75,19.4638,19.7948,140.781,111.777,112.541,0.000254638,0.0527633,21.0131,-338.664,-0.0606143,0.0,0.0
588,146.75,19.8413,20.3346,138.665,111.7,112.539,8.40788e-05,0.0530841,21.0123,-338.664,-0.066513,0.0,0.0
672,167.75,19.5869,20.3474,138.336,111.564,112.177,0.000143025,0.0526524,21.0125,-338.694,-0.0487114,0.0,0.0
756,188.75,20.4277,20.3564,138.162,111.444,112.019,0.000284547,0.0528092,21.013,-338.684,-0.0457971,0.0,0.0
840,209.75,19.7186,20.6095,140.108,111.262,111.857,0.000182765,0.0525956,21.0136,-338.714,-0.047435,0.0,0.0
924,230.75,19.5661,20.4525,138.386,111.749,112.33,0.000304933,0.052704,21.0134,-338.724,-0.0461343,0.0,0.0
1008,251.75,19.966,20.5745,141.182,112.035,112.607,0.000443466,0.0526649,21.0126,-338.714,-0.0452936,0.0,0.0
1092,272.75,19.9207,20.5839,141.452,112.225,112.856,0.000252839,0.0525378,21.0125,-338.714,-0.0498691,0.0,0.0
1176,293.75,19.8605,20.4144,141.343,112.202,112.82,0.000159966,0.0527494,21.014,-338.724,-0.0487823,0.0,0.0
1260,314.75,19.9381,20.7834,141.745,111.906,112.447,0.000332183,0.0524981,21.0142,-338.724,-0.0428698,0.0,0.0
1344,335.75,20.054,21.254,139.032,111.735,112.438,1.45127e-05,0.0523058,21.0132,-338.734,-0.0557826,0.0,0.0
1428,356.75,20.4702,21.0603,137.318,111.922,112.464,0.000203904,0.0523775,21.0123,-338.754,-0.0429358,0.0,0.0
1512,377.75,19.8385,21.1796,139.816,112.172,112.476,-0.000100479,0.0526576,21.0139,-338.744,-0.02403,0.0,0.0
1596,398.75,19.9714,21.0047,140.274,112.427,113.221,0.000408223,0.0523883,21.0152,-338.754,-0.0625588,0.0,0.0
1680,419.75,20.5447,21.0165,139.197,112.599,113.514,0.00018563,0.0522354,21.0131,-338.764,-0.0719769,0.0,0.0
1764,440.75,20.4036,21.3865,140.724,112.643,113.09,0.00012919,0.0521023,21.0141,-338.754,-0.0352379,0.0,0.0
1848,461.75,20.4215,21.092,139.965,112.557,113.182,6.32149e-05,0.0519216,21.0123,-338.754,-0.0492369,0.0,0.0
1932,482.75,20.447,21.2433,140.867,112.35,112.865,7.60982e-05,0.0541373,21.0131,-338.764,-0.0406741,0.0,0.0
2016,503.75,21.0427,21.5371,138.61,111.983,112.499,-3.07861e-05,0.052455,21.0135,-338.784,-0.0409211,0.0,0.0
2100,524.75,20.2416,21.1731,136.469,111.366,112.069,4.09186e-05,0.0525235,21.0165,-338.774,-0.0559756,0.0,0.0
2184,545.75,20.78,21.4564,140.033,110.937,111.643,0.000201461,0.0523158,21.0129,-338.784,-0.0563981,0.0,0.0
2268,566.75,20.1325,20.879,141.166,110.799,111.413,0.000157431,0.0522139,21.016,-338.784,-0.0491757,0.0,0.0
2352,587.75,20.493,21.6047,139.084,110.68,111.651,0.000224478,0.0521548,21.0158,-338.794,-0.0776794,0.0,0.0
2436,608.75,20.5987,21.8058,137.624,110.551,111.031,0.000167631,0.0520997,21.0143,-338.804,-0.038514,0.0,0.0
2520,629.75,20.6959,21.1707,138.759,110.505,111.054,8.19464e-06,0.0520183,21.0143,-338.794,-0.0440704,0.0,0.0
2604,650.75,20.5418,21.464,140.271,110.522,111.163,0.000262967,0.0522571,21.0143,-338.794,-0.0514247,0.0,0.0
2688,671.75,20.7548,21.3842,141.289,110.568,111.376,9.79972e-05,0.0517819,21.0154,-338.794,-0.0647994,0.0,0.0
2772,692.75,20.9923,21.5458,141.332,110.688,111.327,0.000138136,0.0517213,21.0138,-338.804,-0.0511256,0.0,0.0
2856,713.75,21.0307,21.9191,137.886,110.855,111.446,0.000250448,0.0519651,21.018,-338.804,-0.0473002,0.0,0.0
2940,734.75,20.9364,21.6825,139.303,111.071,111.595,0.000223449,0.0517364,21.018,-338.804,-0.0418797,0.0,0.0
3024,755.75,21.0366,21.3399,139.252,111.33,112.034,9.73758e-05,0.0518459,21.0168,-338.794,-0.0560941,0.0,0.0
3108,776.75,20.5681,21.6176,139.777,111.496,112.026,9.0487e-05,0.0518858,21.0185,-338.814,-0.0421657,0.0,0.0
3192,797.75,21.1475,21.8965,142.234,111.666,112.076,0.000303284,0.0516534,21.0168,-338.814,-0.032561,0.0,0.0
3276,818.75,21.1819,21.3017,141.709,111.816,112.445,0.000408051,0.0518599,21.0163,-338.824,-0.049843,0.0,0.0
3360,839.75,20.8631,21.738,136.633,111.891,112.701,-0.000121629,0.051961,21.0132,-338.784,-0.0640915,0.0,0.0
3444,860.75,21.1075,21.7291,141.81,111.956,112.618,-0.00012496,0.0521336,21.0137,-338.814,-0.0524009,0.0,0.0
3528,881.75,20.7,21.3931,141.477,111.988,112.934,0.000107676,0.0530455,21.0137,-338.814,-0.0748101,0.0,0.0
3612,902.75,21.0307,21.713,140.746,112.003,112.554,0.000231481,0.0524093,21.0166,-338.814,-0.0436384,0.0,0.0
3696,923.75,21.0278,21.4281,142.985,111.981,112.586,0.000293945,0.0531057,21.016,-338.784,-0.047968,0.0,0.0
3780,944.75,21.2844,21.0796,141.179,111.964,112.64,2.55849e-05,0.0560022,21.0117,-338.834,-0.0534786,0.0,0.0
3864,965.75,21.1188,21.5434,144.078,111.94,112.467,-6.54098e-06,0.0536216,21.0124,-338.834,-0.0417716,0.0,0.0
3948,986.75,20.9799,21.7486,141.141,111.958,112.452,0.000422721,0.052898,21.0179,-338.794,-0.0391252,0.0,0.0
4032,1007.75,20.9951,21.6213,142.798,111.908,112.582,0.000240045,0.0522218,21.0156,-338.834,-0.0534098,0.0,0.0
4116,1028.75,21.0575,21.3653,140.703,111.881,112.403,-9.0994e-05,0.0518317,21.0179,-338.824,-0.0414313,0.0,0.0
4200,1049.75,21.1506,21.4735,138.392,111.819,112.164,0.000203224,0.0518514,21.0147,-338.834,-0.0273733,0.0,0.0
4284,1070.75,21.0694,22.0427,140.938,111.748,112.422,6.70579e-05,0.0515654,21.0186,-338.824,-0.053486,0.0,0.0
4368,1091.75,19.9878,21.9095,139.141,111.652,112.032,0.000104137,0.0517267,21.0144,-338.834,-0.0301763,0.0,0.0
4452,1112.75,20.9047,21.437,135.86,111.545,112.145,-0.000194558,0.0519705,21.0165,-338.844,-0.0477313,0.0,0.0
4536,1133.75,21.0889,21.7485,142.028,111.423,111.858,0.000259563,0.0518009,21.0174,-338.844,-0.0346993,0.0,0.0
4620,1154.75,21.1161,21.4619,141.143,111.392,112.022,-0.000166322,0.0518961,21.0177,-338.834,-0.0501612,0.0,0.0
4704,1175.75,21.2712,21.7139,136.78,111.766,112.375,-8.24564e-05,0.0518085,21.0142,-338.834,-0.0483799,0.0,0.0
4788,1196.75,21.0638,21.4945,140.836,111.996,112.605,6.25029e-05,0.0518621,21.0154,-338.834,-0.0481886,0.0,0.0
4872,1217.75,21.6546,22.2563,139.279,112.153,112.849,1.36088e-05,0.0517996,21.0139,-338.824,-0.0549473,0.0,0.0
4956,1238.75,20.3023,21.6339,137.799,112.318,113.074,-0.000309082,0.0518264,21.0154,-338.834,-0.0596281,0.0,0.0
5040,1259.75,21.448,22.8358,143.23,112.423,113.061,0.000208705,0.0517618,21.0162,-338.874,-0.050263,0.0,0.0
5124,1280.75,21.2658,22.0328,136.753,112.328,113.015,0.00027225,0.0517232,21.0161,-338.834,-0.0542374,0.0,0.0
5208,1301.75,21.0923,22.0686,138.915,112.21,112.692,-0.000126338,0.0516464,21.0148,-338.824,-0.0381105,0.0,0.0
5292,1322.75,20.9948,21.8969,138.775,112.085,113.018,-0.000115245,0.0515342,21.0154,-338.834,-0.07374,0.0,0.0
5376,1343.75,20.9031,21.8083,139.412,111.876,112.495,0.000218036,0.0515759,21.0152,-338.844,-0.0490621,0.0,0.0
5460,1364.75,21.5426,21.4926,141.931,111.991,112.546,8.61176e-05,0.051527,21.0149,-338.844,-0.0440038,0.0,0.0
5544,1385.75,21.0938,21.4865,138.247,112.106,112.732,-1.1682e-05,0.0515017,21.0133,-338.834,-0.0495477,0.0,0.0
5628,1406.75,21.1045,21.9717,143.619,112.225,112.829,2.2753e-05,0.0513547,21.0136,-338.834,-0.0477457,0.0,0.0
5712,1427.75,21.1297,22.2651,140.361,112.37,112.893,0.000200482,0.0515181,21.0158,-338.844,-0.0413003,0.0,0.0
5796,1448.75,21.2931,22.186,141.041,112.451,112.881,0.000198266,0.0514426,21.015,-338.844,-0.0339145,0.0,0.0
5880,1469.75,21.3031,21.9913,145.516,112.589,113.127,-3.2885e-05,0.0512996,21.0186,-338.854,-0.042416,0.0,0.0
5964,1490.75,21.2058,21.456,140.061,112.695,113.538,-0.000299715,0.0515892,21.0134,-338.844,-0.0662631,0.0,0.0
6048,1511.75,21.6095,21.9006,137.513,112.785,113.319,0.000266462,0.0513483,21.0178,-338.844,-0.0420086,0.0,0.0
6132,1532.75,21.004,21.8168,138.023,112.8,113.48,-0.000249943,0.0512722,21.0162,-338.854,-0.0534583,0.0,0.0
6216,1553.75,21.3403,22.1225,142.542,112.793,113.307,0.000321983,0.0513849,21.0162,-338.834,-0.0404445,0.0,0.0
6300,1574.75,21.3262,21.5309,135.687,112.704,113.217,6.66521e-05,0.0514603,21.0169,-338.844,-0.0403514,0.0,0.0
6384,1595.75,21.0988,21.9494,141.507,112.62,113.297,0.000114056,0.0514694,21.0161,-338.854,-0.0533133,0.0,0.0
6468,1616.75,21.047,21.7309,139.813,112.454,112.931,0.000285524,0.0513509,21.0152,-338.844,-0.0376617,0.0,0.0
6552,1637.75,20.9457,21.9752,137.073,112.283,112.773,2.88754e-05,0.0514739,21.015,-338.844,-0.0387402,0.0,0.0
6636,1658.75,21.0335,21.9948,139.456,111.998,112.841,-1.55201e-05,0.0513997,21.0167,-338.854,-0.0667272,0.0,0.0
6720,1679.75,21.2773,21.7731,138.194,111.632,112.297,8.73701e-05,0.0514585,21.0167,-338.844,-0.0527939,0.0,0.0
6804,1700.75,20.9306,22.2223,139.055,111.396,112.288,0.000130694,0.0513801,21.0167,-338.854,-0.070913,0.0,0.0
6888,1721.75,21.0754,21.8351,139.362,111.125,111.841,0.000323863,0.0514189,21.0166,-338.834,-0.0571754,0.0,0.0
6972,1742.75,21.5603,21.7604,138.914,110.875,111.783,-0.000146723,0.051777,21.0166,-338.854,-0.072585,0.0,0.0
7056,1763.75,21.5208,21.7027,141.19,110.775,111.497,0.000238514,0.0529367,21.0144,-338.854,-0.057759,0.0,0.0
7140,1784.75,21.153,22.0611,141.635,110.768,111.723,0.000105946,0.0523892,21.0158,-338.844,-0.0763604,0.0,0.0
7224,1805.75,21.3483,21.6879,140.252,110.741,111.462,0.000337199,0.0522329,21.0158,-338.854,-0.0577334,0.0,0.0
7308,1826.75,20.6554,22.0197,140.574,110.734,111.454,4.53762e-05,0.0531266,21.0148,-338.844,-0.0576304,0.0,0.0
7392,1847.75,20.8922,21.7229,138.792,110.714,111.066,0.000146592,0.0521428,21.0149,-338.844,-0.0281995,0.0,0.0
7476,1868.75,20.9095,21.1931,142.096,110.727,111.214,0.000158477,0.0517815,21.0177,-338.864,-0.0390533,0.0,0.0
7560,1889.75,20.6329,21.5714,133.358,110.71,111.53,0.000223408,0.0517628,21.0152,-338.844,-0.0656367,0.0,0.0
7644,1910.75,20.7069,21.2406,138.751,110.709,111.31,0.000100325,0.0516505,21.0142,-338.864,-0.0481502,0.0,0.0
7716,1928.75,20.8321,21.3203,139.617,110.727,111.431,,,,-338.874,-0.0563112,0.0,0.0

File: R13_Fiberglass_Insulation_Cone_HF25Scan_220429_R3.csv
Names,Time,Stack TC,Smoke TC,Exh Press,Smoke Comp,Smoke Meas,CO Meter,CO2 Meter,O2 Meter,Sample Mass,Ext Coeff,Start Test,Flame Verif
Chan Gain,,500,500,1,1,1,1,1,1,1,1,1.0,1.0
Offset,,0,0,0.134537,0,0,0,0,0,0,0,0.0,0.0
Gain,,1,1,25.011,14.8585,16.6522,1,1,1,1.00087,1.0138,1.0,1.0
Units,sec,C,C,Pa,%,%,%,%,%,g,/m,,
Baseline,,21.1813,21.7817,140.204,111.915,112.968,0.000424568,0.0527724,21.0111,-834.069,-0.0832631,,
31,7.5,19.5626,19.965,135.125,112.333,113.277,0.000525243,0.0623195,21.0045,-329.285,-0.0744525,0.0,0.0
62,15.25,19.8694,20.1549,137.977,112.346,113.653,0.000198859,0.0538671,21.0138,-329.365,-0.10281,0.0,0.0
93,23,20.1282,20.0872,139.792,112.353,113.744,0.000366578,0.0523123,21.0172,-329.405,-0.109462,0.0,0.0
124,30.75,20.1188,20.2691,140.729,112.358,113.75,0.000149457,0.0519443,21.0192,-329.426,-0.109508,0.0,0.0
155,38.5,20.1753,20.4773,138.791,112.363,113.441,0.000240072,0.0516563,21.0195,-329.446,-0.084924,0.0,0.0
186,46.25,20.3689,21.0411,136.983,112.358,113.667,0.000609981,0.0514874,21.0171,-329.486,-0.10299,0.0,0.0
217,54,20.6225,21.2112,137.751,112.377,113.852,0.000285729,0.0512898,21.0165,-329.506,-0.115943,0.0,0.0
248,61.75,20.4296,20.8363,139.355,112.385,113.619,7.60896e-05,0.0512416,21.0159,-329.506,-0.0971338,0.0,0.0
279,69.5,20.9887,21.2784,139.884,112.388,113.529,0.000125176,0.0511625,21.0151,-329.526,-0.0898,0.0,0.0
310,77.25,20.9275,21.102,141.232,112.373,113.583,0.0001196,0.0512325,21.0151,-329.536,-0.095283,0.0,0.0
341,85,20.7537,21.4286,137.172,112.378,113.538,9.48163e-05,0.0511997,21.0168,-329.536,-0.0913819,0.0,0.0
372,92.75,20.5245,21.5605,136.939,112.369,113.709,0.000509871,0.051296,21.0151,-329.556,-0.105427,0.0,0.0
403,100.5,21.0508,21.9273,137.49,112.36,114.248,0.00016797,0.0514219,21.0144,-329.556,-0.148179,0.0,0.0
434,108.25,20.9299,21.8155,139.532,112.359,113.755,-0.00014312,0.0514373,21.0133,-329.566,-0.109798,0.0,0.0
465,116,21.402,22.0963,138.907,112.362,113.802,-0.000125308,0.0514659,21.0143,-329.566,-0.113276,0.0,0.0
496,123.75,21.0342,21.7621,144.967,112.346,113.443,-1.11914e-05,0.0510738,21.0144,-329.596,-0.0864081,0.0,0.0
527,131.5,21.1351,22.2116,138.312,112.31,113.336,0.00015767,0.0512398,21.0133,-329.586,-0.0808375,0.0,0.0
558,139.25,21.0547,21.9721,134.922,112.271,113.722,-9.5194e-05,0.051332,21.0147,-329.586,-0.11414,0.0,0.0
589,147,21.3344,21.9333,139.058,112.218,113.717,0.00035377,0.0513179,21.015,-329.596,-0.117982,0.0,0.0
620,154.75,21.1835,22.0705,137.682,112.168,113.404,0.000541453,0.0511123,21.015,-329.606,-0.0974569,0.0,0.0
651,162.5,21.0205,22.038,140.516,112.123,113.477,0.000146375,0.0507851,21.013,-329.596,-0.106718,0.0,0.0
682,170.25,21.4831,21.8637,137.444,112.07,113.949,0.00014078,0.0508611,21.0137,-329.596,-0.147923,0.0,0.0
713,178,21.0822,22.4527,142.944,112.017,113.506,0.00033928,0.0508148,21.0127,-329.606,-0.117371,0.0,0.0
744,185.75,21.2542,21.9819,140.991,111.964,112.968,0.000200694,0.0510875,21.0175,-329.616,-0.0793912,0.0,0.0
775,193.5,21.5484,22.1275,139.809,111.939,112.938,0.000175439,0.0510563,21.0166,-329.616,-0.0789756,0.0,0.0
806,201.25,21.4511,22.0348,138.157,111.899,113.339,-0.000116662,0.0510964,21.0148,-329.616,-0.113703,0.0,0.0
837,209,21.4507,21.6417,139.971,111.882,113.282,6.36221e-05,0.0508554,21.0142,-329.616,-0.110605,0.0,0.0
868,216.75,21.3477,22.3406,137.214,111.87,113.27,0.000143981,0.0508661,21.0159,-329.626,-0.110625,0.0,0.0
899,224.5,21.348,21.9954,140.151,111.897,113.273,0.00010088,0.05083,21.0157,-329.606,-0.108662,0.0,0.0
930,232.25,21.6603,22.1863,141.547,111.895,113.592,-5.27346e-05,0.0507414,21.0157,-329.616,-0.133862,0.0,0.0
961,240,21.5072,22.253,137.979,111.888,113.136,-4.62675e-05,0.0508183,21.0137,-329.626,-0.098644,0.0,0.0
992,247.75,21.566,22.2314,139.955,111.854,113,-0.000191978,0.0508992,21.0147,-329.626,-0.0906353,0.0,0.0
1023,255.5,21.7262,22.1143,141.202,111.821,113.33,7.84991e-05,0.0508548,21.0137,-329.636,-0.119185,0.0,0.0
1054,263.25,21.6913,22.39,138.813,111.782,112.838,0.0001906,0.0509106,21.0136,-329.636,-0.0836023,0.0,0.0
1085,271,21.5937,22.6834,139.038,111.752,113.093,-1.5992e-05,0.0508109,21.0129,-329.636,-0.106102,0.0,0.0
1116,278.75,21.4566,22.3085,137.298,111.717,113.215,0.000169842,0.0507554,21.0124,-329.616,-0.118467,0.0,0.0
1147,286.5,21.458,21.9735,140.725,111.818,113.105,5.2373e-05,0.0506204,21.0147,-329.636,-0.101755,0.0,0.0
1178,294.25,21.3736,22.1514,140.305,111.93,113.251,0.000205639,0.0507683,21.0144,-329.646,-0.104316,0.0,0.0
1209,302,21.8154,22.2746,139.452,112.086,113.685,-2.58618e-05,0.0507363,21.0141,-329.646,-0.125905,0.0,0.0
1240,309.75,21.5139,22.3158,139.545,112.214,113.687,-0.000290265,0.0508463,21.0142,-329.646,-0.115924,0.0,0.0
1271,317.5,21.7877,22.5243,140.853,112.339,113.378,0.000207775,0.0510004,21.0142,-329.646,-0.0818854,0.0,0.0
1302,325.25,21.3557,22.6048,139.069,112.467,113.637,-0.000127847,0.0507836,21.0135,-329.646,-0.0920347,0.0,0.0
1333,333,21.6187,22.7099,140.305,112.556,113.652,6.75757e-05,0.0507992,21.0144,-329.656,-0.0862026,0.0,0.0
1364,340.75,21.626,22.8944,141.765,112.618,113.977,-2.167e-06,0.0506058,21.0162,-329.646,-0.106673,0.0,0.0
1395,348.5,21.8184,22.6337,144.108,112.667,113.819,7.72974e-06,0.0505995,21.0136,-329.646,-0.0904661,0.0,0.0
1426,356.25,21.7771,22.3288,140.718,112.68,113.806,5.42062e-05,0.0506593,21.0164,-329.666,-0.0883957,0.0,0.0
1457,364,21.4653,22.2506,140.229,112.689,114.099,3.18504e-06,0.0511521,21.0148,-329.656,-0.110595,0.0,0.0
1488,371.75,21.544,22.6474,140.382,112.695,114.241,4.45984e-05,0.0514089,21.0157,-329.646,-0.121103,0.0,0.0
1519,379.5,21.6278,22.8811,136.468,112.678,113.971,0.000126721,0.0512183,21.0161,-329.656,-0.101507,0.0,0.0
1550,387.25,21.4799,22.5349,140.778,112.643,114.526,0.000291222,0.0509335,21.017,-329.666,-0.147423,0.0,0.0
1581,395,21.2671,22.7662,136.964,112.591,113.863,-0.000216816,0.0511153,21.017,-329.656,-0.099931,0.0,0.0
1612,402.75,22.0257,22.5955,140.552,112.522,113.808,0.000262005,0.0512572,21.0151,-329.656,-0.101049,0.0,0.0
1643,410.5,21.5841,22.0889,138.594,112.419,113.61,0.000330301,0.0508984,21.0147,-329.676,-0.0937316,0.0,0.0
1674,418.25,21.7161,22.7527,140.519,112.29,113.686,0.00036553,0.0509695,21.014,-329.666,-0.109846,0.0,0.0
1705,426,21.7302,22.4047,139.809,112.153,113.073,0.000225835,0.0510921,21.014,-329.666,-0.072662,0.0,0.0
1736,433.75,21.6095,22.5704,135.308,112.197,113.402,0.000168365,0.0509585,21.0142,-329.656,-0.0949257,0.0,0.0
1767,441.5,21.9234,22.2932,138.527,112.24,114.089,0.000511814,0.0508676,21.0149,-329.656,-0.145301,0.0,0.0
1798,449.25,21.9319,22.6275,137.888,112.295,113.5,0.000343431,0.0509112,21.015,-329.656,-0.0949294,0.0,0.0
1829,457,21.5666,22.4412,140.855,112.373,113.623,0.000518513,0.0508446,21.014,-329.666,-0.0983493,0.0,0.0
1860,464.75,21.6461,22.3555,138.945,112.48,113.604,0.000249199,0.0509126,21.014,-329.666,-0.088409,0.0,0.0
1891,472.5,22.2182,22.4122,137.586,112.553,114.16,0.000134638,0.0508434,21.0136,-329.686,-0.126053,0.0,0.0
1922,480.25,21.8617,22.6831,142.178,112.661,113.822,7.90969e-05,0.050664,21.0134,-329.686,-0.0911698,0.0,0.0
1953,488,22.1136,22.1864,134.885,112.77,113.933,2.19834e-06,0.0505187,21.0134,-329.676,-0.0912314,0.0,0.0
1984,495.75,22.1441,22.626,139.28,112.886,114.313,-2.47855e-05,0.0505146,21.0143,-329.676,-0.111742,0.0,0.0
2015,503.5,22.5279,22.6021,140.625,112.961,114.538,-0.000282656,0.0507046,21.015,-329.676,-0.123311,0.0,0.0
2046,511.25,21.6124,22.5885,139.829,113.024,114.235,-0.00040366,0.0507949,21.0162,-329.686,-0.0948389,0.0,0.0
2077,519,21.7421,22.5969,141.522,113.059,114.619,4.84232e-05,0.0505404,21.0165,-329.676,-0.121835,0.0,0.0
2108,526.75,22.0207,22.639,134.989,113.084,114.114,4.86362e-05,0.0505072,21.0135,-329.676,-0.0806743,0.0,0.0
2139,534.5,21.6797,22.4421,140.873,113.107,114.483,5.61165e-05,0.0506596,21.0141,-329.666,-0.107557,0.0,0.0
2170,542.25,21.8801,22.8272,138.663,113.123,114.431,8.4882e-05,0.0505727,21.0139,-329.666,-0.102207,0.0,0.0
2201,550,22.3161,22.61,140.805,113.147,114.845,-1.20652e-05,0.0505337,21.015,-329.666,-0.132451,0.0,0.0
2232,557.75,21.8852,22.5915,141.074,113.152,114.417,0.000177004,0.0506895,21.015,-329.666,-0.0988236,0.0,0.0
2263,565.5,21.4366,22.1855,140.296,113.166,114.417,0.000111688,0.050599,21.0137,-329.666,-0.0977587,0.0,0.0
2294,573.25,21.4795,22.4299,142.469,113.15,114.624,-0.000345917,0.0506528,21.0153,-329.696,-0.115099,0.0,0.0
2325,581,21.9027,22.7953,138.662,113.158,114.678,-9.34009e-06,0.0510964,21.0157,-329.686,-0.11864,0.0,0.0
2356,588.75,21.7407,22.547,137.602,113.171,114.8,7.84068e-05,0.0519745,21.0132,-329.696,-0.127056,0.0,0.0
2387,596.5,21.7037,22.5767,139.208,113.166,114.435,0.000102244,0.0522622,21.012,-329.676,-0.0992122,0.0,0.0
2418,604.25,20.9952,22.1199,139.026,113.158,114.167,7.28548e-05,0.0509447,21.0123,-329.686,-0.078981,0.0,0.0
2449,612,21.7076,21.844,136.795,113.164,114.577,-1.84529e-06,0.0507944,21.0123,-329.686,-0.110331,0.0,0.0
2480,619.75,21.2617,22.1484,138.797,113.181,114.613,-7.72241e-05,0.0506509,21.0143,-329.686,-0.111777,0.0,0.0
2511,627.5,21.2732,21.8856,140.451,113.159,114.604,0.00018307,0.0509647,21.0147,-329.686,-0.112813,0.0,0.0
2542,635.25,21.2147,21.8528,138.864,113.151,114.399,-0.000106673,0.0512741,21.0145,-329.686,-0.0975486,0.0,0.0
2573,643,21.6729,22.2593,139.494,113.145,114.652,0.00028496,0.0516874,21.0133,-329.686,-0.117699,0.0,0.0
2604,650.75,21.4144,22.1479,138.752,113.136,114.748,-0.000416445,0.0513115,21.013,-329.686,-0.125823,0.0,0.0
2635,658.5,21.4629,21.8131,137.236,113.09,114.695,-0.000104375,0.0511122,21.013,-329.686,-0.125362,0.0,0.0
2666,666.25,20.9826,22.2467,138.953,113.001,114.435,2.03452e-05,0.0508924,21.013,-329.686,-0.112117,0.0,0.0
2697,674,20.9835,21.8809,138.92,112.872,114.452,3.48283e-06,0.0505034,21.014,-329.686,-0.1236,0.0,0.0
2728,681.75,21.6905,21.836,138.431,112.721,114.272,-0.00019097,0.050463,21.0145,-329.706,-0.121512,0.0,0.0
2759,689.5,21.0881,22.084,139.625,112.547,113.885,-0.000306771,0.0505034,21.0164,-329.696,-0.105152,0.0,0.0
2790,697.25,20.8486,22.1022,138.032,112.423,113.555,-0.00023397,0.0505096,21.0168,-329.686,-0.0891082,0.0,0.0
2821,705,21.3223,22.374,136.94,112.31,113.595,2.21978e-05,0.0506199,21.0154,-329.696,-0.101147,0.0,0.0
2852,712.75,20.9026,21.7228,137.863,112.187,113.595,,0.0504939,,-329.706,-0.110923,0.0,0.0
2883,720.5,21.5856,21.8766,138.265,112.011,113.242,,,,-329.696,-0.0972265,0.0,0.0
2885,721,21.473,22.2216,142.125,111.994,113.533,,,,-329.696,-0.121353,0.0,0.0