Folder: fsri_materials_database/01_Data/R13_Fiberglass_Insulation/MCC

Note: 01_Data/README.md
# Materials and Products Database
## 01_Data

Raw data generated from each apparatus are included here in plain-text format. The data is organized first by material, next by the short name of test apparatus used, and where applicable additional filtering by test settings.

### material.json

Each material directory contains a json file of the same name as the material. This file links the data stored in the repository as well as data and graphs produced by the accompanying scripts (__02_Scripts__) to the respective landing page for the material on the front-end website.

File: R13_Fiberglass_Insulation1_MCC_30K_min_220125_R3.txt
Sample ID:	C:\MCC\MCC Cal\Test\Fiberglas_Inaulation1_MCC_30K_min_220125_R3.txt
Sample Weight (mg):	4.84
Heating Rate (C/s):	0.5
Combustor Temp (C):	900
N2 Flow Rate (cc/min):	80
O2 Flow Rate (cc/min):	20
Calibration File:	C:\MCC\MCC Cal\Coeff1 JN10440_30_210304.txt.txt
T Correction Coefficients:	0	1.024463	0
Time Shift (s):	14
*
Time (s)	Temperature (C)	N2 flow rate (cc/min)	O2 flow rate (cc/min)	Flow Rate (cc/min)	Oxygen (%)	HRR (W/g)	Heating rate (C/s)
0.000	113.114	80.007	19.993	103.766	20.014	-0.134	0.000
8.000	113.137	80.008	19.993	103.786	20.018	-0.423	-0.014
15.999	113.156	80.006	19.993	103.821	20.016	-0.285	-0.018
23.999	113.360	80.009	19.993	103.908	19.997	0.960	0.043
31.999	114.000	80.007	19.993	103.967	19.986	1.715	0.110
39.999	115.169	80.008	19.993	103.993	19.987	1.626	0.181
47.999	116.693	80.008	19.993	103.988	19.983	1.919	0.237
56.000	118.603	80.007	19.993	103.997	19.978	2.216	0.229
64.000	120.870	80.006	19.995	104.000	19.978	2.215	0.269
71.999	123.424	80.005	19.995	104.055	19.985	1.798	0.321
80.000	126.279	80.008	19.994	104.027	19.980	2.124	0.375
87.999	129.341	80.007	19.993	104.034	19.981	2.021	0.425
95.999	132.521	80.008	19.993	104.006	19.983	1.945	0.410
104.000	135.981	80.009	19.995	104.037	19.986	1.739	0.438
111.999	139.577	80.009	19.994	104.004	19.983	1.892	0.476
119.999	143.229	80.009	19.993	104.023	19.988	1.596	0.482
127.999	146.886	80.010	19.993	104.008	19.990	1.474	0.461
136.000	150.734	80.008	19.994	104.014	19.992	1.295	0.458
144.000	154.595	80.006	19.994	103.994	19.993	1.266	0.485
152.000	158.485	80.007	19.995	103.987	19.997	0.942	0.485
160.000	162.409	80.007	19.995	103.982	20.000	0.771	0.479
168.000	166.370	80.007	19.994	103.993	20.001	0.686	0.530
176.000	170.204	80.006	19.994	103.987	20.000	0.798	0.481
184.000	174.143	80.009	19.994	103.987	20.004	0.475	0.472
192.000	178.033	80.008	19.993	103.976	20.003	0.552	0.491
200.000	181.964	80.009	19.993	103.961	20.014	-0.177	0.519
208.000	185.906	80.011	19.993	103.962	20.011	0.053	0.502
216.000	189.875	80.010	19.993	103.964	20.014	-0.140	0.481
224.000	193.797	80.007	19.995	103.951	20.011	0.042	0.480
232.000	197.697	80.008	19.994	103.947	20.012	-0.039	0.494
240.000	201.667	80.009	19.993	103.951	20.011	0.029	0.482
248.000	205.613	80.006	19.995	103.952	20.017	-0.362	0.506
256.000	209.633	80.006	19.994	103.951	20.020	-0.552	0.463
264.000	213.628	80.009	19.994	103.951	20.020	-0.594	0.491
272.000	217.667	80.009	19.994	103.947	20.022	-0.679	0.498
280.000	221.693	80.008	19.993	103.943	20.024	-0.837	0.482
288.000	225.752	80.009	19.993	103.944	20.027	-1.055	0.477
296.000	229.871	80.011	19.992	103.940	20.029	-1.138	0.527
304.000	233.867	80.007	19.994	103.933	20.028	-1.124	0.499
312.000	237.913	80.007	19.994	103.922	20.026	-0.938	0.486
320.000	241.930	80.007	19.994	103.930	20.027	-1.065	0.523
328.000	245.924	80.008	19.994	103.933	20.030	-1.230	0.513
336.000	250.033	80.008	19.994	103.937	20.028	-1.070	0.543
344.000	254.105	80.007	19.996	103.918	20.026	-0.958	0.508
352.000	258.120	80.009	19.994	103.916	20.028	-1.101	0.511
360.000	262.164	80.008	19.994	103.916	20.028	-1.092	0.488
368.000	266.204	80.009	19.993	103.919	20.031	-1.281	0.484
376.000	270.275	80.009	19.992	103.909	20.028	-1.127	0.522
384.000	274.374	80.007	19.993	103.915	20.031	-1.278	0.493
392.000	278.417	80.007	19.993	103.912	20.031	-1.283	0.516
400.000	282.446	80.008	19.993	103.909	20.034	-1.504	0.486
408.000	286.485	80.007	19.995	103.905	20.031	-1.303	0.483
416.000	290.511	80.008	19.995	103.907	20.033	-1.447	0.492
424.000	294.511	80.008	19.993	103.908	20.034	-1.535	0.516
432.000	298.496	80.008	19.995	103.910	20.041	-1.974	0.492
440.000	302.429	80.007	19.995	103.900	20.040	-1.923	0.489
448.000	306.462	80.009	19.993	103.903	20.043	-2.099	0.491
456.000	310.422	80.009	19.993	103.907	20.041	-1.991	0.461
464.000	314.493	80.007	19.996	103.892	20.043	-2.090	0.471
472.000	318.488	80.007	19.994	103.901	20.043	-2.117	0.472
480.000	322.464	80.008	19.993	103.890	20.045	-2.230	0.491
488.000	326.467	80.008	19.993	103.888	20.049	-2.494	0.527
496.000	330.477	80.006	19.994	103.879	20.048	-2.454	0.509
504.000	334.612	80.008	19.994	103.903	20.052	-2.735	0.512
512.000	338.713	80.008	19.994	103.898	20.050	-2.570	0.514
520.000	342.814	80.009	19.994	103.895	20.052	-2.726	0.485
528.000	346.923	80.008	19.995	103.898	20.054	-2.839	0.490
536.000	351.106	80.008	19.995	103.890	20.059	-3.209	0.491
544.000	355.214	80.007	19.994	103.886	20.055	-2.933	0.497
552.000	359.323	80.008	19.993	103.872	20.060	-3.222	0.506
560.000	363.426	80.006	19.993	103.873	20.060	-3.220	0.487
568.000	367.448	80.008	19.994	103.878	20.060	-3.229	0.488
576.000	371.486	80.006	19.994	103.878	20.060	-3.212	0.488
584.000	375.564	80.008	19.994	103.874	20.060	-3.269	0.511
592.000	379.622	80.010	19.994	103.868	20.061	-3.297	0.501
600.000	383.627	80.007	19.994	103.872	20.063	-3.478	0.491
608.000	387.700	80.008	19.994	103.868	20.064	-3.528	0.519
616.000	391.680	80.009	19.995	103.866	20.062	-3.357	0.507
624.000	395.727	80.006	19.995	103.852	20.067	-3.726	0.516
632.000	399.652	80.006	19.994	103.874	20.067	-3.721	0.506
640.000	403.527	80.005	19.994	103.859	20.070	-3.904	0.543
648.000	407.287	80.005	19.994	103.855	20.070	-3.929	0.492
656.000	411.055	80.006	19.994	103.850	20.069	-3.817	0.450
664.000	414.786	80.008	19.994	103.851	20.069	-3.843	0.451
672.000	418.590	80.010	19.994	103.849	20.071	-3.985	0.478
680.000	422.333	80.008	19.995	103.859	20.073	-4.119	0.463
688.000	426.191	80.008	19.994	103.853	20.068	-3.805	0.493
696.000	430.051	80.009	19.993	103.854	20.072	-4.030	0.473
704.000	433.964	80.006	19.996	103.864	20.075	-4.228	0.515
712.000	437.917	80.006	19.994	103.863	20.074	-4.200	0.468
720.000	441.923	80.007	19.995	103.852	20.073	-4.083	0.480
728.000	446.018	80.007	19.994	103.855	20.073	-4.090	0.519
736.000	450.166	80.007	19.995	103.850	20.075	-4.263	0.526
744.000	454.377	80.007	19.994	103.856	20.081	-4.683	0.512
752.000	458.613	80.009	19.992	103.861	20.077	-4.369	0.530
760.000	462.839	80.008	19.995	103.863	20.083	-4.817	0.538
768.000	466.986	80.008	19.994	103.841	20.080	-4.594	0.527
776.000	471.171	80.010	19.993	103.839	20.086	-4.983	0.524
784.000	475.359	80.007	19.994	103.843	20.089	-5.168	0.531
792.000	479.548	80.007	19.994	103.845	20.089	-5.173	0.514
800.000	483.705	80.006	19.994	103.837	20.093	-5.435	0.503
808.000	487.840	80.008	19.994	103.838	20.097	-5.690	0.525
816.000	491.937	80.006	19.994	103.834	20.100	-5.948	0.478
824.000	496.048	80.008	19.995	103.835	20.100	-5.895	0.523
832.000	500.059	80.008	19.993	103.832	20.101	-5.985	0.496
840.000	504.107	80.008	19.994	103.832	20.099	-5.853	0.514
848.000	508.160	80.009	19.994	103.828	20.101	-5.998	0.498
856.000	512.348	80.011	19.994	103.832	20.106	-6.297	0.529
864.000	516.696	80.006	19.994	103.845	20.101	-5.984	0.570
872.000	521.010	80.007	19.994	103.846	20.103	-6.103	0.546
880.000	525.385	80.007	19.994	103.850	20.102	-6.075	0.537
888.000	529.763	80.006	19.993	103.830	20.104	-6.191	0.527
896.000	534.060	80.006	19.994	103.831	20.104	-6.202	0.557
904.000	538.380	80.007	19.995	103.831	20.105	-6.255	0.553
912.000	542.580	80.007	19.994	103.831	20.110	-6.602	0.538
920.000	546.785	80.007	19.994	103.831	20.109	-6.521	0.503
928.000	551.076	80.008	19.994	103.828	20.108	-6.444	0.622
936.000	554.924	80.010	19.993	103.833	20.112	-6.745	0.394
944.000	559.361	80.007	19.995	103.835	20.113	-6.823	0.593
952.000	563.421	80.007	19.994	103.845	20.114	-6.841	0.529
960.000	567.521	80.008	19.994	103.833	20.110	-6.624	0.545
968.000	571.609	80.008	19.995	103.839	20.113	-6.760	0.526
976.000	575.687	80.007	19.993	103.829	20.114	-6.879	0.498
984.000	579.608	80.008	19.995	103.827	20.114	-6.861	0.512
992.000	583.565	80.008	19.996	103.827	20.116	-6.975	0.473
1000.000	587.429	80.008	19.995	103.828	20.116	-7.017	0.472
1008.000	591.339	80.009	19.995	103.821	20.115	-6.894	0.494
1016.000	595.267	80.008	19.993	103.831	20.114	-6.883	0.487
1024.000	599.220	80.007	19.994	103.832	20.114	-6.874	0.491
1031.999	603.158	80.007	19.995	103.829	20.115	-6.909	0.492
1039.999	607.131	80.009	19.994	103.829	20.116	-6.984	0.485
1047.999	611.098	80.007	19.995	103.824	20.116	-6.963	0.504
1056.000	615.135	80.007	19.995	103.826	20.118	-7.142	0.520
1063.999	619.176	80.008	19.996	103.828	20.113	-6.824	0.508
1071.999	623.222	80.009	19.993	103.831	20.119	-7.166	0.516
1079.999	627.240	80.008	19.995	103.832	20.116	-6.975	0.495
1087.999	631.281	80.008	19.995	103.824	20.115	-6.936	0.501
1095.999	635.362	80.011	19.994	103.830	20.117	-7.070	0.505
1103.999	639.337	80.007	19.993	103.825	20.118	-7.122	0.483
1111.999	643.370	80.008	19.995	103.838	20.115	-6.892	0.475
1119.999	647.390	80.007	19.994	103.833	20.118	-7.151	0.512
1127.999	651.432	80.008	19.994	103.816	20.117	-7.071	0.491
1135.999	655.482	80.006	19.993	103.823	20.115	-6.947	0.489
1143.999	659.656	80.006	19.995	103.831	20.122	-7.428	0.528
1151.999	663.861	80.008	19.994	103.832	20.121	-7.357	0.517
1159.999	668.003	80.007	19.994	103.830	20.123	-7.436	0.489
1167.999	672.140	80.009	19.995	103.825	20.117	-7.037	0.497
1175.999	676.319	80.009	19.994	103.833	20.116	-7.000	0.505
1183.999	680.420	80.006	19.997	103.831	20.117	-7.035	0.501
1191.999	684.627	80.006	19.994	103.841	20.118	-7.120	0.487
1200.001	688.792	80.006	19.994	103.838	20.118	-7.127	0.526
1208.000	692.890	80.007	19.993	103.855	20.116	-7.013	0.499
1215.999	697.017	80.006	19.995	103.832	20.115	-6.944	0.502
1223.999	701.095	80.005	19.995	103.840	20.118	-7.147	0.513
1231.999	705.177	80.009	19.994	103.841	20.117	-7.038	0.511
1240.000	709.273	80.007	19.994	103.825	20.112	-6.732	0.519
1247.999	713.437	80.008	19.995	103.827	20.118	-7.143	0.536
1255.999	717.531	80.009	19.993	103.843	20.113	-6.795	0.476
1263.999	721.710	80.005	19.994	103.823	20.113	-6.804	0.518
1271.999	725.828	80.006	19.995	103.832	20.117	-7.072	0.522
1279.999	729.983	80.006	19.994	103.832	20.118	-7.140	0.539
1287.999	734.056	80.007	19.994	103.833	20.115	-6.917	0.525
1295.999	737.992	80.007	19.995	103.830	20.116	-6.977	0.479
1303.999	741.824	80.008	19.995	103.816	20.119	-7.198	0.468
1308.499	743.998	80.008	19.994	103.811	20.116	-6.976	0.475