Folder: fsri_materials_database/01_Data/PVC_Pipe/STA/N2/10K_min

Note: 01_Data/README.md
# Materials and Products Database
## 01_Data

Raw data generated from each apparatus are included here in plain-text format. The data is organized first by material, next by the short name of test apparatus used, and where applicable additional filtering by test settings.

### material.json

Each material directory contains a json file of the same name as the material. This file links the data stored in the repository as well as data and graphs produced by the accompanying scripts (__02_Scripts__) to the respective landing page for the material on the front-end website.

File: PVC_Pipe_STA_N2_10KData_22071_R1.csv
##Temp./Â°C,Time/min,Mass loss(subtr.2)/mg,DSC(subtr.2)/(mW/mg),Sensit./(uV/mW)
49.688,10.00917,-0.03974,0.002138725,1.07018
52.288,11.22222,-0.04377249,0.06432029,1.06947
54.888,11.61923,-0.0432637,0.0933354,1.06874
57.488,11.95004,-0.0455543,0.11195,1.06801
60.088,12.25415,-0.04482193,0.12424,1.06727
62.688,12.54575,-0.04612052,0.13651,1.06653
65.288,12.8309,-0.05088145,0.13563,1.06578
67.888,13.1111,-0.0476445,0.12522,1.06502
70.488,13.38856,-0.04637863,0.12173,1.06425
73.088,13.66295,-0.04759541,0.12366,1.06348
75.688,13.9357,-0.04779752,0.12334,1.0627
78.288,14.20549,-0.0507049,0.12556,1.06191
80.888,14.47205,-0.05000227,0.13091,1.06112
83.488,14.7386,-0.05061072,0.13986,1.06032
86.088,15.00261,-0.05072953,0.15121,1.05951
88.688,15.26433,-0.05323536,0.16111,1.05869
91.288,15.5244,-0.05335679,0.16103,1.05787
93.888,15.78306,-0.05456997,0.15622,1.05704
96.488,16.04124,-0.05491461,0.15351,1.0562
99.088,16.29659,-0.05562392,0.15764,1.05536
101.688,16.55355,-0.05478535,0.16377,1.05451
104.288,16.8084,-0.05562788,0.16982,1.05365
106.888,17.06268,-0.05501099,0.17571,1.05278
109.488,17.31713,-0.05570184,0.18264,1.05191
112.088,17.57067,-0.05830664,0.1882,1.05103
114.688,17.8239,-0.05664982,0.19362,1.05014
117.288,18.07686,-0.05730563,0.19812,1.04925
119.888,18.33023,-0.05830596,0.20058,1.04834
122.488,18.5828,-0.05830007,0.20473,1.04743
125.088,18.83544,-0.05845426,0.20663,1.04652
127.688,19.08747,-0.0607214,0.20825,1.04559
130.288,19.33961,-0.05962009,0.20956,1.04466
132.888,19.59214,-0.05962262,0.21279,1.04372
135.488,19.84386,-0.05961584,0.21611,1.04277
138.088,20.09464,-0.05771673,0.21795,1.04182
140.688,20.34539,-0.06125798,0.2211,1.04086
143.288,20.59593,-0.06159812,0.22224,1.03989
145.888,20.8458,-0.0618252,0.22294,1.03891
148.488,21.09554,-0.06369858,0.22552,1.03793
151.088,21.34464,-0.0629353,0.22754,1.03694
153.688,21.594,-0.0629117,0.2272,1.03594
156.288,21.843,-0.06423,0.23092,1.03493
158.888,22.0922,-0.06554004,0.22946,1.03392
161.488,22.3417,-0.06417274,0.2282,1.0329
164.088,22.59046,-0.06631993,0.22927,1.03187
166.688,22.83987,-0.06554851,0.23155,1.03083
169.288,23.0884,-0.0662,0.23003,1.02979
171.888,23.3379,-0.06553773,0.23215,1.02873
174.488,23.5866,-0.06619982,0.23236,1.02767
177.088,23.83513,-0.0662,0.23278,1.02661
179.688,24.0838,-0.06851732,0.2345,1.02553
182.288,24.3317,-0.06851009,0.23365,1.02445
184.888,24.57974,-0.06753899,0.23576,1.02336
187.488,24.82709,-0.06884,0.23887,1.02226
190.088,25.0752,-0.0695134,0.23698,1.02115
192.688,25.3229,-0.06982989,0.2372,1.02004
195.288,25.56952,-0.06982997,0.23621,1.01892
197.888,25.81618,-0.07212465,0.23687,1.01779
200.488,26.0631,-0.07016148,0.23942,1.01665
203.088,26.3103,-0.07279014,0.23491,1.0155
205.688,26.5573,-0.07543068,0.23765,1.01435
208.288,26.80455,-0.07546424,0.23508,1.01319
210.888,27.05225,-0.0744093,0.23382,1.01202
213.488,27.2998,-0.07707042,0.23562,1.01084
216.088,27.54768,-0.07696076,0.23631,1.00966
218.688,27.79484,-0.0789633,0.23788,1.00847
221.288,28.04216,-0.08106892,0.24112,1.00727
223.888,28.2904,-0.08336162,0.24261,1.00606
226.488,28.53714,-0.08596685,0.24324,1.00484
229.088,28.78458,-0.08860538,0.24429,1.00362
231.688,29.03155,-0.09351565,0.24548,1.00239
234.288,29.27892,-0.09553411,0.2484,1.00115
236.888,29.5273,-0.10013,0.24978,0.9999
239.488,29.7744,-0.10343,0.25295,0.99864
242.088,30.0231,-0.10867,0.25193,0.99738
244.688,30.27096,-0.11396,0.25599,0.9961
247.288,30.51967,-0.11725,0.2588,0.99482
249.888,30.76747,-0.12252,0.26479,0.99353
252.488,31.01533,-0.12652,0.26709,0.99224
255.088,31.2635,-0.13197,0.26946,0.99093
257.688,31.51231,-0.13925,0.27884,0.98962
260.288,31.7603,-0.14481,0.28425,0.9883
262.888,32.00828,-0.15351,0.29192,0.98697
265.488,32.25618,-0.16331,0.30293,0.98563
268.088,32.50528,-0.17168,0.31024,0.98429
270.688,32.75391,-0.18237,0.32106,0.98293
273.288,33.003,-0.19531,0.33686,0.98157
275.888,33.25161,-0.20988,0.34916,0.9802
278.488,33.50042,-0.22877,0.37136,0.97882
281.088,33.74895,-0.24886,0.39354,0.97744
283.688,33.99776,-0.27274,0.41446,0.97604
286.288,34.2463,-0.30313,0.44405,0.97464
288.888,34.4964,-0.33804,0.47743,0.97323
291.488,34.74522,-0.37994,0.51812,0.97181
294.088,34.99491,-0.43311,0.57935,0.97038
296.688,35.2447,-0.51474,0.72466,0.96895
299.288,35.49524,-0.64707,0.90292,0.9675
301.888,35.74553,-0.78704,0.86102,0.96605
304.488,35.9961,-0.89424,0.69532,0.96459
307.088,36.2446,-0.97193,0.58024,0.96312
309.688,36.49313,-1.04234,0.54013,0.96165
312.288,36.74217,-1.1116,0.52565,0.96016
314.888,36.99107,-1.17891,0.51061,0.95867
317.488,37.24049,-1.2438,0.49342,0.95717
320.088,37.49025,-1.30755,0.47445,0.95566
322.688,37.73985,-1.36908,0.45532,0.95414
325.288,37.98958,-1.42659,0.43148,0.95261
327.888,38.23961,-1.48296,0.40684,0.95108
330.488,38.48984,-1.53484,0.37974,0.94953
333.088,38.73965,-1.58341,0.35406,0.94798
335.688,38.99024,-1.62807,0.32639,0.94642
338.288,39.2403,-1.66675,0.29454,0.94486
340.888,39.49153,-1.70408,0.26473,0.94328
343.488,39.74283,-1.73756,0.23342,0.9417
346.088,39.99325,-1.76358,0.20069,0.9401
348.688,40.2446,-1.78846,0.16566,0.9385
351.288,40.4951,-1.81109,0.13611,0.93689
353.888,40.74643,-1.83033,0.1089,0.93528
356.488,40.9964,-1.84487,0.08479658,0.93365
359.088,41.24778,-1.8559,0.06409175,0.93202
361.688,41.49938,-1.8648,0.05082395,0.93038
364.288,41.75077,-1.87081,0.04379614,0.92873
366.888,42.00196,-1.87406,0.0457597,0.92707
369.488,42.25405,-1.87807,0.05306782,0.9254
372.088,42.50517,-1.88017,0.05769535,0.92373
374.688,42.75846,-1.88296,0.06307648,0.92204
377.288,43.01104,-1.88322,0.06697317,0.92035
379.888,43.2632,-1.88465,0.06880659,0.91865
382.488,43.51599,-1.88597,0.0648691,0.91695
385.088,43.76846,-1.88532,0.06149146,0.91523
387.688,44.021,-1.88926,0.05898915,0.91351
390.288,44.27355,-1.8919,0.05254304,0.91177
392.888,44.52667,-1.89321,0.05127375,0.91003
395.488,44.77964,-1.89226,0.04730147,0.90829
398.088,45.0332,-1.89487,0.04068676,0.90653
400.688,45.28613,-1.8995,0.03109736,0.90477
403.288,45.54002,-1.90146,0.02800233,0.90299
405.888,45.79412,-1.9041,0.02163259,0.90121
408.488,46.04741,-1.90804,0.01381321,0.89942
411.088,46.30121,-1.91151,0.006791564,0.89763
413.688,46.5548,-1.91857,0.0001003674,0.89582
416.288,46.8084,-1.92454,-0.004042974,0.89401
418.888,47.06212,-1.92991,-0.00717682,0.89219
421.488,47.3164,-1.93883,-0.00771953,0.89036
424.088,47.5706,-1.9481,-0.01081508,0.88852
426.688,47.82589,-1.95863,-0.008120974,0.88668
429.288,48.07965,-1.97283,-0.002797265,0.88483
431.888,48.33461,-1.98743,0.003623361,0.88297
434.488,48.58914,-2.00378,0.01017295,0.8811
437.088,48.84428,-2.02362,0.02330451,0.87922
439.688,49.09929,-2.04649,0.03631682,0.87734
442.288,49.35365,-2.06975,0.05394667,0.87545
444.888,49.60974,-2.0976,0.06946642,0.87355
447.488,49.86421,-2.12218,0.08508869,0.87164
450.088,50.12086,-2.15065,0.10128,0.86973
452.688,50.37536,-2.1797,0.11352,0.8678
455.288,50.6312,-2.20955,0.12632,0.86587
457.888,50.8868,-2.23786,0.13793,0.86394
460.488,51.14245,-2.2716,0.14769,0.86199
463.088,51.39842,-2.29797,0.14931,0.86004
465.688,51.65488,-2.32749,0.15155,0.85808
468.288,51.9116,-2.35641,0.15351,0.85611
470.888,52.1676,-2.38388,0.15231,0.85413
473.488,52.424,-2.40868,0.14777,0.85215
476.088,52.68031,-2.43533,0.14177,0.85016
478.688,52.9366,-2.45557,0.13728,0.84816
481.288,53.19406,-2.47823,0.13602,0.84615
483.888,53.4501,-2.49539,0.13312,0.84414
486.488,53.7079,-2.51446,0.13003,0.84212
489.088,53.96485,-2.52877,0.1264,0.84009
491.688,54.22165,-2.54408,0.12234,0.83806
494.288,54.479,-2.55478,0.11977,0.83601
496.888,54.73636,-2.56656,0.11561,0.83396
499.488,54.99286,-2.5767,0.11455,0.83191
502.088,55.2499,-2.58624,0.11126,0.82984
504.688,55.50702,-2.59093,0.11332,0.82777
507.288,55.765,-2.59849,0.11349,0.8257
509.888,56.02242,-2.60515,0.11432,0.82361
512.488,56.27975,-2.60785,0.11437,0.82152
515.088,56.5375,-2.61146,0.11679,0.81942
517.688,56.7955,-2.61521,0.11743,0.81731
520.288,57.05418,-2.61934,0.12,0.8152
522.888,57.31325,-2.62122,0.11875,0.81308
525.488,57.5714,-2.62431,0.12298,0.81095
528.088,57.8298,-2.62581,0.12853,0.80882
530.688,58.08797,-2.62736,0.13125,0.80668
533.288,58.34567,-2.62844,0.13467,0.80453
535.888,58.60371,-2.62968,0.13466,0.80238
538.488,58.8615,-2.63237,0.13721,0.80022
541.088,59.11906,-2.63305,0.13765,0.79806
543.688,59.37757,-2.63437,0.13583,0.79588
546.288,59.6356,-2.63601,0.13132,0.7937
548.888,59.8944,-2.63502,0.13022,0.79152
551.488,60.1529,-2.637,0.12429,0.78933
554.088,60.411,-2.63832,0.12057,0.78713
556.688,60.66984,-2.63832,0.11852,0.78492
559.288,60.9285,-2.637,0.11989,0.78271
561.888,61.18781,-2.63962,0.11951,0.7805
564.488,61.44624,-2.64128,0.11462,0.77827
567.088,61.705,-2.64128,0.116,0.77604
569.688,61.96436,-2.64128,0.11425,0.77381
572.288,62.22416,-2.64287,0.11642,0.77157
574.888,62.48412,-2.64326,0.11856,0.76932
577.488,62.74449,-2.64557,0.12208,0.76707
580.088,63.0046,-2.64462,0.12141,0.76481
582.688,63.26505,-2.64589,0.12425,0.76254
585.288,63.52495,-2.64754,0.12821,0.76027
587.888,63.78454,-2.64732,0.13415,0.758
590.488,64.04381,-2.64831,0.13984,0.75572
593.088,64.30383,-2.64864,0.1443,0.75343
595.688,64.56341,-2.65028,0.14972,0.75114
598.288,64.8235,-2.65028,0.1577,0.74884
600.888,65.0834,-2.65292,0.15818,0.74653
603.488,65.34344,-2.6516,0.16185,0.74423
606.088,65.60414,-2.65444,0.16367,0.74191
608.688,65.8643,-2.65358,0.16759,0.73959
611.288,66.12488,-2.65485,0.16721,0.73727
613.888,66.38502,-2.65456,0.16964,0.73494
616.488,66.64525,-2.65394,0.1715,0.7326
619.088,66.9054,-2.65786,0.1801,0.73026
621.688,67.166,-2.65654,0.18129,0.72792
624.288,67.4263,-2.65523,0.18031,0.72557
626.888,67.6872,-2.65687,0.18322,0.72322
629.488,67.94804,-2.65712,0.18502,0.72086
632.088,68.20974,-2.65815,0.19106,0.71849
634.688,68.47108,-2.65819,0.19197,0.71613
637.288,68.73217,-2.65814,0.1948,0.71375
639.888,68.99329,-2.65687,0.1978,0.71138
642.488,69.25417,-2.6595,0.19943,0.70899
645.088,69.51446,-2.6595,0.19982,0.70661
647.688,69.77456,-2.65884,0.20423,0.70422
649.888,69.99347,-2.66016,0.21093,0.70219

File: PVC_Pipe_STA_N2_10KData_22075_R2.csv
##Temp./Â°C,Time/min,Mass loss(subtr.2)/mg,DSC(subtr.2)/(mW/mg),Sensit./(uV/mW)
49.724,10.00917,0.02503,0.00788149,1.07017
52.324,11.22113,0.02843393,0.09263861,1.06946
54.924,11.61742,0.02982069,0.13571,1.06873
57.524,11.9484,0.03034061,0.16123,1.068
60.124,12.25295,0.03117905,0.18237,1.06726
62.724,12.54417,0.03024049,0.20259,1.06652
65.324,12.82821,0.03019122,0.2087,1.06577
67.924,13.1091,0.03150151,0.19295,1.06501
70.524,13.38615,0.03287697,0.18906,1.06424
73.124,13.6607,0.03077251,0.19505,1.06347
75.724,13.93225,0.03282027,0.19791,1.06269
78.324,14.2022,0.03270196,0.20524,1.0619
80.924,14.46928,0.03282014,0.21135,1.06111
83.524,14.7336,0.03409587,0.22431,1.06031
86.124,14.99766,0.03446469,0.24308,1.0595
88.724,15.2599,0.03413478,0.25635,1.05868
91.324,15.52006,0.03415338,0.25324,1.05786
93.924,15.77866,0.03281812,0.25063,1.05703
96.524,16.03643,0.03408965,0.25327,1.05619
99.124,16.29305,0.03412804,0.25574,1.05535
101.724,16.54909,0.03545967,0.26286,1.0545
104.324,16.8041,0.03380933,0.26937,1.05364
106.924,17.0585,0.0354097,0.27917,1.05277
109.524,17.31287,0.03683737,0.28791,1.0519
112.124,17.56723,0.03677057,0.29563,1.05102
114.724,17.8205,0.03818083,0.30315,1.05013
117.324,18.07405,0.03676403,0.30562,1.04923
119.924,18.32709,0.03744003,0.31009,1.04833
122.524,18.58025,0.03546135,0.31471,1.04742
125.124,18.8319,0.03731811,0.31991,1.0465
127.724,19.0842,0.03843779,0.3229,1.04558
130.324,19.3364,0.0371,0.3254,1.04465
132.924,19.5884,0.0371108,0.32941,1.04371
135.524,19.83909,0.03863768,0.33623,1.04276
138.124,20.09,0.03868178,0.3409,1.04181
140.724,20.34018,0.03859471,0.34409,1.04085
143.324,20.5907,0.03914862,0.34774,1.03988
145.924,20.84103,0.03864,0.34944,1.0389
148.524,21.09127,0.03732985,0.35276,1.03792
151.124,21.34035,0.03931459,0.35686,1.03692
153.724,21.58993,0.03928203,0.35767,1.03593
156.324,21.8396,0.03931151,0.3599,1.03492
158.924,22.08844,0.03929995,0.36265,1.0339
161.524,22.33768,0.0393,0.36249,1.03288
164.124,22.58661,0.03910006,0.36154,1.03185
166.724,22.8358,0.03928134,0.36346,1.03082
169.324,23.08437,0.03930032,0.36371,1.02977
171.924,23.33306,0.03963703,0.36585,1.02872
174.524,23.5811,0.03962974,0.36741,1.02766
177.124,23.83079,0.03835627,0.36732,1.02659
179.724,24.07903,0.03831001,0.36787,1.02552
182.324,24.32715,0.03700059,0.36986,1.02443
184.924,24.5751,0.03960959,0.36918,1.02334
187.524,24.82299,0.03831089,0.36991,1.02224
190.124,25.0711,0.03732,0.37249,1.02114
192.724,25.31873,0.03698988,0.37338,1.02002
195.324,25.5674,0.03776804,0.37282,1.0189
197.924,25.8153,0.03787715,0.37359,1.01777
200.524,26.06279,0.0367805,0.37256,1.01663
203.124,26.3102,0.0367849,0.37381,1.01549
205.724,26.55736,0.03612,0.37419,1.01434
208.324,26.80382,0.03480006,0.37402,1.01317
210.924,27.0503,0.03414101,0.37544,1.01201
213.524,27.29757,0.03413689,0.37551,1.01083
216.124,27.5453,0.03315,0.37847,1.00964
218.724,27.7921,0.03280677,0.38014,1.00845
221.324,28.0391,0.0292,0.38272,1.00725
223.924,28.28711,0.02902424,0.38905,1.00604
226.524,28.53435,0.02628955,0.38992,1.00483
229.124,28.7821,0.0213035,0.39149,1.0036
231.724,29.02957,0.01854859,0.39319,1.00237
234.324,29.27777,0.01391458,0.39831,1.00113
236.924,29.5252,0.008567079,0.40512,0.99988
239.524,29.77259,0.005783698,0.40826,0.99862
242.124,30.02058,-0.00340472,0.41184,0.99736
244.724,30.2685,-0.00770152,0.41375,0.99609
247.324,30.51655,-0.01403059,0.4175,0.9948
249.924,30.76407,-0.01904011,0.42405,0.99352
252.524,31.0125,-0.02594883,0.43072,0.99222
255.124,31.2607,-0.03337331,0.43556,0.99091
257.724,31.50852,-0.04223562,0.44502,0.9896
260.324,31.75688,-0.05179906,0.45349,0.98828
262.924,32.0049,-0.06008309,0.46162,0.98695
265.524,32.2523,-0.07248347,0.47417,0.98561
268.124,32.50065,-0.08322686,0.48863,0.98427
270.724,32.74848,-0.09782857,0.50143,0.98291
273.324,32.99646,-0.11691,0.51977,0.98155
275.924,33.24569,-0.13684,0.54098,0.98018
278.524,33.49455,-0.16044,0.56627,0.9788
281.124,33.7432,-0.18909,0.59569,0.97742
283.724,33.9923,-0.22258,0.62869,0.97602
286.324,34.24172,-0.26287,0.66682,0.97462
288.924,34.4912,-0.31257,0.71931,0.97321
291.524,34.74139,-0.37767,0.80681,0.97179
294.124,34.99149,-0.4869,1.02414,0.97036
296.724,35.24321,-0.66673,1.25975,0.96893
299.324,35.49422,-0.84897,1.21895,0.96748
301.924,35.744,-0.99613,1.02602,0.96603
304.524,35.9925,-1.10194,0.85917,0.96457
307.124,36.24073,-1.18962,0.78808,0.9631
309.724,36.49013,-1.27594,0.7618,0.96163
312.324,36.7391,-1.35901,0.74251,0.96014
314.924,36.98842,-1.44675,0.7221,0.95865
317.524,37.23796,-1.52994,0.69872,0.95715
320.124,37.48793,-1.60723,0.67003,0.95564
322.724,37.73793,-1.68162,0.64146,0.95412
325.324,37.98709,-1.75414,0.61159,0.95259
327.924,38.23635,-1.82068,0.57994,0.95106
330.524,38.4861,-1.88277,0.54478,0.94951
333.124,38.735,-1.93926,0.51406,0.94796
335.724,38.9855,-1.99274,0.48368,0.9464
338.324,39.23587,-2.04227,0.45076,0.94483
340.924,39.48611,-2.08704,0.41552,0.94326
343.524,39.73729,-2.1259,0.37615,0.94167
346.124,39.98761,-2.15867,0.33528,0.94008
348.724,40.23856,-2.18945,0.29647,0.93848
351.324,40.4899,-2.21504,0.25777,0.93687
353.924,40.73999,-2.23648,0.21786,0.93525
356.524,40.99151,-2.25465,0.18378,0.93363
359.124,41.24196,-2.26737,0.15502,0.932
361.724,41.49388,-2.27532,0.14067,0.93035
364.324,41.74552,-2.28257,0.1373,0.9287
366.924,41.99718,-2.28831,0.13854,0.92705
369.524,42.24967,-2.29096,0.1456,0.92538
372.124,42.50179,-2.29479,0.15488,0.9237
374.724,42.7537,-2.2947,0.163,0.92202
377.324,43.00522,-2.29667,0.1732,0.92033
379.924,43.2566,-2.29933,0.19217,0.91863
382.524,43.50784,-2.30128,0.20575,0.91692
385.124,43.7603,-2.30128,0.21331,0.91521
387.724,44.01277,-2.30487,0.21958,0.91348
390.324,44.26535,-2.30887,0.2189,0.91175
392.924,44.51887,-2.3115,0.21192,0.91001
395.524,44.77276,-2.3128,0.20543,0.90826
398.124,45.0263,-2.31615,0.19784,0.90651
400.724,45.2797,-2.31544,0.18394,0.90474
403.324,45.53433,-2.31959,0.16426,0.90297
405.924,45.78853,-2.32621,0.13947,0.90119
408.524,46.04242,-2.33019,0.11633,0.8994
411.124,46.29517,-2.33651,0.10463,0.8976
413.724,46.5494,-2.34288,0.09950514,0.8958
416.324,46.8029,-2.34719,0.09049283,0.89399
418.924,47.05724,-2.35866,0.07901317,0.89216
421.524,47.31222,-2.36802,0.06673002,0.89034
424.124,47.56661,-2.37829,0.0646799,0.8885
426.724,47.8202,-2.38971,0.06549966,0.88665
429.324,48.0745,-2.40531,0.07027379,0.8848
431.924,48.3289,-2.42411,0.07687752,0.88294
434.524,48.58363,-2.44667,0.08769915,0.88107
437.124,48.8394,-2.46827,0.09811114,0.8792
439.724,49.0938,-2.49645,0.11494,0.87731
442.324,49.34918,-2.52755,0.1362,0.87542
444.924,49.60483,-2.56055,0.1561,0.87352
447.524,49.86,-2.59383,0.17729,0.87161
450.124,50.11568,-2.62889,0.1975,0.8697
452.724,50.37079,-2.6618,0.21527,0.86778
455.324,50.62635,-2.70269,0.22854,0.86585
457.924,50.88272,-2.73954,0.25125,0.86391
460.524,51.1383,-2.78033,0.26304,0.86196
463.124,51.39427,-2.81778,0.26647,0.86001
465.724,51.6501,-2.85445,0.2693,0.85805
468.324,51.9061,-2.89518,0.26942,0.85608
470.924,52.16219,-2.92848,0.26899,0.8541
473.524,52.41859,-2.96262,0.26726,0.85212
476.124,52.67485,-2.99342,0.2632,0.85013
478.724,52.9313,-3.02044,0.25953,0.84813
481.324,53.1875,-3.04948,0.25464,0.84613
483.924,53.4438,-3.07451,0.24694,0.84411
486.524,53.70064,-3.09745,0.24467,0.84209
489.124,53.9578,-3.11853,0.23672,0.84006
491.724,54.21493,-3.1356,0.23355,0.83803
494.324,54.4719,-3.15287,0.22831,0.83599
496.924,54.72919,-3.16769,0.22458,0.83394
499.524,54.98596,-3.17895,0.21999,0.83188
502.124,55.2436,-3.19253,0.21835,0.82982
504.724,55.50056,-3.19983,0.21382,0.82774
507.324,55.7585,-3.20792,0.21244,0.82567
509.924,56.0163,-3.21578,0.2119,0.82358
512.524,56.274,-3.22088,0.21023,0.82149
515.124,56.53171,-3.22664,0.2089,0.81939
517.724,56.78963,-3.23059,0.21092,0.81728
520.324,57.0476,-3.23515,0.20983,0.81517
522.924,57.30565,-3.23849,0.20892,0.81305
525.524,57.5639,-3.24113,0.21573,0.81093
528.124,57.82139,-3.24375,0.2214,0.80879
530.724,58.0799,-3.24678,0.22526,0.80665
533.324,58.3384,-3.24772,0.23318,0.80451
535.924,58.59659,-3.25035,0.24318,0.80235
538.524,58.8547,-3.25168,0.25482,0.80019
541.124,59.11264,-3.25039,0.26127,0.79803
543.724,59.3713,-3.25431,0.26685,0.79585
546.324,59.6305,-3.25528,0.26955,0.79367
548.924,59.8889,-3.25859,0.27248,0.79149
551.524,60.14748,-3.25991,0.28116,0.7893
554.124,60.40555,-3.26106,0.28667,0.7871
556.724,60.66417,-3.25859,0.28614,0.78489
559.324,60.922,-3.26117,0.29138,0.78268
561.924,61.18155,-3.26223,0.29094,0.78046
564.524,61.44066,-3.26222,0.2888,0.77824
567.124,61.701,-3.26391,0.29147,0.77601
569.724,61.96045,-3.26419,0.29063,0.77378
572.324,62.22028,-3.26287,0.28797,0.77154
574.924,62.4791,-3.26649,0.28681,0.76929
577.524,62.7389,-3.26682,0.28843,0.76703
580.124,62.99853,-3.26819,0.28759,0.76478
582.724,63.25813,-3.26792,0.28619,0.76251
585.324,63.51791,-3.27056,0.28217,0.76024
587.924,63.77769,-3.27056,0.27434,0.75797
590.524,64.03729,-3.27056,0.27026,0.75568
593.124,64.2976,-3.27056,0.26516,0.7534
595.724,64.55799,-3.27264,0.25777,0.7511
598.324,64.8182,-3.27417,0.25116,0.74881
600.924,65.07835,-3.2755,0.24761,0.7465
603.524,65.3387,-3.27614,0.2427,0.74419
606.124,65.59945,-3.27352,0.2333,0.74188
608.724,65.86,-3.27479,0.22461,0.73956
611.324,66.1217,-3.27748,0.2185,0.73724
613.924,66.38291,-3.27746,0.21465,0.73491
616.524,66.6433,-3.27823,0.20285,0.73257
619.124,66.90425,-3.2788,0.20516,0.73023
621.724,67.1645,-3.28142,0.20678,0.72789
624.324,67.42493,-3.28011,0.2075,0.72554
626.924,67.68486,-3.28011,0.20411,0.72318
629.524,67.9457,-3.28022,0.20906,0.72082
632.124,68.20524,-3.27774,0.21433,0.71846
634.724,68.46615,-3.27781,0.21744,0.71609
637.324,68.727,-3.27914,0.22212,0.71372
639.924,68.98733,-3.28131,0.22432,0.71134
642.524,69.24937,-3.28098,0.23091,0.70896
645.124,69.50999,-3.28296,0.2404,0.70658
647.724,69.7713,-3.28296,0.24574,0.70419
649.924,69.99329,-3.28434,0.25186,0.70216