Folder: fsri_materials_database/01_Data/PVC_Pipe/STA/N2/10K_min (part 2)

File: PVC_Pipe_STA_N2_10KData_22075_R3.csv
##Temp./Â°C,Time/min,Mass loss(subtr.2)/mg,DSC(subtr.2)/(mW/mg),Sensit./(uV/mW)
49.772,10.01,0.01197,-0.002873241,1.07016
52.472,11.2419,0.01976653,0.06166996,1.06941
55.172,11.64661,0.0215858,0.09867466,1.06866
57.872,11.98709,0.02075978,0.11921,1.0679
60.572,12.30208,0.02042286,0.13725,1.06713
63.272,12.60384,0.01603009,0.15655,1.06636
65.972,12.89862,0.01372479,0.15587,1.06558
68.672,13.1904,0.01106922,0.14099,1.06479
71.372,13.4774,0.01133269,0.13737,1.06399
74.072,13.76208,0.0124001,0.13692,1.06318
76.772,14.04449,0.01368428,0.13846,1.06237
79.472,14.32381,0.01350996,0.14302,1.06155
82.172,14.60004,0.0148306,0.15074,1.06072
84.872,14.8756,0.01481385,0.16669,1.05989
87.572,15.1493,0.01351,0.18383,1.05904
90.272,15.4198,0.01448819,0.1876,1.05819
92.972,15.69002,0.01186003,0.18612,1.05733
95.672,15.95881,0.01242404,0.18378,1.05647
98.372,16.22546,0.01452897,0.18391,1.05559
101.072,16.4911,0.01351,0.18777,1.05471
103.772,16.75657,0.01219,0.19478,1.05382
106.472,17.0223,0.009560788,0.20401,1.05292
109.172,17.28668,0.01087465,0.20764,1.05202
111.872,17.55027,0.01219,0.2152,1.0511
114.572,17.81414,0.01078549,0.22261,1.05018
117.272,18.0778,0.01218958,0.22698,1.04925
119.972,18.34047,0.01417,0.23229,1.04831
122.672,18.60258,0.01215582,0.23583,1.04737
125.372,18.86456,0.01270809,0.24006,1.04642
128.072,19.12575,0.01218997,0.24339,1.04546
130.772,19.38747,0.01216946,0.24504,1.04449
133.472,19.64839,0.01350786,0.24964,1.04351
136.172,19.9091,0.01347471,0.25094,1.04252
138.872,20.17013,0.01350999,0.25297,1.04153
141.572,20.4309,0.01347921,0.25336,1.04053
144.272,20.6915,0.01219009,0.25486,1.03952
146.972,20.95101,0.01219532,0.25865,1.0385
149.672,21.21112,0.009549999,0.26013,1.03748
152.372,21.47093,0.00950492,0.26238,1.03645
155.072,21.72941,0.00888014,0.26376,1.0354
157.772,21.98883,0.0109196,0.26604,1.03435
160.472,22.24796,0.008753812,0.26685,1.0333
163.172,22.5069,0.01211302,0.26578,1.03223
165.872,22.76478,0.01187662,0.26697,1.03116
168.572,23.02357,0.0111,0.26539,1.03007
171.272,23.28248,0.009259863,0.2655,1.02898
173.972,23.54151,0.01197053,0.26571,1.02788
176.672,23.7993,0.0132893,0.26538,1.02678
179.372,24.0583,0.0132832,0.26474,1.02566
182.072,24.3166,0.01488873,0.26424,1.02454
184.772,24.574,0.01328,0.26622,1.02341
187.472,24.8316,0.01300233,0.26634,1.02227
190.172,25.08907,0.009009996,0.26697,1.02112
192.872,25.34581,0.01042721,0.26764,1.01996
195.572,25.60218,0.00901,0.26895,1.01879
198.272,25.85943,0.009000136,0.26801,1.01762
200.972,26.116,0.009315963,0.26753,1.01644
203.672,26.37258,0.01064282,0.26643,1.01525
206.372,26.6292,0.00742902,0.26607,1.01405
209.072,26.886,0.006704379,0.26559,1.01284
211.772,27.14242,0.00627666,0.26647,1.01162
214.472,27.3991,0.00506008,0.26508,1.0104
217.172,27.6561,0.00473,0.26653,1.00916
219.872,27.91275,0.00319559,0.2665,1.00792
222.572,28.1691,0.001758725,0.27091,1.00667
225.272,28.42571,0.002420086,0.27248,1.00541
227.972,28.68266,-0.002850103,0.27278,1.00414
230.672,28.94008,-0.006799222,0.27307,1.00287
233.372,29.1972,-0.01095343,0.27819,1.00158
236.072,29.4546,-0.01505014,0.27967,1.00029
238.772,29.7122,-0.02028559,0.28159,0.99899
241.472,29.96974,-0.02390794,0.28352,0.99768
244.172,30.2273,-0.02954288,0.2838,0.99636
246.872,30.48491,-0.03601703,0.28896,0.99503
249.572,30.7424,-0.04336617,0.29454,0.99369
252.272,30.99989,-0.04940155,0.29784,0.99235
254.972,31.25743,-0.05767996,0.30493,0.99099
257.672,31.5144,-0.06588792,0.31294,0.98963
260.372,31.7716,-0.07509058,0.31935,0.98826
263.072,32.02943,-0.08606172,0.32632,0.98688
265.772,32.28715,-0.09744393,0.33563,0.98549
268.472,32.5455,-0.10919,0.34835,0.98409
271.172,32.8037,-0.12514,0.36352,0.98268
273.872,33.06157,-0.1439,0.38047,0.98126
276.572,33.31998,-0.16303,0.40108,0.97984
279.272,33.5781,-0.18764,0.42623,0.97841
281.972,33.83753,-0.21612,0.45741,0.97696
284.672,34.09637,-0.25246,0.49393,0.97551
287.372,34.35557,-0.29465,0.53953,0.97405
290.072,34.61401,-0.35252,0.61062,0.97258
292.772,34.8743,-0.42933,0.74257,0.97111
295.472,35.13469,-0.56688,0.97178,0.96962
298.172,35.39526,-0.74618,1.10682,0.96812
300.872,35.65636,-0.93764,1.10425,0.96662
303.572,35.9154,-1.10612,0.91331,0.96511
306.272,36.173,-1.21175,0.67918,0.96358
308.972,36.43046,-1.29668,0.60242,0.96205
311.672,36.68835,-1.37987,0.58367,0.96051
314.372,36.9476,-1.46245,0.56964,0.95896
317.072,37.20603,-1.54555,0.55279,0.95741
319.772,37.46479,-1.62444,0.5343,0.95584
322.472,37.72466,-1.70168,0.50837,0.95426
325.172,37.98403,-1.77406,0.47467,0.95268
327.872,38.24338,-1.84293,0.44156,0.95109
330.572,38.50292,-1.90993,0.40829,0.94948
333.272,38.76335,-1.96961,0.37586,0.94787
335.972,39.02313,-2.02572,0.34003,0.94625
338.672,39.28264,-2.07668,0.30171,0.94462
341.372,39.54278,-2.12395,0.26608,0.94299
344.072,39.80305,-2.16517,0.22525,0.94134
346.772,40.0619,-2.2022,0.18479,0.93968
349.472,40.32362,-2.23356,0.14079,0.93802
352.172,40.58341,-2.26203,0.09467489,0.93635
354.872,40.84342,-2.2845,0.05325808,0.93466
357.572,41.1044,-2.30292,0.01651826,0.93297
360.272,41.36503,-2.31801,-0.01254855,0.93127
362.972,41.62547,-2.32842,-0.0305827,0.92956
365.672,41.88597,-2.33377,-0.03874861,0.92784
368.372,42.14756,-2.33932,-0.03640238,0.92612
371.072,42.40948,-2.34299,-0.02828915,0.92438
373.772,42.6711,-2.34727,-0.02350496,0.92264
376.472,42.93363,-2.34744,-0.0141266,0.92088
379.172,43.19594,-2.35122,-0.00918893,0.91912
381.872,43.45851,-2.35121,-0.00560987,0.91735
384.572,43.72013,-2.35254,-0.005666123,0.91557
387.272,43.98247,-2.35649,-0.007745898,0.91378
389.972,44.24419,-2.35814,-0.01256799,0.91199
392.672,44.50633,-2.36048,-0.0161703,0.91018
395.372,44.7687,-2.3643,-0.02294009,0.90836
398.072,45.0321,-2.3644,-0.02831103,0.90654
400.772,45.29554,-2.36834,-0.03673784,0.90471
403.472,45.55856,-2.3733,-0.04081055,0.90287
406.172,45.82233,-2.37592,-0.04756487,0.90102
408.872,46.08617,-2.38246,-0.05101245,0.89916
411.572,46.3498,-2.38646,-0.05717277,0.89729
414.272,46.6133,-2.39381,-0.0621288,0.89542
416.972,46.8767,-2.40201,-0.0689769,0.89353
419.672,47.14098,-2.41019,-0.07125111,0.89164
422.372,47.40538,-2.42175,-0.07572876,0.88974
425.072,47.66885,-2.43402,-0.07614849,0.88783
427.772,47.9332,-2.44989,-0.07504528,0.88591
430.472,48.19695,-2.4684,-0.06939057,0.88398
433.172,48.46053,-2.48705,-0.06188536,0.88205
435.872,48.7241,-2.51169,-0.04889454,0.8801
438.572,48.98956,-2.53977,-0.03575476,0.87815
441.272,49.25396,-2.56767,-0.01882182,0.87619
443.972,49.5188,-2.59964,0.002216566,0.87422
446.672,49.7836,-2.6344,0.0206879,0.87224
449.372,50.04936,-2.66887,0.04154441,0.87025
452.072,50.31527,-2.70364,0.05521802,0.86826
454.772,50.58167,-2.74256,0.06914083,0.86626
457.472,50.84778,-2.77949,0.0874056,0.86425
460.172,51.11368,-2.82081,0.10213,0.86223
462.872,51.37925,-2.85999,0.10905,0.8602
465.572,51.64545,-2.89847,0.11096,0.85816
468.272,51.91121,-2.9353,0.10711,0.85612
470.972,52.17711,-2.97162,0.10165,0.85407
473.672,52.44364,-3.00488,0.09743455,0.85201
476.372,52.7098,-3.03737,0.08798484,0.84994
479.072,52.9756,-3.06796,0.07780062,0.84786
481.772,53.241,-3.09519,0.06828319,0.84578
484.472,53.50761,-3.123,0.05807072,0.84369
487.172,53.77385,-3.14638,0.04662393,0.84159
489.872,54.0405,-3.1664,0.03983455,0.83948
492.572,54.3075,-3.1859,0.02698061,0.83736
495.272,54.5741,-3.2026,0.02028274,0.83524
497.972,54.8414,-3.21847,0.01256456,0.83311
500.672,55.10898,-3.22894,0.005697417,0.83097
503.372,55.3761,-3.24049,-0.002152877,0.82882
506.072,55.6436,-3.25166,-0.00670786,0.82667
508.772,55.9113,-3.25835,-0.01313995,0.82451
511.472,56.17901,-3.26633,-0.01843737,0.82234
514.172,56.446,-3.27066,-0.01952116,0.82016
516.872,56.7137,-3.27589,-0.02518076,0.81798
519.572,56.98095,-3.28054,-0.02622602,0.81578
522.272,57.24974,-3.28318,-0.02953392,0.81358
524.972,57.5184,-3.28713,-0.03243163,0.81138
527.672,57.7873,-3.2891,-0.02938636,0.80916
530.372,58.05529,-3.29174,-0.03008175,0.80694
533.072,58.32334,-3.29574,-0.02739179,0.80471
535.772,58.5917,-3.29569,-0.02775792,0.80248
538.472,58.8604,-3.29668,-0.0257551,0.80024
541.172,59.1286,-3.3003,-0.02306393,0.79799
543.872,59.39649,-3.30162,-0.01282074,0.79573
546.572,59.6646,-3.30489,-0.00313637,0.79347
549.272,59.933,-3.30603,0.00309434,0.79119
551.972,60.201,-3.30755,0.006732143,0.78892
554.672,60.4692,-3.30814,0.007515543,0.78663
557.372,60.73785,-3.31304,0.009910544,0.78434
560.072,61.0063,-3.31007,0.00772446,0.78204
562.772,61.27499,-3.31289,0.005160708,0.77974
565.472,61.5441,-3.31227,-0.0002558247,0.77743
568.172,61.81292,-3.31358,-0.009697796,0.77511
570.872,62.0831,-3.31389,-0.02013697,0.77279
573.572,62.3528,-3.31633,-0.02537765,0.77046
576.272,62.622,-3.31656,-0.03805129,0.76812
578.972,62.8919,-3.31787,-0.04902723,0.76578
581.672,63.16138,-3.31765,-0.06277011,0.76343
584.372,63.431,-3.31897,-0.06632508,0.76107
587.072,63.70001,-3.3216,-0.07472289,0.75871
589.772,63.97016,-3.31996,-0.08563583,0.75634
592.472,64.24037,-3.3216,-0.08845212,0.75397
595.172,64.51077,-3.32292,-0.09414743,0.75159
597.872,64.7817,-3.32193,-0.09682804,0.74921
600.572,65.05198,-3.32302,-0.09976676,0.74681
603.272,65.32242,-3.32302,-0.10424,0.74442
605.972,65.59212,-3.32605,-0.11052,0.74201
608.672,65.8629,-3.32731,-0.11333,0.73961
611.372,66.1335,-3.32794,-0.11295,0.73719
614.072,66.40347,-3.32665,-0.11634,0.73477
616.772,66.6746,-3.32733,-0.11679,0.73235
619.472,66.94584,-3.33094,-0.11636,0.72992
622.172,67.2161,-3.32904,-0.11437,0.72748
624.872,67.48648,-3.32828,-0.11346,0.72504
627.572,67.75685,-3.33093,-0.11364,0.7226
630.272,68.02768,-3.33093,-0.1113,0.72015
632.972,68.29812,-3.33093,-0.10591,0.71769
635.672,68.5686,-3.33192,-0.10222,0.71523
638.372,68.8392,-3.33325,-0.10421,0.71276
641.072,69.10931,-3.33054,-0.09600948,0.71029
643.772,69.38011,-3.33181,-0.09284832,0.70782
646.472,69.6507,-3.33346,-0.08636257,0.70534
649.172,69.92124,-3.33442,-0.08389489,0.70285
649.872,69.99106,-3.3351,-0.08075276,0.70221