Folder: fsri_materials_database/01_Data/Polyester_Fabric/STA/N2/10K_min

Note: 01_Data/README.md
# Materials and Products Database
## 01_Data

Raw data generated from each apparatus are included here in plain-text format. The data is organized first by material, next by the short name of test apparatus used, and where applicable additional filtering by test settings.

### material.json

Each material directory contains a json file of the same name as the material. This file links the data stored in the repository as well as data and graphs produced by the accompanying scripts (__02_Scripts__) to the respective landing page for the material on the front-end website.

File: Polyester_Fabric_STA_N2_10KData_220204_R2.csv
##Temp./Â°C,Time/min,Mass(subtr.2)/%,DSC(subtr.2)/(mW/mg),Sensit./(uV/mW)
49.404,10.01,100.691,0.00706443,1.07446
52.604,11.3172,100.801,0.1175,1.07423
55.804,11.76797,100.799,0.1628,1.07398
59.004,12.15426,100.833,0.18634,1.0737
62.204,12.51801,100.839,0.20091,1.0734
65.404,12.87013,100.806,0.2104,1.07307
68.604,13.2169,100.84,0.21549,1.07272
71.804,13.55921,100.872,0.22246,1.07234
75.004,13.8966,100.9073,0.23128,1.07195
78.204,14.2302,100.915,0.23669,1.07152
81.404,14.55925,100.907,0.23926,1.07108
84.604,14.88604,100.94,0.24736,1.07061
87.804,15.2099,100.974,0.25099,1.07011
91.004,15.53031,100.974,0.25498,1.0696
94.204,15.8491,100.973,0.25724,1.06906
97.404,16.16597,101.007,0.26517,1.06849
100.604,16.4813,101.0074,0.26909,1.06791
103.804,16.79541,100.993,0.27254,1.0673
107.004,17.10836,101.075,0.27938,1.06666
110.204,17.42064,101.007,0.28646,1.06601
113.404,17.73336,101.006,0.29068,1.06533
116.604,18.04562,101.0544,0.29463,1.06462
119.804,18.35782,101.0074,0.29963,1.0639
123.004,18.66939,101.007,0.31083,1.06315
126.204,18.98038,101.025,0.31891,1.06238
129.404,19.29056,101.008,0.33361,1.06158
132.604,19.60003,101.041,0.34016,1.06076
135.804,19.90962,101.044,0.32208,1.05992
139.004,20.2192,101.024,0.30543,1.05906
142.204,20.52789,101.02,0.29866,1.05817
145.404,20.8368,101.041,0.30033,1.05727
148.604,21.1447,101.049,0.3052,1.05634
151.804,21.4528,101.116,0.30638,1.05538
155.004,21.76011,101.1,0.31158,1.05441
158.204,22.06832,101.125,0.31716,1.05341
161.404,22.37539,101.141,0.31931,1.05239
164.604,22.68259,101.116,0.32232,1.05135
167.804,22.98926,101.1505,0.3277,1.05029
171.004,23.295,101.174,0.3287,1.0492
174.204,23.60041,101.125,0.33075,1.0481
177.404,23.90622,101.167,0.33562,1.04697
180.604,24.21279,101.183,0.33718,1.04582
183.804,24.51901,101.184,0.33903,1.04465
187.004,24.8256,101.183,0.34132,1.04346
190.204,25.13093,101.183,0.34319,1.04224
193.404,25.43714,101.193,0.34814,1.04101
196.604,25.74241,101.15,0.35171,1.03975
199.804,26.04852,101.158,0.35684,1.03847
203.004,26.3544,101.15,0.36343,1.03718
206.204,26.66,101.15,0.36845,1.03586
209.404,26.9657,101.184,0.37547,1.03452
212.604,27.2713,101.184,0.38546,1.03316
215.804,27.577,101.183,0.39243,1.03178
219.004,27.8827,101.175,0.40522,1.03038
222.204,28.189,101.141,0.42123,1.02896
225.404,28.4939,101.074,0.43822,1.02752
228.604,28.79996,101.074,0.4342,1.02606
231.804,29.104,101.074,0.42359,1.02458
235.004,29.4081,101.041,0.42764,1.02307
238.204,29.7126,101.074,0.4405,1.02155
241.404,30.01769,101.009,0.46047,1.02001
244.604,30.32325,100.982,0.49208,1.01845
247.804,30.62906,100.94,0.56049,1.01688
251.004,30.9364,100.94,0.8097,1.01528
254.204,31.24581,100.889,1.09607,1.01366
257.404,31.55442,100.84,0.93889,1.01202
260.604,31.85985,100.814,0.65675,1.01037
263.804,32.1643,100.781,0.52564,1.00869
267.004,32.469,100.739,0.46553,1.007
270.204,32.7742,100.772,0.44395,1.00529
273.404,33.0794,100.714,0.43706,1.00356
276.604,33.3849,100.659,0.43894,1.00181
279.804,33.6911,100.621,0.44044,1.00005
283.004,33.99712,100.554,0.44144,0.99826
286.204,34.30318,100.491,0.44155,0.99646
289.404,34.6096,100.383,0.4412,0.99464
292.604,34.9162,100.319,0.44047,0.9928
295.804,35.22251,100.232,0.4402,0.99095
299.004,35.52896,100.09,0.43863,0.98908
302.204,35.83511,100.038,0.4352,0.98719
305.404,36.14195,99.98878,0.43007,0.98528
308.604,36.44941,99.91327,0.42846,0.98335
311.804,36.7564,99.85462,0.42982,0.98141
315.004,37.0641,99.76303,0.4271,0.97946
318.204,37.37153,99.64454,0.43337,0.97748
321.404,37.6798,99.61099,0.43514,0.97549
324.604,37.98914,99.54388,0.43787,0.97348
327.804,38.29759,99.47837,0.44954,0.97146
331.004,38.60635,99.37535,0.46335,0.96942
334.204,38.91468,99.27526,0.47623,0.96737
337.404,39.2233,99.1835,0.48221,0.96529
340.604,39.53265,99.0395,0.48148,0.96321
343.804,39.8425,98.8333,0.47863,0.9611
347.004,40.1524,98.6542,0.47941,0.95899
350.204,40.46291,98.41909,0.4764,0.95685
353.404,40.7736,98.24189,0.47858,0.95471
356.604,41.08569,97.99368,0.47531,0.95254
359.804,41.39836,97.70876,0.4767,0.95036
363.004,41.71093,97.38081,0.47295,0.94817
366.204,42.0233,97.06097,0.47889,0.94596
369.404,42.3348,96.71986,0.4759,0.94374
372.604,42.64583,96.33968,0.47529,0.94151
375.804,42.95667,95.98585,0.47253,0.93925
379.004,43.26786,95.6492,0.46796,0.93699
382.204,43.5788,95.25461,0.45607,0.93471
385.404,43.88989,94.93845,0.46008,0.93242
388.604,44.20021,94.40329,0.4709,0.93011
391.804,44.5122,93.90414,0.49131,0.9278
395.004,44.8243,93.20619,0.5114,0.92546
398.204,45.13644,92.38418,0.47233,0.92312
401.404,45.4486,91.36143,0.46069,0.92076
404.604,45.761,90.15781,0.4654,0.91839
407.804,46.07354,88.65675,0.48579,0.916
411.004,46.38629,86.85374,0.51562,0.91361
414.204,46.69921,84.6053,0.5578,0.9112
417.404,47.01235,81.83507,0.61122,0.90878
420.604,47.32611,78.57887,0.67109,0.90634
423.804,47.63895,74.8351,0.71278,0.9039
427.004,47.95212,70.56426,0.74126,0.90144
430.204,48.26457,65.94703,0.75779,0.89897
433.404,48.57712,61.0662,0.76667,0.89649
436.604,48.89051,55.8459,0.75825,0.894
439.804,49.20348,50.4632,0.72377,0.8915
443.004,49.51753,45.04484,0.66195,0.88898
446.204,49.83076,40.11932,0.57976,0.88646
449.404,50.14403,36.2935,0.48898,0.88392
452.604,50.45691,33.48017,0.40324,0.88137
455.804,50.76934,31.41116,0.34341,0.87882
459.004,51.08206,29.82135,0.29743,0.87625
462.204,51.39648,28.56255,0.24805,0.87367
465.404,51.7118,27.4596,0.19907,0.87108
468.604,52.02773,26.5304,0.15594,0.86849
471.804,52.3449,25.87315,0.11333,0.86588
475.004,52.6625,25.35211,0.0870036,0.86326
478.204,52.9781,24.9254,0.12595,0.86063
481.404,53.2935,24.6615,0.16146,0.858
484.604,53.6095,24.4125,0.15713,0.85535
487.804,53.9255,24.24236,0.15142,0.8527
491.004,54.24176,24.07039,0.1266,0.85004
494.204,54.5586,23.96988,0.10544,0.84736
497.404,54.8758,23.83204,0.09763252,0.84468
500.604,55.19209,23.74059,0.07580747,0.842
503.804,55.50955,23.63944,0.03545519,0.8393
507.004,55.8266,23.589,0.05256126,0.83659
510.204,56.14355,23.53036,0.04569485,0.83388
513.404,56.46071,23.42959,0.04216458,0.83116
516.604,56.77751,23.36523,0.04072242,0.82843
519.804,57.0952,23.29541,0.03700797,0.82569
523.004,57.41254,23.329,0.03090766,0.82295
526.204,57.7304,23.26224,0.03055947,0.8202
529.404,58.048,23.16105,0.03173999,0.81744
532.604,58.36615,23.19439,0.02963141,0.81467
535.804,58.68481,23.12734,0.03287458,0.8119
539.004,59.00348,23.10204,0.03725488,0.80912
542.204,59.3226,23.09098,0.04015416,0.80634
545.404,59.6419,23.00153,0.0461604,0.80355
548.604,59.9619,22.95682,0.05069223,0.80075
551.804,60.2814,22.94416,0.05173115,0.79794
555.004,60.60095,22.89235,0.06022476,0.79513
558.204,60.91981,22.89234,0.0665646,0.79232
561.404,61.2394,22.8168,0.07216423,0.7895
564.604,61.55837,22.79725,0.07757247,0.78667
567.804,61.8778,22.75789,0.0826624,0.78384
571.004,62.19667,22.67441,0.08888012,0.781
574.204,62.5166,22.63121,0.08555252,0.77816
577.404,62.83653,22.5108,0.08337923,0.77531
580.604,63.15625,22.43066,0.07495896,0.77246
583.804,63.4769,22.38079,0.08038234,0.7696
587.004,63.7984,22.34639,0.07286338,0.76674
590.204,64.11878,22.34668,0.07057122,0.76387
593.404,64.441,22.27992,0.07377538,0.761
596.604,64.76218,22.27125,0.07094,0.75813
599.804,65.0827,22.21317,0.06521504,0.75525
603.004,65.40262,22.1817,0.06205561,0.75237
606.204,65.72391,22.15371,0.06056084,0.74948
609.404,66.04475,22.1115,0.05659396,0.74659
612.604,66.3655,22.07593,0.05610977,0.7437
615.804,66.6863,22.0778,0.05109938,0.7408
619.004,67.00754,22.0612,0.0532279,0.7379
622.204,67.3288,21.99413,0.05221798,0.735
625.404,67.64985,21.9442,0.05349735,0.73209
628.604,67.97148,21.91837,0.04988656,0.72918
631.804,68.29395,21.84311,0.0503175,0.72627
635.004,68.61554,21.81656,0.04724691,0.72336
638.204,68.93672,21.78418,0.04621896,0.72044
641.404,69.25708,21.72073,0.04706657,0.71752
644.604,69.5793,21.71709,0.04175685,0.7146
647.804,69.90018,21.70016,0.04047592,0.71168
651.004,70.2219,21.6497,0.03605938,0.70876
654.204,70.54451,21.58049,0.03501719,0.70583
657.404,70.8674,21.56897,0.03149918,0.7029
660.604,71.1904,21.56607,0.03088126,0.69997
663.804,71.51265,21.54082,0.02865486,0.69704
667.004,71.83545,21.5324,0.02776446,0.69411
670.204,72.15857,21.50714,0.02229352,0.69118
673.404,72.48096,21.49898,0.02635695,0.68825
676.604,72.80417,21.4906,0.02919128,0.68531
679.804,73.12817,21.52423,0.02615575,0.68238
683.004,73.45283,21.49898,0.02210597,0.67944
686.204,73.77815,21.5254,0.02310256,0.6765
689.404,74.1024,21.43171,0.01771409,0.67357
692.604,74.426,21.42321,0.02061544,0.67063
695.804,74.75,21.39803,-0.01077925,0.66769
699.004,75.0733,21.41799,-0.02140556,0.66476
702.204,75.39596,21.40663,-0.02655788,0.66182
705.404,75.7187,21.33923,-0.02768414,0.65888
708.604,76.04097,21.33922,-0.03430732,0.65595
711.804,76.36285,21.3392,-0.03644221,0.65301
715.004,76.68563,21.37296,-0.04344104,0.65008
718.204,77.0094,21.33929,-0.04494899,0.64714
721.404,77.33328,21.32307,-0.04856325,0.64421
724.604,77.6572,21.3032,-0.05587337,0.64128
727.804,77.98175,21.30568,-0.05764587,0.63835
731.004,78.30579,21.34771,-0.06453326,0.63542
734.204,78.62852,21.33929,-0.06796221,0.63249
737.404,78.9522,21.37296,-0.0720312,0.62956
740.604,79.27561,21.34771,-0.07496081,0.62664
743.804,79.6002,21.3727,-0.08274164,0.62371
747.004,79.92503,21.34151,-0.08564256,0.62079
750.204,80.2492,21.33124,-0.09190459,0.61787
753.404,80.57359,21.26377,-0.09223907,0.61495
756.604,80.89777,21.24324,-0.09913579,0.61203
759.804,81.22156,21.1965,-0.09999772,0.60912
763.004,81.54587,21.17136,-0.11058,0.60621
766.204,81.86941,21.16301,-0.1152,0.6033
769.404,82.19418,21.15485,-0.12403,0.60039
772.604,82.51924,21.1883,-0.12742,0.59749
775.804,82.8437,21.29992,-0.12611,0.59458
779.004,83.1678,21.36453,-0.12457,0.59168
782.204,83.4931,21.3343,-0.1223,0.58879
785.404,83.8185,21.33275,-0.13165,0.5859
788.604,84.14389,21.19707,-0.13562,0.58301
791.804,84.4692,21.14782,-0.13716,0.58012
795.004,84.7932,21.0457,-0.14535,0.57723
797.004,84.99579,21.01202,-0.14746,0.57543