Folder: fsri_materials_database/01_Data/Fiberglas_Insulation3A/MCC

Note: 01_Data/README.md
# Materials and Products Database
## 01_Data

Raw data generated from each apparatus are included here in plain-text format. The data is organized first by material, next by the short name of test apparatus used, and where applicable additional filtering by test settings.

### material.json

Each material directory contains a json file of the same name as the material. This file links the data stored in the repository as well as data and graphs produced by the accompanying scripts (__02_Scripts__) to the respective landing page for the material on the front-end website.

File: Fiberglas_Insulation3A_MCC_30K_min_220218_R2.txt
Sample ID:	C:\MCC\MCC Cal\Test\Fiberglas_Insulation3A_MCC_30K_min_220218_R2.txt
Sample Weight (mg):	4.78
Heating Rate (C/s):	0.5
Combustor Temp (C):	900
N2 Flow Rate (cc/min):	80
O2 Flow Rate (cc/min):	20
Calibration File:	C:\MCC\MCC Cal\Coeff1 JN10440_30_210304.txt.txt
T Correction Coefficients:	0	1.024463	0
Time Shift (s):	14
*
Time (s)	Temperature (C)	N2 flow rate (cc/min)	O2 flow rate (cc/min)	Flow Rate (cc/min)	Oxygen (%)	HRR (W/g)	Heating rate (C/s)
0.000	113.134	80.004	19.997	103.689	19.966	-0.087	-0.030
8.000	113.158	80.003	19.994	103.689	19.960	0.341	-0.019
16.001	113.217	80.006	19.995	103.777	19.951	0.957	0.017
24.000	113.541	80.007	19.993	103.855	19.933	2.132	0.063
32.000	114.404	80.008	19.993	103.894	19.925	2.706	0.136
40.000	115.761	80.007	19.992	103.889	19.919	3.087	0.187
48.001	117.442	80.007	19.995	103.906	19.917	3.235	0.224
56.000	119.384	80.005	19.994	103.946	19.913	3.530	0.266
64.001	121.757	80.005	19.993	103.950	19.909	3.813	0.320
72.000	124.388	80.005	19.995	103.962	19.899	4.488	0.331
80.000	127.360	80.005	19.994	103.956	19.896	4.652	0.364
88.000	130.551	80.004	19.994	103.993	19.899	4.495	0.422
96.000	133.966	80.006	19.996	103.977	19.896	4.669	0.434
104.000	137.541	80.006	19.994	103.953	19.894	4.771	0.470
112.000	141.285	80.004	19.992	103.955	19.894	4.790	0.478
120.000	145.163	80.006	19.992	103.957	19.897	4.593	0.483
128.000	149.116	80.009	19.993	103.954	19.895	4.702	0.521
136.000	153.129	80.005	19.995	104.013	19.894	4.796	0.513
144.000	157.093	80.006	19.994	103.955	19.891	4.992	0.502
152.000	161.129	80.005	19.994	103.945	19.892	4.923	0.544
160.000	165.205	80.004	19.993	103.933	19.889	5.148	0.495
168.000	169.275	80.004	19.995	103.918	19.894	4.817	0.482
176.000	173.285	80.005	19.993	103.949	19.893	4.842	0.477
184.000	177.304	80.007	19.993	103.904	19.895	4.739	0.512
192.000	181.266	80.006	19.995	103.939	19.893	4.899	0.492
200.000	185.280	80.007	19.995	103.932	19.889	5.139	0.520
208.000	189.297	80.008	19.991	103.915	19.887	5.278	0.511
216.001	193.214	80.006	19.992	103.916	19.886	5.368	0.530
224.000	197.128	80.004	19.992	103.916	19.878	5.852	0.528
232.000	201.014	80.004	19.993	103.914	19.879	5.817	0.498
240.000	204.946	80.005	19.994	103.924	19.872	6.284	0.484
248.000	208.924	80.005	19.994	103.907	19.865	6.793	0.493
256.000	212.856	80.005	19.994	103.918	19.861	7.054	0.504
264.000	216.789	80.005	19.995	103.893	19.855	7.445	0.512
272.000	220.830	80.007	19.996	103.900	19.848	7.935	0.483
280.000	224.810	80.006	19.993	103.913	19.842	8.344	0.510
288.000	228.840	80.008	19.994	103.888	19.840	8.486	0.541
296.000	232.848	80.007	19.992	103.872	19.830	9.110	0.495
304.000	236.910	80.005	19.994	103.883	19.820	9.830	0.564
312.000	240.822	80.006	19.993	103.918	19.815	10.167	0.469
320.000	244.884	80.007	19.994	103.902	19.814	10.216	0.522
328.000	248.935	80.006	19.995	103.868	19.795	11.506	0.533
336.000	252.991	80.005	19.993	103.876	19.786	12.125	0.489
344.000	256.991	80.005	19.994	103.914	19.778	12.662	0.514
352.000	260.944	80.006	19.994	103.897	19.763	13.654	0.505
360.000	264.980	80.005	19.995	103.917	19.754	14.304	0.527
368.000	268.906	80.007	19.994	103.881	19.742	15.099	0.464
376.000	272.927	80.008	19.994	103.904	19.723	16.380	0.499
384.000	276.894	80.004	19.993	103.913	19.708	17.422	0.482
392.000	280.850	80.006	19.994	103.920	19.690	18.640	0.506
400.000	284.788	80.005	19.995	103.934	19.666	20.242	0.509
408.000	288.751	80.005	19.993	103.949	19.649	21.459	0.506
416.000	292.696	80.004	19.994	103.958	19.620	23.366	0.473
424.000	296.700	80.003	19.993	103.960	19.595	25.092	0.491
432.000	300.758	80.006	19.994	103.975	19.564	27.207	0.527
440.000	304.762	80.006	19.994	103.991	19.530	29.492	0.479
448.000	308.830	80.007	19.994	103.988	19.496	31.852	0.526
456.000	312.892	80.005	19.994	104.010	19.454	34.699	0.525
464.000	316.979	80.005	19.994	104.008	19.411	37.588	0.519
472.000	321.012	80.006	19.993	104.035	19.362	40.911	0.573
480.000	325.037	80.004	19.993	104.043	19.310	44.499	0.474
488.000	329.185	80.004	19.994	104.075	19.249	48.631	0.533
496.000	333.256	80.004	19.994	104.073	19.184	53.061	0.523
504.000	337.266	80.005	19.994	104.076	19.113	57.894	0.485
512.000	341.334	80.008	19.994	104.155	19.042	62.719	0.562
520.000	345.287	80.006	19.993	104.123	18.966	67.890	0.455
528.000	349.360	80.006	19.994	104.136	18.903	72.174	0.474
536.000	353.415	80.008	19.994	104.149	18.856	75.358	0.536
544.000	357.441	80.006	19.994	104.148	18.834	76.788	0.501
552.000	361.519	80.004	19.994	104.099	18.852	75.539	0.527
560.000	365.579	80.005	19.994	104.041	18.929	70.280	0.513
568.000	369.662	80.006	19.993	103.984	19.050	62.030	0.503
576.000	373.773	80.006	19.993	103.944	19.205	51.494	0.527
584.000	377.822	80.005	19.994	103.863	19.366	40.575	0.536
592.000	381.879	80.006	19.993	103.834	19.494	31.883	0.476
600.000	385.955	80.007	19.993	103.845	19.573	26.550	0.503
608.000	389.942	80.006	19.993	103.841	19.608	24.193	0.504
616.000	394.006	80.007	19.993	103.840	19.607	24.235	0.499
624.000	398.099	80.009	19.994	103.837	19.602	24.595	0.497
632.000	402.167	80.005	19.994	103.834	19.589	25.493	0.522
640.000	406.159	80.005	19.994	103.849	19.575	26.389	0.480
648.000	410.289	80.005	19.995	103.854	19.555	27.779	0.522
656.000	414.362	80.006	19.995	103.824	19.532	29.296	0.485
664.000	418.389	80.004	19.995	103.868	19.514	30.593	0.517
672.000	422.545	80.006	19.993	103.889	19.489	32.277	0.490
680.000	426.718	80.008	19.994	103.833	19.464	33.924	0.512
688.000	430.806	80.007	19.994	103.834	19.440	35.585	0.485
696.000	434.905	80.007	19.993	103.841	19.418	37.063	0.519
704.000	438.964	80.009	19.994	103.808	19.392	38.803	0.503
712.000	442.923	80.006	19.993	103.809	19.382	39.514	0.494
720.000	446.830	80.007	19.995	103.833	19.374	40.065	0.475
728.000	450.787	80.006	19.994	103.805	19.375	39.970	0.520
736.000	454.801	80.006	19.992	103.805	19.379	39.721	0.535
744.000	458.758	80.003	19.992	103.826	19.403	38.055	0.511
752.000	462.783	80.023	20.002	103.837	19.428	36.387	0.492
760.000	466.857	80.014	19.996	103.851	19.460	34.210	0.510
768.000	470.923	80.007	19.993	103.832	19.503	31.269	0.530
776.000	475.009	80.006	19.993	103.827	19.546	28.367	0.517
784.000	479.065	80.008	19.993	103.850	19.597	24.932	0.490
792.000	483.207	80.007	19.993	103.822	19.631	22.592	0.490
800.000	487.388	80.006	19.993	103.811	19.667	20.214	0.496
808.000	491.553	80.005	19.992	103.847	19.693	18.447	0.524
816.000	495.725	80.005	19.993	103.862	19.717	16.815	0.559
824.000	499.837	80.005	19.993	103.839	19.737	15.448	0.529
832.000	503.929	80.004	19.993	103.831	19.745	14.900	0.496
840.000	507.943	80.005	19.994	103.837	19.756	14.180	0.474
848.000	512.061	80.008	19.994	103.832	19.764	13.638	0.509
856.000	516.108	80.008	19.995	103.816	19.770	13.202	0.489
864.000	520.158	80.010	19.993	103.870	19.774	12.951	0.471
872.001	524.278	80.009	19.993	103.844	19.778	12.634	0.513
880.000	528.391	80.006	19.993	103.852	19.775	12.857	0.523
888.000	532.491	80.006	19.993	103.835	19.778	12.667	0.516
896.000	536.595	80.006	19.992	103.828	19.782	12.383	0.527
904.000	540.673	80.005	19.992	103.844	19.781	12.463	0.502
912.000	544.780	80.007	19.994	103.840	19.779	12.581	0.529
920.000	548.933	80.006	19.995	103.842	19.777	12.694	0.550
928.000	553.025	80.008	19.993	103.833	19.780	12.542	0.492
936.000	557.229	80.006	19.994	103.833	19.780	12.535	0.518
944.000	561.401	80.006	19.994	103.845	19.778	12.636	0.535
952.000	565.529	80.008	19.993	103.837	19.776	12.771	0.505
960.000	569.681	80.006	19.993	103.835	19.786	12.129	0.554
968.000	573.854	80.007	19.993	103.836	19.787	12.018	0.540
976.000	578.053	80.005	19.994	103.821	19.785	12.215	0.484
984.000	582.182	80.007	19.994	103.838	19.781	12.430	0.506
992.000	586.232	80.006	19.992	103.838	19.779	12.607	0.497
1000.000	590.367	80.006	19.994	103.817	19.777	12.741	0.500
1008.000	594.494	80.008	19.994	103.817	19.780	12.518	0.537
1016.000	598.520	80.007	19.994	103.839	19.773	13.007	0.505
1024.000	602.587	80.006	19.993	103.827	19.776	12.763	0.500
1032.000	606.659	80.008	19.993	103.833	19.776	12.775	0.520
1040.000	610.688	80.007	19.995	103.827	19.775	12.868	0.497
1048.000	614.753	80.005	19.993	103.834	19.778	12.630	0.532
1056.000	618.763	80.007	19.995	103.825	19.776	12.782	0.505
1064.000	622.783	80.007	19.992	103.835	19.772	13.041	0.528
1072.001	626.835	80.008	19.994	103.843	19.771	13.142	0.526
1080.000	630.912	80.007	19.994	103.838	19.772	13.036	0.529
1088.000	635.068	80.007	19.993	103.839	19.768	13.358	0.548
1096.001	639.257	80.008	19.992	103.862	19.765	13.548	0.499
1104.000	643.319	80.008	19.992	103.860	19.763	13.697	0.504
1112.000	647.463	80.006	19.993	103.859	19.769	13.255	0.501
1120.000	651.590	80.009	19.993	103.843	19.761	13.792	0.517
1128.000	655.683	80.009	19.994	103.874	19.761	13.821	0.509
1136.000	659.801	80.007	19.995	103.905	19.760	13.913	0.525
1144.000	663.831	80.006	19.994	103.895	19.756	14.179	0.498
1152.000	667.940	80.005	19.993	103.911	19.753	14.381	0.534
1160.001	671.925	80.006	19.993	103.893	19.745	14.923	0.508
1168.000	675.990	80.008	19.993	103.901	19.745	14.875	0.527
1176.000	680.064	80.007	19.993	103.905	19.745	14.879	0.502
1184.001	684.083	80.008	19.993	103.921	19.743	15.025	0.523
1192.000	688.135	80.007	19.993	103.910	19.739	15.327	0.486
1200.000	692.112	80.007	19.993	103.921	19.741	15.204	0.448
1208.000	696.176	80.009	19.993	103.951	19.735	15.583	0.486
1216.000	700.312	80.007	19.994	103.953	19.732	15.823	0.517
1224.001	704.399	80.006	19.993	103.944	19.730	15.935	0.526
1232.001	708.487	80.006	19.993	103.937	19.726	16.201	0.527
1240.001	712.542	80.006	19.994	103.916	19.726	16.165	0.528
1248.000	716.644	80.006	19.994	103.891	19.729	16.006	0.489
1256.000	720.707	80.006	19.994	103.892	19.733	15.707	0.512
1264.000	724.822	80.008	19.993	103.836	19.744	14.956	0.516
1272.001	728.854	80.007	19.993	103.833	19.747	14.770	0.511
1280.000	732.943	80.007	19.994	103.843	19.748	14.676	0.527
1288.000	736.976	80.009	19.993	103.840	19.741	15.176	0.506
1296.000	740.993	80.008	19.992	103.831	19.742	15.111	0.492
1304.000	745.096	80.006	19.994	103.855	19.743	15.005	0.496
1304.500	745.326	80.007	19.993	103.856	19.743	15.010	0.504

File: Fiberglas_Insulation3A_MCC_30K_min_220221_R3.txt
Sample ID:	C:\MCC\MCC Cal\Test\Fiberglas_Insulation3A_MCC_30K_min_220221_R3.txt
Sample Weight (mg):	4.46
Heating Rate (C/s):	0.5
Combustor Temp (C):	900
N2 Flow Rate (cc/min):	80
O2 Flow Rate (cc/min):	20
Calibration File:	C:\MCC\MCC Cal\Coeff1 JN10440_30_210304.txt.txt
T Correction Coefficients:	0	1.024463	0
Time Shift (s):	14
*
Time (s)	Temperature (C)	N2 flow rate (cc/min)	O2 flow rate (cc/min)	Flow Rate (cc/min)	Oxygen (%)	HRR (W/g)	Heating rate (C/s)
-0.001	114.143	80.009	19.994	103.667	19.896	-0.139	-0.022
7.500	114.118	80.009	19.994	103.665	19.892	0.098	0.007
15.000	114.185	80.007	19.992	103.738	19.886	0.589	0.051
22.500	114.425	80.010	19.993	103.776	19.880	1.008	0.053
30.000	115.006	80.010	19.992	103.809	19.872	1.565	0.097
37.499	115.885	80.007	19.993	103.845	19.869	1.789	0.141
44.999	117.153	80.007	19.993	103.880	19.861	2.401	0.203
52.499	118.842	80.009	19.993	103.908	19.858	2.565	0.222
60.000	120.876	80.007	19.994	103.911	19.854	2.850	0.292
67.499	123.172	80.004	19.994	103.938	19.855	2.815	0.303
74.999	125.829	80.005	19.995	103.940	19.854	2.868	0.386
82.500	128.684	80.007	19.995	103.941	19.856	2.738	0.414
89.999	131.820	80.009	19.994	103.935	19.852	3.025	0.439
97.499	135.063	80.007	19.993	103.939	19.849	3.259	0.445
104.999	138.470	80.011	19.992	103.944	19.851	3.116	0.444
112.499	142.006	80.009	19.993	103.945	19.850	3.159	0.421
119.999	145.684	80.008	19.993	103.934	19.855	2.828	0.481
127.499	149.466	80.008	19.992	103.930	19.854	2.903	0.517
135.000	153.239	80.009	19.991	103.928	19.855	2.814	0.473
142.500	156.989	80.006	19.994	103.906	19.858	2.602	0.492
150.000	160.821	80.007	19.993	103.909	19.860	2.444	0.548
157.500	164.734	80.008	19.993	103.903	19.859	2.540	0.547
165.000	168.514	80.008	19.994	103.903	19.859	2.534	0.481
172.500	172.267	80.006	19.993	103.895	19.860	2.408	0.479
180.000	176.082	80.007	19.994	103.885	19.862	2.268	0.496
187.500	179.828	80.010	19.992	103.889	19.863	2.204	0.515
195.000	183.553	80.009	19.992	103.871	19.862	2.296	0.498
202.500	187.275	80.008	19.993	103.867	19.859	2.534	0.484
210.000	190.972	80.009	19.992	103.868	19.860	2.439	0.507
217.500	194.659	80.007	19.993	103.866	19.858	2.591	0.516
225.000	198.290	80.008	19.993	103.867	19.856	2.764	0.474
232.500	201.940	80.009	19.992	103.861	19.851	3.122	0.466
240.000	205.613	80.010	19.993	103.867	19.850	3.157	0.493
247.500	209.292	80.007	19.993	103.865	19.845	3.515	0.472
255.000	212.989	80.007	19.993	103.869	19.844	3.577	0.474
262.500	216.652	80.007	19.994	103.857	19.841	3.836	0.465
270.000	220.383	80.009	19.993	103.845	19.841	3.846	0.490
277.500	224.064	80.006	19.993	103.839	19.834	4.347	0.500
285.000	227.792	80.008	19.993	103.850	19.830	4.613	0.500
292.500	231.579	80.007	19.993	103.852	19.826	4.935	0.503
300.000	235.307	80.007	19.993	103.853	19.817	5.576	0.456
307.500	239.046	80.007	19.993	103.857	19.810	6.089	0.478
315.000	242.770	80.008	19.993	103.857	19.804	6.502	0.502
322.500	246.575	80.009	19.992	103.863	19.798	6.933	0.514
330.000	250.423	80.010	19.993	103.841	19.792	7.369	0.542
337.500	254.180	80.008	19.993	103.850	19.782	8.120	0.502
345.000	257.974	80.011	19.994	103.857	19.778	8.401	0.520
352.500	261.772	80.010	19.993	103.858	19.767	9.176	0.529
360.000	265.510	80.007	19.993	103.848	19.759	9.783	0.481
367.500	269.242	80.006	19.994	103.849	19.748	10.584	0.492
375.000	273.016	80.007	19.993	103.868	19.738	11.337	0.474
382.500	276.731	80.008	19.994	103.875	19.726	12.168	0.479
390.000	280.514	80.008	19.993	103.881	19.709	13.409	0.503
397.500	284.275	80.008	19.992	103.883	19.693	14.603	0.501
405.000	287.968	80.009	19.993	103.876	19.676	15.850	0.511
412.500	291.805	80.009	19.993	103.898	19.653	17.505	0.503
420.000	295.571	80.008	19.994	103.905	19.632	19.036	0.523
427.500	299.325	80.009	19.993	103.907	19.609	20.713	0.519
435.000	303.100	80.008	19.994	103.909	19.583	22.567	0.517
442.500	306.890	80.006	19.994	103.929	19.555	24.658	0.523
450.000	310.678	80.007	19.993	103.945	19.525	26.823	0.523
457.500	314.451	80.008	19.993	103.943	19.489	29.455	0.507
465.000	318.217	80.008	19.994	103.955	19.454	32.015	0.534
472.500	321.948	80.006	19.993	103.960	19.417	34.666	0.497
480.000	325.757	80.009	19.993	103.981	19.371	38.016	0.520
487.500	329.544	80.008	19.993	103.991	19.322	41.615	0.508
495.000	333.282	80.009	19.992	104.006	19.273	45.131	0.500
502.500	337.044	80.009	19.994	104.024	19.217	49.236	0.479
510.000	340.836	80.010	19.992	104.050	19.156	53.693	0.516
517.500	344.594	80.009	19.992	104.063	19.087	58.719	0.513
525.000	348.331	80.008	19.993	104.062	19.028	63.026	0.496
532.500	352.131	80.006	19.993	104.072	18.969	67.333	0.514
540.000	355.938	80.007	19.992	104.066	18.920	70.894	0.493
547.500	359.697	80.008	19.994	104.062	18.905	71.934	0.513
555.000	363.517	80.004	19.995	104.034	18.920	70.798	0.534
562.500	367.328	80.004	19.995	103.991	18.980	66.383	0.514
570.000	371.177	80.008	19.993	103.932	19.094	58.086	0.516
577.500	375.033	80.007	19.992	103.868	19.246	47.059	0.522
585.000	378.898	80.008	19.994	103.827	19.409	35.208	0.529
592.500	382.724	80.010	19.993	103.787	19.538	25.827	0.520
600.000	386.503	80.009	19.992	103.786	19.614	20.299	0.506
607.500	390.287	80.008	19.993	103.784	19.648	17.858	0.489
615.000	394.092	80.008	19.993	103.786	19.656	17.280	0.503
622.500	397.916	80.008	19.995	103.789	19.656	17.264	0.521
630.000	401.609	80.008	19.993	103.781	19.644	18.137	0.480
637.500	405.377	80.006	19.993	103.792	19.638	18.595	0.484
645.000	409.121	80.006	19.994	103.772	19.621	19.780	0.516
652.500	412.849	80.008	19.993	103.782	19.608	20.720	0.501
660.000	416.558	80.006	19.993	103.768	19.589	22.120	0.538
667.500	420.284	80.007	19.994	103.777	19.566	23.763	0.500
675.000	424.000	80.011	19.993	103.773	19.548	25.119	0.505
682.500	427.814	80.011	19.994	103.772	19.529	26.460	0.532
690.000	431.604	80.007	19.993	103.762	19.510	27.877	0.533
697.500	435.443	80.009	19.994	103.771	19.490	29.299	0.498
705.000	439.353	80.007	19.993	103.769	19.471	30.701	0.512
712.500	443.336	80.007	19.994	103.757	19.454	31.939	0.528
720.000	447.292	80.009	19.994	103.752	19.439	32.974	0.553
727.500	451.298	80.010	19.994	103.759	19.430	33.681	0.535
735.000	455.250	80.008	19.994	103.747	19.429	33.701	0.542
742.500	459.208	80.007	19.993	103.743	19.437	33.135	0.543
750.000	463.163	80.008	19.994	103.741	19.460	31.460	0.522
757.500	467.069	80.009	19.993	103.747	19.489	29.354	0.501
765.000	470.542	80.009	19.994	103.746	19.531	26.323	0.454
772.500	474.798	80.006	19.993	103.750	19.577	23.007	0.545
780.000	478.587	80.008	19.994	103.755	19.625	19.516	0.520
787.500	482.387	80.007	19.995	103.756	19.665	16.600	0.510
795.000	486.227	80.007	19.992	103.752	19.709	13.375	0.539
802.500	490.095	80.007	19.994	103.752	19.738	11.290	0.512
810.000	493.950	80.008	19.993	103.754	19.765	9.312	0.537
817.500	497.779	80.009	19.993	103.755	19.783	8.013	0.496
825.000	501.561	80.008	19.994	103.750	19.802	6.642	0.486
832.500	505.248	80.007	19.993	103.766	19.815	5.735	0.501
840.000	508.971	80.009	19.994	103.757	19.825	5.017	0.448
847.500	512.747	80.008	19.994	103.756	19.828	4.768	0.498
855.000	516.611	80.008	19.994	103.758	19.835	4.232	0.517
862.500	520.447	80.008	19.994	103.757	19.838	4.049	0.539
870.000	524.268	80.009	19.994	103.749	19.845	3.556	0.494
877.500	528.197	80.008	19.993	103.754	19.845	3.519	0.543
885.000	532.121	80.007	19.993	103.753	19.847	3.379	0.497
892.500	536.009	80.008	19.993	103.752	19.852	3.016	0.506
900.000	539.896	80.009	19.992	103.751	19.855	2.831	0.488
907.500	543.835	80.008	19.994	103.754	19.853	2.934	0.489
915.000	547.704	80.009	19.994	103.749	19.855	2.820	0.541
922.500	551.518	80.009	19.994	103.761	19.855	2.782	0.485
930.000	555.398	80.007	19.994	103.748	19.855	2.820	0.513
937.500	559.159	80.006	19.994	103.747	19.854	2.867	0.523
945.000	562.974	80.005	19.995	103.749	19.855	2.828	0.498
952.500	566.763	80.007	19.993	103.759	19.856	2.749	0.533
960.000	570.628	80.008	19.993	103.754	19.858	2.571	0.519
967.500	574.594	80.008	19.994	103.765	19.861	2.394	0.563
975.000	578.486	80.008	19.994	103.758	19.858	2.562	0.543
982.500	582.495	80.010	19.994	103.758	19.858	2.555	0.553
990.000	586.428	80.009	19.993	103.751	19.860	2.427	0.537
997.500	590.399	80.010	19.993	103.754	19.860	2.474	0.531
1005.000	594.375	80.010	19.994	103.758	19.859	2.523	0.561
1012.500	598.306	80.008	19.993	103.748	19.857	2.692	0.533
1020.000	602.176	80.006	19.993	103.752	19.857	2.664	0.518
1027.499	606.030	80.008	19.993	103.741	19.858	2.557	0.528
1034.999	609.814	80.006	19.994	103.752	19.861	2.382	0.498
1042.499	613.675	80.008	19.995	103.750	19.860	2.464	0.539
1049.999	617.499	80.007	19.994	103.748	19.862	2.295	0.487
1057.499	621.260	80.010	19.992	103.751	19.861	2.378	0.526
1065.002	624.989	80.009	19.994	103.747	19.864	2.134	0.492
1072.500	628.715	80.009	19.993	103.747	19.863	2.242	0.526
1080.000	632.432	80.010	19.993	103.762	19.858	2.596	0.504
1087.500	636.152	80.011	19.994	103.752	19.859	2.500	0.475
1095.000	639.900	80.007	19.993	103.784	19.857	2.628	0.516
1102.500	643.703	80.007	19.995	103.760	19.861	2.380	0.510
1110.000	647.504	80.008	19.994	103.775	19.859	2.542	0.501
1117.500	651.339	80.008	19.994	103.776	19.858	2.593	0.531
1125.000	655.205	80.006	19.994	103.784	19.853	2.940	0.513
1132.500	659.070	80.007	19.995	103.786	19.855	2.772	0.498
1140.000	662.880	80.010	19.994	103.786	19.849	3.229	0.506
1147.500	666.722	80.010	19.992	103.789	19.850	3.167	0.490
1155.000	670.596	80.009	19.994	103.789	19.849	3.246	0.496
1162.500	674.476	80.009	19.993	103.817	19.853	2.928	0.543
1170.000	678.347	80.011	19.991	103.815	19.847	3.401	0.522
1177.500	682.143	80.009	19.992	103.818	19.843	3.657	0.526
1185.000	685.903	80.007	19.993	103.827	19.843	3.676	0.513
1192.500	689.598	80.008	19.993	103.828	19.842	3.773	0.498
1200.000	693.303	80.008	19.993	103.827	19.842	3.774	0.528
1207.500	697.043	80.006	19.994	103.843	19.841	3.856	0.517
1215.000	700.858	80.008	19.994	103.923	19.844	3.603	0.518
1222.500	704.687	80.009	19.994	103.847	19.839	4.001	0.513
1230.000	708.543	80.008	19.994	103.864	19.842	3.755	0.537
1237.500	712.351	80.008	19.993	103.847	19.841	3.853	0.492
1245.000	716.298	80.012	19.993	103.825	19.840	3.872	0.541
1252.500	720.125	80.010	19.991	103.799	19.840	3.898	0.483
1260.000	723.999	80.008	19.993	103.787	19.847	3.411	0.511
1267.500	727.835	80.009	19.994	103.767	19.849	3.205	0.512
1275.000	731.676	80.007	19.994	103.756	19.851	3.100	0.520
1282.500	735.534	80.007	19.993	103.752	19.849	3.271	0.495
1290.000	739.358	80.007	19.992	103.745	19.852	3.004	0.533
1297.500	743.253	80.007	19.994	103.749	19.852	3.029	0.507
1298.000	743.514	80.008	19.995	103.727	19.854	2.890	0.551