Folder: fsri_materials_database/01_Data/Coffee_Machine/MCC (part 2)

File: Coffee_Machine_MCC_30K_min_220203_R3.txt
Sample ID:	C:\MCC\MCC Cal\Test\Coffee_Machine_MCC_30K_min_220203_R3.txt
Sample Weight (mg):	4.64
Heating Rate (C/s):	0.5
Combustor Temp (C):	900
N2 Flow Rate (cc/min):	80
O2 Flow Rate (cc/min):	20
Calibration File:	C:\MCC\MCC Cal\Coeff1 JN10440_30_210304.txt.txt
T Correction Coefficients:	0	1.024463	0
Time Shift (s):	14
*
Time (s)	Temperature (C)	N2 flow rate (cc/min)	O2 flow rate (cc/min)	Flow Rate (cc/min)	Oxygen (%)	HRR (W/g)	Heating rate (C/s)
0.000	110.732	80.008	19.994	103.830	20.086	0.094	0.001
8.000	110.750	80.009	19.994	103.827	20.085	0.186	0.006
16.000	110.771	80.008	19.993	103.835	20.086	0.142	0.032
24.000	110.796	80.009	19.995	103.866	20.082	0.396	0.021
32.000	110.985	80.009	19.995	103.883	20.073	1.027	0.003
40.000	111.381	80.005	19.993	103.934	20.068	1.384	0.059
48.000	112.114	80.008	19.995	103.991	20.060	1.933	0.099
56.001	113.207	80.008	19.995	104.025	20.046	2.916	0.170
64.000	114.756	80.007	19.995	104.068	20.045	3.008	0.232
72.001	116.756	80.008	19.994	104.067	20.040	3.309	0.288
80.001	118.989	80.010	19.994	104.068	20.039	3.386	0.299
88.000	121.672	80.007	19.994	104.083	20.038	3.511	0.367
96.001	124.512	80.009	19.994	104.094	20.043	3.132	0.373
104.001	127.544	80.007	19.994	104.084	20.037	3.567	0.384
112.001	130.733	80.009	19.994	104.093	20.037	3.525	0.408
120.000	134.023	80.007	19.995	104.083	20.043	3.118	0.450
128.000	137.583	80.006	19.995	104.086	20.037	3.530	0.454
136.000	141.145	80.010	19.994	104.076	20.041	3.278	0.463
144.000	144.863	80.008	19.994	104.084	20.040	3.351	0.432
152.000	148.777	80.007	19.994	104.089	20.039	3.415	0.520
160.000	152.699	80.008	19.994	104.074	20.036	3.615	0.475
168.000	156.577	80.012	19.995	104.067	20.038	3.451	0.467
176.000	160.559	80.007	19.995	104.069	20.041	3.305	0.490
184.000	164.564	80.006	19.994	104.063	20.042	3.181	0.480
192.000	168.562	80.008	19.994	104.068	20.041	3.281	0.475
200.000	172.543	80.005	19.995	104.056	20.044	3.087	0.518
208.000	176.445	80.003	19.993	104.056	20.046	2.934	0.488
216.000	180.462	80.008	19.994	104.034	20.046	2.897	0.521
224.000	184.416	80.008	19.994	104.063	20.047	2.865	0.524
232.000	188.359	80.007	19.995	104.053	20.045	2.961	0.472
240.000	192.371	80.010	19.995	104.044	20.049	2.678	0.527
248.000	196.398	80.010	19.994	104.060	20.049	2.701	0.544
256.000	200.436	80.007	19.996	104.042	20.048	2.760	0.541
264.000	204.541	80.042	20.010	104.092	20.057	2.149	0.522
272.000	208.678	80.027	20.005	104.069	20.058	2.081	0.499
280.000	212.754	80.017	19.996	104.041	20.055	2.298	0.548
288.000	216.839	80.008	19.994	104.028	20.054	2.354	0.552
296.000	220.886	80.009	19.994	104.025	20.054	2.329	0.526
304.000	224.881	80.010	19.993	104.024	20.054	2.377	0.469
312.000	228.934	80.009	19.994	104.017	20.054	2.381	0.505
320.000	232.896	80.011	19.995	103.996	20.058	2.111	0.500
328.001	236.814	80.011	19.995	104.012	20.059	2.021	0.455
336.000	240.708	80.007	19.994	104.009	20.059	1.986	0.480
344.000	244.638	80.008	19.995	104.018	20.059	2.034	0.486
352.000	248.608	80.008	19.996	104.023	20.061	1.884	0.491
360.000	252.588	80.008	19.996	104.002	20.061	1.878	0.501
368.000	256.550	80.008	19.994	103.988	20.060	1.961	0.508
376.000	260.500	80.008	19.994	104.003	20.060	1.959	0.487
384.000	264.418	80.011	19.995	103.988	20.058	2.053	0.501
392.000	268.401	80.008	19.994	103.994	20.055	2.288	0.533
400.000	272.352	80.008	19.993	103.995	20.061	1.880	0.520
408.000	276.282	80.011	19.994	103.995	20.061	1.882	0.473
416.000	280.296	80.010	19.995	103.994	20.057	2.121	0.508
424.000	284.303	80.007	19.995	103.987	20.056	2.190	0.487
432.000	288.381	80.008	19.994	103.988	20.058	2.092	0.531
440.000	292.421	80.009	19.995	103.991	20.058	2.084	0.516
448.000	296.467	80.008	19.995	103.985	20.055	2.257	0.502
456.000	300.489	80.007	19.995	103.986	20.058	2.101	0.477
464.000	304.471	80.008	19.994	103.989	20.055	2.299	0.493
472.000	308.478	80.008	19.994	103.983	20.059	2.044	0.501
480.000	312.492	80.008	19.993	103.982	20.055	2.324	0.497
488.000	316.489	80.011	19.994	103.988	20.056	2.199	0.504
496.000	320.428	80.011	19.993	103.974	20.053	2.465	0.495
504.000	324.300	80.010	19.995	103.978	20.055	2.263	0.482
512.000	328.223	80.009	19.993	103.974	20.054	2.363	0.485
520.000	332.163	80.008	19.993	103.969	20.049	2.730	0.491
528.000	336.062	80.008	19.994	103.954	20.045	2.957	0.472
536.000	339.975	80.007	19.995	103.970	20.040	3.373	0.520
544.000	343.880	80.006	19.994	103.980	20.041	3.284	0.474
552.000	347.869	80.009	19.994	103.974	20.036	3.632	0.504
560.000	351.891	80.008	19.994	103.972	20.034	3.769	0.465
568.000	356.035	80.010	19.993	103.960	20.028	4.203	0.479
576.000	360.248	80.010	19.994	103.966	20.022	4.581	0.657
584.000	364.144	80.010	19.994	103.978	20.017	4.971	0.410
592.000	368.341	80.007	19.993	103.951	20.007	5.628	0.509
600.000	372.453	80.008	19.995	103.951	19.998	6.275	0.538
608.000	376.556	80.006	19.994	103.954	19.985	7.216	0.486
616.000	380.598	80.006	19.994	103.952	19.964	8.639	0.494
624.000	384.681	80.007	19.995	103.949	19.943	10.114	0.514
632.000	388.809	80.009	19.994	103.948	19.907	12.618	0.543
640.000	392.966	80.009	19.994	103.944	19.869	15.287	0.531
648.000	397.193	80.009	19.997	103.938	19.815	19.068	0.528
656.000	401.346	80.009	19.994	103.926	19.762	22.760	0.518
664.000	405.490	80.011	19.994	103.914	19.693	27.589	0.480
672.000	409.664	80.008	19.993	103.910	19.618	32.820	0.533
680.000	413.824	80.009	19.995	103.886	19.530	38.974	0.503
688.000	417.994	80.012	19.994	103.874	19.441	45.207	0.528
696.000	422.225	80.008	19.994	103.843	19.399	48.102	0.598
704.000	426.372	80.007	19.995	103.892	19.240	59.165	0.554
712.000	430.327	80.010	19.995	103.842	18.997	76.166	0.481
720.000	434.417	80.010	19.994	103.828	18.677	98.388	0.523
728.000	438.394	80.010	19.994	103.787	18.261	127.353	0.497
736.000	442.337	80.009	19.995	103.724	17.732	164.142	0.489
744.000	446.276	80.010	19.995	103.662	17.050	211.400	0.476
752.000	450.241	80.008	19.994	103.536	16.200	270.055	0.512
760.000	454.194	80.007	19.994	103.363	15.184	339.900	0.472
768.000	458.165	80.008	19.995	103.164	14.098	414.421	0.483
776.000	462.130	80.010	19.995	102.935	12.970	491.905	0.472
784.000	466.019	80.009	19.994	102.776	12.076	553.062	0.487
792.000	470.045	80.008	19.994	102.660	11.642	583.667	0.517
800.000	474.103	80.008	19.992	102.671	12.062	555.441	0.526
808.000	478.108	80.009	19.996	102.894	13.360	467.495	0.487
816.000	482.224	80.007	19.995	103.217	15.303	333.694	0.525
824.000	486.262	80.010	19.995	103.573	17.340	192.021	0.519
832.000	490.424	80.009	19.995	103.882	18.801	89.941	0.494
840.000	494.613	80.008	19.997	103.981	19.571	36.109	0.516
848.000	498.714	80.010	19.994	103.947	19.901	13.021	0.529
856.000	502.828	80.008	19.995	103.916	20.024	4.431	0.520
864.000	506.968	80.006	19.994	103.754	20.059	1.980	0.487
872.001	511.230	80.004	19.995	103.838	20.067	1.421	0.548
880.001	515.585	80.007	19.993	103.909	20.070	1.218	0.545
888.000	519.921	80.010	19.994	103.931	20.075	0.858	0.549
896.000	524.281	80.009	19.993	103.918	20.075	0.911	0.565
904.000	528.679	80.013	19.995	103.932	20.080	0.527	0.547
912.000	532.994	80.011	19.994	103.904	20.088	0.000	0.554
920.000	537.315	80.007	19.994	103.900	20.085	0.227	0.522
928.000	541.608	80.006	19.994	103.916	20.082	0.369	0.533
936.000	545.879	80.009	19.996	103.916	20.086	0.092	0.543
944.000	550.145	80.007	19.994	103.920	20.085	0.215	0.547
952.000	554.371	80.007	19.994	103.925	20.083	0.313	0.517
960.000	558.612	80.008	19.995	103.911	20.083	0.315	0.532
968.000	562.788	80.009	19.995	103.914	20.087	0.050	0.523
976.000	566.863	80.009	19.994	103.912	20.083	0.306	0.492
984.000	571.038	80.009	19.994	103.913	20.086	0.092	0.516
992.000	575.088	80.011	19.994	103.910	20.089	-0.102	0.492
1000.000	579.149	80.006	19.992	103.905	20.090	-0.177	0.539
1008.000	583.231	80.007	19.995	103.912	20.089	-0.094	0.510
1016.000	587.439	80.008	19.994	103.910	20.089	-0.056	0.532
1024.000	591.675	80.007	19.994	103.905	20.089	-0.079	0.535
1032.000	595.976	80.008	19.997	103.903	20.092	-0.286	0.513
1040.000	600.285	80.008	19.995	103.907	20.089	-0.069	0.512
1048.000	604.442	80.010	19.994	103.907	20.094	-0.438	0.522
1056.000	608.684	80.010	19.994	103.910	20.091	-0.246	0.551
1064.000	612.890	80.007	19.994	103.908	20.102	-1.002	0.537
1072.000	617.122	80.011	19.995	103.912	20.091	-0.225	0.518
1080.000	621.204	80.009	19.994	103.913	20.097	-0.619	0.496
1088.000	625.131	80.008	19.995	103.908	20.094	-0.421	0.481
1096.000	628.937	80.007	19.995	103.907	20.089	-0.054	0.488
1104.000	632.626	80.009	19.995	103.915	20.097	-0.633	0.446
1112.000	636.398	80.009	19.996	103.913	20.098	-0.717	0.483
1120.000	640.102	80.006	19.993	103.912	20.099	-0.754	0.471
1128.000	643.853	80.007	19.996	103.911	20.101	-0.902	0.447
1136.000	647.604	80.009	19.994	103.910	20.099	-0.771	0.482
1144.000	651.504	80.009	19.993	103.914	20.098	-0.713	0.486
1152.000	655.478	80.010	19.994	103.915	20.096	-0.583	0.522
1160.000	659.474	80.011	19.995	103.908	20.101	-0.902	0.518
1168.000	663.499	80.008	19.995	103.917	20.101	-0.896	0.495
1176.000	667.471	80.009	19.995	103.914	20.098	-0.742	0.504
1184.000	671.471	80.008	19.994	103.911	20.100	-0.867	0.499
1192.000	675.478	80.009	19.994	103.913	20.102	-0.965	0.514
1200.000	679.631	80.008	19.994	103.919	20.096	-0.563	0.538
1208.000	683.879	80.008	19.995	103.927	20.100	-0.879	0.560
1216.000	688.170	80.009	19.995	103.925	20.102	-0.987	0.551
1224.000	692.517	80.007	19.996	103.908	20.101	-0.929	0.533
1232.000	696.844	80.011	19.996	103.933	20.106	-1.298	0.521
1240.000	701.177	80.009	19.992	103.920	20.101	-0.940	0.555
1248.000	705.449	80.007	19.995	103.914	20.101	-0.950	0.496
1256.000	709.653	80.007	19.995	103.910	20.105	-1.194	0.513
1264.000	713.825	80.007	19.994	103.918	20.103	-1.071	0.505
1272.001	718.095	80.008	19.994	103.915	20.103	-1.075	0.542
1280.000	722.095	80.007	19.994	103.911	20.103	-1.100	0.497
1288.000	726.172	80.006	19.995	103.925	20.106	-1.298	0.539
1296.000	730.125	80.008	19.995	103.907	20.107	-1.319	0.475
1304.000	734.037	80.008	19.995	103.914	20.109	-1.517	0.481
1312.000	737.878	80.008	19.995	103.907	20.105	-1.200	0.479
1320.000	741.717	80.009	19.994	103.909	20.101	-0.906	0.487
1324.500	743.847	80.010	19.994	103.917	20.103	-1.079	0.489