Folder: fsri_materials_database/01_Data/Countertop_Plastic_Laminate_Particle_Board/MCC

Note: 01_Data/README.md
# Materials and Products Database
## 01_Data

Raw data generated from each apparatus are included here in plain-text format. The data is organized first by material, next by the short name of test apparatus used, and where applicable additional filtering by test settings.

### material.json

Each material directory contains a json file of the same name as the material. This file links the data stored in the repository as well as data and graphs produced by the accompanying scripts (__02_Scripts__) to the respective landing page for the material on the front-end website.

File: Countertop_Plastic_Laminate_Particle_Board_MCC_30K_min_211215_R2.txt
Sample ID:	C:\MCC\MCC Cal\Test\Countertop_Plastic_LaminateB_MCC_30K_min_211215_R2.txt
Sample Weight (mg):	4.71
Heating Rate (C/s):	0.5
Combustor Temp (C):	900
N2 Flow Rate (cc/min):	80
O2 Flow Rate (cc/min):	20
Calibration File:	C:\MCC\MCC Cal\Coeff1 JN10440_30_210304.txt.txt
T Correction Coefficients:	0	1.024463	0
Time Shift (s):	14
*
Time (s)	Temperature (C)	N2 flow rate (cc/min)	O2 flow rate (cc/min)	Flow Rate (cc/min)	Oxygen (%)	HRR (W/g)	Heating rate (C/s)
0.000	109.888	80.002	19.995	102.991	20.382	0.039	0.022
8.001	109.853	80.002	19.996	102.994	20.380	0.221	-0.002
16.001	109.990	80.004	19.994	103.038	20.376	0.501	0.044
24.000	110.206	80.004	19.995	103.118	20.365	1.201	0.008
32.000	110.820	80.004	19.995	103.172	20.355	1.886	0.097
40.000	111.961	80.004	19.996	103.212	20.340	2.903	0.183
48.000	113.603	80.004	19.993	103.251	20.340	2.950	0.244
56.001	115.630	80.002	19.995	103.256	20.335	3.273	0.282
64.001	118.051	80.002	19.996	103.269	20.333	3.426	0.337
72.001	120.815	80.004	19.995	103.283	20.330	3.629	0.385
80.000	123.854	80.002	19.997	103.287	20.330	3.586	0.386
88.001	127.120	80.004	19.997	103.286	20.328	3.737	0.422
96.001	130.637	80.002	19.996	103.278	20.325	3.944	0.433
104.000	134.296	80.002	19.994	103.280	20.328	3.734	0.486
112.001	138.137	80.004	19.996	103.285	20.322	4.169	0.503
120.001	142.054	80.005	19.996	103.275	20.327	3.852	0.475
128.001	146.147	80.001	19.994	103.277	20.327	3.822	0.535
136.000	150.243	80.002	19.995	103.260	20.327	3.809	0.519
144.001	154.312	80.003	19.995	103.252	20.331	3.574	0.506
152.000	158.379	80.005	19.996	103.252	20.329	3.650	0.533
160.000	162.455	79.998	19.996	103.252	20.327	3.823	0.502
168.000	166.508	80.006	19.996	103.247	20.331	3.566	0.478
176.000	170.551	80.004	19.996	103.251	20.326	3.896	0.509
184.000	174.523	80.003	19.997	103.246	20.323	4.106	0.532
192.001	178.443	80.008	19.995	103.227	20.322	4.156	0.494
200.000	182.335	80.004	19.996	103.237	20.320	4.288	0.499
208.000	186.291	80.009	19.994	103.224	20.316	4.540	0.463
216.000	190.317	80.002	19.996	103.226	20.315	4.609	0.539
224.000	194.244	80.001	19.996	103.223	20.314	4.713	0.502
232.000	198.110	80.003	19.994	103.223	20.314	4.706	0.494
240.000	202.101	80.011	19.994	103.226	20.311	4.915	0.508
248.000	206.082	80.004	19.991	103.228	20.303	5.490	0.538
256.000	210.039	80.002	19.995	103.221	20.302	5.504	0.485
264.000	213.988	80.005	19.997	103.219	20.295	6.002	0.504
272.000	217.963	80.005	19.996	103.224	20.292	6.179	0.484
280.000	221.967	80.005	19.999	103.222	20.286	6.606	0.471
288.000	225.959	80.002	19.994	103.221	20.282	6.898	0.481
296.000	230.020	80.001	19.997	103.223	20.273	7.479	0.516
304.000	234.022	80.007	19.993	103.224	20.268	7.878	0.461
312.000	238.062	80.006	19.995	103.219	20.256	8.648	0.520
320.000	242.017	80.006	19.996	103.227	20.248	9.205	0.500
328.000	246.064	80.002	19.996	103.223	20.236	10.074	0.512
336.000	250.084	80.004	19.997	103.245	20.224	10.879	0.557
344.000	254.067	80.003	19.996	103.244	20.209	11.882	0.488
352.000	258.016	79.987	20.003	103.247	20.194	12.901	0.503
360.000	262.034	79.994	19.995	103.253	20.174	14.306	0.497
368.001	265.995	80.014	19.993	103.256	20.153	15.710	0.500
376.001	269.943	80.015	19.992	103.279	20.125	17.653	0.540
384.000	273.998	80.006	19.989	103.277	20.100	19.330	0.499
392.000	277.934	80.007	19.994	103.282	20.079	20.762	0.518
400.000	281.869	80.013	19.995	103.288	20.057	22.268	0.526
408.000	285.885	80.012	19.992	103.294	20.032	23.983	0.504
416.000	289.847	80.002	19.992	103.300	20.006	25.757	0.472
424.000	293.814	80.007	19.992	103.300	19.979	27.668	0.475
432.000	297.775	80.002	19.994	103.324	19.950	29.616	0.485
440.001	301.694	80.004	19.994	103.330	19.923	31.474	0.491
448.000	305.672	79.986	19.996	103.327	19.889	33.817	0.500
456.001	309.837	80.000	19.996	103.337	19.853	36.312	0.527
464.000	313.967	80.015	19.993	103.354	19.821	38.504	0.572
472.000	318.079	80.004	19.997	103.367	19.786	40.847	0.515
480.000	322.141	80.007	19.995	103.371	19.747	43.527	0.519
488.000	326.262	80.007	19.997	103.374	19.710	46.119	0.532
496.000	330.347	79.998	19.997	103.390	19.663	49.330	0.494
504.000	334.552	80.005	19.994	103.405	19.621	52.176	0.532
512.000	338.628	80.003	19.994	103.415	19.581	54.940	0.541
520.000	342.809	80.005	19.996	103.427	19.530	58.424	0.525
528.000	346.985	80.007	19.996	103.448	19.483	61.678	0.535
536.000	351.124	80.006	19.995	103.454	19.431	65.272	0.508
544.000	355.291	80.018	19.994	103.453	19.392	67.903	0.503
552.000	359.371	79.998	19.995	103.461	19.359	70.185	0.484
560.000	363.548	80.007	19.989	103.452	19.358	70.207	0.516
568.000	367.543	80.008	19.997	103.414	19.386	68.217	0.502
576.000	371.608	79.993	19.996	103.370	19.470	62.483	0.534
584.000	375.621	79.990	19.998	103.304	19.602	53.361	0.530
592.000	379.656	80.008	19.996	103.249	19.764	42.326	0.482
600.000	383.699	79.995	19.992	103.195	19.930	30.961	0.477
608.000	387.689	80.003	19.995	103.175	20.062	21.936	0.522
616.000	391.790	80.005	19.997	103.173	20.149	16.007	0.530
624.000	395.894	80.001	19.995	103.161	20.193	12.977	0.544
632.000	399.868	79.999	20.001	103.161	20.209	11.847	0.503
640.001	403.876	80.002	19.999	103.154	20.218	11.293	0.499
648.000	407.892	80.006	19.994	103.146	20.224	10.826	0.520
656.000	411.946	80.003	19.997	103.159	20.227	10.683	0.490
664.000	415.950	80.001	19.990	103.141	20.235	10.116	0.477
672.001	420.030	80.008	19.997	103.140	20.237	9.945	0.521
680.000	423.987	80.005	19.994	103.137	20.241	9.670	0.478
688.000	428.089	80.003	19.993	103.138	20.247	9.275	0.505
696.000	432.132	80.003	19.996	103.135	20.250	9.095	0.485
704.000	436.197	80.000	19.993	103.138	20.253	8.849	0.513
712.001	440.244	80.001	19.995	103.139	20.257	8.578	0.492
720.001	444.280	80.000	19.998	103.143	20.261	8.344	0.479
728.000	448.306	80.001	19.994	103.128	20.265	8.066	0.489
736.000	452.401	80.005	19.992	103.129	20.266	7.994	0.539
744.001	456.435	80.004	19.993	103.134	20.274	7.430	0.485
752.000	460.523	80.013	19.992	103.132	20.280	7.051	0.498
760.000	464.536	80.009	19.995	103.135	20.278	7.153	0.457
768.001	468.579	80.011	19.993	103.133	20.287	6.535	0.476
776.000	472.628	79.998	19.994	103.131	20.286	6.632	0.503
784.000	476.727	80.001	19.997	103.127	20.291	6.300	0.483
792.000	480.774	80.006	19.996	103.133	20.290	6.330	0.516
800.000	484.869	80.010	19.996	103.127	20.289	6.441	0.514
808.000	488.956	79.999	19.994	103.132	20.295	5.993	0.516
816.000	493.033	80.005	19.994	103.130	20.295	5.976	0.521
824.001	497.121	80.007	19.993	103.134	20.293	6.163	0.524
832.001	501.169	80.008	19.996	103.136	20.290	6.358	0.484
840.000	505.218	80.015	19.994	103.130	20.295	5.991	0.523
848.000	509.246	80.000	19.993	103.137	20.295	5.979	0.529
856.000	513.312	79.999	19.997	103.127	20.299	5.751	0.532
864.000	517.488	80.006	19.996	103.139	20.298	5.829	0.532
872.000	521.675	80.004	19.995	103.134	20.293	6.134	0.511
880.000	525.786	79.999	19.995	103.141	20.295	5.995	0.494
888.000	529.940	80.009	19.994	103.144	20.297	5.874	0.520
896.000	534.033	80.007	19.995	103.139	20.296	5.957	0.495
904.001	538.049	79.995	19.996	103.111	20.287	6.530	0.500
912.000	542.166	80.008	19.995	103.122	20.296	5.909	0.519
920.000	546.198	80.016	19.993	103.109	20.297	5.888	0.562
928.000	550.256	80.005	19.995	103.123	20.298	5.765	0.488
936.000	554.372	80.015	19.995	103.129	20.295	6.018	0.510
944.000	558.421	79.999	19.993	103.123	20.290	6.331	0.498
952.001	562.489	80.009	19.996	103.134	20.290	6.365	0.492
960.001	566.568	80.001	19.995	103.131	20.287	6.555	0.510
968.000	570.633	80.010	19.996	103.126	20.291	6.243	0.493
976.000	574.802	80.004	19.996	103.114	20.292	6.235	0.561
984.000	578.920	80.006	19.994	103.129	20.286	6.608	0.512
992.000	583.029	80.002	19.996	103.124	20.285	6.692	0.523
1000.000	587.157	80.012	19.995	103.126	20.291	6.303	0.542
1008.000	591.235	80.001	19.998	103.132	20.289	6.444	0.511
1016.000	595.318	80.011	19.996	103.120	20.288	6.485	0.493
1024.001	599.380	80.008	19.995	103.128	20.284	6.764	0.490
1032.000	603.405	80.020	19.993	103.104	20.286	6.630	0.491
1040.000	607.373	79.999	19.996	103.114	20.283	6.822	0.508
1048.000	611.418	80.004	19.997	103.120	20.284	6.743	0.513
1056.000	615.471	80.005	19.996	103.110	20.285	6.652	0.506
1064.000	619.560	80.004	19.996	103.114	20.284	6.778	0.531
1072.000	623.784	80.010	19.994	103.118	20.283	6.796	0.534
1080.000	627.898	79.999	19.995	103.122	20.281	6.960	0.449
1088.000	632.347	80.001	19.995	103.125	20.277	7.227	0.603
1096.000	636.638	80.006	19.996	103.113	20.281	6.989	0.571
1104.000	640.966	79.991	19.995	103.114	20.280	7.006	0.576
1112.000	645.148	80.003	19.994	103.103	20.276	7.315	0.505
1120.001	649.366	80.004	19.995	103.111	20.277	7.242	0.521
1128.000	653.613	80.012	19.996	103.117	20.278	7.196	0.553
1136.001	657.693	80.008	19.996	103.107	20.270	7.679	0.493
1144.000	661.830	80.003	19.994	103.103	20.273	7.525	0.518
1152.000	665.959	80.008	19.993	103.113	20.273	7.513	0.494
1160.000	670.071	80.006	19.995	103.095	20.276	7.331	0.534
1168.000	674.113	80.001	19.997	103.098	20.276	7.331	0.515
1176.000	678.214	79.999	19.996	103.098	20.271	7.664	0.512
1184.000	682.219	79.999	19.995	103.113	20.268	7.830	0.499
1192.000	686.219	80.002	19.996	103.111	20.267	7.897	0.478
1200.000	690.320	79.990	19.997	103.102	20.267	7.916	0.501
1208.000	694.298	80.016	19.993	103.097	20.264	8.096	0.510
1216.000	698.270	80.008	19.994	103.097	20.266	7.997	0.510
1224.000	702.253	80.005	19.994	103.098	20.265	8.036	0.487
1232.000	706.268	80.002	19.993	103.100	20.266	7.949	0.519
1240.000	710.260	80.003	19.995	103.104	20.265	8.058	0.486
1248.000	714.204	79.999	19.996	103.097	20.263	8.209	0.433
1256.000	718.338	80.021	19.993	103.095	20.267	7.945	0.529
1264.000	722.281	80.004	19.995	103.100	20.265	8.081	0.491
1272.000	726.206	79.995	19.996	103.091	20.259	8.446	0.501
1280.000	729.984	79.995	19.997	103.096	20.259	8.445	0.469
1288.000	733.891	80.002	19.996	103.098	20.258	8.555	0.507
1296.000	737.894	80.017	19.995	103.095	20.255	8.727	0.485
1304.000	742.052	80.009	19.993	103.095	20.256	8.685	0.540
1307.000	743.553	79.995	19.996	103.102	20.258	8.531	0.498