Folder: fsri_materials_database/01_Data/Pine_Siding/Cone (part 3)

File: Pine_Siding_Cone_HF50Scan_221004_R2.csv
Names,Time,Stack TC,Smoke TC,Exh Press,Smoke Comp,Smoke Meas,CO Meter,CO2 Meter,O2 Meter,Sample Mass,Ext Coeff,Start Test,Flame Verif
Chan Gain,,500,500,1,1,1,1,1,1,1,1,1.0,1.0
Offset,,0,0,0.13918,0,0,0,0,0,0,0,0.0,0.0
Gain,,1,1,25.011,14.0162,15.5607,1,1,1,1.0009,1.02981,1.0,1.0
Units,sec,C,C,Pa,%,%,%,%,%,g,/m,,
Baseline,,33.2183,34.2132,155.636,104.546,3.56746,0.000438654,0.0860646,20.9578,-2.53266,30.5131,,
38,9.25,31.4588,32.8749,155.963,104.588,3.49224,0.000667055,0.0904213,20.9511,552.158,30.709,0.0,0.0
76,18.75,38.94,37.5669,132.826,104.298,3.74202,0.00500016,0.478781,20.4253,550.817,30.0599,0.0,0.0
114,28.25,48.1696,47.555,133.159,103.958,3.75769,0.00581326,0.582136,20.3491,549.296,29.9926,0.0,0.0
152,37.75,51.544,51.8602,142.44,103.601,3.66651,0.00490337,0.469677,20.4948,548.085,30.1835,0.0,0.0
190,47.25,53.1112,54.9153,141.831,103.369,3.69406,0.0040841,0.408188,20.5668,547.014,30.0956,0.0,0.0
228,56.75,53.3581,55.4581,142.776,103.41,3.68788,0.00292645,0.37038,20.6132,546.033,30.1143,0.0,0.0
266,66.25,53.6527,56.5187,145.78,103.664,3.75674,0.00235085,0.352598,20.6364,545.142,29.9694,0.0,0.0
304,75.75,53.1296,56.7257,144.513,104.104,3.82655,0.00268108,0.330646,20.6653,544.271,29.8414,0.0,0.0
342,85.25,53.0582,56.6733,141.731,104.578,3.8142,0.00205706,0.313532,20.6868,543.521,29.9116,0.0,0.0
380,94.75,52.7148,56.7182,142.713,104.961,3.87261,0.00203321,0.29914,20.7023,542.73,29.8073,0.0,0.0
418,104.25,52.4546,56.5367,141.476,105.231,3.89588,0.00177323,0.289652,20.7171,542.019,29.7763,0.0,0.0
456,113.75,51.5909,55.7694,144.499,105.349,3.84602,0.00189026,0.277762,20.7321,541.329,29.9028,0.0,0.0
494,123.25,51.327,55.5164,147.148,105.279,3.83937,0.00184925,0.275203,20.734,540.678,29.9125,0.0,0.0
532,132.75,50.9335,55.1313,145.545,105.113,3.83415,0.00181358,0.27209,20.7375,539.997,29.9105,0.0,0.0
570,142.25,50.7075,54.9338,145.091,104.807,3.95239,0.00180375,0.265432,20.744,539.307,29.6098,0.0,0.0
608,151.75,49.9815,54.4118,142.604,104.554,3.86644,0.00174199,0.265316,20.7457,538.676,29.7866,0.0,0.0
646,161.25,49.9708,54.0603,147.703,104.574,3.88686,0.00173537,0.264662,20.7471,538.036,29.7407,0.0,0.0
684,170.75,49.9325,53.7787,146.045,104.873,3.93339,0.00212084,0.260611,20.7486,537.365,29.659,0.0,0.0
722,180.25,49.4472,53.7315,150.809,104.941,3.94907,0.00199503,0.258694,20.7503,536.774,29.6289,0.0,0.0
760,189.75,49.5843,53.3607,147.907,104.738,3.90728,0.00222919,0.257226,20.7541,536.144,29.7076,0.0,0.0
798,199.25,49.1161,52.9628,146.34,104.285,3.87404,0.00173892,0.257564,20.7536,535.493,29.7456,0.0,0.0
836,208.75,49.2225,52.914,145.824,104.069,3.85836,0.00202505,0.255645,20.7569,534.893,29.7634,0.0,0.0
874,218.25,49.4157,52.7389,146.392,104.213,3.85409,0.00193212,0.254788,20.759,534.242,29.7859,0.0,0.0
912,227.75,49.2964,52.722,143.45,104.37,3.92437,0.00178504,0.253742,20.7585,533.632,29.6364,0.0,0.0
950,237.25,48.7742,52.8845,148.423,104.56,3.92485,0.00225651,0.253302,20.759,533.031,29.6516,0.0,0.0
988,246.75,49.0438,52.5187,147.118,104.646,3.94242,0.00203288,0.253769,20.76,532.411,29.6188,0.0,0.0
1026,256.25,49.0951,52.6437,150.839,104.648,3.86501,0.00219739,0.254208,20.7578,531.82,29.798,0.0,0.0
1064,265.75,49.1381,52.239,145.165,104.513,4.00178,0.00225033,0.254483,20.7587,531.209,29.4723,0.0,0.0
1102,275.25,49.3233,52.5024,144.492,104.282,3.94907,0.00265214,0.255487,20.7556,530.619,29.572,0.0,0.0
1140,284.75,49.2253,52.3248,144.967,104.039,3.85884,0.00214281,0.255217,20.7541,530.008,29.7598,0.0,0.0
1178,294.25,49.2168,51.9085,142.906,103.777,3.87024,0.00207522,0.252151,20.7589,529.428,29.7103,0.0,0.0
1216,303.75,49.6635,52.5392,148.7,103.565,3.8992,0.0020575,0.254299,20.7576,528.827,29.6245,0.0,0.0
1254,313.25,48.8962,52.4556,145.255,103.417,3.91392,0.00210288,0.250831,20.7608,528.237,29.5776,0.0,0.0
1292,322.75,48.9344,52.3018,142.819,103.316,3.94717,0.00216742,0.253985,20.7568,527.656,29.4923,0.0,0.0
1330,332.25,49.5274,52.2335,143.663,103.358,3.93529,0.00212626,0.252665,20.759,527.076,29.5232,0.0,0.0
1368,341.75,49.063,52.027,146.801,103.507,3.87831,0.00198686,0.254703,20.7548,526.525,29.668,0.0,0.0
1406,351.25,49.1311,52.1333,146.171,103.742,3.92722,0.00196255,0.255492,20.7548,525.905,29.5752,0.0,0.0
1444,360.75,49.5961,52.2519,150.658,104.084,3.9125,0.00190898,0.255783,20.7551,525.324,29.6389,0.0,0.0
1482,370.25,49.2708,52.2388,150.332,104.408,3.86121,0.00189319,0.258764,20.7529,524.744,29.7862,0.0,0.0
1520,379.75,49.6586,52.6214,147.543,104.743,3.96996,0.00154734,0.258311,20.7525,524.213,29.5643,0.0,0.0
1558,389.25,49.4736,52.7926,143.93,105.03,3.99798,0.00195738,0.26086,20.751,523.593,29.5254,0.0,0.0
1596,398.75,50.0101,52.7581,149.516,105.229,3.95951,0.00186484,0.261304,20.7512,523.022,29.6299,0.0,0.0
1634,408.25,50.0055,52.6798,143.644,105.322,4.01602,0.0018702,0.264832,20.7474,522.411,29.5098,0.0,0.0
1672,417.75,50.0291,52.8333,143.129,105.311,3.94384,0.00180344,0.267823,20.7427,521.801,29.6727,0.0,0.0
1710,427.25,49.9743,53.5977,145.354,105.186,3.9937,0.00167305,0.268162,20.7403,521.21,29.5485,0.0,0.0
1748,436.75,50.444,52.9818,144.039,105.022,4.01175,0.00196082,0.272402,20.7356,520.65,29.4937,0.0,0.0
1786,446.25,50.994,53.3834,142.464,104.757,4.00083,0.00191173,0.27737,20.7317,519.979,29.4954,0.0,0.0
1824,455.75,51.2585,54.2066,147.299,104.624,3.97091,0.002096,0.280861,20.7259,519.379,29.5518,0.0,0.0
1862,465.25,51.1219,54.2738,143.5,104.571,3.96901,0.00186449,0.282632,20.7233,518.748,29.5515,0.0,0.0
1900,474.75,51.7007,54.7513,148.223,104.591,3.9918,0.0023926,0.28844,20.7179,518.138,29.5015,0.0,0.0
1938,484.25,51.9342,54.8339,143.3,104.721,3.95951,0.00176791,0.29024,20.7165,517.487,29.5861,0.0,0.0
1976,493.75,52.1131,55.6862,149.804,104.963,3.94384,0.00171959,0.296453,20.7079,516.836,29.6428,0.0,0.0
2014,503.25,52.6749,55.79,141.915,105.196,3.99275,0.00184606,0.29854,20.7042,516.236,29.5515,0.0,0.0
2052,512.75,52.6622,56.813,142.787,105.327,4.10862,0.00222825,0.305286,20.6966,515.545,29.3043,0.0,0.0
2090,522.25,53.5699,56.492,140.223,105.191,3.97328,0.00174475,0.310357,20.691,514.845,29.5952,0.0,0.0
2128,531.75,54.2479,57.4178,138.317,104.736,4.06826,0.00200908,0.319523,20.6782,514.164,29.3427,0.0,0.0
2166,541.25,54.605,57.9421,141.475,104.083,3.97898,0.00244052,0.325767,20.6733,513.443,29.4866,0.0,0.0
2204,550.75,54.6348,58.8726,140.118,103.48,3.92817,0.00205095,0.326611,20.6725,512.723,29.5502,0.0,0.0
2242,560.25,55.266,58.63,139.837,103.352,4.02172,0.00224509,0.330824,20.6667,511.912,29.3264,0.0,0.0
2280,569.75,56.1772,59.0262,138.452,103.854,3.93434,0.00245014,0.335172,20.6601,511.201,29.5686,0.0,0.0
2318,579.25,55.9046,59.4467,139.151,104.462,3.97708,0.00211148,0.337462,20.6569,510.431,29.5238,0.0,0.0
2356,588.75,56.0377,60.0462,141.26,104.63,4.02267,0.00257659,0.336399,20.6578,509.71,29.4353,0.0,0.0
2394,598.25,56.4711,60.2377,143.246,104.186,3.98801,0.00230291,0.335149,20.6601,508.959,29.4751,0.0,0.0
2432,607.75,56.7057,60.4248,147.444,104.674,4.03549,0.00234805,0.3369,20.6598,508.199,29.4104,0.0,0.0
2470,617.25,56.7472,60.5647,143.676,104.779,4.01697,0.00234368,0.332815,20.6636,507.458,29.4609,0.0,0.0
2508,626.75,56.6246,60.3776,138.514,104.817,3.98516,0.00273213,0.332542,20.6656,506.727,29.5361,0.0,0.0
2546,636.25,56.4924,60.4603,141.609,105.325,4.01555,0.00249248,0.326651,20.6702,506.027,29.5111,0.0,0.0
2584,645.75,55.9653,60.0813,143.469,104.821,4.03597,0.00232433,0.320245,20.6788,505.336,29.422,0.0,0.0
2622,655.25,55.7497,59.8147,142.55,103.666,3.97946,0.00261439,0.314075,20.6847,504.625,29.4493,0.0,0.0
2660,664.75,55.7115,59.4779,140.037,103.453,3.99465,0.002366,0.309397,20.6927,504.035,29.3963,0.0,0.0
2698,674.25,55.2864,59.5789,142.333,104.323,4.03169,0.00240532,0.305018,20.6959,503.374,29.3885,0.0,0.0
2736,683.75,54.6119,59.1692,142.717,104.632,3.98658,0.00322188,0.299372,20.7055,502.814,29.5169,0.0,0.0
2774,693.25,54.0994,58.6534,146.106,104.064,4.00653,0.00309073,0.28697,20.7177,502.223,29.4227,0.0,0.0
2812,702.75,54.5378,57.1742,145.745,104.905,4.01792,0.00335087,0.276627,20.7293,501.773,29.4697,0.0,0.0
2850,712.25,53.1337,56.8857,143.918,104.643,3.98326,0.00327153,0.263315,20.7441,501.272,29.5254,0.0,0.0
2888,721.75,52.3549,55.6977,149.104,105.332,3.99133,0.00309072,0.244763,20.7683,500.852,29.5664,0.0,0.0
2926,731.25,51.47,55.4278,142.849,104.536,3.97138,0.00445764,0.239324,20.774,500.402,29.5431,0.0,0.0
2964,740.75,50.1772,53.9743,145.975,103.417,3.94337,0.00547234,0.221522,20.7932,500.071,29.5099,0.0,0.0
3002,750.25,49.6245,52.3882,144.738,104.083,3.92247,0.00680944,0.206757,20.8107,499.771,29.6158,0.0,0.0
3040,759.75,48.3485,51.7395,145.707,104.678,4.02125,0.00760421,0.189622,20.8321,499.601,29.4427,0.0,0.0
3078,769.25,47.0462,49.7866,150.94,104.037,3.93672,0.00857096,0.179548,20.8426,499.421,29.5791,0.0,0.0
3116,778.75,46.02,48.6633,151.745,104.849,4.02125,0.00981928,0.175606,20.8488,499.191,29.4574,0.0,0.0
3154,788.25,44.8705,47.6227,148.283,104.758,3.92247,0.0106443,0.172151,20.8496,498.98,29.6742,0.0,0.0
3192,797.75,43.6485,47.2007,151.366,105.308,3.90965,0.0105492,0.170365,20.8517,498.82,29.7511,0.0,0.0
3230,807.25,42.4434,45.2577,152.196,105.09,3.92675,0.0103021,0.165996,20.8564,498.69,29.693,0.0,0.0
3268,816.75,41.9062,44.5555,152.973,104.341,3.87356,0.0105336,0.163905,20.8609,498.53,29.7515,0.0,0.0
3306,826.25,41.7902,43.5682,148.828,103.67,3.8351,0.0106451,0.162515,20.8613,498.36,29.7834,0.0,0.0
3344,835.75,40.8236,42.811,153.819,103.447,3.84934,0.0102365,0.161727,20.8594,498.24,29.7304,0.0,0.0
3382,845.25,40.4763,42.6617,148.471,103.636,3.84364,0.0104824,0.160685,20.8592,498.09,29.7603,0.0,0.0
3420,854.75,40.1725,41.9349,152.411,103.946,3.84174,0.0103081,0.159959,20.8606,498.029,29.7918,0.0,0.0
3458,864.25,39.9137,41.3118,154.429,104.288,3.83082,0.0103648,0.159587,20.863,497.859,29.8472,0.0,0.0
3496,873.75,39.9089,41.084,154.115,104.562,3.76671,0.0101393,0.158456,20.863,497.749,30.0233,0.0,0.0
3534,883.25,39.6471,41.1797,153.495,104.707,3.82275,0.00999494,0.158127,20.8653,497.619,29.9024,0.0,0.0
3572,892.75,38.7829,41.0414,153.441,104.758,3.77146,0.0100601,0.156277,20.8661,497.459,30.0289,0.0,0.0
3610,902.25,38.8714,40.7788,158.509,104.684,3.78238,0.0104983,0.156394,20.8669,497.369,29.9964,0.0,0.0
3648,911.75,38.9195,40.0821,152.958,104.51,3.8047,,,,497.259,29.9282,0.0,0.0
3676,918.75,38.5596,39.9938,156.098,104.36,3.74962,,,,497.189,30.047,0.0,0.0

File: Pine_Siding_Cone_HF50Scan_221004_R3.csv
Names,Time,Stack TC,Smoke TC,Exh Press,Smoke Comp,Smoke Meas,CO Meter,CO2 Meter,O2 Meter,Sample Mass,Ext Coeff,Start Test,Flame Verif
Chan Gain,,500,500,1,1,1,1,1,1,1,1,1.0,1.0
Offset,,0,0,0.13918,0,0,0,0,0,0,0,0.0,0.0
Gain,,1,1,25.011,14.0162,15.5607,1,1,1,1.0009,1.02981,1.0,1.0
Units,sec,C,C,Pa,%,%,%,%,%,g,/m,,
Baseline,,33.9236,35.0386,155.368,103.703,3.48137,0.000425024,0.0839442,20.9604,-2.56603,30.6606,,
38,9.25,31.6723,33.3813,160.111,105.362,3.49461,0.00113097,0.0922147,20.9437,553.159,30.7696,0.0,0.0
76,18.75,40.3228,40.0695,130.839,105.24,3.88163,0.00542872,0.554504,20.3743,551.618,29.8102,0.0,0.0
114,28.25,48.7022,48.2551,141.589,104.971,3.7216,0.00603075,0.548472,20.3935,550.086,30.1675,0.0,0.0
152,37.75,51.4103,52.2287,141.642,104.669,3.67079,0.00444581,0.435022,20.5307,548.945,30.2656,0.0,0.0
190,47.25,53.4452,54.9056,141.453,104.533,3.70118,0.00330892,0.391124,20.5902,547.955,30.1794,0.0,0.0
228,56.75,52.8297,55.2358,138.936,104.9,3.78143,0.00274486,0.357251,20.6319,547.034,30.0173,0.0,0.0
266,66.25,53.4099,56.3677,145.032,104.908,3.72207,0.00267108,0.335731,20.6569,546.173,30.1609,0.0,0.0
304,75.75,53.3401,56.799,139.804,104.553,3.73205,0.00236244,0.32037,20.6782,545.332,30.1061,0.0,0.0
342,85.25,52.8445,56.7478,146.606,104.081,3.70783,0.00210838,0.309828,20.6897,544.541,30.1241,0.0,0.0
380,94.75,52.5859,56.5031,145.5,104.296,3.76766,0.00214646,0.296486,20.7055,543.801,29.9981,0.0,0.0
418,104.25,52.2635,56.3272,148.747,104.607,3.85884,0.00171836,0.284966,20.7205,543.07,29.809,0.0,0.0
456,113.75,51.6347,56.1302,145.177,104.749,3.83225,0.00171232,0.274537,20.7307,542.42,29.8837,0.0,0.0
494,123.25,51.418,55.6429,148.927,104.698,3.82797,0.00222665,0.272624,20.7332,541.749,29.8893,0.0,0.0
532,132.75,51.0807,55.2356,144.735,104.388,3.89113,0.00171455,0.266967,20.7431,541.078,29.7148,0.0,0.0
570,142.25,50.7534,54.8588,147.022,103.983,3.95191,0.00134729,0.263265,20.7468,540.428,29.5396,0.0,0.0
608,151.75,50.3161,54.5438,150.934,103.637,3.85789,0.00179672,0.258089,20.7541,539.797,29.727,0.0,0.0
646,161.25,50.1231,53.8172,145.614,103.442,3.84032,0.00152594,0.255435,20.7593,539.147,29.7512,0.0,0.0
684,170.75,49.7817,53.7585,147.574,103.627,3.84602,0.00187057,0.253264,20.7612,538.536,29.754,0.0,0.0
722,180.25,49.9502,54.1907,143.562,104.086,4.007,0.00206101,0.251403,20.7625,537.915,29.4235,0.0,0.0
760,189.75,49.6904,53.303,145.268,104.661,3.93007,0.00213165,0.25095,20.762,537.325,29.6483,0.0,0.0
798,199.25,49.4483,53.0378,146.474,105.126,3.89351,0.00190697,0.247309,20.7673,536.674,29.7729,0.0,0.0
836,208.75,49.2291,53.0125,143.246,105.339,3.92865,0.00200044,0.247717,20.7652,536.144,29.71,0.0,0.0
874,218.25,49.2329,52.9396,146.402,105.4,3.95904,0.00207776,0.246621,20.7648,535.573,29.6456,0.0,0.0
912,227.75,48.8381,52.5072,147.062,105.316,3.92532,0.00197922,0.246842,20.7675,534.933,29.7157,0.0,0.0
950,237.25,48.9419,52.19,149.981,105.09,3.88781,0.00173031,0.243721,20.772,534.332,29.783,0.0,0.0
988,246.75,48.6302,52.2497,144.565,104.814,3.85979,0.00194759,0.244798,20.7694,533.752,29.8245,0.0,0.0
1026,256.25,48.6136,52.1017,148.543,104.547,3.86264,0.00171658,0.244975,20.7695,533.171,29.7949,0.0,0.0
1064,265.75,49.0361,51.9029,145.31,104.784,3.90253,0.0014941,0.246997,20.7672,532.601,29.7225,0.0,0.0
1102,275.25,48.7739,52.1701,149.088,104.992,3.92865,0.00180104,0.245107,20.7682,532.03,29.6802,0.0,0.0
1140,284.75,48.7914,52.2289,150.407,104.831,3.92105,0.00203703,0.245717,20.7684,531.45,29.6838,0.0,0.0
1178,294.25,48.4529,52.1231,146.184,104.344,3.8992,0.00167165,0.245162,20.7684,530.879,29.6922,0.0,0.0
1216,303.75,48.5231,51.874,145.572,104.173,3.88686,0.00191614,0.245641,20.7684,530.279,29.706,0.0,0.0
1254,313.25,48.6058,52.2417,151.586,104.369,3.93245,0.00198342,0.247029,20.7679,529.728,29.6177,0.0,0.0
1292,322.75,48.5025,50.7895,146.679,104.641,3.88828,0.00191831,0.24755,20.7669,529.158,29.7432,0.0,0.0
1330,332.25,48.9292,52.1478,148.099,104.752,3.91155,0.00145805,0.247164,20.7648,528.607,29.6989,0.0,0.0
1368,341.75,49.307,52.5174,147.773,104.661,4.01412,0.00192579,0.247587,20.764,528.087,29.4572,0.0,0.0
1406,351.25,49.7301,52.1231,143.627,104.461,3.97756,0.00200288,0.246541,20.7667,527.516,29.5226,0.0,0.0
1444,360.75,49.7499,51.2329,145.421,104.164,3.96569,0.00210856,0.247563,20.7658,526.936,29.5239,0.0,0.0
1482,370.25,49.2914,52.2316,139.845,103.85,3.87783,0.00163501,0.247575,20.7673,526.385,29.6989,0.0,0.0
1520,379.75,48.802,52.0372,146.751,103.565,3.94194,0.00229863,0.250494,20.7653,525.815,29.5261,0.0,0.0
1558,389.25,49.3117,52.3804,151.591,103.421,3.86406,0.00219632,0.252761,20.759,525.284,29.6937,0.0,0.0
1596,398.75,49.3016,52.1517,149.463,103.483,3.89351,0.00197634,0.255504,20.7563,524.694,29.6305,0.0,0.0
1634,408.25,49.3036,52.3767,148.389,103.663,3.89303,0.00225872,0.259083,20.7529,524.123,29.6473,0.0,0.0
1672,417.75,49.8806,52.4343,144.867,103.943,3.90538,0.00219384,0.260253,20.7497,523.553,29.6431,0.0,0.0
1710,427.25,50.1287,52.8814,145.548,104.317,3.9277,0.00215287,0.265314,20.7429,522.952,29.6241,0.0,0.0
1748,436.75,49.9929,53.1665,147.231,104.679,3.97898,0.00217141,0.266599,20.7421,522.341,29.5382,0.0,0.0
1786,446.25,50.3686,53.0087,144.046,105.013,3.98088,0.00225459,0.271026,20.7353,521.741,29.5627,0.0,0.0
1824,455.75,50.4556,53.5928,141.051,105.262,3.95191,0.00220369,0.275501,20.7337,521.12,29.65,0.0,0.0
1862,465.25,50.7485,53.7982,141.143,105.374,4.0013,0.00200833,0.278057,20.7301,520.57,29.5474,0.0,0.0
1900,474.75,51.1224,54.0489,143.933,105.402,4.00985,0.00243395,0.279992,20.728,519.929,29.5306,0.0,0.0
1938,484.25,51.4716,53.6348,143.63,105.302,3.95144,0.00238755,0.286325,20.7169,519.319,29.6546,0.0,0.0
1976,493.75,51.1636,54.6816,140.589,105.088,3.97281,0.00216,0.287185,20.7168,518.688,29.5875,0.0,0.0
2014,503.25,51.6677,54.9235,145.12,104.857,3.97138,0.00215676,0.29156,20.7149,518.038,29.5708,0.0,0.0
2052,512.75,52.0461,54.9533,141.64,104.637,3.95951,0.00208742,0.294996,20.7099,517.387,29.5789,0.0,0.0
2090,522.25,52.4412,55.4775,147.827,104.482,3.95049,0.00228945,0.299178,20.7033,516.716,29.5861,0.0,0.0
2128,531.75,52.8337,55.8869,139.308,104.832,4.01697,0.00246759,0.307047,20.6942,516.066,29.4655,0.0,0.0
2166,541.25,52.9832,56.1349,142.341,104.975,3.99655,0.00208069,0.307786,20.6935,515.375,29.5239,0.0,0.0
2204,550.75,53.5272,56.6559,142.615,104.988,3.97281,0.002124,0.310994,20.6883,514.665,29.5789,0.0,0.0
2242,560.25,53.6484,57.2585,146.254,104.829,3.93245,0.00187523,0.309053,20.6917,513.964,29.6574,0.0,0.0
2280,569.75,54.3696,57.5219,142.018,104.474,3.95856,0.00203913,0.309258,20.6888,513.293,29.5669,0.0,0.0
2318,579.25,54.0908,57.354,139.748,104.102,3.95999,0.00185724,0.311583,20.688,512.633,29.5315,0.0,0.0
2356,588.75,54.2043,57.5469,144.955,104.207,3.97946,0.00217254,0.314508,20.6844,511.872,29.4963,0.0,0.0
2394,598.25,54.5994,57.6453,142.498,104.319,3.95856,0.00191898,0.317177,20.6822,511.211,29.5535,0.0,0.0
2432,607.75,54.8828,57.8958,144.683,104.445,3.95666,0.00204704,0.317282,20.6803,510.501,29.5688,0.0,0.0
2470,617.25,54.6866,58.2256,144.61,104.578,3.94479,0.00189328,0.315542,20.6815,509.81,29.6075,0.0,0.0
2508,626.75,54.93,58.498,141.118,104.669,3.94052,0.00232488,0.317706,20.6785,509.12,29.6251,0.0,0.0
2546,636.25,55.0946,58.4414,139.654,104.708,3.97044,0.00223986,0.315475,20.6794,508.429,29.5601,0.0,0.0
2584,645.75,54.9447,58.8776,137.646,104.689,3.92342,0.0024304,0.313794,20.6852,507.768,29.6661,0.0,0.0
2622,655.25,55.1322,58.7351,143.563,104.667,3.94004,0.0024217,0.312568,20.6875,507.118,29.626,0.0,0.0
2660,664.75,55.3383,58.7598,144.116,104.565,3.97233,0.00311629,0.320315,20.6782,506.487,29.5434,0.0,0.0
2698,674.25,55.2342,58.9341,143.811,104.353,3.93007,0.00355848,0.311865,20.6866,505.867,29.6217,0.0,0.0
2736,683.75,55.0976,58.7858,147.243,104.169,3.9258,0.00363163,0.299087,20.7016,505.246,29.6156,0.0,0.0
2774,693.25,54.7439,58.3298,144.107,104.393,3.94147,0.00354458,0.288422,20.7167,504.625,29.5991,0.0,0.0
2812,702.75,54.8284,58.2846,144.329,104.93,3.93577,0.00355401,0.28628,20.717,504.085,29.6584,0.0,0.0
2850,712.25,53.9776,57.6312,144.498,104.845,3.99038,0.00307843,0.277055,20.726,503.585,29.5267,0.0,0.0
2888,721.75,53.271,56.9152,141.558,104.639,3.97851,0.0036348,0.259741,20.7459,503.114,29.5358,0.0,0.0
2926,731.25,52.7359,55.7008,146.49,105.174,3.99228,0.00475416,0.246451,20.7592,502.704,29.5507,0.0,0.0
2964,740.75,51.4187,55.303,150.262,105.378,3.95951,0.00433617,0.227822,20.7832,502.363,29.6426,0.0,0.0
3002,750.25,50.4689,54.2197,144.594,104.825,3.98421,0.00495677,0.215608,20.7986,501.993,29.5389,0.0,0.0
3040,759.75,49.6896,53.1324,147.341,103.835,3.89113,0.00565329,0.200193,20.8164,501.723,29.6668,0.0,0.0
3078,769.25,47.966,51.7241,150.035,103.415,3.98848,0.00730401,0.182775,20.8363,501.493,29.4069,0.0,0.0
3116,778.75,46.7533,50.1511,150.768,104.032,3.88448,0.00853722,0.171584,20.8492,501.312,29.6993,0.0,0.0
3154,788.25,45.4295,48.6173,150.957,104.687,3.85979,0.0103877,0.161355,20.8611,501.192,29.8137,0.0,0.0
3192,797.75,44.0654,47.058,151.18,104.531,3.90823,0.0108811,0.156658,20.8677,501.082,29.6875,0.0,0.0
3230,807.25,43.6005,46.4771,152.855,104.082,3.90015,0.0113229,0.155204,20.8694,500.922,29.6673,0.0,0.0
3268,816.75,41.7385,44.275,149.988,104.979,3.9106,0.0112974,0.152516,20.8713,500.802,29.7206,0.0,0.0
3306,826.25,41.5503,44.1441,149.041,104.623,3.85979,0.011719,0.150931,20.8738,500.702,29.8081,0.0,0.0
3344,835.75,40.4901,42.8499,156.569,105.349,3.88781,0.0116649,0.149681,20.8761,500.522,29.8052,0.0,0.0
3382,845.25,40.2093,42.4387,152.174,104.96,3.87498,0.0113927,0.148677,20.8773,500.432,29.8017,0.0,0.0
3420,854.75,39.6547,41.9165,148.504,103.693,3.80043,0.0113848,0.147848,20.8793,500.262,29.8674,0.0,0.0
3458,864.25,39.7798,41.6233,153.386,103.714,3.80755,0.0117603,0.147193,20.8815,500.201,29.8524,0.0,0.0
3496,873.75,39.1237,40.6317,150.259,104.651,3.84032,0.0110816,0.146886,20.8806,500.091,29.8562,0.0,0.0
3534,883.25,38.3415,40.6312,148.24,104.492,3.85362,0.0112235,0.145816,20.8817,499.991,29.8113,0.0,0.0
3572,892.75,39.2783,40.2768,154.732,104.497,3.88781,0.011163,0.144445,20.884,499.861,29.7319,0.0,0.0
3610,902.25,38.3489,40.2096,156.465,104.716,3.85884,0.0112371,0.144496,20.887,499.791,29.8184,0.0,0.0
3648,911.75,38.769,39.8096,149.404,105.119,3.83367,0.0113574,0.144277,20.8858,499.601,29.9122,0.0,0.0
3686,921.25,38.4866,39.8912,150.48,105.317,3.86976,,,,499.551,29.8445,0.0,0.0
3711,927.5,38.1891,40.1947,153.251,104.826,3.85979,,,,499.441,29.8257,0.0,0.0

File: Pine_Siding_Cone_HF75Scalar_221004_R1.csv
LABORATORY,FSRI
TEST IDENT,Pine_Siding_HF75_1
OPERATOR,Dow
MATERIAL,Pine Siding
ORIENTATION,Horizontal
HEAT FLUX,75
SURF AREA,0.01
C FACTOR,0.0397745
SPEC HOLDER DIFF,-566
SPECIMEN MASS,63.24
SCAN TIME,0.25
O2 DELAY TIME,11
CO DELAY TIME,11
CO2 DELAY TIME,8
FLOW FACTOR,1
SCAN COUNT,3245
TIME TO IGN,3.75
END OF TEST SCAN,2765
END OF TEST TIME,691.25
TEST STATUS,1
PRE TEST CMT,Dimensions: 101.79 x 101.73 x 18.08 mm

File: Pine_Siding_Cone_HF75Scalar_221004_R2.csv
LABORATORY,FSRI
TEST IDENT,Pine_Siding_HF75_2
OPERATOR,Dow
MATERIAL,Pine Siding
ORIENTATION,Horizontal
HEAT FLUX,75
SURF AREA,0.01
C FACTOR,0.0397745
SPEC HOLDER DIFF,-566
SPECIMEN MASS,79.71
SCAN TIME,0.25
O2 DELAY TIME,11
CO DELAY TIME,11
CO2 DELAY TIME,8
FLOW FACTOR,1
SCAN COUNT,3834
TIME TO IGN,4.5
END OF TEST SCAN,3354
END OF TEST TIME,838.5
TEST STATUS,1
PRE TEST CMT,Dimensions: 101.79 x 101.74 x 18.09 mm

File: Pine_Siding_Cone_HF75Scalar_221004_R3.csv
LABORATORY,FSRI
TEST IDENT,Pine_Siding_HF75_3
OPERATOR,Dow
MATERIAL,Pine Siding
ORIENTATION,Horizontal
HEAT FLUX,75
SURF AREA,0.01
C FACTOR,0.0397745
SPEC HOLDER DIFF,-566
SPECIMEN MASS,67.71
SCAN TIME,0.25
O2 DELAY TIME,11
CO DELAY TIME,11
CO2 DELAY TIME,8
FLOW FACTOR,1
SCAN COUNT,3219
TIME TO IGN,4.25
END OF TEST SCAN,2739
END OF TEST TIME,684.75
TEST STATUS,1
PRE TEST CMT,Dimensions: 101.74 x 101.64 x 18.06 mm