Folder: fsri_materials_database/01_Data/Pine_Siding/Cone (part 4)

File: Pine_Siding_Cone_HF75Scan_221004_R1.csv
Names,Time,Stack TC,Smoke TC,Exh Press,Smoke Comp,Smoke Meas,CO Meter,CO2 Meter,O2 Meter,Sample Mass,Ext Coeff,Start Test,Flame Verif
Chan Gain,,500,500,1,1,1,1,1,1,1,1,1.0,1.0
Offset,,0,0,0.13918,0,0,0,0,0,0,0,0.0,0.0
Gain,,1,1,25.011,14.0162,15.5607,1,1,1,1.0009,1.02981,1.0,1.0
Units,sec,C,C,Pa,%,%,%,%,%,g,/m,,
Baseline,,43.1243,45.3237,149.852,103.662,3.71992,0.00054751,0.0826681,20.9598,-3.24205,30.0585,,
33,8,44.593,45.0457,119.664,104.624,3.98611,0.00457839,0.357094,20.5719,554.09,29.5173,0.0,1.0
66,16.25,56.8207,56.7014,119.811,104.998,3.96094,0.00950054,0.775245,20.0998,552.349,29.6067,0.0,0.0
99,24.5,62.8229,64.3888,136.172,104.697,3.8294,0.00861069,0.647525,20.2696,550.867,29.8859,0.0,0.0
132,32.75,65.9991,68.4515,134.434,104.778,3.86739,0.00732152,0.545173,20.3922,549.566,29.8037,0.0,0.0
165,41,67.384,70.3608,132.182,105.278,3.86739,0.00572203,0.480528,20.4703,548.505,29.8467,0.0,0.0
198,49.25,68.2188,72.2849,135.137,105.319,4.04072,0.00457323,0.431493,20.5367,547.504,29.4542,0.0,0.0
231,57.5,68.3395,72.9878,138.913,104.694,3.96094,0.00357478,0.40075,20.5732,546.613,29.5806,0.0,0.0
264,65.75,68.0641,72.5951,137.113,103.762,4.0013,0.00319299,0.376374,20.6055,545.803,29.4082,0.0,0.0
297,74,67.4768,73.1316,134.627,103.425,4.01175,0.00307702,0.3589,20.6283,545.002,29.3553,0.0,0.0
330,82.25,67.0125,72.6134,137.076,104.042,4.04974,0.00280004,0.345632,20.6443,544.221,29.3238,0.0,0.0
363,90.5,66.8315,72.6217,135.613,104.668,4.14804,0.00256433,0.342755,20.6502,543.471,29.1614,0.0,0.0
396,98.75,66.2526,72.4436,133.251,104.563,4.06683,0.00240363,0.336762,20.6583,542.7,29.3309,0.0,0.0
429,107,66.3824,72.082,138.316,104.089,4.04309,0.00266803,0.332055,20.6637,542.009,29.3428,0.0,0.0
462,115.25,65.68,72.1386,139.521,104.961,4.07776,0.00252018,0.325812,20.6711,541.309,29.341,0.0,0.0
495,123.5,65.6656,71.7325,135.569,104.574,4.0901,0.00202853,0.323901,20.6723,540.578,29.2803,0.0,0.0
528,131.75,65.2171,71.0983,135.611,105.326,4.22924,0.00226024,0.320601,20.6771,539.857,29.0429,0.0,0.0
561,140,65.2129,71.1396,143.821,105.039,4.09485,0.00228117,0.318517,20.6812,539.127,29.3099,0.0,0.0
594,148.25,65.1699,70.9294,134.455,103.834,4.08773,0.00175727,0.315332,20.6852,538.496,29.2214,0.0,0.0
627,156.5,65.2644,70.7159,138.535,103.553,4.04594,0.00179479,0.314437,20.686,537.815,29.2897,0.0,0.0
660,164.75,65.3923,70.867,141.494,104.441,4.1034,0.00199628,0.312396,20.6875,537.135,29.2395,0.0,0.0
693,173,65.1112,70.7828,139.797,104.686,4.08393,0.0021228,0.307551,20.6936,536.474,29.3036,0.0,0.0
726,181.25,64.8944,70.7834,134.389,104.068,4.07443,0.0020061,0.304034,20.699,535.784,29.2712,0.0,0.0
759,189.5,64.5151,69.7106,139.608,104.942,4.13949,0.00194336,0.301182,20.7022,535.143,29.2037,0.0,0.0
792,197.75,64.8936,70.6124,138.953,104.678,4.06541,0.00207651,0.302153,20.7004,534.512,29.344,0.0,0.0
825,206,64.8366,70.3838,138.338,105.322,4.12809,0.00175272,0.301809,20.7003,533.822,29.2612,0.0,0.0
858,214.25,64.6339,69.9305,140.925,105.125,4.14092,0.00166322,0.304262,20.6982,533.191,29.2163,0.0,0.0
891,222.5,64.3614,69.9987,136.949,104.181,4.10957,0.00167448,0.305529,20.6967,532.531,29.2034,0.0,0.0
924,230.75,64.4234,70.0972,142.082,103.516,4.08251,0.0020758,0.299698,20.7048,531.92,29.2052,0.0,0.0
957,239,65.0616,69.837,140.002,103.626,4.08725,0.00206494,0.296651,20.7101,531.269,29.2043,0.0,0.0
990,247.25,65.1169,70.152,138.188,104.174,4.05686,0.00185209,0.293478,20.7099,530.659,29.3194,0.0,0.0
1023,255.5,64.4751,69.7778,136.062,104.646,4.13854,0.00209667,0.295285,20.7086,530.028,29.1801,0.0,0.0
1056,263.75,64.3019,69.3525,142.788,104.758,4.16608,0.00192199,0.294911,20.7089,529.398,29.1299,0.0,0.0
1089,272,64.8937,69.2248,135.648,104.516,4.1091,0.00220624,0.297124,20.706,528.817,29.2334,0.0,0.0
1122,280.25,64.5757,69.7023,142.586,104.165,4.06826,0.00187107,0.298535,20.7059,528.177,29.2933,0.0,0.0
1155,288.5,64.4736,69.5928,138.138,104.243,4.07443,0.00214654,0.300124,20.7031,527.506,29.2864,0.0,0.0
1188,296.75,65.0572,69.9646,136.707,104.713,4.16039,0.00180551,0.301237,20.7011,526.936,29.1384,0.0,0.0
1221,305,64.8052,69.5663,140.49,104.901,4.13854,0.00174952,0.302663,20.6997,526.265,29.2022,0.0,0.0
1254,313.25,64.9655,69.7249,138.991,104.866,4.06304,0.00178326,0.302382,20.7,525.654,29.3655,0.0,0.0
1287,321.5,65.1529,70.0398,138.296,104.647,4.04689,0.00184774,0.301567,20.6993,525.034,29.3826,0.0,0.0
1320,329.75,65.1328,69.6486,138.252,104.476,4.16846,0.00188811,0.30357,20.6959,524.443,29.1004,0.0,0.0
1353,338,65.1306,69.5994,136.027,104.627,4.20977,0.0020919,0.303261,20.6958,523.793,29.0244,0.0,0.0
1386,346.25,65.491,70.1062,138.809,104.798,4.11242,0.0021752,0.305107,20.6969,523.192,29.2505,0.0,0.0
1419,354.5,65.6036,70.1351,137.524,105.005,4.10672,0.00209496,0.306692,20.6922,522.582,29.2808,0.0,0.0
1452,362.75,65.5863,70.4228,135.835,105.136,4.13949,0.00196282,0.307786,20.6902,521.951,29.2203,0.0,0.0
1485,371,65.9189,69.9778,139.773,105.09,4.13474,0.00157558,0.308967,20.6885,521.331,29.2267,0.0,0.0
1518,379.25,65.9231,70.4558,137.084,105.181,4.15754,0.00170748,0.310928,20.688,520.71,29.1849,0.0,0.0
1551,387.5,66.3452,70.3803,137.293,105.254,4.06161,0.00162089,0.311825,20.6866,520.089,29.402,0.0,0.0
1584,395.75,65.993,70.552,139.77,105.324,4.1148,0.00195115,0.315069,20.6841,519.469,29.2905,0.0,0.0
1617,404,66.0786,70.8561,137.074,105.373,4.14376,0.0019623,0.314792,20.6842,518.848,29.2313,0.0,0.0
1650,412.25,66.5896,70.997,138.137,105.377,4.11195,0.00208493,0.318277,20.6802,518.208,29.3013,0.0,0.0
1683,420.5,66.6464,71.0817,136.014,105.376,4.25109,0.00186665,0.32082,20.6749,517.567,29.0006,0.0,0.0
1716,428.75,66.6507,71.6726,135.85,105.36,4.17131,0.00192623,0.32363,20.6723,516.927,29.1704,0.0,0.0
1749,437,67.0498,71.3909,139.83,105.333,4.0882,0.00249257,0.326237,20.6674,516.286,29.3498,0.0,0.0
1782,445.25,67.0901,71.4678,134.492,105.307,4.05639,0.00202274,0.329784,20.6625,515.695,29.4182,0.0,0.0
1815,453.5,67.4593,71.9688,138.482,105.275,4.04167,0.00222558,0.3322,20.6582,515.045,29.4483,0.0,0.0
1848,461.75,67.4531,72.0917,137.019,105.251,4.13949,0.00217467,0.333847,20.657,514.404,29.2302,0.0,0.0
1881,470,67.5387,71.7783,137.225,105.259,4.03264,0.00248624,0.336978,20.654,513.784,29.4671,0.0,0.0
1914,478.25,67.9828,72.4245,136.038,105.255,4.09343,0.00253908,0.339031,20.6529,513.083,29.3316,0.0,0.0
1947,486.5,67.4557,72.653,136.901,105.241,4.12857,0.00235352,0.341076,20.6503,512.412,29.2531,0.0,0.0
1980,494.75,68.1003,72.6944,136.745,105.253,4.06968,0.0024563,0.344358,20.6452,511.732,29.384,0.0,0.0
2013,503,68.3788,72.8818,135.015,105.235,4.12382,0.0023149,0.349433,20.64,511.111,29.2631,0.0,0.0
2046,511.25,68.0571,73.0003,145.433,105.24,4.10245,0.00228205,0.350991,20.6366,510.371,29.3104,0.0,0.0
2079,519.5,68.7651,73.0758,139.154,105.238,4.12572,0.00221279,0.350321,20.6359,509.72,29.2592,0.0,0.0
2112,527.75,68.6739,73.2076,138.884,105.227,4.19125,0.00211143,0.347668,20.6399,509.039,29.1159,0.0,0.0
2145,536,69.1804,74.447,138.185,105.246,4.07206,0.0022584,0.350151,20.6367,508.399,29.3781,0.0,0.0
2178,544.25,69.2002,74.197,138.874,105.23,4.10767,0.00243598,0.350028,20.6382,507.678,29.2981,0.0,0.0
2211,552.5,69.292,73.8929,135.256,105.256,4.10008,0.00244428,0.349702,20.6371,507.018,29.3171,0.0,0.0
2244,560.75,68.9449,74.5944,134.986,105.283,4.05781,0.00223972,0.345363,20.6419,506.377,29.4129,0.0,0.0
2277,569,69.2235,73.9593,137.744,105.284,4.06778,0.00230044,0.344457,20.6442,505.736,29.3909,0.0,0.0
2310,577.25,68.9465,74.0095,135.632,105.3,4.07348,0.00218005,0.337436,20.6509,505.066,29.3796,0.0,0.0
2343,585.5,68.2072,73.5814,136.615,105.317,4.05496,0.00248477,0.328892,20.6602,504.475,29.4222,0.0,0.0
2376,593.75,68.8519,73.736,135.042,105.299,4.10198,0.00240026,0.324862,20.6653,503.935,29.3165,0.0,0.0
2409,602,68.0815,72.8414,137.62,105.304,4.06589,0.00259714,0.317843,20.6774,503.354,29.3968,0.0,0.0
2442,610.25,67.435,72.449,139.725,105.294,4.13094,0.00248805,0.305076,20.6921,502.824,29.2526,0.0,0.0
2475,618.5,66.9436,71.7014,139.247,105.284,4.06541,0.00299655,0.291155,20.7076,502.363,29.3961,0.0,0.0
2508,626.75,66.2542,71.0976,139.167,105.309,4.06019,0.00301198,0.275143,20.7249,501.903,29.4099,0.0,0.0
2541,635,65.5834,70.0533,142.572,105.308,4.10103,0.00334916,0.256489,20.7502,501.503,29.3194,0.0,0.0
2574,643.25,64.0665,68.934,139.868,105.307,4.05354,0.00322684,0.240504,20.7662,501.172,29.4245,0.0,0.0
2607,651.5,62.9479,67.6451,142.201,105.33,4.10435,0.00430217,0.221554,20.7896,500.922,29.314,0.0,0.0
2640,659.75,61.4135,66.1495,144.868,105.326,3.98706,0.0054337,0.20233,20.8103,500.732,29.5756,0.0,0.0
2673,668,59.7209,64.5168,145.074,105.36,4.00937,0.00686541,0.182135,20.8336,500.542,29.528,0.0,0.0
2706,676.25,57.7662,62.6362,147.7,105.375,4.00558,0.0082012,0.170368,20.8504,500.412,29.5379,0.0,0.0
2739,684.5,57.0018,61.2354,143.959,105.369,4.02979,0.00814484,0.164786,20.8562,500.292,29.4829,0.0,0.0
2772,692.75,55.5607,59.7022,149.6,105.368,4.02077,0.00861315,0.161501,20.8586,500.151,29.5031,0.0,0.0
2805,701,54.87,58.4199,149.446,105.333,4.08583,0.00863581,0.160995,20.8606,500.051,29.3551,0.0,0.0
2838,709.25,53.524,57.1308,144.488,105.279,3.98801,0.00852186,0.158103,20.8651,499.981,29.5694,0.0,0.0
2871,717.5,53.3539,56.7887,146.497,105.217,3.96474,0.00881495,0.156888,20.8686,499.841,29.6169,0.0,0.0
2904,725.75,52.5676,55.6163,145.945,105.121,3.98326,0.00863349,0.155919,20.8685,499.731,29.5665,0.0,0.0
2937,734,52.1885,55.4442,146.595,104.998,3.97044,0.00839766,0.155024,20.8681,499.681,29.5851,0.0,0.0
2970,742.25,51.4221,54.8916,145.913,104.913,3.96521,0.00849721,0.15446,20.8703,499.541,29.5897,0.0,0.0
3003,750.5,51.9887,54.0519,143.297,104.823,3.89635,0.0085136,0.153385,20.8708,499.441,29.7402,0.0,0.0
3036,758.75,50.9302,53.3489,142.248,104.727,3.8973,0.00876751,0.151256,20.8738,499.371,29.7297,0.0,0.0
3069,767,50.6169,53.4124,149.44,104.633,3.94242,0.00866225,0.150086,20.8763,499.281,29.6176,0.0,0.0
3102,775.25,49.8717,52.6904,145.998,104.509,3.91867,0.00904242,0.150018,20.8769,499.161,29.6615,0.0,0.0
3135,783.5,50.5747,52.3149,150.912,104.447,3.9296,0.00842145,0.149078,20.8768,499.09,29.631,0.0,0.0
3168,791.75,49.8282,51.5735,149.353,104.658,3.92437,0.00845458,0.147409,20.8789,499.04,29.6613,0.0,0.0
3201,800,49.6125,52.4068,144.612,104.802,3.91155,0.00855703,0.146194,20.881,498.93,29.7032,0.0,0.0
3234,808.25,49.7719,51.6209,143.816,104.905,3.97423,,,,498.81,29.5684,0.0,0.0
3245,811,49.5183,51.8637,148.013,104.908,3.95144,,,,498.78,29.6207,0.0,0.0

File: Pine_Siding_Cone_HF75Scan_221004_R2.csv
Names,Time,Stack TC,Smoke TC,Exh Press,Smoke Comp,Smoke Meas,CO Meter,CO2 Meter,O2 Meter,Sample Mass,Ext Coeff,Start Test,Flame Verif
Chan Gain,,500,500,1,1,1,1,1,1,1,1,1.0,1.0
Offset,,0,0,0.13918,0,0,0,0,0,0,0,0.0,0.0
Gain,,1,1,25.011,14.0162,15.5607,1,1,1,1.0009,1.02981,1.0,1.0
Units,sec,C,C,Pa,%,%,%,%,%,g,/m,,
Baseline,,45.229,46.7061,150.209,103.992,3.6521,0.000257236,0.0794638,20.96875,-3.39265,30.2535,,
39,9.5,46.7769,47.0971,124.699,105.375,3.76149,0.00584393,0.421853,20.5388,569.844,30.1059,0.0,1.0
78,19.25,60.1614,59.7628,127.869,105.294,3.58816,0.011566,0.726148,20.1444,567.853,30.525,0.0,0.0
117,29,67.3828,68.3352,127.864,105.166,3.47372,0.0113414,0.644707,20.2355,566.121,30.8069,0.0,0.0
156,38.75,71.1204,73.8114,126.687,105.03,3.57059,0.011325,0.585766,20.315,564.549,30.5467,0.0,0.0
195,48.5,73.4032,76.5881,132.268,104.85,3.64799,0.0099579,0.536278,20.3747,563.098,30.3374,0.0,0.0
234,58.25,74.3937,79.1244,135.146,104.684,3.53212,0.00854775,0.502864,20.4184,561.737,30.6148,0.0,0.0
273,68,74.0149,79.3117,130.397,104.541,3.44095,0.00749546,0.474692,20.4569,560.436,30.8387,0.0,0.0
312,77.75,74.4245,79.9707,129.53,104.532,3.6233,0.00686703,0.453993,20.4826,559.225,30.3714,0.0,0.0
351,87.5,73.7958,79.8654,134.701,104.762,3.70261,0.00622656,0.426665,20.5209,558.064,30.1957,0.0,0.0
390,97.25,73.5434,79.5764,132.022,104.895,3.69453,0.00590319,0.411244,20.5418,556.893,30.2268,0.0,0.0
429,107,72.6283,79.8521,131.824,104.935,3.77146,0.00569152,0.397585,20.5612,555.792,30.0441,0.0,0.0
468,116.75,72.7482,78.9922,135.105,104.916,3.78048,0.00546484,0.391361,20.5679,554.741,30.0209,0.0,0.0
507,126.5,72.3,78.7361,136.786,104.807,3.71828,0.00473239,0.384349,20.5776,553.77,30.1614,0.0,0.0
546,136.25,71.7878,77.9996,138.547,104.612,3.78096,0.00521856,0.374811,20.5899,552.749,29.9935,0.0,0.0
585,146,71.7189,77.847,133.293,104.359,3.62947,0.00484681,0.363884,20.6062,551.768,30.3411,0.0,0.0
624,155.75,71.3195,77.2981,138.742,104.135,3.81183,0.00442528,0.360517,20.609,550.837,29.8788,0.0,0.0
663,165.5,70.4552,76.5881,138.741,104.108,3.68836,0.00405587,0.353454,20.6177,549.836,30.1739,0.0,0.0
702,175.25,69.9699,76.2085,132.856,104.182,3.75674,0.00378434,0.352,20.6198,548.885,30.0144,0.0,0.0
741,185,70.2308,75.9897,139.455,104.245,3.77669,0.00403658,0.345981,20.6274,548.015,29.972,0.0,0.0
780,194.75,69.6927,75.4474,139.493,104.311,3.77431,0.00359828,0.343746,20.6302,547.054,29.9834,0.0,0.0
819,204.5,69.7828,75.1563,136.594,104.404,3.75294,0.0035811,0.341358,20.6351,546.193,30.0428,0.0,0.0
858,214.25,69.4162,74.633,134.944,104.511,3.84459,0.00384963,0.340887,20.6352,545.272,29.8341,0.0,0.0
897,224,69.042,74.6065,136.14,104.625,3.86264,0.00378619,0.339294,20.6366,544.411,29.8016,0.0,0.0
936,233.75,69.2351,74.2936,138.684,104.7,3.78761,0.00321469,0.336822,20.6403,543.491,29.9853,0.0,0.0
975,243.5,69.2149,74.1165,136.298,104.747,3.79758,0.00346863,0.338161,20.64,542.64,29.9656,0.0,0.0
1014,253.25,68.969,73.9851,135.588,104.765,3.84982,0.00316725,0.335301,20.6451,541.739,29.8438,0.0,0.0
1053,263,68.6877,73.7831,138.745,104.753,3.89493,0.00305061,0.334508,20.6456,540.858,29.7374,0.0,0.0
1092,272.75,68.8424,73.7617,135.914,104.719,3.84839,0.00309201,0.334733,20.6431,539.997,29.8431,0.0,0.0
1131,282.5,68.9532,73.676,135.081,104.68,3.9011,0.00313478,0.335544,20.6435,539.167,29.7168,0.0,0.0
1170,292.25,68.9873,73.4872,133.779,104.611,3.87166,0.00307118,0.337676,20.6412,538.246,29.7793,0.0,0.0
1209,302,68.8006,73.4149,141.533,104.524,3.86216,0.0028449,0.335409,20.643,537.385,29.794,0.0,0.0
1248,311.75,68.8333,73.8261,140.969,104.439,3.86929,0.00326798,0.340174,20.6373,536.514,29.77,0.0,0.0
1287,321.5,69.025,73.6349,133.855,104.316,3.84649,0.00295083,0.339333,20.6389,535.683,29.8127,0.0,0.0
1326,331.25,69.0325,73.6234,133.318,104.18,3.82892,0.00307112,0.338169,20.6403,534.773,29.8423,0.0,0.0
1365,341,68.9916,73.8479,136.517,104.033,3.89445,0.00285185,0.338502,20.6416,533.952,29.6762,0.0,0.0
1404,350.75,69.3074,73.9333,139.341,103.872,3.80755,0.00319898,0.34173,20.6383,533.091,29.8661,0.0,0.0
1443,360.5,69.0487,73.7011,137.674,103.746,3.74962,0.00277201,0.342848,20.6367,532.22,29.9937,0.0,0.0
1482,370.25,69.867,74.4282,136.419,103.689,3.83652,0.00323725,0.340934,20.6374,531.34,29.7817,0.0,0.0
1521,380,69.72,74.1345,134.931,103.723,3.8973,0.00297669,0.347468,20.629,530.489,29.6427,0.0,0.0
1560,389.75,69.631,74.2025,138.569,103.821,3.79236,0.0028694,0.349819,20.6257,529.698,29.8978,0.0,0.0
1599,399.5,69.6139,74.2294,136.772,104.03,3.93672,0.00303778,0.349776,20.625,528.717,29.5784,0.0,0.0
1638,409.25,70.0744,74.5636,136.161,104.322,3.86881,0.00309805,0.352963,20.6215,527.876,29.761,0.0,0.0
1677,419,69.9623,74.6569,137.623,104.588,3.91772,0.00291184,0.356254,20.6182,527.046,29.6705,0.0,0.0
1716,428.75,69.6169,74.357,138.476,104.742,3.9315,0.00311614,0.357919,20.616,526.195,29.6521,0.0,0.0
1755,438.5,70.3128,74.3883,136.73,104.65,3.86406,0.00341421,0.360365,20.6131,525.284,29.8004,0.0,0.0
1794,448.25,70.6205,74.7458,132.802,104.279,3.82702,0.00314117,0.362753,20.6116,524.353,29.8554,0.0,0.0
1833,458,70.748,75.388,135.016,104.182,3.83082,0.00311377,0.363387,20.6116,523.543,29.838,0.0,0.0
1872,467.75,70.8665,75.2557,140.449,104.881,3.88353,0.00333028,0.364841,20.6084,522.642,29.775,0.0,0.0
1911,477.5,70.8592,75.4449,135.125,104.791,3.95429,0.00314853,0.366997,20.6064,521.811,29.6041,0.0,0.0
1950,487.25,71.224,76.251,135.691,104.646,3.78096,0.00339095,0.368481,20.6039,520.89,29.9965,0.0,0.0
1989,497,71.6984,76.1197,138.706,105.184,3.90775,0.00356014,0.37072,20.6015,519.989,29.7449,0.0,0.0
2028,506.75,71.4758,76.4323,129.446,105.363,3.86216,0.00357398,0.368672,20.603,519.078,29.8662,0.0,0.0
2067,516.5,72.0156,76.5997,135.015,104.787,3.84792,0.00289742,0.36948,20.6011,518.258,29.8501,0.0,0.0
2106,526.25,71.7244,76.4918,136.497,103.877,3.84317,0.00346937,0.365713,20.6062,517.337,29.7824,0.0,0.0
2145,536,71.5572,76.7762,134.736,103.465,3.86454,0.00364059,0.368911,20.6029,516.506,29.6965,0.0,0.0
2184,545.75,71.7329,76.7583,137.21,103.888,3.86406,0.00381898,0.371581,20.601,515.605,29.7344,0.0,0.0
2223,555.5,71.7121,76.6642,138.955,104.633,3.81895,0.00357426,0.368871,20.6009,514.735,29.9051,0.0,0.0
2262,565.25,71.6273,76.7847,137.191,104.668,3.80185,0.00376143,0.364243,20.6083,513.914,29.9486,0.0,0.0
2301,575,71.8892,76.5363,135.317,104.096,3.78001,0.00428627,0.36269,20.6089,513.073,29.9511,0.0,0.0
2340,584.75,71.4786,76.6918,132.951,104.927,3.86596,0.00414174,0.355658,20.6183,512.242,29.8199,0.0,0.0
2379,594.5,71.5711,76.1875,132.728,104.638,3.86026,0.00393404,0.347086,20.6327,511.432,29.8083,0.0,0.0
2418,604.25,70.8226,75.8981,135.291,105.329,3.89778,0.0038622,0.335457,20.645,510.731,29.7804,0.0,0.0
2457,614,70.2578,75.2412,134.973,104.879,3.94004,0.00381197,0.330632,20.6506,509.98,29.6443,0.0,0.0
2496,623.75,69.7403,74.8177,140.666,103.675,3.77241,0.00359376,0.322025,20.659,509.29,29.9328,0.0,0.0
2535,633.5,69.3697,74.2434,135.914,103.773,3.86074,0.00335502,0.31408,20.6686,508.679,29.7322,0.0,0.0
2574,643.25,68.5171,74.1229,135.396,104.554,3.81847,0.0031013,0.301317,20.6853,507.938,29.8993,0.0,0.0
2613,653,68.3487,73.3975,140.794,104.758,3.90158,0.00346081,0.29137,20.6949,507.368,29.7224,0.0,0.0
2652,662.75,67.9728,72.2123,140.354,104.151,3.82702,0.00359587,0.281343,20.7091,506.827,29.8442,0.0,0.0
2691,672.5,67.3819,71.987,140.859,104.852,3.91108,0.00360226,0.268674,20.7223,506.277,29.7086,0.0,0.0
2730,682.25,66.4436,71.1212,139.897,104.629,3.93339,0.00328006,0.257417,20.7391,505.816,29.638,0.0,0.0
2769,692,65.3711,70.0291,138.566,104.919,3.84887,0.00361437,0.251101,20.7465,505.326,29.8592,0.0,0.0
2808,701.75,65.073,69.3998,139.39,105.405,3.91013,0.00326331,0.244505,20.7549,504.876,29.7583,0.0,0.0
2847,711.5,64.1331,68.3464,143.512,105.291,3.903,0.00323372,0.236647,20.7635,504.445,29.765,0.0,0.0
2886,721.25,63.9468,67.3503,144.526,104.78,3.89493,0.00361793,0.230879,20.7702,504.025,29.7398,0.0,0.0
2925,731,62.8696,66.6219,144.797,104.204,3.83035,0.00386271,0.22451,20.7787,503.695,29.841,0.0,0.0
2964,740.75,61.8992,65.3957,141.526,103.814,3.82702,0.00370082,0.217238,20.7871,503.344,29.815,0.0,0.0
3003,750.5,61.449,64.9167,143.21,103.656,3.90253,0.00385811,0.209698,20.7969,503.034,29.6248,0.0,0.0
3042,760.25,60.3103,64.1423,144.068,103.677,3.80755,0.0037307,0.201276,20.8081,502.744,29.8492,0.0,0.0
3081,770,59.6554,62.9961,142.721,103.831,3.90253,0.00427852,0.190902,20.823,502.474,29.64,0.0,0.0
3120,779.75,58.6544,62.4639,144.684,104.057,3.98088,0.00410768,0.179626,20.8375,502.283,29.48,0.0,0.0
3159,789.5,58.4094,61.6079,142.147,103.925,3.91677,0.00456263,0.170228,20.8519,502.103,29.6152,0.0,0.0
3198,799.25,57.4017,60.5927,144.194,104.127,3.94812,0.00520129,0.159651,20.8645,501.903,29.5608,0.0,0.0
3237,809,55.6091,59.1575,150.467,104.382,3.94194,0.00618707,0.150374,20.8755,501.813,29.5971,0.0,0.0
3276,818.75,55.3335,58.1066,146.896,104.61,3.93197,0.00620541,0.146344,20.8814,501.663,29.6396,0.0,0.0
3315,828.5,54.6694,57.4436,145.842,104.768,3.88971,0.00605942,0.144567,20.8846,501.553,29.7509,0.0,0.0
3354,838.25,54.0804,56.8702,144.971,104.817,4.03597,0.00622505,0.143094,20.8852,501.443,29.4217,0.0,0.0
3393,848,52.7819,54.9387,149.256,104.874,3.92247,0.00671476,0.142039,20.8887,501.363,29.6842,0.0,0.0
3432,857.75,51.5663,54.421,144.676,104.921,3.93292,0.00657784,0.141683,20.8876,501.262,29.6642,0.0,0.0
3471,867.5,51.5644,53.8098,148.053,104.947,3.88401,0.00668498,0.140471,20.8853,501.162,29.7795,0.0,0.0
3510,877.25,51.1766,53.4418,146.584,104.948,3.9125,0.00677777,0.140258,20.8853,501.072,29.7136,0.0,0.0
3549,887,51.1303,53.0001,146.835,104.957,3.85504,0.00669607,0.140782,20.8873,500.942,29.848,0.0,0.0
3588,896.75,50.2977,53.0305,142.855,104.952,3.85124,0.00687347,0.139804,20.8894,500.882,29.8565,0.0,0.0
3627,906.5,50.3136,52.7275,144.562,104.946,3.89398,0.0067662,0.139071,20.8899,500.762,29.7563,0.0,0.0
3666,916.25,50.4067,52.5651,146.748,104.931,3.85077,0.00677547,0.13898,20.8899,500.672,29.8558,0.0,0.0
3705,926,50.1471,52.2749,144.567,104.895,3.87926,0.0067374,0.13874,20.8899,500.562,29.7861,0.0,0.0
3744,935.75,49.8725,51.7022,147.92,104.848,3.88448,0.00696365,0.138214,20.8905,500.472,29.7699,0.0,0.0
3783,945.5,50.1207,52.2943,150.838,104.777,3.86311,0.00686773,0.137911,20.8923,500.392,29.8136,0.0,0.0
3822,955.25,50.1295,51.9487,148.294,104.706,3.85931,,,,500.362,29.8164,0.0,0.0
3834,958.25,49.6332,51.9183,148.17,104.676,3.83747,,,,500.292,29.8651,0.0,0.0