Folder: fsri_materials_database/01_Data/Pine_Siding/Cone

Note: 01_Data/README.md
# Materials and Products Database
## 01_Data

Raw data generated from each apparatus are included here in plain-text format. The data is organized first by material, next by the short name of test apparatus used, and where applicable additional filtering by test settings.

### material.json

Each material directory contains a json file of the same name as the material. This file links the data stored in the repository as well as data and graphs produced by the accompanying scripts (__02_Scripts__) to the respective landing page for the material on the front-end website.

File: Pine_Siding_Cone_HF25Scalar_221004_R1.csv
LABORATORY,FSRI
TEST IDENT,Pine_Siding_HF25_1
OPERATOR,Dow
MATERIAL,Pine Siding
ORIENTATION,Horizontal
HEAT FLUX,25
SURF AREA,0.01
C FACTOR,0.0397745
SPEC HOLDER DIFF,-566
SPECIMEN MASS,171.46
SCAN TIME,0.25
O2 DELAY TIME,11
CO DELAY TIME,11
CO2 DELAY TIME,8
FLOW FACTOR,1
SCAN COUNT,5528
TIME TO IGN,72.75
END OF TEST SCAN,5048
END OF TEST TIME,1262
TEST STATUS,1
PRE TEST CMT,Dimensions: 100.86 x 101.59 x 37.98 mm
POST TEST CMT,Sample warped into arch shape during end of decay phase. See post test pictures.

File: Pine_Siding_Cone_HF25Scalar_221004_R2.csv
LABORATORY,FSRI
TEST IDENT,Pine_Siding_HF25_2
OPERATOR,Dow
MATERIAL,Pine Siding
ORIENTATION,Horizontal
HEAT FLUX,25
SURF AREA,0.01
C FACTOR,0.0397745
SPEC HOLDER DIFF,-566
SPECIMEN MASS,68.3
SCAN TIME,0.25
O2 DELAY TIME,11
CO DELAY TIME,11
CO2 DELAY TIME,8
FLOW FACTOR,1
SCAN COUNT,5038
TIME TO IGN,56.25
END OF TEST SCAN,4558
END OF TEST TIME,1139.5
TEST STATUS,1
PRE TEST CMT,Dimensions: 101.78 x 101.24 x 18.01 mm
POST TEST CMT,Some minor warping in last minute prior to extinguishment.

File: Pine_Siding_Cone_HF25Scalar_221004_R3.csv
LABORATORY,FSRI
TEST IDENT,Pine_Siding_HF25_3
OPERATOR,Dow
MATERIAL,Pine Siding
ORIENTATION,Horizontal
HEAT FLUX,25
SURF AREA,0.01
C FACTOR,0.0397745
SPEC HOLDER DIFF,-566
SPECIMEN MASS,85.52
SCAN TIME,0.25
O2 DELAY TIME,11
CO DELAY TIME,11
CO2 DELAY TIME,8
FLOW FACTOR,1
SCAN COUNT,6565
TIME TO IGN,71.75
END OF TEST SCAN,6085
END OF TEST TIME,1521.25
TEST STATUS,1
PRE TEST CMT,Dimensions: 101.75 x 101.22 x 17.97 mm
POST TEST CMT,Some minor warping in last minute prior to extinguishment.

File: Pine_Siding_Cone_HF25Scan_221004_R1.csv
Names,Time,Stack TC,Smoke TC,Exh Press,Smoke Comp,Smoke Meas,CO Meter,CO2 Meter,O2 Meter,Sample Mass,Ext Coeff,Start Test,Flame Verif
Chan Gain,,500,500,1,1,1,1,1,1,1,1,1.0,1.0
Offset,,0,0,0.13918,0,0,0,0,0,0,0,0.0,0.0
Gain,,1,1,25.011,14.0162,15.5607,1,1,1,1.0009,1.02981,1.0,1.0
Units,sec,C,C,Pa,%,%,%,%,%,g,/m,,
Baseline,,22.0776,22.8906,161.972,104.646,4.20137,0.00075447,0.0885314,20.9523,-2.65453,29.0441,,
57,14,20.1658,21.0206,159.269,104.044,4.16086,0.000750428,0.0936259,20.9468,556.392,29.0795,0.0,0.0
114,28.25,20.705,21.3425,160.829,104.388,4.17036,0.00063092,0.0891375,20.954,556.232,29.0887,0.0,0.0
171,42.5,20.3423,21.2516,161.849,104.632,4.16846,0.000691051,0.0892578,20.9541,556.062,29.1139,0.0,0.0
228,56.75,20.6872,21.2928,161.638,104.313,4.15754,0.000946795,0.0886392,20.9538,555.852,29.11,0.0,0.0
285,71,21.2337,21.4037,160.993,103.638,4.08868,0.00153563,0.0894457,20.9538,555.591,29.2022,0.0,0.0
342,85.25,31.0319,29.6379,138.481,103.286,4.77915,0.00468629,0.53415,20.4081,553.76,27.7619,0.0,0.0
399,99.5,36.724,37.0229,147.819,103.716,4.51987,0.00351072,0.39198,20.5905,552.148,28.3033,0.0,0.0
456,113.75,37.5052,38.9666,152.654,104.643,4.47238,0.00244357,0.30235,20.6995,551.037,28.4792,0.0,0.0
513,128,37.0349,39.1801,153.997,105.287,4.46478,0.00202956,0.263848,20.7447,550.046,28.5499,0.0,0.0
570,142.25,36.3662,38.668,153.609,105.223,4.44626,0.0019504,0.239181,20.7785,549.216,28.582,0.0,0.0
627,156.5,34.9574,37.7178,150.061,104.763,4.35888,0.00207988,0.223381,20.7956,548.455,28.7217,0.0,0.0
684,170.75,33.3294,37.1046,152.202,104.616,4.42774,0.00259061,0.212012,20.8085,547.734,28.5675,0.0,0.0
741,185,32.8637,36.2981,156.83,104.971,4.44056,0.00295767,0.207854,20.8139,547.054,28.5719,0.0,0.0
798,199.25,32.7928,35.3238,155.724,104.443,4.41824,0.00326955,0.207132,20.8132,546.353,28.5718,0.0,0.0
855,213.5,32.0451,34.7681,157.137,104.147,4.36268,0.00361449,0.20439,20.8161,545.643,28.6606,0.0,0.0
912,227.75,31.9357,34.5931,154.718,104.429,4.39877,0.00415287,0.204242,20.8168,544.972,28.6105,0.0,0.0
969,242,31.2245,34.1233,156.217,104.605,4.42442,0.00429092,0.20417,20.8159,544.261,28.5733,0.0,0.0
1026,256.25,32.1774,33.4796,154.584,104.42,4.44246,0.00406382,0.207005,20.8128,543.541,28.5205,0.0,0.0
1083,270.5,32.0274,33.9894,155.125,103.909,4.42252,0.00389402,0.208268,20.8108,542.84,28.5168,0.0,0.0
1140,284.75,32.2247,33.6183,157.393,103.462,4.37645,0.00402306,0.20989,20.8091,542.119,28.5724,0.0,0.0
1197,299,31.7002,33.7692,156.927,103.25,4.40922,0.00373161,0.207535,20.8128,541.399,28.4865,0.0,0.0
1254,313.25,31.8504,33.6913,157.146,103.404,4.41539,0.00388404,0.207902,20.8118,540.658,28.4874,0.0,0.0
1311,327.5,31.9709,34.0932,157.594,103.951,4.34654,0.00365132,0.209989,20.8108,539.987,28.677,0.0,0.0
1368,341.75,31.5726,34.2472,152.196,104.596,4.43391,0.0039453,0.206719,20.8151,539.257,28.5531,0.0,0.0
1425,356,31.3932,33.9438,152.049,105.09,4.43154,0.00409109,0.204569,20.8186,538.546,28.6005,0.0,0.0
1482,370.25,31.4654,33.7054,154.522,105.32,4.54788,0.00386191,0.205225,20.8163,537.875,28.3861,0.0,0.0
1539,384.5,31.6025,33.6671,152.948,105.187,4.49185,0.0040921,0.205671,20.8126,537.165,28.4867,0.0,0.0
1596,398.75,31.684,33.6226,158.195,104.841,4.46051,0.00414695,0.205971,20.8142,536.454,28.5203,0.0,0.0
1653,413,32.1682,33.0955,154.343,104.498,4.43344,0.00448406,0.208072,20.8119,535.784,28.5456,0.0,0.0
1710,427.25,32.1096,33.3609,157.18,104.877,4.46573,0.00411521,0.208614,20.8094,535.083,28.5127,0.0,0.0
1767,441.5,31.775,33.6562,159.194,104.915,4.45671,0.00441277,0.206985,20.8136,534.412,28.5343,0.0,0.0
1824,455.75,32.3096,33.1648,155.718,104.227,4.46573,0.00471999,0.206234,20.8124,533.752,28.4566,0.0,0.0
1881,470,31.8466,33.5645,154.319,104.231,4.43344,0.00495055,0.208341,20.809,533.081,28.5225,0.0,0.0
1938,484.25,31.9951,33.5209,151.09,104.468,4.4757,0.00459805,0.206874,20.8099,532.421,28.4573,0.0,0.0
1995,498.5,31.9785,33.8266,154.941,104.59,4.47333,0.00473341,0.205641,20.8106,531.8,28.4726,0.0,0.0
2052,512.75,31.7848,34.0633,152.515,104.474,4.47523,0.00474633,0.206561,20.8121,531.109,28.4587,0.0,0.0
2109,527,32.3734,33.3905,160.191,104.183,4.48045,0.00442757,0.207469,20.8106,530.479,28.423,0.0,0.0
2166,541.25,32.5351,33.2941,158.839,103.753,4.45053,0.00499329,0.207645,20.8163,529.838,28.4462,0.0,0.0
2223,555.5,32.4638,33.3892,154.062,103.369,4.48473,0.00408872,0.210355,20.8114,529.198,28.3436,0.0,0.0
2280,569.75,32.0559,33.8318,153.065,103.196,4.43819,0.00496318,0.210698,20.8075,528.547,28.4227,0.0,0.0
2337,584,32.6647,34.0247,155.616,103.217,4.43961,0.00388757,0.214196,20.8058,527.906,28.4216,0.0,0.0
2394,598.25,32.7211,34.1589,153.744,103.192,4.42252,0.0041228,0.219952,20.7978,527.316,28.4543,0.0,0.0
2451,612.5,32.7895,35.1062,153.211,103.219,4.4738,0.00440488,0.223291,20.794,526.605,28.3525,0.0,0.0
2508,626.75,33.8673,34.6059,154.167,103.509,4.5778,0.00434068,0.224982,20.7914,525.935,28.1703,0.0,0.0
2565,641,33.979,35.5977,152.623,104.119,4.58635,0.00428599,0.227985,20.7874,525.284,28.2065,0.0,0.0
2622,655.25,34.2584,35.9931,149.527,104.568,4.62814,0.00386213,0.230644,20.7888,524.593,28.1634,0.0,0.0
2679,669.5,34.9552,36.5664,151.997,104.327,4.5702,0.00288584,0.232518,20.7847,523.913,28.2563,0.0,0.0
2736,683.75,35.3727,37.2432,149.801,104.622,4.67895,0.0035724,0.239975,20.7771,523.132,28.0694,0.0,0.0
2793,698,35.7356,37.3501,152.958,104.711,4.58207,0.00279778,0.243038,20.7753,522.411,28.2661,0.0,0.0
2850,712.25,35.9653,38.1947,152.345,105.11,4.59015,0.00269435,0.249228,20.7671,521.631,28.2846,0.0,0.0
2907,726.5,36.4144,38.8039,149.022,105.009,4.61057,0.00283581,0.254178,20.7608,520.88,28.2358,0.0,0.0
2964,740.75,36.7202,38.8078,147.936,103.452,4.62481,0.00259031,0.259624,20.7556,520.079,28.0729,0.0,0.0
3021,755,37.4448,39.0076,148.978,103.784,4.65948,0.00265196,0.265523,20.7493,519.259,28.0344,0.0,0.0
3078,769.25,37.4454,39.6136,153.819,104.578,4.65805,0.00192495,0.266916,20.7498,518.368,28.106,0.0,0.0
3135,783.5,37.64,40.1879,152.717,104.678,4.65046,0.00230537,0.273034,20.7412,517.497,28.1295,0.0,0.0
3192,797.75,38.4177,40.4725,152.742,104.699,4.63669,0.00283981,0.277017,20.7341,516.606,28.158,0.0,0.0
3249,812,38.5765,41.1135,149.272,105.042,4.63953,0.00244795,0.282557,20.726,515.695,28.182,0.0,0.0
3306,826.25,38.9718,41.7506,149.227,103.283,4.5835,0.00235946,0.289889,20.7176,514.775,28.1393,0.0,0.0
3363,840.5,39.5068,42.0984,148.27,104.584,4.6666,0.00215245,0.291688,20.7182,513.784,28.0901,0.0,0.0
3420,854.75,40.1963,42.5633,146.224,104.483,4.68227,0.00228059,0.297627,20.7106,512.843,28.051,0.0,0.0
3477,869,40.3201,43.3083,150.129,104.864,4.68607,0.00223664,0.297714,20.7103,511.852,28.0766,0.0,0.0
3534,883.25,41.137,43.3548,148.627,104.555,4.72549,0.00214368,0.301192,20.7069,510.811,27.9742,0.0,0.0
3591,897.5,40.8152,43.9032,150.702,103.465,4.66043,0.0022378,0.295257,20.7107,509.88,28.0048,0.0,0.0
3648,911.75,40.6887,44.1766,149.119,104.645,4.73498,0.00279069,0.294035,20.7157,508.929,27.9639,0.0,0.0
3705,926,40.8334,43.5512,151.323,104.078,4.63526,0.00352928,0.286497,20.7236,507.999,28.1071,0.0,0.0
3762,940.25,40.612,43.1283,151.897,104.929,4.65378,0.00333667,0.279805,20.7305,507.098,28.1446,0.0,0.0
3819,954.5,40.4068,42.8239,154.476,104.587,4.62149,0.00348901,0.273596,20.7351,506.287,28.178,0.0,0.0
3876,968.75,39.7907,42.7981,152.506,105.241,4.63289,0.00338503,0.268082,20.7403,505.456,28.2121,0.0,0.0
3933,983,38.9827,41.7287,150.537,105.172,4.60867,0.00414972,0.25174,20.759,504.756,28.2535,0.0,0.0
3990,997.25,38.2477,40.863,153.119,104.477,4.57543,0.00440642,0.243016,20.7711,504.025,28.259,0.0,0.0
4047,1011.5,37.5387,40.1124,154.106,103.693,4.52034,0.00613849,0.232971,20.7808,503.454,28.3004,0.0,0.0
4104,1025.75,36.2161,39.3492,152.213,103.358,4.50182,0.00776322,0.213876,20.8023,502.904,28.3082,0.0,0.0
4161,1040,34.9703,37.3662,157.449,103.508,4.51892,0.00884345,0.202027,20.8157,502.363,28.2871,0.0,0.0
4218,1054.25,33.6932,36.5271,155.347,103.883,4.48473,0.0103695,0.189019,20.8308,501.943,28.3884,0.0,0.0
4275,1068.5,32.8728,35.6355,158.77,104.232,4.45338,0.0122964,0.179605,20.8388,501.563,28.482,0.0,0.0
4332,1082.75,31.7641,33.7236,153.823,104.443,4.48283,0.012492,0.168951,20.8521,501.192,28.4408,0.0,0.0
4389,1097,31.1787,33.0238,159.75,104.526,4.47665,0.010946,0.173467,20.8419,500.872,28.4604,0.0,0.0
4446,1111.25,30.4539,32.5508,161.841,104.557,4.41729,0.0146108,0.168463,20.8447,500.562,28.5836,0.0,0.0
4503,1125.5,30.0419,31.1664,158.212,104.56,4.43724,0.0194006,0.168744,20.8434,500.231,28.5433,0.0,0.0
4560,1139.75,29.8433,30.941,158.416,104.531,4.45243,0.0198988,0.168305,20.8418,499.931,28.5098,0.0,0.0
4617,1154,28.8179,30.434,158.937,104.488,4.41064,0.0221028,0.163851,20.8454,499.641,28.5913,0.0,0.0
4674,1168.25,28.1796,29.3964,156.827,104.464,4.35318,0.0223687,0.164048,20.8456,499.411,28.7077,0.0,0.0
4731,1182.5,27.9282,28.9782,160.666,104.385,4.385,0.0230223,0.160981,20.8504,499.191,28.635,0.0,0.0
4788,1196.75,27.0943,28.5803,160.661,104.24,4.37076,0.0225906,0.159264,20.8529,498.96,28.6519,0.0,0.0
4845,1211,27.1816,28.2338,158.681,104.154,4.3755,0.0231873,0.159238,20.8505,498.76,28.6347,0.0,0.0
4902,1225.25,26.896,28.1534,160.976,103.978,4.3907,0.0239082,0.155894,20.8545,498.57,28.5881,0.0,0.0
4959,1239.5,26.8788,27.47,159.406,103.893,4.33087,0.0243712,0.156109,20.8562,498.34,28.7046,0.0,0.0
5016,1253.75,26.2324,27.1709,158.559,103.799,4.33419,0.0243938,0.150706,20.8607,498.15,28.6895,0.0,0.0
5073,1268,25.4027,26.2963,160.42,103.49,4.33751,0.0239689,0.154529,20.8565,497.919,28.6556,0.0,0.0
5130,1282.25,25.2551,26.1005,158.581,103.344,4.31709,0.0232781,0.14899,20.868,497.779,28.6855,0.0,0.0
5187,1296.5,25.0868,25.9791,160.516,103.5625,4.36648,0.0233163,0.147298,20.8694,497.579,28.6018,0.0,0.0
5244,1310.75,24.8992,26.252,157.86,104.194,4.3869,0.0218621,0.146163,20.8688,497.419,28.6146,0.0,0.0
5301,1325,25.1489,25.6457,157.989,104.898,4.38168,0.0221233,0.146697,20.8665,497.219,28.6862,0.0,0.0
5358,1339.25,24.6572,25.3657,159.717,105.289,4.40115,0.0219495,0.145207,20.8695,497.019,28.6798,0.0,0.0
5415,1353.5,24.7827,25.5817,157.942,105.268,4.3926,0.0215314,0.144297,20.8727,496.858,28.6955,0.0,0.0
5472,1367.75,25.1846,25.0215,162.705,104.853,4.35793,0.0218891,0.143279,20.8713,496.688,28.7314,0.0,0.0
5528,1381.75,24.506,24.713,159.077,104.426,4.32374,,,,496.528,28.7657,0.0,0.0

File: Pine_Siding_Cone_HF25Scan_221004_R2.csv
Names,Time,Stack TC,Smoke TC,Exh Press,Smoke Comp,Smoke Meas,CO Meter,CO2 Meter,O2 Meter,Sample Mass,Ext Coeff,Start Test,Flame Verif
Chan Gain,,500,500,1,1,1,1,1,1,1,1,1.0,1.0
Offset,,0,0,0.13918,0,0,0,0,0,0,0,0.0,0.0
Gain,,1,1,25.011,14.0162,15.5607,1,1,1,1.0009,1.02981,1.0,1.0
Units,sec,C,C,Pa,%,%,%,%,%,g,/m,,
Baseline,,21.7138,22.3699,162.22,103.698,4.18244,0.000648926,0.088725,20.9565,-2.54542,29.0028,,
52,12.75,19.725,20.7391,158.62,105.162,4.17511,0.000346243,0.0952644,20.9481,560.806,29.1451,0.0,0.0
104,25.75,20.1582,21.1037,162.488,105.319,4.18508,0.000591387,0.0883368,20.959,560.666,29.1371,0.0,0.0
156,38.75,20.2296,21.0643,162.286,105.106,4.18365,0.000725334,0.0881968,20.9611,560.536,29.1219,0.0,0.0
208,51.75,20.5375,21.2931,160.374,104.693,4.17986,0.000652967,0.0881888,20.9621,560.366,29.0945,0.0,0.0
260,64.75,23.6792,23.2176,147.847,104.524,4.71979,0.00324172,0.30396,20.7028,559.585,27.9825,0.0,1.0
312,77.75,33.5497,32.9483,148.34,104.962,4.64333,0.00458482,0.464694,20.4878,557.853,28.1677,0.0,0.0
364,90.75,37.1077,37.1421,144.913,104.804,4.48425,0.00332404,0.36274,20.6197,556.572,28.4691,0.0,0.0
416,103.75,37.5163,38.9015,143.891,104.091,4.41302,0.00262071,0.307186,20.6912,555.491,28.5521,0.0,0.0
468,116.75,37.3983,39.434,153.974,104.231,4.43106,0.00230988,0.275789,20.7314,554.581,28.5274,0.0,0.0
520,129.75,36.7965,39.3135,155.015,104.433,4.42869,0.00213808,0.253929,20.7587,553.75,28.5497,0.0,0.0
572,142.75,35.8588,38.5536,152.533,104.554,4.42062,0.00248016,0.242441,20.7707,553.019,28.5766,0.0,0.0
624,155.75,35.4957,38.3814,153.928,104.568,4.42347,0.0023217,0.234634,20.7806,552.268,28.572,0.0,0.0
676,168.75,34.8963,37.8388,153.73,104.553,4.43391,0.00265275,0.22929,20.7882,551.548,28.5494,0.0,0.0
728,181.75,34.6354,37.7727,154.18,104.448,4.47238,0.00291471,0.225622,20.7936,550.917,28.4623,0.0,0.0
780,194.75,34.3459,36.9088,152.967,104.237,4.45861,0.00305947,0.219624,20.7999,550.156,28.4718,0.0,0.0
832,207.75,34.2645,36.9396,153.838,104.15,4.46288,0.0033658,0.215724,20.8053,549.476,28.4557,0.0,0.0
884,220.75,33.4909,36.7092,158.999,104.955,4.49565,0.00358573,0.211853,20.8097,548.825,28.4591,0.0,0.0
936,233.75,33.4958,36.0607,154.521,104.477,4.48947,0.00343558,0.208917,20.8145,548.205,28.4303,0.0,0.0
988,246.75,33.7873,35.9193,153.415,104.964,4.54978,0.00334585,0.206716,20.8183,547.564,28.3518,0.0,0.0
1040,259.75,33.5238,35.4693,153.588,105.313,4.52984,0.00387381,0.208798,20.8159,546.904,28.4214,0.0,0.0
1092,272.75,33.5013,35.423,154.84,104.537,4.50799,0.00325593,0.211111,20.8121,546.233,28.3984,0.0,0.0
1144,285.75,33.3817,33.7774,153.251,103.338,4.44056,0.0027298,0.212084,20.8112,545.552,28.4302,0.0,0.0
1196,298.75,33.0534,35.3261,149.56,103.672,4.4814,0.00296847,0.209353,20.8151,544.892,28.3767,0.0,0.0
1248,311.75,32.0559,36.0774,156.588,104.601,4.5023,0.0032011,0.20847,20.8136,544.251,28.4153,0.0,0.0
1300,324.75,33.0016,34.2233,151.581,104.202,4.50752,0.00379811,0.207145,20.8147,543.651,28.3702,0.0,0.0
1352,337.75,32.9072,35.0261,153.387,104.962,4.52082,0.00324497,0.205254,20.8189,543.01,28.4093,0.0,0.0
1404,350.75,32.5724,34.7863,152.335,104.861,4.51702,0.00343053,0.204701,20.8206,542.359,28.4082,0.0,0.0
1456,363.75,33.0007,34.8574,149.902,105.117,4.51702,0.0031924,0.212392,20.8119,541.709,28.4303,0.0,0.0
1508,376.75,33.222,35.3508,154.929,103.385,4.4947,0.00327699,0.208275,20.8158,541.028,28.3249,0.0,0.0
1560,389.75,32.6624,34.9391,154.06,104.1,4.52699,0.00295758,0.21031,20.8128,540.438,28.3225,0.0,0.0
1612,402.75,32.9056,34.6516,153.747,104.36,4.5645,0.00334491,0.207297,20.817,539.837,28.2705,0.0,0.0
1664,415.75,32.6339,34.698,151.118,104.951,4.52224,0.0038079,0.206354,20.8182,539.197,28.4056,0.0,0.0
1716,428.75,32.5361,34.687,151.952,105.268,4.51227,0.00366777,0.205407,20.8201,538.626,28.4527,0.0,0.0
1768,441.75,32.3099,34.9348,155.182,103.935,4.46668,0.00403823,0.203914,20.821,538.006,28.4294,0.0,0.0
1820,454.75,32.7826,34.5439,152.745,103.888,4.44056,0.0040141,0.204454,20.8204,537.445,28.4782,0.0,0.0
1872,467.75,32.5406,34.5088,158.357,104.47,4.54076,0.00386488,0.203272,20.8222,536.834,28.3271,0.0,0.0
1924,480.75,32.7508,34.6844,156,104.851,4.50515,0.0044237,0.203892,20.8206,536.224,28.4311,0.0,0.0
1976,493.75,32.6374,34.7164,154.453,104.679,4.50135,0.00389589,0.206039,20.82,535.643,28.4239,0.0,0.0
2028,506.75,33.0146,34.4011,152.233,105.312,4.52461,0.00411094,0.209641,20.8157,535.043,28.4318,0.0,0.0
2080,519.75,33.1126,35.1383,153.7,104.62,4.48615,0.00363263,0.210012,20.8127,534.422,28.4494,0.0,0.0
2132,532.75,33.469,35.5464,156.224,103.592,4.51464,0.00423603,0.213067,20.8058,533.862,28.3029,0.0,0.0
2184,545.75,32.9423,35.0402,151.985,103.359,4.44531,0.00395908,0.213873,20.8073,533.211,28.4224,0.0,0.0
2236,558.75,33.3581,35.2682,152.666,103.752,4.44199,0.00402051,0.21573,20.8059,532.631,28.4635,0.0,0.0
2288,571.75,33.0518,35.7497,153.273,104.297,4.47143,0.00355381,0.216481,20.8037,532.04,28.4511,0.0,0.0
2340,584.75,33.6698,35.4401,152.171,104.623,4.4928,0.0030906,0.219803,20.7986,531.42,28.4362,0.0,0.0
2392,597.75,33.5954,35.5245,156.665,104.625,4.44436,0.00352614,0.222205,20.795,530.789,28.5343,0.0,0.0
2444,610.75,33.8314,35.2498,153.152,104.367,4.489,0.003737,0.225026,20.7935,530.179,28.4218,0.0,0.0
2496,623.75,34.1543,35.9672,156.783,104.119,4.46193,0.00350135,0.227571,20.7895,529.578,28.4549,0.0,0.0
2548,636.75,33.6417,36.2826,155.946,104.014,4.45623,0.00331114,0.226645,20.7914,528.977,28.4574,0.0,0.0
2600,649.75,34.7543,35.7198,148.637,104.161,4.42679,0.00353622,0.230038,20.7887,528.367,28.53,0.0,0.0
2652,662.75,34.6037,36.003,153.564,104.343,4.4928,0.00320583,0.232017,20.7837,527.716,28.4121,0.0,0.0
2704,675.75,34.5001,36.1793,154.786,104.394,4.50372,0.00295279,0.235182,20.781,527.096,28.3945,0.0,0.0
2756,688.75,34.3036,37.2703,150.146,104.444,4.5987,0.00314985,0.23838,20.7778,526.425,28.2103,0.0,0.0
2808,701.75,34.5108,37.3424,153.121,104.488,4.52034,0.00269775,0.2431,20.773,525.805,28.3694,0.0,0.0
2860,714.75,35.2323,37.9799,151.092,104.494,4.50182,0.00221319,0.245115,20.7705,525.154,28.407,0.0,0.0
2912,727.75,36.0007,37.5223,151.46,104.455,4.50515,0.00300569,0.248453,20.7637,524.473,28.3969,0.0,0.0
2964,740.75,35.6899,38.3647,153.893,104.359,4.5042,0.00304345,0.250589,20.761,523.793,28.3905,0.0,0.0
3016,753.75,36.6092,38.115,153.545,104.039,4.43866,0.00238172,0.254625,20.7566,523.062,28.4952,0.0,0.0
3068,766.75,36.176,38.7014,150.941,104.076,4.4795,0.00269038,0.260462,20.7491,522.331,28.4157,0.0,0.0
3120,779.75,36.8032,39.0487,156.914,104.263,4.5042,0.00241186,0.26381,20.7446,521.621,28.3822,0.0,0.0
3172,792.75,37.2957,39.4866,153.232,104.463,4.48757,0.00259215,0.267201,20.7418,520.86,28.433,0.0,0.0
3224,805.75,37.3669,40.0063,150.864,104.583,4.48947,0.00254342,0.272935,20.7344,520.099,28.4395,0.0,0.0
3276,818.75,38.2085,40.3216,149.927,104.65,4.52509,0.00271679,0.27987,20.7267,519.269,28.3739,0.0,0.0
3328,831.75,38.7029,40.1699,151.415,104.651,4.5816,0.00255306,0.283455,20.7226,518.478,28.2619,0.0,0.0
3380,844.75,38.6466,41.4692,153.326,104.567,4.51607,0.00272911,0.287407,20.7213,517.617,28.3848,0.0,0.0
3432,857.75,39.4881,41.261,152.945,104.344,4.55596,0.00238072,0.291427,20.7168,516.746,28.2861,0.0,0.0
3484,870.75,39.463,41.5497,144.553,103.981,4.5721,0.00261308,0.297262,20.7061,515.886,28.2226,0.0,0.0
3536,883.75,39.9731,42.4266,152.403,103.574,4.50325,0.00241601,0.30118,20.7021,514.995,28.3242,0.0,0.0
3588,896.75,40.677,42.7023,151.276,103.364,4.52984,0.00252302,0.304979,20.6972,514.044,28.2527,0.0,0.0
3640,909.75,40.5792,43.3792,152.547,103.416,4.52272,0.00267011,0.310649,20.6905,513.133,28.2715,0.0,0.0
3692,922.75,41.283,43.5882,154.041,103.892,4.57068,0.00272256,0.309399,20.6896,512.182,28.2177,0.0,0.0
3744,935.75,41.3009,43.7071,148.245,104.489,4.56925,0.00306645,0.306933,20.696,511.261,28.2723,0.0,0.0
3796,948.75,41.2957,44.1371,148.607,105.037,4.57353,0.00288307,0.307838,20.6937,510.331,28.3111,0.0,0.0
3848,961.75,41.4311,43.7211,151.26,105.313,4.56118,0.00307707,0.295686,20.7083,509.49,28.3592,0.0,0.0
3900,974.75,41.2162,43.627,153.818,105.166,4.59632,0.00320494,0.287241,20.7159,508.689,28.2772,0.0,0.0
3952,987.75,40.4401,43.4128,152.435,104.677,4.61722,0.00472521,0.280501,20.7231,507.898,28.1942,0.0,0.0
4004,1000.75,40.0488,42.331,152.435,104.73,4.53079,0.00478337,0.255397,20.7522,507.238,28.3694,0.0,0.0
4056,1013.75,38.9406,41.5704,151.403,104.884,4.57068,0.0053856,0.240934,20.7686,506.637,28.3035,0.0,0.0
4108,1026.75,38.0583,40.0197,154.44,104.16,4.52746,0.00721096,0.228427,20.7847,506.087,28.3268,0.0,0.0
4160,1039.75,36.7768,39.5905,156.504,104.256,4.4795,0.00781678,0.218222,20.7961,505.576,28.4313,0.0,0.0
4212,1052.75,36.1653,37.8986,152.945,104.598,4.49042,0.00836944,0.209405,20.8039,505.106,28.4389,0.0,0.0
4264,1065.75,34.9888,37.0721,156.32,104.583,4.53269,0.00971607,0.207779,20.8058,504.615,28.353,0.0,0.0
4316,1078.75,34.474,36.0467,157.111,104.127,4.36981,0.00947187,0.21005,20.7995,504.135,28.644,0.0,0.0
4368,1091.75,34.076,35.2934,157.354,103.556,4.44246,0.0108414,0.194791,20.816,503.745,28.4454,0.0,0.0
4420,1104.75,32.7564,34.2734,153.552,103.328,4.39307,0.0124499,0.173946,20.8397,503.434,28.5265,0.0,0.0
4472,1117.75,31.4085,33.4074,156.04,103.771,4.3812,0.0145482,0.162985,20.8503,503.174,28.5896,0.0,0.0
4524,1130.75,30.3589,32.2533,157.136,104.552,4.43439,0.0163519,0.153447,20.8625,502.964,28.5483,0.0,0.0
4576,1143.75,28.9566,30.0938,164.421,105.166,4.42679,0.0222229,0.13833,20.8759,502.744,28.6167,0.0,0.0
4628,1156.75,27.8571,29.4137,161.54,105.33,4.48378,0.0228138,0.136036,20.8789,502.534,28.5153,0.0,0.0
4680,1169.75,26.7013,28.2536,156.959,105.045,4.42299,0.0234272,0.136125,20.8816,502.293,28.614,0.0,0.0
4732,1182.75,26.2532,27.6118,161.344,104.58,4.33609,0.0241815,0.135458,20.8814,502.083,28.7532,0.0,0.0
4784,1195.75,25.8752,26.8076,156.282,104.788,4.38025,0.0249001,0.135285,20.8791,501.883,28.6797,0.0,0.0
4836,1208.75,25.6538,26.4823,163.031,104.903,4.44816,0.0250512,0.135935,20.8781,501.723,28.5506,0.0,0.0
4888,1221.75,25.5431,26.5376,156.664,104.233,4.3831,0.0249319,0.135667,20.8804,501.533,28.6258,0.0,0.0
4940,1234.75,25.4069,26.1572,158.826,104.245,4.33656,0.0240432,0.134767,20.8833,501.363,28.7233,0.0,0.0
4992,1247.75,25.0684,25.8536,163.054,104.591,4.3831,0.0234888,0.134307,20.8849,501.192,28.6568,0.0,0.0
5038,1259.25,25.2949,25.5485,155.814,104.62,4.43439,,,,501.062,28.5542,0.0,0.0