Folder: fsri_materials_database/01_Data/Pine_Siding/Cone (part 5)

File: Pine_Siding_Cone_HF75Scan_221004_R3.csv
Names,Time,Stack TC,Smoke TC,Exh Press,Smoke Comp,Smoke Meas,CO Meter,CO2 Meter,O2 Meter,Sample Mass,Ext Coeff,Start Test,Flame Verif
Chan Gain,,500,500,1,1,1,1,1,1,1,1,1.0,1.0
Offset,,0,0,0.13918,0,0,0,0,0,0,0,0.0,0.0
Gain,,1,1,25.011,14.0162,15.5607,1,1,1,1.0009,1.02981,1.0,1.0
Units,sec,C,C,Pa,%,%,%,%,%,g,/m,,
Baseline,,45.7601,47.4195,150.098,104.653,3.62582,0.000143795,0.0800498,20.9667,-3.50334,30.3757,,
33,8,46.2207,46.7909,120.864,103.678,3.7292,0.00330503,0.301246,20.7335,555.912,30.0371,0.0,1.0
66,16.25,58.098,57.5768,127.103,103.765,3.61143,0.00849963,0.779781,20.1171,554.01,30.3345,0.0,0.0
99,24.5,64.6653,65.7387,124.265,104.049,3.67364,0.00829312,0.683737,20.2178,552.479,30.2049,0.0,0.0
132,32.75,68.6403,70.304,132.32,104.389,3.57534,0.00736705,0.579537,20.3433,551.147,30.4794,0.0,0.0
165,41,69.9067,73.016,133.028,104.776,3.73917,0.00602779,0.504934,20.4424,549.976,30.1081,0.0,0.0
198,49.25,70.8729,74.8267,135.235,105.136,3.78523,0.00510918,0.461169,20.4982,548.965,30.0285,0.0,0.0
231,57.5,70.8214,75.3177,136.427,105.381,3.75579,0.00442221,0.432931,20.5321,547.975,30.12,0.0,0.0
264,65.75,70.9523,76.0088,134.064,105.52,3.87973,0.00357661,0.415472,20.5545,547.004,29.8387,0.0,0.0
297,74,71.0985,76.303,135.13,105.55,3.87214,0.00319374,0.39916,20.5772,546.033,29.859,0.0,0.0
330,82.25,70.3989,75.8309,135.835,105.452,3.90063,0.0034043,0.384127,20.5953,545.102,29.7843,0.0,0.0
363,90.5,70.0357,75.6496,136.998,105.3,3.88828,0.00313311,0.375132,20.6068,544.221,29.8,0.0,0.0
396,98.75,69.7486,75.9126,135.615,105.113,3.93007,0.00310501,0.366385,20.6169,543.41,29.6873,0.0,0.0
429,107,69.4817,75.1531,134.705,104.877,3.92057,0.00264784,0.356306,20.6293,542.52,29.6888,0.0,0.0
462,115.25,68.9564,75.2484,137.134,104.72,3.97186,0.00240507,0.350296,20.6397,541.769,29.558,0.0,0.0
495,123.5,68.7026,74.807,137.57,104.666,3.93814,0.00215274,0.347466,20.6421,540.958,29.6302,0.0,0.0
528,131.75,68.4044,74.6601,137.575,104.924,4.03217,0.00213345,0.334915,20.6567,540.158,29.4393,0.0,0.0
561,140,68.321,74.3465,137.064,105.069,3.97044,0.00235762,0.330949,20.663,539.377,29.5912,0.0,0.0
594,148.25,67.7867,73.7818,135.816,105.028,3.96094,0.00179138,0.323657,20.6722,538.706,29.6094,0.0,0.0
627,156.5,67.5229,72.9933,143.513,104.86,3.93529,0.00175104,0.319064,20.6768,537.966,29.6536,0.0,0.0
660,164.75,67.2009,72.3474,138.665,104.551,4.01555,0.00165993,0.314806,20.6832,537.245,29.4445,0.0,0.0
693,173,66.8524,72.448,136.957,104.263,3.96426,0.00184518,0.312415,20.6828,536.464,29.5357,0.0,0.0
726,181.25,66.7853,72.5027,140.115,104.277,4.00225,0.00227779,0.308382,20.6868,535.754,29.4508,0.0,0.0
759,189.5,66.3031,71.9593,136.735,104.412,4.03027,0.00184964,0.306983,20.6908,535.133,29.3994,0.0,0.0
792,197.75,66.5451,71.7215,139.498,104.572,4.02125,0.00195365,0.304896,20.6952,534.372,29.4335,0.0,0.0
825,206,66.0056,71.7516,135.359,104.768,3.97328,0.00198235,0.305349,20.6936,533.752,29.5588,0.0,0.0
858,214.25,66.0877,71.4348,138.561,104.887,4.00083,0.00154191,0.302611,20.6964,533.051,29.5067,0.0,0.0
891,222.5,65.9734,71.1005,141.807,104.942,3.95334,0.00201034,0.304775,20.6955,532.34,29.6192,0.0,0.0
924,230.75,66.0535,70.783,138.178,104.923,4.07301,0.00186263,0.302639,20.6968,531.65,29.3483,0.0,0.0
957,239,65.516,70.802,137.801,104.808,4.0203,0.00219737,0.303086,20.6955,530.959,29.456,0.0,0.0
990,247.25,65.8466,70.7656,141.591,104.669,4.00748,0.00187798,0.301389,20.6972,530.319,29.4729,0.0,0.0
1023,255.5,65.7421,70.8475,144.649,104.507,4.05496,0.00200969,0.304935,20.6935,529.638,29.3524,0.0,0.0
1056,263.75,65.9502,70.3469,141.356,104.282,4.05639,0.00172987,0.30481,20.6941,528.987,29.3298,0.0,0.0
1089,272,65.9785,70.5922,140.659,104.069,4.0032,0.00168136,0.304393,20.6939,528.287,29.4305,0.0,0.0
1122,280.25,65.967,70.3019,138.667,103.903,3.98943,0.00166586,0.304415,20.6961,527.656,29.4473,0.0,0.0
1155,288.5,65.96,70.4871,139.02,103.734,3.98848,0.00169415,0.3039,20.6974,527.026,29.4347,0.0,0.0
1188,296.75,65.2326,70.0098,135.181,103.647,4.09818,0.00177823,0.306332,20.6954,526.345,29.1821,0.0,0.0
1221,305,66.245,70.678,141.11,103.682,3.94147,0.00144007,0.305916,20.6933,525.704,29.5373,0.0,0.0
1254,313.25,65.872,70.1513,137.333,103.741,4.01935,0.00203882,0.30612,20.6933,525.064,29.3657,0.0,0.0
1287,321.5,65.9194,70.5154,139.386,103.882,4.06304,0.00191188,0.30653,20.6944,524.403,29.2804,0.0,0.0
1320,329.75,66.2284,70.4516,136.643,104.071,4.12382,0.00154061,0.307688,20.6915,523.783,29.1626,0.0,0.0
1353,338,66.1898,70.2077,139.33,104.264,4.02315,0.00182775,0.309635,20.6877,523.082,29.4026,0.0,0.0
1386,346.25,65.712,70.9053,135.238,104.475,4.07396,0.00180903,0.311203,20.6834,522.442,29.3075,0.0,0.0
1419,354.5,66.2174,70.6445,143.241,104.661,4.06161,0.00176673,0.310404,20.6862,521.821,29.3509,0.0,0.0
1452,362.75,66.4045,70.8681,137.425,104.841,4.05449,0.00185536,0.312051,20.6856,521.14,29.3824,0.0,0.0
1485,371,66.1574,70.6609,138.077,105.033,4.14187,0.00170186,0.314883,20.6821,520.52,29.2063,0.0,0.0
1518,379.25,66.4249,70.9326,139.159,105.149,4.04119,0.00167363,0.316106,20.6825,519.889,29.4385,0.0,0.0
1551,387.5,66.6862,70.8665,137.591,105.25,3.9994,0.00228939,0.321904,20.6751,519.219,29.5411,0.0,0.0
1584,395.75,66.6785,71.3399,138.424,105.365,4.08013,0.00234864,0.322425,20.6743,518.568,29.3705,0.0,0.0
1617,404,66.82,71.1117,139.569,105.43,4.00653,0.00206942,0.323883,20.6715,517.907,29.5404,0.0,0.0
1650,412.25,66.6748,71.037,136.506,105.508,4.13949,0.00211037,0.324407,20.6735,517.247,29.2522,0.0,0.0
1683,420.5,67.2666,71.6006,136.463,105.54,4.0089,0.00226687,0.329939,20.666,516.536,29.5445,0.0,0.0
1716,428.75,67.4341,71.6139,134.918,105.544,4.14614,0.00181911,0.330371,20.6625,515.936,29.2408,0.0,0.0
1749,437,67.7945,71.6837,136.697,105.562,4.01317,0.00212417,0.332749,20.6597,515.255,29.5368,0.0,0.0
1782,445.25,67.4852,72.1504,138.029,105.535,4.03217,0.00203757,0.336912,20.6554,514.584,29.4918,0.0,0.0
1815,453.5,67.6319,72.2882,139.042,105.507,4.12287,0.00179667,0.337299,20.6528,513.864,29.2885,0.0,0.0
1848,461.75,67.664,71.8568,138.428,105.483,4.01887,0.00189307,0.339826,20.6504,513.213,29.5172,0.0,0.0
1881,470,67.9089,72.2761,138.983,105.423,4.09295,0.00209618,0.343809,20.6456,512.503,29.347,0.0,0.0
1914,478.25,68.7805,72.6471,140.634,105.38,4.13047,0.00234196,0.348355,20.6392,511.802,29.261,0.0,0.0
1947,486.5,68.2451,72.7353,138.448,105.316,4.00795,0.00255732,0.350012,20.6387,511.151,29.5275,0.0,0.0
1980,494.75,68.7646,73.0931,138.882,105.245,4.06968,0.00218235,0.355815,20.629,510.431,29.3833,0.0,0.0
2013,503,68.6877,73.6821,138.603,105.182,3.98658,0.00241083,0.363961,20.6175,509.72,29.5643,0.0,0.0
2046,511.25,69.1388,73.9086,137.909,105.106,4.06114,0.0025705,0.365635,20.6154,509.009,29.3904,0.0,0.0
2079,519.5,69.7,73.9182,138.104,105.015,3.98896,0.00295562,0.364759,20.6194,508.209,29.5445,0.0,0.0
2112,527.75,69.3493,74.0178,135.441,104.943,4.05116,0.00216965,0.365536,20.6187,507.558,29.3986,0.0,0.0
2145,536,69.4208,74.5908,139.037,104.881,3.99085,0.00247557,0.365436,20.6179,506.847,29.5287,0.0,0.0
2178,544.25,69.697,74.3859,135.15,104.8,4.04499,0.0027636,0.366965,20.6169,506.067,29.4,0.0,0.0
2211,552.5,69.9136,74.422,141.207,104.776,4.09485,0.0026465,0.361128,20.6252,505.376,29.2872,0.0,0.0
2244,560.75,69.3544,74.8632,135.383,104.701,4.15706,0.00251654,0.358596,20.6274,504.695,29.1446,0.0,0.0
2277,569,69.8354,74.5565,138.964,104.633,4.03264,0.00241083,0.354684,20.6321,503.985,29.4132,0.0,0.0
2310,577.25,69.4572,74.3544,141.156,104.646,4.00273,0.00246096,0.344494,20.642,503.364,29.4816,0.0,0.0
2343,585.5,69.116,73.8198,138.809,104.7,4.03502,0.00228441,0.33386,20.655,502.754,29.4137,0.0,0.0
2376,593.75,68.7406,73.6309,136.662,104.754,4.0882,0.00220976,0.318846,20.675,502.163,29.3,0.0,0.0
2409,602,68.1424,72.7999,141.184,104.799,4.04594,0.00256345,0.306288,20.6879,501.653,29.3978,0.0,0.0
2442,610.25,67.4901,71.9794,140.76,104.835,3.98943,0.00289361,0.286956,20.7123,501.172,29.5279,0.0,0.0
2475,618.5,66.5284,71.1181,144.418,104.894,4.04404,0.00278886,0.271149,20.7318,500.732,29.4102,0.0,0.0
2508,626.75,65.6396,70.0335,142.414,104.907,3.98943,0.00300604,0.25489,20.7502,500.332,29.5342,0.0,0.0
2541,635,64.4578,68.9732,143.439,104.947,4.03549,0.00346575,0.234134,20.7744,500.031,29.4339,0.0,0.0
2574,643.25,63.2996,67.5316,144.857,104.999,3.97898,0.00455201,0.212873,20.7989,499.741,29.5658,0.0,0.0
2607,651.5,62.2427,66.5025,149.725,105.011,4.05354,0.00520737,0.190417,20.8249,499.581,29.3991,0.0,0.0
2640,659.75,60.4441,64.4995,146.415,105.029,4.06636,0.00675866,0.173669,20.8462,499.381,29.3721,0.0,0.0
2673,668,58.5839,62.6949,146.595,105.073,3.99228,0.00785998,0.164233,20.8601,499.271,29.542,0.0,0.0
2706,676.25,57.1652,61.2214,145.284,105.073,3.97851,0.00829269,0.160445,20.8631,499.181,29.5732,0.0,0.0
2739,684.5,56.3751,59.7296,146.967,105.092,3.98516,0.00888878,0.158222,20.8651,499.06,29.5598,0.0,0.0
2772,692.75,54.6669,58.3221,146.392,105.101,4.00463,0.00836262,0.158188,20.8652,498.98,29.5165,0.0,0.0
2805,701,53.9229,57.7753,146.86,105.103,4.0089,0.00864885,0.157373,20.8661,498.92,29.507,0.0,0.0
2838,709.25,53.5557,56.1022,149.914,105.1,3.9918,0.00903294,0.156198,20.8672,498.72,29.5454,0.0,0.0
2871,717.5,51.9634,55.5339,146.912,105.074,3.96189,0.00880085,0.151595,20.5105,498.58,29.6111,0.0,0.0
2904,725.75,51.4186,54.3916,155.613,105.028,3.79521,0.0087984,0.149848,20.7749,-3.50316,29.9954,0.0,0.0
2937,734,48.939,52.274,152.831,104.942,3.77194,0.00886293,0.149893,20.8484,-3.52318,30.0435,0.0,0.0
2970,742.25,47.204,50.3537,152.903,104.86,3.72492,0.00857738,0.150064,20.8507,-3.55321,30.1499,0.0,0.0
3003,750.5,45.3035,48.3065,154.163,104.732,3.71353,0.0088761,0.15014,20.8529,-3.50316,30.1665,0.0,0.0
3036,758.75,44.04,46.2824,151.803,104.56,3.72065,0.00884939,0.150138,20.8511,-3.51317,30.1343,0.0,0.0
3069,767,42.1708,44.5367,157.596,104.388,3.70735,0.00872047,0.15034,20.8508,-3.52318,30.1518,0.0,0.0
3102,775.25,41.4604,43.0997,158.64,104.293,3.67316,0.00870127,0.150603,20.8485,-3.51317,30.2273,0.0,0.0
3135,783.5,40.4185,42.2065,154.475,104.244,3.66509,0.00909471,0.150576,20.8476,-3.55321,30.2429,0.0,0.0
3168,791.75,39.3915,41.0128,156.788,104.27,3.64515,0.00848512,0.150701,20.8482,-3.55321,30.2944,0.0,0.0
3201,800,38.6479,39.9559,152.719,104.281,3.6366,,,,-3.53319,30.3166,0.0,0.0
3219,804.5,38.5211,39.531,157.694,104.275,3.57486,,,,-3.51317,30.4707,0.0,0.0