Folder: fsri_materials_database/01_Data/Pine_Siding/HFM

Note: 01_Data/README.md
# Materials and Products Database
## 01_Data

Raw data generated from each apparatus are included here in plain-text format. The data is organized first by material, next by the short name of test apparatus used, and where applicable additional filtering by test settings.

### material.json

Each material directory contains a json file of the same name as the material. This file links the data stored in the repository as well as data and graphs produced by the accompanying scripts (__02_Scripts__) to the respective landing page for the material on the front-end website.

File: Pine_Siding_Density_Dry_R1.csv
,Pine_Siding_DRY_1
Sample Mass [g],99.4
Sample Volume [cm3],376.8
Sample Density [kg/m3],264

File: Pine_Siding_Density_Dry_R2.csv
,Pine_Siding_DRY_2
Sample Mass [g],122.9
Sample Volume [cm3],373.5
Sample Density [kg/m3],329

File: Pine_Siding_Density_Dry_R3.csv
,Pine_Siding_DRY_3
Sample Mass [g],114.4
Sample Volume [cm3],365.3
Sample Density [kg/m3],313

File: Pine_Siding_Density_Wet_R1.csv
,Pine_Siding_WET_1
Sample Mass [g],109.8
Sample Volume [cm3],375.6
Sample Density [kg/m3],292

File: Pine_Siding_Density_Wet_R2.csv
,Pine_Siding_WET_2
Sample Mass [g],133.6
Sample Volume [cm3],373.5
Sample Density [kg/m3],358

File: Pine_Siding_Density_Wet_R3.csv
,Pine_Siding_WET_3
Sample Mass [g],124.5
Sample Volume [cm3],373.8
Sample Density [kg/m3],333

File: Pine_Siding_Ignition_Temp_Properties.csv
Thermal Conductivity (W/m-K),0.114
Heat Capacity (J/kg-K),1838.0
Density (kg/m3),327.667