Folder: fsri_materials_database/01_Data/Pine_Siding/MCC

Note: 01_Data/README.md
# Materials and Products Database
## 01_Data

Raw data generated from each apparatus are included here in plain-text format. The data is organized first by material, next by the short name of test apparatus used, and where applicable additional filtering by test settings.

### material.json

Each material directory contains a json file of the same name as the material. This file links the data stored in the repository as well as data and graphs produced by the accompanying scripts (__02_Scripts__) to the respective landing page for the material on the front-end website.

File: Pine_Siding_30K_min_210608_R1.txt
Sample ID:	C:\MCC\MCC Cal\Test\Pine_Siding\Pine_Siding_30_1.txt
Sample Weight (mg):	3.88
Heating Rate (C/s):	0.5
Combustor Temp (C):	900
N2 Flow Rate (cc/min):	80
O2 Flow Rate (cc/min):	20
Calibration File:	C:\MCC\MCC Cal\Coeff1 JN10440_30_210304.txt.txt
T Correction Coefficients:	0	1.024463	0
Time Shift (s):	14
*
Time (s)	Temperature (C)	N2 flow rate (cc/min)	O2 flow rate (cc/min)	Flow Rate (cc/min)	Oxygen (%)	HRR (W/g)	Heating rate (C/s)
0.000	108.507	79.981	19.993	99.917	19.957	0.448	-0.018
8.000	108.473	79.981	19.994	99.913	19.962	0.043	-0.042
16.001	108.498	79.980	19.992	99.960	19.952	0.906	-0.003
24.000	108.710	79.980	19.992	100.028	19.939	1.962	0.062
32.001	109.188	79.983	19.992	100.056	19.934	2.351	0.076
40.000	110.109	79.983	19.990	100.072	19.926	2.954	0.161
48.000	111.325	79.983	19.991	100.107	19.920	3.450	0.175
56.000	112.886	79.984	19.991	100.147	19.914	3.936	0.207
64.001	114.785	79.983	19.992	100.147	19.909	4.365	0.243
72.000	117.105	79.980	19.994	100.167	19.910	4.280	0.279
80.000	119.724	79.981	19.994	100.181	19.910	4.230	0.342
88.000	122.722	79.981	19.993	100.174	19.903	4.795	0.393
96.001	125.889	79.980	19.993	100.178	19.907	4.510	0.420
104.000	129.254	79.981	19.992	100.171	19.903	4.868	0.416
112.000	132.770	79.986	19.989	100.180	19.900	5.048	0.473
120.000	136.470	79.983	19.992	100.172	19.899	5.157	0.446
128.000	140.234	79.982	19.996	100.163	19.900	5.087	0.466
136.000	144.130	79.989	19.990	100.150	19.904	4.735	0.465
144.000	148.211	79.986	19.993	100.152	19.906	4.603	0.527
152.000	152.297	79.982	19.991	100.149	19.905	4.672	0.515
160.000	156.265	79.981	19.992	100.148	19.903	4.811	0.493
168.000	160.368	79.983	19.994	100.150	19.905	4.670	0.519
176.000	164.410	79.987	19.991	100.135	19.902	4.868	0.516
184.000	168.516	79.982	19.993	100.124	19.904	4.777	0.496
192.000	172.554	79.984	19.989	100.130	19.906	4.621	0.513
200.000	176.554	79.988	19.993	100.110	19.907	4.506	0.486
208.000	180.532	79.982	19.993	100.115	19.904	4.720	0.498
216.000	184.537	79.983	19.989	100.111	19.903	4.853	0.526
224.000	188.535	79.983	19.992	100.109	19.905	4.642	0.505
232.000	192.478	79.977	19.991	100.105	19.904	4.783	0.509
240.000	196.417	79.980	19.994	100.109	19.898	5.238	0.484
248.000	200.406	79.983	19.990	100.103	19.896	5.379	0.518
256.000	204.292	79.982	19.992	100.101	19.896	5.361	0.516
264.000	208.248	79.980	19.996	100.104	19.889	5.965	0.502
272.000	212.175	79.976	19.996	100.100	19.891	5.780	0.466
280.000	216.155	79.982	19.993	100.102	19.891	5.828	0.490
288.000	220.114	79.982	19.992	100.088	19.886	6.203	0.495
296.000	224.053	79.982	19.992	100.079	19.885	6.296	0.458
304.000	228.044	79.984	19.992	100.100	19.876	6.977	0.480
312.000	232.060	79.982	19.990	100.080	19.876	6.981	0.489
320.000	236.020	79.982	19.992	100.099	19.870	7.445	0.503
328.000	240.028	79.982	19.992	100.103	19.864	7.933	0.500
336.000	244.056	79.978	19.993	100.110	19.861	8.228	0.502
344.000	248.064	79.982	19.991	100.096	19.856	8.572	0.502
352.000	252.171	79.980	19.991	100.091	19.850	9.113	0.502
360.000	256.195	79.984	19.993	100.088	19.841	9.818	0.493
368.000	260.207	79.982	19.993	100.037	19.831	10.589	0.484
376.000	264.246	79.980	19.996	100.094	19.820	11.470	0.516
384.000	268.266	79.986	19.990	100.100	19.811	12.250	0.507
392.000	272.294	79.983	19.992	100.104	19.800	13.128	0.511
400.000	276.299	79.984	19.992	100.112	19.786	14.235	0.490
408.000	280.292	79.983	19.991	100.114	19.770	15.573	0.497
416.000	284.291	79.978	19.992	100.116	19.753	16.942	0.507
424.000	288.259	79.982	19.993	100.113	19.730	18.760	0.519
432.000	292.261	79.980	19.993	100.134	19.703	20.966	0.490
440.000	296.229	79.984	19.992	100.140	19.680	22.814	0.498
448.000	300.213	79.980	19.996	100.145	19.649	25.260	0.494
456.000	304.202	79.981	19.994	100.149	19.620	27.662	0.505
464.000	308.208	79.984	19.992	100.169	19.585	30.409	0.476
472.000	312.316	79.983	19.991	100.186	19.550	33.262	0.501
480.000	316.326	79.981	19.992	100.188	19.516	36.030	0.517
488.000	320.309	79.982	19.992	100.188	19.477	39.130	0.494
496.000	324.358	79.982	19.992	100.198	19.446	41.622	0.522
504.000	328.407	79.982	19.992	100.205	19.415	44.140	0.525
512.000	332.464	79.983	19.992	100.212	19.384	46.623	0.521
520.000	336.504	79.983	19.993	100.213	19.359	48.711	0.485
528.000	340.559	79.984	19.993	100.223	19.333	50.791	0.518
536.000	344.574	79.982	19.992	100.226	19.305	53.002	0.527
544.000	348.604	79.981	19.992	100.232	19.281	54.950	0.504
552.000	352.626	79.983	19.992	100.242	19.249	57.599	0.488
560.000	356.717	79.982	19.991	100.260	19.207	60.952	0.492
568.000	360.781	79.982	19.992	100.271	19.168	64.124	0.505
576.000	364.849	79.981	19.994	100.301	19.117	68.268	0.542
584.000	368.891	79.982	19.992	100.298	19.065	72.452	0.536
592.000	372.958	79.981	19.992	100.309	19.028	75.432	0.490
600.000	376.983	79.983	19.993	100.299	19.017	76.209	0.494
608.000	381.085	79.983	19.992	100.254	19.055	73.128	0.507
616.000	385.131	79.981	19.993	100.191	19.150	65.420	0.500
624.000	389.188	79.982	19.993	100.134	19.293	53.933	0.517
632.000	393.267	79.984	19.993	100.070	19.464	40.155	0.527
640.000	397.353	79.980	19.992	100.043	19.611	28.344	0.493
648.000	401.453	79.983	19.992	100.031	19.725	19.131	0.538
656.000	405.453	79.982	19.992	100.032	19.787	14.178	0.537
664.000	409.499	79.981	19.992	100.035	19.816	11.794	0.517
672.000	413.484	79.981	19.992	100.034	19.829	10.805	0.495
680.000	417.505	79.984	19.992	100.030	19.838	10.079	0.549
688.000	421.492	79.983	19.991	100.029	19.842	9.732	0.474
696.000	425.594	79.983	19.992	100.027	19.847	9.317	0.509
704.000	429.725	79.986	19.992	100.024	19.845	9.483	0.539
712.000	433.933	79.984	19.993	100.031	19.858	8.451	0.637
720.000	437.802	79.981	19.993	100.028	19.863	8.078	0.488
728.000	441.940	79.980	19.993	100.032	19.865	7.900	0.424
736.000	446.047	79.981	19.992	100.030	19.866	7.798	0.489
744.000	450.183	79.982	19.992	100.030	19.869	7.571	0.536
752.000	454.301	79.982	19.993	100.030	19.876	7.005	0.494
760.000	458.386	79.984	19.992	100.026	19.879	6.786	0.504
768.000	462.506	79.984	19.992	100.008	19.883	6.426	0.512
776.000	466.571	79.982	19.993	100.025	19.886	6.156	0.540
784.000	470.723	79.984	19.992	100.031	19.890	5.858	0.536
792.000	474.880	79.985	19.993	100.023	19.893	5.605	0.513
800.000	478.933	79.982	19.993	100.022	19.899	5.156	0.529
808.000	483.065	79.982	19.994	100.023	19.901	4.987	0.537
816.000	487.131	79.982	19.993	100.024	19.906	4.606	0.504
824.000	491.268	79.982	19.992	100.010	19.905	4.644	0.508
832.000	495.418	79.981	19.992	100.011	19.910	4.245	0.529
840.000	499.504	79.982	19.992	100.017	19.913	4.031	0.522
848.000	503.558	79.984	19.993	100.021	19.917	3.727	0.510
856.000	507.619	79.982	19.992	100.023	19.920	3.463	0.478
864.000	511.667	79.984	19.992	100.012	19.917	3.716	0.521
872.000	515.689	79.984	19.993	100.001	19.917	3.669	0.492
880.000	519.838	79.982	19.994	100.010	19.919	3.552	0.508
888.000	523.946	79.981	19.993	100.019	19.918	3.630	0.507
896.000	528.063	79.980	19.994	100.008	19.916	3.784	0.534
904.000	532.162	79.981	19.992	100.007	19.919	3.495	0.489
912.000	536.305	79.982	19.992	100.010	19.918	3.599	0.479
920.000	540.437	79.982	19.993	100.009	19.921	3.402	0.529
928.000	544.551	79.983	19.992	100.010	19.921	3.359	0.528
936.000	548.672	79.983	19.992	99.998	19.922	3.261	0.521
944.000	552.791	79.983	19.991	99.996	19.920	3.415	0.526
952.000	556.921	79.984	19.992	99.997	19.923	3.218	0.507
960.000	561.027	79.981	19.993	99.995	19.923	3.209	0.464
968.000	565.181	79.981	19.992	99.998	19.925	3.057	0.501
976.000	569.325	79.981	19.994	100.018	19.925	3.060	0.519
984.000	573.462	79.982	19.993	99.993	19.923	3.183	0.529
992.000	577.554	79.981	19.993	100.000	19.932	2.498	0.496
1000.000	581.682	79.982	19.992	99.996	19.927	2.890	0.520
1008.000	585.760	79.983	19.992	99.992	19.927	2.899	0.520
1016.000	589.803	79.983	19.993	100.002	19.927	2.877	0.512
1024.000	593.934	79.982	19.992	99.991	19.926	2.958	0.547
1032.000	597.984	79.984	19.991	99.999	19.926	2.981	0.526
1040.000	602.044	79.984	19.994	100.005	19.928	2.795	0.466
1048.000	606.158	79.982	19.994	100.007	19.928	2.834	0.501
1056.000	610.226	79.981	19.992	99.995	19.933	2.409	0.525
1064.000	614.295	79.982	19.993	99.990	19.934	2.329	0.518
1072.000	618.388	79.981	19.994	99.991	19.930	2.665	0.511
1080.001	622.444	79.981	19.994	99.990	19.928	2.775	0.523
1088.000	626.514	79.983	19.991	99.998	19.930	2.682	0.525
1096.000	630.603	79.983	19.993	99.993	19.927	2.901	0.525
1104.001	634.732	79.984	19.992	99.991	19.934	2.295	0.512
1112.000	638.862	79.984	19.992	99.989	19.933	2.414	0.507
1120.001	642.898	79.981	19.993	99.992	19.928	2.849	0.525
1128.001	646.920	79.982	19.993	99.991	19.933	2.370	0.522
1136.000	651.050	79.982	19.993	99.991	19.929	2.691	0.559
1144.000	655.096	79.981	19.993	99.990	19.933	2.401	0.526
1152.001	659.169	79.981	19.993	99.987	19.930	2.689	0.530
1160.000	663.260	79.982	19.993	99.993	19.929	2.717	0.509
1168.000	667.348	79.983	19.995	99.991	19.929	2.743	0.503
1176.000	671.476	79.981	19.992	99.993	19.926	2.944	0.518
1184.000	675.689	79.984	19.992	99.988	19.928	2.773	0.556
1192.000	679.702	79.986	19.991	99.988	19.931	2.567	0.518
1200.000	683.804	79.982	19.993	99.987	19.930	2.669	0.515
1208.000	687.901	79.982	19.991	99.991	19.930	2.626	0.517
1216.000	691.987	79.982	19.992	99.989	19.927	2.886	0.485
1224.000	696.064	79.983	19.993	99.982	19.926	2.946	0.500
1232.001	700.046	79.983	19.992	99.991	19.924	3.105	0.470
1240.000	704.065	79.982	19.992	99.985	19.927	2.924	0.516
1248.000	708.082	79.982	19.993	99.986	19.928	2.780	0.523
1256.001	712.136	79.983	19.993	99.980	19.930	2.687	0.515
1264.000	716.252	79.984	19.991	99.988	19.933	2.435	0.518
1272.000	720.437	79.984	19.991	99.987	19.927	2.901	0.525
1280.000	724.505	79.982	19.992	99.968	19.929	2.699	0.494
1288.000	728.516	79.982	19.991	99.988	19.923	3.240	0.485
1296.000	732.595	79.982	19.993	99.991	19.931	2.602	0.503
1304.000	736.605	79.981	19.991	99.991	19.925	3.014	0.499
1312.000	740.592	79.981	19.994	99.992	19.927	2.914	0.475
1318.000	743.582	79.981	19.993	99.969	19.922	3.308	0.510

File: Pine_Siding_30K_min_210608_R2.txt
Sample ID:	C:\MCC\MCC Cal\Test\Pine_Siding\Pine_Siding_30_2.txt
Sample Weight (mg):	4.47
Heating Rate (C/s):	0.5
Combustor Temp (C):	900
N2 Flow Rate (cc/min):	80
O2 Flow Rate (cc/min):	20
Calibration File:	C:\MCC\MCC Cal\Coeff1 JN10440_30_210304.txt.txt
T Correction Coefficients:	0	1.024463	0
Time Shift (s):	14
*
Time (s)	Temperature (C)	N2 flow rate (cc/min)	O2 flow rate (cc/min)	Flow Rate (cc/min)	Oxygen (%)	HRR (W/g)	Heating rate (C/s)
0.000	112.783	79.983	19.992	99.913	19.963	-0.064	0.010
7.500	112.833	79.982	19.993	99.919	19.968	-0.367	0.017
15.000	112.753	79.981	19.993	99.953	19.959	0.213	-0.047
22.500	112.980	79.982	19.992	100.044	19.940	1.586	0.041
30.000	113.568	79.983	19.993	100.115	19.931	2.202	0.100
37.500	114.646	79.983	19.993	100.133	19.924	2.708	0.163
45.001	116.172	79.984	19.993	100.147	19.918	3.112	0.222
52.501	118.040	79.985	19.992	100.144	19.917	3.203	0.225
60.001	120.199	79.982	19.992	100.145	19.916	3.227	0.330
67.500	122.687	79.983	19.992	100.170	19.910	3.654	0.352
75.001	125.395	79.983	19.991	100.103	19.912	3.552	0.397
82.500	128.342	79.982	19.991	100.189	19.910	3.644	0.434
90.000	131.555	79.982	19.992	100.189	19.910	3.643	0.419
97.501	134.896	79.982	19.992	100.188	19.909	3.697	0.447
105.000	138.421	79.983	19.991	100.191	19.908	3.821	0.464
112.500	142.070	79.983	19.992	100.176	19.908	3.807	0.494
120.001	145.776	79.982	19.992	100.166	19.913	3.474	0.486
127.500	149.621	79.985	19.993	100.161	19.911	3.564	0.502
135.000	153.441	79.987	19.991	100.175	19.911	3.575	0.492
142.500	157.193	79.982	19.992	100.152	19.911	3.590	0.517
150.000	161.013	79.982	19.991	100.149	19.916	3.249	0.506
157.500	164.864	79.983	19.992	100.150	19.910	3.673	0.524
165.000	168.675	79.984	19.992	100.140	19.913	3.453	0.496
172.500	172.462	79.982	19.992	100.131	19.911	3.557	0.525
180.000	176.242	79.981	19.993	100.133	19.907	3.835	0.513
187.500	179.973	79.985	19.993	100.110	19.912	3.496	0.503
195.000	183.657	79.984	19.992	100.110	19.910	3.677	0.477
202.500	187.410	79.984	19.993	100.112	19.913	3.447	0.499
210.000	191.120	79.985	19.992	100.106	19.913	3.482	0.470
217.500	194.790	79.982	19.993	100.086	19.910	3.649	0.465
225.000	198.478	79.982	19.991	100.108	19.906	3.931	0.475
232.500	202.172	79.982	19.993	100.107	19.906	3.973	0.494
240.000	205.817	79.983	19.992	100.100	19.901	4.314	0.467
247.500	209.499	79.984	19.993	100.104	19.894	4.773	0.464
255.000	213.222	79.983	19.992	100.107	19.893	4.816	0.511
262.500	216.824	79.983	19.992	100.108	19.894	4.771	0.474
270.000	220.637	79.984	19.992	100.102	19.891	4.985	0.503
277.500	224.315	79.984	19.993	100.106	19.890	5.023	0.495
285.000	228.059	79.983	19.992	100.102	19.889	5.099	0.517
292.500	231.834	79.986	19.991	100.098	19.883	5.579	0.527
300.000	235.548	79.982	19.994	100.102	19.880	5.727	0.500
307.500	239.196	79.983	19.993	100.094	19.872	6.285	0.470
315.000	242.942	79.983	19.992	100.106	19.868	6.569	0.520
322.500	246.666	79.983	19.992	100.102	19.862	7.042	0.502
330.000	250.455	79.983	19.993	100.110	19.853	7.650	0.507
337.500	254.260	79.982	19.991	100.110	19.846	8.160	0.496
345.000	258.038	79.984	19.992	100.111	19.837	8.729	0.505
352.500	261.763	79.984	19.992	100.111	19.830	9.282	0.486
360.001	265.578	79.985	19.993	100.113	19.814	10.335	0.518
367.500	269.291	79.984	19.992	100.108	19.806	10.904	0.502
375.000	273.078	79.984	19.991	100.111	19.792	11.892	0.511
382.500	276.853	79.982	19.993	100.110	19.777	12.990	0.505
390.000	280.588	79.982	19.994	100.115	19.765	13.792	0.494
397.500	284.319	79.982	19.992	100.127	19.736	15.796	0.502
405.000	288.063	79.982	19.992	100.131	19.713	17.443	0.460
412.500	291.853	79.981	19.991	100.150	19.683	19.552	0.493
420.000	295.584	79.983	19.991	100.153	19.659	21.201	0.490
427.500	299.356	79.985	19.992	100.155	19.630	23.265	0.506
435.000	303.097	79.985	19.991	100.179	19.598	25.465	0.501
442.500	306.853	79.985	19.993	100.186	19.558	28.300	0.484
450.000	310.635	79.984	19.992	100.200	19.522	30.812	0.491
457.500	314.450	79.983	19.992	100.219	19.475	34.099	0.484
465.000	318.218	79.983	19.993	100.226	19.436	36.851	0.496
472.500	321.991	79.981	19.993	100.229	19.399	39.413	0.511
480.000	325.747	79.981	19.992	100.229	19.354	42.555	0.493
487.500	329.480	79.984	19.992	100.256	19.314	45.345	0.494
495.000	333.320	79.982	19.992	100.263	19.278	47.906	0.507
502.500	337.115	79.983	19.991	100.265	19.249	49.909	0.489
510.000	340.859	79.984	19.991	100.268	19.215	52.294	0.501
517.500	344.613	79.984	19.991	100.292	19.184	54.524	0.489
525.000	348.361	79.982	19.991	100.294	19.152	56.714	0.505
532.500	352.121	79.984	19.991	100.301	19.116	59.251	0.499
540.000	355.897	79.983	19.992	100.312	19.075	62.191	0.470
547.500	359.699	79.982	19.991	100.299	19.018	66.137	0.495
555.000	363.464	79.983	19.993	100.359	18.963	70.014	0.480
562.500	367.228	79.983	19.992	100.370	18.903	74.227	0.514
570.000	371.040	79.982	19.991	100.379	18.848	78.063	0.502
577.500	374.843	79.982	19.991	100.381	18.816	80.263	0.505
585.000	378.591	79.985	19.992	100.359	18.815	80.315	0.500
592.500	382.390	79.984	19.991	100.306	18.876	76.009	0.508
600.000	386.189	79.982	19.991	100.234	18.998	67.400	0.485
607.500	390.013	79.986	19.992	100.151	19.176	54.959	0.520
615.000	393.878	79.985	19.990	100.094	19.372	41.229	0.523
622.501	397.690	79.982	19.993	100.062	19.554	28.494	0.483
630.000	401.538	79.983	19.994	100.043	19.686	19.274	0.543
637.500	405.419	79.983	19.992	100.039	19.765	13.797	0.533
645.000	409.202	79.981	19.992	100.046	19.804	11.065	0.478
652.500	413.010	79.981	19.993	100.033	19.820	9.908	0.520
660.000	416.939	79.982	19.992	100.042	19.834	8.995	0.660
667.500	420.470	79.984	19.992	100.039	19.836	8.805	0.570
675.000	424.317	79.984	19.993	100.030	19.839	8.590	0.516
682.500	428.041	79.983	19.992	100.029	19.851	7.770	0.521
690.000	431.850	79.986	19.992	100.028	19.854	7.600	0.488
697.500	435.740	79.985	19.992	100.027	19.857	7.356	0.483
705.000	439.574	79.983	19.992	100.027	19.857	7.343	0.535
712.500	443.356	79.984	19.993	100.030	19.865	6.786	0.524
720.000	447.112	79.984	19.993	100.027	19.871	6.408	0.499
727.500	450.956	79.983	19.993	100.019	19.875	6.090	0.510
735.000	454.717	79.983	19.993	100.026	19.877	5.965	0.513
742.500	458.566	79.983	19.993	100.013	19.887	5.277	0.536
750.000	462.439	79.986	19.993	100.026	19.890	5.085	0.518
757.500	466.263	79.986	19.992	100.026	19.895	4.675	0.562
765.000	470.047	79.985	19.991	100.023	19.901	4.274	0.504
772.500	473.908	79.986	19.992	100.023	19.903	4.139	0.519
780.000	477.693	79.985	19.992	100.025	19.907	3.900	0.492
787.500	481.550	79.983	19.992	100.013	19.911	3.578	0.505
795.000	485.402	79.984	19.991	100.024	19.914	3.392	0.520
802.500	489.251	79.983	19.992	100.025	19.915	3.319	0.535
810.000	493.084	79.983	19.992	100.012	19.917	3.164	0.533
817.500	496.917	79.984	19.992	100.023	19.918	3.130	0.516
825.000	500.825	79.984	19.992	100.022	19.923	2.741	0.536
832.500	504.615	79.984	19.993	99.987	19.926	2.511	0.533
840.000	508.459	79.984	19.993	100.019	19.923	2.777	0.521
847.500	512.265	79.985	19.991	100.017	19.925	2.602	0.501
855.000	516.112	79.984	19.991	100.016	19.928	2.378	0.502
862.500	519.951	79.982	19.991	100.010	19.930	2.252	0.533
870.000	523.784	79.983	19.992	100.016	19.928	2.376	0.489
877.500	527.650	79.982	19.992	100.003	19.926	2.522	0.536
885.000	531.464	79.982	19.991	100.020	19.928	2.426	0.522
892.500	535.320	79.982	19.993	100.016	19.929	2.332	0.511
900.000	539.146	79.983	19.993	100.027	19.928	2.421	0.488
907.500	542.992	79.985	19.994	100.028	19.929	2.295	0.475
915.000	546.813	79.982	19.993	100.018	19.926	2.545	0.549
922.500	550.669	79.982	19.991	100.025	19.927	2.485	0.530
930.000	554.487	79.985	19.992	99.941	19.925	2.619	0.504
937.500	558.356	79.985	19.992	100.001	19.927	2.494	0.516
945.000	562.219	79.983	19.991	100.009	19.923	2.773	0.532
952.500	566.092	79.983	19.993	100.016	19.933	2.041	0.523
960.000	569.969	79.985	19.992	100.024	19.934	1.979	0.526
967.500	573.855	79.985	19.992	100.012	19.929	2.296	0.519
975.000	577.706	79.981	19.992	100.006	19.929	2.323	0.505
982.500	581.588	79.983	19.992	100.015	19.929	2.363	0.522
990.000	585.417	79.984	19.992	100.013	19.925	2.611	0.502
997.500	589.282	79.984	19.992	100.003	19.929	2.327	0.519
1005.000	593.125	79.984	19.994	100.002	19.929	2.304	0.530
1012.501	596.965	79.986	19.993	100.012	19.934	1.986	0.488
1020.000	600.849	79.983	19.991	100.008	19.930	2.256	0.539
1027.500	604.729	79.983	19.993	100.009	19.934	1.970	0.537
1035.000	608.549	79.984	19.992	100.022	19.931	2.188	0.531
1042.500	612.366	79.982	19.991	100.020	19.931	2.182	0.511
1050.000	616.257	79.983	19.991	100.017	19.929	2.327	0.505
1057.500	620.120	79.984	19.992	100.008	19.926	2.519	0.520
1065.000	623.917	79.983	19.992	99.998	19.930	2.265	0.507
1072.500	627.713	79.986	19.991	100.006	19.928	2.378	0.475
1080.000	631.536	79.984	19.992	99.999	19.934	2.002	0.496
1087.500	635.387	79.983	19.992	100.012	19.927	2.466	0.537
1095.000	639.170	79.984	19.992	100.008	19.927	2.474	0.532
1102.501	642.973	79.981	19.992	100.025	19.928	2.417	0.496
1110.000	646.758	79.982	19.992	100.012	19.931	2.174	0.526
1117.500	650.544	79.984	19.991	100.013	19.928	2.376	0.505
1125.000	654.423	79.982	19.992	99.994	19.927	2.477	0.487
1132.501	658.209	79.984	19.993	100.004	19.929	2.329	0.502
1140.001	661.978	79.983	19.992	100.007	19.929	2.334	0.456
1147.500	665.792	79.985	19.992	100.010	19.927	2.441	0.527
1155.000	669.630	79.984	19.992	99.999	19.926	2.543	0.511
1162.500	673.445	79.983	19.992	100.006	19.926	2.530	0.523
1170.000	677.231	79.983	19.992	99.996	19.930	2.280	0.512
1177.500	681.030	79.984	19.992	100.012	19.927	2.477	0.504
1185.000	684.911	79.982	19.993	100.003	19.934	1.958	0.512
1192.501	688.673	79.983	19.992	99.991	19.932	2.097	0.490
1200.000	692.539	79.982	19.992	100.019	19.927	2.487	0.502
1207.501	696.328	79.983	19.992	100.006	19.927	2.443	0.503
1215.000	700.140	79.982	19.992	100.003	19.927	2.481	0.495
1222.501	703.970	79.985	19.991	100.000	19.925	2.630	0.532
1230.000	707.752	79.984	19.992	100.013	19.930	2.238	0.498
1237.500	711.468	79.982	19.991	100.002	19.926	2.533	0.490
1245.000	715.277	79.983	19.993	100.006	19.926	2.571	0.483
1252.500	719.192	79.985	19.992	100.002	19.922	2.816	0.504
1260.000	722.975	79.984	19.992	99.992	19.922	2.793	0.500
1267.500	726.756	79.982	19.992	100.014	19.926	2.549	0.503
1275.000	730.604	79.982	19.993	100.005	19.928	2.378	0.494
1282.501	734.358	79.984	19.992	100.018	19.928	2.415	0.494
1290.000	738.124	79.983	19.991	100.023	19.925	2.589	0.489
1297.500	741.873	79.983	19.991	100.006	19.925	2.601	0.519
1301.000	743.640	79.982	19.993	100.020	19.923	2.719	0.499