Folder: fsri_materials_database/01_Data/Pine_Siding/MCC (part 2)

File: Pine_Siding_30K_min_210608_R3.txt
Sample ID:	C:\MCC\MCC Cal\Test\Pine_Siding\Pine_Siding_30_3.txt
Sample Weight (mg):	4.46
Heating Rate (C/s):	0.5
Combustor Temp (C):	900
N2 Flow Rate (cc/min):	80
O2 Flow Rate (cc/min):	20
Calibration File:	C:\MCC\MCC Cal\Coeff1 JN10440_30_210304.txt.txt
T Correction Coefficients:	0	1.024463	0
Time Shift (s):	14
*
Time (s)	Temperature (C)	N2 flow rate (cc/min)	O2 flow rate (cc/min)	Flow Rate (cc/min)	Oxygen (%)	HRR (W/g)	Heating rate (C/s)
0.000	112.473	79.986	19.991	99.952	19.961	-0.168	-0.026
8.000	112.427	79.984	19.991	99.950	19.961	-0.185	-0.015
16.000	112.394	79.985	19.992	99.968	19.952	0.441	-0.041
24.000	112.482	79.985	19.992	100.013	19.953	0.332	0.051
32.001	112.706	79.983	19.992	100.026	19.940	1.289	0.045
40.001	113.255	79.983	19.993	100.082	19.935	1.652	0.095
48.001	114.201	79.985	19.994	100.126	19.931	1.905	0.124
56.001	115.555	79.983	19.992	100.132	19.924	2.418	0.181
64.001	117.180	79.982	19.992	100.147	19.915	2.996	0.219
72.000	119.118	79.982	19.991	100.140	19.921	2.603	0.275
80.000	121.291	79.984	19.992	100.146	19.918	2.837	0.308
88.000	123.568	79.984	19.992	100.142	19.928	2.124	0.306
96.000	126.024	79.985	19.991	100.158	19.914	3.067	0.302
104.000	128.700	79.986	19.993	100.175	19.911	3.305	0.330
112.000	131.550	79.983	19.994	100.183	19.910	3.339	0.354
120.001	134.609	79.982	19.993	100.185	19.912	3.205	0.382
128.000	137.842	79.983	19.994	100.187	19.910	3.363	0.374
136.000	141.208	79.983	19.993	100.188	19.911	3.311	0.415
144.000	144.679	79.985	19.993	100.188	19.909	3.462	0.408
152.000	148.272	79.985	19.992	100.186	19.901	4.003	0.479
160.000	151.966	79.984	19.992	100.179	19.897	4.276	0.440
168.000	155.723	79.985	19.993	100.184	19.903	3.885	0.479
176.000	159.546	79.985	19.991	100.183	19.906	3.626	0.456
184.000	163.455	79.984	19.992	100.178	19.900	4.081	0.473
192.000	167.411	79.983	19.993	100.178	19.903	3.848	0.504
200.000	171.409	79.984	19.992	100.180	19.901	3.981	0.510
208.000	175.387	79.983	19.992	100.167	19.898	4.229	0.497
216.000	179.404	79.983	19.993	100.158	19.896	4.340	0.491
224.000	183.483	79.982	19.994	100.145	19.895	4.414	0.483
232.000	187.560	79.983	19.992	100.146	19.892	4.663	0.550
240.000	191.508	79.985	19.990	100.144	19.892	4.663	0.497
248.000	195.498	79.982	19.992	100.147	19.890	4.753	0.503
256.000	199.520	79.984	19.991	100.139	19.894	4.464	0.525
264.000	203.514	79.986	19.992	100.146	19.886	5.078	0.491
272.000	207.541	79.983	19.992	100.145	19.883	5.240	0.469
280.000	211.515	79.981	19.993	100.135	19.885	5.094	0.500
288.000	215.512	79.984	19.992	100.133	19.884	5.207	0.507
296.000	219.455	79.984	19.992	100.132	19.876	5.743	0.530
304.000	223.411	79.981	19.992	100.124	19.876	5.738	0.480
312.000	227.291	79.984	19.994	100.122	19.868	6.298	0.473
320.000	231.282	79.985	19.991	100.136	19.869	6.222	0.463
328.001	235.246	79.985	19.991	100.122	19.860	6.876	0.519
336.000	239.200	79.986	19.992	100.143	19.855	7.229	0.493
344.000	243.134	79.987	19.991	100.136	19.849	7.647	0.501
352.000	247.105	79.985	19.993	100.134	19.847	7.816	0.477
360.000	251.157	79.985	19.992	100.128	19.834	8.705	0.511
368.000	255.191	79.983	19.991	100.133	19.824	9.425	0.564
376.000	259.113	79.983	19.992	100.145	19.815	10.023	0.566
384.000	263.151	79.980	19.993	100.145	19.815	10.021	0.500
392.000	267.180	79.982	19.993	100.145	19.798	11.238	0.535
400.000	271.431	79.985	19.993	100.147	19.785	12.148	0.609
408.000	275.386	79.985	19.993	100.150	19.767	13.363	0.504
416.000	279.450	79.985	19.992	100.146	19.744	15.034	0.506
424.000	283.525	79.987	19.992	100.171	19.723	16.499	0.536
432.000	287.589	79.984	19.992	100.172	19.699	18.192	0.513
440.000	291.700	79.982	19.991	100.173	19.668	20.355	0.544
448.000	295.748	79.982	19.991	100.187	19.640	22.302	0.509
456.000	299.828	79.984	19.993	100.193	19.606	24.703	0.543
464.000	303.849	79.981	19.994	100.211	19.570	27.196	0.493
472.000	307.822	79.984	19.993	100.211	19.531	29.956	0.484
480.000	311.948	79.983	19.992	100.222	19.489	32.900	0.511
488.000	315.952	79.984	19.992	100.235	19.451	35.563	0.499
496.000	320.002	79.985	19.992	100.246	19.407	38.644	0.509
504.000	323.992	79.986	19.991	100.264	19.374	40.974	0.500
512.000	328.005	79.983	19.991	100.265	19.334	43.802	0.483
520.000	331.875	79.984	19.993	100.268	19.294	46.559	0.581
528.000	336.163	79.985	19.992	100.269	19.266	48.544	0.511
536.000	340.166	79.984	19.992	100.279	19.236	50.698	0.519
544.000	344.140	79.983	19.992	100.275	19.210	52.497	0.529
552.000	348.056	79.983	19.992	100.301	19.187	54.104	0.511
560.000	352.019	79.985	19.993	100.302	19.145	57.081	0.519
568.000	356.035	79.983	19.992	100.316	19.103	60.056	0.510
576.000	359.977	79.984	19.993	100.341	19.046	64.072	0.471
584.000	364.023	79.984	19.992	100.373	18.981	68.618	0.509
592.000	368.051	79.985	19.993	100.382	18.926	72.509	0.506
600.000	372.071	79.984	19.991	100.380	18.877	75.861	0.518
608.000	376.197	79.983	19.992	100.364	18.859	77.104	0.553
616.000	380.278	79.985	19.992	100.321	18.904	73.907	0.496
624.000	384.367	79.986	19.992	100.250	19.013	66.188	0.532
632.000	388.440	79.984	19.992	100.180	19.186	54.071	0.494
640.000	392.599	79.984	19.992	100.108	19.386	40.038	0.496
648.000	396.785	79.985	19.992	100.072	19.558	28.015	0.507
656.000	400.903	79.982	19.992	100.070	19.685	19.110	0.502
664.001	404.996	79.985	19.993	100.064	19.757	14.078	0.477
672.000	409.037	79.984	19.991	100.062	19.795	11.438	0.477
680.000	413.111	79.984	19.993	100.059	19.804	10.791	0.526
688.000	417.016	79.982	19.992	100.058	19.817	9.896	0.476
696.000	421.055	79.984	19.992	100.064	19.822	9.514	0.534
704.000	425.071	79.982	19.991	100.056	19.823	9.468	0.514
712.000	429.069	79.983	19.991	100.067	19.830	8.937	0.502
720.000	433.103	79.984	19.991	100.068	19.834	8.673	0.522
728.000	437.173	79.985	19.992	100.059	19.836	8.563	0.519
736.000	441.114	79.983	19.992	100.060	19.844	8.009	0.481
744.000	445.126	79.986	19.992	100.054	19.847	7.785	0.498
752.000	449.197	79.985	19.992	100.049	19.854	7.322	0.498
760.000	453.241	79.983	19.993	100.041	19.855	7.231	0.509
768.000	457.307	79.983	19.992	100.047	19.860	6.897	0.537
776.000	461.323	79.983	19.991	100.042	19.867	6.350	0.505
784.000	465.335	79.983	19.992	100.052	19.871	6.068	0.513
792.000	469.402	79.982	19.992	100.043	19.879	5.510	0.520
800.000	473.548	79.985	19.991	100.038	19.883	5.233	0.519
808.000	477.682	79.985	19.992	100.045	19.890	4.758	0.498
816.000	481.805	79.984	19.993	100.038	19.892	4.621	0.498
824.000	485.977	79.987	19.993	100.048	19.895	4.399	0.506
832.000	490.138	79.985	19.992	100.046	19.894	4.503	0.513
840.001	494.308	79.984	19.992	100.036	19.894	4.473	0.557
848.000	498.413	79.984	19.993	100.032	19.894	4.473	0.534
856.000	502.540	79.983	19.992	100.039	19.899	4.137	0.531
864.000	506.653	79.985	19.992	100.035	19.902	3.907	0.530
872.000	510.758	79.984	19.992	100.030	19.903	3.871	0.498
880.000	514.913	79.984	19.992	100.030	19.898	4.187	0.506
888.000	519.059	79.985	19.992	100.042	19.901	4.028	0.530
896.000	523.135	79.984	19.992	100.042	19.910	3.381	0.499
904.000	527.231	79.984	19.993	100.035	19.906	3.641	0.478
912.000	531.356	79.985	19.992	100.032	19.903	3.877	0.505
920.000	535.406	79.984	19.992	100.028	19.901	3.995	0.526
928.000	539.444	79.984	19.993	100.028	19.902	3.954	0.517
936.000	543.549	79.982	19.993	100.025	19.905	3.728	0.496
944.000	547.621	79.983	19.993	100.031	19.905	3.685	0.513
952.000	551.741	79.985	19.991	100.031	19.907	3.553	0.512
960.000	555.855	79.984	19.992	100.030	19.907	3.579	0.498
968.000	560.001	79.985	19.992	100.029	19.907	3.579	0.530
976.000	564.101	79.985	19.992	100.030	19.911	3.315	0.522
984.000	568.173	79.987	19.991	100.026	19.907	3.584	0.507
992.000	572.258	79.987	19.992	100.028	19.910	3.398	0.504
1000.000	576.368	79.985	19.992	100.024	19.909	3.473	0.492
1008.000	580.455	79.984	19.992	100.026	19.911	3.313	0.518
1016.000	584.491	79.983	19.993	100.032	19.910	3.345	0.513
1024.000	588.609	79.983	19.993	100.028	19.909	3.409	0.503
1032.001	592.673	79.983	19.993	100.033	19.906	3.660	0.539
1040.001	596.753	79.983	19.991	100.031	19.907	3.594	0.505
1048.000	600.780	79.986	19.991	100.025	19.904	3.760	0.496
1056.000	604.890	79.984	19.991	100.025	19.906	3.671	0.502
1064.000	608.997	79.986	19.992	100.026	19.910	3.335	0.522
1072.000	613.061	79.988	19.992	100.025	19.904	3.756	0.501
1080.000	617.188	79.986	19.991	100.022	19.906	3.632	0.520
1088.001	621.246	79.984	19.992	100.027	19.905	3.717	0.517
1096.001	625.343	79.984	19.992	100.026	19.909	3.458	0.531
1104.000	629.402	79.985	19.991	100.020	19.910	3.375	0.504
1112.000	633.508	79.984	19.993	100.023	19.911	3.292	0.505
1120.001	637.702	79.982	19.993	100.021	19.911	3.269	0.519
1128.000	641.773	79.987	19.991	100.021	19.908	3.484	0.509
1136.001	645.864	79.985	19.992	100.021	19.915	3.045	0.520
1144.000	650.093	79.984	19.992	99.996	19.912	3.241	0.516
1152.000	654.253	79.985	19.992	100.012	19.914	3.115	0.524
1160.000	658.296	79.987	19.991	100.012	19.913	3.175	0.526
1168.000	662.352	79.987	19.991	100.018	19.917	2.905	0.493
1176.000	666.342	79.984	19.992	99.998	19.920	2.702	0.480
1184.000	670.375	79.985	19.993	100.010	19.916	2.980	0.491
1192.001	674.375	79.983	19.992	100.001	19.913	3.142	0.528
1200.000	678.355	79.984	19.993	100.011	19.912	3.229	0.516
1208.000	682.360	79.982	19.993	100.003	19.916	2.972	0.520
1216.000	686.382	79.985	19.992	100.008	19.913	3.129	0.493
1224.000	690.396	79.982	19.992	99.996	19.911	3.278	0.502
1232.000	694.428	79.986	19.992	99.997	19.914	3.118	0.490
1240.001	698.439	79.989	19.991	100.006	19.912	3.225	0.477
1248.000	702.459	79.985	19.991	99.988	19.916	2.978	0.477
1256.000	706.434	79.985	19.992	100.009	19.912	3.248	0.522
1264.000	710.440	79.986	19.992	99.989	19.912	3.221	0.523
1272.000	714.413	79.986	19.992	99.992	19.914	3.065	0.516
1280.001	718.422	79.983	19.992	99.995	19.909	3.408	0.481
1288.001	722.376	79.986	19.993	99.999	19.911	3.317	0.487
1296.000	726.303	79.983	19.993	99.996	19.912	3.203	0.469
1304.000	730.350	79.987	19.992	99.987	19.911	3.278	0.498
1312.000	734.395	79.989	19.992	99.987	19.912	3.215	0.489
1320.000	738.451	79.987	19.992	99.984	19.910	3.338	0.489
1328.000	742.525	79.984	19.993	99.986	19.908	3.513	0.476
1330.001	743.571	79.983	19.992	99.988	19.913	3.157	0.509