Folder: fsri_materials_database/01_Data/Nylon/Cone (part 2)

File: Nylon_Cone_HF25Scan_220225_R3.csv
Names,Time,Stack TC,Smoke TC,Exh Press,Smoke Comp,Smoke Meas,CO Meter,CO2 Meter,O2 Meter,Sample Mass,Ext Coeff,Start Test,Flame Verif
Chan Gain,,500,500,1,1,1,1,1,1,1,1,1.0,1.0
Offset,,0,0,0.136092,0,0,0,0,0,0,0,0.0,0.0
Gain,,1,1,25.011,15.4219,15.1528,1,1,1,1.00089,1.02113,1.0,1.0
Units,sec,C,C,Pa,%,%,%,%,%,g,/m,,
Baseline,,25.2804,25.3893,161.694,116.215,113.946,-0.00984971,0.0421509,21.0098,-0.00225198,0.176702,,
40,9.75,23.9052,23.7299,163.473,116.125,114.089,-0.00970845,0.0488514,21.0021,908.084,0.158392,0.0,0.0
80,19.75,23.2661,24.2173,161.722,116.265,113.819,-0.0100586,0.0440687,21.0082,908.104,0.190504,0.0,0.0
120,29.75,23.619,24.4806,160.786,116.165,113.976,-0.00997461,0.0425486,21.0103,908.034,0.17034,0.0,0.0
160,39.75,23.7824,23.666,163.162,115.708,113.611,-0.00960301,0.0435878,21.011,908.054,0.163826,0.0,0.0
200,49.75,24.2599,24.4126,161.965,115.638,113.272,-0.00965555,0.0446505,21.0089,908.054,0.185123,0.0,0.0
240,59.75,23.5768,23.8655,161.411,115.889,113.906,-0.00965255,0.044946,21.0072,908.044,0.154575,0.0,0.0
280,69.75,24.1116,24.7462,165.003,116.181,114.415,-0.00996369,0.0442746,21.0077,908.024,0.137188,0.0,0.0
320,79.75,23.9298,23.9676,165.473,116.409,114.511,-0.00984117,0.0439628,21.0081,908.014,0.147206,0.0,0.0
360,89.75,23.7054,24.7769,161.344,116.408,113.891,-0.00991049,0.0428365,21.0101,907.974,0.195773,0.0,0.0
400,99.75,23.9343,24.5721,160.325,116.148,114.06,-0.00971499,0.0422488,21.0092,907.944,0.162495,0.0,0.0
440,109.75,24.2546,24.2304,162.603,115.782,113.629,-0.00994274,0.0420282,21.0092,907.874,0.168159,0.0,0.0
480,119.75,24.6283,24.6978,165.065,115.44,112.455,-0.0102255,0.0423551,21.0056,907.844,0.234684,0.0,0.0
520,129.75,24.15,25.0624,154.084,115.237,112.587,-0.010251,0.0427399,21.0095,907.824,0.208366,0.0,0.0
560,139.75,24.8377,24.9947,165.189,115.033,111.839,-0.00997691,0.0425081,21.011,907.774,0.252236,0.0,0.0
600,149.75,23.8516,24.9652,161.53,114.825,111.281,-0.00997498,0.0429335,21.0075,907.734,0.280802,0.0,0.0
640,159.75,24.4543,25.2759,163.873,114.673,111.179,-0.00957742,0.0437902,21.0048,907.664,0.277166,0.0,0.0
680,169.75,24.6061,25.2811,162.152,114.358,111.557,-0.00943685,0.0437023,21.0064,907.614,0.222076,0.0,0.0
720,179.75,24.9276,25.9557,159.016,114.124,110.319,-0.0100658,0.0435935,21.0085,907.544,0.303763,0.0,0.0
760,189.75,24.6869,25.8434,162.409,113.998,110.898,-0.00982031,0.0431471,21.0094,907.504,0.246936,0.0,0.0
800,199.75,24.6196,25.4697,158.658,114.082,110.539,-0.00968244,0.0428429,21.0079,907.384,0.282584,0.0,0.0
840,209.75,24.2564,25.5961,157.111,114.298,111.275,-0.00994389,0.0417455,21.008,907.374,0.240035,0.0,0.0
880,219.75,24.6848,25.3205,158.906,114.531,112.207,-0.0100459,0.0412068,21.0097,907.354,0.183579,0.0,0.0
920,229.75,24.9829,25.5189,161.267,114.848,111.834,-0.01007,0.0418787,21.0104,907.314,0.238194,0.0,0.0
960,239.75,24.6562,25.6965,159.955,115.1,111.641,-0.00989329,0.0421067,21.0088,907.273,0.273268,0.0,0.0
1000,249.75,24.4828,25.8594,161.97,115.301,110.612,-0.00963823,0.0436763,21.0094,907.264,0.371939,0.0,0.0
1040,259.75,24.8385,25.2749,158.891,115.49,112.183,-0.00988141,0.0429095,21.008,907.233,0.260239,0.0,0.0
1080,269.75,24.9065,25.7685,158.359,115.623,112.474,-0.0100828,0.0422359,21.0079,907.203,0.247405,0.0,0.0
1120,279.75,25.2528,25.9984,162.138,115.662,112.538,-0.00996533,0.0416197,21.0112,907.173,0.245276,0.0,0.0
1160,289.75,25.4661,25.9551,153.552,115.647,112.256,-0.00991909,0.0413032,21.0108,907.133,0.266626,0.0,0.0
1200,299.75,25.2003,26.1421,158.27,115.551,112.76,-0.00951545,0.0420169,21.0097,907.113,0.219021,0.0,0.0
1240,309.75,25.2647,26.5956,158.778,115.4,111.816,-0.010061,0.0436757,21.0084,907.103,0.282591,0.0,0.0
1280,319.75,24.7506,26.293,159.584,115.482,112.85,-0.0100129,0.0418744,21.0103,907.013,0.206533,0.0,0.0
1320,329.75,25.1947,26.4714,162.669,115.968,113.816,-0.00971964,0.0413197,21.0127,907.033,0.167778,0.0,0.0
1360,339.75,24.8383,26.4547,157.105,116.201,112.79,-0.00955302,0.0426924,21.0109,907.003,0.266876,0.0,0.0
1400,349.75,25.0536,26.1462,157.336,116.26,113.343,-0.0102171,0.0417354,21.012,907.003,0.227594,0.0,0.0
1440,359.75,24.7547,25.8803,157.941,116.168,113.115,-0.0103957,0.0411413,21.0108,907.003,0.238556,0.0,0.0
1480,369.75,24.8729,26.2509,160.158,115.961,113.515,-0.0102661,0.0409104,21.0098,906.943,0.190956,0.0,0.0
1520,379.75,25.3473,26.289,160.4,115.761,113.749,-0.00984103,0.0410561,21.0118,906.953,0.157084,0.0,0.0
1560,389.75,25.663,26.7551,162.832,115.683,112.895,-0.00973334,0.0407017,21.0126,906.913,0.218547,0.0,0.0
1600,399.75,25.1644,26.3475,161.591,115.735,112.711,-0.00977261,0.0406816,21.0122,906.843,0.237169,0.0,0.0
1640,409.75,25.3491,25.7641,155.584,115.795,113.778,-0.00996624,0.0407998,21.0152,906.883,0.157374,0.0,0.0
1680,419.75,25.1925,26.0798,156.805,115.896,113.532,-0.00999444,0.0460911,21.0052,906.863,0.184587,0.0,0.0
1720,429.75,25.3651,27.2755,162.132,116.028,113.786,-0.00948874,0.0556222,20.9945,906.933,0.174759,0.0,0.0
1760,439.75,25.7477,27.0101,161.029,116.14,114.75,-0.00976952,0.0453082,21.006,906.883,0.107823,0.0,0.0
1800,449.75,25.5438,26.9449,160.798,116.219,114.191,-0.010077,0.0444441,21.0086,906.873,0.157702,0.0,0.0
1840,459.75,25.6708,26.8127,158.7,116.175,114.537,-0.00979446,0.0461646,21.007,906.823,0.127164,0.0,0.0
1880,469.75,25.1106,26.5319,162.715,115.982,114.106,-0.00981401,0.0496249,21.0033,906.833,0.146042,0.0,0.0
1920,479.75,25.5012,26.8693,163.976,115.427,114.006,-0.00998173,0.0463465,21.0083,906.833,0.110931,0.0,0.0
1960,489.75,25.4491,26.5745,159.223,115.37,113.956,-0.00979008,0.0497082,21.0043,906.773,0.110435,0.0,0.0
2000,499.75,25.8525,27.1058,162.444,115.525,113.878,-0.0098678,0.0506656,21.0007,906.773,0.128594,0.0,0.0
2040,509.75,25.8577,27.3324,160.371,115.629,114.228,-0.0102807,0.0546582,20.9945,906.733,0.109235,0.0,0.0
2080,519.75,25.7576,27.08,161.011,115.603,113.954,-0.0103192,0.0548014,20.9915,906.673,0.128687,0.0,0.0
2120,529.75,26.1901,27.2636,160.245,115.507,114.039,-0.00974368,0.0608097,20.9845,906.633,0.114594,0.0,0.0
2160,539.75,26.1216,27.6728,157.621,115.175,113.239,-0.00976007,0.0681242,20.9738,906.593,0.151849,0.0,1.0
2200,549.75,26.445,27.7118,159.783,114.658,111.655,-0.00938843,0.081227,20.9514,906.523,0.237734,0.0,0.0
2240,559.75,26.6227,28.5408,158.34,114.164,110.325,-0.00944267,0.105677,20.9164,906.373,0.306414,0.0,0.0
2280,569.75,28.9458,30.2024,156.11,113.941,108.62,-0.00902352,0.156205,20.836,906.133,0.428402,0.0,0.0
2320,579.75,30.6894,32.9348,150.419,114.049,106.066,-0.00821017,0.211925,20.7489,905.732,0.649999,0.0,0.0
2360,589.75,33.9225,36.4077,146.046,114.661,103.311,-0.00734364,0.264686,20.6733,905.262,0.933627,0.0,0.0
2400,599.75,36.9715,40.2434,143.508,115.52,102.774,-0.00696971,0.304666,20.6021,904.831,1.04726,0.0,0.0
2440,609.75,40.4762,44.1164,140.084,116.239,100.995,-0.00550628,0.405703,20.4489,904.101,1.25914,0.0,0.0
2480,619.75,45.6772,50.1482,134.912,116.437,99.4742,-0.00466425,0.482109,20.3199,903.22,1.41035,0.0,0.0
2520,629.75,50.4551,56.3377,133.399,116.14,98.9577,-0.00443203,0.552047,20.2193,902.219,1.4341,0.0,0.0
2560,639.75,55.984,62.7053,129.518,115.75,98.8573,-0.00310917,0.641108,20.075,901.198,1.41305,0.0,0.0
2600,649.75,62.2228,70.0243,133.087,115.563,98.0657,-0.00254892,0.745593,19.9128,899.917,1.4706,0.0,0.0
2640,659.75,67.7253,76.9674,125.166,115.925,99.8123,-0.00227243,0.811326,19.815,898.526,1.34044,0.0,0.0
2680,669.75,73.8215,83.9422,117.893,116.196,97.6125,-0.00138382,0.884827,19.6949,897.094,1.56098,0.0,0.0
2720,679.75,79.7055,91.407,114.146,116.302,96.2668,-0.000590987,0.981248,19.5555,895.493,1.69348,0.0,0.0
2760,689.75,84.6762,98.0172,118.529,116.273,97.7642,-0.00018513,1.0464,19.4488,893.802,1.55306,0.0,0.0
2800,699.75,91.5382,105.552,112.913,116.234,96.382,0.000309082,1.1645,19.2797,892.03,1.67756,0.0,0.0
2840,709.75,98.2833,113.791,117.729,116.226,94.1258,0.00139664,1.26426,19.1269,890.289,1.88915,0.0,0.0
2880,719.75,104.868,121.591,115.134,116.165,93.3637,0.00211685,1.34354,19.0039,888.227,1.95725,0.0,0.0
2920,729.75,110.843,129.042,105.493,116.184,91.9403,0.00381486,1.4642,18.8138,886.055,2.09634,0.0,0.0
2960,739.75,117.595,137.282,105.406,116.16,92.0633,0.00412641,1.52604,18.7284,883.803,2.08248,0.0,0.0
3000,749.75,123.336,143.91,100.167,116.16,91.9084,0.00504716,1.54938,18.6868,881.701,2.0976,0.0,0.0
3040,759.75,127.696,149.286,101.597,116.182,86.4217,0.00727095,1.55705,18.6672,879.449,2.65062,0.0,0.0
3080,769.75,130.114,152,106.155,116.252,82.3325,0.00932908,1.52973,18.6996,877.177,3.09018,0.0,0.0
3120,779.75,131.848,153.716,104.474,116.292,82.9466,0.00938893,1.4144,18.8909,875.315,3.0267,0.0,0.0
3160,789.75,128.514,149.294,121.943,116.279,85.0155,0.00664759,1.06638,19.3682,873.724,2.80501,0.0,0.0
3200,799.75,120.605,138.782,131.405,116.076,87.6083,0.000410425,0.659802,20.0511,872.693,2.52031,0.0,0.0
3240,809.75,108.481,123.708,140.242,115.662,99.144,-0.00510079,0.339131,20.5547,872.192,1.3803,0.0,0.0
3280,819.75,97.1908,109.824,148.93,115.738,109.879,-0.0080923,0.163146,20.8145,872.012,0.465317,0.0,0.0
3320,829.75,85.6236,95.7107,153.333,116.046,110.977,-0.00939779,0.0749967,20.959,871.992,0.400096,0.0,0.0
3360,839.75,75.8776,83.3999,153.548,116.376,111.986,-0.0095057,0.0506997,20.9951,871.992,0.344452,0.0,0.0
3400,849.75,68.3043,74.0706,152.896,116.475,112.471,-0.0099726,0.045341,21.0033,872.022,0.313377,0.0,0.0
3440,859.75,61.7376,66.78,157.291,116.301,111.637,-0.00975618,0.0437996,21.0054,871.992,0.366586,0.0,0.0
3480,869.75,58.0614,60.7563,154.015,115.955,111.793,-0.0098583,0.0432723,21.0056,871.912,0.32741,0.0,0.0
3520,879.75,52.8412,55.1366,154.899,115.48,111.268,-0.0101257,0.0421773,21.0082,872.012,0.332767,0.0,0.0
3560,889.75,50.8029,51.8021,154.422,114.941,111.028,-0.0102616,0.0417323,21.0094,871.922,0.31025,0.0,0.0
3600,899.75,47.5371,48.7468,154.601,114.406,110.069,-0.00996654,0.0413813,21.0082,872.002,0.346161,0.0,0.0
3640,909.75,46.1759,45.8219,155.499,114.07,110.502,-0.00999516,0.0419471,21.0091,871.972,0.28462,0.0,0.0
3680,919.75,44.0101,44.1837,156.558,114.067,110.265,-0.0102266,0.0424442,21.0068,871.982,0.30365,0.0,0.0
3720,929.75,42.6411,41.9831,160.065,114.475,111.231,-0.0100153,0.0423944,21.0076,872.022,0.257429,0.0,0.0
3760,939.75,40.4945,40.6076,152.736,115.095,112.007,-0.00996131,0.0418222,21.0074,872.012,0.243638,0.0,0.0
3800,949.75,39.9674,39.5551,158.295,115.556,112.599,,,,871.902,0.232178,0.0,0.0
3811,952.5,39.8968,38.9469,154.045,115.621,113.105,,,,871.982,0.197057,0.0,0.0

File: Nylon_Cone_HF50Scalar_220225_R1.csv
LABORATORY,FSRI
TEST IDENT,Nylon_HF50_1
OPERATOR,Dow
MATERIAL,Nylon
ORIENTATION,Horizontal
HEAT FLUX,50
SURF AREA,0.01
C FACTOR,0.0385692
SPEC HOLDER DIFF,303.74
SPECIMEN MASS,36.4
SCAN TIME,0.25
O2 DELAY TIME,11
CO DELAY TIME,11
CO2 DELAY TIME,8
FLOW FACTOR,1
SCAN COUNT,1520
TIME TO IGN,67.25
END OF TEST SCAN,1040
END OF TEST TIME,260
TEST STATUS,1
PRE TEST CMT,Dimensions: 99.55 x 99.80 x 3.00 mm; 60 mm spacing
POST TEST CMT,Minor spilled out of foil pan into lower drip tray.

File: Nylon_Cone_HF50Scalar_220225_R2.csv
LABORATORY,FSRI
TEST IDENT,Nylon_HF50_2
OPERATOR,Dow
MATERIAL,Nylon
ORIENTATION,Horizontal
HEAT FLUX,50
SURF AREA,0.01
C FACTOR,0.0385692
SPEC HOLDER DIFF,304.54
SPECIMEN MASS,36.6
SCAN TIME,0.25
O2 DELAY TIME,11
CO DELAY TIME,11
CO2 DELAY TIME,8
FLOW FACTOR,1
SCAN COUNT,1631
TIME TO IGN,69.75
END OF TEST SCAN,1151
END OF TEST TIME,287.75
TEST STATUS,1
PRE TEST CMT,Dimensions: 99.89 x 99.87 x 2.99 mm; 60 mm spacing
POST TEST CMT,Minor spill out of foil pan into lower drip tray.

File: Nylon_Cone_HF50Scalar_220225_R3.csv
LABORATORY,FSRI
TEST IDENT,Nylon_HF50_3
OPERATOR,Dow
MATERIAL,Nylon
ORIENTATION,Horizontal
HEAT FLUX,50
SURF AREA,0.01
C FACTOR,0.0370678
SPEC HOLDER DIFF,307.42
SPECIMEN MASS,36.3
SCAN TIME,0.25
O2 DELAY TIME,11
CO DELAY TIME,11
CO2 DELAY TIME,8
FLOW FACTOR,1
SCAN COUNT,1517
TIME TO IGN,79.75
END OF TEST SCAN,1037
END OF TEST TIME,259.25
TEST STATUS,1
PRE TEST CMT,Dimensions: 99.52 x 99.64 x 3.00 mm; 60 mm spacing

File: Nylon_Cone_HF50Scan_220225_R1.csv
Names,Time,Stack TC,Smoke TC,Exh Press,Smoke Comp,Smoke Meas,CO Meter,CO2 Meter,O2 Meter,Sample Mass,Ext Coeff,Start Test,Flame Verif
Chan Gain,,500,500,1,1,1,1,1,1,1,1,1.0,1.0
Offset,,0,0,0.136092,0,0,0,0,0,0,0,0.0,0.0
Gain,,1,1,25.011,15.4219,15.1528,1,1,1,1.00089,1.02113,1.0,1.0
Units,sec,C,C,Pa,%,%,%,%,%,g,/m,,
Baseline,,34.1043,36.0476,155.323,115.657,111.534,-0.00977621,0.0408558,21.0091,-0.0127613,0.325155,,
16,3.75,29.229,30.3746,156.154,115.685,111.637,-0.00947249,0.0421488,21.0079,907.003,0.318976,0.0,0.0
32,7.75,29.2115,30.3224,158.594,115.669,111.723,-0.00958883,0.0420137,21.0077,907.013,0.310948,0.0,0.0
48,11.75,30.1754,31.305,158.966,115.665,111.747,-0.00968515,0.0427102,21.0066,906.833,0.308656,0.0,0.0
64,15.75,30.2731,31.4893,154.871,115.629,111.646,-0.00985156,0.0433433,21.0064,907.013,0.31397,0.0,0.0
80,19.75,30.1942,31.6283,155.46,115.581,111.23,-0.00993396,0.042877,21.0064,906.823,0.343703,0.0,0.0
96,23.75,30.3295,31.7396,158.401,115.519,111.985,-0.00977243,0.0420616,21.0082,906.873,0.278319,0.0,0.0
112,27.75,30.8778,32.3982,157.368,115.467,111.332,-0.00980418,0.0415175,21.0086,906.833,0.326609,0.0,0.0
128,31.75,31.06,32.0717,155.638,115.405,109.918,-0.00973127,0.0412362,21.0086,906.753,0.436325,0.0,0.0
144,35.75,31.5338,33.0113,153.779,115.358,110.51,-0.010191,0.0411566,21.0078,906.853,0.384531,0.0,0.0
160,39.75,31.0829,33.1202,157.334,115.34,111.201,-0.0101275,0.041234,21.0059,906.743,0.327319,0.0,0.0
176,43.75,31.4005,33.5014,152.797,115.591,110.778,-0.00973977,0.0412413,21.0048,906.783,0.380999,0.0,0.0
192,47.75,32.1341,32.9003,156.994,115.782,109.684,-0.00976998,0.0414557,21.0046,906.733,0.484626,0.0,0.0
208,51.75,32.3729,33.3262,156.6,115.753,110.485,-0.00962465,0.0418179,21.0045,906.723,0.417272,0.0,0.0
224,55.75,32.4789,34.2557,155.259,115.92,108.026,-0.00931571,0.0424455,21.0062,906.643,0.631742,0.0,0.0
240,59.75,32.3868,34.7428,154.762,116.079,109.275,-0.00907631,0.0434332,21.0075,906.653,0.541091,0.0,0.0
256,63.75,32.8776,34.0685,151.451,116.163,108.295,-0.00897314,0.0446111,21.0057,906.553,0.628236,0.0,0.0
272,67.75,32.6157,34.6135,146.716,116.242,109.624,-0.00883156,0.0743328,20.9543,906.363,0.525038,0.0,1.0
288,71.75,33.882,35.8964,140.641,116.28,107.225,-0.0083435,0.174113,20.7949,906.293,0.726253,0.0,1.0
304,75.75,36.7874,39.2274,133.677,116.293,107.283,-0.00759914,0.307442,20.6005,905.902,0.722326,0.0,0.0
320,79.75,40.0807,43.0443,132.356,116.269,106.926,-0.00705007,0.43175,20.4245,905.622,0.750335,0.0,0.0
336,83.75,44.2658,48.18,128.921,116.248,107.021,-0.0066856,0.560189,20.2285,905.172,0.740762,0.0,0.0
352,87.75,48.8918,53.8203,117.308,116.226,106.161,-0.0062726,0.659381,20.0556,904.621,0.811336,0.0,0.0
368,91.75,54.6959,60.3342,120.887,116.197,104.8,-0.00557359,0.771448,19.8855,903.991,0.924655,0.0,0.0
384,95.75,58.9565,65.8945,120.6,116.153,103.427,-0.00504299,0.865806,19.7367,903.47,1.03944,0.0,0.0
400,99.75,63.899,72.3168,123.198,116.094,102.903,-0.00429528,0.916417,19.6643,902.82,1.0804,0.0,0.0
416,103.75,68.6736,78.2909,119.832,115.98,101.386,-0.00378889,0.966951,19.6021,902.139,1.20458,0.0,0.0
432,107.75,74.1168,83.8095,109.221,115.785,100.886,-0.00314581,1.0193,19.5085,901.589,1.23383,0.0,0.0
448,111.75,78.5002,90.4247,108.456,115.648,99.5834,-0.00245794,1.08496,19.4163,900.728,1.33964,0.0,0.0
464,115.75,83.0395,95.6086,115.822,115.714,100.325,-0.00230629,1.10667,19.3748,900.257,1.27823,0.0,0.0
480,119.75,87.5442,100.527,98.4698,115.767,99.766,-0.00185472,1.16652,19.2734,899.467,1.3324,0.0,0.0
496,123.75,92.3428,106.644,104.252,115.83,97.7632,-0.000995174,1.24567,19.1808,898.656,1.51893,0.0,0.0
512,127.75,96.2001,112.455,106.195,115.884,97.1598,-0.000310973,1.29621,19.0899,897.905,1.57854,0.0,0.0
528,131.75,100.359,116.616,106.377,115.941,95.6217,0.000118793,1.32812,19.0395,897.065,1.72586,0.0,0.0
544,135.75,104.901,122.155,99.246,116.008,97.1894,0.000716599,1.38679,18.9475,896.254,1.58541,0.0,0.0
560,139.75,109.266,127.628,105.39,116.111,95.1195,0.00180139,1.47764,18.7939,895.403,1.78618,0.0,0.0
576,143.75,113.885,133.188,106.373,116.182,93.6069,0.00317236,1.60092,18.6149,894.462,1.93525,0.0,0.0
592,147.75,118.508,139.036,104.797,116.227,91.0617,0.00505057,1.76027,18.4196,893.431,2.18565,0.0,0.0
608,151.75,124.098,146.033,94.258,116.273,90.7038,0.00656028,1.92054,18.1765,892.26,2.22448,0.0,0.0
624,155.75,129.539,153.25,94.0535,116.318,89.7249,0.0085418,2.0986,17.8772,891.269,2.32509,0.0,0.0
640,159.75,135.557,160.909,83.7439,116.378,86.8116,0.0111514,2.2828,17.603,890.088,2.62543,0.0,0.0
656,163.75,142.104,169.366,90.0829,116.439,86.3417,0.013276,2.45918,17.3493,888.987,2.67874,0.0,0.0
672,167.75,148.285,178.055,87.1893,116.472,86.0462,0.0141887,2.57766,17.189,887.606,2.71195,0.0,0.0
688,171.75,153.753,185.302,84.0378,116.507,82.8462,0.0155058,2.65095,17.0946,886.425,3.05409,0.0,0.0
704,175.75,159.761,193.632,88.1037,116.521,82.0976,0.0178306,2.80622,16.8733,885.054,3.13653,0.0,0.0
720,179.75,165.557,201.104,83.5218,116.555,81.9847,0.0189499,2.88825,16.7428,883.773,3.15141,0.0,0.0
736,183.75,171.078,208.169,93.8886,116.561,81.5075,0.0191623,2.86438,16.7691,882.462,3.20421,0.0,0.0
752,187.75,175.562,214.017,83.2066,116.546,81.0062,0.0190516,2.83751,16.802,881.26,3.25831,0.0,0.0
768,191.75,179.014,218.432,88.3281,116.497,79.2777,0.0198884,2.82636,16.8196,880.069,3.44772,0.0,0.0
784,195.75,181.99,223.086,89.9119,116.421,78.5785,0.0208103,2.76961,16.908,878.878,3.52124,0.0,0.0
800,199.75,184.16,225.638,91.6682,116.344,77.8123,0.0193966,2.52692,17.2531,877.737,3.60311,0.0,0.0
816,203.75,184.227,224.418,93.2665,116.25,79.6749,0.0167677,2.2203,17.7263,876.716,3.38393,0.0,0.0
832,207.75,183.457,223.176,100.837,116.119,80.9434,0.0138852,1.98443,18.0324,875.896,3.23236,0.0,0.0
848,211.75,180.459,219.301,102.14,115.978,82.9637,0.011749,1.75311,18.3988,875.095,3.00067,0.0,0.0
864,215.75,177.566,214.161,108.974,115.791,83.2966,0.0103411,1.52429,18.6868,874.214,2.95036,0.0,0.0
880,219.75,173.02,207.967,115.921,115.62,83.6388,0.00831796,1.26927,19.0841,873.634,2.90034,0.0,0.0
896,223.75,168.011,200.821,117.45,115.413,83.5972,0.00624779,1.07017,19.4005,873.063,2.88877,0.0,0.0
912,227.75,162.346,193.385,127.17,115.179,84.7218,0.00338921,0.885788,19.6994,872.593,2.7509,0.0,0.0
928,231.75,155.532,184.252,128.969,114.955,85.6814,-0.000211721,0.698405,19.989,872.233,2.63255,0.0,0.0
944,235.75,150.544,177.143,130.664,114.773,89.317,-0.00262133,0.557768,20.196,871.972,2.24619,0.0,0.0
960,239.75,144.23,168.72,133.132,114.588,95.5033,-0.00440756,0.439541,20.3776,871.762,1.63185,0.0,0.0
976,243.75,137.953,160.848,140.008,114.42,100.548,-0.00594446,0.304809,20.6014,871.712,1.1576,0.0,0.0
992,247.75,131.627,151.95,143.227,114.294,104.507,-0.00693686,0.203997,20.7698,871.642,0.801855,0.0,0.0
1008,251.75,125.099,144.544,142.663,114.222,104.676,-0.00757743,0.144254,20.8616,871.632,0.781718,0.0,0.0
1024,255.75,119.09,136.924,145.265,114.198,104.73,-0.00811076,0.106184,20.9237,871.502,0.775284,0.0,0.0
1040,259.75,114.039,130.684,146.918,114.227,105.022,-0.00833981,0.0823107,20.9575,871.482,0.752534,0.0,0.0
1056,263.75,108.762,123.327,145.552,114.287,105.35,-0.0087089,0.0693997,20.9713,871.502,0.729378,0.0,0.0
1072,267.75,103.694,117.044,141.355,114.382,104.674,-0.00894861,0.0618251,20.9809,871.542,0.794453,0.0,0.0
1088,271.75,99.9021,112.127,144.652,114.52,104.972,-0.00917036,0.057083,20.9869,871.632,0.779836,0.0,0.0
1104,275.75,96.1766,107.08,141.014,114.682,105.423,-0.00929135,0.0542798,20.9903,871.522,0.753985,0.0,0.0
1120,279.75,92.4794,103.616,147.558,114.918,105.691,-0.00955412,0.0526449,20.9946,871.532,0.749775,0.0,0.0
1136,283.75,88.5055,98.3734,148.645,115.121,106.284,-0.0100443,0.0515711,20.9981,871.522,0.715431,0.0,0.0
1152,287.75,86.1043,95.8448,148.595,115.318,106.829,-0.0100949,0.0506798,20.9977,871.462,0.684894,0.0,0.0
1168,291.75,84.2798,91.9895,149.562,115.454,105.563,-0.00985961,0.0498712,20.9975,871.382,0.802247,0.0,0.0
1184,295.75,81.2185,88.7523,146.457,115.616,106.204,-0.0096746,0.0493626,20.9982,871.402,0.76054,0.0,0.0
1200,299.75,79.5937,85.9603,142.715,115.74,107.016,-0.00969502,0.0485979,20.9994,871.502,0.701938,0.0,0.0
1216,303.75,77.5259,83.6712,147,115.814,106.706,-0.00942037,0.0479172,21.0003,871.572,0.733736,0.0,0.0
1232,307.75,75.5968,81.168,146.859,115.819,106.572,-0.0094577,0.0474431,21.0017,871.492,0.745326,0.0,0.0
1248,311.75,74.2197,78.4302,146.24,115.787,107.041,-0.00942849,0.0470834,21.0015,871.602,0.70349,0.0,0.0
1264,315.75,72.7243,77.5255,144.344,115.744,106.258,-0.00962517,0.0466584,21.0031,871.552,0.765966,0.0,0.0
1280,319.75,71.0831,74.9749,146.26,115.699,106.704,-0.00984382,0.0463207,21.0038,871.572,0.724894,0.0,0.0
1296,323.75,70.0658,73.3873,147.891,115.631,106.143,-0.00991041,0.0461422,21.0023,871.542,0.766894,0.0,0.0
1312,327.75,68.1229,72.0607,145.84,115.541,106.636,-0.00995225,0.0461495,21.002,871.492,0.718427,0.0,0.0
1328,331.75,67.2587,70.616,147.503,115.461,106.343,-0.00976288,0.045587,21.0019,871.432,0.736808,0.0,0.0
1344,335.75,65.7814,68.5908,146.364,115.444,106.846,-0.00988164,0.0452732,21.0015,871.552,0.693254,0.0,0.0
1360,339.75,65.1766,67.5668,151.511,115.823,107.028,-0.00991753,0.0449226,21.0014,871.552,0.707453,0.0,0.0
1376,343.75,64.6223,66.9469,147.703,116.124,106.639,-0.00997792,0.0445765,21.0014,871.582,0.76321,0.0,0.0
1392,347.75,63.9037,65.2997,145.717,116.315,107.792,-0.00985543,0.0447504,21.0007,871.572,0.681587,0.0,0.0
1408,351.75,62.8483,64.1697,146.646,116.411,107.117,-0.00968063,0.0443638,21.0022,871.542,0.745291,0.0,0.0
1424,355.75,61.8258,63.3062,147.667,116.414,107.591,-0.00961343,0.0442223,21.0048,871.592,0.705926,0.0,0.0
1440,359.75,61.403,62.4209,148.601,116.279,107.531,-0.00962871,0.0437088,21.0053,871.582,0.700605,0.0,0.0
1456,363.75,60.8899,61.7405,146.776,116.086,108.225,-0.00974719,0.0434229,21.0051,871.562,0.628061,0.0,0.0
1472,367.75,59.9787,60.9927,150.076,115.786,107.099,-0.00994735,0.0435063,21.0029,871.562,0.698583,0.0,0.0
1488,371.75,59.3579,60.1958,149.371,115.797,107.364,,0.0436059,,871.632,0.677323,0.0,0.0
1504,375.75,58.5304,59.7286,147.823,115.923,107.484,,,,871.592,0.67701,0.0,0.0
1520,379.75,58.2317,59.1948,148.891,116.074,106.54,,,,871.542,0.767714,0.0,0.0