Folder: fsri_materials_database/01_Data/Nylon/Cone (part 4)

File: Nylon_Cone_HF75Scan_220225_R1.csv
Names,Time,Stack TC,Smoke TC,Exh Press,Smoke Comp,Smoke Meas,CO Meter,CO2 Meter,O2 Meter,Sample Mass,Ext Coeff,Start Test,Flame Verif
Chan Gain,,500,500,1,1,1,1,1,1,1,1,1.0,1.0
Offset,,0,0,0.134422,0,0,0,0,0,0,0,0.0,0.0
Gain,,1,1,25.011,15.3125,15.3273,1,1,1,1.00096,1.02035,1.0,1.0
Units,sec,C,C,Pa,%,%,%,%,%,g,/m,,
Baseline,,41.6199,43.7664,153.072,115.901,110.298,0.000534508,0.0638545,21.0243,-868.69,0.44354,,
12,2.75,39.3766,41.4372,153.828,115.825,109.96,0.000932558,0.0701785,21.0177,39.668,0.465142,0.0,0.0
24,5.75,39.7163,41.3451,155.655,115.823,110.845,0.000763863,0.0684014,21.0183,121.146,0.393214,0.0,0.0
36,8.75,39.5635,41.4333,150.839,115.834,110.336,0.000723087,0.0677555,21.0172,137.322,0.43523,0.0,0.0
48,11.75,39.85,41.724,153.887,115.825,109.196,0.000578026,0.067776,21.0167,97.9038,0.527495,0.0,0.0
60,14.75,39.7252,41.745,157.311,115.84,108.808,0.000552215,0.0675934,21.0172,81.7383,0.560531,0.0,0.0
72,17.75,39.9904,41.33,152.611,115.88,108.415,0.000510137,0.0672666,21.0173,56.1738,0.596015,0.0,0.0
84,20.75,39.6215,41.5356,151.696,115.889,108.815,0.00046338,0.0671088,21.016,38.597,0.563707,0.0,0.0
96,23.75,40.1051,41.8565,153.33,115.934,107.632,0.000677618,0.0677044,21.0148,39.1775,0.66508,0.0,0.0
108,26.75,40.0009,41.7302,151.542,115.932,108.092,0.000975258,0.070696,21.0062,39.3077,0.626742,0.0,0.0
120,29.75,40.8289,42.1679,147.473,115.961,109.628,0.00144695,0.082403,20.9785,39.2576,0.502681,0.0,1.0
132,32.75,41.4051,43.2635,140.15,115.999,108.212,0.0018068,0.135486,20.8601,39.0274,0.621953,0.0,1.0
144,35.75,42.21,44.2386,134.269,116.028,106.458,0.00223506,0.230586,20.7252,38.8572,0.770422,0.0,1.0
156,38.75,44.4609,47.1408,126.86,116.059,105.237,0.00315125,0.349201,20.5404,39.0474,0.876147,0.0,0.0
168,41.75,47.5017,50.8181,124.368,116.103,105.238,0.00404809,0.496253,20.315,40.6089,0.879414,0.0,0.0
180,44.75,51.2908,55.2169,118.603,116.116,103.533,0.00508579,0.633307,20.1158,37.606,1.02658,0.0,0.0
192,47.75,56.4382,61.4568,110.74,116.133,103.129,0.00598587,0.762082,19.9468,37.3258,1.06292,0.0,0.0
204,50.75,60.1832,66.7113,112.075,116.164,103.206,0.0069271,0.873208,19.7983,36.8253,1.05864,0.0,0.0
216,53.75,65.4689,73.0408,110.999,116.186,103.059,0.00789366,0.981985,19.6298,36.2948,1.07312,0.0,0.0
228,56.75,71.1106,79.7586,107.926,116.222,100.953,0.00905913,1.10869,19.4789,35.6742,1.26071,0.0,0.0
240,59.75,76.5761,86.5382,98.3276,116.243,96.5796,0.0110062,1.25976,19.2311,34.9735,1.65862,0.0,0.0
252,62.75,83.4559,95.5041,99.9709,116.258,100.711,0.0121402,1.45729,18.9859,34.1627,1.28487,0.0,0.0
264,65.75,89.5206,103.299,99.4809,116.264,99.9096,0.0131463,1.54978,18.891,33.4821,1.35691,0.0,0.0
276,68.75,95.6513,110.761,95.4004,116.288,99.7468,0.0142193,1.63816,18.7571,32.8215,1.3733,0.0,0.0
288,71.75,101.017,118.14,96.1423,116.307,99.1831,0.0143215,1.72133,18.6641,32.0507,1.42553,0.0,0.0
300,74.75,106.891,125.627,99.5481,116.322,99.8923,0.0149448,1.78554,18.5879,31.2399,1.36292,0.0,0.0
312,77.75,112.305,132.361,90.0117,116.339,97.4815,0.017198,1.93811,18.3007,30.3491,1.58283,0.0,0.0
324,80.75,119.11,141.54,82.7064,116.346,93.6758,0.0201659,2.21014,17.8959,29.4682,1.9398,0.0,0.0
336,83.75,126.649,151.142,87.109,116.374,90.6462,0.0235948,2.49058,17.501,28.4272,2.23625,0.0,0.0
348,86.75,134.412,161.773,75.8094,116.364,88.7649,0.0268304,2.8228,17.0218,27.3162,2.42314,0.0,0.0
360,89.75,142.413,173.313,79.2717,116.371,86.5318,0.0303942,3.15828,16.4869,26.2452,2.65176,0.0,0.0
372,92.75,152.209,187.035,85.2015,116.364,86.2652,0.0346478,3.49079,16.0358,24.9739,2.6788,0.0,0.0
384,95.75,160.558,199.475,78.6939,116.365,84.0616,0.0379337,3.85473,15.5563,23.4525,2.91055,0.0,0.0
396,98.75,170.551,213.543,65.0274,116.372,84.1248,0.0403212,4.16194,15.1725,22.2713,2.90437,0.0,0.0
408,101.75,178.593,225.955,72.8334,116.375,83.5691,0.0430662,4.44494,14.7695,20.89,2.96391,0.0,0.0
420,104.75,187.235,238.88,57.6969,116.365,83.237,0.046516,4.77998,14.3168,19.4086,2.99879,0.0,0.0
432,107.75,196.838,252.77,64.4466,116.368,84.5037,0.0498478,5.10909,13.7571,18.0473,2.86379,0.0,0.0
444,110.75,206.928,267.422,60.5058,116.358,79.7494,0.0516613,5.36356,13.4185,16.5358,3.38131,0.0,0.0
456,113.75,214.376,279.786,66.7272,116.36,82.0391,0.052771,5.50035,13.1607,15.0845,3.12814,0.0,0.0
468,116.75,222.791,291.704,64.0016,116.355,83.8928,0.0534705,5.59502,13.0131,13.6231,2.92776,0.0,0.0
480,119.75,229.481,302.303,72.7014,116.35,71.3795,0.0549321,5.54501,13.0863,12.1316,4.37312,0.0,0.0
492,122.75,234.612,309.886,72.0648,116.35,76.68,0.0573529,5.42719,13.2772,10.7903,3.73196,0.0,0.0
504,125.75,239.295,316.048,74.9553,116.338,73.9624,0.0593904,5.26007,13.4908,9.39901,4.05403,0.0,0.0
516,128.75,243.148,321.14,77.3986,116.346,75.3348,0.0576965,4.98031,13.8982,8.29795,3.89012,0.0,0.0
528,131.75,245.217,323.163,81.8531,116.343,76.5865,0.0531219,4.37881,14.8141,7.22693,3.74234,0.0,0.0
540,134.75,243.783,319.898,81.763,116.351,74.8165,0.046695,3.71335,16.0024,6.3661,3.95231,0.0,0.0
552,137.75,240.026,312.884,94.6967,116.344,73.1892,0.0416664,3.00413,17.0145,5.62539,4.14859,0.0,0.0
564,140.75,235.336,304.917,102.588,116.37,71.8355,0.0380629,2.50865,17.6225,4.92472,4.31763,0.0,0.0
576,143.75,229.062,295.381,108.837,116.354,74.9695,0.0318282,2.05667,18.3866,4.40422,3.93424,0.0,0.0
588,146.75,222.358,284.539,118.583,116.365,81.3426,0.0243686,1.59119,19.0219,4.00384,3.20481,0.0,0.0
600,149.75,213.628,271.719,126.556,116.365,95.2372,0.0169858,1.15129,19.6434,3.85369,1.79332,0.0,0.0
612,152.75,205.033,259.463,136.595,116.364,107.644,0.0115201,0.784722,20.2046,3.82366,0.697162,0.0,0.0
624,155.75,195.365,245.907,136.514,116.368,108.995,0.008067,0.493033,20.5836,3.81365,0.585897,0.0,0.0
636,158.75,185.282,232.158,138.267,116.37,109.015,0.00619747,0.329483,20.7738,3.81365,0.584315,0.0,0.0
648,161.75,177.582,220.588,138.999,116.371,108.739,0.00488141,0.239741,20.8564,3.7536,0.607112,0.0,0.0
660,164.75,169.447,209.381,145.409,116.375,108.922,0.00396641,0.191725,20.9011,3.80365,0.592395,0.0,0.0
672,167.75,162.141,200.027,138.999,116.368,109.017,0.00362015,0.162096,20.9241,3.73358,0.584092,0.0,0.0
684,170.75,155.945,191.074,141.318,116.376,108.672,0.00326346,0.141984,20.9401,3.73358,0.613089,0.0,0.0
696,173.75,150.239,182.22,142.694,116.364,108.51,0.00280657,0.128631,20.9479,3.72357,0.625457,0.0,0.0
708,176.75,144.32,174.599,142.549,116.354,108.72,0.00259042,0.116852,20.9519,3.71356,0.607398,0.0,0.0
720,179.75,138.996,167.332,138.344,116.331,108.781,0.0021963,0.108015,20.9591,3.70355,0.60059,0.0,0.0
732,182.75,134.735,160.259,138.715,116.334,108.276,0.00185185,0.100956,20.9665,3.66351,0.64247,0.0,0.0
744,185.75,129.855,154.174,146.214,116.32,108.776,0.00161669,0.0948789,20.9729,3.66351,0.600189,0.0,0.0
756,188.75,125.872,148.687,145.48,116.3,108.382,0.00159861,0.0904891,20.9767,3.68353,0.631109,0.0,0.0
768,191.75,122.188,143.047,141.239,116.275,108.35,0.00152109,0.0869636,20.9812,3.71356,0.631829,0.0,0.0
780,194.75,118.479,138.13,145.828,116.254,107.895,0.00133198,0.0843733,20.9842,3.68353,0.667925,0.0,0.0
792,197.75,114.87,133.071,144.513,116.241,108.535,0.00121637,0.0822211,20.9838,3.69354,0.613917,0.0,0.0
804,200.75,111.863,128.828,139.825,116.202,108.472,0.00117539,0.0805357,20.9842,3.69354,0.616175,0.0,0.0
816,203.75,108.886,124.21,141.578,116.186,108.098,0.00103569,0.0791505,20.9861,3.68353,0.645807,0.0,0.0
828,206.75,106.565,121.021,145.87,116.16,108.118,0.000954618,0.0777314,20.9867,3.69354,0.642125,0.0,0.0
840,209.75,103.828,117.523,142.741,116.139,108.271,0.00107608,0.076717,20.9883,3.67352,0.62789,0.0,0.0
852,212.75,101.254,114.174,138.477,116.119,108.294,0.000974913,0.0757929,20.9893,3.64349,0.624444,0.0,0.0
864,215.75,98.9402,110.984,145.305,116.092,107.619,0.000737543,0.0749743,20.9903,3.64349,0.678279,0.0,0.0
876,218.75,96.8222,108.193,141.421,116.07,108.316,0.000612168,0.0741673,20.9906,3.67352,0.618809,0.0,0.0
888,221.75,94.5941,105.356,146.364,116.052,108.176,0.000595178,0.073707,20.9899,3.64349,0.629043,0.0,0.0
900,224.75,93.2676,102.796,139.353,116.023,107.35,0.000579647,0.0730027,20.9897,3.63348,0.695453,0.0,0.0
912,227.75,91.3546,100.642,148.085,116.009,107.733,0.000662473,0.0724881,20.9896,3.67352,0.662449,0.0,0.0
924,230.75,89.9418,98.0793,144.097,116,107.814,0.000669421,0.072087,20.9896,3.70355,0.655043,0.0,0.0
936,233.75,87.7554,95.7689,143.124,115.984,107.983,0.000392162,0.0716038,20.9896,3.67352,0.639775,0.0,0.0
948,236.75,85.9731,92.9261,144.85,115.975,108.093,0.000384581,0.0709951,20.992,3.69354,0.629948,0.0,0.0
960,239.75,85.0077,91.4537,143.363,115.957,107.616,0.000595003,0.0706933,20.9936,3.6535,0.668205,0.0,0.0
972,242.75,83.6218,89.9871,140.096,115.957,108.147,0.000711497,0.0702903,20.994,3.71356,0.624123,0.0,0.0
984,245.75,82.9463,88.6151,147.295,115.954,107.85,0.000755619,0.0698728,20.9948,3.68353,0.648484,0.0,0.0
996,248.75,81.3617,86.6239,144.715,115.952,108.265,0.000767472,0.0699523,20.9934,3.6535,0.613974,0.0,0.0
1008,251.75,80.775,84.7735,142.965,115.941,107.779,0.000817141,0.0701562,20.9916,3.6535,0.653376,0.0,0.0
1020,254.75,79.2649,83.6616,139.861,115.92,107.965,0.000898015,0.0709141,20.99,3.6535,0.636309,0.0,0.0
1032,257.75,78.3449,82.7291,144.631,115.923,108.202,0.000766901,0.0713818,20.9886,3.63348,0.616959,0.0,0.0
1044,260.75,77.2597,80.9579,145.545,115.9,107.795,0.000625681,0.0714797,20.988,3.64349,0.648917,0.0,0.0
1056,263.75,76.3118,80.0725,143.615,115.889,107.729,0.000728606,0.0717155,20.9864,3.6535,0.653489,0.0,0.0
1068,266.75,75.8007,78.7486,145.076,115.863,107.595,,0.0717035,,3.6535,0.662629,0.0,0.0
1080,269.75,74.8017,77.5969,146.351,115.838,108.089,,,,3.63348,0.619684,0.0,0.0
1092,272.75,74.3175,76.9732,144.574,115.814,107.917,,,,3.63348,0.63211,0.0,0.0
1104,275.75,73.0895,75.2319,148.953,115.787,108.045,,,,3.62347,0.619426,0.0,0.0
1109,277,73.3415,75.1964,141.697,115.779,108.269,,,,3.63348,0.600308,0.0,0.0

File: Nylon_Cone_HF75Scan_220225_R2.csv
Names,Time,Stack TC,Smoke TC,Exh Press,Smoke Comp,Smoke Meas,CO Meter,CO2 Meter,O2 Meter,Sample Mass,Ext Coeff,Start Test,Flame Verif
Chan Gain,,500,500,1,1,1,1,1,1,1,1,1.0,1.0
Offset,,0,0,0.134422,0,0,0,0,0,0,0,0.0,0.0
Gain,,1,1,25.011,15.3125,15.3273,1,1,1,1.00096,1.02035,1.0,1.0
Units,sec,C,C,Pa,%,%,%,%,%,g,/m,,
Baseline,,49.5013,52.1416,148.774,115.107,110.48,0.000813634,0.0683524,20.9959,-869.283,0.367314,,
13,3,48.3155,50.0316,153.4,115.416,111.111,0.000861757,0.0745883,20.9874,39.2576,0.340237,0.0,0.0
26,6.25,47.7607,50.446,147.617,115.422,111.123,0.00105021,0.0746528,20.9863,39.2877,0.339729,0.0,0.0
39,9.5,47.6773,50.6791,150.916,115.443,111.813,0.000876972,0.0736283,20.9871,39.1876,0.285998,0.0,0.0
52,12.75,47.6661,50.1459,149.063,115.471,112.207,0.000698929,0.0723493,20.9888,39.1475,0.256628,0.0,0.0
65,16,48.4109,50.7194,146.346,115.491,110.106,0.000896196,0.0713,20.9898,39.1375,0.427376,0.0,0.0
78,19.25,48.3037,50.8563,147.496,115.522,110.568,0.000949418,0.0702575,20.9927,39.0774,0.392278,0.0,0.0
91,22.5,48.7816,51.2715,148.466,115.535,109.838,0.000941315,0.0695369,20.9934,39.0274,0.452668,0.0,0.0
104,25.75,48.364,51.2816,150.046,115.55,108.261,0.00087127,0.0694019,20.9921,39.0374,0.583172,0.0,0.0
117,29,48.9534,51.152,148.487,115.558,107.755,0.00130553,0.0710194,20.984,38.9473,0.625764,0.0,0.0
130,32.25,49.2076,52.1059,139.119,115.559,109.012,0.00188092,0.0980929,20.935,38.8973,0.522006,0.0,1.0
143,35.5,50.2717,52.6973,135.276,115.558,108.207,0.00237018,0.186169,20.7519,38.647,0.588235,0.0,1.0
156,38.75,52.4313,55.4928,129.246,115.563,105.726,0.00297956,0.313413,20.5637,38.2867,0.796241,0.0,0.0
169,42,55.4851,58.8389,123.712,115.558,104.611,0.00397907,0.461073,20.3171,37.9664,0.890819,0.0,0.0
182,45.25,59.3203,63.9892,121.951,115.552,104.654,0.00489507,0.617072,20.0892,37.546,0.886671,0.0,0.0
195,48.5,64.1629,69.757,113.195,115.543,103.47,0.00583862,0.759917,19.8229,36.9754,0.987735,0.0,0.0
208,51.75,68.6548,75.285,109.787,115.519,101.466,0.00684356,0.90999,19.5839,36.4049,1.161,0.0,0.0
221,55,73.9433,82.4725,108.634,115.494,101.125,0.00783788,1.05678,19.3593,35.7743,1.18917,0.0,0.0
234,58.25,79.791,89.9509,101.827,115.483,100.141,0.00928722,1.20987,19.1182,35.0336,1.2758,0.0,0.0
247,61.5,85.9795,97.469,96.5133,115.458,97.9562,0.0107362,1.39364,18.8452,34.3029,1.47132,0.0,0.0
260,64.75,93.0621,106.428,99.9656,115.442,98.967,0.0112201,1.50468,18.7292,33.4821,1.37821,0.0,0.0
273,68,98.3824,112.798,102.058,115.418,99.9044,0.0113712,1.52695,18.719,32.8615,1.29194,0.0,0.0
286,71.25,103.685,119.372,105.454,115.383,97.9029,0.011577,1.5114,18.7473,32.1208,1.47036,0.0,0.0
299,74.5,106.994,124.669,91.6077,115.358,96.3472,0.0121951,1.55158,18.6467,31.34,1.61181,0.0,0.0
312,77.75,112.398,131.314,92.1657,115.344,97.0815,0.0132608,1.63737,18.5224,30.5393,1.54276,0.0,0.0
325,81,116.994,137.643,88.7927,115.324,97.1896,0.0151681,1.74895,18.3365,29.6885,1.53125,0.0,0.0
338,84.25,122.634,144.12,105.479,115.301,93.7044,0.0175506,1.94008,18.0257,28.7976,1.85633,0.0,0.0
351,87.5,128.988,152.968,84.6879,115.299,93.115,0.0195558,2.15983,17.6744,27.8467,1.91262,0.0,0.0
364,90.75,135.483,161.512,84.5993,115.303,91.6832,0.0221625,2.43298,17.2326,26.7757,2.05164,0.0,0.0
377,94,142.595,171.776,82.7041,115.292,89.4866,0.024827,2.72163,16.8315,25.7947,2.26789,0.0,0.0
390,97.25,150.658,182.318,67.144,115.266,88.3486,0.0277427,3.00074,16.4326,24.4735,2.38038,0.0,0.0
403,100.5,158.54,193.801,72.3381,115.277,85.9668,0.03171,3.28822,16.0246,23.3624,2.62582,0.0,0.0
416,103.75,167.341,205.51,74.8447,115.248,85.4944,0.035702,3.63791,15.4459,22.0111,2.6729,0.0,0.0
429,107,176.835,219.733,66.3563,115.261,88.9932,0.0386665,4.06385,14.902,20.5897,2.31496,0.0,0.0
442,110.25,186.409,234.347,80.9997,115.276,82.1682,0.0414943,4.46707,14.337,19.0683,3.03029,0.0,0.0
455,113.5,197.028,249.535,65.0824,115.311,86.0926,0.0440977,4.93249,13.6612,17.6169,2.61542,0.0,0.0
468,116.75,206.792,265.03,81.2913,115.345,82.9718,0.0463423,5.25487,13.2382,15.9753,2.94851,0.0,0.0
481,120,215.727,278.639,53.8294,115.384,83.2529,0.0483866,5.38823,13.0541,14.3838,2.92124,0.0,0.0
494,123.25,223.169,289.997,69.4956,115.421,79.5254,0.051074,5.50502,12.9238,12.8423,3.33413,0.0,0.0
507,126.5,230.871,301.137,69.546,115.449,80.6326,0.0533595,5.49383,12.9844,11.451,3.21252,0.0,0.0
520,129.75,236.606,309.609,69.043,115.514,76.4962,0.0527066,5.1655,13.449,9.98957,3.68893,0.0,0.0
533,133,239.284,312.287,84.5093,115.558,78.1717,0.0490948,4.60381,14.441,8.84848,3.49841,0.0,0.0
546,136.25,239.502,311.346,91.2154,115.577,78.3986,0.0439379,3.89168,15.4645,7.63732,3.47392,0.0,0.0
559,139.5,238.17,307.338,79.4594,115.561,77.3611,0.0406716,3.4123,16.0734,6.70643,3.59193,0.0,0.0
572,142.75,236.34,303.28,89.801,115.511,75.6323,0.0384568,3.0497,16.5265,5.68545,3.79038,0.0,0.0
585,146,232.415,297.367,95.1745,115.422,78.1464,0.0337228,2.64193,17.2388,4.87467,3.4908,0.0,0.0
598,149.25,228.024,289.776,106.192,115.346,81.0704,0.0282782,2.17397,17.9225,4.2741,3.15612,0.0,0.0
611,152.5,221.588,280.147,107.646,115.237,80.7018,0.0227196,1.69005,18.6172,3.80365,3.18841,0.0,0.0
624,155.75,213.953,268.729,121.465,115.136,92.1196,0.0168332,1.2482,19.2902,3.53339,1.99618,0.0,0.0
637,159,205.582,256.344,129.608,115.074,100.698,0.0114063,0.856101,19.9302,3.39325,1.19444,0.0,0.0
650,162.25,196.629,243.498,132.999,115.162,103.015,0.00797634,0.582622,20.3237,3.33319,0.9976,0.0,0.0
663,165.5,188.477,231.778,131.519,115.587,104.73,0.00588621,0.422,20.5537,3.19306,0.882903,0.0,0.0
676,168.75,180.267,221.041,133.579,115.875,107.68,0.00450284,0.312435,20.7139,3.19306,0.656452,0.0,0.0
689,172,172.715,210.101,134.392,116.035,108.494,0.00375984,0.239159,20.8061,3.15302,0.601467,0.0,0.0
702,175.25,165.651,200.833,134.522,116.009,108.351,0.00336581,0.189503,20.8722,3.17304,0.6113,0.0,0.0
715,178.5,159.427,191.355,135.222,115.814,108.399,0.00301492,0.157011,20.9035,3.15302,0.592202,0.0,0.0
728,181.75,153.287,183.326,133.779,115.431,108.101,0.00265706,0.134364,20.9309,3.09296,0.587208,0.0,0.0
741,185,147.559,174.92,140.272,115.57,108.134,0.00250257,0.119745,20.9466,3.11298,0.595217,0.0,0.0
754,188.25,141.913,167.89,134.531,115.809,108.534,0.00252677,0.110285,20.9583,3.07294,0.580683,0.0,0.0
767,191.5,136.444,160.945,140.492,116.059,108.652,0.00225664,0.102996,20.9667,3.09296,0.590233,0.0,0.0
780,194.75,132.905,154.494,136.497,116.262,109.08,0.00206608,0.0969649,20.9741,3.06294,0.57071,0.0,0.0
793,198,128.806,148.952,141.501,116.362,108.705,0.00203142,0.0916866,20.9803,3.09296,0.609202,0.0,0.0
806,201.25,124.912,144.128,136.255,116.336,109.232,0.00185606,0.0878055,20.981,3.08295,0.563961,0.0,0.0
819,204.5,121.499,139.311,137.076,116.119,109.157,0.00171758,0.084452,20.9841,3.05293,0.553326,0.0,0.0
832,207.75,118.075,135.184,139.367,115.771,108.657,0.00171284,0.0818732,20.9868,3.07294,0.567618,0.0,0.0
845,211,115.775,130.621,135.359,115.303,108.214,0.00147285,0.0797552,20.9883,3.05293,0.567946,0.0,0.0
858,214.25,112.453,126.323,137.223,114.838,107.465,0.00132961,0.0781423,20.9912,3.03291,0.593937,0.0,0.0
871,217.5,109.922,123.436,139.512,114.442,107.369,0.00139988,0.0765774,20.9935,3.0229,0.570989,0.0,0.0
884,220.75,107.055,119.731,139.889,114.177,107.082,0.00150644,0.0751053,20.995,3.03291,0.574177,0.0,0.0
897,224,104.802,116.129,141.173,114.089,107.108,0.00140137,0.0739643,20.9944,3.01289,0.565098,0.0,0.0
910,227.25,102.757,113.559,141.72,114.159,106.95,0.00116067,0.0731664,20.9954,3.06294,0.583854,0.0,0.0
923,230.5,100.853,110.759,138.464,114.392,106.794,0.00111976,0.0721776,20.9964,3.05293,0.615126,0.0,0.0
936,233.75,99.2113,108.824,140.466,114.711,107.116,0.0010619,0.0710247,20.998,3.08295,0.613133,0.0,0.0
949,237,97.1596,106.076,139.257,115.06,107.41,0.000822076,0.0705044,20.9999,3.03291,0.61578,0.0,0.0
962,240.25,95.6268,103.586,139.905,115.347,108.186,0.000752011,0.0699884,21.0003,3.05293,0.573638,0.0,0.0
975,243.5,94.2762,101.29,143.638,115.551,107.939,0.000627739,0.0692335,21.0005,3.00288,0.610003,0.0,0.0
988,246.75,92.924,99.8391,140.65,115.585,107.968,0.000657462,0.0686445,20.9993,3.06294,0.610203,0.0,0.0
1001,250,91.0239,97.6,140.472,115.488,108.187,0.000635692,0.0682093,20.9985,3.0229,0.584544,0.0,0.0
1014,253.25,90.786,96.2717,141.704,115.284,107.872,0.000766805,0.0678475,20.9985,3.05293,0.594787,0.0,0.0
1027,256.5,89.1924,94.4905,141.608,115.111,107.52,0.00078233,0.0674055,21,3.03291,0.610584,0.0,0.0
1040,259.75,87.864,93.1036,143.184,114.987,107.148,0.000853883,0.0670704,21.0004,3.03291,0.632002,0.0,0.0
1053,263,87.0724,91.4908,136.497,115.584,108.286,0.000896404,0.0666917,21.0013,3.05293,0.583804,0.0,0.0
1066,266.25,86.3096,90.3122,141.082,115.936,108.439,0.000722623,0.0662016,21.0025,3.01289,0.5983,0.0,0.0
1079,269.5,85.2266,89.4778,140.041,115.993,108.396,0.000650722,0.0659046,21.0044,3.0229,0.606329,0.0,0.0
1092,272.75,83.8036,87.9809,139.721,115.701,108.046,0.000717354,0.0655537,21.0081,3.03291,0.612701,0.0,0.0
1105,276,83.0352,87.0531,141.905,115.461,107.678,0.000741723,0.0652765,21.0096,3.0229,0.62457,0.0,0.0
1118,279.25,82.5176,85.7432,140.418,115.727,108.128,0.000460602,0.0650971,21.0104,2.99287,0.607911,0.0,0.0
1131,282.5,81.5236,84.5781,141.518,116.024,108.615,0.000164962,0.0649393,21.0106,3.01289,0.590611,0.0,0.0
1144,285.75,81.2662,83.9359,141.916,116.267,108.811,0.000107368,0.0650978,21.0103,3.01289,0.593165,0.0,0.0
1157,289,80.3891,82.4595,138.306,116.343,109.244,0.000129252,0.0648953,21.0087,2.97285,0.56358,0.0,0.0
1170,292.25,80.1586,82.3009,138.973,116.229,108.252,0.000430518,0.0648275,21.0077,2.98286,0.636383,0.0,0.0
1183,295.5,79.0536,82.2081,144.072,115.92,108.579,0.000503138,0.0645753,21.0077,2.97285,0.585535,0.0,0.0
1196,298.75,78.6521,80.3304,139.891,115.498,108.141,,0.0645195,,2.97285,0.589135,0.0,0.0
1209,302,78.6173,80.1957,142.106,115.026,107.634,,,,3.00288,0.594475,0.0,0.0
1222,305.25,77.4855,79.5301,141.992,114.539,106.807,,,,3.01289,0.625577,0.0,0.0
1231,307.5,77.4133,79.0838,142.042,114.284,107.168,,,,2.99287,0.575447,0.0,0.0