Folder: fsri_materials_database/01_Data/Nylon/Cone (part 3)

File: Nylon_Cone_HF50Scan_220225_R2.csv
Names,Time,Stack TC,Smoke TC,Exh Press,Smoke Comp,Smoke Meas,CO Meter,CO2 Meter,O2 Meter,Sample Mass,Ext Coeff,Start Test,Flame Verif
Chan Gain,,500,500,1,1,1,1,1,1,1,1,1.0,1.0
Offset,,0,0,0.136092,0,0,0,0,0,0,0,0.0,0.0
Gain,,1,1,25.011,15.4219,15.1528,1,1,1,1.00089,1.02113,1.0,1.0
Units,sec,C,C,Pa,%,%,%,%,%,g,/m,,
Baseline,,40.1408,41.2749,153.58,116.672,109.604,-0.0098152,0.0410979,21.0065,-0.13929,0.559806,,
17,4,33.5609,34.1973,150.943,114.59,106.833,-0.00963836,0.0420208,21.0055,908.024,0.627852,0.0,0.0
34,8.25,33.9083,34.7931,153.265,114.556,107.275,-0.0098862,0.0415482,21.0059,908.114,0.588138,0.0,0.0
51,12.5,33.7584,34.36,152.561,114.54,107.499,-0.0100012,0.040845,21.0055,908.014,0.568294,0.0,0.0
68,16.75,34.1157,34.9774,155.934,114.569,107.732,-0.0100195,0.0407853,21.008,907.994,0.551138,0.0,0.0
85,21,35.0771,35.5198,158.243,114.597,107.407,-0.00986134,0.0409766,21.0098,907.984,0.580416,0.0,0.0
102,25.25,35.3465,36.0463,154.704,114.658,107.249,-0.00994818,0.040988,21.0101,908.054,0.598397,0.0,0.0
119,29.5,35.3652,36.2008,153.303,114.73,107.84,-0.0100559,0.0407361,21.0101,907.974,0.554721,0.0,0.0
136,33.75,35.3946,36.3154,153.503,114.819,108.073,-0.0100275,0.0404122,21.0097,907.904,0.542328,0.0,0.0
153,38,36.1328,36.6065,152.746,114.876,107.577,-0.00997386,0.040608,21.0087,907.834,0.587987,0.0,0.0
170,42.25,36.3208,36.9766,151.404,114.966,107.55,-0.0100025,0.0407286,21.0062,907.934,0.59734,0.0,0.0
187,46.5,36.595,37.5776,156.699,115.048,107.404,-0.00989513,0.0409677,21.0051,907.834,0.615819,0.0,0.0
204,50.75,36.514,37.3862,154.254,115.132,107.4,-0.00975682,0.0412522,21.005,907.634,0.622688,0.0,0.0
221,55,36.1692,37.349,154.776,115.162,106.868,-0.00974079,0.041496,21.0054,907.694,0.669491,0.0,0.0
238,59.25,36.1504,37.7526,153.383,115.188,105.339,-0.00978792,0.0420618,21.005,907.654,0.800645,0.0,0.0
255,63.5,36.7181,37.59,153.061,115.244,106.446,-0.0095101,0.0423352,21.0057,907.614,0.711315,0.0,0.0
272,67.75,37.1066,38.1886,148.605,115.308,107.393,-0.00892204,0.0491493,20.9954,907.534,0.636948,0.0,0.0
289,72,38.0002,39.1545,145.262,115.349,106.666,-0.00892265,0.111544,20.8875,907.504,0.700966,0.0,1.0
306,76.25,38.7234,40.8498,141.717,115.374,106.872,-0.00842756,0.219155,20.7296,907.193,0.685674,0.0,0.0
323,80.5,42.0338,44.2999,131.975,115.369,105.038,-0.00794331,0.345954,20.5351,906.813,0.840281,0.0,0.0
340,84.75,45.8711,48.5939,134.243,115.382,105.555,-0.00745674,0.453307,20.3947,906.393,0.797329,0.0,0.0
357,89,49.6111,52.9892,127.348,115.373,104.603,-0.00645366,0.573033,20.2082,905.892,0.877796,0.0,0.0
374,93.25,54.5072,59.1488,121.617,115.36,104.419,-0.00561935,0.721638,19.9672,905.392,0.892543,0.0,0.0
391,97.5,59.8685,65.8039,117.259,115.373,103.203,-0.00493397,0.85135,19.7737,904.671,0.998471,0.0,0.0
408,101.75,65.7752,72.8043,118.884,115.38,101.391,-0.00416525,0.945204,19.6203,903.901,1.1577,0.0,0.0
425,106,71.7567,79.8695,110.462,115.36,100.865,-0.00310309,1.02138,19.5077,903.34,1.20274,0.0,0.0
442,110.25,76.8917,86.5412,115.105,115.39,100.925,-0.00256839,1.05331,19.4583,902.599,1.19974,0.0,0.0
459,114.5,82.0505,93.0186,112.502,115.445,99.6143,-0.00211198,1.11011,19.3702,901.839,1.32105,0.0,0.0
476,118.75,86.3479,98.4553,108.84,115.461,97.976,-0.00175724,1.14114,19.3214,901.108,1.47084,0.0,0.0
493,123,91.6269,104.432,110.537,115.553,98.9984,-0.00182844,1.16613,19.284,900.387,1.38504,0.0,0.0
510,127.25,95.7113,109.531,110.994,115.612,97.3272,-0.00168569,1.17422,19.2679,899.467,1.5421,0.0,0.0
527,131.5,99.1357,113.505,115.482,115.7,97.4816,-0.00104824,1.19973,19.2348,898.766,1.53472,0.0,0.0
544,135.75,102.491,117.776,107.581,115.728,97.9195,-0.000455328,1.23864,19.1717,898.035,1.49672,0.0,0.0
561,140,105.869,122.088,108.369,115.795,96.0541,-0.000484737,1.24958,19.1473,897.335,1.67421,0.0,0.0
578,144.25,108.853,125.705,110.383,115.873,94.6627,0.000163218,1.27702,19.1048,896.434,1.81096,0.0,0.0
595,148.5,112.124,129.516,105.058,115.876,95.2818,0.00083146,1.35589,18.9769,895.573,1.75278,0.0,0.0
612,152.75,116.197,134.443,103.365,115.896,94.9498,0.00169332,1.45959,18.8387,894.742,1.78561,0.0,0.0
629,157,120.157,139.163,100.065,115.954,91.5427,0.00233088,1.53983,18.7162,893.832,2.11741,0.0,0.0
646,161.25,123.965,144.118,99.5811,115.975,88.5558,0.00389188,1.64278,18.5292,892.811,2.4161,0.0,0.0
663,165.5,129.007,150.994,92.7696,116.005,88.7117,0.00669768,1.86491,18.2262,891.78,2.40271,0.0,0.0
680,169.75,134.534,157.778,94.2634,115.993,88.0481,0.00848421,2.01092,18.0149,890.479,2.46906,0.0,0.0
697,174,139.64,164.518,91.0904,115.957,86.4902,0.0102487,2.14612,17.8195,889.378,2.62617,0.0,0.0
714,178.25,145.348,171.795,87.2015,115.938,86.2603,0.0121427,2.3124,17.5853,888.047,2.64851,0.0,0.0
731,182.5,150.678,179.318,89.9234,115.981,83.268,0.013486,2.44361,17.3866,886.895,2.96806,0.0,0.0
748,186.75,156.803,187.262,90.4134,116.036,83.3549,0.0150786,2.57207,17.2024,885.624,2.96301,0.0,0.0
765,191,162.506,195.018,91.2103,116.07,82.2853,0.0159788,2.64223,17.1023,884.293,3.0813,0.0,0.0
782,195.25,167.386,201.376,95.1839,116.121,80.9951,0.0162393,2.60169,17.1449,883.032,3.22678,0.0,0.0
799,199.5,171.324,206.754,94.0565,116.146,82.277,0.016429,2.54245,17.2065,881.831,3.08809,0.0,0.0
816,203.75,174.03,210.402,91.1866,116.091,82.3921,0.015912,2.41917,17.3974,880.73,3.07132,0.0,0.0
833,208,175.993,212.581,86.5177,116,81.059,0.0151867,2.30135,17.5725,879.529,3.21039,0.0,0.0
850,212.25,177.98,214.498,97.7409,115.957,80.7686,0.0150979,2.19748,17.7062,878.198,3.23919,0.0,0.0
867,216.5,177.458,213.817,97.8317,115.875,79.0594,0.013714,1.97494,18.0678,877.417,3.42444,0.0,0.0
884,220.75,175.64,210.527,104.355,115.8,78.1716,0.0123923,1.73876,18.3692,876.476,3.51982,0.0,0.0
901,225,172.826,206.571,104.356,115.752,79.6823,0.0106053,1.53942,18.6573,875.635,3.34465,0.0,0.0
918,229.25,169.529,201.761,113.886,115.697,78.6899,0.0083989,1.307,19.0206,875.015,3.45268,0.0,0.0
935,233.5,165.02,195.411,116.425,115.649,80.9494,0.00668316,1.12302,19.2948,874.414,3.19539,0.0,0.0
952,237.75,160.347,188.89,118.051,115.626,80.9776,0.00486765,0.975042,19.5481,873.774,3.19045,0.0,0.0
969,242,155.228,181.816,120.483,115.856,84.9568,0.00255839,0.817611,19.775,873.223,2.77858,0.0,0.0
986,246.25,149.664,174.744,127.683,116.105,86.9299,-0.000167337,0.66195,20.0039,872.783,2.59219,0.0,0.0
1003,250.5,143.806,166.738,130.9,116.313,93.9394,-0.00254431,0.504432,20.2764,872.723,1.91357,0.0,0.0
1020,254.75,136.827,158.094,135.182,116.465,97.6476,-0.00409463,0.375399,20.4847,872.483,1.57852,0.0,0.0
1037,259,131.903,151.225,143.691,116.568,99.4645,-0.0052404,0.290451,20.6277,872.363,1.42124,0.0,0.0
1054,263.25,126.163,143.723,139.984,116.599,100.592,-0.00620388,0.230028,20.7231,872.263,1.32267,0.0,0.0
1071,267.5,119.618,135.777,141.088,116.634,102.552,-0.00712984,0.179455,20.8002,872.182,1.15251,0.0,0.0
1088,271.75,115.334,130.231,138.402,116.638,104.277,-0.007837,0.1418,20.8584,872.192,1.00336,0.0,0.0
1105,276,110.403,124.046,144.658,116.621,104.416,-0.00840853,0.113261,20.9005,872.162,0.990189,0.0,0.0
1122,280.25,105.971,118.478,142.548,116.594,105.966,-0.00876322,0.0974132,20.9258,872.072,0.856138,0.0,0.0
1139,284.5,102.017,113.262,148,116.534,106.246,-0.00914801,0.0808121,20.9498,871.992,0.827812,0.0,0.0
1156,288.75,97.1019,106.944,148.141,116.399,105.968,-0.00916047,0.0662666,20.9724,871.892,0.840997,0.0,0.0
1173,293,93.8258,102.798,145.072,116.22,106.639,-0.00922262,0.0570587,20.9849,872.092,0.770614,0.0,0.0
1190,297.25,89.9049,98.1943,150.533,116.032,105.887,-0.00942099,0.0535324,20.9905,871.932,0.819546,0.0,0.0
1207,301.5,87.7047,94.8688,148.199,116.057,106.087,-0.00939882,0.0508452,20.9941,871.922,0.804552,0.0,0.0
1224,305.75,84.6994,91.2662,145.096,116.124,106.193,-0.00953766,0.0491801,20.9955,871.942,0.800809,0.0,0.0
1241,310,82.5762,88.4842,145.914,116.224,106.856,-0.00974826,0.0485514,20.9965,872.012,0.75274,0.0,0.0
1258,314.25,79.8799,85.8354,150.739,116.313,105.948,-0.00970763,0.0478259,20.9982,872.012,0.836087,0.0,0.0
1275,318.5,77.9666,82.449,144.735,116.44,106.438,-0.00973245,0.0473504,20.9994,872.092,0.804522,0.0,0.0
1292,322.75,75.2646,79.7278,146.952,116.53,106.773,-0.00975403,0.0471829,21.0005,872.062,0.783265,0.0,0.0
1309,327,74.3316,78.0228,149.482,116.599,106.422,-0.00984706,0.0467317,21.0003,871.992,0.818038,0.0,0.0
1326,331.25,72.5093,75.9743,145.764,116.656,106.314,-0.00977663,0.0461745,21.0018,871.982,0.83156,0.0,0.0
1343,335.5,71.159,74.2355,146.821,116.726,107.497,-0.00962386,0.0459537,21.0021,872.002,0.737794,0.0,0.0
1360,339.75,69.906,72.2846,143.231,116.802,106.575,-0.00962743,0.0459366,21.0015,872.012,0.820772,0.0,0.0
1377,344,68.8568,71.2459,144.554,116.856,106.707,-0.00980587,0.0457663,21.0011,872.002,0.813852,0.0,0.0
1394,348.25,67.1215,69.5213,148.128,116.909,106.912,-0.00987042,0.045477,21.001,872.002,0.800634,0.0,0.0
1411,352.5,66.1592,68.1926,146.286,116.986,107.167,-0.00982428,0.0448628,21.0003,872.012,0.785224,0.0,0.0
1428,356.75,65.1372,66.5929,147.076,116.985,107.251,-0.00985171,0.044465,21.0002,872.052,0.77812,0.0,0.0
1445,361,64.5446,65.274,151.753,117.002,107.034,-0.00992869,0.0441141,21.0007,872.052,0.797626,0.0,0.0
1462,365.25,63.3752,65.2895,145.601,116.988,107.76,-0.00974385,0.0437644,21.0027,872.072,0.735991,0.0,0.0
1479,369.5,62.6657,63.748,143.672,116.946,106.913,-0.0100588,0.0436305,21.0038,872.062,0.803405,0.0,0.0
1496,373.75,62.2123,62.791,151,116.829,107.035,-0.0101704,0.0434286,21.0042,871.972,0.784242,0.0,0.0
1513,378,61.0552,61.5283,148.014,116.776,106.849,-0.0101358,0.0429822,21.0059,871.912,0.795844,0.0,0.0
1530,382.25,60.8247,61.0363,146.307,116.704,106.907,-0.00991448,0.0426275,21.0055,871.932,0.785325,0.0,0.0
1547,386.5,59.7774,60.0317,145.409,116.569,107.202,-0.00990349,0.0423938,21.0046,872.012,0.750339,0.0,0.0
1564,390.75,59.2845,59.6079,148.354,116.445,107.613,-0.00990257,0.0423606,21.004,871.972,0.706505,0.0,0.0
1581,395,59.1365,59.1351,147.788,116.304,106.351,-0.00982614,0.0422036,21.0037,871.962,0.801371,0.0,0.0
1598,399.25,58.5304,58.2553,148.043,116.159,106.316,,0.0420196,,871.852,0.793122,0.0,0.0
1615,403.5,57.5708,58.2122,147.618,116.019,105.631,,,,871.952,0.840187,0.0,0.0
1631,407.5,56.859,56.9134,145.63,115.887,107.139,,,,872.002,0.703006,0.0,0.0

File: Nylon_Cone_HF50Scan_220225_R3.csv
Names,Time,Stack TC,Smoke TC,Exh Press,Smoke Comp,Smoke Meas,CO Meter,CO2 Meter,O2 Meter,Sample Mass,Ext Coeff,Start Test,Flame Verif
Chan Gain,,500,500,1,1,1,1,1,1,1,1,1.0,1.0
Offset,,0,0,0.134422,0,0,0,0,0,0,0,0.0,0.0
Gain,,1,1,25.011,15.3125,15.3273,1,1,1,1.00096,1.02035,1.0,1.0
Units,sec,C,C,Pa,%,%,%,%,%,g,/m,,
Baseline,,38.2731,40.1194,154.406,115.573,111.953,0.000934202,0.068218,20.9963,-868.381,0.284891,,
16,3.75,35.39,36.81,157.378,115.775,112.337,0.000780914,0.0724438,20.9925,42.2205,0.269811,0.0,0.0
32,7.75,35.8767,36.984,157.075,115.949,113.037,0.000835626,0.0713278,20.9939,42.2405,0.227585,0.0,0.0
48,11.75,36.2106,37.2114,152.854,116.102,113.301,0.000793012,0.0710393,20.9945,42.1904,0.218617,0.0,0.0
64,15.75,36.1847,37.6679,155.263,116.258,112.655,0.00102975,0.071412,20.9946,42.1704,0.281781,0.0,0.0
80,19.75,36.3703,37.4517,157.997,116.368,112.899,0.000909901,0.0709015,20.9945,42.2205,0.270927,0.0,0.0
96,23.75,36.2077,37.6909,151.538,116.452,112.511,0.000692843,0.0703818,20.9962,42.1704,0.308115,0.0,0.0
112,27.75,36.4717,38.1053,153.13,116.507,113.006,0.000689746,0.0701777,20.9949,42.1404,0.273144,0.0,0.0
128,31.75,36.3274,37.6597,157.743,116.529,112.919,0.00071967,0.0700777,20.9944,42.1404,0.281615,0.0,0.0
144,35.75,36.5984,38.4452,151.645,116.528,112.95,0.000821731,0.0702034,20.9943,42.1204,0.279059,0.0,0.0
160,39.75,36.7827,38.4039,152.319,116.476,113.504,0.000970506,0.0700025,20.9943,42.1003,0.231331,0.0,0.0
176,43.75,36.9928,38.4468,154.548,116.413,112.895,0.000841501,0.0697008,20.9963,42.0703,0.2746,0.0,0.0
192,47.75,36.6346,38.4271,154.379,116.348,112.626,0.000951235,0.0699097,20.9959,42.0403,0.290991,0.0,0.0
208,51.75,36.8922,38.037,153.414,116.231,110.986,0.00110473,0.0703328,20.9951,41.9902,0.41332,0.0,0.0
224,55.75,37.3309,38.9391,150.462,116.125,109.4,0.00114076,0.0707691,20.995,41.9002,0.533949,0.0,0.0
240,59.75,37.4557,39.0417,156.063,116.014,110.026,0.00122171,0.0714593,20.994,41.9002,0.47435,0.0,0.0
256,63.75,37.4109,39.5038,155.476,115.9,109.777,0.00131647,0.0721708,20.9929,41.8601,0.485778,0.0,0.0
272,67.75,37.87,39.9144,155.267,115.774,109.395,0.00106732,0.0726948,20.9924,41.8301,0.507278,0.0,0.0
288,71.75,37.9629,40.0042,154.898,115.688,108.764,0.00112649,0.0730156,20.9923,41.77,0.552368,0.0,0.0
304,75.75,37.99,39.9075,151.632,115.603,106.908,0.00115001,0.0732242,20.9915,41.7,0.699878,0.0,0.0
320,79.75,38.4692,40.45,143.804,115.829,110.123,0.0014511,0.102763,20.941,41.6099,0.452189,0.0,1.0
336,83.75,38.5834,40.8388,138.484,116.004,110.163,0.00217475,0.222753,20.7195,41.3797,0.462452,0.0,1.0
352,87.75,41.4499,43.9363,129.322,116.139,109.03,0.00282836,0.40401,20.4853,40.9993,0.565351,0.0,0.0
368,91.75,45.6699,49.0136,123.203,116.223,108.589,0.0036865,0.575586,20.2214,40.4888,0.608112,0.0,0.0
384,95.75,50.7145,55.4503,115.743,116.293,108.182,0.00422355,0.724256,19.9827,39.9783,0.647082,0.0,0.0
400,99.75,56.2506,62.4189,118.096,116.248,106.866,0.00482102,0.855751,19.7694,39.3577,0.753154,0.0,0.0
416,103.75,62.8757,69.8644,121.562,116.181,106.079,0.00590577,0.986707,19.5593,38.7171,0.814189,0.0,0.0
432,107.75,69.3484,78.1928,109.718,116.061,105.963,0.00688676,1.12703,19.3381,37.8763,0.814686,0.0,0.0
448,111.75,75.9933,86.2313,107.579,115.891,103.541,0.00785776,1.25521,19.1696,37.1356,1.00855,0.0,0.0
464,115.75,82.5244,94.5319,109.21,115.667,102.534,0.00918371,1.3615,18.9998,36.2848,1.07873,0.0,0.0
480,119.75,88.4626,101.948,104.331,115.378,101.859,0.0101047,1.44103,18.8769,35.434,1.11547,0.0,0.0
496,123.75,95.263,110.296,101.28,115.308,101.14,0.0105016,1.48609,18.8109,34.5831,1.17342,0.0,0.0
512,127.75,100.652,117.17,105.21,115.362,101.069,0.0107059,1.49515,18.7925,33.8224,1.18385,0.0,0.0
528,131.75,105.654,123.274,97.6643,115.409,99.5906,0.0111353,1.51197,18.7651,32.8915,1.31942,0.0,0.0
544,135.75,110.747,129.221,105.679,115.485,100.421,0.0117485,1.57373,18.6792,32.1008,1.25105,0.0,0.0
560,139.75,114.943,134.574,94.4746,115.538,98.1274,0.012594,1.62416,18.5908,31.1899,1.46192,0.0,0.0
576,143.75,119.992,140.547,95.5027,115.588,97.4394,0.0129199,1.71105,18.4612,30.249,1.52874,0.0,0.0
592,147.75,124.251,146.672,96.5919,115.64,96.9351,0.0133884,1.79311,18.3288,29.3181,1.57919,0.0,0.0
608,151.75,128.957,152.822,97.9192,115.664,97.3575,0.0143921,1.92047,18.1514,28.2471,1.5422,0.0,0.0
624,155.75,133.698,159.089,94.8318,115.693,95.5459,0.0160329,2.03971,17.9672,27.2261,1.71252,0.0,0.0
640,159.75,138.885,166.039,95.018,115.728,94.6057,0.0183588,2.2033,17.7511,26.0149,1.8037,0.0,0.0
656,163.75,145.105,173.031,88.5722,115.733,92.6828,0.0211442,2.38524,17.4757,24.8939,1.9879,0.0,0.0
672,167.75,151.997,181.887,83.4468,115.72,92.2815,0.0243392,2.61646,17.1217,23.7027,2.02573,0.0,0.0
688,171.75,158.195,191.422,80.4303,115.705,90.3674,0.0265641,2.77815,16.8925,22.4415,2.21217,0.0,0.0
704,175.75,165.046,200.322,83.1644,115.672,86.9439,0.0285038,2.94046,16.6215,20.9,2.55531,0.0,0.0
720,179.75,172.002,209.199,84.3711,115.636,87.6484,0.0306806,3.09564,16.4196,19.5287,2.48033,0.0,0.0
736,183.75,177.986,217.987,84.9214,115.576,84.8475,0.0332156,3.23481,16.224,18.1774,2.76636,0.0,0.0
752,187.75,184.094,226.423,87.3364,115.533,84.564,0.035528,3.37802,16.0183,16.686,2.79298,0.0,0.0
768,191.75,190.36,235.067,75.8323,115.488,81.2724,0.0373221,3.40961,15.9687,15.2446,3.14485,0.0,0.0
784,195.75,194.519,241.176,86.203,115.445,83.7099,0.0380329,3.37093,16.0086,13.7932,2.87699,0.0,0.0
800,199.75,199.563,246.892,77.2184,115.401,80.6162,0.0376055,3.2637,16.1628,12.6521,3.21068,0.0,0.0
816,203.75,202.009,250.476,78.5679,115.358,78.9631,0.0371097,3.09394,16.3706,11.3409,3.39274,0.0,0.0
832,207.75,204.028,252.307,89.1324,115.335,77.9907,0.0343294,2.84959,16.7181,10.1297,3.50192,0.0,0.0
848,211.75,204.187,251.5,92.5,115.308,80.9445,0.0302717,2.45469,17.3877,9.03866,3.16704,0.0,0.0
864,215.75,201.591,247.775,105.563,115.299,85.9771,0.0259458,2.02429,17.9877,8.16783,2.62646,0.0,0.0
880,219.75,197.139,241.446,100.404,115.303,83.1187,0.0228685,1.6567,18.5465,7.47717,2.92941,0.0,0.0
896,223.75,191.625,233.437,116.253,115.31,84.9321,0.0191535,1.28335,19.0833,6.86658,2.73681,0.0,0.0
912,227.75,184.204,222.926,129.713,115.316,92.4396,0.0131912,0.881341,19.6665,6.49623,1.97912,0.0,0.0
928,231.75,175.593,210.721,133.664,115.308,99.9035,0.00818136,0.557151,20.257,6.38612,1.28351,0.0,0.0
944,235.75,165.875,198.816,135.872,115.292,102.864,0.00539511,0.385625,20.5206,6.27601,1.02083,0.0,0.0
960,239.75,157.809,187.264,137.393,115.289,104.478,0.0040923,0.286395,20.6776,6.1559,0.88132,0.0,0.0
976,243.75,149.647,176.232,139.928,115.311,104.811,0.00351775,0.224184,20.7832,6.08583,0.854503,0.0,0.0
992,247.75,142.048,166.7,139.296,115.362,107.867,0.00275234,0.177712,20.8538,6.07582,0.601229,0.0,0.0
1008,251.75,135.201,157.201,139.163,115.394,108.46,0.00242404,0.146184,20.8963,6.06581,0.554692,0.0,0.0
1024,255.75,128.607,149.612,145.015,115.429,107.467,0.00194461,0.121726,20.9267,6.01577,0.639698,0.0,0.0
1040,259.75,123.206,141.766,143.702,115.483,107.955,0.00148283,0.101126,20.9614,6.02577,0.603285,0.0,0.0
1056,263.75,117.33,133.706,146.36,115.543,107.62,0.00119513,0.0864035,20.9831,6.03578,0.635808,0.0,0.0
1072,267.75,112.389,127.086,144.44,115.579,108.283,0.00115637,0.0791278,20.9925,6.03578,0.583634,0.0,0.0
1088,271.75,107.884,121.767,146.496,115.643,108.171,0.00111962,0.0756545,20.9973,6.03578,0.597875,0.0,0.0
1104,275.75,103.635,116.239,146.631,115.692,108.357,0.000958087,0.0733879,20.9967,6.01577,0.586248,0.0,0.0
1120,279.75,99.8636,111.192,148.1,115.721,108.578,0.000831506,0.071965,20.9965,6.03578,0.570193,0.0,0.0
1136,283.75,96.3266,106.461,144.536,115.724,108.795,0.00086117,0.070856,20.9985,6.00576,0.552612,0.0,0.0
1152,287.75,92.7783,102.155,147.962,115.71,108.026,0.00090264,0.0698825,20.9999,6.01577,0.614976,0.0,0.0
1168,291.75,90.6182,98.4765,144.084,115.65,108.937,0.000929436,0.0693389,21.0011,6.03578,0.535172,0.0,0.0
1184,295.75,87.2539,95.3318,141.624,115.596,108.347,0.000902279,0.0686567,21.0021,6.01577,0.579681,0.0,0.0
1200,299.75,85.3207,92.0237,149.483,115.532,108.173,0.000827944,0.0682929,21.0041,6.00576,0.589033,0.0,0.0
1216,303.75,82.9071,88.829,144.729,115.454,107.415,0.000423028,0.0677756,21.0058,5.99575,0.645943,0.0,0.0
1232,307.75,80.7388,86.5013,148.644,115.372,108.182,0.000341043,0.0675548,21.0061,6.02577,0.575983,0.0,0.0
1248,311.75,78.8751,84.0671,145.167,115.32,108.017,0.000574599,0.0675215,21.0067,6.03578,0.585518,0.0,0.0
1264,315.75,76.961,81.645,142.683,115.702,108.972,0.000619973,0.0672766,21.0084,6.00576,0.53634,0.0,0.0
1280,319.75,75.7871,79.4303,148.43,116.08,108.52,0.000598795,0.0672034,21.0091,5.98574,0.602801,0.0,0.0
1296,323.75,74.2246,77.4787,145.323,116.269,108.789,0.000446542,0.0668274,21.0093,6.03578,0.595155,0.0,0.0
1312,327.75,72.9613,75.6623,148.371,116.228,109.118,0.000346777,0.0664631,21.0093,5.99575,0.564938,0.0,0.0
1328,331.75,71.0899,74.228,149.016,115.9,108.557,0.000372437,0.0662001,21.0093,6.02577,0.585835,0.0,0.0
1344,335.75,70.6548,72.5304,148.94,115.691,108.989,0.000652968,0.0659123,21.0093,5.98574,0.534164,0.0,0.0
1360,339.75,69.381,71.5706,148.439,115.958,108.883,0.000523054,0.0656102,21.0093,5.98574,0.563466,0.0,0.0
1376,343.75,68.4814,69.7193,143.475,116.254,108.638,0.000444295,0.0657194,21.0089,6.00576,0.606442,0.0,0.0
1392,347.75,67.4099,69.0235,146.204,116.497,108.614,0.000619078,0.0656996,21.0093,6.02577,0.627094,0.0,0.0
1408,351.75,66.3373,67.4054,151.294,116.541,108.795,0.000521683,0.0654002,21.0086,6.01577,0.615641,0.0,0.0
1424,355.75,66.0081,66.5305,144.12,116.403,108.653,0.00066109,0.065185,21.0096,5.99575,0.616715,0.0,0.0
1440,359.75,64.7821,65.921,149.507,116.086,108.924,0.00068736,0.064915,21.0099,6.00576,0.569966,0.0,0.0
1456,363.75,63.9965,64.5691,150.393,115.534,109.01,0.000708921,0.0647986,21.01,5.99575,0.520242,0.0,0.0
1472,367.75,63.4783,63.4004,142.56,114.957,107.595,0.00065033,0.0646182,21.01,6.01577,0.592322,0.0,0.0
1488,371.75,62.885,63.0436,148.367,114.463,107.435,,,,6.01577,0.567137,0.0,0.0
1504,375.75,61.6629,62.6104,148.884,114.209,107.444,,,,5.98574,0.546531,0.0,0.0
1517,379,61.7267,61.6959,146.899,114.217,108.548,,,,6.00576,0.45559,0.0,0.0

File: Nylon_Cone_HF75Scalar_220225_R1.csv
LABORATORY,FSRI
TEST IDENT,Nylon_HF75_1
OPERATOR,Dow
MATERIAL,Nylon
ORIENTATION,Horizontal
HEAT FLUX,75
SURF AREA,0.01
C FACTOR,0.0370678
SPEC HOLDER DIFF,305.1
SPECIMEN MASS,36.4
SCAN TIME,0.25
O2 DELAY TIME,11
CO DELAY TIME,11
CO2 DELAY TIME,8
FLOW FACTOR,1
SCAN COUNT,1109
TIME TO IGN,30
END OF TEST SCAN,629
END OF TEST TIME,157.25
TEST STATUS,1
PRE TEST CMT,Dimensions: 99.88 x 99.84 x 3.06 mm
POST TEST CMT,Sample warped prior to ignition and contacted the spark ignitor. Caused spike in mass data and likely shortened time to ignition. Minor spilling of sample out of foil pan after ignition. See test pictures.

File: Nylon_Cone_HF75Scalar_220225_R2.csv
LABORATORY,FSRI
TEST IDENT,Nylon_HF75_2
OPERATOR,Dow
MATERIAL,Nylon
ORIENTATION,Horizontal
HEAT FLUX,75
SURF AREA,0.01
C FACTOR,0.0370678
SPEC HOLDER DIFF,305.22
SPECIMEN MASS,36.4
SCAN TIME,0.25
O2 DELAY TIME,11
CO DELAY TIME,11
CO2 DELAY TIME,8
FLOW FACTOR,1
SCAN COUNT,1231
TIME TO IGN,30.75
END OF TEST SCAN,751
END OF TEST TIME,187.75
TEST STATUS,1
PRE TEST CMT,Dimensions: 99.53 x 99.88 x 3.11 mm; 60 mm spacing

File: Nylon_Cone_HF75Scalar_220225_R3.csv
LABORATORY,FSRI
TEST IDENT,Nylon_HF75_3
OPERATOR,Dow
MATERIAL,Nylon
ORIENTATION,Horizontal
HEAT FLUX,75
SURF AREA,0.01
C FACTOR,0.0370678
SPEC HOLDER DIFF,305.62
SPECIMEN MASS,36.5
SCAN TIME,0.25
O2 DELAY TIME,11
CO DELAY TIME,11
CO2 DELAY TIME,8
FLOW FACTOR,1
SCAN COUNT,1198
TIME TO IGN,30.25
END OF TEST SCAN,718
END OF TEST TIME,179.5
TEST STATUS,1
PRE TEST CMT,Dimensions: 99.81 x 99.93 x 3.11 mm; 60 mm spacing
POST TEST CMT,Minor spilling of sample out of foil pan after ignition. See post test pictures.