Folder: fsri_materials_database/01_Data/Nylon/Cone (part 5)

File: Nylon_Cone_HF75Scan_220225_R3.csv
Names,Time,Stack TC,Smoke TC,Exh Press,Smoke Comp,Smoke Meas,CO Meter,CO2 Meter,O2 Meter,Sample Mass,Ext Coeff,Start Test,Flame Verif
Chan Gain,,500,500,1,1,1,1,1,1,1,1,1.0,1.0
Offset,,0,0,0.134422,0,0,0,0,0,0,0,0.0,0.0
Gain,,1,1,25.011,15.3125,15.3273,1,1,1,1.00096,1.02035,1.0,1.0
Units,sec,C,C,Pa,%,%,%,%,%,g,/m,,
Baseline,,58.8597,60.035,146.681,115.429,108.656,0.000666344,0.0664013,20.9999,-869.364,0.541309,,
13,3,55.4212,56.4881,147.945,115.499,109.212,0.000783352,0.0713025,20.9905,39.658,0.500914,0.0,0.0
26,6.25,55.6205,56.2733,148.633,115.502,108.821,0.000678525,0.0718369,20.9908,39.638,0.533309,0.0,0.0
39,9.5,55.1742,56.7068,147.505,115.525,109.23,0.000624999,0.0720265,20.9905,39.608,0.501522,0.0,0.0
52,12.75,55.6875,56.9105,148.17,115.552,109.448,0.000780977,0.0713085,20.9915,39.5579,0.48574,0.0,0.0
65,16,55.8942,57.1214,146.755,115.564,108.549,0.000741978,0.0706963,20.9917,39.5479,0.560542,0.0,0.0
78,19.25,55.8029,56.8784,147.096,115.567,109.466,0.000813456,0.0721413,20.9884,39.5079,0.485483,0.0,0.0
91,22.5,55.8686,57.3314,148.132,115.585,107.972,0.000936392,0.0748715,20.9843,39.4578,0.609893,0.0,0.0
104,25.75,56.2472,57.4624,145.298,115.634,106.981,0.00107775,0.0757788,20.9831,39.4378,0.696123,0.0,0.0
117,29,56.0994,57.3721,149.333,115.623,110.074,0.00147767,0.0775424,20.9802,39.3877,0.440207,0.0,0.0
130,32.25,56.4188,58.0314,137.051,115.637,108.198,0.00162058,0.110367,20.9136,39.3377,0.59516,0.0,1.0
143,35.5,57.1965,59.2408,134.162,115.654,107.063,0.00201359,0.1989,20.7645,39.0774,0.690832,0.0,1.0
156,38.75,59.1594,61.2931,125.912,115.669,106.491,0.00288463,0.312333,20.5772,38.7872,0.739978,0.0,0.0
169,42,61.9128,65.0224,118.766,115.699,103.801,0.0039455,0.448986,20.3345,38.4268,0.971256,0.0,0.0
182,45.25,65.6076,69.6135,119.786,115.73,104.679,0.00479173,0.590908,20.1096,38.0064,0.898251,0.0,0.0
195,48.5,70.5651,74.79,115.205,115.75,103.571,0.00551037,0.737926,19.8992,37.516,0.99502,0.0,0.0
208,51.75,75.3301,80.6024,104.998,115.78,102.369,0.00641478,0.880066,19.6683,36.9554,1.10186,0.0,0.0
221,55,80.0824,87.8286,112.378,115.81,100.74,0.00750778,1.02803,19.4406,36.3148,1.24772,0.0,0.0
234,58.25,85.6095,93.7546,98.7871,115.823,100.667,0.00851497,1.15456,19.2324,35.7142,1.2553,0.0,0.0
247,61.5,90.7829,101.041,103.144,115.861,101.563,0.00935705,1.31842,18.9717,34.8934,1.17885,0.0,0.0
260,64.75,96.8252,108.878,101.675,115.871,101.887,0.00971202,1.41176,18.8777,34.2628,1.15113,0.0,0.0
273,68,101.878,115.179,99.1863,115.865,101.323,0.010026,1.40703,18.8906,33.4421,1.20043,0.0,0.0
286,71.25,106.543,120.764,106.91,115.868,99.25,0.0105944,1.4144,18.8714,32.8515,1.38563,0.0,0.0
299,74.5,110.83,126.428,102.754,115.875,97.8332,0.0112099,1.47142,18.7967,32.0707,1.51486,0.0,0.0
312,77.75,115.287,132.062,98.8993,115.864,97.9904,0.0122373,1.57316,18.6194,31.3901,1.49963,0.0,0.0
325,81,120.28,138.267,105.406,115.837,96.7831,0.0135682,1.68635,18.4565,30.6494,1.60853,0.0,0.0
338,84.25,125.742,144.724,91.5184,115.809,94.0655,0.0158879,1.86557,18.1064,29.5884,1.86128,0.0,0.0
351,87.5,131.912,153.155,92.2725,115.799,93.8779,0.0179868,2.09118,17.798,28.7175,1.87835,0.0,0.0
364,90.75,137.873,162.526,75.5087,115.76,92.7384,0.0204737,2.29981,17.4846,27.7266,1.98462,0.0,0.0
377,94,144.621,171.284,87.5746,115.736,88.3598,0.0232708,2.51977,17.1413,26.7556,2.41567,0.0,0.0
390,97.25,151.684,181.054,89.701,115.703,89.3309,0.0260441,2.74167,16.8502,25.6746,2.31528,0.0,0.0
403,100.5,158.894,191.039,74.2424,115.665,88.8837,0.0290494,2.99571,16.4883,24.4234,2.35727,0.0,0.0
416,103.75,166.961,202.953,69.4407,115.644,86.7545,0.0323021,3.34819,15.8745,23.2823,2.57266,0.0,0.0
429,107,176.249,216.152,69.4544,115.583,85.9537,0.0354762,3.77362,15.2626,21.921,2.65096,0.0,0.0
442,110.25,185.137,229.851,66.6456,115.556,85.2044,0.0380957,4.12716,14.7965,20.4996,2.72719,0.0,0.0
455,113.5,194.889,243.835,74.9424,115.507,83.2856,0.0400935,4.45644,14.3619,19.0282,2.92732,0.0,0.0
468,116.75,203.787,257.102,63.6482,115.479,87.1142,0.0423231,4.77462,13.8588,17.6069,2.52285,0.0,0.0
481,120,212.556,270.779,66.5425,115.459,80.8706,0.0443867,4.97371,13.6349,16.1054,3.18693,0.0,0.0
494,123.25,220.516,281.464,68.7774,115.419,81.2397,0.0470794,5.03448,13.5734,14.584,3.1431,0.0,0.0
507,126.5,226.718,291.055,63.3345,115.392,80.0048,0.0497864,4.99065,13.6668,13.2727,3.27809,0.0,0.0
520,129.75,232.199,299.106,62.4987,115.356,79.5081,0.0507353,4.87443,13.8345,11.7913,3.33101,0.0,0.0
533,133,236.585,304.6,75.9453,115.341,74.9812,0.0507366,4.67205,14.1565,10.48,3.85457,0.0,0.0
546,136.25,240.04,309.174,81.5012,115.314,76.6782,0.0503704,4.37863,14.5538,9.22884,3.65212,0.0,0.0
559,139.5,242.069,310.457,75.5866,115.308,73.4105,0.0481298,4.00081,15.208,8.17784,4.04148,0.0,0.0
572,142.75,240.787,308.921,79.2808,115.298,75.6631,0.0436323,3.49247,15.8073,6.99671,3.77016,0.0,0.0
585,146,238.491,303.378,91.5054,115.271,78.6226,0.037252,2.95204,16.6554,6.20595,3.42472,0.0,0.0
598,149.25,233.61,296.609,105.661,115.257,76.0696,0.0322313,2.38978,17.542,5.60537,3.71905,0.0,0.0
611,152.5,227.873,286.45,114.299,115.271,78.2363,0.0262574,1.87416,18.3014,5.06485,3.46877,0.0,0.0
624,155.75,220.721,275.638,118.219,115.26,84.8227,0.0192798,1.42379,19.0316,4.62443,2.74444,0.0,0.0
637,159,212.576,264.409,120.931,115.258,96.3458,0.0129901,1.04349,19.6116,4.39421,1.60422,0.0,0.0
650,162.25,203.903,251.78,128.22,115.271,98.7411,0.00897645,0.745687,20.0517,4.26409,1.38535,0.0,0.0
663,165.5,195.439,240.869,131.272,115.29,101.441,0.00656924,0.554558,20.3112,4.16399,1.14544,0.0,0.0
676,168.75,188.145,229.284,129.401,115.304,106.407,0.00505139,0.404857,20.5562,4.09392,0.718736,0.0,0.0
689,172,180.386,218.388,132.475,115.318,108.444,0.00413728,0.282042,20.7313,4.04388,0.550056,0.0,0.0
702,175.25,172.604,208.159,136.175,115.323,108.728,0.00347388,0.204108,20.8416,4.05389,0.527052,0.0,0.0
715,178.5,165.624,198.891,137.061,115.345,108.619,0.00303998,0.159415,20.8967,4.04388,0.537807,0.0,0.0
728,181.75,159.308,188.968,138.106,115.352,108.474,0.00265357,0.13343,20.9288,4.03387,0.550308,0.0,0.0
741,185,153.602,180.751,139.838,115.37,108.117,0.0025606,0.117464,20.9461,4.02386,0.581146,0.0,0.0
754,188.25,148.145,173.383,141.4,115.391,108.368,0.00236334,0.107293,20.959,4.01385,0.561969,0.0,0.0
767,191.5,142.823,166.996,135.525,115.398,108.699,0.00226798,0.100115,20.9637,4.01385,0.535241,0.0,0.0
780,194.75,138.028,159.78,134.351,115.425,108.272,0.00196154,0.0952616,20.968,4.02386,0.572577,0.0,0.0
793,198,134.016,154.702,138.316,115.445,107.91,0.00179139,0.0915416,20.9728,4.00384,0.604113,0.0,0.0
806,201.25,129.543,148.358,137.738,115.453,108.32,0.00182991,0.0884911,20.9763,3.97381,0.570805,0.0,0.0
819,204.5,126.662,143.56,138.049,115.479,108.432,0.00133955,0.0858093,20.9783,3.99383,0.563526,0.0,0.0
832,207.75,123.42,139.339,141.572,115.5,107.846,0.0011213,0.0837129,20.9804,4.02386,0.613668,0.0,0.0
845,211,120,134.838,139.978,115.512,108.418,0.00119611,0.0815801,20.9824,3.98382,0.567219,0.0,0.0
858,214.25,117.496,131.18,137.367,115.529,108.458,0.00104069,0.0801167,20.9835,3.98382,0.565313,0.0,0.0
871,217.5,114.023,127.319,137.788,115.546,108.28,0.000973847,0.0785359,20.9857,3.98382,0.581298,0.0,0.0
884,220.75,112.081,123.618,140.273,115.567,108.089,0.00087549,0.0766883,20.9888,3.97381,0.598754,0.0,0.0
897,224,109.746,120.506,137.88,115.581,108.01,0.000786327,0.0750085,20.9903,3.98382,0.606388,0.0,0.0
910,227.25,107.36,117.939,138.213,115.586,108.093,0.00103612,0.0739289,20.9921,3.9638,0.599889,0.0,0.0
923,230.5,105.114,114.747,140.034,115.604,108.082,0.00089438,0.0727884,20.9929,3.97381,0.602232,0.0,0.0
936,233.75,103.145,111.391,137.363,115.611,107.909,0.000631669,0.0720732,20.9931,3.98382,0.617118,0.0,0.0
949,237,100.935,108.259,141.801,115.628,108.199,0.000788555,0.0714556,20.9938,3.99383,0.594398,0.0,0.0
962,240.25,99.6319,107.229,138.553,115.649,108.048,0.000858836,0.071037,20.9952,3.98382,0.608533,0.0,0.0
975,243.5,98.2027,105.633,138.593,115.635,107.975,0.00076127,0.0706311,20.9963,3.9638,0.613417,0.0,0.0
988,246.75,96.4196,102.916,138.92,115.65,108.397,0.000610581,0.070301,20.9966,3.98382,0.579669,0.0,0.0
1001,250,95.2635,101.356,139.041,115.657,107.978,0.000636021,0.0699929,20.9961,3.9638,0.614923,0.0,0.0
1014,253.25,94.1324,99.0229,143.739,115.652,108.103,0.000591211,0.0697332,20.9959,3.99383,0.604176,0.0,0.0
1027,256.5,92.6893,97.7509,138.179,115.645,108.101,0.000697868,0.069262,20.9971,3.9638,0.603789,0.0,0.0
1040,259.75,91.3421,96.1074,138.302,115.646,107.847,0.000751772,0.0689938,20.9979,3.94378,0.624954,0.0,0.0
1053,263,90.5835,94.2528,137.006,115.632,108.096,0.000708373,0.068819,20.9981,3.9638,0.603165,0.0,0.0
1066,266.25,89.8485,92.7571,140.366,115.637,108.057,0.000450304,0.0684708,20.9994,3.98382,0.606853,0.0,0.0
1079,269.5,88.0442,91.6837,141.635,115.64,107.644,0.000404173,0.0680979,21.0002,3.9638,0.641272,0.0,0.0
1092,272.75,86.5898,90.3029,139.831,115.646,107.664,0.000662089,0.0680617,21,3.98382,0.640109,0.0,0.0
1105,276,86.5079,89.1957,140.766,115.626,107.495,0.000788101,0.067986,20.9986,3.92376,0.652641,0.0,0.0
1118,279.25,85.4063,88.2622,136.904,115.613,108.356,0.000757321,0.0678828,20.9988,3.97381,0.58021,0.0,0.0
1131,282.5,85.2014,87.1094,139.528,115.603,108.097,0.000536966,0.0676786,20.9979,3.95379,0.600881,0.0,0.0
1144,285.75,84.3935,86.2423,143.223,115.614,107.865,0.000361739,0.0674588,20.998,3.95379,0.620944,0.0,0.0
1157,289,83.3681,85.4764,140.471,115.599,108.387,,0.067475,,3.93377,0.576539,0.0,0.0
1170,292.25,82.8759,84.8812,143.202,115.571,108.279,,,,3.94378,0.583406,0.0,0.0
1183,295.5,82.4412,84.1644,140.474,115.57,108.327,,,,3.92376,0.579277,0.0,0.0
1196,298.75,81.4758,83.0533,142.823,115.574,107.604,,,,3.97381,0.639553,0.0,0.0
1198,299.25,81.7082,83.1317,142.711,115.573,108.638,,,,3.99383,0.553869,0.0,0.0