Folder: fsri_materials_database/01_Data/Nylon/Cone

Note: 01_Data/README.md
# Materials and Products Database
## 01_Data

Raw data generated from each apparatus are included here in plain-text format. The data is organized first by material, next by the short name of test apparatus used, and where applicable additional filtering by test settings.

### material.json

Each material directory contains a json file of the same name as the material. This file links the data stored in the repository as well as data and graphs produced by the accompanying scripts (__02_Scripts__) to the respective landing page for the material on the front-end website.

File: Nylon_Cone_HF25-FrameScalar_220309_R4.csv
LABORATORY,FSRI
TEST IDENT,Nylon_HF25_220309_1
OPERATOR,Dow
MATERIAL,Nylon
ORIENTATION,Horizontal
HEAT FLUX,25
SURF AREA,0.00884
C FACTOR,0.0374868
SPEC HOLDER DIFF,-566
SPECIMEN MASS,36.7
SCAN TIME,0.25
O2 DELAY TIME,11
CO DELAY TIME,11
CO2 DELAY TIME,8
FLOW FACTOR,1
SCAN COUNT,5642
TIME TO IGN,468
END OF TEST SCAN,5162
END OF TEST TIME,1290.5
TEST STATUS,1
PRE TEST CMT,Dimensions: 10088 x 100.67 x 3.11 mm; with frame; 60 mm spacing
POST TEST CMT,"Sample formed a bubble prior to ignition. Ignition occurred when the bubble contacted the spark ignitor, therefore time to ignition data should be ignored. Also possible for spike in mass data prior to ignition."

File: Nylon_Cone_HF25-FrameScan_220309_R4.csv
Names,Time,Stack TC,Smoke TC,Exh Press,Smoke Comp,Smoke Meas,CO Meter,CO2 Meter,O2 Meter,Sample Mass,Ext Coeff,Start Test,Flame Verif
Chan Gain,,500,500,1,1,1,1,1,1,1,1,1.0,1.0
Offset,,0,0,0.134647,0,0,0,0,0,0,0,0.0,0.0
Gain,,1,1,25.011,13.2859,13.1681,1,1,1,1.00096,0.993885,1.0,1.0
Units,sec,C,C,Pa,%,%,%,%,%,g,/m,,
Baseline,,21.5654,22.3564,172.915,100.141,96.7738,0.000950196,0.0745696,20.96,-0.434626,0.298203,,
59,14.5,19.9036,20.4361,171.617,99.1362,95.9311,0.00114408,0.07628,20.9578,959.114,0.28652,0.0,0.0
118,29.25,20.1239,20.8366,175.007,99.926,96.9024,0.000782971,0.0787743,20.9537,959.083,0.267876,0.0,0.0
177,44,20.9659,21.1887,172.653,100.54,97.4252,0.000635604,0.0777514,20.9548,959.073,0.274358,0.0,0.0
236,58.75,21.1707,21.5163,171.547,100.742,97.3802,0.000875753,0.0774842,20.9529,959.053,0.295879,0.0,0.0
295,73.5,21.2286,21.5544,169.543,100.512,97.3264,0.000819985,0.0783509,20.9521,959.053,0.280818,0.0,0.0
354,88.25,20.9721,22.121,172.952,100.089,96.9796,0.000266326,0.0777495,20.955,959.013,0.275181,0.0,0.0
413,103,20.9542,21.5817,170.459,100.333,97.1226,0.000849675,0.0767617,20.9541,958.983,0.283495,0.0,0.0
472,117.75,21.5406,21.9618,179.17,100.558,97.9051,0.000683608,0.0760527,20.9557,958.933,0.233107,0.0,0.0
531,132.5,21.4289,22.694,169.678,100.098,96.9277,0.000554391,0.0775465,20.9522,958.893,0.280585,0.0,0.0
590,147.25,21.8457,21.8972,174.25,99.8405,96.3679,0.000775893,0.0763706,20.954,958.883,0.308629,0.0,0.0
649,162,21.3282,22.4068,176.174,100.031,96.7501,0.0006793,0.0768097,20.9526,958.833,0.290711,0.0,0.0
708,176.75,21.9261,22.6772,173.933,100.031,96.6247,0.000489469,0.077909,20.9506,958.763,0.302053,0.0,0.0
767,191.5,22.2674,22.7656,171.628,99.9143,95.6743,0.000827405,0.0771016,20.9527,958.703,0.378047,0.0,0.0
826,206.25,21.8756,22.8022,175.572,99.5725,96.6693,0.000879388,0.0766907,20.9535,958.663,0.25797,0.0,0.0
885,221,22.2365,22.8195,176.201,99.1691,96.1176,0.000932094,0.0786685,20.9511,958.633,0.272479,0.0,0.0
944,235.75,22.517,23.109,171.99,98.8285,95.95,0.000688622,0.0791664,20.9453,958.613,0.257698,0.0,0.0
1003,250.5,22.5852,22.8986,172.043,98.6407,95.9617,0.000838921,0.0791726,20.9461,958.573,0.240064,0.0,0.0
1062,265.25,22.612,23.39,172.299,98.6067,95.7993,0.000491481,0.0782937,20.9477,958.523,0.251816,0.0,0.0
1121,280,22.3571,23.1413,167.254,98.7068,95.5056,0.000803144,0.0774358,20.9487,958.493,0.28744,0.0,0.0
1180,294.75,22.3836,23.3737,175.639,98.9517,96.3165,0.000681448,0.0804014,20.9424,958.473,0.235328,0.0,0.0
1239,309.5,22.4169,23.5777,175.062,99.251,96.0846,0.000920321,0.0852502,20.936,958.453,0.282666,0.0,0.0
1298,324.25,22.6201,23.4616,172.812,99.5319,96.2132,0.000722379,0.0812651,20.9461,958.413,0.295652,0.0,0.0
1357,339,23.0324,23.7617,162.365,99.8324,96.6979,0.000988947,0.0803897,20.9531,958.423,0.278124,0.0,0.0
1416,353.75,22.5051,23.5116,173.669,100.085,97.0161,0.000632556,0.0754271,20.9608,958.373,0.271542,0.0,0.0
1475,368.5,22.8077,23.6325,166.556,100.29,97.2255,0.000182979,0.0757411,20.961,958.353,0.270565,0.0,0.0
1534,383.25,23.0251,23.4805,172.205,100.46,97.6953,0.000641763,0.0812812,20.9545,958.323,0.243333,0.0,0.0
1593,398,22.7519,24.2815,175.159,100.571,97.8199,0.000863405,0.0811093,20.9529,958.273,0.241787,0.0,0.0
1652,412.75,22.511,23.9013,169.4,100.672,97.3682,0.000820574,0.0796613,20.9572,958.313,0.290885,0.0,0.0
1711,427.5,23.4546,23.6271,174.699,100.707,97.977,0.000625114,0.0753019,20.9642,958.263,0.239562,0.0,0.0
1770,442.25,23.2592,24.6733,174.727,100.711,98.9077,0.000863486,0.0755093,20.9605,958.243,0.157521,0.0,0.0
1829,457,22.9909,23.7867,173.33,100.68,98.2788,0.000648682,0.0755308,20.9589,958.223,0.210431,0.0,0.0
1888,471.75,23.2867,24.099,166.672,100.614,97.6294,0.000801801,0.0901542,20.9425,958.213,0.262576,0.0,1.0
1947,486.5,22.8318,23.9041,168.564,100.539,97.4899,0.000686216,0.0786042,20.9542,958.203,0.268535,0.0,0.0
2006,501.25,22.8028,24.5101,172.64,100.473,97.7503,0.000549476,0.0859097,20.9432,958.183,0.239511,0.0,0.0
2065,516,23.0318,24.763,174.076,100.385,97.8323,0.000779732,0.0862927,20.9413,958.123,0.224599,0.0,0.0
2124,530.75,23.181,24.6699,173.789,100.282,97.4272,0.000568527,0.0884455,20.9406,958.052,0.251823,0.0,0.0
2183,545.5,23.2651,24.7616,164.644,100.162,96.8851,0.000847382,0.0904419,20.9398,958.002,0.289994,0.0,0.0
2242,560.25,24.5085,25.4312,166.437,100.061,95.604,0.000974902,0.107789,20.9116,957.892,0.397291,0.0,0.0
2301,575,25.6683,26.67,167.076,99.9937,94.7943,0.00125382,0.137764,20.8683,957.702,0.465546,0.0,0.0
2360,589.75,27.9235,29.0178,169.533,99.9678,93.9102,0.00178967,0.174784,20.8105,957.352,0.544975,0.0,0.0
2419,604.5,32.5336,33.6787,162.015,99.941,90.4823,0.00303203,0.295906,20.6164,956.741,0.866825,0.0,0.0
2478,619.25,39.0116,40.3137,146.834,100.104,88.7905,0.00403061,0.386061,20.4778,955.83,1.04559,0.0,0.0
2537,634,45.4911,47.694,152.266,100.266,87.5624,0.00474476,0.468799,20.3438,954.709,1.18113,0.0,0.0
2596,648.75,52.0359,55.0757,144.739,100.408,86.2969,0.00544656,0.5288,20.2526,953.378,1.32038,0.0,0.0
2655,663.5,59.1274,63.0658,145.611,100.48,86.4062,0.00683332,0.612801,20.1155,951.907,1.31557,0.0,0.0
2714,678.25,66.8434,71.8497,140.359,100.529,84.7675,0.00736789,0.709445,19.9635,950.205,1.48673,0.0,0.0
2773,693,73.9476,79.9795,138.74,100.542,86.0168,0.00786828,0.777678,19.8583,948.313,1.36033,0.0,0.0
2832,707.75,80.3979,87.4533,136.341,100.525,84.4026,0.0085409,0.826986,19.7797,946.281,1.52406,0.0,0.0
2891,722.5,85.6414,93.941,139.553,100.503,85.5611,0.00895386,0.878029,19.7009,944.129,1.40326,0.0,0.0
2950,737.25,90.1667,99.783,123.299,100.473,84.0365,0.00904791,0.891739,19.6737,942.047,1.55742,0.0,0.0
3009,752,94.8038,104.907,127.234,100.408,83.707,0.0101189,0.908431,19.6501,939.865,1.586,0.0,0.0
3068,766.75,96.3045,106.881,134.309,100.303,82.9908,0.00935041,0.826709,19.7772,937.823,1.65179,0.0,0.0
3127,781.5,95.6191,106.292,132.238,100.182,82.9077,0.00863067,0.742903,19.9105,936.021,1.65006,0.0,0.0
3186,796.25,92.8023,103.706,138.244,100.052,83.0117,0.00873625,0.673481,20.0154,934.36,1.62779,0.0,0.0
3245,811,90.0241,99.5005,144.075,99.9325,82.3338,0.00805678,0.564688,20.1921,932.918,1.68885,0.0,0.0
3304,825.75,83.7757,93.2226,146.138,99.95,84.7634,0.00620597,0.4475,20.3778,931.797,1.43682,0.0,0.0
3363,840.5,78.0231,86.412,149.424,100.007,87.122,0.00531217,0.390756,20.4755,930.866,1.20253,0.0,0.0
3422,855.25,71.5387,79.3948,156.985,100.153,87.3808,0.00434523,0.346992,20.542,930.046,1.18939,0.0,0.0
3481,870,66.9175,73.613,154.698,100.349,88.8395,0.00322237,0.303947,20.6066,929.325,1.06208,0.0,0.0
3540,884.75,63.1978,68.5976,154.145,100.551,90.2806,0.00273513,0.264685,20.6689,928.744,0.939318,0.0,0.0
3599,899.5,58.6612,63.9114,156.084,100.717,92.224,0.0025192,0.242834,20.6997,928.264,0.76804,0.0,0.0
3658,914.25,56.172,60.4375,161.259,100.433,93.2162,0.00200777,0.223666,20.7296,927.803,0.650143,0.0,0.0
3717,929,53.1412,56.7929,168.001,99.478,92.4052,0.00178466,0.202864,20.7662,927.423,0.643002,0.0,0.0
3776,943.75,50.2862,53.1147,164.16,98.6233,92.4486,0.00159988,0.181848,20.8022,927.063,0.563679,0.0,0.0
3835,958.5,47.6762,50.2688,166.502,99.1236,93.7695,0.00150097,0.159821,20.8373,926.812,0.48411,0.0,0.0
3894,973.25,45.3255,47.3347,162.873,99.9889,94.3056,0.00153888,0.14362,20.8616,926.612,0.51018,0.0,0.0
3953,988,42.978,44.7351,163.28,99.9159,94.5556,0.00115884,0.136839,20.8677,926.442,0.480737,0.0,0.0
4012,1002.75,40.7485,42.6156,168.076,100.456,95.6418,0.00104425,0.128604,20.8823,926.272,0.428152,0.0,0.0
4071,1017.5,39.4049,40.8731,164.427,100,95.381,0.00128205,0.119769,20.8971,926.132,0.412317,0.0,0.0
4130,1032.25,37.9757,39.5703,173.807,100.702,96.036,0.00110736,0.113776,20.9075,925.992,0.413658,0.0,0.0
4189,1047,37.205,37.7288,163.702,99.8486,94.6825,0.00123694,0.111662,20.9082,925.882,0.463162,0.0,0.0
4248,1061.75,36.7924,37.118,166.947,98.6176,94.6166,0.000976357,0.107303,20.9153,925.771,0.361083,0.0,0.0
4307,1076.5,34.7018,35.4885,167.996,99.4654,95.1407,0.00117821,0.102047,20.9215,925.671,0.387561,0.0,0.0
4366,1091.25,34.1972,34.9769,166.77,100.003,95.51,0.00124947,0.100364,20.923,925.601,0.400817,0.0,0.0
4425,1106,33.8579,34.2112,166.066,99.6953,95.1539,0.00117005,0.0981992,20.9275,925.551,0.406473,0.0,0.0
4484,1120.75,33.3424,33.4698,164.772,100.438,95.6647,0.00104624,0.0925917,20.9369,925.431,0.42448,0.0,0.0
4543,1135.5,32.5417,32.7082,167.31,100.322,95.5783,0.000715975,0.0894353,20.9437,925.371,0.422286,0.0,0.0
4602,1150.25,32.0259,32.1054,168.084,100.688,96.2952,0.000965977,0.0936389,20.9325,925.331,0.388896,0.0,0.0
4661,1165,31.3935,31.557,164.071,99.8887,95.2323,0.000734384,0.0896817,20.9422,925.311,0.416193,0.0,0.0
4720,1179.75,31.4553,31.4613,166.134,98.9213,94.3221,0.00128073,0.0897474,20.9394,925.281,0.415073,0.0,0.0
4779,1194.5,30.8839,30.7998,169.31,98.6334,94.699,0.00103326,0.0896235,20.9438,925.231,0.354893,0.0,0.0
4838,1209.25,30.5529,30.5754,167.914,98.8175,94.8742,0.000818113,0.0851127,20.9497,925.201,0.355033,0.0,0.0
4897,1224,29.7888,30.136,167.018,99.1358,95.1608,0.00101657,0.0830591,20.9523,925.191,0.356778,0.0,0.0
4956,1238.75,29.7422,29.9076,170.809,99.3669,95.4859,0.000664985,0.0819456,20.9535,925.151,0.347345,0.0,0.0
5015,1253.5,29.4652,29.6441,169.846,99.5615,95.6651,0.000667,0.0820918,20.954,925.151,0.348055,0.0,0.0
5074,1268.25,28.6535,28.9334,168.521,99.7407,95.3581,0.000780106,0.0800192,20.9554,925.101,0.391758,0.0,0.0
5133,1283,28.5459,28.7415,167.133,99.8356,96.3061,0.000628477,0.0793139,20.9553,925.101,0.313805,0.0,0.0
5192,1297.75,28.022,27.6352,168.299,99.8522,96.1558,0.00100242,0.0788698,20.9541,925.111,0.328872,0.0,0.0
5251,1312.5,27.3467,28.062,166.876,99.8526,96.3896,0.000451635,0.0779558,20.9586,925.061,0.307728,0.0,0.0
5310,1327.25,27.0035,27.7836,167.874,99.8445,95.7792,0.000754662,0.0810134,20.9479,925.051,0.362407,0.0,0.0
5369,1342,27.7545,27.5903,167.401,99.8599,96.7224,0.000433121,0.0841204,20.934,925.051,0.278321,0.0,0.0
5428,1356.75,27.2753,27.1895,171.327,99.8932,96.114,0.000694087,0.0818309,20.9389,925.051,0.336237,0.0,0.0
5487,1371.5,26.0612,27.166,166.376,99.9086,97.1025,0.000900083,0.0771971,20.9559,925.061,0.248368,0.0,0.0
5546,1386.25,26.8841,27.2231,167.127,99.9329,96.9555,0.000881882,0.0766086,20.9568,925.041,0.263707,0.0,0.0
5605,1401,26.4972,26.5409,175.784,99.9637,96.5082,,0.0763184,,925.051,0.306706,0.0,0.0
5642,1410.25,26.2948,26.8676,170.103,99.986,96.509,,,,925.051,0.308578,0.0,0.0

File: Nylon_Cone_HF25Scalar_220225_R2.csv
LABORATORY,FSRI
TEST IDENT,Nylon_HF25_2
OPERATOR,Dow
MATERIAL,Nylon
ORIENTATION,Horizontal
HEAT FLUX,25
SURF AREA,0.01
C FACTOR,0.0385692
SPEC HOLDER DIFF,303.73
SPECIMEN MASS,36.4
SCAN TIME,0.25
O2 DELAY TIME,11
CO DELAY TIME,11
CO2 DELAY TIME,8
FLOW FACTOR,1
SCAN COUNT,4035
TIME TO IGN,573.5
END OF TEST SCAN,3555
END OF TEST TIME,888.75
TEST STATUS,1
PRE TEST CMT,Dimensions: 99.55 x 99.85 x 3.08 mm; 60 mm spacing
POST TEST CMT,"Prior to ignition, the sample expanded vertically and a single large bubble formed. A small hole opened in the bubble which produced a candle-sized flame. The time to ignition event was recorded when the flame began spreading across the surface of the sample. "

File: Nylon_Cone_HF25Scalar_220225_R3.csv
LABORATORY,FSRI
TEST IDENT,Nylon_HF25_3
OPERATOR,Dow
MATERIAL,Nylon
ORIENTATION,Horizontal
HEAT FLUX,25
SURF AREA,0.01
C FACTOR,0.0385692
SPEC HOLDER DIFF,304.3
SPECIMEN MASS,36.4
SCAN TIME,0.25
O2 DELAY TIME,11
CO DELAY TIME,11
CO2 DELAY TIME,8
FLOW FACTOR,1
SCAN COUNT,3811
TIME TO IGN,538.25
END OF TEST SCAN,3331
END OF TEST TIME,832.75
TEST STATUS,1
PRE TEST CMT,Dimensions: 99.95 x 99.90 x 3.10 mm; 60 mm spacing
POST TEST CMT,"Prior to ignition, the sample expanded vertically and a single large bubble formed. Top of the bubble touched the spark ignitor which immediately created a small hole releasing a candle-sized flame. This flame remained steady for approximately one minute with occassonal bursts as gases released from the bubble. The time to ignition event was recorded when the flame began spreading across the surface of the sample. "

File: Nylon_Cone_HF25Scan_220225_R2.csv
Names,Time,Stack TC,Smoke TC,Exh Press,Smoke Comp,Smoke Meas,CO Meter,CO2 Meter,O2 Meter,Sample Mass,Ext Coeff,Start Test,Flame Verif
Chan Gain,,500,500,1,1,1,1,1,1,1,1,1.0,1.0
Offset,,0,0,0.136092,0,0,0,0,0,0,0,0.0,0.0
Gain,,1,1,25.011,15.4219,15.1528,1,1,1,1.00089,1.02113,1.0,1.0
Units,sec,C,C,Pa,%,%,%,%,%,g,/m,,
Baseline,,23.4382,24.6506,161.034,115.723,115.758,-0.00947113,0.0767725,20.8877,-0.0163478,-0.00271603,,
43,10.5,21.1802,22.1679,160.946,115.837,116.131,-0.00946568,0.0786935,20.8846,907.273,-0.0227241,0.0,0.0
86,21.25,21.2318,22.1042,162.541,115.845,115.817,-0.00931816,0.0776311,20.8839,907.213,0.00218122,0.0,0.0
129,32,21.8887,22.6427,160.669,115.823,116.234,-0.00976387,0.0769486,20.8841,907.183,-0.0316934,0.0,0.0
172,42.75,22.2053,22.6125,165.836,115.78,115.988,-0.00946893,0.0762573,20.8935,907.203,-0.0161365,0.0,0.0
215,53.5,21.7697,22.79,162.864,115.703,115.966,-0.00975262,0.0762488,20.896,907.143,-0.0203233,0.0,0.0
258,64.25,22.3831,22.9823,160.882,115.583,115.858,-0.00950505,0.0767275,20.8889,907.093,-0.0212565,0.0,0.0
301,75,22.254,23.2377,160.005,115.385,115.627,-0.00923537,0.0767807,20.8874,907.123,-0.0188037,0.0,0.0
344,85.75,22.4868,23.0179,161.718,115.056,115.325,-0.00975033,0.0752867,20.8944,907.043,-0.020883,0.0,0.0
387,96.5,22.7224,23.3518,160.544,114.771,114.819,-0.0100631,0.0734332,20.9024,907.023,-0.00373483,0.0,0.0
430,107.25,22.6948,23.7778,159.649,114.496,114.594,-0.00963974,0.0738432,20.9007,906.983,-0.00769884,0.0,0.0
473,118,22.8973,23.9726,159.516,114.262,114.591,-0.0096377,0.0746612,20.8971,906.933,-0.0257632,0.0,0.0
516,128.75,22.0561,23.6082,156.446,114.087,113.751,-0.00970743,0.0752024,20.8972,906.853,0.0264218,0.0,0.0
559,139.5,22.7575,24.2634,160.74,113.961,113.765,-0.00985143,0.0754035,20.8969,906.853,0.0153853,0.0,0.0
602,150.25,23.0043,24.4813,159.256,113.91,113.245,-0.00963768,0.0758177,20.8944,906.853,0.0524804,0.0,0.0
645,161,23.0797,24.2197,158.13,113.878,113.205,-0.00960222,0.0769707,20.8911,906.653,0.0531088,0.0,0.0
688,171.75,23.2789,24.3932,157.297,113.889,113.464,-0.009565,0.0772481,20.8896,906.593,0.0334936,0.0,0.0
731,182.5,23.2451,24.8064,165.614,113.887,113.571,-0.0096907,0.0767178,20.8919,906.553,0.0248439,0.0,0.0
774,193.25,23.3588,25.3098,160.1,113.917,113.241,-0.00966938,0.078132,20.8897,906.513,0.0533285,0.0,0.0
817,204,23.9185,24.1331,157.68,113.926,113.637,-0.0092704,0.0782745,20.8886,906.503,0.0227747,0.0,0.0
860,214.75,23.4668,24.9132,163.176,113.89,113.811,-0.00942619,0.0762833,20.8954,906.393,0.00619316,0.0,0.0
903,225.5,22.9673,24.7223,159.617,113.852,112.199,-0.00949633,0.0769625,20.898,906.273,0.130973,0.0,0.0
946,236.25,23.3945,24.3997,157.398,113.899,113.53,-0.00927491,0.0763881,20.9027,906.263,0.0290894,0.0,0.0
989,247,23.6467,24.9856,161.222,114.008,107.796,-0.00909455,0.0734047,20.9128,906.163,0.501866,0.0,0.0
1032,257.75,23.6423,24.5188,162.239,114.175,113.948,-0.00925344,0.0711559,20.9179,906.243,0.0178665,0.0,0.0
1075,268.5,23.5799,24.7963,162.68,114.458,114.229,-0.00984473,0.072263,20.9145,906.243,0.0179198,0.0,0.0
1118,279.25,23.2926,25.0654,159.806,114.911,112.962,-0.00987218,0.0678485,20.924,906.073,0.153228,0.0,0.0
1161,290,23.6155,25.5296,157.73,115.366,114.504,-0.00952728,0.0684618,20.9283,906.143,0.067246,0.0,0.0
1204,300.75,23.8175,25.0929,156.508,115.769,115.403,-0.00937319,0.0662768,20.9328,906.102,0.0283869,0.0,0.0
1247,311.5,23.6629,25.1073,160.964,116.115,115.379,-0.00929376,0.0650759,20.9399,905.972,0.0569059,0.0,0.0
1290,322.25,23.1562,25.6147,162.172,116.308,116,-0.00971458,0.0636411,20.9436,905.912,0.02373,0.0,0.0
1333,333,23.3633,25.0606,162.035,116.383,116.541,-0.00984251,0.062567,20.9466,905.832,-0.0121538,0.0,0.0
1376,343.75,24.0994,25.1904,158.56,116.308,115.48,-0.0096478,0.0612199,20.9494,905.822,0.0639558,0.0,0.0
1419,354.5,23.5587,24.9395,159.844,116.1,115.742,-0.00966094,0.0606654,20.9519,905.812,0.0276429,0.0,0.0
1462,365.25,24.5411,25.5892,163.757,115.886,115.557,-0.00951883,0.0600832,20.9498,905.732,0.0254327,0.0,0.0
1505,376,23.4563,25.511,162.279,115.72,115.881,-0.00976543,0.058702,20.9537,905.432,-0.0124371,0.0,0.0
1548,386.75,23.3859,25.2023,160.126,115.631,115.373,-0.00999643,0.058348,20.9607,905.742,0.0200445,0.0,0.0
1591,397.5,23.1974,25.3797,156.932,115.594,115.136,-0.0100171,0.0572037,20.9627,905.722,0.0355645,0.0,0.0
1634,408.25,23.6746,25.717,161.531,115.597,115.716,-0.00971051,0.0561112,20.9678,905.662,-0.00918126,0.0,0.0
1677,419,22.9028,24.4777,158.675,115.629,115.634,-0.00973599,0.0552026,20.9686,905.792,-0.000399361,0.0,0.0
1720,429.75,23.8213,25.1737,162.274,115.68,115.653,-0.00977239,0.055023,20.9711,905.702,0.00206913,0.0,0.0
1763,440.5,23.4991,25.0556,160.31,115.725,115.194,-0.00965733,0.0545407,20.9755,905.562,0.0411284,0.0,0.0
1806,451.25,23.5693,24.7755,161.889,115.703,115.247,-0.00974826,0.0536898,20.9735,905.512,0.0354273,0.0,0.0
1849,462,23.2726,24.8156,163.571,115.747,115.529,-0.0098434,0.0530269,20.9769,905.382,0.0168456,0.0,0.0
1892,472.75,23.8735,25.3632,156.082,115.796,115.202,-0.00989234,0.0521851,20.9791,905.572,0.0460886,0.0,0.0
1935,483.5,23.4576,24.8691,159.035,115.932,115.959,-0.00944462,0.0513124,20.9814,905.292,-0.00213369,0.0,0.0
1978,494.25,23.7774,24.9003,160.476,116.134,115.542,-0.00966931,0.0510435,20.9839,905.402,0.0457657,0.0,0.0
2021,505,23.6579,24.8232,161.003,116.331,115.94,-0.00971745,0.0505255,20.9863,905.302,0.0301494,0.0,0.0
2064,515.75,23.7296,24.9144,159.777,116.4,115.406,-0.00997293,0.0503968,20.987,905.262,0.0768702,0.0,0.0
2107,526.5,24.0611,24.6989,160.498,116.339,115.581,-0.00981298,0.0504307,20.987,905.392,0.0586045,0.0,0.0
2150,537.25,23.2533,25.431,158.195,115.992,116.324,-0.00972169,0.0521147,20.9839,905.302,-0.0255838,0.0,0.0
2193,548,24.3772,25.6399,159.077,115.31,115.161,-0.00983312,0.0648316,20.9652,905.132,0.0115673,0.0,0.0
2236,558.75,24.784,25.7851,158.194,114.557,114.583,-0.00923843,0.0702898,20.9565,905.182,-0.00197295,0.0,0.0
2279,569.5,25.1747,26.7243,157.098,114.08,113.194,-0.00941331,0.0782021,20.9465,905.082,0.0698178,0.0,0.0
2322,580.25,24.9377,27.2815,154.835,113.883,111.432,-0.00911851,0.0981612,20.9115,904.821,0.194872,0.0,0.0
2365,591,26.3953,28.2537,157.038,113.859,110.563,-0.0088245,0.137737,20.8541,904.701,0.263103,0.0,0.0
2408,601.75,28.3775,30.3484,150.545,113.862,109.147,-0.00821328,0.169737,20.8038,904.461,0.378817,0.0,0.0
2451,612.5,30.477,32.9086,148.472,113.89,107.826,-0.00795462,0.187795,20.7816,904.001,0.490045,0.0,0.0
2494,623.25,32.0221,34.7974,152.549,113.891,108.289,-0.00755256,0.206962,20.7481,903.63,0.451712,0.0,0.0
2537,634,33.7439,36.7004,150.285,113.883,105.127,-0.00687916,0.251147,20.6823,903.35,0.71653,0.0,0.0
2580,644.75,37.2951,40.7049,147.09,113.871,103.593,-0.00595679,0.314776,20.5827,902.619,0.84734,0.0,0.0
2623,655.5,40.3563,44.2606,145.522,113.868,101.631,-0.00431356,0.376628,20.4838,901.989,1.01832,0.0,0.0
2666,666.25,42.5251,46.873,137.575,113.861,99.4872,-0.00347334,0.43387,20.3895,901.098,1.20881,0.0,0.0
2709,677,47.5852,52.924,137.469,113.859,99.9931,-0.00364373,0.503025,20.2855,900.207,1.16315,0.0,0.0
2752,687.75,52.2588,58.1741,132.419,113.834,95.0566,-0.00217351,0.596082,20.1307,898.836,1.61471,0.0,0.0
2795,698.5,57.612,64.8398,128.136,113.833,95.2846,-0.000781747,0.718102,19.9434,897.895,1.59314,0.0,0.0
2838,709.25,64.2874,72.5264,128.133,113.838,93.3716,0.0011671,0.861032,19.7219,896.274,1.77525,0.0,0.0
2881,720,71.4131,81.4198,116.863,113.849,92.2673,0.00159525,0.985861,19.5128,894.502,1.88267,0.0,0.0
2924,730.75,78.6845,90.5668,114.956,113.849,90.6506,0.00198885,1.06238,19.418,892.651,2.04097,0.0,0.0
2967,741.5,85.3414,98.3145,111.219,113.853,90.7912,0.00316002,1.12245,19.3194,890.739,2.02742,0.0,0.0
3010,752.25,91.4655,105.742,117.438,113.843,90.3593,0.0031997,1.14681,19.2863,888.937,2.0694,0.0,0.0
3053,763,95.9673,111.399,121.177,113.854,88.6899,0.00383698,1.18091,19.231,886.966,2.23724,0.0,0.0
3096,773.75,101.613,117.896,115.343,113.868,88.2936,0.00479239,1.24098,19.1306,884.904,2.2785,0.0,0.0
3139,784.5,107.303,124.78,121.799,113.866,88.6923,0.00550248,1.34611,18.9815,882.802,2.23797,0.0,0.0
3182,795.25,111.826,129.926,117.055,113.934,87.3008,0.00582608,1.32324,19.0171,880.84,2.38498,0.0,0.0
3225,806,113.913,132.071,115.896,114.059,86.6756,0.00511741,1.19913,19.2102,878.718,2.45919,0.0,0.0
3268,816.75,112.883,130.723,123.952,114.197,87.6587,0.00484084,1.08659,19.3709,876.837,2.36895,0.0,0.0
3311,827.5,112.186,129.55,121.921,114.417,85.7729,0.00458641,1.02721,19.4618,875.155,2.58101,0.0,0.0
3354,838.25,109.377,125.739,129.111,114.739,87.7202,0.0023773,0.859939,19.7172,873.824,2.40509,0.0,0.0
3397,849,104.376,119.4,126.107,114.974,93.9824,-0.000402865,0.674018,20.0176,872.563,1.8058,0.0,0.0
3440,859.75,97.6445,110.789,140.161,115.176,97.6768,-0.00366733,0.467772,20.3484,871.432,1.47616,0.0,0.0
3483,870.5,89.3869,100.51,143.85,115.416,102.311,-0.00649486,0.289297,20.6329,871.132,1.07959,0.0,0.0
3526,881.25,80.8856,89.8316,158.608,115.578,107.897,-0.00801784,0.17799,20.8068,870.831,0.615969,0.0,0.0
3569,892,70.7084,78.1272,154.787,115.684,113.214,-0.00975213,0.0615747,20.9786,870.951,0.193303,0.0,0.0
3612,902.75,63.6435,68.4169,157.282,115.782,113.289,-0.00992025,0.046606,21.0033,871.031,0.194991,0.0,0.0
3655,913.5,57.9526,61.2634,154.177,115.794,113.763,-0.00966823,0.0445534,21.0023,870.961,0.158503,0.0,0.0
3698,924.25,53.0174,55.6625,157.579,115.733,113.521,-0.0100973,0.0438524,21.0043,870.951,0.172832,0.0,0.0
3741,935,49.4385,51.3099,155.725,115.563,113.479,-0.0101785,0.0432228,21.0063,870.891,0.162994,0.0,0.0
3784,945.75,46.2316,47.6675,157.515,115.427,113.926,-0.00994857,0.0429377,21.0087,870.901,0.117219,0.0,0.0
3827,956.5,43.1635,44.8117,150.652,116.109,114.517,-0.0099134,0.0425563,21.0079,870.951,0.123638,0.0,0.0
3870,967.25,42.5788,42.0589,156.921,116.32,114.47,-0.00991891,0.0424763,21.0057,870.921,0.143651,0.0,0.0
3913,978,40.3741,40.752,154.852,115.966,113.483,-0.00982593,0.0420364,21.0079,870.891,0.19391,0.0,0.0
3956,988.75,38.9506,38.3381,155.319,115.608,114.788,-0.00989786,0.0416839,21.0116,870.961,0.0637533,0.0,0.0
3999,999.5,37.6595,37.1508,158.795,115.982,114.763,,0.0416299,,870.951,0.0946085,0.0,0.0
4035,1008.5,36.1713,35.9206,156.579,116.25,114.407,,,,870.881,0.143136,0.0,0.0