Folder: fsri_materials_database/01_Data/Nylon/HFM

Note: 01_Data/README.md
# Materials and Products Database
## 01_Data

Raw data generated from each apparatus are included here in plain-text format. The data is organized first by material, next by the short name of test apparatus used, and where applicable additional filtering by test settings.

### material.json

Each material directory contains a json file of the same name as the material. This file links the data stored in the repository as well as data and graphs produced by the accompanying scripts (__02_Scripts__) to the respective landing page for the material on the front-end website.

File: Nylon_Density_Wet_R1.csv
,Nylon_Carpet_High_Pile_WET_1
Sample Mass [g],109.8
Sample Volume [cm3],572.7
Sample Density [kg/m3],192

File: Nylon_Density_Wet_R2.csv
,Nylon_Carpet_High_Pile_WET_2
Sample Mass [g],110.6
Sample Volume [cm3],579.4
Sample Density [kg/m3],191