Folder: fsri_materials_database/01_Data/Nylon/MCC (part 2)

File: Nylon_MCC_30K_min_220330_R3.txt
Sample ID:	C:\MCC\MCC Cal\Test\Nylon_MCC_30K_min_220330_R3.txt
Sample Weight (mg):	4.31
Heating Rate (C/s):	0.5
Combustor Temp (C):	900
N2 Flow Rate (cc/min):	80
O2 Flow Rate (cc/min):	20
Calibration File:	C:\MCC\MCC Cal\Coeff1 JN10440_30_210304.txt.txt
T Correction Coefficients:	0	1.024463	0
Time Shift (s):	14
*
Time (s)	Temperature (C)	N2 flow rate (cc/min)	O2 flow rate (cc/min)	Flow Rate (cc/min)	Oxygen (%)	HRR (W/g)	Heating rate (C/s)
0.000	106.570	80.016	19.998	103.687	20.070	0.178	-0.010
8.000	106.536	80.015	19.993	103.694	20.070	0.231	-0.012
16.000	106.607	80.009	19.993	103.741	20.062	0.776	0.001
24.000	106.954	80.014	19.991	103.746	20.048	1.877	0.036
32.000	107.652	80.009	19.996	103.834	20.044	2.148	0.101
40.000	108.809	80.010	19.995	103.884	20.033	2.977	0.166
48.001	110.379	80.010	19.994	103.888	20.031	3.125	0.214
56.000	112.256	80.014	19.995	103.898	20.035	2.866	0.266
64.000	114.399	80.015	19.990	103.919	20.026	3.477	0.263
72.000	116.844	80.013	19.997	103.924	20.026	3.541	0.319
80.000	119.515	80.013	19.991	103.922	20.027	3.430	0.328
88.000	122.416	80.014	19.991	103.935	20.025	3.559	0.356
96.000	125.601	80.012	19.991	103.938	20.027	3.436	0.416
104.000	128.805	80.012	19.989	103.926	20.031	3.162	0.406
112.000	132.204	80.010	19.991	103.935	20.027	3.411	0.435
120.000	135.770	80.014	19.990	103.940	20.026	3.507	0.475
128.000	139.381	80.010	19.995	103.935	20.032	3.076	0.450
136.000	143.068	80.015	19.994	103.918	20.033	2.960	0.459
144.000	146.858	80.013	19.993	103.906	20.033	2.961	0.456
152.000	150.598	80.013	19.990	103.915	20.039	2.554	0.475
160.000	154.372	80.010	19.995	103.932	20.040	2.458	0.448
168.000	158.247	80.012	19.991	103.915	20.035	2.840	0.490
176.000	162.069	80.013	19.988	103.897	20.032	3.017	0.474
184.000	165.915	80.008	19.992	103.901	20.036	2.784	0.453
192.000	169.742	80.011	19.993	103.896	20.041	2.406	0.427
200.000	173.682	80.012	19.993	103.896	20.040	2.454	0.453
208.000	177.597	80.012	19.992	103.897	20.043	2.233	0.507
216.000	181.536	80.013	19.988	103.900	20.046	1.984	0.450
224.000	185.550	80.013	19.994	103.895	20.046	2.023	0.502
232.000	189.506	80.005	19.995	103.899	20.045	2.056	0.480
240.000	193.424	80.006	19.991	103.874	20.046	1.994	0.525
248.000	197.361	80.012	19.996	103.896	20.045	2.102	0.480
256.000	201.346	80.014	19.992	103.880	20.045	2.085	0.527
264.000	205.288	80.014	19.994	103.880	20.046	1.977	0.498
272.000	209.222	80.007	19.993	103.883	20.048	1.834	0.508
280.000	213.165	80.010	19.993	103.880	20.045	2.102	0.513
288.000	217.130	80.010	19.997	103.868	20.049	1.756	0.534
296.000	221.066	80.010	19.993	103.875	20.052	1.551	0.473
304.000	225.130	80.011	19.994	103.858	20.050	1.700	0.541
312.000	229.070	80.015	19.992	103.860	20.047	1.904	0.458
320.000	232.966	80.013	19.995	103.853	20.052	1.528	0.472
328.000	236.920	80.013	19.994	103.848	20.061	0.861	0.511
336.000	240.858	80.012	19.989	103.851	20.053	1.463	0.498
344.000	244.827	80.009	20.000	103.851	20.057	1.143	0.495
352.000	248.964	80.008	19.993	103.864	20.053	1.494	0.552
360.000	253.051	80.010	19.993	103.845	20.052	1.556	0.473
368.000	256.963	80.011	19.994	103.838	20.056	1.257	0.469
376.000	260.815	80.011	19.992	103.850	20.057	1.160	0.492
384.000	264.603	80.012	19.994	103.858	20.053	1.488	0.472
392.000	268.525	80.013	19.993	103.843	20.060	0.933	0.473
400.000	272.478	80.013	19.994	103.841	20.056	1.212	0.485
408.000	276.424	80.014	19.993	103.835	20.059	0.989	0.511
416.000	280.331	80.013	19.994	103.839	20.058	1.122	0.471
424.000	284.257	80.010	19.994	103.831	20.059	0.999	0.506
432.000	288.231	80.013	19.993	103.833	20.060	0.925	0.489
440.000	292.243	80.011	19.992	103.830	20.067	0.393	0.504
448.000	296.149	80.013	19.993	103.821	20.064	0.632	0.462
456.000	300.213	80.012	19.994	103.822	20.061	0.860	0.430
464.000	304.014	80.017	19.994	103.836	20.061	0.864	0.498
472.000	308.185	80.012	19.992	103.826	20.062	0.779	0.463
480.000	312.254	80.010	19.994	103.825	20.066	0.476	0.502
488.000	316.339	80.012	19.994	103.827	20.066	0.495	0.515
496.000	320.460	80.015	19.993	103.817	20.068	0.366	0.531
504.000	324.471	80.012	19.992	103.814	20.066	0.476	0.505
512.000	328.517	80.010	19.995	103.819	20.065	0.555	0.522
520.000	332.529	80.011	19.993	103.818	20.068	0.320	0.505
528.000	336.585	80.010	19.994	103.821	20.077	-0.364	0.525
536.000	340.619	80.010	19.994	103.819	20.075	-0.202	0.498
544.000	344.675	80.010	19.994	103.824	20.074	-0.071	0.485
552.000	348.681	80.012	19.993	103.814	20.071	0.085	0.475
560.000	352.658	80.013	19.992	103.812	20.075	-0.145	0.516
568.000	356.606	80.013	19.991	103.814	20.069	0.239	0.477
576.000	360.555	80.016	19.994	103.820	20.058	1.083	0.469
584.000	364.570	80.014	19.994	103.817	20.053	1.467	0.493
592.000	368.567	80.011	19.993	103.823	20.043	2.252	0.498
600.000	372.737	80.011	19.993	103.828	20.040	2.450	0.518
608.001	376.851	80.012	19.993	103.823	20.021	3.881	0.547
616.000	380.966	80.008	19.994	103.822	20.003	5.233	0.526
624.000	385.035	80.011	19.994	103.823	19.984	6.641	0.498
632.000	389.150	80.012	19.992	103.822	19.955	8.821	0.497
640.000	393.312	80.011	19.992	103.810	19.931	10.606	0.518
648.000	397.391	80.013	19.994	103.823	19.877	14.712	0.441
656.000	401.550	80.015	19.992	103.824	19.805	20.135	0.510
664.000	405.583	80.012	19.993	103.852	19.716	26.825	0.475
672.000	409.643	80.010	19.993	103.860	19.577	37.242	0.525
680.000	413.660	80.010	19.994	103.864	19.406	50.167	0.488
688.001	417.661	80.012	19.993	103.872	19.209	64.972	0.472
696.000	421.755	80.011	19.994	103.885	18.991	81.349	0.518
704.000	425.770	80.011	19.996	103.891	18.736	100.522	0.529
712.000	429.637	80.013	19.995	103.888	18.462	121.097	0.474
720.000	433.532	80.012	19.993	103.877	18.182	142.137	0.494
728.000	437.384	80.011	19.992	103.870	17.919	161.939	0.508
736.000	441.227	80.014	19.993	103.878	17.649	182.170	0.487
744.000	445.099	80.010	19.992	103.860	17.399	200.901	0.485
752.000	449.072	80.012	19.993	103.827	17.157	219.011	0.518
760.000	453.069	80.013	19.994	103.815	16.926	236.323	0.476
768.000	457.070	80.011	19.994	103.768	16.718	251.914	0.490
776.000	461.005	80.010	19.993	103.747	16.563	263.527	0.474
784.000	464.903	80.010	19.993	103.741	16.497	268.460	0.518
792.000	468.900	80.012	19.993	103.720	16.540	265.200	0.531
800.001	472.980	80.009	19.995	103.706	16.747	249.624	0.530
808.000	477.230	80.012	19.992	103.691	17.153	219.119	0.563
816.000	481.553	80.013	19.992	103.676	17.742	174.940	0.522
824.000	486.008	80.012	19.994	103.668	18.456	121.388	0.550
832.000	490.349	80.011	19.994	103.731	19.141	69.966	0.484
840.000	494.895	80.011	19.993	103.783	19.622	33.831	0.570
848.000	499.227	80.011	19.992	103.782	19.881	14.403	0.534
856.001	503.533	80.008	19.993	103.770	20.006	4.991	0.564
864.001	507.733	80.010	19.993	103.747	20.063	0.754	0.532
872.000	511.920	80.011	19.992	103.742	20.078	-0.390	0.483
880.000	516.151	80.012	19.993	103.716	20.092	-1.451	0.526
888.001	520.275	80.011	19.994	103.709	20.096	-1.721	0.491
896.000	524.366	80.013	19.993	103.740	20.098	-1.939	0.509
904.000	528.428	80.011	19.993	103.742	20.099	-2.016	0.542
912.000	532.432	80.010	19.994	103.756	20.107	-2.552	0.488
920.001	536.394	80.009	19.993	103.747	20.108	-2.694	0.512
928.000	540.351	80.010	19.994	103.767	20.109	-2.758	0.475
936.001	544.586	80.011	19.993	103.785	20.109	-2.771	0.532
944.000	549.051	80.010	19.993	103.789	20.113	-3.043	0.567
952.000	553.659	80.012	19.993	103.774	20.111	-2.903	0.588
960.000	558.342	80.011	19.994	103.773	20.116	-3.289	0.591
968.000	563.019	80.010	19.993	103.774	20.116	-3.277	0.562
976.000	567.597	80.011	19.994	103.758	20.115	-3.187	0.552
984.000	572.038	80.011	19.994	103.759	20.118	-3.391	0.541
992.000	576.433	80.009	19.993	103.754	20.118	-3.412	0.528
1000.000	580.547	80.011	19.992	103.753	20.120	-3.557	0.494
1008.000	584.556	80.012	19.993	103.749	20.124	-3.835	0.518
1016.000	588.500	80.010	19.993	103.746	20.122	-3.737	0.528
1024.001	592.436	80.011	19.993	103.744	20.125	-3.926	0.484
1032.000	596.364	80.012	19.994	103.753	20.125	-3.953	0.505
1040.000	600.320	80.010	19.993	103.746	20.124	-3.860	0.482
1048.000	604.363	80.011	19.993	103.746	20.128	-4.159	0.531
1056.001	608.306	80.012	19.992	103.760	20.131	-4.383	0.476
1064.000	612.383	80.010	19.994	103.744	20.129	-4.250	0.480
1072.000	616.457	80.009	19.994	103.743	20.129	-4.227	0.516
1080.001	620.451	80.010	19.995	103.755	20.134	-4.593	0.486
1088.000	624.473	80.010	19.993	103.749	20.133	-4.552	0.491
1096.000	628.625	80.010	19.993	103.768	20.131	-4.381	0.532
1104.000	632.789	80.010	19.994	103.742	20.133	-4.510	0.505
1112.001	637.017	80.013	19.992	103.745	20.135	-4.674	0.537
1120.001	641.050	80.012	19.994	103.748	20.139	-4.975	0.498
1128.000	645.105	80.012	19.994	103.749	20.143	-5.259	0.473
1136.000	649.243	80.013	19.993	103.749	20.145	-5.419	0.523
1144.000	653.344	80.010	19.994	103.742	20.139	-4.995	0.466
1152.000	657.547	80.010	19.993	103.745	20.140	-5.027	0.492
1160.000	661.650	80.009	19.994	103.746	20.143	-5.251	0.533
1168.000	665.608	80.009	19.994	103.743	20.139	-5.000	0.491
1176.001	669.736	80.008	19.994	103.741	20.140	-5.056	0.507
1184.000	673.944	80.010	19.995	103.763	20.144	-5.371	0.533
1192.000	678.344	80.013	19.993	103.745	20.147	-5.563	0.547
1200.000	682.808	80.012	19.994	103.748	20.147	-5.566	0.594
1208.000	687.143	80.011	19.993	103.743	20.145	-5.412	0.507
1216.000	691.303	80.012	19.993	103.741	20.149	-5.708	0.500
1224.000	695.294	80.010	19.993	103.746	20.150	-5.838	0.520
1232.001	699.219	80.009	19.993	103.745	20.154	-6.111	0.466
1240.000	703.119	80.010	19.994	103.745	20.151	-5.893	0.517
1248.000	707.028	80.010	19.994	103.746	20.156	-6.270	0.483
1256.000	711.047	80.008	19.994	103.752	20.157	-6.332	0.502
1264.000	715.149	80.010	19.995	103.748	20.160	-6.568	0.519
1272.000	719.391	80.011	19.993	103.755	20.154	-6.128	0.511
1280.001	723.742	80.010	19.993	103.754	20.158	-6.380	0.542
1288.000	728.029	80.009	19.993	103.754	20.159	-6.516	0.562
1296.000	732.375	80.011	19.994	103.749	20.159	-6.462	0.562
1304.000	736.519	80.010	19.994	103.762	20.162	-6.727	0.542
1312.000	740.559	80.010	19.993	103.753	20.161	-6.601	0.505
1319.500	744.141	80.010	19.993	103.749	20.159	-6.486	0.489