Folder: fsri_materials_database/01_Data/Nylon/MCC

Note: 01_Data/README.md
# Materials and Products Database
## 01_Data

Raw data generated from each apparatus are included here in plain-text format. The data is organized first by material, next by the short name of test apparatus used, and where applicable additional filtering by test settings.

### material.json

Each material directory contains a json file of the same name as the material. This file links the data stored in the repository as well as data and graphs produced by the accompanying scripts (__02_Scripts__) to the respective landing page for the material on the front-end website.

File: Nylon_MCC_30K_min_220329_R1.txt
Sample ID:	C:\MCC\MCC Cal\Test\nylon_MCC_30K_min_220329_R1.txt
Sample Weight (mg):	4.58
Heating Rate (C/s):	0.5
Combustor Temp (C):	900
N2 Flow Rate (cc/min):	80
O2 Flow Rate (cc/min):	20
Calibration File:	C:\MCC\MCC Cal\Coeff1 JN10440_30_210304.txt.txt
T Correction Coefficients:	0	1.024463	0
Time Shift (s):	14
*
Time (s)	Temperature (C)	N2 flow rate (cc/min)	O2 flow rate (cc/min)	Flow Rate (cc/min)	Oxygen (%)	HRR (W/g)	Heating rate (C/s)
0.000	111.526	80.010	19.994	103.669	20.054	-0.163	-0.024
8.000	111.520	80.011	19.993	103.662	20.055	-0.206	0.027
16.000	111.490	80.012	19.993	103.734	20.051	0.088	0.003
24.000	111.647	80.010	19.992	103.830	20.037	1.059	0.062
32.001	112.313	80.008	19.992	103.850	20.022	2.119	0.101
40.000	113.421	80.009	19.993	103.852	20.021	2.179	0.183
48.000	114.805	80.010	19.993	103.841	20.019	2.349	0.204
56.000	116.439	80.008	19.993	103.853	20.023	2.053	0.231
64.000	118.329	80.009	19.994	103.864	20.018	2.374	0.240
72.000	120.427	80.011	19.994	103.872	20.017	2.503	0.273
80.001	122.793	80.011	19.992	103.870	20.012	2.845	0.305
88.001	125.238	80.009	19.994	103.880	20.016	2.522	0.294
96.000	127.901	80.010	19.994	103.885	20.013	2.751	0.365
104.000	130.704	80.011	19.992	103.881	20.016	2.560	0.357
112.000	133.591	80.010	19.992	103.899	20.019	2.328	0.393
120.001	136.627	80.011	19.994	103.874	20.013	2.776	0.370
128.000	139.637	80.011	19.993	103.896	20.016	2.511	0.371
136.000	142.869	80.011	19.992	103.887	20.016	2.562	0.449
144.000	146.225	80.011	19.994	103.898	20.011	2.865	0.420
152.000	149.584	80.010	19.994	103.892	20.013	2.741	0.403
160.000	153.055	80.009	19.993	103.905	20.015	2.631	0.438
168.000	156.546	80.010	19.994	103.866	20.010	2.971	0.455
176.000	160.187	80.012	19.995	103.893	20.012	2.816	0.468
184.001	163.792	80.013	19.993	103.903	20.012	2.844	0.453
192.000	167.590	80.009	19.995	103.887	20.019	2.326	0.462
200.000	171.381	80.009	19.991	103.899	20.018	2.390	0.474
208.000	175.250	80.010	19.993	103.872	20.018	2.371	0.501
216.000	179.077	80.010	19.992	103.891	20.019	2.334	0.496
224.000	182.956	80.010	19.993	103.868	20.019	2.309	0.500
232.000	186.892	80.011	19.992	103.889	20.016	2.549	0.474
240.000	190.864	80.013	19.993	103.872	20.020	2.234	0.516
248.000	194.742	80.013	19.992	103.869	20.018	2.393	0.457
256.000	198.772	80.011	19.993	103.863	20.018	2.376	0.498
264.000	202.719	80.013	19.993	103.866	20.020	2.279	0.497
272.000	206.719	80.012	19.992	103.864	20.020	2.285	0.498
280.000	210.680	80.009	19.993	103.865	20.021	2.181	0.467
288.001	214.796	80.010	19.994	103.856	20.025	1.930	0.521
296.000	218.725	80.012	19.994	103.861	20.024	1.969	0.449
304.000	222.759	80.011	19.993	103.832	20.019	2.340	0.492
312.000	226.663	80.010	19.993	103.878	20.026	1.854	0.478
320.000	230.650	80.011	19.991	103.846	20.029	1.603	0.546
328.000	234.543	80.012	19.992	103.842	20.021	2.185	0.481
336.000	238.485	80.011	19.993	103.848	20.027	1.788	0.497
344.000	242.502	80.013	19.993	103.829	20.026	1.833	0.490
352.000	246.556	80.012	19.994	103.826	20.026	1.848	0.533
360.000	250.756	80.009	19.992	103.844	20.030	1.584	0.547
368.000	254.708	80.011	19.994	103.834	20.030	1.579	0.458
376.000	258.762	80.010	19.994	103.833	20.034	1.237	0.500
384.000	262.666	80.011	19.995	103.831	20.033	1.305	0.523
392.000	266.537	80.011	19.995	103.825	20.032	1.391	0.440
400.000	270.414	80.011	19.993	103.808	20.033	1.301	0.487
408.000	274.267	80.011	19.992	103.805	20.040	0.834	0.473
416.000	278.048	80.010	19.992	103.829	20.037	1.041	0.483
424.000	281.877	80.010	19.992	103.818	20.037	1.045	0.475
432.000	285.677	80.013	19.991	103.817	20.036	1.124	0.472
440.000	289.378	80.010	19.992	103.816	20.036	1.111	0.458
448.000	293.273	80.011	19.993	103.809	20.031	1.486	0.461
456.000	297.155	80.010	19.994	103.819	20.033	1.358	0.463
464.000	301.020	80.011	19.994	103.824	20.036	1.115	0.471
472.000	304.965	80.009	19.993	103.823	20.033	1.338	0.495
480.000	308.917	80.012	19.994	103.822	20.033	1.317	0.501
488.000	312.986	80.011	19.993	103.823	20.035	1.165	0.549
496.000	317.043	80.010	19.993	103.820	20.038	1.008	0.539
504.000	321.148	80.011	19.994	103.814	20.035	1.187	0.584
512.000	325.329	80.013	19.994	103.815	20.030	1.558	0.618
520.000	329.568	80.012	19.993	103.817	20.039	0.939	0.530
528.000	333.762	80.011	19.994	103.771	20.037	1.025	0.533
536.000	337.876	80.010	19.992	103.800	20.041	0.762	0.500
544.000	341.872	80.011	19.993	103.818	20.042	0.688	0.477
552.000	345.880	80.009	19.994	103.788	20.040	0.819	0.510
560.000	349.804	80.009	19.993	103.808	20.038	0.986	0.503
568.000	353.723	80.011	19.994	103.815	20.030	1.546	0.486
576.000	357.586	80.012	19.993	103.785	20.032	1.441	0.478
584.000	361.546	80.012	19.994	103.829	20.026	1.846	0.515
592.000	365.631	80.012	19.993	103.811	20.016	2.560	0.486
600.000	369.960	80.013	19.994	103.817	20.006	3.258	0.560
608.000	374.246	80.009	19.993	103.828	19.993	4.178	0.547
616.000	378.669	80.011	19.993	103.824	19.966	6.069	0.558
624.000	383.063	80.010	19.993	103.832	19.938	8.044	0.537
632.000	387.335	80.010	19.994	103.796	19.904	10.441	0.543
640.000	391.567	80.010	19.994	103.820	19.864	13.276	0.497
648.000	395.887	80.011	19.994	103.836	19.809	17.163	0.563
656.000	400.197	80.013	19.992	103.832	19.748	21.470	0.543
664.000	404.383	80.012	19.995	103.824	19.641	29.037	0.535
672.000	408.399	80.011	19.994	103.854	19.471	41.150	0.508
680.000	412.392	80.011	19.992	103.876	19.244	57.208	0.490
688.000	416.294	80.009	19.993	103.880	18.956	77.570	0.478
696.000	420.434	80.010	19.993	103.906	18.658	98.658	0.525
704.000	424.631	80.010	19.992	103.920	18.369	119.099	0.507
712.000	428.864	80.012	19.994	103.829	18.087	139.038	0.542
720.000	432.935	80.009	19.992	103.866	17.835	156.857	0.474
728.000	436.890	80.011	19.993	103.891	17.522	178.986	0.492
736.000	440.672	80.011	19.994	103.828	17.181	203.000	0.452
744.000	444.319	80.010	19.993	103.775	16.899	222.822	0.471
752.000	448.020	80.011	19.993	103.808	16.616	242.766	0.468
760.000	451.781	80.012	19.993	103.751	16.387	258.908	0.450
768.000	455.500	80.011	19.995	103.731	16.280	266.461	0.454
776.000	459.185	80.010	19.995	103.705	16.259	267.959	0.458
784.000	462.936	80.010	19.993	103.708	16.349	261.558	0.430
792.000	466.838	80.011	19.993	103.723	16.567	246.211	0.501
800.000	470.985	80.008	19.991	103.644	16.968	217.785	0.494
808.000	475.361	80.009	19.992	103.671	17.511	179.467	0.547
816.000	479.764	80.011	19.994	103.665	18.125	136.144	0.545
824.000	484.199	80.012	19.992	103.716	18.732	93.292	0.560
832.000	488.618	80.011	19.993	103.771	19.242	57.279	0.533
840.000	493.074	80.012	19.994	103.783	19.600	31.949	0.539
848.000	497.535	80.014	19.991	103.776	19.823	16.145	0.561
856.000	501.869	80.012	19.994	103.770	19.938	8.018	0.543
864.000	506.124	80.011	19.993	103.756	19.992	4.218	0.541
872.000	510.331	80.012	19.994	103.739	20.014	2.713	0.521
880.000	514.533	80.010	19.994	103.740	20.026	1.842	0.555
888.000	518.754	80.010	19.994	103.723	20.030	1.522	0.534
896.000	522.879	80.012	19.992	103.716	20.031	1.444	0.523
904.000	526.966	80.012	19.992	103.715	20.036	1.098	0.499
912.000	531.105	80.011	19.992	103.742	20.035	1.180	0.527
920.000	535.148	80.012	19.991	103.743	20.037	1.054	0.514
928.000	539.170	80.011	19.992	103.745	20.037	1.044	0.497
936.000	543.260	80.010	19.993	103.755	20.037	1.040	0.503
944.000	547.215	80.010	19.992	103.749	20.032	1.376	0.500
952.000	551.259	80.010	19.993	103.753	20.033	1.304	0.486
960.000	555.359	80.010	19.994	103.768	20.041	0.745	0.542
968.000	559.493	80.010	19.994	103.760	20.042	0.727	0.560
976.000	563.591	80.012	19.993	103.748	20.038	0.976	0.489
984.000	567.718	80.013	19.993	103.752	20.042	0.677	0.515
992.000	571.840	80.012	19.993	103.753	20.041	0.791	0.537
1000.000	576.029	80.011	19.993	103.751	20.046	0.393	0.546
1008.000	580.082	80.014	19.992	103.753	20.044	0.585	0.520
1016.000	584.243	80.011	19.991	103.755	20.043	0.653	0.479
1024.000	588.452	80.009	19.994	103.753	20.041	0.743	0.532
1032.000	592.561	80.011	19.994	103.746	20.040	0.849	0.539
1040.000	596.767	80.013	19.991	103.754	20.041	0.754	0.491
1048.000	600.965	80.012	19.994	103.761	20.040	0.844	0.512
1056.000	605.103	80.010	19.994	103.756	20.039	0.933	0.530
1064.000	609.178	80.009	19.994	103.746	20.038	1.009	0.514
1072.000	613.267	80.013	19.994	103.747	20.041	0.768	0.480
1080.000	617.363	80.010	19.993	103.750	20.041	0.776	0.504
1088.000	621.488	80.012	19.991	103.749	20.041	0.776	0.489
1096.000	625.602	80.015	19.993	103.745	20.043	0.645	0.533
1104.001	629.664	80.010	19.993	103.739	20.044	0.589	0.510
1112.000	633.752	80.011	19.992	103.751	20.044	0.552	0.527
1120.000	637.702	80.012	19.994	103.746	20.043	0.595	0.496
1128.000	641.734	80.008	19.994	103.745	20.048	0.249	0.540
1136.000	645.675	80.008	19.992	103.750	20.039	0.908	0.485
1144.000	649.794	80.012	19.994	103.750	20.041	0.766	0.502
1152.000	653.827	80.010	19.994	103.748	20.040	0.847	0.543
1160.000	657.858	80.009	19.992	103.742	20.047	0.328	0.536
1168.000	661.862	80.013	19.993	103.742	20.042	0.698	0.513
1176.000	665.861	80.012	19.993	103.736	20.040	0.847	0.469
1184.001	669.778	80.010	19.993	103.745	20.038	0.984	0.510
1192.000	673.774	80.011	19.994	103.753	20.040	0.867	0.469
1200.000	677.867	80.010	19.992	103.747	20.045	0.486	0.510
1208.000	682.039	80.011	19.991	103.746	20.043	0.603	0.521
1216.001	686.228	80.010	19.994	103.749	20.050	0.134	0.541
1224.001	690.313	80.009	19.995	103.750	20.046	0.398	0.500
1232.001	694.355	80.014	19.995	103.747	20.045	0.492	0.515
1240.001	698.323	80.013	19.994	103.740	20.042	0.721	0.423
1248.000	702.399	80.013	19.994	103.744	20.038	0.964	0.505
1256.001	706.440	80.015	19.994	103.744	20.039	0.902	0.536
1264.000	710.536	80.010	19.993	103.749	20.040	0.834	0.480
1272.000	714.697	80.012	19.992	103.751	20.039	0.919	0.516
1280.000	718.859	80.009	19.991	103.739	20.036	1.088	0.493
1288.000	722.927	80.011	19.993	103.744	20.033	1.353	0.557
1296.000	726.974	80.009	19.992	103.749	20.038	0.984	0.524
1304.001	730.987	80.010	19.993	103.748	20.037	1.018	0.456
1312.000	735.130	80.012	19.994	103.747	20.038	0.997	0.490
1320.000	739.182	80.011	19.992	103.744	20.033	1.320	0.499
1328.000	743.187	80.010	19.994	103.731	20.032	1.380	0.481
1329.000	743.701	80.011	19.994	103.737	20.035	1.184	0.498

File: Nylon_MCC_30K_min_220329_R2.txt
Sample ID:	C:\MCC\MCC Cal\Test\Nylon_MCC_30K_min_220329_R2.txt
Sample Weight (mg):	4.39
Heating Rate (C/s):	0.5
Combustor Temp (C):	900
N2 Flow Rate (cc/min):	80
O2 Flow Rate (cc/min):	20
Calibration File:	C:\MCC\MCC Cal\Coeff1 JN10440_30_210304.txt.txt
T Correction Coefficients:	0	1.024463	0
Time Shift (s):	14
*
Time (s)	Temperature (C)	N2 flow rate (cc/min)	O2 flow rate (cc/min)	Flow Rate (cc/min)	Oxygen (%)	HRR (W/g)	Heating rate (C/s)
0.000	108.818	80.012	19.993	103.656	19.994	0.376	-0.000
8.000	108.810	80.011	19.994	103.651	19.997	0.151	-0.017
16.000	108.872	80.014	19.994	103.647	19.993	0.459	0.062
24.000	108.978	80.011	19.994	103.696	19.988	0.859	0.028
32.000	109.252	80.011	19.994	103.806	19.976	1.724	0.051
40.000	109.975	80.011	19.994	103.825	19.965	2.574	0.140
48.000	111.071	80.008	19.994	103.859	19.955	3.269	0.140
56.000	112.571	80.010	19.994	103.875	19.957	3.108	0.216
64.000	114.526	80.011	19.993	103.902	19.949	3.739	0.218
72.000	116.819	80.013	19.993	103.900	19.948	3.782	0.295
80.000	119.325	80.010	19.994	103.902	19.946	3.987	0.339
88.000	122.172	80.011	19.993	103.913	19.946	3.927	0.373
96.000	125.208	80.013	19.993	103.909	19.946	3.935	0.375
104.000	128.326	80.012	19.991	103.919	19.952	3.507	0.366
112.000	131.713	80.010	19.994	103.913	19.950	3.657	0.447
120.001	135.174	80.011	19.994	103.904	19.953	3.436	0.434
128.000	138.762	80.012	19.992	103.913	19.953	3.449	0.452
136.000	142.385	80.009	19.994	103.915	19.947	3.852	0.453
144.000	146.125	80.010	19.993	103.906	19.952	3.515	0.450
152.000	150.016	80.012	19.996	103.915	19.953	3.420	0.527
160.000	153.864	80.011	19.992	103.904	19.949	3.751	0.477
168.000	157.739	80.011	19.993	103.905	19.949	3.714	0.486
176.000	161.643	80.014	19.993	103.900	19.953	3.440	0.506
184.000	165.642	80.014	19.993	103.894	19.951	3.608	0.526
192.000	169.597	80.012	19.993	103.892	19.954	3.357	0.479
200.000	173.573	80.012	19.994	103.893	19.955	3.315	0.495
208.000	177.566	80.017	19.995	103.893	19.959	2.992	0.498
216.000	181.503	80.009	19.994	103.877	19.963	2.729	0.482
224.000	185.471	80.009	19.994	103.870	19.959	2.969	0.497
232.000	189.476	80.012	19.994	103.871	19.959	2.973	0.479
240.000	193.314	80.010	19.993	103.860	19.958	3.066	0.476
248.000	197.208	80.012	19.995	103.859	19.955	3.255	0.508
256.000	201.120	80.013	19.993	103.859	19.955	3.249	0.476
264.000	205.040	80.014	19.994	103.855	19.956	3.178	0.493
272.000	208.907	80.011	19.995	103.853	19.959	2.995	0.488
280.000	212.801	80.011	19.994	103.856	19.959	3.011	0.518
288.000	216.646	80.011	19.992	103.837	19.960	2.915	0.439
296.000	220.601	80.011	19.992	103.856	19.962	2.798	0.486
304.000	224.590	80.011	19.993	103.866	19.960	2.926	0.521
312.000	228.691	80.012	19.993	103.854	19.961	2.813	0.540
320.000	232.775	80.013	19.994	103.855	19.957	3.148	0.512
328.000	236.891	80.011	19.994	103.833	19.960	2.918	0.530
336.000	240.959	80.012	19.994	103.824	19.964	2.601	0.533
344.000	245.094	80.012	19.993	103.832	19.964	2.621	0.531
352.000	249.427	80.013	19.994	103.824	19.961	2.832	0.570
360.000	253.499	80.010	19.994	103.801	19.964	2.653	0.468
368.000	257.408	80.011	19.993	103.813	19.961	2.837	0.503
376.000	261.154	80.011	19.993	103.822	19.965	2.528	0.472
384.000	264.953	80.010	19.993	103.810	19.966	2.480	0.475
392.001	268.783	80.011	19.996	103.820	19.964	2.639	0.465
400.000	272.646	80.011	19.992	103.822	19.960	2.922	0.497
408.000	276.457	80.011	19.992	103.818	19.960	2.934	0.468
416.000	280.349	80.011	19.994	103.823	19.960	2.885	0.494
424.000	284.289	80.012	19.993	103.823	19.957	3.165	0.511
432.000	288.347	80.012	19.992	103.823	19.958	3.095	0.511
440.000	292.473	80.011	19.994	103.817	19.958	3.086	0.518
448.000	296.545	80.011	19.994	103.800	19.960	2.905	0.545
456.000	300.625	80.011	19.992	103.795	19.961	2.836	0.525
464.000	304.547	80.012	19.993	103.795	19.962	2.802	0.521
472.000	308.500	80.011	19.992	103.789	19.964	2.657	0.476
480.000	312.413	80.012	19.993	103.793	19.961	2.854	0.500
488.001	316.247	80.012	19.993	103.803	19.960	2.899	0.488
496.000	320.077	80.010	19.993	103.805	19.968	2.346	0.479
504.000	323.953	80.013	19.995	103.806	19.967	2.387	0.536
512.000	327.986	80.016	19.994	103.818	19.962	2.744	0.700
520.000	332.029	80.011	19.996	103.819	19.962	2.758	0.533
528.000	336.169	80.010	19.995	103.807	19.965	2.579	0.553
536.000	340.261	80.012	19.993	103.794	19.961	2.872	0.533
544.000	344.307	80.011	19.993	103.799	19.961	2.856	0.488
552.000	348.348	80.011	19.994	103.788	19.957	3.104	0.508
560.000	352.489	80.011	19.992	103.788	19.961	2.836	0.518
568.000	356.529	80.013	19.993	103.790	19.957	3.138	0.481
576.000	360.615	80.014	19.994	103.792	19.953	3.421	0.507
584.000	364.689	80.014	19.993	103.794	19.948	3.769	0.539
592.000	368.678	80.015	19.992	103.784	19.932	4.951	0.523
600.000	372.665	80.013	19.996	103.789	19.925	5.519	0.495
608.000	376.700	80.012	19.994	103.812	19.907	6.807	0.496
616.000	380.726	80.011	19.994	103.798	19.891	8.006	0.517
624.000	384.735	80.011	19.994	103.818	19.856	10.578	0.513
632.000	388.863	80.010	19.994	103.824	19.832	12.358	0.513
640.000	393.100	80.012	19.995	103.806	19.806	14.291	0.558
648.000	397.229	80.012	19.992	103.822	19.741	19.087	0.491
656.000	401.370	80.013	19.993	103.821	19.662	24.913	0.497
664.000	405.487	80.011	19.993	103.830	19.549	33.284	0.528
672.000	409.563	80.014	19.992	103.845	19.396	44.527	0.516
680.000	413.532	80.013	19.993	103.861	19.194	59.497	0.468
688.000	417.530	80.010	19.993	103.867	18.963	76.552	0.486
696.000	421.463	80.010	19.994	103.894	18.713	94.931	0.494
704.000	425.411	80.011	19.993	103.880	18.429	115.938	0.516
712.000	429.287	80.011	19.994	103.886	18.139	137.358	0.437
720.000	433.274	80.010	19.994	103.857	17.843	159.141	0.478
728.000	437.207	80.013	19.994	103.860	17.549	180.798	0.485
736.000	441.209	80.012	19.993	103.832	17.279	200.682	0.484
744.000	445.118	80.012	19.994	103.826	17.015	220.155	0.489
752.000	449.091	80.014	19.994	103.776	16.790	236.669	0.504
760.000	453.138	80.013	19.994	103.745	16.585	251.751	0.503
768.000	457.224	80.010	19.994	103.728	16.424	263.595	0.521
776.000	461.291	80.011	19.992	103.741	16.341	269.621	0.501
784.000	465.256	80.012	19.993	103.717	16.329	270.417	0.517
792.000	469.215	80.012	19.995	103.688	16.466	260.331	0.478
800.000	473.270	80.009	19.994	103.668	16.836	233.049	0.498
808.000	477.376	80.011	19.993	103.671	17.403	191.302	0.513
816.000	481.423	80.013	19.993	103.668	18.062	142.866	0.516
824.000	485.582	80.012	19.994	103.690	18.726	93.933	0.549
832.000	489.654	80.012	19.994	103.753	19.244	55.718	0.468
840.000	493.876	80.013	19.993	103.779	19.586	30.520	0.521
848.000	498.125	80.010	19.993	103.782	19.773	16.716	0.511
856.000	502.361	80.012	19.994	103.766	19.864	9.987	0.521
864.000	506.514	80.012	19.994	103.745	19.913	6.386	0.529
872.000	510.637	80.011	19.994	103.742	19.924	5.560	0.493
880.000	514.770	80.010	19.994	103.740	19.937	4.637	0.514
888.000	518.882	80.012	19.995	103.723	19.941	4.346	0.504
896.000	522.918	80.013	19.994	103.724	19.942	4.217	0.512
904.000	526.846	80.012	19.992	103.743	19.945	3.987	0.509
912.000	530.788	80.011	19.994	103.744	19.942	4.213	0.507
920.000	534.739	80.013	19.994	103.743	19.945	4.048	0.488
928.000	538.774	80.010	19.992	103.745	19.947	3.857	0.516
936.000	542.899	80.012	19.994	103.750	19.952	3.497	0.515
944.000	546.994	80.010	19.992	103.763	19.948	3.800	0.515
952.000	551.210	80.011	19.992	103.771	19.951	3.591	0.524
960.000	555.492	80.010	19.994	103.751	19.946	3.956	0.528
968.000	559.595	80.013	19.993	103.760	19.947	3.877	0.497
976.000	563.802	80.013	19.994	103.759	19.942	4.256	0.496
984.000	568.006	80.011	19.993	103.778	19.946	3.923	0.497
992.000	572.151	80.014	19.997	103.761	19.950	3.678	0.540
1000.000	576.400	80.014	19.995	103.774	19.945	4.016	0.536
1008.000	580.719	80.012	19.994	103.767	19.942	4.265	0.525
1016.000	585.118	80.009	19.994	103.773	19.941	4.299	0.552
1024.000	589.676	80.011	19.994	103.781	19.940	4.367	0.555
1032.000	594.273	80.011	19.994	103.752	19.936	4.683	0.589
1040.000	598.872	80.011	19.993	103.770	19.946	3.943	0.590
1048.001	603.357	80.009	19.994	103.767	19.944	4.088	0.591
1056.001	607.811	80.011	19.993	103.756	19.946	3.919	0.563
1064.000	612.026	80.013	19.993	103.752	19.946	3.963	0.500
1072.000	616.254	80.011	19.992	103.754	19.946	3.959	0.497
1080.000	620.332	80.010	19.994	103.751	19.947	3.897	0.507
1088.000	624.442	80.011	19.992	103.750	19.941	4.336	0.492
1096.000	628.437	80.010	19.994	103.755	19.945	4.020	0.513
1104.000	632.413	80.009	19.995	103.747	19.942	4.275	0.502
1112.000	636.497	80.029	20.000	103.753	19.947	3.882	0.559
1120.000	640.483	80.011	19.996	103.744	19.950	3.651	0.484
1128.000	644.378	80.010	19.993	103.745	19.948	3.798	0.453
1136.000	648.337	80.011	19.993	103.750	19.948	3.814	0.499
1144.000	652.227	80.011	19.993	103.749	19.945	4.016	0.503
1152.001	656.238	80.012	19.993	103.750	19.950	3.641	0.479
1160.000	660.318	80.012	19.992	103.749	19.944	4.058	0.514
1168.001	664.296	80.014	19.994	103.743	19.946	3.929	0.498
1176.000	668.178	80.010	19.992	103.744	19.955	3.316	0.490
1184.000	672.112	80.011	19.994	103.740	19.947	3.874	0.479
1192.000	676.185	80.010	19.992	103.750	19.948	3.780	0.456
1200.000	680.114	80.010	19.996	103.747	19.950	3.631	0.466
1208.000	684.070	80.009	19.994	103.744	19.949	3.717	0.507
1216.000	688.104	80.009	19.994	103.760	19.947	3.871	0.525
1224.000	692.383	80.011	19.993	103.752	19.940	4.373	0.537
1232.001	696.722	80.012	19.994	103.755	19.941	4.312	0.551
1240.000	701.011	80.011	19.992	103.755	19.945	4.046	0.538
1248.000	705.401	80.012	19.992	103.748	19.947	3.890	0.545
1256.000	709.765	80.012	19.992	103.743	19.948	3.794	0.577
1264.000	713.986	80.010	19.992	103.746	19.950	3.615	0.506
1272.000	718.274	80.010	19.994	103.745	19.949	3.736	0.521
1280.000	722.490	80.009	19.994	103.747	19.952	3.496	0.527
1288.001	726.669	80.010	19.993	103.751	19.946	3.935	0.523
1296.000	730.887	80.010	19.995	103.746	19.945	4.056	0.513
1304.000	734.916	80.012	19.995	103.743	19.942	4.243	0.512
1312.000	738.794	80.011	19.994	103.743	19.946	3.963	0.504
1320.001	742.607	80.012	19.994	103.739	19.944	4.120	0.480
1326.000	745.480	80.012	19.992	103.744	19.939	4.445	0.476