Folder: fsri_materials_database/02_Data/Overstuffed_Chair/Cone

Note: README.md
# fsri_materials_database
Database of Contemporary Material Properties for Fire Investigation Analysis

File: Overstuffed_Chair_Cone_HF25Scalar_210325_R1.csv
LABORATORY,FSRI
TEST IDENT,FurnitureStack_H25_1
OPERATOR,Morrissey
MATERIAL,1'' PUF-1.75''PEBat-PEFabric
ORIENTATION,Horizontal
HEAT FLUX,25
SURF AREA,0.01
C FACTOR,0.0386052
SPEC HOLDER DIFF,-87.61
SPECIMEN MASS,20.4
SCAN TIME,0.25
O2 DELAY TIME,11
CO DELAY TIME,11
CO2 DELAY TIME,8
FLOW FACTOR,1
SCAN COUNT,1486
TIME TO IGN,59.5
END OF TEST SCAN,1006
END OF TEST TIME,251.5
TEST STATUS,1
PRE TEST CMT,Test w/o retainer grid or frame
POST TEST CMT,"Fabric folded up but when the sample shrunk, it backed away from the spark igniter"

File: Overstuffed_Chair_Cone_HF25Scan_210325_R1.csv
Names,Time,Stack TC,Smoke TC,Exh Press,Smoke Comp,Smoke Meas,CO Meter,CO2 Meter,O2 Meter,Sample Mass,Ext Coeff,Start Test,Flame Verif
Chan Gain,,500,500,1,1,1,1,1,1,1,1,1.0,1.0
Offset,,0,0,0.138348,0,0,0,0,0,0,0,0.0,0.0
Gain,,1,1,25.011,13.5067,16.616,1,1,1,1.00091,1.04608,1.0,1.0
Units,sec,C,C,Pa,%,%,%,%,%,g,/m,,
Baseline,,18.5109,19.7983,169.447,101.462,100.659,-0.000357397,0.0824602,20.8437,-0.192884,0.0729391,,
16,3.75,17.3252,18.177,172.166,101.107,100.291,-0.000274507,0.0966123,20.8234,495.651,0.0743768,0.0,0.0
32,7.75,17.2336,18.1478,170.709,101.05,100.27,-4.48628e-05,0.0984671,20.819,497.103,0.071069,0.0,0.0
48,11.75,17.3115,18.7091,165.063,100.996,100.181,-0.000313533,0.10006,20.8204,495.691,0.0743356,0.0,0.0
64,15.75,17.3501,18.8191,170.301,100.947,100.061,-0.000356351,0.0991337,20.8262,495.231,0.0808458,0.0,0.0
80,19.75,17.549,19.1621,174.251,100.875,100.049,-0.000227521,0.0971486,20.8294,495.461,0.0754857,0.0,0.0
96,23.75,17.2997,19.9339,165.548,100.844,99.9909,-0.000282446,0.0954582,20.8294,495.471,0.0779774,0.0,0.0
112,27.75,18.0254,18.9649,163.268,100.799,100.129,-0.000353199,0.0953151,20.8286,495.501,0.0611547,0.0,0.0
128,31.75,17.5279,19.214,166.188,100.761,99.9559,-0.000228453,0.0956875,20.8249,495.481,0.0736097,0.0,0.0
144,35.75,17.8369,19.404,172.395,100.729,99.211,-0.000280342,0.0977227,20.8184,495.441,0.13932,0.0,0.0
160,39.75,17.7671,19.2219,172.733,100.702,97.5225,-0.00023761,0.100011,20.8164,495.351,0.294438,0.0,0.0
176,43.75,18.0721,19.8014,168.249,100.684,96.7705,-6.08116e-05,0.100477,20.8202,495.271,0.363817,0.0,0.0
192,47.75,17.7988,19.8065,167.513,100.673,96.4556,-0.000116108,0.100021,20.8224,495.221,0.392711,0.0,0.0
208,51.75,17.8285,19.4427,169.102,100.668,96.3374,9.56741e-05,0.100119,20.8213,495.111,0.403469,0.0,0.0
224,55.75,18.2062,20.2496,168.244,100.641,95.4404,0.000372105,0.100384,20.8208,495.051,0.486869,0.0,0.0
240,59.75,18.9311,21.6058,167.14,100.671,99.3677,0.00116898,0.104971,20.7798,494.66,0.119543,0.0,1.0
256,63.75,20.1735,23.9808,157.282,100.641,98.6507,0.00196428,0.14062,20.6801,494.44,0.183252,0.0,1.0
272,67.75,22.4014,27.147,155.717,100.63,97.1594,0.00258161,0.198612,20.5838,494.1,0.322051,0.0,0.0
288,71.75,24.171,29.7951,159.612,100.657,96.3268,0.00320983,0.250925,20.5194,493.83,0.403469,0.0,0.0
304,75.75,26.9738,32.0532,154.309,100.609,94.3811,0.00424119,0.308638,20.4397,493.469,0.586389,0.0,0.0
320,79.75,28.5378,36.4567,154.769,100.607,92.1332,0.00610349,0.359689,20.3821,493.009,0.807394,0.0,0.0
336,83.75,31.3105,39.7995,145.897,100.612,93.2037,0.00760638,0.413511,20.3131,492.488,0.701848,0.0,0.0
352,87.75,32.6546,42.9406,148.582,100.608,92.045,0.00732929,0.448069,20.2934,492.028,0.816298,0.0,0.0
368,91.75,35.7417,45.6323,148.577,100.619,95.2888,0.00714873,0.476838,20.2771,491.708,0.499465,0.0,0.0
384,95.75,36.5143,46.735,160.303,100.623,92.2417,0.00614888,0.480903,20.2997,491.197,0.798021,0.0,0.0
400,99.75,37.5014,48.9188,149.824,100.617,93.2574,0.00564613,0.480532,20.3059,490.877,0.696971,0.0,0.0
416,103.75,38.0979,49.3886,151.475,100.622,90.828,0.005809,0.477638,20.3019,490.446,0.939634,0.0,0.0
432,107.75,39.5094,51.2028,142.151,100.64,93.3685,0.0063989,0.487711,20.2767,490.096,0.688192,0.0,0.0
448,111.75,40.2072,52.3492,144.278,100.653,88.6131,0.00701635,0.498584,20.2641,489.586,1.16899,0.0,0.0
464,115.75,41.1115,53.0684,152.239,100.667,89.2774,0.00744493,0.507149,20.2537,489.125,1.10182,0.0,0.0
480,119.75,42.5361,54.7052,146.097,100.687,87.999,0.00792345,0.521046,20.23,488.695,1.23596,0.0,0.0
496,123.75,43.3883,55.7699,156.571,100.688,89.6886,0.00865131,0.535391,20.2227,488.174,1.06149,0.0,0.0
512,127.75,44.4106,57.2685,148.029,100.698,82.5773,0.0103319,0.54904,20.1982,487.624,1.82045,0.0,0.0
528,131.75,45.679,58.3601,142.842,100.709,87.1826,0.01048,0.56951,20.1869,487.133,1.32352,0.0,0.0
544,135.75,45.8992,59.0662,143.374,100.72,83.5469,0.0101297,0.576159,20.1871,486.613,1.71533,0.0,0.0
560,139.75,46.8397,59.8169,148.994,100.715,88.0979,0.00960193,0.584433,20.1877,486.082,1.22817,0.0,0.0
576,143.75,46.1753,59.5194,149.512,100.743,85.992,0.0097754,0.575955,20.1959,485.642,1.45277,0.0,0.0
592,147.75,48.3408,61.7713,143.238,100.718,83.1468,0.011063,0.595003,20.1415,485.032,1.75919,0.0,0.0
608,151.75,48.246,60.7879,149.208,100.712,88.033,0.0098552,0.598054,20.2161,484.611,1.23463,0.0,0.0
624,155.75,48.1813,59.7648,156.602,100.711,86.5929,0.00897799,0.571206,20.2536,484.151,1.38595,0.0,0.0
640,159.75,47.3306,59.2479,152.566,100.709,88.1045,0.0082484,0.554501,20.2672,483.68,1.227,0.0,0.0
656,163.75,47.0127,57.3838,155.088,100.674,90.3062,0.00751947,0.532576,20.3109,483.31,0.997272,0.0,0.0
672,167.75,46.3683,56.6625,155.023,100.665,87.7384,0.00681688,0.510641,20.3379,482.97,1.26115,0.0,0.0
688,171.75,46.3978,55.6074,144.064,100.652,85.1092,0.0068572,0.493234,20.3437,482.579,1.53917,0.0,0.0
704,175.75,46.296,55.5917,154.274,100.646,88.0796,0.00658999,0.485772,20.3426,482.119,1.22376,0.0,0.0
720,179.75,45.4111,54.3892,149.616,100.645,87.9184,0.00543573,0.470094,20.3913,481.839,1.24054,0.0,0.0
736,183.75,44.4246,52.2871,154.046,100.639,93.4471,0.00467146,0.446315,20.4328,481.568,0.680396,0.0,0.0
752,187.75,43.7058,51.7554,159.996,100.63,96.3227,0.00387425,0.415268,20.4841,481.388,0.401413,0.0,0.0
768,191.75,42.6171,49.8407,154.746,100.612,95.5844,0.00329853,0.381019,20.5251,481.178,0.470401,0.0,0.0
784,195.75,41.6429,48.0029,157.029,100.624,98.7334,0.00318561,0.354695,20.5461,481.048,0.174026,0.0,0.0
800,199.75,40.8836,47.1215,151.168,100.624,97.3014,0.00314032,0.338205,20.5464,480.888,0.308088,0.0,0.0
816,203.75,40.8978,45.9173,161.687,100.607,98.312,0.00328544,0.327098,20.5551,480.738,0.211769,0.0,0.0
832,207.75,39.4262,44.0181,162.023,100.612,99.6137,0.003112,0.305013,20.6,480.597,0.091523,0.0,0.0
848,211.75,38.6266,42.5288,161.565,100.604,99.4331,0.00272742,0.279355,20.6399,480.658,0.107416,0.0,0.0
864,215.75,36.681,41.0559,156.902,100.607,99.6598,0.00254004,0.247983,20.6867,480.638,0.0867857,0.0,0.0
880,219.75,35.6837,38.9311,162.615,100.608,100.164,0.00232907,0.218362,20.7194,480.617,0.0406067,0.0,0.0
896,223.75,35.1036,37.3463,160.183,100.6,100.242,0.00202701,0.193424,20.7409,480.648,0.0326946,0.0,0.0
912,227.75,33.9386,35.9131,165.503,100.597,99.9798,0.00140794,0.172777,20.7602,480.638,0.0564691,0.0,0.0
928,231.75,33.2812,34.2627,163.258,100.585,100.039,0.00116199,0.156168,20.7725,480.567,0.0499819,0.0,0.0
944,235.75,31.8542,33.0726,162.683,100.605,100.001,0.00116557,0.140962,20.7922,480.597,0.0552764,0.0,0.0
960,239.75,30.5729,31.8873,163.929,100.581,100.151,0.00102528,0.128277,20.8039,480.608,0.0392856,0.0,0.0
976,243.75,30.3122,30.8443,164.025,100.581,99.8667,0.00082607,0.119023,20.807,480.608,0.0654252,0.0,0.0
992,247.75,29.5058,29.8036,161.276,100.581,100.202,0.000543456,0.113312,20.8101,480.628,0.0345953,0.0,0.0
1008,251.75,28.7141,29.164,164.431,100.592,100.16,0.000384022,0.108432,20.8162,480.597,0.0395491,0.0,0.0
1024,255.75,27.9293,28.1115,168.586,100.597,100.177,4.8998e-05,0.10493,20.8187,480.638,0.0384675,0.0,0.0
1040,259.75,28.095,27.5963,166.665,100.598,100.155,-6.78141e-05,0.102594,20.8194,480.608,0.0405402,0.0,0.0
1056,263.75,27.5358,27.0671,165.466,100.594,100.028,-2.74849e-05,0.0997352,20.8225,480.628,0.0517017,0.0,0.0
1072,267.75,27.1385,27.0556,169.665,100.596,100.155,-0.0001152,0.0960798,20.8293,480.597,0.0403061,0.0,0.0
1088,271.75,26.684,26.1048,165.962,100.611,100.338,-0.000321117,0.0928265,20.8329,480.608,0.0249121,0.0,0.0
1104,275.75,26.108,26.2876,162.946,100.611,100.191,-0.000396995,0.0900513,20.8342,480.608,0.0383608,0.0,0.0
1120,279.75,25.7997,25.5748,164.992,100.614,100.103,-0.00062559,0.0879226,20.8345,480.628,0.046662,0.0,0.0
1136,283.75,25.5141,25.5956,168.505,100.62,100.274,-0.000319476,0.0866397,20.8345,480.648,0.0315751,0.0,0.0
1152,287.75,25.9572,25.5889,162.535,100.636,100.145,-0.000147997,0.0856893,20.835,480.628,0.0448443,0.0,0.0
1168,291.75,24.8993,25.0942,162.4,100.633,100.027,-0.000287555,0.0849555,20.8353,480.617,0.0554134,0.0,0.0
1184,295.75,25.0899,24.892,166.952,100.642,100.039,-0.000276152,0.0845461,20.8337,480.628,0.0552068,0.0,0.0
1200,299.75,24.8802,24.8047,167.225,100.629,100.069,-0.000243361,0.0843405,20.8345,480.638,0.0512601,0.0,0.0
1216,303.75,24.9471,24.8852,166.712,100.632,100.117,3.17207e-06,0.0843637,20.8349,480.638,0.0470995,0.0,0.0
1232,307.75,24.8069,24.9761,169.128,100.617,100.017,-4.14074e-05,0.0841185,20.8358,480.638,0.0548306,0.0,0.0
1248,311.75,24.2843,25.0791,166.755,100.618,100.085,-0.00018407,0.0842236,20.8371,480.638,0.0486741,0.0,0.0
1264,315.75,24.3636,24.6432,169.257,100.641,100.289,-0.000413114,0.0843573,20.8359,480.638,0.0321834,0.0,0.0
1280,319.75,24.4233,24.5699,164.571,100.635,100.026,-0.000329246,0.0845266,20.8352,480.617,0.055732,0.0,0.0
1296,323.75,24.3763,24.6558,164.875,100.66,99.9554,-0.000220267,0.0845566,20.8346,480.638,0.0644541,0.0,0.0
1312,327.75,24.1361,24.3311,165.089,100.66,99.9955,-0.00036343,0.0843874,20.8344,480.648,0.0608146,0.0,0.0
1328,331.75,23.6954,24.1596,166.5,100.679,100.149,-0.000143722,0.084266,20.8344,480.638,0.0484271,0.0,0.0
1344,335.75,23.5719,23.6702,167.877,100.695,100.002,-0.000202351,0.0840339,20.8361,480.648,0.0633755,0.0,0.0
1360,339.75,23.4459,23.6833,168.062,100.724,100.389,-0.000320397,0.0839222,20.8347,480.628,0.0305525,0.0,0.0
1376,343.75,22.9062,24.3611,168.118,100.732,100.094,-0.000138283,0.0839285,20.8344,480.628,0.0582443,0.0,0.0
1392,347.75,23.2163,24.2189,164.359,100.76,100.201,-0.000120821,0.0838249,20.836,480.648,0.0510404,0.0,0.0
1408,351.75,23.1168,23.5253,165.455,100.782,100.194,-0.000136688,0.0838782,20.8366,480.638,0.0536333,0.0,0.0
1424,355.75,23.3907,24.1029,169.564,100.814,100.192,-0.000321859,0.0837774,20.8355,480.628,0.056792,0.0,0.0
1440,359.75,23.0879,23.7126,163.447,100.83,100.219,-0.000386435,0.0835432,20.8361,480.617,0.055832,0.0,0.0
1456,363.75,22.8413,23.2877,163.603,100.85,100.287,,,,480.658,0.0514135,0.0,0.0
1472,367.75,23.0975,23.0264,164.581,100.84,100.283,,,,480.638,0.0508,0.0,0.0
1486,371.25,22.9469,23.4643,168.01,100.861,100.153,,,,480.628,0.0645986,0.0,0.0

File: Overstuffed_Chair_Cone_HF25Scan_210325_R2.csv
Names,Time,Stack TC,Smoke TC,Exh Press,Smoke Comp,Smoke Meas,CO Meter,CO2 Meter,O2 Meter,Sample Mass,Ext Coeff,Start Test,Flame Verif
Chan Gain,,500,500,1,1,1,1,1,1,1,1,1.0,1.0
Offset,,0,0,0.138348,0,0,0,0,0,0,0,0.0,0.0
Gain,,1,1,25.011,13.5067,16.616,1,1,1,1.00091,1.04608,1.0,1.0
Units,sec,C,C,Pa,%,%,%,%,%,g,/m,,
Baseline,,19.3942,20.4808,169.476,100.746,99.8962,-0.000253511,0.0823985,20.8404,-0.259445,0.0777407,,
15,3.5,17.0608,17.7882,166.775,101.061,100.238,-0.000448848,0.0899287,20.8329,498.884,0.074966,0.0,0.0
30,7.25,17.9204,18.3858,171.244,101.041,100.284,-0.000354764,0.0909068,20.8344,500.786,0.0690303,0.0,0.0
45,11,17.6444,18.797,169.119,101.021,100.092,-0.000299463,0.0903624,20.8352,500.035,0.0847516,0.0,0.0
60,14.75,17.9856,19.1213,164.151,100.996,100.23,-0.000108306,0.0903017,20.8312,499.915,0.0697935,0.0,0.0
75,18.5,18.3043,20.105,168.013,100.958,100.122,-2.35221e-05,0.091812,20.8272,498.063,0.0762418,0.0,0.0
90,22.25,17.0643,19.4745,168.8,100.917,100.079,-0.000267647,0.0930717,20.8269,498.724,0.0765293,0.0,0.0
105,26,17.777,19.999,172.011,100.876,99.9103,-0.000164887,0.0937734,20.8267,498.714,0.0883037,0.0,0.0
120,29.75,18.149,20.1352,170.799,100.817,99.8312,-5.46831e-05,0.0959582,20.824,498.734,0.0901713,0.0,0.0
135,33.5,18.1289,19.9679,169.818,100.761,99.4757,5.08271e-05,0.0973001,20.8234,498.694,0.117798,0.0,0.0
150,37.25,18.114,19.8878,165.676,100.682,98.1426,7.13609e-05,0.0965192,20.8286,498.624,0.234393,0.0,0.0
165,41,18.2882,20.0298,165.067,100.625,97.0245,4.66802e-05,0.0946603,20.8299,498.544,0.334349,0.0,0.0
180,44.75,18.9372,21.0346,163.813,100.567,96.6417,0.000230349,0.0962392,20.8243,498.474,0.365326,0.0,0.0
195,48.5,18.9325,20.9023,169.814,100.501,96.5418,0.000168921,0.0975487,20.8199,498.374,0.368834,0.0,0.0
210,52.25,19.2213,20.8462,172.516,100.465,95.5961,0.00017888,0.0964723,20.8234,498.294,0.455814,0.0,0.0
225,56,19.5197,21.3931,168.257,100.385,95.1032,0.000121263,0.0943652,20.8245,498.234,0.495941,0.0,0.0
240,59.75,19.6107,21.0227,164.736,100.338,95.4039,0.000231144,0.094359,20.8188,498.153,0.462753,0.0,0.0
255,63.5,19.2768,21.3963,169.828,100.302,95.3932,0.000468895,0.095808,20.8134,498.083,0.460422,0.0,0.0
270,67.25,20.4863,23.0475,163.474,100.249,98.3531,0.00147149,0.112731,20.7347,497.633,0.175208,0.0,0.0
285,71,22.6803,26.4134,159.959,100.199,96.9591,0.00241548,0.155679,20.6521,497.443,0.301625,0.0,0.0
300,74.75,24.2409,29.2901,161.706,100.168,98.1837,0.00261496,0.206453,20.5862,497.203,0.183625,0.0,0.0
315,78.5,26.2228,31.8054,164.651,100.132,98.4671,0.00283738,0.246169,20.5589,496.932,0.153885,0.0,1.0
330,82.25,26.1147,33.0314,159.565,100.104,98.3313,0.00286106,0.274383,20.5365,496.632,0.163914,0.0,1.0
345,86,27.7163,34.528,158.77,100.083,97.3729,0.00278333,0.297558,20.5209,496.402,0.251898,0.0,0.0
360,89.75,28.893,36.1346,163.897,100.042,95.9931,0.00294851,0.315239,20.5113,496.112,0.37911,0.0,0.0
375,93.5,29.9121,37.1948,151.297,100.018,94.408,0.0036272,0.328471,20.5019,495.881,0.529708,0.0,0.0
390,97.25,31.2749,39.74,150.179,99.9972,92.6439,0.00474362,0.351684,20.4461,495.561,0.700868,0.0,0.0
405,101,33.4403,42.443,147.313,99.9807,92.5911,0.0052468,0.387615,20.3698,495.081,0.704579,0.0,0.0
420,104.75,34.9969,45.5126,144.175,99.9663,90.8356,0.00541156,0.419099,20.3278,494.75,0.878902,0.0,0.0
435,108.5,38.1667,49.1431,153.687,99.9481,91.8437,0.00579306,0.458496,20.2526,494.35,0.775965,0.0,0.0
450,112.25,40.1207,52.1988,141.178,99.9205,94.7077,0.00581344,0.487667,20.2192,493.88,0.491658,0.0,0.0
465,116,42.2595,55.8415,149.409,99.9193,92.3797,0.00645508,0.530576,20.1392,493.339,0.719921,0.0,0.0
480,119.75,43.4967,58.3971,147.858,99.8999,89.0963,0.0074322,0.565961,20.1114,492.949,1.05021,0.0,0.0
495,123.5,46.1544,61.1087,148.701,99.8876,88.3053,0.00823363,0.587098,20.0947,492.428,1.13091,0.0,0.0
510,127.25,47.6554,63.2644,138.7,99.8797,85.7263,0.00985546,0.608217,20.0723,491.928,1.40218,0.0,0.0
525,131,49.243,65.0435,144.736,99.8723,85.4144,0.0109563,0.628563,20.0618,491.357,1.43494,0.0,0.0
540,134.75,49.6443,65.4505,141.68,99.8801,85.3485,0.0120618,0.640796,20.0562,490.827,1.44274,0.0,0.0
555,138.5,50.8869,66.9177,144.917,99.8591,79.0785,0.0133541,0.654749,20.0493,490.276,2.14097,0.0,0.0
570,142.25,51.8809,67.7551,147.825,99.8566,81.837,0.0150246,0.66221,20.0577,489.706,1.8261,0.0,0.0
585,146,52.5754,67.8642,141.957,99.8393,81.5155,0.0152041,0.667031,20.064,489.125,1.86063,0.0,0.0
600,149.75,52.2158,67.5669,145.661,99.8356,81.2087,0.0143624,0.663013,20.0964,488.645,1.89489,0.0,0.0
615,153.5,52.3998,67.6956,149.433,99.8043,79.9998,0.0147275,0.655151,20.1119,488.114,2.02963,0.0,0.0
630,157.25,52.124,66.35,147.787,99.834,87.9757,0.0137105,0.644133,20.1532,487.584,1.1603,0.0,0.0
645,161,51.543,64.6951,149.054,99.8426,84.1564,0.0119422,0.618042,20.2108,487.163,1.56837,0.0,0.0
660,164.75,50.8595,63.343,149.855,99.8232,80.7432,0.0116857,0.592656,20.2335,486.693,1.9465,0.0,0.0
675,168.5,50.4527,62.7021,149.228,99.8294,83.2857,0.011283,0.582592,20.2418,486.223,1.66259,0.0,0.0
690,172.25,49.5379,61.28,147.702,99.8216,84.1888,0.0101639,0.561952,20.2861,485.832,1.5629,0.0,0.0
705,176,49.542,60.7636,148.815,99.8072,82.6716,0.0102054,0.548452,20.2924,485.382,1.72845,0.0,0.0
720,179.75,49.3476,60.3116,142.737,99.8167,79.7453,0.0125258,0.55336,20.2457,484.931,2.06001,0.0,0.0
735,183.5,50.3584,61.534,144.853,99.8237,81.6747,0.014053,0.582418,20.1981,484.431,1.84129,0.0,0.0
750,187.25,51.2069,61.9574,153.815,99.8191,91.7722,0.0123797,0.601924,20.2054,484.101,0.771258,0.0,0.0
765,191,48.9557,58.6819,153.704,99.843,94.6499,0.00869031,0.561387,20.344,483.891,0.490142,0.0,0.0
780,194.75,47.3999,55.9888,163.589,99.8439,97.3784,0.00628877,0.48376,20.4748,483.78,0.229427,0.0,0.0
795,198.5,44.9182,51.5457,160.674,99.8554,99.8723,0.00427945,0.400349,20.5892,483.84,-0.00154906,0.0,0.0
810,202.25,42.6736,47.8392,165.869,99.8558,99.4813,0.00355067,0.320954,20.6752,483.83,0.0344787,0.0,0.0
825,206,39.9076,44.9941,164.327,99.8628,99.4585,0.00339307,0.256664,20.7267,483.87,0.0372289,0.0,0.0
840,209.75,38.5887,41.0959,160.911,99.8884,99.6233,0.00316525,0.211706,20.753,483.88,0.024384,0.0,0.0
855,213.5,37.0642,38.9096,160.888,99.9086,99.5021,0.00246526,0.179353,20.7774,483.88,0.0374098,0.0,0.0
870,217.25,35.7678,37.0461,166.823,99.93,99.4463,0.00185184,0.154404,20.7953,483.88,0.0445231,0.0,0.0
885,221,34.4868,35.2489,161.602,99.9416,99.6654,0.00135051,0.136699,20.8073,483.88,0.025392,0.0,0.0
900,224.75,33.2436,34.2972,164.365,99.9609,99.5868,0.00110575,0.123944,20.8151,483.88,0.0344101,0.0,0.0
915,228.5,32.4089,32.8906,164.813,99.9968,99.498,0.000897168,0.114369,20.8217,483.941,0.0458816,0.0,0.0
930,232.25,31.9469,32.0249,162.873,100.022,99.6568,0.000667223,0.107545,20.8251,483.91,0.0335622,0.0,0.0
945,236,31.0953,31.4544,166.036,100.035,99.5995,0.000562618,0.102456,20.8291,483.9,0.0400502,0.0,0.0
960,239.75,30.7716,30.8497,163.807,100.052,99.5954,0.00064711,0.0983338,20.8308,483.91,0.0419363,0.0,0.0
975,243.5,30.2322,30.2307,166.078,100.078,99.4651,0.000655709,0.0953472,20.8312,483.9,0.0563321,0.0,0.0
990,247.25,29.4876,29.4229,163.935,100.099,99.604,0.000417974,0.0930594,20.8331,483.88,0.0454887,0.0,0.0
1005,251,29.134,28.9759,166.697,100.137,99.7612,0.000331001,0.0915626,20.8335,483.891,0.0344929,0.0,0.0
1020,254.75,29.0088,28.378,165.453,100.178,99.6644,0.000333117,0.091149,20.8322,483.9,0.0471833,0.0,0.0
1035,258.5,28.1846,28.144,166.392,100.198,99.5878,0.000218541,0.0907214,20.8329,483.88,0.0560853,0.0,0.0
1050,262.25,27.916,27.6132,158.614,100.229,99.7414,-0.000175529,0.0898378,20.8339,483.9,0.0447311,0.0,0.0
1065,266,27.433,27.2069,163.385,100.272,99.7151,-0.000227918,0.0887006,20.8355,483.88,0.0511187,0.0,0.0
1080,269.75,27.3263,27.2449,165.232,100.315,99.6821,-8.91432e-05,0.0875382,20.8358,483.88,0.0580378,0.0,0.0
1095,273.5,27.4929,26.5204,167.474,100.343,99.7612,-0.000229885,0.0866013,20.8373,483.891,0.0533604,0.0,0.0
1110,277.25,27.075,26.2138,165.208,100.381,99.82,-0.000201471,0.0856136,20.838,483.891,0.0513798,0.0,0.0
1125,281,26.376,26.3262,165.566,100.393,99.8058,-5.02187e-05,0.0848938,20.8391,483.88,0.0538541,0.0,0.0
1140,284.75,26.5592,25.9677,166.58,100.442,99.8794,-3.07066e-05,0.0845326,20.8402,483.9,0.0515407,0.0,0.0
1155,288.5,26.2852,26.3139,166.079,100.454,99.8099,0.000210002,0.0843792,20.8405,483.9,0.0590551,0.0,0.0
1170,292.25,25.8844,26.0972,165.349,100.482,99.743,0.000138216,0.0842463,20.8405,483.9,0.0676959,0.0,0.0
1185,296,25.8756,26.0839,162.656,100.512,99.9118,-0.000197089,0.0841276,20.8389,483.9,0.054997,0.0,0.0
1200,299.75,25.8394,25.5087,161.122,100.533,99.8647,-0.000181468,0.083832,20.8402,483.9,0.0612481,0.0,0.0
1215,303.5,25.6281,25.3533,164.914,100.565,99.9793,-0.000102523,0.0837572,20.8401,483.891,0.0535833,0.0,0.0
1230,307.25,24.5627,25.6941,161.06,100.591,100.144,-0.000301756,0.0835844,20.8396,483.921,0.0409225,0.0,0.0
1245,311,24.6633,25.3386,164.776,100.621,99.8388,-0.000457101,0.0838458,20.8395,483.891,0.0716345,0.0,0.0
1260,314.75,25.0302,24.6751,163.686,100.641,100.028,-0.000292882,0.0838021,20.8407,483.91,0.0560255,0.0,0.0
1275,318.5,24.3246,24.1463,169.81,100.657,100.028,-0.000527795,0.0836111,20.8398,483.91,0.0574529,0.0,0.0
1290,322.25,24.8408,24.6777,162.896,100.692,99.9762,-0.000498283,0.0835663,20.8396,483.9,0.0654382,0.0,0.0
1305,326,24.5065,24.712,162.48,100.703,99.9529,-0.000375472,0.0834418,20.8398,483.91,0.0685939,0.0,0.0
1320,329.75,24.4731,24.5456,167.287,100.714,100.059,-0.000197982,0.0833983,20.8397,483.961,0.0599213,0.0,0.0
1335,333.5,23.8361,24.3124,168.56,100.733,100.069,-0.000205665,0.0834251,20.8405,483.921,0.0607657,0.0,0.0
1350,337.25,24.3624,24.7674,166.755,100.754,100.135,-0.000286255,0.0832424,20.841,483.941,0.0565452,0.0,0.0
1365,341,24.0432,24.5798,165.185,100.777,100.136,-0.000434514,0.0832263,20.8411,483.941,0.0585617,0.0,0.0
1380,344.75,23.5151,24.1941,168.266,100.799,100.097,-0.000526223,0.0834243,20.8412,483.91,0.0641294,0.0,0.0
1395,348.5,24.2694,24.2951,166.276,100.826,100.177,-0.000264947,0.0836624,20.8412,483.931,0.0593105,0.0,0.0
1410,352.25,23.3229,24.4085,165.411,100.832,100.13,-0.000199435,0.0838506,20.839,483.941,0.0641011,0.0,0.0
1425,356,23.7157,24.1722,168.667,100.84,100.016,,0.0839043,,483.951,0.0752383,0.0,0.0
1440,359.75,23.3316,24.1634,163.039,100.864,100.226,,,,483.941,0.0582943,0.0,0.0
1455,363.5,23.6643,24.4778,162.701,100.878,100.195,,,,483.891,0.0623651,0.0,0.0
1457,364,23.2393,23.6765,163.583,100.863,100.308,,,,483.88,0.0506183,0.0,0.0