Folder: fsri_materials_database/02_Data/Overstuffed_Chair/Cone (part 3)

File: Overstuffed_Chair_Cone_HF75Scan_210325_R1.csv
Names,Time,Stack TC,Smoke TC,Exh Press,Smoke Comp,Smoke Meas,CO Meter,CO2 Meter,O2 Meter,Sample Mass,Ext Coeff,Start Test,Flame Verif
Chan Gain,,500,500,1,1,1,1,1,1,1,1,1.0,1.0
Offset,,0,0,0.138348,0,0,0,0,0,0,0,0.0,0.0
Gain,,1,1,25.011,13.5067,16.616,1,1,1,1.00091,1.04608,1.0,1.0
Units,sec,C,C,Pa,%,%,%,%,%,g,/m,,
Baseline,,28.4388,32.225,161.867,101.684,101.375,-0.000507024,0.0881341,20.8504,-3.3558,0.0279208,,
9,2,27.2015,30.6365,161.392,101.594,101.075,-0.000196011,0.0982022,20.8401,494.63,0.0470407,0.0,0.0
18,4.25,27.5852,30.8746,159.388,101.618,101.381,-1.06445e-05,0.0975132,20.8416,490.366,0.0213997,0.0,0.0
27,6.5,27.7122,30.7848,164.253,101.653,100.906,0.000293646,0.0984929,20.838,490.607,0.0676677,0.0,0.0
36,8.75,28.3394,32.0906,159.622,101.699,97.8754,0.000806184,0.110577,20.8016,490.947,0.351663,0.0,1.0
45,11,29.3993,34.5512,157.823,101.731,94.5363,0.00183062,0.164135,20.6871,490.326,0.67308,0.0,1.0
54,13.25,31.2445,38.142,146.913,101.754,86.601,0.00327333,0.245597,20.5551,490.587,1.47958,0.0,1.0
63,15.5,33.3988,40.9664,147.355,101.807,85.171,0.00443226,0.315019,20.4815,490.266,1.63719,0.0,0.0
72,17.75,35.0608,43.5102,152.294,101.839,87.4088,0.00490189,0.361236,20.4452,490.336,1.40208,0.0,0.0
81,20,36.5601,45.4127,149.18,101.852,89.47,0.00491151,0.379675,20.4367,490.587,1.18942,0.0,0.0
90,22.25,37.4944,47.2103,144.896,101.883,90.1272,0.00527306,0.389586,20.4311,489.546,1.12505,0.0,0.0
99,24.5,38.3783,48.6925,145.357,101.925,85.4433,0.00604568,0.401948,20.411,489.305,1.61848,0.0,0.0
108,26.75,40.2834,51.0465,148.231,101.938,84.5037,0.0076053,0.421854,20.3803,488.985,1.72118,0.0,0.0
117,29,41.4552,52.9351,146.281,101.974,78.399,0.0106544,0.45487,20.3248,490.406,2.41247,0.0,0.0
126,31.25,43.5155,56.6779,139.568,102.002,73.4174,0.0153387,0.524605,20.1613,488.274,3.0174,0.0,0.0
135,33.5,47.187,62.5923,125.026,102.02,71.8638,0.0195275,0.646318,19.8778,487.734,3.21527,0.0,0.0
144,35.75,52.7025,72.1065,125.474,102.044,78.4756,0.0222374,0.827753,19.6617,487.073,2.40978,0.0,0.0
153,38,59.9186,84.8919,96.1273,102.065,74.1568,0.0246485,1.01726,19.3295,486.323,2.93109,0.0,0.0
162,40.25,67.0748,98.4216,99.0499,102.08,75.1268,0.0286344,1.32315,18.8133,485.612,2.81325,0.0,0.0
171,42.5,76.409,114.17,93.1979,102.08,72.3713,0.0348109,1.63022,18.4072,484.641,3.15606,0.0,0.0
180,44.75,84.7292,129.402,88.5747,102.089,67.727,0.0420801,1.90234,18.1028,483.62,3.76548,0.0,0.0
189,47,91.8576,140.76,96.051,102.115,60.9088,0.0480431,2.10685,17.9511,482.619,4.74154,0.0,0.0
198,49.25,97.362,147.921,113.117,102.096,63.2059,0.0513092,2.23431,17.9104,481.719,4.40007,0.0,0.0
207,51.5,100.566,153.331,116.931,102.084,62.7962,0.0520954,2.27353,17.9688,480.808,4.45867,0.0,0.0
216,53.75,104.143,157.087,107.545,102.079,63.4985,0.0515007,2.25624,18.0835,479.837,4.35617,0.0,0.0
225,56,106.548,157.72,110.026,102.075,62.6988,0.0495925,2.19206,18.2275,479.026,4.47213,0.0,0.0
234,58.25,106.807,157.277,132.499,102.052,64.5659,0.0466664,2.07263,18.4201,478.345,4.20079,0.0,0.0
243,60.5,106.283,154.175,110.24,102.027,65.1698,0.0425752,1.91025,18.6773,477.715,4.11314,0.0,0.0
252,62.75,104.63,150.096,122.753,101.986,67.4364,0.0372109,1.70526,18.9769,477.224,3.7957,0.0,0.0
261,65,102.191,144.099,121.766,101.97,71.8414,0.0304035,1.47362,19.2997,476.854,3.21359,0.0,0.0
270,67.25,97.6399,135.227,143.493,101.905,83.2284,0.0223157,1.22998,19.6542,476.914,1.85771,0.0,0.0
279,69.5,92.7441,125.918,145.724,101.866,95.4531,0.0152947,0.964279,19.994,476.874,0.596707,0.0,0.0
288,71.75,87.5136,116.477,156.945,101.828,102.095,0.00984175,0.744233,20.2602,476.794,-0.0240794,0.0,0.0
297,74,82.8904,108.075,149.561,101.766,102.202,0.00652186,0.572311,20.4499,476.824,-0.0391815,0.0,0.0
306,76.25,79.1897,100.828,148.41,101.684,102.314,0.00467367,0.448397,20.564,476.794,-0.0566366,0.0,0.0
315,78.5,75.3475,94.5453,152.604,101.606,102.264,0.00364586,0.366779,20.6286,476.794,-0.0591663,0.0,0.0
324,80.75,71.6116,88.0384,155.862,101.527,102.298,0.00310429,0.309282,20.6735,476.774,-0.0694097,0.0,0.0
333,83,68.5253,83.6445,150.406,101.448,102.374,0.00307008,0.266554,20.7057,476.754,-0.0833773,0.0,0.0
342,85.25,65.1871,78.9879,151.209,101.346,102.728,0.00355848,0.236751,20.7265,476.764,-0.124261,0.0,0.0
351,87.5,63.2075,75.1411,154.944,101.271,102.043,0.00407663,0.212362,20.7479,476.734,-0.0696583,0.0,0.0
360,89.75,61.1264,70.94,153.08,101.169,102.37,0.00426531,0.193843,20.7655,476.734,-0.108289,0.0,0.0
369,92,59.657,69.2019,159.304,101.072,102.195,0.00426515,0.177333,20.7778,476.704,-0.10143,0.0,0.0
378,94.25,57.775,65.9692,150.244,100.969,101.972,0.00424097,0.165505,20.7871,476.704,-0.0906978,0.0,0.0
387,96.5,56.5958,63.35,153.374,100.878,101.669,0.00448127,0.155825,20.7932,476.684,-0.0716601,0.0,0.0
396,98.75,55.2375,61.8925,159.069,100.76,101.423,0.00492929,0.148915,20.7959,476.674,-0.060204,0.0,0.0
405,101,54.2294,60.0252,150.569,100.675,102.219,0.00531482,0.144373,20.7977,476.674,-0.139633,0.0,0.0
414,103.25,53.4765,58.5426,147.981,100.578,101.42,0.00554164,0.140288,20.8002,476.654,-0.0765359,0.0,0.0
423,105.5,52.2675,57.3632,153.787,100.509,101.433,0.00561893,0.136612,20.8022,476.654,-0.0839188,0.0,0.0
432,107.75,51.0792,56.4198,155.342,100.402,101.057,0.00553669,0.133853,20.8031,476.634,-0.0596909,0.0,0.0
441,110,51.0404,55.0301,156.046,100.31,100.863,0.00569677,0.13141,20.8039,476.654,-0.0504525,0.0,0.0
450,112.25,50.703,54.4562,154.984,100.246,101.239,0.00604064,0.1297,20.8043,476.614,-0.0904647,0.0,0.0
459,114.5,49.6895,53.1883,156.259,100.169,101.039,0.00623725,0.12863,20.8052,476.624,-0.0793419,0.0,0.0
468,116.75,48.9946,52.838,154.732,100.129,100.833,0.00620884,0.127522,20.8062,476.634,-0.0642981,0.0,0.0
477,119,48.8053,51.7553,155.011,100.089,100.955,0.00587742,0.126617,20.8065,476.574,-0.0790319,0.0,0.0
486,121.25,48.4489,51.8189,159.506,100.077,101.022,0.00548352,0.125565,20.8067,476.594,-0.0862092,0.0,0.0
495,123.5,47.7829,50.9211,156.398,100.055,100.608,0.00530258,0.124693,20.8088,476.584,-0.0505504,0.0,0.0
504,125.75,47.2604,50.7854,153.129,100.074,100.888,0.00535221,0.123722,20.8104,476.564,-0.0743902,0.0,0.0
513,128,46.8465,50.3909,154.895,100.092,100.776,0.00549757,0.122876,20.8106,476.504,-0.0624824,0.0,0.0
522,130.25,47.2194,50.2834,156.064,100.108,100.753,0.00551205,0.122339,20.8095,476.504,-0.0589307,0.0,0.0
531,132.5,47.0364,49.6425,152.706,100.15,100.879,0.00535832,0.122119,20.809,476.544,-0.0666084,0.0,0.0
540,134.75,46.5568,49.1431,153.413,100.224,100.901,0.00522149,0.121866,20.8102,476.514,-0.061712,0.0,0.0
549,137,46.3808,48.7677,153.5,100.284,101.05,0.00517854,0.121561,20.8107,476.464,-0.069752,0.0,0.0
558,139.25,46.2679,48.9789,155.032,100.381,101.051,0.005211,0.12128,20.8097,476.474,-0.0610309,0.0,0.0
567,141.5,45.7264,48.7892,157.231,100.437,101.189,0.00538059,0.121385,20.8091,476.474,-0.0684156,0.0,0.0
576,143.75,45.4106,48.3439,156.112,100.536,100.911,0.00551502,0.12182,20.8089,476.454,-0.0342322,0.0,0.0
585,146,45.682,48.6088,156.882,100.621,101.554,0.00562588,0.122052,20.8088,476.434,-0.0846838,0.0,0.0
594,148.25,45.569,48.0416,152.853,100.716,101.426,0.00576308,0.122348,20.8087,476.414,-0.0645344,0.0,0.0
603,150.5,45.6748,47.8675,155.338,100.808,101.395,0.00583182,0.122616,20.8087,476.454,-0.0532357,0.0,0.0
612,152.75,44.8665,47.7432,153.473,100.928,101.535,0.00580715,0.122877,20.8091,476.414,-0.0550259,0.0,0.0
621,155,44.1984,47.5127,158.344,101.011,101.731,0.00572529,0.122673,20.8095,476.364,-0.0651315,0.0,0.0
630,157.25,44.5074,47.4826,158.153,101.085,101.665,0.00588269,0.122258,20.8096,476.384,-0.0525293,0.0,0.0
639,159.5,44.3014,46.9757,154.586,101.172,101.749,0.00601215,0.121928,20.8111,476.334,-0.0521949,0.0,0.0
648,161.75,43.854,46.8232,153.847,101.244,101.957,0.00584454,0.121509,20.8117,476.344,-0.0644601,0.0,0.0
657,164,44.0748,47.2464,156.928,101.311,101.728,0.00539982,0.121326,20.8132,476.314,-0.0376381,0.0,0.0
666,166.25,44.1582,46.9475,154.725,101.358,101.869,0.00505608,0.121103,20.8138,476.284,-0.0460896,0.0,0.0
675,168.5,43.9393,46.8535,157.013,101.41,102.404,0.00505131,0.120723,20.8141,476.314,-0.0894892,0.0,0.0
684,170.75,43.3328,46.7774,151.979,101.426,101.994,0.0051828,0.120671,20.8143,476.284,-0.051256,0.0,0.0
693,173,43.5792,46.7491,158.337,101.443,102.316,0.00512939,0.12014,20.8156,476.274,-0.0786871,0.0,0.0
702,175.25,43.768,46.933,156.296,101.441,101.961,0.00501719,0.119436,20.8162,476.254,-0.0469851,0.0,0.0
711,177.5,43.0409,45.8089,152.023,101.446,102.206,0.00502424,0.119057,20.8173,476.254,-0.0684327,0.0,0.0
720,179.75,43.2997,46.2199,154.9,101.406,102.441,0.00493085,0.118374,20.8188,476.264,-0.0932235,0.0,0.0
729,182,43.5909,46.0212,156.005,101.367,101.895,0.00485643,0.117679,20.8197,476.264,-0.0476443,0.0,0.0
738,184.25,43.3734,46.4386,154.568,101.346,101.957,0.00498548,0.116739,20.8214,476.264,-0.0551536,0.0,0.0
747,186.5,42.7386,45.5576,158.862,101.275,101.88,0.00526887,0.116019,20.8221,476.264,-0.0545984,0.0,0.0
756,188.75,42.6751,45.7227,154.619,101.211,101.899,0.00551709,0.115463,20.8224,476.274,-0.0621536,0.0,0.0
765,191,42.442,45.6822,160.081,101.168,102.025,0.00568777,0.115123,20.8225,476.254,-0.0774046,0.0,0.0
774,193.25,42.7535,45.7727,158.965,101.141,101.838,,0.114744,,476.224,-0.0629521,0.0,0.0
783,195.5,42.7234,44.9532,154.122,101.077,101.652,,0.114106,,476.163,-0.052042,0.0,0.0
792,197.75,42.3855,45.8519,154.073,101.051,101.343,,,,476.163,-0.0264893,0.0,0.0
801,200,42.5905,45.1058,156.38,101.024,101.551,,,,476.163,-0.0477653,0.0,0.0
810,202.25,42.1215,44.8553,159.673,100.989,101.628,,,,476.153,-0.0579476,0.0,0.0
815,203.5,42.5041,45.4246,153.582,100.991,101.394,,,,476.143,-0.0365453,0.0,0.0

File: Overstuffed_Chair_Cone_HF75Scan_210325_R2.csv
Names,Time,Stack TC,Smoke TC,Exh Press,Smoke Comp,Smoke Meas,CO Meter,CO2 Meter,O2 Meter,Sample Mass,Ext Coeff,Start Test,Flame Verif
Chan Gain,,500,500,1,1,1,1,1,1,1,1,1.0,1.0
Offset,,0,0,0.138348,0,0,0,0,0,0,0,0.0,0.0
Gain,,1,1,25.011,13.5067,16.616,1,1,1,1.00091,1.04608,1.0,1.0
Units,sec,C,C,Pa,%,%,%,%,%,g,/m,,
Baseline,,35.6659,39.2533,159.016,101.194,101.25,-0.000320744,0.0822352,20.8667,-3.52595,-0.00509504,,
8,1.75,33.6211,36.916,163.225,100.978,101.212,-0.000350002,0.0842344,20.8645,484.161,-0.0212551,0.0,0.0
16,3.75,33.6554,37.3417,158.537,101.041,101.419,-0.000478006,0.0855218,20.8625,482.029,-0.0343096,0.0,0.0
24,5.75,34.0879,37.7055,162.338,101.106,101.12,-0.000424476,0.0861825,20.8615,481.979,-0.00132588,0.0,0.0
32,7.75,34.4743,37.7665,163.205,101.176,101.044,-0.000238525,0.0867102,20.8603,481.929,0.0120576,0.0,0.0
40,9.75,34.741,38.1161,158.208,101.222,95.2857,0.000154674,0.0901607,20.8519,481.809,0.554551,0.0,0.0
48,11.75,35.1794,39.6644,155.702,101.303,98.385,0.00100255,0.122781,20.7579,481.438,0.268235,0.0,1.0
56,13.75,37.3093,43.0608,147.152,101.367,90.8336,0.00194196,0.19492,20.6385,481.128,1.00678,0.0,1.0
64,15.75,37.832,44.889,146.844,101.418,91.7007,0.00272906,0.2594,20.5564,480.848,0.924228,0.0,0.0
72,17.75,39.5726,47.1944,144.412,101.464,87.3499,0.00351143,0.304089,20.5152,480.708,1.37443,0.0,0.0
80,19.75,40.7923,49.7025,146.911,101.5,86.1771,0.00442417,0.341326,20.4733,480.557,1.50172,0.0,0.0
88,21.75,42.3197,52.0055,142.706,101.561,82.7994,0.0052968,0.369816,20.4441,480.307,1.87412,0.0,0.0
96,23.75,43.309,53.2681,148.241,101.602,86.6152,0.00611104,0.395336,20.4181,480.107,1.46442,0.0,0.0
104,25.75,44.7169,54.786,145.557,101.648,89.5689,0.00707575,0.415961,20.3978,479.927,1.16089,0.0,0.0
112,27.75,46.2935,56.8547,146.675,101.688,82.9125,0.00938164,0.444202,20.3605,479.557,1.87302,0.0,0.0
120,29.75,47.7315,59.565,137.394,101.709,72.0514,0.0130936,0.498555,20.2385,479.246,3.16331,0.0,0.0
128,31.75,50.762,64.5462,131.025,101.737,70.4835,0.0171334,0.612862,19.9585,478.786,3.36779,0.0,0.0
136,33.75,55.7052,72.8325,119.925,101.768,72.6756,0.0200183,0.797066,19.6392,478.135,3.08954,0.0,0.0
144,35.75,61.5791,83.5509,103.175,101.786,78.2281,0.0220001,1.02941,19.3076,477.535,2.41556,0.0,0.0
152,37.75,69.1925,96.5447,96.0907,101.797,79.6469,0.0245049,1.28802,18.8901,476.804,2.2516,0.0,0.0
160,39.75,76.9792,111.074,96.0357,101.829,75.6968,0.0285532,1.59325,18.4576,476.053,2.72126,0.0,0.0
168,41.75,85.6056,125.916,101.633,101.823,69.9237,0.0335819,1.91594,18.0981,475.153,3.44866,0.0,0.0
176,43.75,92.745,139.149,93.1735,101.824,64.255,0.0398541,2.18646,17.8208,474.302,4.22459,0.0,0.0
184,45.75,98.9197,151.134,96.6364,101.817,63.4153,0.0471989,2.37254,17.6342,473.421,4.34463,0.0,0.0
192,47.75,105.382,160.072,100.753,101.826,59.1107,0.0544102,2.51792,17.5501,472.38,4.99043,0.0,0.0
200,49.75,110.34,166.928,100.521,101.821,58.522,0.0610418,2.59573,17.5401,471.509,5.08184,0.0,0.0
208,51.75,114.091,171.921,99.5712,101.794,55.7975,0.0651201,2.61686,17.6288,470.518,5.51685,0.0,0.0
216,53.75,115.486,172.274,103.71,101.761,53.8112,0.065827,2.54226,17.8566,469.758,5.84648,0.0,0.0
224,55.75,116.34,172.145,103.919,101.728,57.4029,0.0633361,2.39157,18.102,468.927,5.25065,0.0,0.0
232,57.75,115.174,168.331,110.704,101.687,54.7939,0.0580472,2.19588,18.3701,468.356,5.67379,0.0,0.0
240,59.75,113.436,162.952,133.964,101.642,57.6447,0.050077,1.98017,18.6973,467.816,5.20429,0.0,0.0
248,61.75,111.391,157.754,129.014,101.602,71.5281,0.0412873,1.7078,19.0949,467.466,3.2206,0.0,0.0
256,63.75,106.407,148.398,137.278,101.536,80.3198,0.0310274,1.40331,19.4618,467.365,2.15089,0.0,0.0
264,65.75,103.021,140.727,144.804,101.484,88.9417,0.0232126,1.13462,19.7201,467.255,1.21048,0.0,0.0
272,67.75,97.8881,131.484,141.329,101.396,97.6604,0.0159107,0.906257,20.014,467.365,0.344465,0.0,0.0
280,69.75,93.4002,123.601,153.736,101.333,100.64,0.0109394,0.704641,20.2761,467.325,0.0629431,0.0,0.0
288,71.75,88.6792,115.428,147.663,101.271,101.778,0.00777299,0.531277,20.4725,467.275,-0.0458703,0.0,0.0
296,73.75,84.7198,108.91,149.595,101.31,102.251,0.00612263,0.411193,20.5988,467.325,-0.0848782,0.0,0.0
304,75.75,81.4498,102.188,151.426,101.326,102.125,0.00545438,0.329157,20.6715,467.365,-0.072121,0.0,0.0
312,77.75,77.468,97.0818,149.957,101.368,102.501,0.00538289,0.275791,20.7095,467.335,-0.101977,0.0,0.0
320,79.75,75.4564,91.6134,151.381,101.39,102.23,0.00548598,0.242018,20.7324,467.325,-0.0756888,0.0,0.0
328,81.75,72.6004,87.8749,146.125,101.418,102.448,0.00566138,0.215559,20.7485,467.295,-0.0927782,0.0,0.0
336,83.75,71.174,84.2286,153.184,101.451,102.443,0.00580776,0.197097,20.7582,467.315,-0.0892661,0.0,0.0
344,85.75,68.5626,81.0552,154.322,101.494,102.677,0.00591597,0.183382,20.7665,467.295,-0.106387,0.0,0.0
352,87.75,66.7727,78.1187,147.832,101.527,102.673,0.00609547,0.172534,20.7729,467.315,-0.103007,0.0,0.0
360,89.75,65.6046,75.507,149.089,101.562,103.034,0.00616985,0.164302,20.7787,467.265,-0.132006,0.0,0.0
368,91.75,64.1775,73.0934,153.016,101.606,102.757,0.00606032,0.157639,20.7842,467.215,-0.103331,0.0,0.0
376,93.75,62.9283,71.7624,148.444,101.656,102.869,0.00588889,0.151388,20.79,467.235,-0.10883,0.0,0.0
384,95.75,61.928,69.0875,148.115,101.697,102.919,0.0058549,0.145898,20.7936,467.225,-0.109587,0.0,0.0
392,97.75,60.5917,67.3648,148.258,101.751,102.57,0.00602035,0.141965,20.7952,467.195,-0.0735135,0.0,0.0
400,99.75,59.5055,66.068,151.397,101.792,103.028,0.00630671,0.13929,20.7971,467.225,-0.110707,0.0,0.0
408,101.75,59.0009,64.8951,150.387,101.833,103.316,0.0063964,0.137191,20.798,467.165,-0.132683,0.0,0.0
416,103.75,58.1424,63.6976,153.752,101.867,102.778,0.00627623,0.135602,20.7984,467.185,-0.0816913,0.0,0.0
424,105.75,57.3835,62.8845,154.667,101.911,103.284,0.0061176,0.133869,20.8005,467.135,-0.122799,0.0,0.0
432,107.75,56.9365,61.4393,149.22,101.946,103.092,0.00609673,0.132254,20.8021,467.135,-0.102547,0.0,0.0
440,109.75,56.1875,60.5932,146.199,101.974,103.097,0.00618593,0.131181,20.8028,467.105,-0.100475,0.0,0.0
448,111.75,55.6619,60.0452,150.601,101.991,102.953,0.00628471,0.130396,20.8031,467.115,-0.0861363,0.0,0.0
456,113.75,55.1392,59.3837,150.562,102.026,102.934,0.00620598,0.129708,20.8047,467.095,-0.0813409,0.0,0.0
464,115.75,54.8939,58.8991,149.535,102.044,103.315,0.00619993,0.128995,20.8059,467.125,-0.113603,0.0,0.0
472,117.75,54.2348,57.7434,150.224,102.061,103.443,0.00637659,0.128199,20.8065,467.075,-0.123382,0.0,0.0
480,119.75,54.0636,57.9866,148.277,102.075,103.531,0.00669317,0.128148,20.8067,467.045,-0.129908,0.0,0.0
488,121.75,53.9367,57.6936,153.671,102.074,103.329,0.00694522,0.127968,20.8068,467.085,-0.112152,0.0,0.0
496,123.75,53.3158,57.2962,153.695,102.071,103.258,0.00689292,0.127363,20.8079,467.015,-0.106141,0.0,0.0
504,125.75,53.7464,56.5687,155.432,102.066,102.946,0.00667476,0.126566,20.8086,467.025,-0.0787483,0.0,0.0
512,127.75,53.221,56.5036,151.568,102.049,103.434,0.00650135,0.126157,20.809,467.025,-0.123691,0.0,0.0
520,129.75,52.3471,56.2309,151.359,102.041,103.156,0.00647821,0.125957,20.8091,466.975,-0.0997025,0.0,0.0
528,131.75,52.1878,55.7066,147.142,102.007,103.057,0.00643564,0.12546,20.8104,466.945,-0.0940242,0.0,0.0
536,133.75,52.3192,55.0051,153.416,102,103.296,0.00635842,0.125092,20.811,466.965,-0.115777,0.0,0.0
544,135.75,51.7643,54.6398,148.293,101.938,103.75,0.00627012,0.124484,20.8125,466.945,-0.161651,0.0,0.0
552,137.75,51.1979,54.4459,154.898,101.916,103.053,0.00626406,0.123881,20.8133,466.965,-0.101817,0.0,0.0
560,139.75,51.6065,54.2729,152.552,101.875,102.988,0.00643098,0.123438,20.8136,466.935,-0.0997097,0.0,0.0
568,141.75,51.6418,54.4394,152.684,101.817,102.805,0.00671563,0.123291,20.8137,466.945,-0.0885846,0.0,0.0
576,143.75,51.0976,53.8238,151.778,101.773,102.858,0.00693403,0.12329,20.8138,466.905,-0.0973933,0.0,0.0
584,145.75,51.0936,54.1516,154.951,101.718,102.928,0.00708351,0.123219,20.8136,466.875,-0.108541,0.0,0.0
592,147.75,50.5212,53.3059,155.238,101.661,103.039,0.00714042,0.12315,20.8124,466.885,-0.123561,0.0,0.0
600,149.75,50.7046,54.2751,149.502,101.582,102.479,0.00705317,0.123394,20.8119,466.895,-0.0806352,0.0,0.0
608,151.75,50.5401,53.4192,150.053,101.512,102.28,0.00689959,0.123264,20.8131,466.855,-0.0691133,0.0,0.0
616,153.75,50.2251,53.4352,154.983,101.444,102.385,0.00688979,0.123072,20.8135,466.845,-0.0846756,0.0,0.0
624,155.75,50.0749,52.6946,152.913,101.374,102.587,0.00688855,0.122777,20.8137,466.825,-0.109168,0.0,0.0
632,157.75,49.8062,53.0393,154.685,101.308,102.245,0.00687432,0.122294,20.8138,466.815,-0.0845188,0.0,0.0
640,159.75,49.8172,52.705,153.258,101.221,102.109,0.00684339,0.121598,20.8138,466.825,-0.0801954,0.0,0.0
648,161.75,49.8161,52.4486,152.722,101.145,102.194,0.0067438,0.121193,20.8138,466.805,-0.0946801,0.0,0.0
656,163.75,49.3223,52.5298,152.259,101.074,101.799,0.00664071,0.121216,20.8138,466.785,-0.0656146,0.0,0.0
664,165.75,49.0898,52.407,153.344,100.978,101.933,0.00675529,0.12116,20.8143,466.755,-0.0863593,0.0,0.0
672,167.75,49.42,53.0552,156.495,100.91,101.797,0.00698392,0.12116,20.8153,466.755,-0.0802914,0.0,0.0
680,169.75,49.3143,52.3447,149.99,100.839,101.807,0.00708067,0.120956,20.8158,466.755,-0.0876552,0.0,0.0
688,171.75,49.6726,52.5252,156.215,100.748,101.459,0.00699148,0.120766,20.8166,466.745,-0.0645493,0.0,0.0
696,173.75,48.8978,52.3984,155.538,100.666,101.632,0.00688221,0.120228,20.8176,466.725,-0.0876867,0.0,0.0
704,175.75,49.3629,52.1157,149.973,100.592,101.304,0.00672869,0.119437,20.8181,466.705,-0.0647448,0.0,0.0
712,177.75,49.0273,51.7689,155.925,100.524,101.43,0.00647005,0.118717,20.8183,466.765,-0.082289,0.0,0.0
720,179.75,48.9498,52.1168,149.68,100.463,101.086,0.00624937,0.11825,20.8186,466.655,-0.0567032,0.0,0.0
728,181.75,48.2309,51.1698,154.9,100.395,101.391,0.00620017,0.117599,20.82,466.695,-0.090595,0.0,0.0
736,183.75,48.1629,51.7384,150.465,100.345,100.919,,0.117237,,466.675,-0.0523671,0.0,0.0
744,185.75,48.0521,51.8545,155.37,100.307,101.077,,,,466.695,-0.0702012,0.0,0.0
752,187.75,48.0246,51.1441,151.609,100.267,101.346,,,,466.665,-0.0982711,0.0,0.0
760,189.75,48.2538,51.564,151.757,100.21,101.061,,,,466.675,-0.0775563,0.0,0.0
768,191.75,47.5797,50.9454,152.449,100.181,101.287,,,,466.605,-0.100664,0.0,0.0
774,193.25,48.1979,51.5171,154.625,100.17,100.893,,,,466.595,-0.0660024,0.0,0.0