Folder: fsri_materials_database/01_Data/Pine_Siding/STA/N2/10K_min (part 2)

File: Pine_Siding_STA_N2_10KData_211406_R3.csv
##Temp./Â°C,Time/min,Mass loss(subtr.2)/mg,DSC(subtr.2)/mW,Sensit./(uV/mW)
49.352,10.01,-0.06185,0.06416079,0.61833
52.352,12.34878,-0.06737826,0.32913,0.61991
55.352,13.03196,-0.07118686,0.47891,0.62147
58.352,13.585,-0.07193489,0.58566,0.62299
61.352,14.07174,-0.07501926,0.67439,0.62448
64.352,14.52235,-0.07665991,0.76502,0.62593
67.352,14.9453,-0.07962994,0.83381,0.62736
70.352,15.3462,-0.08136272,0.90222,0.62876
73.352,15.72829,-0.08540017,0.96863,0.63012
76.352,16.09754,-0.08961026,1.01678,0.63145
79.352,16.4532,-0.09082008,1.04454,0.63275
82.352,16.79857,-0.09476007,1.06429,0.63402
85.352,17.1351,-0.09762667,1.09036,0.63526
88.352,17.46296,-0.09968349,1.08561,0.63646
91.352,17.78324,-0.10222,1.08475,0.63764
94.352,18.0988,-0.10508,1.06931,0.63878
97.352,18.4081,-0.10649,1.04845,0.63989
100.352,18.71443,-0.10885,1.01145,0.64097
103.352,19.01738,-0.10945,0.98333,0.64202
106.352,19.31605,-0.11055,0.95201,0.64303
109.352,19.61288,-0.10945,0.92288,0.64402
112.352,19.90726,-0.11168,0.91277,0.64497
115.352,20.20029,-0.11308,0.90834,0.64589
118.352,20.49148,-0.11141,0.89022,0.64678
121.352,20.78015,-0.11319,0.89887,0.64764
124.352,21.06711,-0.11391,0.88682,0.64847
127.352,21.35245,-0.11263,0.91518,0.64926
130.352,21.63543,-0.11469,0.9154,0.65003
133.352,21.9172,-0.1131,0.93906,0.65076
136.352,22.19675,-0.11479,0.93217,0.65146
139.352,22.47484,-0.11346,0.95942,0.65213
142.352,22.7514,-0.11615,0.98002,0.65277
145.352,23.02682,-0.11714,0.97125,0.65338
148.352,23.30095,-0.11673,0.97921,0.65396
151.352,23.57474,-0.11879,0.99597,0.6545
154.352,23.84727,-0.11985,1.01494,0.65502
157.352,24.1198,-0.12142,1.00443,0.65551
160.352,24.39131,-0.11988,1.02643,0.65596
163.352,24.66305,-0.12214,1.03949,0.65639
166.352,24.93445,-0.12207,1.06723,0.65678
169.352,25.20468,-0.1223,1.09132,0.65715
172.352,25.47541,-0.12226,1.12182,0.65748
175.352,25.74626,-0.12398,1.15236,0.65779
178.352,26.0163,-0.12658,1.1696,0.65806
181.352,26.2858,-0.12668,1.18733,0.65831
184.352,26.55381,-0.12927,1.20472,0.65852
187.352,26.823,-0.13357,1.20887,0.65871
190.352,27.0907,-0.131,1.23196,0.65887
193.352,27.3575,-0.13491,1.24334,0.659
196.352,27.6248,-0.13408,1.22687,0.6591
199.352,27.88975,-0.13556,1.26638,0.65917
202.352,28.1578,-0.13819,1.27506,0.65921
205.352,28.4245,-0.14215,1.2758,0.65922
208.352,28.69117,-0.14347,1.28719,0.65921
211.352,28.95787,-0.14822,1.30426,0.65917
214.352,29.2239,-0.15047,1.31902,0.6591
217.352,29.49097,-0.15608,1.33352,0.659
220.352,29.7575,-0.15872,1.31762,0.65888
223.352,30.025,-0.16136,1.3163,0.65873
226.352,30.29187,-0.16592,1.33107,0.65855
229.352,30.5586,-0.17361,1.35854,0.65834
232.352,30.8258,-0.17825,1.39716,0.65811
235.352,31.0926,-0.18427,1.41119,0.65785
238.352,31.3606,-0.19107,1.43272,0.65756
241.352,31.62848,-0.1982,1.42636,0.65725
244.352,31.89671,-0.20829,1.45755,0.65692
247.352,32.1647,-0.21826,1.44662,0.65655
250.352,32.43255,-0.22946,1.45996,0.65617
253.352,32.7013,-0.2393,1.46213,0.65575
256.352,32.96974,-0.25215,1.45305,0.65532
259.352,33.238,-0.26585,1.45123,0.65485
262.352,33.5064,-0.27974,1.46609,0.65437
265.352,33.77494,-0.29344,1.44961,0.65386
268.352,34.04296,-0.30835,1.45813,0.65332
271.352,34.3118,-0.32856,1.47773,0.65276
274.352,34.58033,-0.34408,1.47393,0.65218
277.352,34.8489,-0.36368,1.49053,0.65158
280.352,35.11865,-0.38619,1.49524,0.65095
283.352,35.3878,-0.41366,1.51805,0.6503
286.352,35.65623,-0.44092,1.54861,0.64963
289.352,35.92667,-0.46597,1.57377,0.64893
292.352,36.19699,-0.50075,1.60112,0.64822
295.352,36.46687,-0.53847,1.6378,0.64748
298.352,36.7376,-0.5761,1.67708,0.64672
301.352,37.0085,-0.62095,1.74385,0.64594
304.352,37.27923,-0.66928,1.79436,0.64514
307.352,37.55028,-0.72134,1.86375,0.64431
310.352,37.82208,-0.77866,1.93314,0.64347
313.352,38.09248,-0.84168,2.02238,0.64261
316.352,38.3647,-0.90505,2.09512,0.64173
319.352,38.63746,-0.9767,2.18665,0.64083
322.352,38.91002,-1.0508,2.26651,0.63991
325.352,39.1826,-1.13374,2.34672,0.63897
328.352,39.45563,-1.21713,2.42128,0.63801
331.352,39.72918,-1.30455,2.48978,0.63703
334.352,40.00314,-1.39486,2.56292,0.63604
337.352,40.2774,-1.49218,2.62344,0.63503
340.352,40.552,-1.58867,2.69738,0.634
343.352,40.8264,-1.6921,2.77611,0.63295
346.352,41.10105,-1.79852,2.88358,0.63189
349.352,41.37652,-1.90567,3.00696,0.63081
352.352,41.65122,-2.02165,3.1533,0.62972
355.352,41.9263,-2.14135,3.35653,0.6286
358.352,42.20279,-2.27257,3.59696,0.62748
361.352,42.47995,-2.40725,3.83329,0.62633
364.352,42.75732,-2.55568,4.05026,0.62518
367.352,43.03569,-2.71115,4.21527,0.62401
370.352,43.31555,-2.87394,4.22718,0.62282
373.352,43.59359,-3.03586,4.06381,0.62162
376.352,43.87187,-3.18813,3.60259,0.6204
379.352,44.15056,-3.32091,2.85586,0.61918
382.352,44.42879,-3.43206,1.90161,0.61794
385.352,44.70683,-3.51493,0.93035,0.61668
388.352,44.98438,-3.56077,0.14272,0.61542
391.352,45.26239,-3.59041,-0.35979,0.61414
394.352,45.54081,-3.59153,-0.57773,0.61285
397.352,45.82028,-3.62603,-0.69117,0.61154
400.352,46.09793,-3.63911,-0.77826,0.61023
403.352,46.38016,-3.65201,-0.84832,0.6089
406.352,46.6616,-3.66572,-0.89913,0.60757
409.352,46.9431,-3.67889,-0.95684,0.60622
412.352,47.22467,-3.6918,-1.01769,0.60487
415.352,47.50723,-3.7037,-1.08359,0.6035
418.352,47.79002,-3.71386,-1.15051,0.60212
421.352,48.07294,-3.72525,-1.22655,0.60074
424.352,48.35696,-3.73743,-1.28425,0.59934
427.352,48.6407,-3.74943,-1.33474,0.59794
430.352,48.92445,-3.76055,-1.38149,0.59653
433.352,49.20882,-3.76781,-1.41594,0.59511
436.352,49.49335,-3.78133,-1.45616,0.59368
439.352,49.77831,-3.79447,-1.46378,0.59225
442.352,50.0632,-3.80107,-1.48219,0.59081
445.352,50.3495,-3.8122,-1.48956,0.58936
448.352,50.63545,-3.82282,-1.48237,0.5879
451.352,50.92244,-3.83047,-1.47058,0.58644
454.352,51.2093,-3.83955,-1.46382,0.58497
457.352,51.49588,-3.84687,-1.45003,0.5835
460.352,51.78393,-3.85377,-1.43203,0.58202
463.352,52.07135,-3.86227,-1.42281,0.58053
466.352,52.35973,-3.8706,-1.40977,0.57904
469.352,52.64765,-3.87805,-1.40677,0.57755
472.352,52.93558,-3.8818,-1.39951,0.57605
475.352,53.225,-3.88961,-1.40738,0.57455
478.352,53.5145,-3.89648,-1.4127,0.57304
481.352,53.8032,-3.90022,-1.43505,0.57153
484.352,54.0937,-3.90869,-1.43889,0.57002
487.352,54.3833,-3.91074,-1.47307,0.5685
490.352,54.67383,-3.91428,-1.48103,0.56698
493.352,54.96513,-3.91998,-1.50937,0.56546
496.352,55.2567,-3.92528,-1.53106,0.56393
499.352,55.5483,-3.92961,-1.55466,0.56241
502.352,55.83974,-3.93136,-1.57375,0.56088
505.352,56.13155,-3.9388,-1.60612,0.55935
508.352,56.42405,-3.94146,-1.64136,0.55782
511.352,56.7164,-3.94718,-1.64543,0.55628
514.352,57.00854,-3.95089,-1.66493,0.55475
517.352,57.30154,-3.95128,-1.67815,0.55322
520.352,57.59375,-3.95715,-1.70509,0.55168
523.352,57.8872,-3.96141,-1.74237,0.55015
526.352,58.18121,-3.9647,-1.78703,0.54862
529.352,58.47523,-3.96715,-1.77779,0.54708
532.352,58.76979,-3.97129,-1.81802,0.54555
535.352,59.06448,-3.97512,-1.86485,0.54402
538.352,59.35886,-3.97919,-1.9025,0.54249
541.352,59.6547,-3.9806,-1.96082,0.54096
544.352,59.9497,-3.98456,-1.97869,0.53943
547.352,60.2452,-3.98893,-2.05382,0.5379
550.352,60.5414,-3.98882,-2.09992,0.53638
553.352,60.83775,-3.99294,-2.13149,0.53486
556.352,61.1348,-3.99596,-2.20603,0.53334
559.352,61.4323,-3.99849,-2.24744,0.53182
562.352,61.72925,-4.00389,-2.30269,0.53031
565.352,62.02587,-4.00323,-2.35711,0.52879
568.352,62.32295,-4.00808,-2.40711,0.52729
571.352,62.6205,-4.01199,-2.42939,0.52578
574.352,62.91839,-4.01334,-2.48695,0.52428
577.352,63.21634,-4.01558,-2.52288,0.52278
580.352,63.51536,-4.02358,-2.55797,0.52129
583.352,63.815,-4.02185,-2.59162,0.5198
586.352,64.11448,-4.02169,-2.57889,0.51831
589.352,64.41378,-4.02679,-2.64476,0.51683
592.352,64.71333,-4.02843,-2.66399,0.51535
595.352,65.01389,-4.02975,-2.67346,0.51388
598.352,65.31421,-4.03494,-2.68801,0.51242
601.352,65.6155,-4.03774,-2.71471,0.51095
604.352,65.9161,-4.03644,-2.73704,0.5095
607.352,66.21706,-4.03787,-2.75783,0.50805
610.352,66.51746,-4.04093,-2.8242,0.5066
613.352,66.81828,-4.04315,-2.86009,0.50516
616.352,67.11991,-4.04621,-2.89441,0.50373
619.352,67.4215,-4.04753,-2.93013,0.5023
622.352,67.72345,-4.04904,-2.9757,0.50087
625.352,68.02574,-4.05016,-3.04512,0.49946
628.352,68.3279,-4.05487,-3.08105,0.49805
631.352,68.6298,-4.05607,-3.07534,0.49664
634.352,68.93149,-4.05536,-3.14016,0.49525
637.352,69.2336,-4.0684,-3.19173,0.49386
640.352,69.53721,-4.06026,-3.21386,0.49247
643.352,69.84007,-4.07032,-3.22668,0.4911
646.352,70.14273,-4.06332,-3.26855,0.48973
649.352,70.4469,-4.06732,-3.34229,0.48836
652.352,70.74976,-4.06889,-3.35566,0.48701
655.352,71.0523,-4.06924,-3.33645,0.48566
658.352,71.3556,-4.06759,-3.39683,0.48432
661.352,71.65924,-4.07023,-3.40612,0.48299
664.352,71.9629,-4.07264,-3.39469,0.48166
667.352,72.26825,-4.07395,-3.40703,0.48034
670.352,72.57382,-4.07264,-3.40249,0.47903
673.352,72.87897,-4.07534,-3.39915,0.47773
676.352,73.18479,-4.07747,-3.38657,0.47643
679.352,73.49074,-4.07659,-3.41594,0.47515
682.352,73.79711,-4.07658,-3.39844,0.47387
685.352,74.1035,-4.07752,-3.41274,0.47259
688.352,74.40954,-4.0805,-3.39574,0.47133
691.352,74.71579,-4.08467,-3.40272,0.47008
694.352,75.02175,-4.08443,-3.3874,0.46883
697.352,75.3283,-4.08306,-3.37827,0.46759
700.352,75.63543,-4.08612,-3.36629,0.46636
703.352,75.94289,-4.08336,-3.34782,0.46514
706.352,76.25019,-4.08733,-3.36964,0.46392
709.352,76.5574,-4.08473,-3.42202,0.46272
712.352,76.86605,-4.08814,-3.43167,0.46152
715.352,77.17432,-4.08752,-3.44175,0.46033
718.352,77.4823,-4.09106,-3.50359,0.45915
721.352,77.79083,-4.08931,-3.48191,0.45798
724.352,78.0997,-4.09217,-3.51917,0.45682
727.352,78.4085,-4.0937,-3.52062,0.45566
730.352,78.71784,-4.09349,-3.50742,0.45452
733.352,79.0266,-4.09611,-3.49177,0.45338
736.352,79.33524,-4.09737,-3.48829,0.45225
739.352,79.64516,-4.10264,-3.48558,0.45113
742.352,79.95536,-4.09785,-3.51874,0.45002
742.752,79.99625,-4.09846,-3.52449,0.44987