Folder: fsri_materials_database/01_Data/Pine_Siding/STA/N2/10K_min

Note: 01_Data/README.md
# Materials and Products Database
## 01_Data

Raw data generated from each apparatus are included here in plain-text format. The data is organized first by material, next by the short name of test apparatus used, and where applicable additional filtering by test settings.

### material.json

Each material directory contains a json file of the same name as the material. This file links the data stored in the repository as well as data and graphs produced by the accompanying scripts (__02_Scripts__) to the respective landing page for the material on the front-end website.

File: Pine_Siding_STA_N2_10KData_210806_R1.csv
##Temp./Â°C,Time/min,Mass loss(subtr.2)/mg,DSC(subtr.2)/mW,Sensit./(uV/mW)
49.317,10.01,-0.03926,0.08884085,0.61831
52.317,12.3477,-0.04343974,0.37267,0.6199
55.317,13.03347,-0.04651022,0.50443,0.62145
58.317,13.5833,-0.0469565,0.61254,0.62297
61.317,14.07289,-0.04685117,0.69478,0.62446
64.317,14.52355,-0.0493181,0.76727,0.62592
67.317,14.94506,-0.05197678,0.83198,0.62735
70.317,15.34435,-0.05180016,0.89794,0.62874
73.317,15.727,-0.05450159,0.95774,0.6301
76.317,16.0946,-0.05752835,1.00265,0.63144
79.317,16.44891,-0.05868649,1.03153,0.63274
82.317,16.79571,-0.06258495,1.05848,0.63401
85.317,17.13177,-0.06524276,1.07918,0.63524
88.317,17.4596,-0.06573471,1.07876,0.63645
91.317,17.78054,-0.0663619,1.06048,0.63763
94.317,18.09525,-0.06900018,1.03181,0.63877
97.317,18.4053,-0.06976642,1.00976,0.63988
100.317,18.71051,-0.07911535,0.99367,0.64096
103.317,19.01325,-0.07204847,0.99135,0.64201
106.317,19.3123,-0.07318048,0.98314,0.64302
109.317,19.60944,-0.07195915,0.97017,0.64401
112.317,19.90486,-0.07458987,0.95929,0.64496
115.317,20.19804,-0.07319366,0.97304,0.64588
118.317,20.4893,-0.07260064,0.97319,0.64677
121.317,20.77921,-0.07393001,0.96104,0.64763
124.317,21.06656,-0.0769031,0.97426,0.64846
127.317,21.35267,-0.07414983,0.99544,0.64925
130.317,21.63618,-0.07179637,1.01599,0.65002
133.317,21.91734,-0.07403821,1.01842,0.65075
136.317,22.1976,-0.07584829,1.02125,0.65145
139.317,22.47628,-0.07451563,1.04234,0.65212
142.317,22.753,-0.07458016,1.0408,0.65276
145.317,23.02863,-0.07613588,1.05543,0.65337
148.317,23.3032,-0.07634111,1.07642,0.65395
151.317,23.5767,-0.07766159,1.09482,0.6545
154.317,23.8492,-0.07568,1.09756,0.65501
157.317,24.12142,-0.07568118,1.10375,0.6555
160.317,24.3931,-0.08595757,1.11525,0.65596
163.317,24.66442,-0.07693816,1.12413,0.65638
166.317,24.93584,-0.07755863,1.11912,0.65678
169.317,25.20644,-0.08017917,1.13601,0.65714
172.317,25.4775,-0.08029115,1.15712,0.65748
175.317,25.74803,-0.08117,1.16523,0.65778
178.317,26.01774,-0.07901649,1.17865,0.65806
181.317,26.28674,-0.08149,1.18576,0.6583
184.317,26.55582,-0.08420448,1.20419,0.65852
187.317,26.82385,-0.0861501,1.22003,0.65871
190.317,27.091,-0.08610564,1.24033,0.65887
193.317,27.35835,-0.08672249,1.23277,0.659
196.317,27.62575,-0.08707758,1.26861,0.6591
199.317,27.89231,-0.08927345,1.2931,0.65917
202.317,28.159,-0.09054701,1.32746,0.65921
205.317,28.4257,-0.09221761,1.3302,0.65922
208.317,28.69251,-0.09476985,1.35251,0.65921
211.317,28.9595,-0.09509205,1.35392,0.65917
214.317,29.22608,-0.10156,1.35596,0.6591
217.317,29.493,-0.10311,1.35872,0.659
220.317,29.76013,-0.10727,1.38252,0.65888
223.317,30.027,-0.10859,1.39017,0.65873
226.317,30.29409,-0.11189,1.40755,0.65855
229.317,30.56157,-0.11813,1.4263,0.65834
232.317,30.8287,-0.12139,1.44255,0.65811
235.317,31.0964,-0.12657,1.45104,0.65785
238.317,31.36382,-0.13217,1.47385,0.65757
241.317,31.63147,-0.14068,1.47445,0.65726
244.317,31.8999,-0.14599,1.49468,0.65692
247.317,32.16748,-0.15386,1.49683,0.65656
250.317,32.4354,-0.16266,1.50242,0.65617
253.317,32.70361,-0.17382,1.5091,0.65576
256.317,32.97204,-0.18301,1.50556,0.65532
259.317,33.24058,-0.19383,1.50164,0.65486
262.317,33.50885,-0.20533,1.51424,0.65437
265.317,33.7774,-0.21788,1.50581,0.65386
268.317,34.04603,-0.23088,1.51421,0.65333
271.317,34.31422,-0.24361,1.52198,0.65277
274.317,34.5833,-0.26143,1.53248,0.65219
277.317,34.8519,-0.27819,1.55464,0.65159
280.317,35.12075,-0.29459,1.56667,0.65096
283.317,35.38941,-0.31856,1.58105,0.65031
286.317,35.6593,-0.33962,1.61729,0.64964
289.317,35.92941,-0.36487,1.64077,0.64894
292.317,36.19951,-0.39139,1.67836,0.64822
295.317,36.4698,-0.42172,1.72727,0.64749
298.317,36.7405,-0.45514,1.76162,0.64673
301.317,37.01135,-0.49405,1.8466,0.64595
304.317,37.28313,-0.53139,1.85736,0.64514
307.317,37.55423,-0.57473,1.92471,0.64432
310.317,37.8262,-0.62191,1.99288,0.64348
313.317,38.09865,-0.67537,2.07908,0.64262
316.317,38.3711,-0.72711,2.15036,0.64174
319.317,38.6436,-0.78842,2.21414,0.64084
322.317,38.9165,-0.85151,2.29053,0.63992
325.317,39.1897,-0.91905,2.37593,0.63898
328.317,39.463,-0.98827,2.46151,0.63802
331.317,39.73656,-1.06157,2.52666,0.63704
334.317,40.0097,-1.13506,2.57651,0.63605
337.317,40.28383,-1.2148,2.62998,0.63504
340.317,40.55791,-1.29365,2.69059,0.63401
343.317,40.83282,-1.37675,2.77728,0.63296
346.317,41.10768,-1.46421,2.86254,0.6319
349.317,41.38286,-1.55606,3.01149,0.63082
352.317,41.65883,-1.65005,3.16378,0.62973
355.317,41.93477,-1.74918,3.36273,0.62862
358.317,42.2117,-1.85667,3.55453,0.62749
361.317,42.48818,-1.9717,3.78079,0.62635
364.317,42.76526,-2.09083,3.98939,0.62519
367.317,43.04254,-2.22018,4.14548,0.62402
370.317,43.32031,-2.35365,4.19806,0.62283
373.317,43.5983,-2.4838,4.05954,0.62163
376.317,43.8772,-2.61407,3.7007,0.62042
379.317,44.1557,-2.72602,3.06941,0.61919
382.317,44.43347,-2.82006,2.23476,0.61795
385.317,44.71134,-2.88695,1.36977,0.6167
388.317,44.9891,-2.92559,0.64503,0.61543
391.317,45.2667,-2.95067,0.19287,0.61415
394.317,45.54423,-2.96928,-0.01109412,0.61286
397.317,45.824,-2.98385,-0.10596,0.61156
400.317,46.1034,-2.9969,-0.1611,0.61024
403.317,46.38463,-3.00556,-0.20196,0.60892
406.317,46.6653,-3.01629,-0.2758,0.60758
409.317,46.9458,-3.02624,-0.32147,0.60624
412.317,47.2273,-3.03484,-0.35452,0.60488
415.317,47.50905,-3.04644,-0.39747,0.60352
418.317,47.79107,-3.05464,-0.42755,0.60214
421.317,48.07353,-3.06359,-0.46978,0.60075
424.317,48.3568,-3.07216,-0.5334,0.59936
427.317,48.6407,-3.0809,-0.55131,0.59796
430.317,48.92471,-3.0931,-0.58501,0.59655
433.317,49.20933,-3.10247,-0.62035,0.59513
436.317,49.4936,-3.10967,-0.62381,0.5937
439.317,49.7783,-3.11834,-0.63304,0.59227
442.317,50.06408,-3.12635,-0.61313,0.59082
445.317,50.35049,-3.13506,-0.60422,0.58937
448.317,50.63708,-3.14231,-0.58012,0.58792
451.317,50.92413,-3.15118,-0.55132,0.58646
454.317,51.21025,-3.1572,-0.52687,0.58499
457.317,51.4969,-3.16375,-0.49248,0.58351
460.317,51.78372,-3.17007,-0.46408,0.58204
463.317,52.0706,-3.17708,-0.45076,0.58055
466.317,52.35873,-3.18364,-0.4178,0.57906
469.317,52.64796,-3.18889,-0.40627,0.57757
472.317,52.93554,-3.19188,-0.39298,0.57607
475.317,53.2252,-3.19641,-0.38101,0.57456
478.317,53.51435,-3.20318,-0.37264,0.57306
481.317,53.80421,-3.20558,-0.36193,0.57155
484.317,54.095,-3.20986,-0.35671,0.57003
487.317,54.3852,-3.21505,-0.34997,0.56852
490.317,54.67524,-3.21771,-0.37099,0.567
493.317,54.96516,-3.22257,-0.36324,0.56547
496.317,55.2544,-3.22664,-0.32941,0.56395
499.317,55.5463,-3.229,-0.33274,0.56242
502.317,55.83712,-3.233,-0.32433,0.5609
505.317,56.12961,-3.2361,-0.31236,0.55937
508.317,56.4221,-3.24101,-0.31876,0.55783
511.317,56.71468,-3.2434,-0.29989,0.5563
514.317,57.0068,-3.24441,-0.31379,0.55477
517.317,57.2997,-3.24846,-0.28399,0.55324
520.317,57.5926,-3.2551,-0.26287,0.5517
523.317,57.88616,-3.254,-0.2462,0.55017
526.317,58.1798,-3.25923,-0.24043,0.54863
529.317,58.4738,-3.26086,-0.23196,0.5471
532.317,58.76761,-3.2648,-0.22601,0.54557
535.317,59.06139,-3.26776,-0.24258,0.54404
538.317,59.3568,-3.27109,-0.25408,0.54251
541.317,59.6515,-3.27303,-0.28025,0.54098
544.317,59.9468,-3.27534,-0.29532,0.53945
547.317,60.2425,-3.27597,-0.30661,0.53792
550.317,60.53787,-3.27962,-0.30068,0.5364
553.317,60.8337,-3.2818,-0.27368,0.53488
556.317,61.1288,-3.28444,-0.29206,0.53336
559.317,61.42561,-3.2885,-0.28382,0.53184
562.317,61.72221,-3.28682,-0.28265,0.53032
565.317,62.01924,-3.29218,-0.28296,0.52881
568.317,62.31681,-3.29575,-0.25711,0.5273
571.317,62.61435,-3.29629,-0.26309,0.5258
574.317,62.9121,-3.30043,-0.2415,0.5243
577.317,63.2106,-3.30032,-0.23222,0.5228
580.317,63.5084,-3.30319,-0.21643,0.52131
583.317,63.80641,-3.30486,-0.21834,0.51982
586.317,64.1043,-3.30787,-0.21525,0.51833
589.317,64.4028,-3.3102,-0.17892,0.51685
592.317,64.7028,-3.31111,-0.16117,0.51537
595.317,65.00229,-3.31569,-0.16117,0.5139
598.317,65.30266,-3.3157,-0.11399,0.51243
601.317,65.60301,-3.31834,-0.08133811,0.51097
604.317,65.9029,-3.31767,-0.07229207,0.50951
607.317,66.20249,-3.32075,-0.08504876,0.50806
610.317,66.50256,-3.32217,-0.07474778,0.50662
613.317,66.80336,-3.32569,-0.07025565,0.50518
616.317,67.10471,-3.32673,-0.06651433,0.50374
619.317,67.40605,-3.32513,-0.05219858,0.50231
622.317,67.708,-3.32856,-0.02708073,0.50089
625.317,68.0103,-3.33139,0.0059165,0.49947
628.317,68.3117,-3.33268,0.03909588,0.49806
631.317,68.61414,-3.3311,0.03674623,0.49666
634.317,68.9162,-3.33459,0.06626477,0.49526
637.317,69.21904,-3.33731,0.09172121,0.49387
640.317,69.52084,-3.33732,0.08348825,0.49249
643.317,69.8236,-3.33635,0.09226677,0.49111
646.317,70.12738,-3.33939,0.07053522,0.48974
649.317,70.43027,-3.34071,0.03285757,0.48838
652.317,70.7328,-3.34338,0.03407511,0.48702
655.317,71.03527,-3.34192,0.00233071,0.48568
658.317,71.3386,-3.3442,-0.03863936,0.48433
661.317,71.64259,-3.34249,-0.003839548,0.483
664.317,71.9468,-3.34761,0.01764822,0.48167
667.317,72.25101,-3.34634,0.02774243,0.48036
670.317,72.5548,-3.34762,0.03556372,0.47905
673.317,72.85855,-3.34762,0.04115471,0.47774
676.317,73.16277,-3.34905,0.04762691,0.47645
679.317,73.46778,-3.35031,0.06670579,0.47516
682.317,73.77402,-3.35304,0.10962,0.47388
685.317,74.08001,-3.35168,0.15982,0.47261
688.317,74.38603,-3.35243,0.18165,0.47135
691.317,74.69245,-3.35486,0.20459,0.47009
694.317,74.9991,-3.35468,0.26766,0.46884
697.317,75.307,-3.34798,0.25564,0.46761
700.317,75.61398,-3.3577,0.2561,0.46638
703.317,75.91969,-3.35475,0.25081,0.46515
706.317,76.22638,-3.36013,0.23575,0.46394
709.317,76.53359,-3.36052,0.20593,0.46273
712.317,76.84028,-3.35848,0.18009,0.46154
715.317,77.14784,-3.35782,0.15288,0.46035
718.317,77.45501,-3.36015,0.14496,0.45917
721.317,77.7636,-3.36143,0.18869,0.458
724.317,78.07251,-3.36144,0.17317,0.45683
727.317,78.38113,-3.36173,0.18181,0.45568
730.317,78.68964,-3.36166,0.23812,0.45453
733.317,78.9979,-3.36178,0.28053,0.45339
736.317,79.30625,-3.36291,0.29276,0.45226
739.317,79.61529,-3.36309,0.22173,0.45114
742.317,79.9239,-3.36477,0.20488,0.45003
743.017,79.99655,-3.36473,0.20507,0.44977

File: Pine_Siding_STA_N2_10KData_211406_R2.csv
##Temp./Â°C,Time/min,Mass loss(subtr.2)/mg,DSC(subtr.2)/mW,Sensit./(uV/mW)
49.313,10.01,-0.04026,-0.001233905,0.61831
52.313,12.34796,-0.0445218,0.4106,0.61989
55.313,13.03575,-0.0463384,0.62096,0.62145
58.313,13.5853,-0.050296,0.76041,0.62297
61.313,14.0735,-0.05036059,0.87106,0.62446
64.313,14.5244,-0.05282884,0.97262,0.62592
67.313,14.94728,-0.05541811,1.06706,0.62734
70.313,15.34741,-0.05671,1.15694,0.62874
73.313,15.73005,-0.05934007,1.23261,0.6301
76.313,16.09845,-0.06263019,1.30231,0.63144
79.313,16.45436,-0.06334161,1.35966,0.63274
82.313,16.7999,-0.06723433,1.39229,0.63401
85.313,17.13649,-0.06854965,1.4243,0.63524
88.313,17.4653,-0.07090415,1.43002,0.63645
91.313,17.787,-0.07525459,1.43228,0.63762
94.313,18.10207,-0.0765599,1.42303,0.63877
97.313,18.41235,-0.07918338,1.4051,0.63988
100.313,18.71852,-0.07929428,1.37582,0.64096
103.313,19.02055,-0.08183547,1.35356,0.642
106.313,19.31975,-0.08183,1.31695,0.64302
109.313,19.61659,-0.08312259,1.30454,0.64401
112.313,19.91057,-0.08314605,1.31062,0.64496
115.313,20.20138,-0.08346828,1.30965,0.64588
118.313,20.49406,-0.08338757,1.29968,0.64677
121.313,20.7831,-0.08596017,1.30946,0.64763
124.313,21.06985,-0.08380002,1.33411,0.64846
127.313,21.35538,-0.08643811,1.34433,0.64925
130.313,21.63821,-0.08775,1.35941,0.65002
133.313,21.91978,-0.08873022,1.37648,0.65075
136.313,22.19973,-0.09006425,1.37368,0.65145
139.313,22.47762,-0.08674768,1.39345,0.65212
142.313,22.7544,-0.08839334,1.407,0.65276
145.313,23.0297,-0.08929,1.42123,0.65337
148.313,23.30367,-0.08929065,1.45628,0.65395
151.313,23.5764,-0.09296086,1.486,0.6545
154.313,23.84797,-0.09158997,1.48609,0.65501
157.313,24.12165,-0.09155985,1.49592,0.6555
160.313,24.39377,-0.09554182,1.51871,0.65596
163.313,24.6648,-0.09565342,1.53497,0.65638
166.313,24.9356,-0.09565,1.54303,0.65678
169.313,25.20636,-0.09695299,1.56402,0.65714
172.313,25.47639,-0.09707434,1.60007,0.65748
175.313,25.7465,-0.09838443,1.62293,0.65778
178.313,26.01652,-0.09786467,1.66064,0.65806
181.313,26.28577,-0.1008,1.69495,0.6583
184.313,26.55438,-0.10322,1.7297,0.65852
187.313,26.82225,-0.10322,1.74725,0.65871
190.313,27.08987,-0.10354,1.77864,0.65887
193.313,27.3573,-0.10618,1.80513,0.65899
196.313,27.6246,-0.1076,1.81919,0.6591
199.313,27.89116,-0.109,1.86118,0.65917
202.313,28.15751,-0.11382,1.8926,0.65921
205.313,28.42507,-0.11254,1.9286,0.65922
208.313,28.6915,-0.11665,1.95021,0.65921
211.313,28.9587,-0.12155,1.96175,0.65917
214.313,29.2255,-0.12258,1.99426,0.6591
217.313,29.4924,-0.12451,2.00414,0.659
220.313,29.7595,-0.13013,2.00103,0.65888
223.313,30.02628,-0.13317,2.01595,0.65873
226.313,30.29358,-0.13974,2.02668,0.65855
229.313,30.5604,-0.14204,2.03743,0.65834
232.313,30.82777,-0.15015,2.06718,0.65811
235.313,31.0953,-0.15625,2.0663,0.65785
238.313,31.36277,-0.15968,2.08795,0.65757
241.313,31.6304,-0.16935,2.09645,0.65726
244.313,31.8977,-0.18148,2.11479,0.65692
247.313,32.1652,-0.18848,2.13421,0.65656
250.313,32.43274,-0.19608,2.13349,0.65617
253.313,32.70025,-0.20809,2.13136,0.65576
256.313,32.96785,-0.22237,2.14546,0.65532
259.313,33.2361,-0.23562,2.14338,0.65486
262.313,33.50423,-0.24858,2.15658,0.65437
265.313,33.77175,-0.26102,2.15809,0.65386
268.313,34.0404,-0.27488,2.17894,0.65333
271.313,34.3087,-0.29187,2.1909,0.65277
274.313,34.5777,-0.31194,2.21437,0.65219
277.313,34.84656,-0.33067,2.21786,0.65159
280.313,35.11608,-0.35165,2.2424,0.65096
283.313,35.38512,-0.37469,2.26565,0.65031
286.313,35.65534,-0.40374,2.28143,0.64964
289.313,35.9246,-0.43172,2.31019,0.64894
292.313,36.1943,-0.46208,2.35232,0.64823
295.313,36.46465,-0.49999,2.3766,0.64749
298.313,36.73526,-0.53593,2.42165,0.64673
301.313,37.0073,-0.57759,2.47797,0.64595
304.313,37.27844,-0.62338,2.54144,0.64515
307.313,37.55016,-0.67228,2.60501,0.64432
310.313,37.82196,-0.7283,2.68191,0.64348
313.313,38.09425,-0.78508,2.77607,0.64262
316.313,38.36667,-0.85065,2.86208,0.64174
319.313,38.6394,-0.91794,2.93812,0.64084
322.313,38.91163,-0.98932,3.03009,0.63992
325.313,39.18439,-1.06646,3.12112,0.63898
328.313,39.457,-1.14509,3.19934,0.63802
331.313,39.73046,-1.2273,3.27328,0.63705
334.313,40.00417,-1.31875,3.35058,0.63605
337.313,40.27885,-1.40712,3.4079,0.63504
340.313,40.55358,-1.50423,3.47422,0.63401
343.313,40.8287,-1.58398,3.5565,0.63297
346.313,41.10341,-1.69649,3.6427,0.6319
349.313,41.37807,-1.80117,3.75527,0.63082
352.313,41.65376,-1.91016,3.92954,0.62973
355.313,41.92965,-2.02773,4.12996,0.62862
358.313,42.20563,-2.14856,4.37137,0.62749
361.313,42.48323,-2.27968,4.62373,0.62635
364.313,42.76073,-2.42186,4.84443,0.62519
367.313,43.0381,-2.57203,5.02379,0.62402
370.313,43.316,-2.72459,5.07035,0.62283
373.313,43.59398,-2.87609,4.91339,0.62163
376.313,43.8722,-3.02579,4.48173,0.62042
379.313,44.15059,-3.15622,3.75761,0.61919
382.313,44.42881,-3.25956,2.83229,0.61795
385.313,44.70644,-3.33266,1.88477,0.6167
388.313,44.98485,-3.38443,1.09638,0.61543
391.313,45.26307,-3.41399,0.60379,0.61415
394.313,45.54172,-3.43327,0.38261,0.61286
397.313,45.82083,-3.44717,0.26084,0.61156
400.313,46.10058,-3.46182,0.20629,0.61025
403.313,46.38065,-3.4736,0.14908,0.60892
406.313,46.66174,-3.48545,0.12031,0.60759
409.313,46.94161,-3.49696,0.05215684,0.60624
412.313,47.22437,-3.50864,-0.0001229936,0.60488
415.313,47.5071,-3.52048,-0.02933348,0.60352
418.313,47.78937,-3.53069,-0.06057019,0.60214
421.313,48.0731,-3.54397,-0.11504,0.60076
424.313,48.3553,-3.55347,-0.1721,0.59936
427.313,48.63787,-3.56538,-0.22081,0.59796
430.313,48.92175,-3.57441,-0.23216,0.59655
433.313,49.20539,-3.58606,-0.25293,0.59513
436.313,49.49007,-3.59826,-0.27374,0.5937
439.313,49.77539,-3.60776,-0.25539,0.59227
442.313,50.0606,-3.61836,-0.24322,0.59083
445.313,50.34656,-3.63078,-0.2108,0.58938
448.313,50.63326,-3.63822,-0.19,0.58792
451.313,50.92008,-3.64597,-0.16252,0.58646
454.313,51.20694,-3.6549,-0.11799,0.58499
457.313,51.49385,-3.66325,-0.09159472,0.58352
460.313,51.7811,-3.67005,-0.07106314,0.58204
463.313,52.069,-3.67757,-0.05231903,0.58055
466.313,52.35727,-3.68414,-0.01739998,0.57906
469.313,52.64635,-3.69266,0.007533707,0.57757
472.313,52.93515,-3.6962,0.03089504,0.57607
475.313,53.225,-3.70607,0.04836903,0.57457
478.313,53.5135,-3.70863,0.08364376,0.57306
481.313,53.8025,-3.71559,0.08394597,0.57155
484.313,54.09251,-3.71989,0.08216776,0.57004
487.313,54.38315,-3.72406,0.08740378,0.56852
490.313,54.67411,-3.7284,0.08158946,0.567
493.313,54.96451,-3.73275,0.09485007,0.56548
496.313,55.2556,-3.73841,0.09612787,0.56395
499.313,55.54671,-3.7438,0.09655993,0.56243
502.313,55.83849,-3.74679,0.08998706,0.5609
505.313,56.12944,-3.75748,0.09547186,0.55937
508.313,56.4212,-3.75658,0.10745,0.55784
511.313,56.71311,-3.75969,0.10331,0.5563
514.313,57.00558,-3.76043,0.10422,0.55477
517.313,57.2988,-3.76597,0.11943,0.55324
520.313,57.59195,-3.76814,0.13845,0.5517
523.313,57.8849,-3.77232,0.13039,0.55017
526.313,58.1779,-3.77627,0.13515,0.54864
529.313,58.4715,-3.77919,0.13523,0.5471
532.313,58.76511,-3.78178,0.13866,0.54557
535.313,59.0599,-3.78472,0.14307,0.54404
538.313,59.3547,-3.78662,0.13182,0.54251
541.313,59.6494,-3.79279,0.12562,0.54098
544.313,59.94537,-3.79435,0.12049,0.53945
547.313,60.24097,-3.80311,0.09231221,0.53792
550.313,60.53735,-3.79864,0.03871329,0.5364
553.313,60.83339,-3.8023,-0.01284282,0.53488
556.313,61.12975,-3.80358,-0.05433138,0.53336
559.313,61.42728,-3.80745,-0.08355064,0.53184
562.313,61.7247,-3.80908,-0.08286555,0.53033
565.313,62.02259,-3.81061,-0.11361,0.52881
568.313,62.31978,-3.81587,-0.09840484,0.52731
571.313,62.6175,-3.81719,-0.04190619,0.5258
574.313,62.9153,-3.82081,-0.008432727,0.5243
577.313,63.2139,-3.82081,-0.009732569,0.5228
580.313,63.5122,-3.82388,-0.01582862,0.52131
583.313,63.8105,-3.82773,-0.002965319,0.51982
586.313,64.10955,-3.82672,-0.009884966,0.51833
589.313,64.40871,-3.83199,0.00605875,0.51685
592.313,64.7082,-3.83505,0.00571431,0.51537
595.313,65.00775,-3.83542,0.02371926,0.5139
598.313,65.3074,-3.83945,0.03668458,0.51244
601.313,65.6075,-3.84072,0.02259054,0.51097
604.313,65.9079,-3.84352,0.0358802,0.50952
607.313,66.20873,-3.84351,0.03859999,0.50806
610.313,66.50954,-3.84614,0.04172461,0.50662
613.313,66.811,-3.84888,0.07447489,0.50518
616.313,67.11187,-3.85001,0.11493,0.50374
619.313,67.41241,-3.85513,0.09131092,0.50232
622.313,67.71334,-3.85637,0.10073,0.50089
625.313,68.01586,-3.85795,0.09083093,0.49948
628.313,68.3185,-3.85931,0.09361036,0.49807
631.313,68.62119,-3.86348,0.10003,0.49666
634.313,68.9225,-3.86347,0.06028053,0.49527
637.313,69.2249,-3.86501,0.10512,0.49387
640.313,69.52844,-3.86632,0.10731,0.49249
643.313,69.83199,-3.86811,0.10854,0.49111
646.313,70.13554,-3.86918,0.07599414,0.48974
649.313,70.4401,-3.87236,0.08589256,0.48838
652.313,70.74407,-3.87217,0.05981153,0.48703
655.313,71.0482,-3.87389,0.08784652,0.48568
658.313,71.3517,-3.87312,0.0490831,0.48434
661.313,71.6554,-3.87525,0.0534045,0.483
664.313,71.95953,-3.87575,0.11104,0.48168
667.313,72.26356,-3.87541,0.08908002,0.48036
670.313,72.56831,-3.87889,0.08997155,0.47905
673.313,72.8733,-3.8795,0.0880607,0.47774
676.313,73.1782,-3.87997,0.14564,0.47645
679.313,73.48323,-3.87841,0.17694,0.47516
682.313,73.7892,-3.88036,0.20928,0.47388
685.313,74.09561,-3.88069,0.25414,0.47261
688.313,74.4024,-3.88447,0.31889,0.47135
691.313,74.709,-3.88596,0.30638,0.47009
694.313,75.01544,-3.88761,0.30453,0.46885
697.313,75.3219,-3.88891,0.26497,0.46761
700.313,75.62899,-3.8876,0.29255,0.46638
703.313,75.93557,-3.88583,0.33638,0.46515
706.313,76.24192,-3.88948,0.40927,0.46394
709.313,76.54849,-3.89836,0.44342,0.46273
712.313,76.85569,-3.89003,0.52117,0.46154
715.313,77.16378,-3.89134,0.53099,0.46035
718.313,77.4713,-3.89132,0.51332,0.45917
721.313,77.77936,-3.89397,0.46833,0.458
724.313,78.08726,-3.89314,0.51645,0.45683
727.313,78.39654,-3.89604,0.52167,0.45568
730.313,78.70605,-3.898,0.47209,0.45453
733.313,79.01518,-3.89659,0.44193,0.45339
736.313,79.32373,-3.89903,0.40378,0.45226
739.313,79.6327,-3.89921,0.39519,0.45114
742.313,79.94175,-3.90024,0.39752,0.45003
742.813,79.99354,-3.90022,0.38715,0.44985