Folder: fsri_materials_database/01_Data/Pine_Siding/STA/N2/30K_min (part 2)

File: Pine_Siding_STA_N2_30KData_211506_R3.csv
##Temp./Â°C,Time/min,Mass loss(subtr.2)/mg,DSC(subtr.2)/mW,Sensit./(uV/mW)
49.373,10.00917,-0.01953,0.0123384,0.61834
52.373,11.55997,-0.02033841,0.44202,0.61993
55.373,11.908,-0.01956019,0.73715,0.62148
58.373,12.16245,-0.02040997,0.98229,0.623
61.373,12.37472,-0.02095175,1.17585,0.62449
64.373,12.5632,-0.02338555,1.35788,0.62594
67.373,12.7372,-0.02380459,1.49149,0.62737
70.373,12.90193,-0.02426154,1.63486,0.62877
73.373,13.05912,-0.02347843,1.74588,0.63013
76.373,13.21124,-0.02551388,1.85623,0.63146
79.373,13.3588,-0.03173695,1.98318,0.63276
82.373,13.5013,-0.02913545,2.06912,0.63403
85.373,13.64003,-0.03066461,2.17327,0.63527
88.373,13.77489,-0.02816027,2.265,0.63647
91.373,13.90637,-0.03208737,2.35015,0.63765
94.373,14.03462,-0.03226113,2.40885,0.63879
97.373,14.15973,-0.03642482,2.44928,0.6399
100.373,14.2822,-0.03905015,2.48638,0.64098
103.373,14.40205,-0.03850636,2.51363,0.64203
106.373,14.51936,-0.04112997,2.53435,0.64304
109.373,14.63439,-0.04272895,2.5314,0.64402
112.373,14.74741,-0.04243109,2.54017,0.64498
115.373,14.85808,-0.04157456,2.5335,0.6459
118.373,14.9678,-0.04255996,2.52714,0.64679
121.373,15.0751,-0.04301699,2.54402,0.64765
124.373,15.1807,-0.04539501,2.53928,0.64847
127.373,15.28493,-0.04411185,2.54461,0.64927
130.373,15.38755,-0.04357623,2.56643,0.65003
133.373,15.48838,-0.04120904,2.58822,0.65076
136.373,15.58836,-0.04380238,2.63022,0.65147
139.373,15.68695,-0.04509199,2.67425,0.65214
142.373,15.78476,-0.04541005,2.72277,0.65278
145.373,15.88119,-0.04623398,2.75888,0.65338
148.373,15.97665,-0.04486077,2.80406,0.65396
151.373,16.07124,-0.04487792,2.83235,0.65451
154.373,16.1655,-0.04750504,2.89398,0.65502
157.373,16.2585,-0.0461832,2.92922,0.65551
160.373,16.3517,-0.04619307,2.96898,0.65597
163.373,16.44387,-0.04891822,3.01881,0.65639
166.373,16.5352,-0.04833658,3.05262,0.65678
169.373,16.62666,-0.04857563,3.09891,0.65715
172.373,16.71719,-0.04858852,3.1451,0.65748
175.373,16.80728,-0.04724152,3.18611,0.65779
178.373,16.89659,-0.04990948,3.3032,0.65806
181.373,16.98536,-0.04880267,3.32948,0.65831
184.373,17.0739,-0.05276265,3.31932,0.65852
187.373,17.16155,-0.05391149,3.39411,0.65871
190.373,17.2483,-0.05407548,3.4662,0.65887
193.373,17.3352,-0.05470051,3.52479,0.659
196.373,17.42191,-0.0551778,3.59609,0.6591
199.373,17.5083,-0.05378545,3.65436,0.65917
202.373,17.59385,-0.05261914,3.68993,0.65921
205.373,17.6787,-0.05547859,3.75753,0.65922
208.373,17.7641,-0.05839571,3.79459,0.65921
211.373,17.8492,-0.05956303,3.84847,0.65917
214.373,17.93403,-0.06238582,3.91815,0.6591
217.373,18.01825,-0.06489773,3.96001,0.659
220.373,18.1023,-0.06228778,3.99334,0.65888
223.373,18.18626,-0.06198909,4.06012,0.65872
226.373,18.26999,-0.06638878,4.09151,0.65855
229.373,18.35354,-0.07183476,4.15098,0.65834
232.373,18.437,-0.07171688,4.20692,0.65811
235.373,18.52018,-0.075011,4.25981,0.65785
238.373,18.60299,-0.07522648,4.33083,0.65756
241.373,18.68577,-0.0760127,4.37725,0.65725
244.373,18.7685,-0.0862569,4.40646,0.65691
247.373,18.8511,-0.08950463,4.45523,0.65655
250.373,18.9337,-0.09320936,4.48432,0.65616
253.373,19.01601,-0.09974087,4.54752,0.65575
256.373,19.0981,-0.10504,4.55817,0.65531
259.373,19.18018,-0.11289,4.60398,0.65485
262.373,19.26235,-0.1165,4.62742,0.65436
265.373,19.34427,-0.12255,4.64864,0.65385
268.373,19.42631,-0.13365,4.67891,0.65332
271.373,19.5082,-0.14271,4.71641,0.65276
274.373,19.58991,-0.1517,4.7299,0.65218
277.373,19.67163,-0.16159,4.74522,0.65157
280.373,19.75347,-0.17224,4.75194,0.65095
283.373,19.83525,-0.18579,4.776,0.6503
286.373,19.91705,-0.19765,4.75975,0.64962
289.373,19.99886,-0.20987,4.79926,0.64893
292.373,20.08041,-0.22363,4.81813,0.64821
295.373,20.16215,-0.23875,4.85368,0.64747
298.373,20.24407,-0.25668,4.88553,0.64671
301.373,20.3257,-0.27596,4.88569,0.64593
304.373,20.40752,-0.29684,4.91217,0.64513
307.373,20.48938,-0.31961,4.96183,0.64431
310.373,20.57124,-0.34399,4.99886,0.64347
313.373,20.65314,-0.36982,5.07591,0.6426
316.373,20.73501,-0.39759,5.14734,0.64172
319.373,20.8168,-0.43019,5.26367,0.64082
322.373,20.89886,-0.46496,5.39112,0.6399
325.373,20.981,-0.5022,5.53592,0.63896
328.373,21.06306,-0.54311,5.672,0.638
331.373,21.14527,-0.58479,5.86229,0.63703
334.373,21.22754,-0.63509,6.05639,0.63603
337.373,21.30976,-0.68846,6.2521,0.63502
340.373,21.3922,-0.74239,6.46437,0.63399
343.373,21.47488,-0.80253,6.6409,0.63295
346.373,21.55723,-0.86411,6.84457,0.63188
349.373,21.64009,-0.92723,7.03625,0.6308
352.373,21.72297,-1.00003,7.21881,0.62971
355.373,21.80604,-1.07202,7.38736,0.6286
358.373,21.88914,-1.14268,7.58469,0.62747
361.373,21.9724,-1.21465,7.7791,0.62633
364.373,22.05588,-1.29201,8.01667,0.62517
367.373,22.13953,-1.37377,8.31671,0.624
370.373,22.22324,-1.45673,8.67855,0.62281
373.373,22.30697,-1.5509,9.14731,0.62161
376.373,22.3908,-1.63102,9.65714,0.6204
379.373,22.4749,-1.72979,10.2655,0.61917
382.373,22.55878,-1.83356,10.88124,0.61793
385.373,22.64316,-1.94551,11.48115,0.61667
388.373,22.72765,-2.06287,11.97794,0.61541
391.373,22.81229,-2.18368,12.22035,0.61413
394.373,22.89721,-2.30587,12.07772,0.61284
397.373,22.9829,-2.42637,11.43191,0.61153
400.373,23.0682,-2.51944,10.1635,0.61022
403.373,23.15377,-2.61671,8.40137,0.6089
406.373,23.23974,-2.68966,6.39698,0.60756
409.373,23.32559,-2.74214,4.427,0.60621
412.373,23.41154,-2.77627,2.86629,0.60486
415.373,23.49757,-2.79882,1.77436,0.60349
418.373,23.5836,-2.81335,1.13645,0.60211
421.373,23.6696,-2.82546,0.7774,0.60073
424.373,23.75587,-2.83477,0.53608,0.59933
427.373,23.8423,-2.84575,0.37069,0.59793
430.373,23.92886,-2.85664,0.22286,0.59652
433.373,24.01555,-2.86728,0.09375282,0.5951
436.373,24.10224,-2.87711,-0.01012105,0.59367
439.373,24.1895,-2.88755,-0.1256,0.59224
442.373,24.277,-2.89642,-0.21023,0.5908
445.373,24.36446,-2.90471,-0.28965,0.58935
448.373,24.45215,-2.91381,-0.39733,0.58789
451.373,24.53997,-2.92006,-0.45976,0.58643
454.373,24.62789,-2.92826,-0.50375,0.58496
457.373,24.71623,-2.93494,-0.55074,0.58349
460.373,24.8046,-2.9467,-0.54633,0.58201
463.373,24.89314,-2.95513,-0.53312,0.58052
466.373,24.98206,-2.9588,-0.50577,0.57903
469.373,25.0711,-2.96684,-0.46202,0.57754
472.373,25.16015,-2.97323,-0.39943,0.57604
475.373,25.2497,-2.97815,-0.33205,0.57454
478.373,25.33915,-2.98423,-0.25697,0.57303
481.373,25.42884,-2.99012,-0.17137,0.57152
484.373,25.5188,-2.99418,-0.10854,0.57001
487.373,25.60906,-2.99838,-0.0402709,0.56849
490.373,25.69926,-3.00299,0.0417819,0.56697
493.373,25.78981,-3.01102,0.08959112,0.56545
496.373,25.88055,-3.01613,0.13999,0.56392
499.373,25.97148,-3.01951,0.17466,0.5624
502.373,26.06232,-3.02571,0.18988,0.56087
505.373,26.1536,-3.03023,0.15657,0.55934
508.373,26.24522,-3.03304,0.12314,0.55781
511.373,26.337,-3.03296,0.07778092,0.55627
514.373,26.42894,-3.03664,0.04124542,0.55474
517.373,26.5209,-3.04135,0.01321168,0.55321
520.373,26.61303,-3.04744,-0.00797143,0.55167
523.373,26.70535,-3.04847,-0.04456323,0.55014
526.373,26.798,-3.05069,-0.0691159,0.54861
529.373,26.89053,-3.05531,-0.10516,0.54707
532.373,26.9833,-3.05522,-0.11257,0.54554
535.373,27.07599,-3.05796,-0.1387,0.54401
538.373,27.169,-3.05889,-0.15041,0.54248
541.373,27.2619,-3.06694,-0.15361,0.54095
544.373,27.3552,-3.06816,-0.19016,0.53942
547.373,27.44841,-3.07157,-0.19127,0.53789
550.373,27.5419,-3.0761,-0.23941,0.53637
553.373,27.63547,-3.07804,-0.26958,0.53485
556.373,27.72901,-3.08063,-0.30615,0.53333
559.373,27.8228,-3.08058,-0.33633,0.53181
562.373,27.9168,-3.08504,-0.37553,0.5303
565.373,28.01094,-3.08584,-0.41034,0.52878
568.373,28.10533,-3.08701,-0.40632,0.52728
571.373,28.19957,-3.08767,-0.43066,0.52577
574.373,28.2941,-3.09066,-0.46958,0.52427
577.373,28.3887,-3.0936,-0.49018,0.52277
580.373,28.4833,-3.09638,-0.52414,0.52128
583.373,28.57825,-3.10198,-0.57477,0.51979
586.373,28.67325,-3.10488,-0.62282,0.5183
589.373,28.7683,-3.10618,-0.69281,0.51682
592.373,28.8635,-3.10204,-0.75666,0.51534
595.373,28.95895,-3.10903,-0.81944,0.51387
598.373,29.05465,-3.11293,-0.86869,0.51241
601.373,29.1502,-3.11483,-0.92732,0.51094
604.373,29.24605,-3.11509,-0.96565,0.50949
607.373,29.34218,-3.11436,-1.02279,0.50804
610.373,29.4382,-3.11353,-1.07903,0.50659
613.373,29.5344,-3.11906,-1.12591,0.50515
616.373,29.63012,-3.12144,-1.172,0.50372
619.373,29.7267,-3.12271,-1.23051,0.50229
622.373,29.8231,-3.1257,-1.27527,0.50086
625.373,29.9199,-3.12759,-1.38719,0.49945
628.373,30.0168,-3.12426,-1.44161,0.49804
631.373,30.11363,-3.12811,-1.49198,0.49663
634.373,30.2106,-3.12829,-1.51602,0.49524
637.373,30.3076,-3.1366,-1.55799,0.49385
640.373,30.4049,-3.13524,-1.59515,0.49246
643.373,30.5024,-3.13489,-1.63125,0.49109
646.373,30.59988,-3.13478,-1.69951,0.48972
649.373,30.6973,-3.13517,-1.68632,0.48835
652.373,30.795,-3.1366,-1.77391,0.487
655.373,30.8927,-3.14094,-1.82825,0.48565
658.373,30.99063,-3.14459,-1.839,0.48431
661.373,31.08884,-3.14185,-1.87037,0.48298
664.373,31.187,-3.14589,-1.91879,0.48165
667.373,31.28515,-3.16265,-1.95275,0.48033
670.373,31.3833,-3.15004,-2.00474,0.47902
673.373,31.4818,-3.14748,-2.03327,0.47772
676.373,31.5802,-3.14769,-2.08294,0.47642
679.373,31.67888,-3.14897,-2.08274,0.47514
682.373,31.77753,-3.1504,-2.13143,0.47386
685.373,31.8763,-3.15277,-2.15326,0.47259
688.373,31.97539,-3.15512,-2.20878,0.47132
691.373,32.07419,-3.15366,-2.21959,0.47007
694.373,32.1732,-3.15216,-2.27261,0.46882
697.373,32.2721,-3.1563,-2.29081,0.46758
700.373,32.3712,-3.16299,-2.34656,0.46635
703.373,32.4702,-3.15334,-2.39037,0.46513
706.373,32.5694,-3.1559,-2.4421,0.46392
709.373,32.6688,-3.1563,-2.43526,0.46271
712.373,32.76818,-3.16148,-2.40911,0.46151
715.373,32.86744,-3.16015,-2.35345,0.46033
718.373,32.96694,-3.16147,-2.31865,0.45915
721.373,33.06655,-3.16016,-2.34125,0.45797
724.373,33.16626,-3.1616,-2.33335,0.45681
727.373,33.26593,-3.1616,-2.34226,0.45566
729.373,33.33247,-3.16291,-2.34472,0.45489