Folder: fsri_materials_database/01_Data/Pine_Siding/STA/N2/3K_min

Note: 01_Data/README.md
# Materials and Products Database
## 01_Data

Raw data generated from each apparatus are included here in plain-text format. The data is organized first by material, next by the short name of test apparatus used, and where applicable additional filtering by test settings.

### material.json

Each material directory contains a json file of the same name as the material. This file links the data stored in the repository as well as data and graphs produced by the accompanying scripts (__02_Scripts__) to the respective landing page for the material on the front-end website.

File: Pine_Siding_STA_N2_3KData_211606_R1.csv
##Temp./Â°C,Time/min,Mass loss(subtr.2)/mg,DSC(subtr.2)/mW,Sensit./(uV/mW)
48.875,10.00917,-0.04245,0.001306224,0.58408
51.775,13.83869,-0.05011699,0.13948,0.58545
54.675,15.3731,-0.05230829,0.1765,0.58679
57.575,16.6731,-0.05651971,0.2157,0.58811
60.475,17.86037,-0.05824305,0.24618,0.58941
63.375,18.97908,-0.0634,0.2751,0.59069
66.275,20.05225,-0.06764484,0.29176,0.59195
69.175,21.09745,-0.06939906,0.30228,0.59318
72.075,22.1212,-0.07345321,0.32357,0.59439
74.975,23.13158,-0.07666957,0.3246,0.59558
77.875,24.12892,-0.0793,0.32875,0.59675
80.775,25.1183,-0.08124742,0.30616,0.59789
83.675,26.10199,-0.08554993,0.28566,0.59902
86.575,27.07815,-0.0872,0.29362,0.60012
89.475,28.0462,-0.08752422,0.2882,0.6012
92.375,29.00504,-0.08919567,0.29483,0.60225
95.275,29.9606,-0.0941029,0.30715,0.60329
98.175,30.9087,-0.09555336,0.32451,0.6043
101.075,31.85117,-0.09800471,0.34587,0.60529
103.975,32.78989,-0.10058,0.35795,0.60626
106.875,33.7294,-0.10156,0.35443,0.6072
109.775,34.6652,-0.10338,0.36461,0.60812
112.675,35.60288,-0.10593,0.37188,0.60902
115.575,36.53927,-0.10528,0.38272,0.6099
118.475,37.4756,-0.10804,0.39002,0.61076
121.375,38.40865,-0.10702,0.40271,0.61159
124.275,39.33876,-0.10991,0.3888,0.6124
127.175,40.2697,-0.10869,0.41177,0.61319
130.075,41.19735,-0.11031,0.4136,0.61395
132.975,42.12121,-0.11274,0.43974,0.6147
135.875,43.04654,-0.11177,0.43777,0.61542
138.775,43.97053,-0.1146,0.43993,0.61612
141.675,44.89158,-0.11529,0.45148,0.61679
144.575,45.80898,-0.11118,0.47702,0.61745
147.475,46.7247,-0.11638,0.47651,0.61808
150.375,47.64356,-0.11636,0.49817,0.61869
153.275,48.55851,-0.11673,0.50511,0.61928
156.175,49.47135,-0.12174,0.49771,0.61984
159.075,50.37961,-0.12054,0.51167,0.62038
161.975,51.28946,-0.1221,0.53096,0.62091
164.875,52.19858,-0.12504,0.55019,0.6214
167.775,53.108,-0.12296,0.57927,0.62188
170.675,54.01554,-0.12345,0.57735,0.62233
173.575,54.92511,-0.12693,0.58685,0.62277
176.475,55.83556,-0.12957,0.58607,0.62318
179.375,56.74595,-0.13054,0.60711,0.62356
182.275,57.65744,-0.13217,0.61486,0.62393
185.175,58.56726,-0.13118,0.63313,0.62427
188.075,59.4726,-0.13631,0.66235,0.6246
190.975,60.37666,-0.13932,0.66413,0.6249
193.875,61.28025,-0.1404,0.67574,0.62517
196.775,62.1866,-0.14214,0.66663,0.62543
199.675,63.0943,-0.14617,0.68711,0.62567
202.575,64.0019,-0.14807,0.69633,0.62588
205.475,64.9101,-0.15224,0.71434,0.62607
208.375,65.81573,-0.15569,0.72751,0.62624
211.275,66.72969,-0.15795,0.74415,0.62639
214.175,67.63563,-0.16081,0.74499,0.62652
217.075,68.5423,-0.16508,0.73848,0.62662
219.975,69.44629,-0.17336,0.74095,0.62671
222.875,70.35331,-0.17605,0.73921,0.62677
225.775,71.2603,-0.18405,0.74211,0.62681
228.675,72.16419,-0.18794,0.7664,0.62683
231.575,73.06918,-0.19634,0.75706,0.62683
234.475,73.9761,-0.20715,0.78982,0.62681
237.375,74.88065,-0.21787,0.79621,0.62677
240.275,75.7856,-0.22471,0.79812,0.62671
243.175,76.68951,-0.23728,0.85357,0.62663
246.075,77.5932,-0.24727,0.84471,0.62652
248.975,78.4952,-0.26271,0.8641,0.6264
251.875,79.40046,-0.27663,0.88588,0.62625
254.775,80.30501,-0.29062,0.90559,0.62608
257.675,81.21099,-0.31028,0.90382,0.6259
260.575,82.1169,-0.32993,0.91709,0.62569
263.475,83.02124,-0.35211,0.9191,0.62546
266.375,83.92856,-0.3715,0.94759,0.62522
269.275,84.83612,-0.39638,0.95987,0.62495
272.175,85.74511,-0.42348,0.97042,0.62466
275.075,86.65427,-0.4573,0.99804,0.62436
277.975,87.5622,-0.48728,1.03241,0.62403
280.875,88.4683,-0.52705,1.05409,0.62368
283.775,89.37909,-0.56443,1.08322,0.62332
286.675,90.29005,-0.61283,1.1053,0.62293
289.575,91.19996,-0.66171,1.13347,0.62253
292.475,92.10889,-0.71361,1.17112,0.6221
295.375,93.018,-0.76783,1.20937,0.62166
298.275,93.92955,-0.82895,1.22449,0.62119
301.175,94.84431,-0.89522,1.2651,0.62071
304.075,95.76101,-0.95922,1.31017,0.62021
306.975,96.67322,-1.03393,1.3312,0.61969
309.875,97.587,-1.10863,1.35227,0.61915
312.775,98.5031,-1.18781,1.38548,0.6186
315.675,99.41597,-1.2726,1.41504,0.61802
318.575,100.333,-1.35737,1.42929,0.61743
321.475,101.25,-1.44442,1.44817,0.61682
324.375,102.1643,-1.53842,1.51711,0.61619
327.275,103.082,-1.63176,1.57147,0.61554
330.175,103.9987,-1.73172,1.60445,0.61487
333.075,104.914,-1.83641,1.66433,0.61419
335.975,105.836,-1.95068,1.70349,0.61349
338.875,106.7569,-2.06868,1.78332,0.61277
341.775,107.677,-2.19419,1.8739,0.61203
344.675,108.599,-2.32812,1.93326,0.61127
347.575,109.527,-2.47343,1.98351,0.6105
350.475,110.45,-2.61181,1.94942,0.60971
353.375,111.372,-2.75373,1.8261,0.60891
356.275,112.29,-2.87712,1.62137,0.60809
359.175,113.2105,-2.97586,1.33729,0.60725
362.075,114.133,-3.05329,1.03324,0.60639
364.975,115.0548,-3.10054,0.77416,0.60552
367.875,115.979,-3.12703,0.64734,0.60463
370.775,116.905,-3.14508,0.60111,0.60372
373.675,117.833,-3.15753,0.61046,0.6028
376.575,118.76,-3.17191,0.58827,0.60187
379.475,119.689,-3.1781,0.57142,0.60091
382.375,120.62,-3.19296,0.5741,0.59994
385.275,121.551,-3.19996,0.56173,0.59896
388.175,122.487,-3.20931,0.54112,0.59796
391.075,123.418,-3.21944,0.51322,0.59694
393.975,124.353,-3.23073,0.52296,0.59591
396.875,125.291,-3.24116,0.53933,0.59487
399.775,126.226,-3.25087,0.51815,0.5938
402.675,127.162,-3.25894,0.5239,0.59273
405.575,128.101,-3.27017,0.49725,0.59164
408.475,129.039,-3.28148,0.5039,0.59053
411.375,129.978,-3.28982,0.49474,0.58941
414.275,130.916,-3.30651,0.47668,0.58828
417.175,131.86,-3.30578,0.50262,0.58713
420.075,132.8007,-3.31796,0.52072,0.58597
422.975,133.7401,-3.32551,0.51483,0.58479
425.875,134.684,-3.33431,0.54874,0.5836
428.775,135.628,-3.34355,0.57445,0.5824
431.675,136.57,-3.34931,0.58877,0.58118
434.575,137.514,-3.35982,0.6159,0.57995
437.475,138.459,-3.3678,0.6499,0.57871
440.375,139.408,-3.37318,0.68204,0.57745
443.275,140.356,-3.37989,0.6933,0.57618
446.175,141.3057,-3.38502,0.70786,0.5749
449.075,142.251,-3.39248,0.72734,0.57361
451.975,143.199,-3.39687,0.75592,0.5723
454.875,144.15,-3.39919,0.76576,0.57098
457.775,145.099,-3.40851,0.77539,0.56965
460.675,146.046,-3.41368,0.78975,0.56831
463.575,146.998,-3.41509,0.8043,0.56695
466.475,147.957,-3.41906,0.80985,0.56558
469.375,148.91,-3.41804,0.81436,0.5642
472.275,149.865,-3.42703,0.82095,0.56281
475.175,150.823,-3.43163,0.84189,0.56141
478.075,151.776,-3.43646,0.85347,0.56
480.975,152.729,-3.44041,0.87687,0.55857
483.875,153.688,-3.44326,0.89507,0.55714
486.775,154.646,-3.44337,0.90333,0.55569
489.675,155.61,-3.45018,0.93756,0.55423
492.575,156.571,-3.45215,0.91812,0.55277
495.475,157.53,-3.45676,0.93448,0.55129
498.375,158.49,-3.45965,0.94243,0.5498
501.275,159.448,-3.46125,0.95957,0.5483
504.175,160.413,-3.46384,0.97989,0.5468
507.075,161.376,-3.46894,0.96873,0.54528
509.975,162.342,-3.47464,0.98628,0.54375
512.875,163.3056,-3.47516,1.00273,0.54222
515.775,164.272,-3.47913,1.02445,0.54067
518.675,165.238,-3.48013,1.04071,0.53911
521.575,166.203,-3.48286,1.04648,0.53755
524.475,167.172,-3.48647,1.07614,0.53598
527.375,168.136,-3.48845,1.07541,0.5344
530.275,169.103,-3.4901,1.08159,0.5328
533.175,170.073,-3.49482,1.09169,0.53121
536.075,171.039,-3.49797,1.09769,0.5296
538.975,172.005,-3.50118,1.08904,0.52798
541.875,172.981,-3.50095,1.13881,0.52636
544.775,173.9524,-3.50181,1.11444,0.52473
547.675,174.932,-3.50684,1.13187,0.52309
550.575,175.911,-3.51099,1.14728,0.52144
553.475,176.885,-3.51467,1.16214,0.51979
556.375,177.857,-3.5161,1.16537,0.51813
559.275,178.8283,-3.51914,1.17647,0.51646
562.175,179.809,-3.52005,1.19017,0.51478
565.075,180.789,-3.52301,1.2003,0.5131
567.975,181.767,-3.52553,1.24143,0.51141
570.875,182.744,-3.52504,1.23546,0.50971
573.775,183.723,-3.52816,1.24144,0.50801
576.675,184.702,-3.53012,1.28139,0.5063
579.575,185.68,-3.53102,1.30484,0.50459
582.475,186.656,-3.53398,1.34599,0.50287
585.375,187.632,-3.53595,1.3666,0.50114
588.275,188.61,-3.53759,1.39192,0.49941
591.175,189.597,-3.53903,1.42854,0.49767
594.075,190.585,-3.54132,1.42353,0.49592
596.975,191.569,-3.54,1.47729,0.49418
599.875,192.549,-3.54462,1.53394,0.49242
602.775,193.534,-3.54514,1.52418,0.49066
605.675,194.518,-3.54813,1.52602,0.4889
608.575,195.501,-3.54933,1.56611,0.48713
611.475,196.489,-3.55131,1.57976,0.48535
614.375,197.4789,-3.5535,1.61072,0.48357
617.275,198.469,-3.55679,1.65164,0.48179
620.175,199.454,-3.55602,1.69297,0.48
623.075,200.446,-3.5487,1.75098,0.47821
625.975,201.434,-3.5624,1.77523,0.47642
628.875,202.427,-3.55909,1.80403,0.47462
631.775,203.418,-3.56436,1.84178,0.47281
634.675,204.41,-3.56405,1.88589,0.47101
637.575,205.396,-3.56359,1.9604,0.4692
640.475,206.39,-3.56633,1.99323,0.46738
643.375,207.383,-3.566,2.0151,0.46557
646.275,208.379,-3.56654,2.01208,0.46375
649.175,209.372,-3.5671,2.01218,0.46192
652.075,210.365,-3.56908,2.04501,0.4601
654.975,211.361,-3.57641,2.07597,0.45827
657.875,212.354,-3.5716,2.09435,0.45644
660.775,213.349,-3.57665,2.0927,0.4546
663.675,214.349,-3.57258,2.07596,0.45277
666.575,215.341,-3.57346,2.06835,0.45093
669.475,216.341,-3.57669,2.0883,0.44909
672.375,217.34,-3.57508,2.04043,0.44724
675.275,218.34,-3.57509,2.01452,0.4454
678.175,219.341,-3.57796,1.99642,0.44355
681.075,220.342,-3.5771,2.0005,0.44171
683.975,221.345,-3.57587,2.04069,0.43986
686.875,222.342,-3.57577,2.01953,0.438
689.775,223.342,-3.58,2.01723,0.43615
692.675,224.342,-3.57829,1.98672,0.4343
695.575,225.352,-3.5819,1.95832,0.43244
698.475,226.356,-3.58125,2.01174,0.43059
701.375,227.36,-3.5807,2.01616,0.42873
704.275,228.363,-3.5825,2.00714,0.42688
707.175,229.367,-3.58349,2.06012,0.42502
710.075,230.373,-3.58163,2.07088,0.42316
712.975,231.38,-3.58695,2.11697,0.4213
715.875,232.3872,-3.58399,2.12738,0.41944
718.775,233.396,-3.58632,2.17858,0.41758
721.675,234.396,-3.58544,2.17819,0.41573
724.575,235.404,-3.58709,2.17536,0.41387
727.475,236.408,-3.58624,2.17879,0.41201
730.375,237.418,-3.58554,2.24812,0.41015
733.275,238.424,-3.59112,2.28296,0.40829
736.175,239.433,-3.59112,2.31192,0.40643
739.075,240.443,-3.59058,2.38288,0.40458
741.975,241.453,-3.59195,2.48296,0.40272
744.875,242.4578,-3.58931,2.61875,0.40086
747.375,243.324,-3.59156,2.69252,0.39927