Folder: fsri_materials_database/01_Data/Wool_Rug/Cone

Note: 01_Data/README.md
# Materials and Products Database
## 01_Data

Raw data generated from each apparatus are included here in plain-text format. The data is organized first by material, next by the short name of test apparatus used, and where applicable additional filtering by test settings.

### material.json

Each material directory contains a json file of the same name as the material. This file links the data stored in the repository as well as data and graphs produced by the accompanying scripts (__02_Scripts__) to the respective landing page for the material on the front-end website.

File: Wool_Rug_Cone_HF25Scalar_220323_R1.csv
LABORATORY,FSRI
TEST IDENT,WoolRug_HF25_1
OPERATOR,Dow
MATERIAL,Wool Rug
ORIENTATION,Horizontal
HEAT FLUX,25
SURF AREA,0.01
C FACTOR,0.0392277
SPEC HOLDER DIFF,-566
SPECIMEN MASS,38.58
SCAN TIME,0.25
O2 DELAY TIME,11
CO DELAY TIME,11
CO2 DELAY TIME,8
FLOW FACTOR,1
SCAN COUNT,4659
TIME TO IGN,579
END OF TEST SCAN,4179
END OF TEST TIME,1044.75
TEST STATUS,1
PRE TEST CMT,Dimensions: 101.09 x 99.69 x 16.30 mm
POST TEST CMT,"At approximately 90 seconds a candle sized flame ignited near the center of the sample, then extinguished a few seconds later. Ignition began at approximately 9 minutes as a candle sized flame at the edge of the sample, which slowly spread along the edges. The ignition event was recorded when the majority of the surface area was involved. By the time of ignition, the sample corners had slightly curled upwards, impacting the spark ignitor as it was removed and causing a spike in mass data. "

File: Wool_Rug_Cone_HF25Scalar_220323_R2.csv
LABORATORY,FSRI
TEST IDENT,WoolRug_HF25_2
OPERATOR,Dow
MATERIAL,Wool Rug
ORIENTATION,Horizontal
HEAT FLUX,25
SURF AREA,0.00884
C FACTOR,0.0392277
SPEC HOLDER DIFF,-566
SPECIMEN MASS,39.6
SCAN TIME,0.25
O2 DELAY TIME,11
CO DELAY TIME,11
CO2 DELAY TIME,8
FLOW FACTOR,1
SCAN COUNT,5213
TIME TO IGN,39.75
END OF TEST SCAN,4733
END OF TEST TIME,1183.25
TEST STATUS,1
PRE TEST CMT,Dimensions: 101.89 x 100.95 x 16.62 mm; with frame
POST TEST CMT,See test pictures.

File: Wool_Rug_Cone_HF25Scalar_220323_R3.csv
LABORATORY,FSRI
TEST IDENT,WoolRug_HF25_3
OPERATOR,Dow
MATERIAL,Wool Rug
ORIENTATION,Horizontal
HEAT FLUX,25
SURF AREA,0.00884
C FACTOR,0.0392277
SPEC HOLDER DIFF,-566
SPECIMEN MASS,37.5
SCAN TIME,0.25
O2 DELAY TIME,11
CO DELAY TIME,11
CO2 DELAY TIME,8
FLOW FACTOR,1
SCAN COUNT,5742
TIME TO IGN,27.75
END OF TEST SCAN,5262
END OF TEST TIME,1315.5
TEST STATUS,1
PRE TEST CMT,Dimensions: 101.68 x 100.95 x 16.62 mm; with frame
POST TEST CMT,"Ignition across whole surface at once, then reduced to candle sized flame that nearly extinguished. Small flames continued to ignite and extinguish at various locations on the surface. See test pictures."

File: Wool_Rug_Cone_HF25Scalar_220324_R4.csv
LABORATORY,FSRI
TEST IDENT,WoolRug_HF25_4
OPERATOR,Dow
MATERIAL,Wool Rug
ORIENTATION,Horizontal
HEAT FLUX,25
SURF AREA,0.00884
C FACTOR,0.0392277
SPEC HOLDER DIFF,-566
SPECIMEN MASS,38.43
SCAN TIME,0.25
O2 DELAY TIME,11
CO DELAY TIME,11
CO2 DELAY TIME,8
FLOW FACTOR,1
SCAN COUNT,4442
TIME TO IGN,25.25
END OF TEST SCAN,3962
END OF TEST TIME,990.5
TEST STATUS,1
PRE TEST CMT,Dimensions: 101.85 x 101.43 x 16.53 mm; with frame
POST TEST CMT,"Ignition across whole surface at once, then reduced to candle sized flame that nearly extinguished. Small flames continued to ignite and extinguish at various locations on the surface. See test pictures."

File: Wool_Rug_Cone_HF25Scan_220323_R1.csv
Names,Time,Stack TC,Smoke TC,Exh Press,Smoke Comp,Smoke Meas,CO Meter,CO2 Meter,O2 Meter,Sample Mass,Ext Coeff,Start Test,Flame Verif
Chan Gain,,500,500,1,1,1,1,1,1,1,1,1.0,1.0
Offset,,0,0,0.138078,0,0,0,0,0,0,0,0.0,0.0
Gain,,1,1,25.011,13.1874,13.4895,1,1,1,1.00089,1.01187,1.0,1.0
Units,sec,C,C,Pa,%,%,%,%,%,g,/m,,
Baseline,,16.2791,16.9101,161.273,100.072,96.2453,0.000896437,0.0679446,21.0032,-836.373,0.346082,,
49,12,15.682,16.3321,158.136,99.5771,94.7672,0.00114439,0.0688823,21.0094,-305.833,0.439441,0.0,0.0
98,24.25,15.8802,16.8573,162.423,99.7654,90.937,0.0018253,0.0719202,21.0032,-306.133,0.822405,0.0,0.0
147,36.5,16.6577,17.0837,161,99.8817,91.1528,0.00250506,0.0814578,20.9933,-306.363,0.811716,0.0,0.0
196,48.75,16.4144,17.0869,160.785,99.9562,91.1528,0.00297216,0.0758398,20.999,-306.614,0.81833,0.0,0.0
245,61,17.0367,17.7469,162.125,99.9533,92.6805,0.00294156,0.0771659,20.9975,-306.834,0.670552,0.0,0.0
294,73.25,16.9827,17.7934,157.809,99.955,92.8007,0.00265995,0.0760513,20.9991,-307.034,0.65919,0.0,0.0
343,85.5,17.3033,18.4785,155.891,99.936,93.5804,0.00287111,0.0741844,21.0024,-307.204,0.583247,0.0,0.0
392,97.75,17.4676,18.7278,157.946,99.893,92.4664,0.00230459,0.0795633,20.9945,-307.404,0.685714,0.0,0.0
441,110,17.9969,18.7294,161.206,99.7904,93.6046,0.00274899,0.0753445,20.9997,-307.634,0.567994,0.0,0.0
490,122.25,17.8663,18.447,159.284,99.6588,93.3445,0.00273721,0.073738,21.0017,-307.845,0.580986,0.0,0.0
539,134.5,17.5354,18.6982,158.667,99.4688,93.7977,0.00279166,0.0736903,21.0026,-308.095,0.521057,0.0,0.0
588,146.75,17.9958,18.8711,159.062,99.1802,92.7492,0.00261641,0.0739257,21.0026,-308.325,0.595051,0.0,0.0
637,159,18.2665,19.0429,156.3,99.1915,92.0173,0.00281264,0.0743046,21.0026,-308.595,0.666383,0.0,0.0
686,171.25,18.3193,19.2567,161.818,99.2213,92.7196,0.00248846,0.0750059,20.9984,-308.855,0.60156,0.0,0.0
735,183.5,18.6145,19.0398,157.938,99.2837,92.5644,0.0025744,0.0753651,20.997,-309.116,0.622008,0.0,0.0
784,195.75,18.0144,18.8274,158.583,99.3207,92.4931,0.00246866,0.0750361,20.9993,-309.416,0.63215,0.0,0.0
833,208,18.3885,19.9073,158.855,99.375,92.9069,0.00246539,0.0744204,21.0008,-309.656,0.597388,0.0,0.0
882,220.25,18.5152,19.4995,162.879,99.4185,93.5157,0.0022498,0.0741177,21.0028,-309.926,0.543292,0.0,0.0
931,232.5,18.3906,19.4312,157.735,99.4318,92.6735,0.00231272,0.0744948,21.0005,-310.197,0.624784,0.0,0.0
980,244.75,18.6364,19.0177,157.304,99.4579,92.7747,0.00217105,0.0746218,21.0003,-310.447,0.617425,0.0,0.0
1029,257,18.5849,19.4294,154.655,99.4547,92.5919,0.00235638,0.0741857,21.0008,-310.687,0.634642,0.0,0.0
1078,269.25,18.2836,19.795,157.317,99.4471,92.6714,0.00190306,0.0743156,20.9985,-310.937,0.626347,0.0,0.0
1127,281.5,18.7752,19.3023,160.447,99.4543,93.123,0.00217242,0.0742179,20.9993,-311.188,0.583843,0.0,0.0
1176,293.75,18.2065,19.194,155.016,99.441,93.0818,0.00200418,0.0742838,21.0008,-311.438,0.586582,0.0,0.0
1225,306,18.7763,19.4052,159.462,99.4346,92.6413,0.0019935,0.0792105,20.9954,-311.638,0.628112,0.0,0.0
1274,318.25,19.0125,20.0845,162.991,99.3992,93.4927,0.00186357,0.0750948,20.9995,-311.878,0.543755,0.0,0.0
1323,330.5,18.5899,19.5939,158.372,99.3935,92.89,0.00182263,0.0740574,21.0005,-312.088,0.600655,0.0,0.0
1372,342.75,19.2095,19.8275,155.822,99.3758,93.7331,0.00169549,0.0767371,20.9996,-312.279,0.518875,0.0,0.0
1421,355,18.9755,19.6392,161.647,99.3553,93.9529,0.00181926,0.0752677,21.0013,-312.489,0.49625,0.0,0.0
1470,367.25,18.6405,19.6763,158.73,99.334,92.4512,0.00195451,0.0732427,21.0028,-312.699,0.637368,0.0,0.0
1519,379.5,19.214,19.5313,164.532,99.3106,92.8274,0.0014967,0.0731543,21.003,-312.889,0.599229,0.0,0.0
1568,391.75,19.1055,19.6324,156.382,99.2998,92.8813,0.00193587,0.073715,21.0014,-313.079,0.593104,0.0,0.0
1617,404,19.0159,19.6673,157.408,99.2635,93.2177,0.00202798,0.073393,21.004,-313.239,0.557782,0.0,0.0
1666,416.25,19.0055,19.8634,158.197,99.2068,92.5537,0.00203067,0.0726901,21.008,-313.43,0.61616,0.0,0.0
1715,428.5,18.8885,20.0926,159.684,99.1694,94.0546,0.00161712,0.0728136,21.005,-313.6,0.470022,0.0,0.0
1764,440.75,19.0558,20.1413,161.041,99.1408,93.8821,0.00200862,0.0732516,20.9996,-313.73,0.483757,0.0,0.0
1813,453,19.7312,19.8526,159.021,99.1468,92.7443,0.00193171,0.0732005,21.0011,-313.89,0.592533,0.0,0.0
1862,465.25,19.0584,19.6719,163.647,99.1062,93.0069,0.00197584,0.0732255,21.0022,-314.06,0.563793,0.0,0.0
1911,477.5,19.3102,20.2346,156.545,99.0712,93.293,0.00237788,0.0740842,21.0006,-314.2,0.533394,0.0,0.0
1960,489.75,19.7974,20.2027,158.651,99.043,93.3581,0.0021993,0.0730533,21.0049,-314.36,0.524683,0.0,0.0
2009,502,19.424,20.4349,156.031,98.9806,92.9402,0.0024134,0.0737602,21.0031,-314.501,0.558907,0.0,0.0
2058,514.25,19.4554,20.184,155.988,98.9388,93.095,0.0022006,0.0741909,21.0026,-314.661,0.540382,0.0,0.0
2107,526.5,19.238,20.2931,164.894,98.8969,92.6134,0.00270025,0.0740554,21.0024,-314.841,0.582668,0.0,0.0
2156,538.75,19.1853,20.0598,160.883,98.8454,92.1758,0.00290512,0.0738676,21.0025,-315.041,0.620082,0.0,0.0
2205,551,19.8678,20.707,152.585,98.7653,93.5989,0.00194936,0.114183,20.9356,-315.281,0.476895,0.0,0.0
2254,563.25,21.8961,22.8866,157.133,98.6265,92.1704,0.00280641,0.159151,20.8741,-315.652,0.600917,0.0,0.0
2303,575.5,24.0271,24.2433,152.983,98.4824,92.4417,0.00292803,0.193237,20.8252,-316.092,0.561854,0.0,0.0
2352,587.75,25.4901,26.9717,147.062,98.3001,88.5189,0.00286307,0.236236,20.7573,-316.813,0.930291,0.0,1.0
2401,600,27.8986,28.8953,146.263,98.1685,90.4134,0.00308726,0.251511,20.7398,-317.023,0.730437,0.0,0.0
2450,612.25,29.7397,31.8336,142.724,98.0554,88.388,0.00290745,0.249349,20.749,-317.994,0.921305,0.0,0.0
2499,624.5,31.3547,32.8145,144.794,97.9536,88.4131,0.00292116,0.239483,20.762,-318.604,0.909562,0.0,0.0
2548,636.75,32.2606,34.1774,150.7,97.9689,89.707,0.00270209,0.227287,20.7781,-319.165,0.781993,0.0,0.0
2597,649,32.4095,34.426,148.963,97.894,90.518,0.00289065,0.216647,20.7868,-319.675,0.695325,0.0,0.0
2646,661.25,32.62,34.7668,150.163,97.8711,90.4517,0.00272537,0.202934,20.8077,-320.146,0.699747,0.0,0.0
2695,673.5,32.3359,34.1553,153.155,97.9355,90.7921,0.00279008,0.19383,20.8227,-320.596,0.672239,0.0,0.0
2744,685.75,31.6141,33.7789,153.445,98.0824,90.0013,0.00285417,0.184763,20.8362,-321.006,0.763193,0.0,0.0
2793,698,31.162,33.3927,150.229,98.2824,92.1082,0.00254417,0.177408,20.8504,-321.397,0.575884,0.0,0.0
2842,710.25,32.078,33.9863,154.872,98.5186,92.5858,0.00290079,0.174886,20.8534,-321.767,0.551294,0.0,0.0
2891,722.5,30.2175,32.321,159.219,98.8084,92.8962,0.00287282,0.173359,20.8503,-322.087,0.547655,0.0,0.0
2940,734.75,30.1084,32.2063,154.284,99.0833,92.7229,0.00296948,0.168698,20.8604,-322.458,0.588887,0.0,0.0
2989,747,29.5883,31.4615,157.668,99.3642,94.1369,0.00290219,0.166731,20.868,-322.808,0.479673,0.0,0.0
3038,759.25,29.173,31.025,151.43,99.5606,93.6458,0.00273261,0.160603,20.8829,-323.088,0.543628,0.0,0.0
3087,771.5,29.1144,31.0625,149.734,99.7316,93.962,0.00271549,0.157853,20.8826,-323.378,0.528947,0.0,0.0
3136,783.75,28.2949,29.995,154.34,99.8809,93.5334,0.00299308,0.152744,20.8902,-323.649,0.5828,0.0,0.0
3185,796,28.1359,29.7416,154.843,99.9461,94.642,0.00294251,0.154503,20.8856,-323.919,0.484006,0.0,0.0
3234,808.25,27.9548,29.4675,155.657,99.9606,94.7944,0.00270709,0.153001,20.8853,-324.179,0.471019,0.0,0.0
3283,820.5,27.5215,28.932,156.24,99.8853,95.1533,0.00270452,0.153817,20.8777,-324.419,0.430785,0.0,0.0
3332,832.75,27.2103,28.6473,155.843,99.8334,95.2398,0.00292128,0.146358,20.8871,-324.67,0.418109,0.0,0.0
3381,845,26.875,28.1464,154.946,99.7743,94.5708,0.00295152,0.143002,20.8918,-324.86,0.475413,0.0,0.0
3430,857.25,26.2491,27.6779,158.215,99.7002,94.8129,0.00273562,0.137781,20.9006,-325.04,0.446133,0.0,0.0
3479,869.5,26.1753,27.6152,155.917,99.629,94.7581,0.00280653,0.130511,20.913,-325.2,0.444916,0.0,0.0
3528,881.75,25.797,27.0685,157.032,99.5469,95.2674,0.0028405,0.125199,20.925,-325.34,0.390027,0.0,0.0
3577,894,25.9014,26.9739,155.026,99.4877,94.9088,0.00262789,0.121028,20.9326,-325.51,0.41822,0.0,0.0
3626,906.25,25.2791,26.684,156.393,99.4004,95.3621,0.00286902,0.120723,20.9338,-325.661,0.368138,0.0,0.0
3675,918.5,24.9127,26.0103,154.489,99.3795,95.2834,0.00281209,0.113285,20.9454,-325.801,0.37359,0.0,0.0
3724,930.75,24.7208,25.8141,156.199,99.4664,95.1146,0.00248035,0.110249,20.9471,-325.921,0.397088,0.0,0.0
3773,943,24.4317,25.5056,166.075,99.6185,95.7568,0.00321532,0.117113,20.9422,-326.011,0.350925,0.0,0.0
3822,955.25,24.221,25.1954,156.25,99.7795,95.8099,0.00295855,0.106476,20.955,-326.131,0.360335,0.0,0.0
3871,967.5,23.8636,24.9559,158.801,99.926,95.5592,0.00267077,0.102685,20.9601,-326.241,0.396613,0.0,0.0
3920,979.75,23.8834,24.9095,156.617,99.7899,95.034,0.00315631,0.0994396,20.9681,-326.301,0.433448,0.0,0.0
3969,992,24.4014,24.9317,159.236,99.1122,95.3308,0.00336374,0.0955133,20.9702,-326.421,0.345282,0.0,0.0
4018,1004.25,23.2995,24.1901,157.653,98.1158,94.018,0.00287046,0.0935889,20.9733,-326.471,0.378673,0.0,0.0
4067,1016.5,23.0776,23.9956,158.239,97.9129,93.6133,0.00316199,0.0939241,20.9785,-326.571,0.398592,0.0,0.0
4116,1028.75,22.8539,24.1199,158.783,98.818,94.437,0.00302449,0.0917913,20.9789,-326.651,0.402503,0.0,0.0
4165,1041,22.9325,23.7463,157.914,99.334,95.4823,0.00291192,0.092826,20.9772,-326.701,0.351025,0.0,0.0
4214,1053.25,21.1836,22.4549,157.334,99.1839,95.1813,0.00271703,0.0916697,20.9824,-326.751,0.36562,0.0,0.0
4263,1065.5,21.6537,22.5922,153.158,99.4434,95.4538,0.0031641,0.0869967,20.989,-326.812,0.363442,0.0,0.0
4312,1077.75,21.7463,22.544,158.834,99.9485,96.0327,0.0030116,0.0834306,20.9938,-326.902,0.35475,0.0,0.0
4361,1090,20.8435,21.8811,159.297,98.7182,94.202,0.00303575,0.0836143,20.9925,-326.972,0.415654,0.0,0.0
4410,1102.25,20.7655,21.6499,163.121,98.086,93.7072,0.00334215,0.0830066,20.9948,-327.002,0.40537,0.0,0.0
4459,1114.5,21.1401,22.0942,159.429,99.2792,94.9648,0.00314425,0.0829329,20.9944,-327.022,0.394367,0.0,0.0
4508,1126.75,20.8606,22.1903,158.913,99.3903,94.5964,0.00322196,0.0834471,20.9942,-327.112,0.438796,0.0,0.0
4557,1139,20.8608,21.6589,154.903,99.3835,95.0426,0.0031446,0.083244,20.9943,-327.162,0.396412,0.0,0.0
4606,1151.25,20.5479,21.8704,155.277,99.6088,94.5766,0.00297044,0.0845625,20.991,-327.232,0.460145,0.0,0.0
4655,1163.5,20.8346,21.8056,160.529,97.9101,92.8776,,,,-327.292,0.468363,0.0,0.0
4659,1164.5,21.3463,21.5977,159.584,97.9528,93.1815,,,,-327.302,0.443243,0.0,0.0

File: Wool_Rug_Cone_HF25Scan_220323_R2.csv
Names,Time,Stack TC,Smoke TC,Exh Press,Smoke Comp,Smoke Meas,CO Meter,CO2 Meter,O2 Meter,Sample Mass,Ext Coeff,Start Test,Flame Verif
Chan Gain,,500,500,1,1,1,1,1,1,1,1,1.0,1.0
Offset,,0,0,0.138078,0,0,0,0,0,0,0,0.0,0.0
Gain,,1,1,25.011,13.1874,13.4895,1,1,1,1.00089,1.01187,1.0,1.0
Units,sec,C,C,Pa,%,%,%,%,%,g,/m,,
Baseline,,18.7901,19.368,159.711,99.1882,94.688,0.000787431,0.0694502,21.0044,-836.305,0.41218,,
54,13.25,17.5451,18.264,157.613,98.0824,92.4845,0.00111768,0.0710972,21.0062,110.018,0.521616,0.0,0.0
108,26.75,18.1012,18.2243,157.713,98.4502,90.1388,0.00179465,0.0749059,21.0016,109.728,0.782869,0.0,0.0
162,40.25,17.8662,18.6123,147.299,98.94,91.6748,0.00203957,0.0926403,20.9457,109.418,0.676947,0.0,1.0
216,53.75,22.3706,23.3011,153.436,99.4096,93.8134,0.00206918,0.180391,20.8576,108.837,0.514296,0.0,0.0
270,67.25,23.5558,23.6662,157.948,99.7811,95.0504,0.00248027,0.113937,20.9533,108.537,0.431122,0.0,0.0
324,80.75,22.9301,24.0434,156.537,99.9566,94.3275,0.00240073,0.100037,20.9687,108.337,0.514482,0.0,0.0
378,94.25,21.9452,23.3738,156.303,99.9719,94.013,0.00197024,0.090092,20.983,108.156,0.545484,0.0,0.0
432,107.75,21.8051,22.8982,157.72,99.8113,94.0591,0.00205019,0.0818914,20.9966,107.996,0.526863,0.0,0.0
486,121.25,21.5724,22.4007,156.698,99.5203,93.454,0.0019246,0.0809784,20.9936,107.786,0.55824,0.0,0.0
540,134.75,21.0319,22.7025,161.446,99.2406,93.6009,0.0023294,0.0887675,20.9812,107.546,0.519311,0.0,0.0
594,148.25,21.2811,22.8697,158.578,99.5408,94.0196,0.00199132,0.100546,20.9657,107.296,0.50651,0.0,0.0
648,161.75,21.9195,22.9853,155.748,99.792,94.5297,0.00202871,0.109806,20.9519,107.035,0.480853,0.0,0.0
702,175.25,22.3351,23.5002,150.393,99.6998,94.6042,0.00180167,0.113848,20.9463,106.695,0.465658,0.0,0.0
756,188.75,23.0285,23.8966,155.451,99.3231,94.2617,0.00168467,0.11411,20.9442,106.305,0.464252,0.0,0.0
810,202.25,22.9582,24.416,156.326,99.0036,93.8298,0.00200389,0.108944,20.9528,105.975,0.476407,0.0,0.0
864,215.75,23.844,24.6814,153.105,99.0998,94.0653,0.00201155,0.105129,20.9608,105.664,0.462779,0.0,0.0
918,229.25,23.2869,24.5765,155.47,99.2277,94.4057,0.00177419,0.100575,20.9681,105.364,0.442168,0.0,0.0
972,242.75,23.1217,24.6155,157.707,99.2796,94.4296,0.00158871,0.100444,20.9682,105.074,0.444565,0.0,0.0
1026,256.25,22.6107,23.7075,157.69,99.2933,94.682,0.00137254,0.0973603,20.9712,104.793,0.4221,0.0,0.0
1080,269.75,22.9309,24.1756,151.148,99.2382,94.5474,0.001374,0.0983582,20.9693,104.503,0.429798,0.0,0.0
1134,283.25,22.6477,24.1482,160.195,99.0519,94.3456,0.00123358,0.0999406,20.9688,104.223,0.432074,0.0,0.0
1188,296.75,22.7322,24.039,155.938,98.8446,93.7833,0.00130745,0.100549,20.9669,103.893,0.466544,0.0,0.0
1242,310.25,22.5269,24.0789,155.549,98.6486,93.8298,0.00135362,0.10018,20.9666,103.622,0.444526,0.0,0.0
1296,323.75,22.5825,23.7655,153.913,98.4965,93.8887,0.00132219,0.104449,20.9631,103.292,0.425261,0.0,0.0
1350,337.25,22.9589,23.9299,156.342,98.3532,93.6882,0.00126948,0.0982724,20.9676,103.032,0.431314,0.0,0.0
1404,350.75,22.6688,23.6065,156.609,98.2083,93.2366,0.00132213,0.0935526,20.9711,102.752,0.461117,0.0,0.0
1458,364.25,22.5633,23.5422,158.564,98.1218,93.3445,0.0013584,0.0903145,20.9795,102.461,0.443031,0.0,0.0
1512,377.75,21.9796,23.3101,157.555,98.0063,92.9406,0.00117089,0.0861997,20.9824,102.241,0.471062,0.0,0.0
1566,391.25,22.2828,23.1016,157.177,97.9262,92.9415,0.00108814,0.0846932,20.983,102.011,0.463727,0.0,0.0
1620,404.75,21.7868,22.7149,161.374,97.9037,93.3078,0.00156509,0.0831035,20.9869,101.831,0.426762,0.0,0.0
1674,418.25,21.9005,22.7938,157.626,97.9025,93.4071,0.00125648,0.082864,20.9872,101.631,0.41722,0.0,0.0
1728,431.75,21.0346,22.0739,153.856,97.9612,93.2432,0.00134057,0.0828314,20.9862,101.451,0.438129,0.0,0.0
1782,445.25,21.2535,21.7747,156.544,98.0775,93.7475,0.00118065,0.0832514,20.9841,101.29,0.400785,0.0,0.0
1836,458.75,21.1323,22.1823,153.919,98.1862,93.9533,0.00148875,0.0836047,20.9828,101.11,0.391147,0.0,0.0
1890,472.25,21.225,22.0234,155.431,98.379,94.0949,0.00128354,0.0839559,20.9836,100.96,0.395188,0.0,0.0
1944,485.75,20.8601,22.351,155.444,98.5923,94.7223,0.00153989,0.0838627,20.9836,100.8,0.355426,0.0,0.0
1998,499.25,21.0787,21.8576,155.805,98.7971,93.8179,0.00135317,0.0847684,20.9838,100.65,0.459007,0.0,0.0
2052,512.75,21.0353,21.8141,159.531,98.9875,94.5202,0.00161529,0.0851295,20.9831,100.5,0.409895,0.0,0.0
2106,526.25,21.0841,22.2703,157.337,99.1883,94.4659,0.00155848,0.0862208,20.9818,100.329,0.43299,0.0,0.0
2160,539.75,20.9237,21.9554,158.137,99.2933,94.6091,0.00135508,0.0875827,20.9814,100.159,0.428933,0.0,0.0
2214,553.25,21.537,22.2596,157.795,99.3939,95.2805,0.00145082,0.0886229,20.9801,100.009,0.375153,0.0,0.0
2268,566.75,21.3959,22.718,157.49,99.5143,95.3122,0.00144602,0.0911555,20.9764,99.8191,0.38294,0.0,0.0
2322,580.25,21.5794,22.5924,155.032,99.6221,95.0508,0.00144157,0.0933465,20.971,99.6789,0.416932,0.0,0.0
2376,593.75,22.2494,22.9594,154.161,99.7163,95.1677,0.00177041,0.0954439,20.9682,99.4487,0.414407,0.0,0.0
2430,607.25,21.8764,22.6137,155.076,99.8157,94.7631,0.00162599,0.098064,20.9622,99.3086,0.461074,0.0,0.0
2484,620.75,21.9448,23.1785,155.708,99.8608,95.7218,0.00169531,0.0999495,20.9604,99.0884,0.375728,0.0,0.0
2538,634.25,22.4345,23.5254,159.12,99.9002,95.1665,0.00181549,0.101008,20.9598,98.8982,0.430879,0.0,0.0
2592,647.75,22.6774,23.6653,158.147,99.9199,95.4431,0.00167847,0.101084,20.958,98.698,0.406867,0.0,0.0
2646,661.25,22.5126,23.4251,155.251,99.9602,95.8359,0.00154405,0.101421,20.9632,98.4879,0.373993,0.0,0.0
2700,674.75,22.393,23.5004,156.779,99.9626,95.6226,0.00150898,0.104313,20.9572,98.3077,0.393979,0.0,0.0
2754,688.25,22.773,23.6337,156.449,99.9614,95.3756,0.00123036,0.100731,20.9621,98.1275,0.416829,0.0,0.0
2808,701.75,22.5715,24.0553,152.808,99.9638,95.6844,0.0014377,0.102755,20.9637,97.8973,0.388356,0.0,0.0
2862,715.25,22.9485,23.8303,155.51,99.9272,95.4147,0.00205471,0.107655,20.9556,97.6972,0.410152,0.0,0.0
2916,728.75,22.9348,23.75,155.998,99.8849,95.232,0.00176754,0.107185,20.9537,97.487,0.423417,0.0,0.0
2970,742.25,23.4602,24.6168,153.669,99.86,95.1167,0.00187253,0.108362,20.9523,97.2868,0.43195,0.0,0.0
3024,755.75,23.6581,24.5287,152.203,99.7883,94.8228,0.00147913,0.110297,20.9511,97.0566,0.453051,0.0,0.0
3078,769.25,23.6022,24.8023,156.063,99.7127,94.712,0.00161895,0.11084,20.948,96.8264,0.456691,0.0,0.0
3132,782.75,23.6469,24.5659,155.352,99.6221,94.712,0.00162095,0.116439,20.9416,96.6062,0.448627,0.0,0.0
3186,796.25,23.9718,24.9525,155.736,99.5098,94.3333,0.00158558,0.113194,20.9463,96.406,0.474182,0.0,0.0
3240,809.75,24.1616,25.18,154.089,99.4221,94.5791,0.00155344,0.113764,20.9466,96.2058,0.443258,0.0,0.0
3294,823.25,23.6647,25.1546,158.617,99.3791,95.2143,0.00157975,0.111701,20.9457,95.9256,0.379999,0.0,0.0
3348,836.75,24.4464,25.2636,153.556,99.3263,95.0035,0.00165959,0.116283,20.9405,95.7354,0.39496,0.0,0.0
3402,850.25,24.7454,25.6392,155.466,99.303,94.7104,0.00178968,0.118887,20.9393,95.275,0.4203,0.0,0.0
3456,863.75,23.8921,25.7545,156.369,99.2736,93.4178,0.00232525,0.128587,20.9308,95.245,0.539651,0.0,0.0
3510,877.25,24.8232,25.8407,154.752,99.2374,93.6796,0.00163605,0.118565,20.9398,94.9847,0.511571,0.0,0.0
3564,890.75,24.6339,25.9881,153.242,99.2189,94.684,0.00180621,0.121831,20.9359,94.7345,0.415248,0.0,0.0
3618,904.25,24.4119,25.8493,159.263,99.2096,94.9467,0.00165244,0.123887,20.931,94.4643,0.389834,0.0,0.0
3672,917.75,24.9058,26.077,152.851,99.2048,94.3493,0.00169092,0.12644,20.9286,94.214,0.445419,0.0,0.0
3726,931.25,25.3955,26.5151,149.328,99.1786,94.6956,0.00169756,0.131338,20.9219,93.9338,0.410568,0.0,0.0
3780,944.75,25.5801,26.5981,155.678,99.2752,93.6487,0.00203082,0.132343,20.9185,93.6435,0.517879,0.0,0.0
3834,958.25,25.806,26.788,152.442,99.3372,93.4412,0.00186639,0.134254,20.9189,93.4033,0.543106,0.0,0.0
3888,971.75,25.7994,27.0755,155.11,99.3529,93.0934,0.00181622,0.130475,20.9233,93.1631,0.577613,0.0,0.0
3942,985.25,24.7009,27.2853,156.226,99.3517,94.0521,0.00139434,0.12446,20.9327,92.9529,0.486558,0.0,0.0
3996,998.75,25.6227,26.6592,155.816,99.3557,93.7998,0.00183874,0.120836,20.9355,92.7327,0.510765,0.0,0.0
4050,1012.25,25.5803,26.7617,157.714,99.3549,94.2217,0.00167266,0.113787,20.9441,92.5325,0.470854,0.0,0.0
4104,1025.75,24.9128,25.7387,160.312,99.4181,94.5346,0.00177351,0.108761,20.9518,92.3424,0.447073,0.0,0.0
4158,1039.25,24.4083,25.5952,158.936,99.5175,94.6844,0.00176488,0.105331,20.9549,92.1822,0.441885,0.0,0.0
4212,1052.75,23.8427,24.7264,156.027,99.5738,94.1349,0.00169138,0.101903,20.9596,92.0421,0.498578,0.0,0.0
4266,1066.25,23.6392,24.6036,156.386,99.6169,95.0076,0.00157725,0.0974762,20.9636,91.892,0.420503,0.0,0.0
4320,1079.75,23.8626,24.8676,156.756,99.6604,95.2143,0.00158508,0.0988075,20.9638,91.7619,0.405089,0.0,0.0
4374,1093.25,22.9645,23.8705,161.192,99.6813,94.6824,0.00128596,0.0906352,20.9762,91.6117,0.456674,0.0,0.0
4428,1106.75,23.3616,24.148,158.565,99.6692,95.4814,0.00141895,0.089863,20.9782,91.5617,0.381006,0.0,0.0
4482,1120.25,22.8234,23.9833,159.221,99.6579,94.5704,0.0011736,0.0857165,20.9827,91.4816,0.465099,0.0,0.0
4536,1133.75,22.3636,22.7693,158.348,99.6443,94.9673,0.00162643,0.083563,20.9872,91.3715,0.426711,0.0,0.0
4590,1147.25,21.7659,23.0239,157.49,99.6579,95.5214,0.00123737,0.0819468,20.9886,91.2914,0.376291,0.0,0.0
4644,1160.75,21.9162,22.885,158.456,99.6837,95.8865,0.00138868,0.081237,20.9883,91.1813,0.344719,0.0,0.0
4698,1174.25,22.0614,22.6806,154.886,99.7264,95.3773,0.00116124,0.0788738,20.9917,91.1213,0.395782,0.0,0.0
4752,1187.75,20.388,21.2257,160.736,99.7529,94.3547,0.00135482,0.0725568,21.0021,91.0512,0.493823,0.0,0.0
4806,1201.25,20.9795,21.0734,156.469,99.7384,95.0599,0.00161468,0.0704995,21.0063,90.9912,0.426442,0.0,0.0
4860,1214.75,20.3759,21.1409,156.61,99.7529,94.7462,0.00138729,0.0698315,21.0065,90.9411,0.45707,0.0,0.0
4914,1228.25,20.5339,21.6202,157.766,99.73,94.3444,0.00129698,0.0701572,21.0046,90.8811,0.49275,0.0,0.0
4968,1241.75,20.3993,20.7631,156.964,99.7167,94.4222,0.00131401,0.0703084,21.0055,90.821,0.484251,0.0,0.0
5022,1255.25,20.1624,20.8551,156.628,99.7103,94.6194,0.000964094,0.0701631,21.0044,90.771,0.465161,0.0,0.0
5076,1268.75,20.524,20.474,156.705,99.6571,94.889,0.0012771,0.0704819,21.0042,90.7209,0.435172,0.0,0.0
5130,1282.25,20.3621,20.7123,157.153,99.5952,94.6853,0.00104893,0.0706861,21.0071,90.6609,0.448732,0.0,0.0
5184,1295.75,20.1222,20.8801,162.018,99.5505,94.9327,,,,90.5908,0.421587,0.0,0.0
5213,1303,20.158,20.9766,158.543,99.5187,94.747,,,,90.5908,0.436127,0.0,0.0