Folder: fsri_materials_database/01_Data/Wool_Rug/Cone (part 4)

File: Wool_Rug_Cone_HF50Scan_220324_R3.csv
Names,Time,Stack TC,Smoke TC,Exh Press,Smoke Comp,Smoke Meas,CO Meter,CO2 Meter,O2 Meter,Sample Mass,Ext Coeff,Start Test,Flame Verif
Chan Gain,,500,500,1,1,1,1,1,1,1,1,1.0,1.0
Offset,,0,0,0.130261,0,0,0,0,0,0,0,0.0,0.0
Gain,,1,1,25.011,13.1874,13.4895,1,1,1,1.00089,1.01187,1.0,1.0
Units,sec,C,C,Pa,%,%,%,%,%,g,/m,,
Baseline,,32.7084,33.6663,151.427,99.6416,93.0853,0.000741348,0.0457962,21.0887,-836.219,0.604164,,
21,5,30.5898,31.7031,149.47,99.6833,80.1526,0.00220334,0.0755666,21.0663,-299.657,1.93557,0.0,1.0
42,10.25,35.2172,35.808,123.452,99.5473,87.3399,0.00640836,0.451702,20.5439,-300.488,1.16121,0.0,1.0
63,15.5,41.516,42.7622,124.689,99.4326,87.1473,0.00824702,0.581971,20.3078,-301.419,1.17058,0.0,0.0
84,20.75,45.702,47.7706,130.705,99.466,85.897,0.00792925,0.522387,20.3641,-302.079,1.30182,0.0,0.0
105,26,48.7524,51.2658,131.098,99.4813,88.0826,0.00743119,0.469226,20.443,-302.75,1.08017,0.0,0.0
126,31.25,51.2994,53.8633,131.704,99.4748,87.7368,0.00597083,0.431953,20.5052,-303.331,1.11451,0.0,0.0
147,36.5,53.0426,56.0739,132.774,99.4833,88.9907,0.00498121,0.402136,20.5521,-303.901,0.989309,0.0,0.0
168,41.75,54.4609,57.4587,133.962,99.4716,88.3769,0.00447283,0.365895,20.6049,-304.442,1.0497,0.0,0.0
189,47,55.4069,58.6155,139.358,99.4322,89.8935,0.00437847,0.337481,20.6473,-305.012,0.895156,0.0,0.0
210,52.25,55.8382,59.3739,137.481,99.429,89.9211,0.00396597,0.320301,20.671,-305.563,0.892146,0.0,0.0
231,57.5,56.9644,60.7545,137.698,99.4479,90.5937,0.00351037,0.311399,20.6841,-306.093,0.827684,0.0,0.0
252,62.75,56.9983,60.8913,137.775,99.4768,89.7613,0.00372165,0.296073,20.706,-306.573,0.912201,0.0,0.0
273,68,56.8151,60.773,136.561,99.499,91.331,0.00334578,0.286217,20.7233,-307.054,0.760298,0.0,0.0
294,73.25,57.215,61.2561,141.151,99.5404,91.1404,0.00341693,0.272163,20.7447,-307.454,0.782539,0.0,0.0
315,78.5,57.0015,60.8519,140.512,99.5332,91.6719,0.00328982,0.263366,20.7626,-307.905,0.730284,0.0,0.0
336,83.75,57.5998,61.8432,133.526,99.5477,91.7217,0.00316419,0.259896,20.7696,-308.375,0.726755,0.0,0.0
357,89,56.9805,61.1749,139.409,99.5424,91.5208,0.00312332,0.260759,20.7701,-308.815,0.745751,0.0,0.0
378,94.25,57.6639,61.9658,138.698,99.5485,91.2915,0.00256358,0.269913,20.7604,-309.316,0.768556,0.0,0.0
399,99.5,57.8695,62.2857,140.98,99.5577,91.4026,0.00250463,0.273729,20.7538,-309.696,0.75858,0.0,0.0
420,104.75,57.1905,61.7358,137.082,99.6093,91.55,0.00268815,0.273532,20.7512,-310.167,0.748872,0.0,0.0
441,110,56.9332,61.4922,134.116,99.6563,92.2939,0.00289188,0.267681,20.7601,-310.577,0.681236,0.0,0.0
462,115.25,57.3677,61.3289,140.713,99.6765,91.6599,0.0030878,0.260759,20.7719,-310.997,0.744208,0.0,0.0
483,120.5,57.0354,61.4473,135.866,99.7002,91.7612,0.00278972,0.253842,20.7809,-311.368,0.736521,0.0,0.0
504,125.75,56.8215,61.2441,137.435,99.699,91.8102,0.00259735,0.252431,20.7871,-311.768,0.731676,0.0,0.0
525,131,57.0421,61.3731,141.335,99.6853,92.1873,0.00269578,0.252224,20.7881,-312.108,0.694077,0.0,0.0
546,136.25,56.3157,60.751,135.849,99.7075,91.6204,0.00272244,0.249738,20.7937,-312.549,0.750795,0.0,0.0
567,141.5,56.47,60.9932,147.012,99.7445,91.7851,0.00286197,0.2478,20.7982,-312.889,0.738152,0.0,0.0
588,146.75,55.7294,60.2977,142.529,99.7457,91.6562,0.00278396,0.242219,20.8045,-313.219,0.750728,0.0,0.0
609,152,55.9411,60.3212,142.715,99.7843,91.266,0.00263521,0.236702,20.8128,-313.64,0.79204,0.0,0.0
630,157.25,55.6404,60.002,144.663,99.829,91.3961,0.00258826,0.23624,20.8151,-313.91,0.78337,0.0,0.0
651,162.5,55.2334,59.2119,140.82,99.858,91.5204,0.00246953,0.233667,20.8187,-314.27,0.77388,0.0,0.0
672,167.75,55.0572,59.1229,137.148,99.8885,91.8806,0.00240193,0.234076,20.8201,-314.641,0.741733,0.0,0.0
693,173,54.8184,58.8478,145.875,99.9018,91.6455,0.00242952,0.231933,20.8228,-314.901,0.76565,0.0,0.0
714,178.25,54.0993,58.2767,138.926,99.895,90.4702,0.00256311,0.230573,20.8251,-315.201,0.879609,0.0,0.0
735,183.5,54.1788,58.2712,140.409,99.9059,91.1487,0.00252598,0.228568,20.8293,-315.531,0.814262,0.0,0.0
756,188.75,53.8527,58.1239,139.858,99.9324,90.3665,0.00273419,0.231936,20.8273,-315.842,0.893118,0.0,0.0
777,194,53.8097,57.6144,138.27,99.9256,90.0054,0.00262475,0.229816,20.8295,-316.092,0.928044,0.0,0.0
798,199.25,53.9514,57.6645,140.495,99.9308,90.469,0.00264538,0.230425,20.83,-316.422,0.882913,0.0,0.0
819,204.5,53.4451,57.4154,143.04,99.9554,90.3858,0.00286759,0.226753,20.834,-316.703,0.893255,0.0,0.0
840,209.75,53.6548,57.2154,139.208,99.9389,90.7456,0.00283143,0.224372,20.8388,-316.923,0.856527,0.0,0.0
861,215,53.1823,56.7437,140.9,99.9264,89.9602,0.00300943,0.221266,20.8425,-317.253,0.932582,0.0,0.0
882,220.25,52.5217,56.2318,143.387,99.8982,90.2133,0.00291568,0.218641,20.847,-317.483,0.905134,0.0,0.0
903,225.5,52.1971,55.7321,140.028,99.8374,90.4431,0.00288262,0.218058,20.8486,-317.743,0.87716,0.0,0.0
924,230.75,52.3461,55.9225,146.436,99.7409,90.3545,0.00285007,0.217009,20.8507,-318.024,0.877259,0.0,0.0
945,236,53.0694,56.3822,140.676,99.6664,90.0005,0.00315286,0.219878,20.847,-318.274,0.905479,0.0,0.0
966,241.25,52.1972,55.7267,144.323,99.5416,89.6621,0.00335799,0.222621,20.8424,-318.514,0.927797,0.0,0.0
987,246.5,52.1733,55.4848,138.272,99.3851,89.094,0.00346352,0.224831,20.8409,-318.814,0.970243,0.0,0.0
1008,251.75,52.6693,56.0241,140.697,99.1641,89.4481,0.00365041,0.221414,20.8439,-319.065,0.915289,0.0,0.0
1029,257,51.9496,55.3337,141.486,99.0667,88.8071,0.00341028,0.220379,20.8471,-319.335,0.9704,0.0,0.0
1050,262.25,51.5446,55.0371,145.318,99.107,89.5617,0.00365998,0.215539,20.8555,-319.515,0.898903,0.0,0.0
1071,267.5,51.3983,54.4724,144.082,99.1786,89.418,0.00378047,0.21118,20.8644,-319.775,0.919568,0.0,0.0
1092,272.75,51.3735,54.6186,141.377,99.2269,89.2435,0.00360215,0.208738,20.8696,-319.995,0.941232,0.0,0.0
1113,278,50.9478,54.0847,141.454,99.2708,89.1801,0.00365219,0.202935,20.8772,-320.206,0.951462,0.0,0.0
1134,283.25,50.39,53.3302,147.121,99.3247,89.241,0.00371836,0.198705,20.886,-320.406,0.950221,0.0,0.0
1155,288.5,50.5878,53.4937,141.886,99.3654,89.1294,0.00404857,0.202525,20.8804,-320.676,0.964955,0.0,0.0
1176,293.75,50.1374,53.0412,144.153,99.4088,88.9985,0.00426095,0.203427,20.8785,-320.836,0.981885,0.0,0.0
1197,299,49.3393,52.7804,139.962,99.4789,89.8317,0.00424676,0.202068,20.8798,-321.056,0.905422,0.0,0.0
1218,304.25,50.018,53.043,144.456,99.5437,89.3019,0.0039109,0.202707,20.8794,-321.257,0.963707,0.0,0.0
1239,309.5,49.4755,52.3657,142.955,99.5618,88.9236,0.00377347,0.200754,20.8843,-321.487,1.003,0.0,0.0
1260,314.75,49.7543,52.6229,144.27,99.5988,89.6551,0.00401645,0.190894,20.8965,-321.657,0.933584,0.0,0.0
1281,320,48.9834,51.6116,142.902,99.6282,91.692,0.0037952,0.177268,20.9147,-321.787,0.736798,0.0,0.0
1302,325.25,48.383,51.0359,148.026,99.6257,91.3767,0.00360662,0.162377,20.9347,-321.957,0.76716,0.0,0.0
1323,330.5,47.6904,50.5264,149.095,99.6157,92.8888,0.00371375,0.146645,20.9549,-322.087,0.620589,0.0,0.0
1344,335.75,47.8682,50.1333,151.069,99.6157,92.8311,0.00387028,0.133913,20.9731,-322.147,0.626099,0.0,0.0
1365,341,45.8811,48.1923,147.965,99.5787,92.8925,0.00386144,0.123557,20.9866,-322.187,0.616936,0.0,0.0
1386,346.25,45.936,48.4173,142.373,99.5408,93.144,0.00390846,0.115212,20.9999,-322.257,0.589561,0.0,0.0
1407,351.5,44.9678,47.5072,153.681,99.4921,93.5314,0.00404813,0.108421,21.0109,-322.338,0.54838,0.0,0.0
1428,356.75,44.3377,46.6812,154.623,99.3996,92.7463,0.00416375,0.104356,21.0151,-322.398,0.614933,0.0,0.0
1449,362,43.6538,45.801,151.694,99.3062,92.8521,0.0041501,0.100767,21.0199,-322.488,0.596472,0.0,0.0
1470,367.25,43.1617,45.1691,147.937,99.1939,93.0295,0.00456016,0.0983402,21.0251,-322.558,0.569487,0.0,0.0
1491,372.5,42.3989,44.6287,150.602,99.0619,92.473,0.00498339,0.0946238,21.0301,-322.608,0.610929,0.0,0.0
1512,377.75,42.1659,44.0844,148.894,98.9356,92.9456,0.00506383,0.0936535,21.0328,-322.698,0.554352,0.0,0.0
1533,383,40.4945,43.0703,146.507,98.8209,92.0811,0.00482454,0.0924203,21.0346,-322.688,0.627,0.0,0.0
1554,388.25,40.6384,42.5081,153.858,98.7215,92.7241,0.0048887,0.0930539,21.0352,-322.758,0.556299,0.0,0.0
1575,393.5,39.4052,41.4517,148.57,98.5713,92.7854,0.00500791,0.0912134,21.0375,-322.808,0.536922,0.0,0.0
1596,398.75,39.8314,41.2114,149.609,98.4816,92.5718,0.00491212,0.0906031,21.0378,-322.878,0.5493,0.0,0.0
1617,404,39.6137,41.122,149.672,98.3975,92.0346,0.00464745,0.0898752,21.0361,-322.918,0.593376,0.0,0.0
1638,409.25,39.1081,40.632,151.33,98.3315,92.4116,0.00464368,0.0903572,21.0355,-323.008,0.551128,0.0,0.0
1659,414.5,39.1078,40.3637,150.507,98.3637,92.3421,0.00472675,0.0891661,21.0366,-323.038,0.560718,0.0,0.0
1680,419.75,38.6695,39.7054,148.701,98.4385,91.9543,0.0046907,0.0892496,21.0354,-323.048,0.604824,0.0,0.0
1701,425,38.4074,39.8055,149.265,98.5641,92.1157,0.00473753,0.088541,21.0352,-323.108,0.600575,0.0,0.0
1722,430.25,38.7686,39.5749,148.468,98.7794,92.6409,0.0044028,0.0892984,21.0358,-323.148,0.569472,0.0,0.0
1743,435.5,37.7135,39.3674,152.595,99.0132,93.1522,0.00426766,0.0881415,21.038,-323.198,0.541604,0.0,0.0
1764,440.75,38.2051,39.1222,147.142,99.2752,93.4379,0.00425358,0.0876395,21.0401,-323.208,0.537879,0.0,0.0
1785,446,38.4264,39.0646,150.021,99.565,93.3881,0.00412087,0.0873511,21.0409,-323.288,0.568481,0.0,0.0
1806,451.25,37.1663,39.0356,149.173,99.8395,93.9389,0.00419653,0.0868675,21.0406,-323.338,0.540719,0.0,0.0
1827,456.5,37.741,38.575,149.716,100.066,94.3835,0.00409674,0.0861044,21.0407,-323.368,0.518894,0.0,0.0
1848,461.75,37.1473,38.729,148.887,100.224,94.3547,0.00410199,0.085603,21.0412,-323.449,0.535658,0.0,0.0
1869,467,36.7003,38.7673,153.646,100.279,93.8829,0.00408117,0.0863447,21.0414,-323.459,0.585031,0.0,0.0
1890,472.25,36.7848,37.9627,150.876,100.238,94.8471,0.00413318,0.0858045,21.0425,-323.489,0.490674,0.0,0.0
1911,477.5,37.1333,37.8438,149.602,100.096,94.2172,0.00423055,0.0850572,21.0429,-323.519,0.537225,0.0,0.0
1932,482.75,36.914,38.2559,146.994,99.9228,93.6895,0.00404601,0.084367,21.0432,-323.579,0.571725,0.0,0.0
1953,488,37.2572,38.524,148.806,99.6917,93.8842,0.00376687,0.083796,21.0451,-323.609,0.532753,0.0,0.0
1974,493.25,36.9564,37.8103,145.065,99.5094,93.8327,,0.0837351,,-323.629,0.521373,0.0,0.0
1995,498.5,36.9825,38.0916,149.406,99.6431,93.5787,,,,-323.689,0.557343,0.0,0.0
2010,502.25,36.1713,37.1781,147.058,99.8378,94.0612,,,,-323.719,0.529031,0.0,0.0

File: Wool_Rug_Cone_HF75Scalar_220324_R1.csv
LABORATORY,FSRI
TEST IDENT,WoolRug_HF75_1
OPERATOR,Dow
MATERIAL,Wool Rug
ORIENTATION,Horizontal
HEAT FLUX,75
SURF AREA,0.01
C FACTOR,0.0392277
SPEC HOLDER DIFF,-566
SPECIMEN MASS,36.06
SCAN TIME,0.25
O2 DELAY TIME,11
CO DELAY TIME,11
CO2 DELAY TIME,8
FLOW FACTOR,1
SCAN COUNT,1683
TIME TO IGN,2
END OF TEST SCAN,1203
END OF TEST TIME,300.75
TEST STATUS,1
PRE TEST CMT,Dimensions: 101.09 x 99.69 x 16.30 mm

File: Wool_Rug_Cone_HF75Scalar_220324_R2.csv
LABORATORY,FSRI
TEST IDENT,WoolRug_HF75_2
OPERATOR,Dow
MATERIAL,Wool Rug
ORIENTATION,Horizontal
HEAT FLUX,75
SURF AREA,0.01
C FACTOR,0.0392277
SPEC HOLDER DIFF,-566
SPECIMEN MASS,38.58
SCAN TIME,0.25
O2 DELAY TIME,11
CO DELAY TIME,11
CO2 DELAY TIME,8
FLOW FACTOR,1
SCAN COUNT,1938
TIME TO IGN,2.5
END OF TEST SCAN,1458
END OF TEST TIME,364.5
TEST STATUS,1
PRE TEST CMT,Dimensions: 101.56 x 99.68 x 16.48 mm

File: Wool_Rug_Cone_HF75Scalar_220324_R3.csv
LABORATORY,FSRI
TEST IDENT,WoolRug_HF75_3
OPERATOR,Dow
MATERIAL,Wool Rug
ORIENTATION,Horizontal
HEAT FLUX,75
SURF AREA,0.01
C FACTOR,0.0392277
SPEC HOLDER DIFF,-566
SPECIMEN MASS,38.05
SCAN TIME,0.25
O2 DELAY TIME,11
CO DELAY TIME,11
CO2 DELAY TIME,8
FLOW FACTOR,1
SCAN COUNT,1828
TIME TO IGN,2.25
END OF TEST SCAN,1348
END OF TEST TIME,337
TEST STATUS,1
PRE TEST CMT,Dimensions: 99.65 x 101.60 x 16.50 mm

File: Wool_Rug_Cone_HF75Scan_220324_R1.csv
Names,Time,Stack TC,Smoke TC,Exh Press,Smoke Comp,Smoke Meas,CO Meter,CO2 Meter,O2 Meter,Sample Mass,Ext Coeff,Start Test,Flame Verif
Chan Gain,,500,500,1,1,1,1,1,1,1,1,1.0,1.0
Offset,,0,0,0.129198,0,0,0,0,0,0,0,0.0,0.0
Gain,,1,1,25.011,13.1874,13.4895,1,1,1,1.00089,1.01187,1.0,1.0
Units,sec,C,C,Pa,%,%,%,%,%,g,/m,,
Baseline,,44.9962,46.8789,124.889,99.4143,93.2516,0.000787036,0.0733297,20.9818,-836.391,0.568053,,
18,4.25,44.2644,45.9621,97.3691,99.637,84.4039,0.00609635,0.423221,20.5295,-327.262,1.47272,0.0,1.0
36,8.75,52.1851,54.6175,93.2779,99.596,83.8745,0.0114566,0.812947,19.9045,-328.203,1.52491,0.0,0.0
54,13.25,58.794,62.6459,98.3575,99.5437,82.6733,0.0123741,0.827583,19.8643,-329.094,1.64829,0.0,0.0
72,17.75,63.5706,68.0683,103.387,99.4849,82.8108,0.0117331,0.74953,19.9627,-329.814,1.6283,0.0,0.0
90,22.25,66.9655,71.7404,106.439,99.4245,84.7254,0.0108872,0.688395,20.0612,-330.475,1.42002,0.0,0.0
108,26.75,69.9672,75.4093,107.473,99.3255,84.8201,0.0096696,0.62879,20.1438,-331.145,1.40127,0.0,0.0
126,31.25,71.6484,76.7662,106.541,99.2591,84.5299,0.00877932,0.5699,20.2355,-331.756,1.42575,0.0,0.0
144,35.75,73.0888,79.1746,106.06,99.1412,86.2782,0.00777397,0.527828,20.2999,-332.336,1.23349,0.0,0.0
162,40.25,74.3145,80.2247,107.56,99.0257,86.2766,0.007,0.500426,20.3373,-332.897,1.22331,0.0,0.0
180,44.75,75.3873,81.4623,110.044,98.9456,88.2518,0.00665517,0.477345,20.3739,-333.528,1.01522,0.0,0.0
198,49.25,76.338,82.5529,107.041,98.9661,86.3264,0.00635931,0.466692,20.3896,-334.058,1.21285,0.0,0.0
216,53.75,77.1037,83.0022,108.691,99.0003,86.4363,0.00585745,0.453437,20.4106,-334.669,1.20462,0.0,0.0
234,58.25,77.3629,84.1805,110.347,99.0012,88.6943,0.00596687,0.441177,20.4285,-335.169,0.975801,0.0,0.0
252,62.75,77.8015,84.3421,108.949,99.0346,87.7689,0.00567675,0.430887,20.447,-335.72,1.07189,0.0,0.0
270,67.25,77.635,84.7582,110.267,99.0374,87.5688,0.00537563,0.422295,20.4613,-336.2,1.0924,0.0,0.0
288,71.75,78.1781,84.7792,114.401,99.0792,88.1031,0.00497771,0.417029,20.4724,-336.72,1.04216,0.0,0.0
306,76.25,78.1131,84.9505,111.252,99.0901,88.2205,0.00466905,0.409774,20.488,-337.201,1.03132,0.0,0.0
324,80.75,77.6357,84.9688,110.147,99.1074,88.9261,0.00444651,0.399699,20.5042,-337.681,0.962158,0.0,0.0
342,85.25,77.6915,84.8236,111.077,99.1291,89.4542,0.00421286,0.38941,20.5223,-338.092,0.91154,0.0,0.0
360,89.75,77.4898,84.4293,114.566,99.1641,88.4189,0.00413279,0.379417,20.5404,-338.532,1.01801,0.0,0.0
378,94.25,76.9965,84.1777,116.886,99.1959,89.4069,0.00420507,0.371903,20.5517,-338.932,0.922219,0.0,0.0
396,98.75,76.8238,83.7143,111.213,99.2261,89.6428,0.00393839,0.36706,20.5588,-339.333,0.901533,0.0,0.0
414,103.25,76.629,83.9478,113.698,99.2752,89.5613,0.00370931,0.359184,20.5721,-339.773,0.913998,0.0,0.0
432,107.75,76.2747,83.0516,110.269,99.3167,88.8157,0.00347386,0.355035,20.5828,-340.153,0.9919,0.0,0.0
450,112.25,75.7363,83.0866,113.401,99.3593,89.4427,0.00334288,0.349709,20.5922,-340.564,0.933273,0.0,0.0
468,116.75,76.1932,81.9443,114.918,99.3976,89.0047,0.00335834,0.346192,20.5985,-340.904,0.980262,0.0,0.0
486,121.25,75.28,82.1208,112.963,99.433,89.1027,0.00371576,0.343074,20.6039,-341.244,0.973658,0.0,0.0
504,125.75,75.0488,81.8938,110.89,99.476,88.556,0.00396788,0.34096,20.6089,-341.605,1.03213,0.0,0.0
522,130.25,74.6059,81.2189,115.004,99.4889,88.8972,0.00376068,0.336979,20.6138,-341.935,0.999138,0.0,0.0
540,134.75,74.1629,80.7008,115.34,99.5155,89.0339,0.003523,0.33567,20.6179,-342.255,0.987871,0.0,0.0
558,139.25,73.8471,80.4142,117.325,99.5292,87.8059,0.00357588,0.334097,20.6218,-342.596,1.11237,0.0,0.0
576,143.75,73.2503,79.7893,111.478,99.5501,88.6931,0.00367267,0.333441,20.6242,-342.916,1.025,0.0,0.0
594,148.25,73.2626,79.5245,118.174,99.5489,87.5424,0.0038352,0.330076,20.6304,-343.236,1.1408,0.0,0.0
612,152.75,72.7761,79.1376,114.959,99.5602,88.155,0.00359303,0.326135,20.6374,-343.587,1.07991,0.0,0.0
630,157.25,72.8311,78.6968,113.138,99.5521,87.6927,0.00348861,0.319059,20.6494,-343.907,1.12586,0.0,0.0
648,161.75,72.2863,78.655,112.702,99.5457,88.5272,0.00353301,0.313943,20.6579,-344.177,1.04123,0.0,0.0
666,166.25,71.1591,78.3021,112.156,99.5352,88.2328,0.00327855,0.310596,20.6625,-344.457,1.06986,0.0,0.0
684,170.75,71.3216,77.6756,116.356,99.5167,88.6939,0.00342514,0.305384,20.6721,-344.718,1.02194,0.0,0.0
702,175.25,70.7978,77.1885,117.003,99.5143,88.9837,0.00360603,0.300566,20.6791,-344.978,0.992772,0.0,0.0
720,179.75,70.9956,76.8862,115.949,99.4728,88.8725,0.00346872,0.293847,20.6887,-345.218,1.00017,0.0,0.0
738,184.25,70.2671,76.0801,115.223,99.4591,89.2822,0.00330459,0.283239,20.704,-345.408,0.958132,0.0,0.0
756,188.75,69.9605,75.5595,115.299,99.4068,89.6168,0.00303956,0.272997,20.7185,-345.638,0.920251,0.0,0.0
774,193.25,69.3283,75.3117,116.901,99.3714,89.532,0.00307965,0.267928,20.7257,-345.869,0.925491,0.0,0.0
792,197.75,69.3342,74.4745,115.714,99.3231,89.4131,0.00294157,0.262339,20.7353,-346.039,0.932979,0.0,0.0
810,202.25,68.0726,74.5318,117.227,99.2595,89.4481,0.00310329,0.258187,20.742,-346.279,0.923821,0.0,0.0
828,206.75,68.1057,73.9138,116.075,99.2225,89.579,0.00281402,0.255998,20.7463,-346.489,0.907529,0.0,0.0
846,211.25,68.1283,72.6958,114.215,99.1521,89.7403,0.00272733,0.252413,20.7509,-346.669,0.885251,0.0,0.0
864,215.75,67.1484,72.784,116.822,99.115,90.0779,0.00274543,0.246353,20.7603,-346.869,0.84861,0.0,0.0
882,220.25,66.4141,71.8771,117.129,99.0515,90.1891,0.00274507,0.238237,20.7728,-347.02,0.831968,0.0,0.0
900,224.75,66.401,71.5254,119.245,98.9995,91.0671,0.00300845,0.228525,20.7875,-347.16,0.741315,0.0,0.0
918,229.25,66.0388,70.8556,116.735,98.9315,91.0741,0.00343673,0.215887,20.8047,-347.26,0.734532,0.0,0.0
936,233.75,65.5242,69.9908,118.384,98.8816,92.1383,0.00406277,0.204944,20.8187,-347.38,0.626943,0.0,0.0
954,238.25,64.7717,68.856,118.871,98.8555,92.4149,0.00412016,0.193175,20.8355,-347.51,0.597984,0.0,0.0
972,242.75,65.1669,68.5394,119.031,98.812,92.5318,0.00390907,0.18108,20.8511,-347.58,0.582858,0.0,0.0
990,247.25,63.0586,67.1238,117.62,98.7798,92.4771,0.00438773,0.171917,20.8639,-347.65,0.58522,0.0,0.0
1008,251.75,62.4261,66.7608,117.126,98.7343,93.1959,0.00482336,0.164842,20.8733,-347.74,0.512411,0.0,0.0
1026,256.25,61.8123,65.4726,123.202,98.6889,92.7891,0.00495663,0.158275,20.8816,-347.85,0.547143,0.0,0.0
1044,260.75,60.7739,64.1476,119.747,98.6112,93.2148,0.00500275,0.154291,20.8875,-347.88,0.499529,0.0,0.0
1062,265.25,60.0932,64.1213,121.373,98.6019,92.4112,0.00495091,0.150443,20.8924,-347.96,0.575546,0.0,0.0
1080,269.75,59.6225,63.4177,120.455,98.5625,92.4952,0.00492865,0.15063,20.8922,-348.02,0.563933,0.0,0.0
1098,274.25,58.6805,62.4884,120.6,98.5242,92.564,0.0051449,0.151321,20.8924,-348.101,0.553893,0.0,0.0
1116,278.75,57.929,61.9379,119.186,98.4997,92.8064,0.00487591,0.149357,20.8947,-348.091,0.528461,0.0,0.0
1134,283.25,57.5031,61.2808,120.685,98.4405,92.4726,0.00468391,0.147039,20.8982,-348.181,0.555117,0.0,0.0
1152,287.75,57.4731,61.3993,119.412,98.4128,92.797,0.0049558,0.144825,20.9012,-348.241,0.52153,0.0,0.0
1170,292.25,57.2622,60.1272,122.466,98.3854,92.7817,0.00527935,0.141407,20.9055,-348.281,0.520518,0.0,0.0
1188,296.75,56.8052,59.7707,120.586,98.3721,92.7648,0.00553744,0.139401,20.9069,-348.361,0.520935,0.0,0.0
1206,301.25,56.0774,59.1661,123.361,98.3476,92.6134,0.00540806,0.137817,20.9105,-348.371,0.533226,0.0,0.0
1224,305.75,55.2304,58.5919,118.343,98.3262,92.3186,0.00602471,0.135787,20.9118,-348.441,0.559596,0.0,0.0
1242,310.25,54.8743,57.5972,121.454,98.3057,92.65,0.00662182,0.134518,20.9147,-348.511,0.525938,0.0,0.0
1260,314.75,54.03,57.4239,120.325,98.2941,92.452,0.00623274,0.132885,20.9179,-348.571,0.543875,0.0,0.0
1278,319.25,54.6795,57.2486,123.087,98.2836,92.221,0.00627611,0.131465,20.9199,-348.631,0.565129,0.0,0.0
1296,323.75,54.0216,57.2173,121.041,98.2808,92.338,0.00620472,0.129639,20.9211,-348.681,0.55363,0.0,0.0
1314,328.25,54.2831,56.9056,121.381,98.2856,92.4182,0.00614349,0.128916,20.9208,-348.721,0.546352,0.0,0.0
1332,332.75,53.9445,56.4291,117.268,98.2844,92.3659,0.00604594,0.129269,20.9207,-348.771,0.551266,0.0,0.0
1350,337.25,53.5775,56.3247,118.942,98.3021,92.2536,0.00615541,0.129397,20.9207,-348.821,0.563672,0.0,0.0
1368,341.75,53.5434,55.8533,118.388,98.2993,92.1967,0.00626224,0.128166,20.9207,-348.841,0.568885,0.0,0.0
1386,346.25,53.4341,55.3993,117.169,98.3122,92.2581,0.00630305,0.127773,20.9207,-348.901,0.564144,0.0,0.0
1404,350.75,52.9701,55.9112,120.848,98.3279,92.2886,0.00650676,0.128497,20.9206,-348.941,0.562631,0.0,0.0
1422,355.25,52.7893,55.072,120.502,98.3512,92.3161,0.00629724,0.128054,20.9212,-348.971,0.562086,0.0,0.0
1440,359.75,52.7731,55.2578,121.274,98.3794,92.3655,0.00611226,0.126511,20.9239,-349.031,0.559879,0.0,0.0
1458,364.25,52.3488,55.036,123.517,98.4007,92.51,0.00616087,0.126421,20.9225,-349.101,0.547928,0.0,0.0
1476,368.75,52.6639,54.8878,117.756,98.447,92.4594,0.00626395,0.126643,20.9221,-349.121,0.556961,0.0,0.0
1494,373.25,52.3739,54.663,119.737,98.4615,92.7603,0.00642645,0.126588,20.9208,-349.151,0.529425,0.0,0.0
1512,377.75,52.5064,54.163,121.807,98.5226,92.6389,0.00638016,0.126455,20.9211,-349.191,0.546566,0.0,0.0
1530,382.25,52.2355,54.2448,126.838,98.5351,92.2021,0.00613641,0.125987,20.9213,-349.222,0.589639,0.0,0.0
1548,386.75,51.7851,54.4849,124.712,98.5705,92.5388,0.00622568,0.125587,20.9213,-349.262,0.56047,0.0,0.0
1566,391.25,52.2625,54.4737,123.022,98.5911,92.3766,0.00632885,0.125926,20.9213,-349.312,0.57789,0.0,0.0
1584,395.75,51.9155,54.108,120.466,98.6241,92.6331,0.00618007,0.125556,20.9213,-349.382,0.556251,0.0,0.0
1602,400.25,51.8283,54.1182,121.367,98.6285,92.7784,0.00624834,0.125357,20.9213,-349.422,0.542736,0.0,0.0
1620,404.75,51.6243,54.2876,120.692,98.6389,93.1012,0.00600558,0.1252,20.922,-349.412,0.512854,0.0,0.0
1638,409.25,51.4152,53.4195,119.292,98.6575,92.6364,0.00592709,0.124318,20.9246,-349.522,0.558943,0.0,0.0
1656,413.75,51.6453,53.785,125.406,98.6671,92.3034,,,,-349.562,0.591779,0.0,0.0
1674,418.25,51.617,53.5857,124.065,98.7009,92.8114,,,,-349.572,0.546103,0.0,0.0
1683,420.5,51.8382,53.5795,123.275,98.7066,93.463,,,,-349.602,0.484505,0.0,0.0