Folder: fsri_materials_database/01_Data/Wool_Rug/Cone (part 3)

File: Wool_Rug_Cone_HF50Scan_220324_R1.csv
Names,Time,Stack TC,Smoke TC,Exh Press,Smoke Comp,Smoke Meas,CO Meter,CO2 Meter,O2 Meter,Sample Mass,Ext Coeff,Start Test,Flame Verif
Chan Gain,,500,500,1,1,1,1,1,1,1,1,1.0,1.0
Offset,,0,0,0.130261,0,0,0,0,0,0,0,0.0,0.0
Gain,,1,1,25.011,13.1874,13.4895,1,1,1,1.00089,1.01187,1.0,1.0
Units,sec,C,C,Pa,%,%,%,%,%,g,/m,,
Baseline,,31.8009,33.2297,151.492,99.2739,92.7461,0.000745239,0.0441231,21.0942,-836.128,0.603734,,
23,5.5,31.9383,32.7966,129.032,99.0249,90.7127,0.00304925,0.19908,20.8678,-304.742,0.778203,0.0,1.0
46,11.25,38.3966,39.8498,127.699,99.7505,87.5704,0.00605823,0.532487,20.3845,-305.703,1.15592,0.0,0.0
69,17,44.1905,46.3517,134.666,99.8423,87.6075,0.00645075,0.527446,20.3707,-306.553,1.16033,0.0,0.0
92,22.75,48.1797,50.9922,131.559,99.4503,88.2229,0.00632415,0.45453,20.4698,-307.134,1.06327,0.0,0.0
115,28.5,50.8459,53.9428,134.538,99.868,88.8738,0.00615526,0.420905,20.526,-307.835,1.03524,0.0,0.0
138,34.25,52.7367,55.5562,136.387,100.193,88.1974,0.00554613,0.390933,20.5691,-308.425,1.1319,0.0,0.0
161,40,54.6219,58.0126,139.62,100.135,89.3151,0.00496031,0.358222,20.6192,-309.006,1.01499,0.0,0.0
184,45.75,54.653,58.6631,139.167,99.699,89.5757,0.00409315,0.337356,20.6518,-309.546,0.950379,0.0,0.0
207,51.5,56.1982,60.0114,135.679,99.1094,89.6205,0.00409193,0.318465,20.6752,-310.157,0.893288,0.0,0.0
230,57.25,56.0837,60.3647,133.609,98.6176,88.7877,0.00374632,0.298863,20.7073,-310.657,0.932001,0.0,0.0
253,63,56.5473,60.8407,137.14,98.3705,89.255,0.00344841,0.287255,20.7234,-311.218,0.863145,0.0,0.0
276,68.75,56.742,60.9248,136.828,98.4305,90.0606,0.00302877,0.269698,20.7491,-311.708,0.788796,0.0,0.0
299,74.5,56.1866,60.5831,137.121,98.6679,89.9021,0.00286583,0.258072,20.7698,-312.199,0.825816,0.0,0.0
322,80.25,56.8297,60.9565,135.156,98.979,90.7864,0.0030195,0.251568,20.7808,-312.669,0.766882,0.0,0.0
345,86,56.4127,60.9048,136.885,99.3058,90.8597,0.00325165,0.24422,20.7922,-313.099,0.788977,0.0,0.0
368,91.75,56.4197,60.4091,140.929,99.503,91.557,0.00323983,0.238807,20.8026,-313.53,0.73872,0.0,0.0
391,97.5,55.7157,60.0754,142.602,99.6141,91.9036,0.00272259,0.236345,20.8076,-313.94,0.715083,0.0,0.0
414,103.25,55.6664,60.0292,140.795,99.6298,92.4944,0.0026828,0.23618,20.8079,-314.36,0.65961,0.0,0.0
437,109,55.3903,60.0961,135.858,99.5569,92.3948,0.00245528,0.235944,20.809,-314.831,0.662683,0.0,0.0
460,114.75,55.1059,59.836,142.793,99.4459,92.4619,0.00272164,0.23399,20.8112,-315.211,0.646331,0.0,0.0
483,120.5,55.3762,59.3984,138.014,99.3485,92.2145,0.00250595,0.229699,20.8198,-315.632,0.661416,0.0,0.0
506,126.25,54.5754,59.0993,134.906,99.2595,92.5755,0.00254841,0.224882,20.8296,-316.032,0.618783,0.0,0.0
529,132,55.0943,59.2097,138.101,99.1746,92.3351,0.00244425,0.223131,20.8332,-316.382,0.634268,0.0,0.0
552,137.75,54.3239,59.1235,141.158,99.1046,91.8678,0.00230151,0.218353,20.8391,-316.733,0.673027,0.0,0.0
575,143.5,54.9175,58.6507,139.612,99.0659,91.8106,0.00227093,0.2125,20.8479,-317.143,0.675096,0.0,0.0
598,149.25,53.6529,57.3924,136.444,99.1847,91.9139,0.00172367,0.215707,20.8474,-317.463,0.675744,0.0,0.0
621,155,53.4028,57.8072,143.604,99.3839,92.0955,0.0017991,0.213091,20.8511,-317.783,0.676039,0.0,0.0
644,160.75,53.4924,57.6331,141.111,99.5654,92.3338,0.00214858,0.210953,20.8542,-318.154,0.669292,0.0,0.0
667,166.5,53.1063,56.9784,141.444,99.7111,92.0333,0.00241088,0.209814,20.8554,-318.464,0.711206,0.0,0.0
690,172.25,53.2103,56.823,144.526,99.8169,91.6826,0.00217611,0.208485,20.8585,-318.824,0.754514,0.0,0.0
713,178,52.4856,56.9628,144.033,99.8845,91.8761,0.00263288,0.208523,20.8593,-319.125,0.741813,0.0,0.0
736,183.75,52.4182,56.1057,142.53,99.9546,91.6739,0.00243858,0.209423,20.8579,-319.395,0.767582,0.0,0.0
759,189.5,52.5791,56.5731,142.322,99.963,91.7447,0.00262067,0.210995,20.8557,-319.735,0.761479,0.0,0.0
782,195.25,51.5761,55.2555,140.954,99.961,91.3467,0.00284456,0.20981,20.8569,-320.005,0.799898,0.0,0.0
805,201,52.0206,55.4397,143.979,99.9409,91.1165,0.00258881,0.211858,20.8557,-320.306,0.820501,0.0,0.0
828,206.75,52.0375,55.6127,141.833,99.8865,91.0079,0.00226712,0.211398,20.8548,-320.596,0.826266,0.0,0.0
851,212.5,51.747,55.261,141.696,99.8378,91.063,0.00208052,0.213012,20.8541,-320.856,0.816561,0.0,0.0
874,218.25,51.2386,54.9256,142.243,99.7743,90.4546,0.00217308,0.212179,20.8561,-321.146,0.87041,0.0,0.0
897,224,51.371,55.5843,142.134,99.7066,90.6444,0.00241008,0.216231,20.852,-321.417,0.84579,0.0,0.0
920,229.75,51.3483,55.1299,144.147,99.6334,90.4673,0.00247105,0.215838,20.8526,-321.737,0.856618,0.0,0.0
943,235.5,51.0043,54.9502,143.133,99.5674,90.3471,0.00249308,0.216587,20.8527,-322.037,0.862538,0.0,0.0
966,241.25,51.3006,54.7462,138.562,99.4921,90.5645,0.00244757,0.219205,20.8493,-322.338,0.834499,0.0,0.0
989,247,51.159,54.7154,141.311,99.4571,90.2586,0.00266913,0.215977,20.8525,-322.588,0.861401,0.0,0.0
1012,252.75,50.3205,54.7427,141.829,99.4789,90.5752,0.00256878,0.214915,20.8557,-322.888,0.832264,0.0,0.0
1035,258.5,50.6624,54.7478,138.53,99.4833,90.0166,0.0021051,0.21157,20.8618,-323.178,0.887573,0.0,0.0
1058,264.25,51.0767,54.6348,138.777,99.5006,90.1722,0.00195091,0.208396,20.8642,-323.398,0.873786,0.0,0.0
1081,270,50.7632,54.2601,142.375,99.4941,90.1796,0.00230891,0.207069,20.866,-323.699,0.872482,0.0,0.0
1104,275.75,50.7095,54.205,141.219,99.5034,89.539,0.00244114,0.20451,20.8696,-323.919,0.936581,0.0,0.0
1127,281.5,50.5262,53.8687,140.206,99.509,89.1249,0.00231674,0.204583,20.8692,-324.169,0.978232,0.0,0.0
1150,287.25,50.5803,52.8158,144.163,99.4889,89.2179,0.00234991,0.204859,20.8707,-324.439,0.967176,0.0,0.0
1173,293,50.2816,54.2263,146.896,99.4873,89.0833,0.00233248,0.205487,20.8709,-324.66,0.980435,0.0,0.0
1196,298.75,50.0391,53.7469,144.117,99.47,89.3163,0.00260948,0.20445,20.8739,-324.92,0.955705,0.0,0.0
1219,304.5,50.419,53.0388,142.777,99.4503,88.9092,0.00243762,0.20034,20.8795,-325.14,0.994498,0.0,0.0
1242,310.25,49.7471,52.7503,142.778,99.5127,89.3451,0.00285151,0.194616,20.8901,-325.4,0.956648,0.0,0.0
1265,316,49.4922,52.5146,139.709,99.5638,89.6082,0.00261363,0.188973,20.8996,-325.58,0.935111,0.0,0.0
1288,321.75,49.292,52.5515,143.908,99.641,90.5077,0.00263232,0.180305,20.9125,-325.731,0.853342,0.0,0.0
1311,327.5,49.1358,52.4147,142.148,99.7078,90.5419,0.0026113,0.172058,20.9232,-325.911,0.855941,0.0,0.0
1334,333.25,48.2319,51.4153,145.175,99.7827,90.6913,0.00285081,0.16395,20.933,-326.081,0.847965,0.0,0.0
1357,339,47.9401,50.7489,141.822,99.8362,91.4854,0.00329888,0.157714,20.9419,-326.241,0.775344,0.0,0.0
1380,344.75,47.2053,50.4175,146.672,99.8894,92.0609,0.00329031,0.153128,20.9503,-326.351,0.724403,0.0,0.0
1403,350.5,47.4136,49.9823,143.998,99.9364,92.3626,0.0031697,0.145568,20.9599,-326.511,0.69954,0.0,0.0
1426,356.25,45.9898,49.3201,145.734,99.9678,92.8373,0.00355343,0.137866,20.9703,-326.621,0.65683,0.0,0.0
1449,362,45.2685,48.3261,145.499,99.961,92.7212,0.00371928,0.129146,20.9812,-326.731,0.667329,0.0,0.0
1472,367.75,45.0513,48.0612,146.095,99.9051,93.1127,0.00402499,0.12314,20.99,-326.802,0.624961,0.0,0.0
1495,373.5,44.6212,47.2263,148.653,99.8326,92.8567,0.00392587,0.12434,20.9914,-326.902,0.642966,0.0,0.0
1518,379.25,44.2925,46.8612,148.049,99.7159,93.0514,0.00413423,0.118933,20.9974,-326.992,0.613989,0.0,0.0
1541,385,43.147,45.9537,153.026,99.5412,92.6389,0.0044642,0.109974,21.011,-327.032,0.637863,0.0,0.0
1564,390.75,42.7785,45.9449,149.404,99.3034,92.219,0.00489882,0.103953,21.021,-327.122,0.656952,0.0,0.0
1587,396.5,42.9654,44.7475,146.59,99.0607,93.0283,0.00525464,0.101173,21.0233,-327.212,0.557677,0.0,0.0
1610,402.25,42.2204,44.0867,147.618,99.1159,91.9197,0.00514284,0.0990035,21.0274,-327.252,0.669026,0.0,0.0
1633,408,41.5326,43.3123,146.951,99.1831,92.5343,0.00524775,0.0971653,21.0283,-327.332,0.615891,0.0,0.0
1656,413.75,41.3609,43.1438,147.552,99.2684,92.5779,0.00496924,0.0965028,21.0288,-327.362,0.619339,0.0,0.0
1679,419.5,40.9401,42.6969,149.413,99.34,92.2923,0.00506161,0.0950043,21.0312,-327.412,0.653175,0.0,0.0
1702,425.25,40.1423,41.7151,150.872,99.4446,92.8097,0.00472422,0.0947278,21.0316,-327.452,0.612892,0.0,0.0
1725,431,39.2884,41.868,146.955,99.534,92.8731,0.00442303,0.0945217,21.0333,-327.542,0.614803,0.0,0.0
1748,436.75,39.3532,40.9584,150.711,99.6028,92.4236,0.00472553,0.0928729,21.0353,-327.612,0.664006,0.0,0.0
1771,442.5,38.8571,40.7443,150.183,99.6455,93.0238,0.00457531,0.0924361,21.0355,-327.642,0.610349,0.0,0.0
1794,448.25,38.7948,39.6175,151.345,99.6712,93.307,0.0045598,0.0908381,21.0386,-327.682,0.58566,0.0,0.0
1817,454,38.1556,39.7685,147.58,99.6394,92.9814,0.00405453,0.091368,21.0399,-327.732,0.613859,0.0,0.0
1840,459.75,38.3035,39.7211,150.282,99.5803,92.7677,0.00400153,0.0903138,21.0419,-327.822,0.629007,0.0,0.0
1863,465.5,38.256,39.0075,150.434,99.4575,92.7945,0.0042965,0.0901506,21.0404,-327.862,0.615499,0.0,0.0
1886,471.25,37.9346,39.2289,150.647,99.313,92.75,0.00428512,0.0899257,21.0403,-327.893,0.606848,0.0,0.0
1909,477,37.6724,38.9297,150.381,99.1597,92.3001,0.00392174,0.0893887,21.0402,-327.943,0.636299,0.0,0.0
1932,482.75,37.7944,38.9696,148.19,98.9899,92.4487,0.00381945,0.0893959,21.0405,-328.013,0.606803,0.0,0.0
1955,488.5,36.7195,38.3309,151.649,98.8204,92.3001,0.0041285,0.0893391,21.041,-328.043,0.605878,0.0,0.0
1978,494.25,37.1739,38.563,146.217,98.6357,91.8378,0.00384888,0.088807,21.0411,-328.103,0.63384,0.0,0.0
2001,500,37.3618,38.5016,148.007,98.476,91.4895,0.00377847,0.0888513,21.0419,-328.173,0.653174,0.0,0.0
2024,505.75,37.1747,38.2208,149.37,98.3987,91.445,0.00375561,0.0884636,21.0416,-328.213,0.650523,0.0,0.0
2047,511.5,37.0947,38.6793,149.023,98.4116,91.9139,0.00389376,0.0877252,21.0411,-328.233,0.606288,0.0,0.0
2070,517.25,36.7546,38.2128,148.689,98.5238,91.8345,0.00368426,0.0874008,21.0434,-328.313,0.624085,0.0,0.0
2093,523,36.6949,37.7578,151.651,98.7013,92.0765,0.00383247,0.0869811,21.0441,-328.323,0.616694,0.0,0.0
2116,528.75,36.6214,37.9306,146.117,98.9009,92.4507,0.00380986,0.0863847,21.0441,-328.383,0.598628,0.0,0.0
2139,534.5,36.5771,37.4685,150.756,99.1227,92.5874,,,,-328.443,0.605395,0.0,0.0
2162,540.25,36.8215,37.1127,149.976,99.3247,93.1197,,,,-328.473,0.572585,0.0,0.0
2169,542,36.9267,37.7671,151.185,99.402,92.9941,,,,-328.503,0.591463,0.0,0.0

File: Wool_Rug_Cone_HF50Scan_220324_R2.csv
Names,Time,Stack TC,Smoke TC,Exh Press,Smoke Comp,Smoke Meas,CO Meter,CO2 Meter,O2 Meter,Sample Mass,Ext Coeff,Start Test,Flame Verif
Chan Gain,,500,500,1,1,1,1,1,1,1,1,1.0,1.0
Offset,,0,0,0.130261,0,0,0,0,0,0,0,0.0,0.0
Gain,,1,1,25.011,13.1874,13.4895,1,1,1,1.00089,1.01187,1.0,1.0
Units,sec,C,C,Pa,%,%,%,%,%,g,/m,,
Baseline,,32.5294,33.4213,151.262,98.5043,92.4935,0.00055504,0.0464906,21.089,-836.201,0.558891,,
20,4.75,31.0881,32.1274,140.406,99.9948,90.6596,0.00226118,0.0772433,21.0582,-302.62,0.869914,0.0,1.0
40,9.75,35.7013,37.003,125.876,100.157,88.8647,0.00588659,0.474158,20.4982,-303.361,1.06179,0.0,0.0
60,14.75,42.1018,43.5954,123.74,100.254,88.6622,0.00732379,0.581537,20.2969,-304.191,1.09063,0.0,0.0
80,19.75,46.2568,48.5815,126.02,100.31,87.3712,0.00687551,0.529172,20.3493,-304.922,1.22574,0.0,0.0
100,24.75,49.9758,52.7217,129.656,100.305,88.0023,0.00642449,0.473907,20.4341,-305.543,1.16147,0.0,0.0
120,29.75,51.9107,54.6888,128.799,100.262,88.3736,0.00607197,0.432904,20.4957,-306.123,1.12028,0.0,0.0
140,34.75,54.7585,57.4425,131.933,100.168,88.7363,0.00532296,0.408873,20.5332,-306.694,1.07559,0.0,0.0
160,39.75,55.0964,58.4835,129.921,100.046,89.2533,0.00474982,0.378303,20.5781,-307.194,1.01317,0.0,0.0
180,44.75,55.7536,59.3647,134.828,99.901,89.271,0.00388638,0.356759,20.6117,-307.725,0.998585,0.0,0.0
200,49.75,56.6804,60.2914,135.417,99.7473,90.1676,0.00369581,0.338705,20.6347,-308.235,0.896211,0.0,0.0
220,54.75,57.3179,61.1837,133.352,99.6282,91.3047,0.00367708,0.319557,20.669,-308.705,0.774376,0.0,0.0
240,59.75,57.6527,61.6679,136.67,99.5131,91.0564,0.00342855,0.308548,20.6876,-309.216,0.788281,0.0,0.0
260,64.75,57.6821,61.7854,133.582,99.6837,91.5607,0.00342707,0.298033,20.7037,-309.686,0.754466,0.0,0.0
280,69.75,57.8274,61.9657,136.043,99.8556,91.8044,0.00305906,0.289864,20.7159,-310.207,0.746161,0.0,0.0
300,74.75,57.992,62.1018,135.937,99.9751,92.0778,0.00320884,0.282998,20.7254,-310.657,0.730389,0.0,0.0
320,79.75,58.6462,62.6731,135.766,100.025,92.4557,0.00319252,0.280621,20.7314,-311.098,0.698427,0.0,0.0
340,84.75,57.4902,62.1993,135.908,100.009,92.7266,0.00284163,0.277966,20.736,-311.498,0.671068,0.0,0.0
360,89.75,58.0823,62.852,141.918,99.9304,92.2799,0.00244693,0.280767,20.7353,-311.978,0.706958,0.0,0.0
380,94.75,58.0713,62.4796,137.514,99.7899,92.5747,0.00230588,0.275232,20.7439,-312.429,0.666168,0.0,0.0
400,99.75,58.4226,62.6437,135.541,99.5585,92.9036,0.00213238,0.276084,20.744,-312.819,0.61408,0.0,0.0
420,104.75,58.1714,62.6692,135.808,99.2225,92.3832,0.00220504,0.270759,20.7503,-313.229,0.633924,0.0,0.0
440,109.75,57.7854,62.0204,134.709,99.1476,92.2667,0.00245048,0.270006,20.7538,-313.66,0.638425,0.0,0.0
460,114.75,58.0564,62.4516,138.797,99.2426,92.1111,0.00246101,0.268117,20.7582,-314.06,0.661906,0.0,0.0
480,119.75,57.9259,62.4198,137.611,99.3465,91.9572,0.00232132,0.266881,20.7597,-314.43,0.686036,0.0,0.0
500,124.75,57.6001,61.9093,137.91,99.4446,92.0877,0.00231009,0.258848,20.7738,-314.841,0.682218,0.0,0.0
520,129.75,57.6062,61.7714,142.392,99.5525,92.261,0.00245181,0.255756,20.7788,-315.191,0.67515,0.0,0.0
540,134.75,57.4069,61.8855,137.499,99.6302,92.0296,0.00280863,0.25221,20.7845,-315.572,0.70436,0.0,0.0
560,139.75,57.1436,61.6462,148.432,99.6664,91.1692,0.00276549,0.250716,20.7875,-315.912,0.790958,0.0,0.0
580,144.75,56.9048,61.1726,137.556,99.6378,92.1873,0.00297995,0.245927,20.7952,-316.282,0.689847,0.0,0.0
600,149.75,56.2346,60.5993,143.405,99.532,90.6666,0.0029586,0.242917,20.8021,-316.552,0.828052,0.0,0.0
620,154.75,55.9982,59.9383,144.1,99.3585,91.3582,0.00296049,0.238827,20.8082,-316.903,0.74512,0.0,0.0
640,159.75,55.8525,60.0973,138.503,99.1597,90.8535,0.00278414,0.238335,20.8108,-317.203,0.776513,0.0,0.0
660,164.75,55.6685,59.8107,138.107,98.9259,90.4241,0.00277458,0.238917,20.8102,-317.553,0.797605,0.0,0.0
680,169.75,55.2393,59.5001,143.94,98.7074,89.5106,0.00301474,0.238875,20.8109,-317.844,0.868101,0.0,0.0
700,174.75,55.3834,59.5057,141.865,98.5283,89.1978,0.0031264,0.239962,20.8105,-318.094,0.883061,0.0,0.0
720,179.75,55.0791,59.3006,140.576,98.3999,89.4633,0.00304055,0.239878,20.8111,-318.424,0.845104,0.0,0.0
740,184.75,54.7907,58.9857,136.663,98.3411,88.5506,0.00287125,0.241887,20.8078,-318.734,0.930818,0.0,0.0
760,189.75,54.7472,58.5985,144.359,98.3926,88.5025,0.00277778,0.243414,20.8066,-319.035,0.940295,0.0,0.0
780,194.75,54.8117,58.476,134.138,98.5512,88.502,0.00271881,0.246933,20.8036,-319.315,0.95463,0.0,0.0
800,199.75,53.8206,57.7885,141.91,98.7641,88.2559,0.00293563,0.248029,20.8026,-319.605,0.998507,0.0,0.0
820,204.75,54.4554,58.6825,141.257,99.0466,88.6918,0.0029774,0.24664,20.8032,-319.895,0.980124,0.0,0.0
840,209.75,54.1066,57.862,141.583,99.3396,89.5436,0.00304133,0.248143,20.801,-320.226,0.921508,0.0,0.0
860,214.75,54.3848,57.8144,139.881,99.6306,89.7296,0.00287486,0.248866,20.8004,-320.496,0.929042,0.0,0.0
880,219.75,53.9879,57.6945,139.017,99.8934,89.4802,0.00280194,0.249697,20.8015,-320.746,0.977137,0.0,0.0
900,224.75,54.1762,58.0257,137.098,100.118,89.7877,0.00308931,0.25031,20.8006,-321.076,0.966652,0.0,0.0
920,229.75,54.1653,58.0354,145.373,100.253,89.9231,0.00297144,0.249108,20.8031,-321.347,0.965217,0.0,0.0
940,234.75,53.7501,57.3163,142.564,100.316,89.2904,0.00293239,0.246192,20.8076,-321.617,1.03341,0.0,0.0
960,239.75,54.0434,57.6944,140.774,100.307,89.4695,0.00321066,0.243939,20.8132,-321.927,1.01485,0.0,0.0
980,244.75,53.8674,57.4348,146.391,100.244,88.6218,0.00352594,0.24016,20.8197,-322.177,1.09375,0.0,0.0
1000,249.75,53.4556,57.1416,138.201,100.123,89.2653,0.00329641,0.237105,20.8249,-322.428,1.01887,0.0,0.0
1020,254.75,53.1414,56.6479,143.546,99.9787,89.3155,0.00322822,0.231463,20.833,-322.658,1.00106,0.0,0.0
1040,259.75,53.1804,56.6519,143,99.8306,89.215,0.0032596,0.227415,20.838,-322.928,0.997894,0.0,0.0
1060,264.75,53.2402,56.6439,140.497,99.6592,88.0669,0.00328113,0.224872,20.843,-323.178,1.09761,0.0,0.0
1080,269.75,52.4204,55.7932,142.446,99.5215,88.7478,0.00323757,0.224868,20.8438,-323.409,1.01698,0.0,0.0
1100,274.75,52.5686,55.9927,137.591,99.6684,88.4407,0.00347604,0.226629,20.8419,-323.639,1.06084,0.0,0.0
1120,279.75,52.3604,55.281,143.223,99.8938,88.3119,0.0031682,0.230779,20.8397,-323.919,1.09383,0.0,0.0
1140,284.75,52.3887,55.9149,143.802,100.015,88.8186,0.00302903,0.228143,20.8435,-324.109,1.05376,0.0,0.0
1160,289.75,51.9741,54.9174,140.993,100.041,88.4946,0.00313603,0.217728,20.8567,-324.289,1.08855,0.0,0.0
1180,294.75,51.6342,54.5073,145.953,99.9735,90.0487,0.00316377,0.203906,20.8748,-324.459,0.928034,0.0,0.0
1200,299.75,51.0349,54.1627,144.789,99.7928,91.4343,0.00319143,0.188564,20.8948,-324.62,0.776433,0.0,0.0
1220,304.75,50.8965,53.7739,143.498,99.5437,92.3664,0.00329621,0.172256,20.9181,-324.76,0.664229,0.0,0.0
1240,309.75,50.0245,52.8753,148.683,99.1895,92.6117,0.00313929,0.154534,20.9426,-324.87,0.609047,0.0,0.0
1260,314.75,48.8099,51.8638,148.203,99.2088,93.074,0.00359708,0.139487,20.9655,-324.96,0.566578,0.0,0.0
1280,319.75,48.3116,51.2897,150.249,99.2704,92.9987,0.00397227,0.12596,20.9852,-325.04,0.579272,0.0,0.0
1300,324.75,47.5503,50.2077,148.096,99.3654,93.0921,0.00424903,0.116711,20.9988,-325.12,0.578846,0.0,0.0
1320,329.75,46.7145,49.3735,146.524,99.4636,93.8183,0.00444151,0.108717,21.0094,-325.18,0.518642,0.0,0.0
1340,334.75,45.3748,47.8231,143.881,99.5477,93.6742,0.00459127,0.105051,21.0157,-325.25,0.539787,0.0,0.0
1360,339.75,44.974,47.4512,146.516,99.6068,93.4363,0.0046303,0.10288,21.0184,-325.3,0.567636,0.0,0.0
1380,344.75,44.9658,47.286,147.576,99.6217,93.9183,0.00473763,0.101603,21.0217,-325.34,0.523287,0.0,0.0
1400,349.75,43.3745,45.7806,145.881,99.596,94.2855,0.00470783,0.0985922,21.0245,-325.42,0.486355,0.0,0.0
1420,354.75,42.14,44.3243,145.905,99.5062,94.2707,0.00511995,0.0984514,21.0255,-325.48,0.479748,0.0,0.0
1440,359.75,42.0391,44.3672,152.312,99.3726,93.4178,0.00516174,0.0969033,21.0272,-325.58,0.548499,0.0,0.0
1460,364.75,41.3869,43.3892,149.357,99.2044,93.1843,0.00543393,0.0955542,21.0296,-325.57,0.555666,0.0,0.0
1480,369.75,41.1333,41.9559,144.785,99.012,93.0382,0.00547017,0.0941849,21.0317,-325.63,0.552369,0.0,0.0
1500,374.75,40.2351,42.0727,149.486,98.8132,93.1325,0.00528621,0.0936416,21.0332,-325.681,0.525539,0.0,0.0
1520,379.75,39.7412,41.8949,148.333,98.612,93.7648,0.00510273,0.0929162,21.0356,-325.721,0.447386,0.0,0.0
1540,384.75,39.2018,41.1728,150.105,98.4655,92.6492,0.00503695,0.0924015,21.0359,-325.771,0.540431,0.0,0.0
1560,389.75,39.464,41.2865,147.152,98.3472,93.3494,0.00494689,0.0918394,21.0374,-325.821,0.462925,0.0,0.0
1580,394.75,38.575,41.024,148.704,98.286,92.4701,0.00457869,0.0909195,21.0382,-325.881,0.541409,0.0,0.0
1600,399.75,39.2328,40.3485,153.187,98.3105,92.0938,0.00484844,0.0921303,21.0335,-325.941,0.579816,0.0,0.0
1620,404.75,38.8019,40.5092,148.884,98.3842,92.7154,0.00472173,0.0911695,21.0341,-325.991,0.526752,0.0,0.0
1640,409.75,38.6867,40.0368,146.729,98.523,92.5561,0.00468229,0.0903751,21.0361,-326.061,0.554534,0.0,0.0
1660,414.75,37.6632,39.6688,150.795,98.6981,93.0711,0.00436664,0.0894412,21.0365,-326.071,0.521042,0.0,0.0
1680,419.75,38.275,39.633,150.26,98.9102,93.8883,0.00474918,0.0893931,21.0368,-326.141,0.462504,0.0,0.0
1700,424.75,37.6442,39.5425,151.843,99.1344,93.307,0.00445218,0.0877662,21.0391,-326.161,0.537721,0.0,0.0
1720,429.75,37.7332,39.4123,151.52,99.3625,93.8171,0.00421142,0.0879918,21.0396,-326.201,0.50974,0.0,0.0
1740,434.75,37.1051,38.5238,149.466,99.5686,94.3843,0.00399243,0.0879824,21.0412,-326.221,0.474619,0.0,0.0
1760,439.75,37.625,38.8557,151.022,99.7803,94.0665,0.00420631,0.0871878,21.0409,-326.311,0.523408,0.0,0.0
1780,444.75,37.4645,38.1793,149.437,99.9513,94.8129,0.00422142,0.0863052,21.0414,-326.321,0.468463,0.0,0.0
1800,449.75,37.1455,38.4199,149.224,100.079,94.1102,0.00438509,0.0863311,21.0421,-326.381,0.545851,0.0,0.0
1820,454.75,37.375,38.6969,149.092,100.176,94.2917,0.00422917,0.0855721,21.0422,-326.421,0.537307,0.0,0.0
1840,459.75,37.2409,38.0122,145.002,100.246,95.3625,0.00408723,0.0853139,21.0427,-326.451,0.443249,0.0,0.0
1860,464.75,37.0986,38.5745,147.892,100.289,94.3436,0.00395736,0.0852092,21.0434,-326.491,0.542405,0.0,0.0
1880,469.75,37.3719,37.9943,151.543,100.285,94.6062,0.00392203,0.0849542,21.044,-326.541,0.517409,0.0,0.0
1900,474.75,36.6692,38.1516,149.223,100.274,94.7581,,,,-326.551,0.502243,0.0,0.0
1920,479.75,37.0145,37.652,149.928,100.243,94.6293,,,,-326.621,0.511505,0.0,0.0
1929,482,36.236,38.0577,147.878,100.24,95.0776,,,,-326.661,0.46934,0.0,0.0