Folder: fsri_materials_database/01_Data/Wool_Rug/Cone (part 5)

File: Wool_Rug_Cone_HF75Scan_220324_R2.csv
Names,Time,Stack TC,Smoke TC,Exh Press,Smoke Comp,Smoke Meas,CO Meter,CO2 Meter,O2 Meter,Sample Mass,Ext Coeff,Start Test,Flame Verif
Chan Gain,,500,500,1,1,1,1,1,1,1,1,1.0,1.0
Offset,,0,0,0.129198,0,0,0,0,0,0,0,0.0,0.0
Gain,,1,1,25.011,13.1874,13.4895,1,1,1,1.00089,1.01187,1.0,1.0
Units,sec,C,C,Pa,%,%,%,%,%,g,/m,,
Baseline,,46.1653,48.1118,124.389,99.9048,94.1394,0.000672719,0.0695989,20.9941,-836.688,0.527665,,
20,4.75,45.1863,47.0076,96.7607,100.122,85.0918,0.00645222,0.47303,20.3754,-303.421,1.44377,0.0,1.0
40,9.75,54.4048,56.8393,98.8956,100.142,83.3632,0.0113144,0.84555,19.8286,-304.482,1.62769,0.0,0.0
60,14.75,61.3173,65.194,98.5521,100.159,85.0272,0.01273,0.801697,19.8763,-305.312,1.45376,0.0,0.0
80,19.75,66.2923,70.6204,100.048,100.165,82.4806,0.011389,0.716245,20.0151,-306.173,1.7242,0.0,0.0
100,24.75,69.6272,74.4492,105.79,100.174,83.5439,0.0101806,0.638807,20.1257,-306.904,1.61132,0.0,0.0
120,29.75,71.4464,77.3663,103.198,100.182,83.5884,0.00895507,0.591244,20.2053,-307.544,1.60735,0.0,0.0
140,34.75,73.7558,79.7376,108.983,100.178,85.7171,0.00801777,0.553108,20.2616,-308.265,1.38374,0.0,0.0
160,39.75,75.496,81.3274,112.045,100.178,86.7611,0.00711629,0.503955,20.325,-308.916,1.27632,0.0,0.0
180,44.75,76.2282,82.4899,112.011,100.179,88.2666,0.00606639,0.47205,20.3803,-309.516,1.1237,0.0,0.0
200,49.75,77.1884,83.2381,110.166,100.169,89.5559,0.00508092,0.44749,20.4168,-310.117,0.994053,0.0,0.0
220,54.75,77.204,83.7644,110.252,100.176,89.4719,0.00488722,0.428629,20.4463,-310.707,1.00306,0.0,0.0
240,59.75,77.6543,84.497,108.493,100.156,89.9219,0.00444261,0.416926,20.4615,-311.318,0.956713,0.0,0.0
260,64.75,78.208,84.5684,110.307,100.149,90.3175,0.00415827,0.412542,20.4692,-311.858,0.917178,0.0,0.0
280,69.75,78.1154,84.7135,109.323,100.139,91.5776,0.00392864,0.405637,20.4842,-312.419,0.793266,0.0,0.0
300,74.75,78.0795,85.0092,114.64,100.129,91.8328,0.00373825,0.393406,20.5052,-312.929,0.767706,0.0,0.0
320,79.75,78.419,85.2331,107.821,100.133,91.5109,0.00327761,0.38415,20.5203,-313.39,0.799198,0.0,0.0
340,84.75,78.4458,85.4391,115.788,100.126,91.224,0.00343682,0.3752,20.533,-313.9,0.826502,0.0,0.0
360,89.75,78.8103,84.9642,107.933,100.124,92.3009,0.00319196,0.369911,20.542,-314.36,0.722117,0.0,0.0
380,94.75,77.582,84.5817,112.832,100.118,91.7501,0.00317546,0.361378,20.5564,-314.811,0.774744,0.0,0.0
400,99.75,77.255,84.2676,111.951,100.125,91.8217,0.00317168,0.351189,20.5721,-315.271,0.768424,0.0,0.0
420,104.75,77.3556,84.06,110.126,100.118,92.1844,0.00314794,0.342693,20.588,-315.712,0.732756,0.0,0.0
440,109.75,76.4473,83.7336,113.341,100.109,92.2252,0.00285186,0.330029,20.6042,-316.082,0.728049,0.0,0.0
460,114.75,76.0892,82.7632,115.517,100.082,92.6504,0.00278336,0.322268,20.6176,-316.472,0.684824,0.0,0.0
480,119.75,75.7053,82.3438,113.28,100.058,92.79,0.00276539,0.312849,20.6328,-316.823,0.669322,0.0,0.0
500,124.75,75.1618,81.8147,112.777,100.043,91.79,0.00276227,0.309394,20.6407,-317.203,0.764208,0.0,0.0
520,129.75,74.5989,81.046,113.173,100.017,91.0972,0.00278109,0.305551,20.6496,-317.543,0.829174,0.0,0.0
540,134.75,73.9459,80.9018,111.155,99.992,91.4031,0.00258459,0.301268,20.654,-317.874,0.797171,0.0,0.0
560,139.75,73.7682,80.014,112.535,99.9719,91.5858,0.00266001,0.302912,20.6514,-318.234,0.777652,0.0,0.0
580,144.75,73.1535,79.4827,112.731,99.9236,91.007,0.00252011,0.306147,20.6469,-318.504,0.829636,0.0,0.0
600,149.75,72.8151,78.939,113.719,99.8922,89.8626,0.00256166,0.305338,20.649,-318.914,0.939174,0.0,0.0
620,154.75,72.6585,78.8131,111.978,99.868,90.3846,0.00261201,0.300739,20.6559,-319.235,0.885618,0.0,0.0
640,159.75,72.1316,78.2496,113.698,99.8338,90.7407,0.00288673,0.298751,20.6637,-319.535,0.847676,0.0,0.0
660,164.75,71.6187,78.0152,114.466,99.8048,90.5517,0.00272571,0.296825,20.6692,-319.825,0.863602,0.0,0.0
680,169.75,71.8995,77.6845,118.514,99.7936,90.0931,0.00268739,0.296391,20.67,-320.146,0.907667,0.0,0.0
700,174.75,71.1942,77.1522,116.196,99.7767,89.1801,0.00275718,0.293054,20.6735,-320.436,0.99658,0.0,0.0
720,179.75,70.7984,76.5571,113.644,99.7332,89.4892,0.00239877,0.296705,20.6705,-320.726,0.961995,0.0,0.0
740,184.75,70.559,76.3016,118.144,99.7175,88.84,0.00253069,0.297395,20.6713,-320.976,1.02522,0.0,0.0
760,189.75,70.2961,76.0696,110.519,99.6946,88.5552,0.00248364,0.292417,20.6767,-321.277,1.05169,0.0,0.0
780,194.75,69.9291,76.0913,113.339,99.6757,88.0097,0.00278267,0.291712,20.6791,-321.607,1.10485,0.0,0.0
800,199.75,70.2496,75.2181,114.242,99.6414,88.4629,0.00296273,0.288886,20.6827,-321.857,1.05621,0.0,0.0
820,204.75,70.002,74.8987,114.58,99.633,88.0521,0.00283616,0.28592,20.6869,-322.137,1.09677,0.0,0.0
840,209.75,69.8151,74.9097,116.03,99.6008,88.5366,0.0026749,0.280479,20.695,-322.398,1.04519,0.0,0.0
860,214.75,69.6506,74.7058,115.798,99.5795,88.5111,0.00267305,0.275875,20.701,-322.658,1.04585,0.0,0.0
880,219.75,69.3818,74.4121,116.577,99.5783,88.5037,0.00271174,0.273802,20.705,-322.918,1.04649,0.0,0.0
900,224.75,68.6487,74.1134,114.144,99.5618,88.4024,0.00258408,0.269501,20.7112,-323.178,1.05518,0.0,0.0
920,229.75,68.6927,73.0825,114.928,99.5573,87.985,0.00303388,0.2676,20.7179,-323.409,1.0968,0.0,0.0
940,234.75,68.6321,73.4325,114.261,99.5573,87.5326,0.00321034,0.267721,20.719,-323.629,1.14255,0.0,0.0
960,239.75,68.037,73.0534,115.606,99.5372,88.6486,0.00305239,0.264025,20.7245,-323.829,1.02831,0.0,0.0
980,244.75,67.5856,72.1886,117.269,99.5207,89.847,0.00277553,0.254585,20.7357,-324.009,0.907651,0.0,0.0
1000,249.75,67.3899,72.3832,115.317,99.5159,90.0701,0.00295642,0.239212,20.7598,-324.229,0.885205,0.0,0.0
1020,254.75,66.881,71.5271,117.333,99.5022,90.9383,0.00308537,0.222591,20.784,-324.369,0.798836,0.0,0.0
1040,259.75,66.0964,70.5156,113.151,99.4865,91.7118,0.00287285,0.212347,20.8006,-324.52,0.722255,0.0,0.0
1060,264.75,64.9199,69.9371,120.345,99.464,92.242,0.00272812,0.204118,20.8127,-324.7,0.669075,0.0,0.0
1080,269.75,65.1154,69.0294,122.848,99.4716,92.5113,0.00245478,0.196467,20.8215,-324.82,0.643888,0.0,0.0
1100,274.75,64.1727,68.2768,122.053,99.4245,93.1777,0.00218221,0.186132,20.8365,-324.96,0.575968,0.0,0.0
1120,279.75,63.6891,67.801,118.927,99.4084,93.4025,0.00219127,0.17463,20.8517,-325.04,0.553145,0.0,0.0
1140,284.75,63.0165,66.6331,120.111,99.3915,93.4976,0.00280039,0.164263,20.8654,-325.15,0.542604,0.0,0.0
1160,289.75,62.2238,65.8074,122.546,99.3895,93.5993,0.00339398,0.155941,20.8788,-325.16,0.532776,0.0,0.0
1180,294.75,60.7474,64.9537,120.315,99.3863,93.6783,0.00373442,0.147918,20.888,-325.31,0.524996,0.0,0.0
1200,299.75,60.2468,64.066,120.239,99.3911,93.7648,0.00415792,0.14361,20.8941,-325.35,0.51724,0.0,0.0
1220,304.75,59.459,63.441,122.118,99.3911,93.2362,0.00437935,0.139075,20.8996,-325,0.567418,0.0,0.0
1240,309.75,59.2554,62.5796,121.192,99.3911,93.6615,0.00419542,0.141479,20.8981,-325.41,0.527026,0.0,0.0
1260,314.75,58.5897,61.6561,120.849,99.3968,93.5038,0.00464245,0.146829,20.8943,-325.54,0.542484,0.0,0.0
1280,319.75,57.7659,61.167,122.334,99.4064,93.6549,0.00448446,0.143252,20.8983,-325.58,0.529018,0.0,0.0
1300,324.75,57.2671,60.0352,121.632,99.4068,93.9286,0.00449158,0.142401,20.8973,-325.641,0.503145,0.0,0.0
1320,329.75,56.7526,59.7286,120.999,99.4064,93.6396,0.00440505,0.140056,20.8986,-325.661,0.530461,0.0,0.0
1340,334.75,56.0071,59.4065,119.502,99.4201,93.8768,0.00424,0.136758,20.903,-325.731,0.509233,0.0,0.0
1360,339.75,55.8376,59.1062,121.908,99.4125,93.3996,0.00399711,0.134181,20.9054,-325.771,0.553779,0.0,0.0
1380,344.75,55.7403,58.135,123.041,99.4137,93.4276,0.00398952,0.132009,20.9104,-325.841,0.551226,0.0,0.0
1400,349.75,55.583,58.0206,121.386,99.3972,93.6746,0.00425464,0.131103,20.9116,-325.911,0.526319,0.0,0.0
1420,354.75,54.6245,57.9556,120.144,99.4064,94.0826,0.00436205,0.131495,20.9097,-325.931,0.488572,0.0,0.0
1440,359.75,54.5117,57.3085,121.24,99.3891,93.9385,0.00474564,0.133591,20.9074,-326.001,0.500631,0.0,0.0
1460,364.75,54.2402,56.9077,122.294,99.3951,93.3185,0.00480654,0.133131,20.9096,-326.051,0.559943,0.0,0.0
1480,369.75,54.2,56.0746,117.644,99.3903,93.349,0.00511296,0.131375,20.9123,-326.061,0.556615,0.0,0.0
1500,374.75,53.5391,55.69,121.186,99.3879,93.545,0.00527012,0.128301,20.9168,-326.091,0.537786,0.0,0.0
1520,379.75,52.9027,55.5066,122.811,99.3911,93.7446,0.00510499,0.124189,20.9225,-326.201,0.51915,0.0,0.0
1540,384.75,52.8157,54.9866,122.538,99.3827,93.8463,0.00525067,0.121779,20.9264,-326.211,0.508772,0.0,0.0
1560,389.75,52.8647,55.1122,122.924,99.3871,94.0031,0.00511194,0.120462,20.9288,-326.221,0.494346,0.0,0.0
1580,394.75,52.6055,54.9712,123.862,99.4016,93.4943,0.00495655,0.119365,20.93,-326.301,0.543815,0.0,0.0
1600,399.75,52.387,54.7278,121.304,99.3972,93.7734,0.0050745,0.11932,20.9304,-326.341,0.516961,0.0,0.0
1620,404.75,52.5063,54.0848,121.817,99.3903,93.7022,0.00502769,0.11814,20.9325,-326.401,0.523094,0.0,0.0
1640,409.75,51.7814,54.5787,124.465,99.4044,93.4235,0.00514773,0.117512,20.9317,-326.451,0.550791,0.0,0.0
1660,414.75,52.3483,53.6011,121.431,99.3915,93.4371,0.00519701,0.116977,20.9328,-326.501,0.54835,0.0,0.0
1680,419.75,51.7408,54.1843,122.062,99.3951,94.3938,0.00528061,0.116835,20.9324,-326.501,0.458253,0.0,0.0
1700,424.75,51.9709,53.9098,119.922,99.377,94.0381,0.00532946,0.116331,20.9324,-326.531,0.490143,0.0,0.0
1720,429.75,51.429,53.5854,119.183,99.3646,93.6845,0.00529304,0.116037,20.9332,-326.581,0.522471,0.0,0.0
1740,434.75,51.3741,53.6072,124.371,99.3617,93.575,0.00529831,0.115908,20.9346,-326.671,0.5326,0.0,0.0
1760,439.75,51.1782,53.9515,122.05,99.3489,93.3906,0.00519718,0.115537,20.9329,-326.701,0.548961,0.0,0.0
1780,444.75,50.972,53.2584,123.636,99.3541,93.799,0.00535161,0.115689,20.9347,-326.751,0.510699,0.0,0.0
1800,449.75,51.0339,52.9267,120.957,99.3493,93.4309,0.00533623,0.115741,20.9336,-326.762,0.545162,0.0,0.0
1820,454.75,51.0091,53.1764,119.824,99.3509,93.1045,0.00529048,0.114801,20.9336,-326.781,0.576373,0.0,0.0
1840,459.75,51.2063,52.9248,123.151,99.3489,93.8377,0.00531004,0.114935,20.9334,-326.822,0.506571,0.0,0.0
1860,464.75,50.8254,52.8541,123.172,99.342,93.5812,0.00547405,0.115123,20.9324,-326.852,0.530252,0.0,0.0
1880,469.75,51.1845,52.4248,124.42,99.336,93.7096,0.00514058,0.114241,20.9332,-326.912,0.517539,0.0,0.0
1900,474.75,50.8287,52.8398,125.508,99.3448,94.4128,,0.114106,,-326.932,0.451978,0.0,0.0
1920,479.75,50.4073,52.4053,121.782,99.4209,93.7096,,,,-326.982,0.525123,0.0,0.0
1938,484.25,50.6368,52.5404,123.068,99.4527,93.5816,,,,-327.022,0.540096,0.0,0.0

File: Wool_Rug_Cone_HF75Scan_220324_R3.csv
Names,Time,Stack TC,Smoke TC,Exh Press,Smoke Comp,Smoke Meas,CO Meter,CO2 Meter,O2 Meter,Sample Mass,Ext Coeff,Start Test,Flame Verif
Chan Gain,,500,500,1,1,1,1,1,1,1,1,1.0,1.0
Offset,,0,0,0.129198,0,0,0,0,0,0,0,0.0,0.0
Gain,,1,1,25.011,13.1874,13.4895,1,1,1,1.00089,1.01187,1.0,1.0
Units,sec,C,C,Pa,%,%,%,%,%,g,/m,,
Baseline,,46.7387,48.2848,124.359,99.1133,93.436,0.000592563,0.0698857,20.9899,-836.869,0.523618,,
19,4.5,44.9157,46.2689,97.1973,99.0088,86.081,0.00530423,0.394197,20.5686,-298.426,1.24194,0.0,1.0
38,9.25,54.1676,56.1532,95.8975,99.0164,85.1144,0.0101526,0.826929,19.9135,-299.487,1.34286,0.0,0.0
57,14,61.0092,64.5222,105.464,99.0237,84.3916,0.0109376,0.801584,19.884,-300.238,1.41921,0.0,0.0
76,18.75,65.5128,69.7741,100.899,99.049,85.5175,0.0108105,0.71565,20.012,-300.978,1.30385,0.0,0.0
95,23.5,69.1783,73.7688,100.237,99.0692,85.0325,0.010371,0.644217,20.1226,-301.699,1.35613,0.0,0.0
114,28.25,71.3529,76.5264,108.375,99.0889,84.9687,0.0099232,0.592779,20.19,-302.38,1.36456,0.0,0.0
133,33,73.8098,79.3369,109.446,99.0877,86.0205,0.00876755,0.543651,20.2633,-303.02,1.25525,0.0,0.0
152,37.75,74.8866,80.6633,108.227,99.1046,85.848,0.00795315,0.507924,20.3172,-303.611,1.27458,0.0,0.0
171,42.5,75.9111,81.7252,107.428,99.1187,86.566,0.00739697,0.469947,20.374,-304.201,1.20192,0.0,0.0
190,47.25,76.5288,82.4767,109.128,99.1505,87.1419,0.00703204,0.444182,20.41,-304.772,1.14591,0.0,0.0
209,52,76.9027,83.4276,112.977,99.1738,87.647,0.00664476,0.42947,20.4314,-305.322,1.0967,0.0,0.0
228,56.75,77.2913,83.7064,104.978,99.2112,87.6898,0.00602544,0.416126,20.4522,-305.873,1.09571,0.0,0.0
247,61.5,77.4139,83.7191,106.604,99.2293,88.4592,0.00574479,0.404427,20.4729,-306.423,1.01979,0.0,0.0
266,66.25,77.6501,84.3811,109.635,99.2462,89.2892,0.00535602,0.394683,20.4896,-306.914,0.938416,0.0,0.0
285,71,77.6479,84.2968,113.813,99.2813,89.0574,0.00503908,0.39049,20.4978,-307.384,0.964617,0.0,0.0
304,75.75,77.5384,84.2928,112.949,99.3139,89.4789,0.00490109,0.381645,20.51,-307.885,0.925615,0.0,0.0
323,80.5,77.2936,83.8085,111.29,99.3372,90.6588,0.00440512,0.374039,20.5246,-308.305,0.811429,0.0,0.0
342,85.25,77.0267,83.6676,114.93,99.3617,89.7173,0.00410849,0.367157,20.5367,-308.745,0.906282,0.0,0.0
361,90,76.9429,84.0946,117.149,99.3859,90.264,0.00405174,0.359956,20.5489,-309.186,0.854517,0.0,0.0
380,94.75,76.5602,83.487,112.274,99.408,89.9169,0.0037076,0.352883,20.5621,-309.636,0.890685,0.0,0.0
399,99.5,76.5203,83.3634,112.64,99.4269,89.4674,0.00361957,0.347207,20.5722,-310.067,0.936861,0.0,0.0
418,104.25,76.3136,83.017,112.628,99.4595,90.2496,0.00361135,0.341931,20.5821,-310.447,0.862508,0.0,0.0
437,109,75.7243,82.3848,111.026,99.4527,90.478,0.00317228,0.333676,20.5966,-310.837,0.839456,0.0,0.0
456,113.75,75.2112,82.0151,115.192,99.4503,89.8906,0.00288285,0.327067,20.6096,-311.238,0.897058,0.0,0.0
475,118.5,75.2328,81.6127,110.265,99.4607,90.1681,0.00318536,0.324275,20.6144,-311.618,0.870636,0.0,0.0
494,123.25,74.3916,80.7917,117.365,99.4785,89.4036,0.00309495,0.319303,20.6225,-311.928,0.94779,0.0,0.0
513,128,74.1635,80.2144,112.719,99.4877,89.8478,0.00299182,0.315932,20.6289,-312.269,0.904625,0.0,0.0
532,132.75,73.6356,79.9298,114.391,99.5111,89.5584,0.00306418,0.312019,20.6349,-312.619,0.935345,0.0,0.0
551,137.5,73.7687,79.6728,110.762,99.4978,89.206,0.00275772,0.311225,20.639,-312.929,0.969154,0.0,0.0
570,142.25,72.5816,79.1776,117.439,99.4986,89.0364,0.00308977,0.311175,20.6411,-313.239,0.986117,0.0,0.0
589,147,72.4511,78.5059,111.416,99.5094,88.8199,0.00318064,0.307691,20.6447,-313.54,1.0087,0.0,0.0
608,151.75,72.1419,78.2408,115.083,99.5115,88.7976,0.00310313,0.305585,20.6495,-313.86,1.0111,0.0,0.0
627,156.5,71.3339,77.4944,112.919,99.5187,88.5156,0.0028385,0.30321,20.654,-314.13,1.03998,0.0,0.0
646,161.25,71.2387,76.9225,117.036,99.5175,87.6804,0.00291112,0.301499,20.6578,-314.43,1.12403,0.0,0.0
665,166,71.0244,76.849,122.11,99.5054,88.148,0.00290964,0.300375,20.663,-314.711,1.07574,0.0,0.0
684,170.75,70.8486,76.5999,113.352,99.5207,88.8392,0.00263548,0.299521,20.6673,-315.001,1.00777,0.0,0.0
703,175.5,70.6204,75.7148,114.126,99.5332,87.7409,0.0025868,0.297131,20.6717,-315.301,1.1193,0.0,0.0
722,180.25,70.2982,75.7257,113.718,99.528,88.9281,0.00290804,0.297137,20.6743,-315.572,0.999537,0.0,0.0
741,185,69.9511,75.3127,111.754,99.5296,88.6881,0.00287999,0.29471,20.6782,-315.882,1.02367,0.0,0.0
760,189.75,69.6549,75.0737,113.427,99.5231,89.3365,0.00245404,0.292526,20.6816,-316.172,0.958439,0.0,0.0
779,194.5,69.6753,74.9694,115.153,99.5155,88.5938,0.00280488,0.290867,20.6861,-316.402,1.03185,0.0,0.0
798,199.25,69.186,74.5347,117.125,99.5163,88.2777,0.00303693,0.287429,20.6919,-316.703,1.06366,0.0,0.0
817,204,69.0951,74.1886,117.627,99.5332,88.4255,0.00283289,0.284637,20.698,-316.973,1.05032,0.0,0.0
836,208.75,69.0318,73.8775,115.009,99.5203,88.3489,0.00297166,0.277665,20.7091,-317.203,1.05686,0.0,0.0
855,213.5,68.5806,73.7683,115.41,99.5107,88.5926,0.00288292,0.270061,20.7186,-317.413,1.03155,0.0,0.0
874,218.25,68.4185,73.7104,116.649,99.5239,88.53,0.00286282,0.263374,20.7288,-317.653,1.039,0.0,0.0
893,223,68.0453,73.2743,115.875,99.5098,88.9528,0.00285675,0.258434,20.7367,-317.844,0.995458,0.0,0.0
912,227.75,67.6786,72.5104,113.398,99.5259,89.0545,0.00273278,0.252355,20.7462,-318.064,0.986753,0.0,0.0
931,232.5,67.3415,72.282,115.512,99.5276,89.092,0.00265049,0.250524,20.7508,-318.294,0.983163,0.0,0.0
950,237.25,67.2069,71.9217,113.972,99.5119,88.9993,0.00234619,0.247132,20.7569,-318.414,0.990997,0.0,0.0
969,242,66.7042,71.2535,115.038,99.5086,90.2586,0.00253345,0.239069,20.7685,-318.634,0.865998,0.0,0.0
988,246.75,66.4756,70.8712,119.651,99.5054,90.3681,0.00267032,0.227351,20.7867,-318.774,0.854949,0.0,0.0
1007,251.5,65.9878,70.1109,119.361,99.5223,91.7431,0.00226373,0.211935,20.8095,-318.925,0.722422,0.0,0.0
1026,256.25,65.1283,69.6761,118.852,99.5179,92.2029,0.00267125,0.195993,20.8313,-319.035,0.677651,0.0,0.0
1045,261,64.4487,68.5452,121.129,99.5115,92.82,0.00311417,0.181946,20.8508,-319.155,0.617869,0.0,0.0
1064,265.75,63.5955,67.7794,119.673,99.507,92.7965,0.00361997,0.169348,20.8711,-319.235,0.619718,0.0,0.0
1083,270.5,62.657,66.8156,121.538,99.5183,93.3877,0.00433713,0.159197,20.8872,-319.255,0.564358,0.0,0.0
1102,275.25,61.8848,65.6904,119.702,99.5127,93.3395,0.00453395,0.150884,20.8994,-319.365,0.568435,0.0,0.0
1121,280,61.3246,65.2498,120.613,99.538,93.7339,0.00423514,0.145499,20.9066,-319.425,0.533272,0.0,0.0
1140,284.75,60.2622,64.4664,119.341,99.5255,93.4914,0.0042638,0.140167,20.91,-319.515,0.55515,0.0,0.0
1159,289.5,59.8005,63.6735,122.717,99.5078,93.5581,0.00427652,0.137275,20.9154,-319.625,0.547242,0.0,0.0
1178,294.25,59.1926,62.5933,120.328,99.5006,93.8817,0.00461215,0.137025,20.9169,-319.615,0.51595,0.0,0.0
1197,299,58.5871,61.7049,122.764,99.5123,93.3852,0.00449425,0.135253,20.9185,-319.725,0.564055,0.0,0.0
1216,303.75,57.8741,61.1941,116.877,99.5388,94.0472,0.00448595,0.135178,20.9194,-319.755,0.503728,0.0,0.0
1235,308.5,57.3319,60.369,121.435,99.5276,93.4182,0.00466393,0.135221,20.9206,-319.855,0.56229,0.0,0.0
1254,313.25,57.2012,60.1091,122.245,99.5187,93.9513,0.00479225,0.133294,20.9208,-319.885,0.51099,0.0,0.0
1273,318,57.0114,59.7946,123.475,99.5107,93.6927,0.00485564,0.132644,20.9208,-319.955,0.534731,0.0,0.0
1292,322.75,56.5207,59.1691,124.298,99.5119,93.4334,0.00476426,0.131633,20.9208,-320.016,0.559441,0.0,0.0
1311,327.5,56.3033,58.9903,120.014,99.5187,93.9509,0.00515314,0.132027,20.9189,-320.076,0.511029,0.0,0.0
1330,332.25,55.676,58.4578,121.93,99.5292,93.4849,0.00537415,0.131756,20.9183,-320.076,0.556099,0.0,0.0
1349,337,55.2052,57.8389,118.835,99.5247,93.7413,0.0049988,0.131242,20.9182,-320.166,0.531386,0.0,0.0
1368,341.75,54.2806,57.5772,124.108,99.5094,93.2971,0.00530221,0.129722,20.9182,-320.246,0.57218,0.0,0.0
1387,346.5,54.6048,56.974,120.299,99.5082,94.0974,0.00561044,0.129583,20.9164,-320.266,0.496261,0.0,0.0
1406,351.25,54.2634,56.7979,122.478,99.5167,94.372,0.00525269,0.129043,20.9177,-320.316,0.471151,0.0,0.0
1425,356,53.8152,56.4416,121.621,99.5255,93.8961,0.00504813,0.127362,20.9207,-320.356,0.516813,0.0,0.0
1444,360.75,53.7233,56.0582,124.425,99.5163,93.6668,0.00506379,0.126175,20.9211,-320.396,0.53769,0.0,0.0
1463,365.5,52.9163,55.348,121.12,99.5187,93.9752,0.00538501,0.125133,20.9225,-320.496,0.508735,0.0,0.0
1482,370.25,52.9373,55.3056,121.866,99.5046,93.8833,0.00551203,0.125314,20.9243,-320.516,0.516153,0.0,0.0
1501,375,52.6064,54.6478,121.65,99.5066,93.7981,0.00536453,0.123139,20.9284,-320.566,0.524393,0.0,0.0
1520,379.75,53.0861,54.7954,118.906,99.5159,93.6985,0.00533946,0.122907,20.9288,-320.616,0.534651,0.0,0.0
1539,384.5,52.2021,54.7155,123.142,99.5324,93.3469,0.00512707,0.121803,20.9289,-320.646,0.56949,0.0,0.0
1558,389.25,52.5887,54.502,120.413,99.5203,93.7294,0.00469791,0.12106,20.9308,-320.726,0.532121,0.0,0.0
1577,394,52.191,54.4926,118.817,99.5203,94.223,0.00469446,0.119623,20.9332,-320.746,0.485502,0.0,0.0
1596,398.75,52.2729,54.2175,123.03,99.5127,93.7154,0.00484155,0.119797,20.9334,-320.756,0.532765,0.0,0.0
1615,403.5,51.8487,53.9737,120.729,99.5219,93.2523,0.00502659,0.119537,20.9321,-320.856,0.577564,0.0,0.0
1634,408.25,51.7656,53.9585,125.404,99.5227,94.204,0.00496809,0.118646,20.9319,-320.896,0.487502,0.0,0.0
1653,413,51.2839,53.6796,123.299,99.5312,93.6347,0.00497859,0.11914,20.9299,-320.966,0.542062,0.0,0.0
1672,417.75,51.2906,53.7246,120.605,99.53,93.5622,0.00494112,0.120052,20.928,-320.916,0.548825,0.0,0.0
1691,422.5,51.1227,53.1351,122.731,99.5195,94.0694,0.0051598,0.120705,20.9263,-320.996,0.499907,0.0,0.0
1710,427.25,51.7397,52.9045,125.223,99.5203,93.8442,0.00535445,0.119724,20.928,-321.036,0.521251,0.0,0.0
1729,432,51.4395,53.4676,121.666,99.5267,93.9426,0.00527463,0.11891,20.9297,-321.096,0.512525,0.0,0.0
1748,436.75,51.1183,53.2339,124.439,99.5231,93.5433,0.00506446,0.119271,20.9302,-321.106,0.550011,0.0,0.0
1767,441.5,50.7302,52.7474,122.833,99.5058,93.9266,0.00516395,0.119304,20.9308,-321.136,0.512176,0.0,0.0
1786,446.25,51.0635,53.0685,121.84,99.4837,93.6709,,0.119091,,-321.187,0.534392,0.0,0.0
1805,451,51.3084,53.2276,124.726,99.4817,93.5758,,,,-321.227,0.543229,0.0,0.0
1824,455.75,50.7596,52.9746,120.587,99.4917,94.1633,,,,-321.267,0.488578,0.0,0.0
1828,456.75,50.8656,53.467,123.232,99.4595,93.7928,,,,-321.287,0.520699,0.0,0.0