Folder: fsri_materials_database/01_Data/Wool_Rug/HFM

Note: 01_Data/README.md
# Materials and Products Database
## 01_Data

Raw data generated from each apparatus are included here in plain-text format. The data is organized first by material, next by the short name of test apparatus used, and where applicable additional filtering by test settings.

### material.json

Each material directory contains a json file of the same name as the material. This file links the data stored in the repository as well as data and graphs produced by the accompanying scripts (__02_Scripts__) to the respective landing page for the material on the front-end website.

File: Wool_Rug_Density_Dry_R1.csv
,Wool_Rug_DRY_1
Sample Mass [g],114.0
Sample Volume [cm3],583.3
Sample Density [kg/m3],195

File: Wool_Rug_Density_Dry_R2.csv
,Wool_Rug_DRY_2
Sample Mass [g],116.7
Sample Volume [cm3],546.4
Sample Density [kg/m3],214

File: Wool_Rug_Density_Dry_R3.csv
,Wool_Rug_DRY_3
Sample Mass [g],122.2
Sample Volume [cm3],538.7
Sample Density [kg/m3],227

File: Wool_Rug_Density_Wet_R1.csv
,Wool_Rug_WET_1
Sample Mass [g],122.3
Sample Volume [cm3],583.3
Sample Density [kg/m3],210

File: Wool_Rug_Density_Wet_R2.csv
,Wool_Rug_WET_2
Sample Mass [g],124.2
Sample Volume [cm3],546.4
Sample Density [kg/m3],227

File: Wool_Rug_Density_Wet_R3.csv
,Wool_Rug_WET_3
Sample Mass [g],130.0
Sample Volume [cm3],538.7
Sample Density [kg/m3],241