Folder: fsri_materials_database/01_Data/Wool_Rug/MCC

Note: 01_Data/README.md
# Materials and Products Database
## 01_Data

Raw data generated from each apparatus are included here in plain-text format. The data is organized first by material, next by the short name of test apparatus used, and where applicable additional filtering by test settings.

### material.json

Each material directory contains a json file of the same name as the material. This file links the data stored in the repository as well as data and graphs produced by the accompanying scripts (__02_Scripts__) to the respective landing page for the material on the front-end website.

File: Wool_Rug_MCC_30K_min_211112_R1.txt
Sample ID:	C:\MCC\MCC Cal\Test\Wool_Rug_MCC_30K_min_211112_R1.txt
Sample Weight (mg):	4.72
Heating Rate (C/s):	0.5
Combustor Temp (C):	900
N2 Flow Rate (cc/min):	80
O2 Flow Rate (cc/min):	20
Calibration File:	C:\MCC\MCC Cal\Coeff1 JN10440_30_210304.txt.txt
T Correction Coefficients:	0	1.024463	0
Time Shift (s):	14
*
Time (s)	Temperature (C)	N2 flow rate (cc/min)	O2 flow rate (cc/min)	Flow Rate (cc/min)	Oxygen (%)	HRR (W/g)	Heating rate (C/s)
0.000	108.408	79.998	19.996	102.937	20.109	-0.150	0.015
8.000	108.413	79.998	19.995	102.941	20.110	-0.238	0.029
16.000	108.408	80.002	19.994	102.963	20.104	0.210	0.008
24.000	108.507	80.001	19.995	103.016	20.091	1.085	0.020
32.001	108.899	79.998	19.995	103.057	20.086	1.446	0.073
40.000	109.608	79.999	19.994	103.103	20.073	2.290	0.126
48.000	110.694	79.999	19.995	103.153	20.071	2.449	0.176
56.000	112.236	79.998	19.995	103.162	20.066	2.771	0.235
64.000	114.198	79.997	19.996	103.187	20.063	3.003	0.298
72.000	116.431	79.999	19.994	103.187	20.059	3.290	0.304
80.000	119.030	79.984	19.996	103.181	20.061	3.126	0.343
88.000	121.906	80.000	19.994	103.189	20.063	3.002	0.361
96.000	124.876	80.001	19.993	103.190	20.062	3.039	0.383
104.000	128.065	79.998	19.994	103.190	20.060	3.210	0.433
112.001	131.388	80.001	19.995	103.210	20.060	3.181	0.411
120.000	134.852	79.995	19.996	103.192	20.060	3.184	0.417
128.000	138.529	80.001	19.995	103.194	20.057	3.439	0.462
136.001	142.157	79.990	19.995	103.200	20.055	3.541	0.469
144.001	146.000	79.998	19.995	103.189	20.058	3.314	0.482
152.000	149.884	80.003	19.995	103.187	20.057	3.427	0.500
160.000	153.796	80.000	19.993	103.192	20.057	3.381	0.481
168.000	157.744	79.999	19.996	103.192	20.065	2.834	0.515
176.000	161.671	80.003	19.994	103.191	20.067	2.758	0.479
184.000	165.705	80.006	19.994	103.188	20.062	3.059	0.492
192.000	169.654	79.981	19.996	103.178	20.062	3.057	0.478
200.000	173.626	79.996	19.996	103.170	20.060	3.230	0.492
208.000	177.570	79.998	19.996	103.162	20.060	3.179	0.453
216.000	181.540	79.998	19.994	103.159	20.058	3.356	0.519
224.000	185.497	79.998	19.995	103.155	20.056	3.475	0.513
232.000	189.438	79.995	19.995	103.155	20.057	3.426	0.489
240.000	193.361	80.000	19.995	103.149	20.057	3.417	0.485
248.000	197.267	79.997	19.995	103.148	20.058	3.355	0.495
256.000	201.170	80.004	19.993	103.150	20.056	3.489	0.466
264.000	205.122	79.999	19.995	103.150	20.052	3.744	0.508
272.000	209.106	80.009	19.992	103.138	20.048	4.035	0.489
280.000	213.021	79.999	19.994	103.150	20.045	4.242	0.491
288.000	217.004	80.000	19.994	103.145	20.037	4.751	0.493
296.000	220.996	80.006	19.995	103.146	20.025	5.583	0.503
304.001	225.000	79.998	19.995	103.131	20.018	6.043	0.526
312.000	229.048	80.014	19.994	103.114	20.004	6.993	0.504
320.000	233.012	80.003	19.995	103.107	19.985	8.294	0.479
328.000	236.974	80.002	19.997	103.105	19.980	8.682	0.479
336.000	240.970	80.001	19.994	103.118	19.982	8.495	0.478
344.000	244.948	79.977	19.996	103.144	19.979	8.715	0.482
352.000	248.969	80.001	19.994	103.135	19.977	8.830	0.489
360.000	252.946	80.001	19.995	103.151	19.966	9.605	0.454
368.000	256.992	80.009	19.994	103.140	19.956	10.285	0.503
376.000	260.965	79.995	19.995	103.148	19.943	11.213	0.499
384.000	264.914	80.002	19.996	103.146	19.934	11.790	0.480
392.000	268.882	79.995	19.996	103.141	19.917	12.982	0.452
400.000	272.922	80.002	19.995	103.148	19.901	14.055	0.483
408.000	276.871	80.001	19.995	103.150	19.882	15.361	0.471
416.000	280.851	79.989	19.997	103.143	19.860	16.870	0.495
424.000	284.822	80.013	19.992	103.158	19.837	18.426	0.478
432.000	288.815	80.004	19.995	103.153	19.807	20.436	0.499
440.000	292.840	80.000	19.994	103.149	19.774	22.677	0.498
448.000	296.876	79.999	19.995	103.156	19.743	24.812	0.537
456.000	300.856	79.996	19.994	103.173	19.709	27.169	0.523
464.000	304.853	79.996	19.995	103.170	19.669	29.894	0.503
472.000	308.950	80.008	19.995	103.186	19.627	32.744	0.518
480.000	313.018	79.993	19.994	103.187	19.591	35.214	0.521
488.000	317.040	79.999	19.995	103.191	19.560	37.347	0.516
496.000	321.067	79.998	19.995	103.192	19.534	39.063	0.527
504.000	325.137	79.996	19.995	103.200	19.516	40.335	0.492
512.000	329.232	79.997	19.993	103.197	19.502	41.263	0.526
520.000	333.276	79.998	19.996	103.224	19.494	41.851	0.537
528.000	337.369	80.002	19.994	103.225	19.487	42.316	0.554
536.000	341.367	80.004	19.994	103.224	19.478	42.895	0.512
544.000	345.414	80.002	19.994	103.214	19.475	43.089	0.508
552.000	349.444	80.000	19.994	103.227	19.483	42.595	0.494
560.000	353.548	80.002	19.995	103.191	19.488	42.239	0.517
568.000	357.533	80.006	19.995	103.183	19.516	40.314	0.492
576.001	361.579	80.008	19.994	103.161	19.539	38.720	0.479
584.000	365.571	80.002	19.995	103.152	19.566	36.872	0.491
592.000	369.674	80.002	19.996	103.148	19.600	34.585	0.504
600.001	373.692	80.022	19.992	103.141	19.626	32.816	0.482
608.000	377.744	79.990	19.994	103.135	19.654	30.885	0.501
616.000	381.783	79.998	19.996	103.117	19.671	29.734	0.505
624.000	385.809	79.982	19.996	103.105	19.699	27.781	0.492
632.000	389.850	79.999	19.994	103.109	19.717	26.577	0.504
640.000	393.941	80.000	19.995	103.113	19.744	24.772	0.496
648.000	398.000	80.004	19.994	103.096	19.765	23.276	0.500
656.000	401.986	79.998	19.995	103.113	19.777	22.508	0.479
664.000	406.073	79.999	19.993	103.111	19.784	22.018	0.522
672.000	410.080	79.995	19.995	103.109	19.801	20.845	0.537
680.000	414.051	79.998	19.996	103.111	19.815	19.921	0.516
688.000	418.117	79.999	19.996	103.106	19.827	19.051	0.519
696.000	422.096	79.996	19.994	103.110	19.840	18.172	0.528
704.000	426.209	80.006	19.993	103.115	19.856	17.139	0.516
712.000	430.214	79.998	19.995	103.110	19.870	16.125	0.507
720.000	434.340	80.001	19.993	103.107	19.882	15.334	0.534
728.000	438.348	80.001	19.993	103.111	19.886	15.090	0.486
736.000	442.430	80.015	19.995	103.108	19.895	14.454	0.521
744.000	446.467	80.013	19.993	103.105	19.899	14.181	0.491
752.000	450.483	80.003	19.995	103.108	19.905	13.753	0.502
760.000	454.484	80.007	19.994	103.105	19.912	13.260	0.482
768.000	458.560	79.997	19.994	103.102	19.917	12.975	0.543
776.000	462.618	79.995	19.996	103.100	19.922	12.599	0.529
784.000	466.615	80.003	19.992	103.106	19.929	12.116	0.522
792.000	470.564	79.987	19.995	103.104	19.934	11.788	0.536
800.000	474.616	79.989	19.995	103.088	19.939	11.479	0.492
808.000	478.649	80.001	19.995	103.082	19.944	11.082	0.474
816.000	482.664	80.002	19.993	103.085	19.950	10.715	0.500
824.000	486.616	80.008	19.997	103.086	19.958	10.181	0.501
832.000	490.513	80.002	19.995	103.080	19.960	10.015	0.493
840.000	494.439	79.985	19.997	103.100	19.968	9.452	0.463
848.000	498.356	80.000	19.994	103.095	19.972	9.210	0.481
856.000	502.375	80.001	19.996	103.098	19.977	8.871	0.491
864.000	506.349	79.977	19.997	103.082	19.978	8.773	0.493
872.000	510.400	80.002	19.995	103.099	19.985	8.329	0.495
880.000	514.426	79.994	19.995	103.084	19.982	8.545	0.498
888.000	518.751	80.005	19.995	103.087	19.989	8.057	0.508
896.000	522.806	80.015	19.993	103.107	19.993	7.771	0.600
904.000	526.769	80.012	19.993	103.105	19.995	7.634	0.531
912.000	530.919	80.009	19.991	103.094	19.998	7.426	0.530
920.000	534.985	80.009	19.994	103.110	19.997	7.480	0.454
928.000	539.105	79.992	19.996	103.105	19.998	7.410	0.514
936.000	543.177	79.997	19.996	103.092	19.995	7.658	0.501
944.000	547.265	80.000	19.994	103.105	19.999	7.374	0.517
952.000	551.326	80.005	19.995	103.093	19.995	7.651	0.500
960.000	555.362	80.003	19.995	103.102	19.995	7.660	0.522
968.000	559.391	80.005	19.993	103.088	19.993	7.767	0.506
976.000	563.475	80.000	19.996	103.109	19.992	7.853	0.513
984.000	567.552	80.002	19.993	103.102	19.989	8.014	0.527
992.000	571.665	80.001	19.993	103.097	19.983	8.467	0.493
1000.000	575.839	80.001	19.993	103.105	19.982	8.537	0.525
1008.000	579.896	80.007	19.994	103.102	19.982	8.492	0.527
1016.000	583.985	80.004	19.994	103.105	19.981	8.587	0.513
1024.000	588.049	80.002	19.996	103.099	19.978	8.801	0.507
1032.000	592.015	80.001	19.995	103.094	19.982	8.515	0.484
1040.001	596.076	80.001	19.994	103.103	19.983	8.425	0.510
1048.000	600.160	79.997	19.996	103.105	19.982	8.524	0.488
1056.000	604.318	80.000	19.995	103.113	19.981	8.616	0.529
1064.001	608.549	80.001	19.994	103.112	19.984	8.399	0.513
1072.000	612.787	80.000	19.995	103.111	19.982	8.501	0.544
1080.000	617.109	80.000	19.995	103.108	19.982	8.488	0.545
1088.000	621.368	80.001	19.995	103.110	19.984	8.387	0.528
1096.000	625.544	80.001	19.994	103.111	19.981	8.616	0.505
1104.000	629.818	80.003	19.995	103.114	19.981	8.588	0.524
1112.000	634.034	80.001	19.994	103.118	19.980	8.626	0.542
1120.001	638.304	80.000	19.995	103.117	19.976	8.947	0.549
1128.000	642.477	80.003	19.995	103.140	19.976	8.956	0.513
1136.001	646.639	80.000	19.996	103.144	19.973	9.121	0.510
1144.000	650.897	80.001	19.996	103.144	19.974	9.072	0.503
1152.000	655.041	80.001	19.993	103.148	19.969	9.419	0.508
1160.000	659.251	80.002	19.994	103.149	19.967	9.534	0.541
1168.001	663.364	79.999	19.994	103.159	19.967	9.569	0.528
1176.000	667.422	80.001	19.994	103.164	19.962	9.891	0.496
1184.000	671.463	80.001	19.994	103.182	19.955	10.345	0.493
1192.000	675.502	80.002	19.995	103.190	19.956	10.276	0.492
1200.000	679.539	80.003	19.995	103.189	19.953	10.504	0.520
1208.000	683.563	80.005	19.994	103.187	19.948	10.839	0.491
1216.001	687.597	80.004	19.994	103.205	19.942	11.276	0.501
1224.000	691.588	80.001	19.995	103.223	19.944	11.124	0.492
1232.000	695.650	79.999	19.994	103.226	19.941	11.352	0.527
1240.000	699.714	80.002	19.996	103.233	19.938	11.537	0.538
1248.001	703.775	80.001	19.994	103.228	19.933	11.873	0.500
1256.000	707.818	80.000	19.995	103.232	19.930	12.106	0.505
1264.000	711.904	80.004	19.994	103.228	19.932	11.969	0.515
1272.000	716.014	80.005	19.993	103.225	19.928	12.218	0.494
1280.000	720.063	80.002	19.995	103.219	19.927	12.301	0.490
1288.000	724.150	80.004	19.994	103.190	19.927	12.249	0.506
1296.000	728.173	80.002	19.995	103.177	19.930	12.083	0.517
1304.000	732.152	80.000	19.996	103.159	19.931	12.000	0.479
1312.001	736.179	80.001	19.994	103.149	19.929	12.116	0.517
1320.001	740.102	79.999	19.992	103.137	19.931	11.977	0.525
1327.501	743.778	80.002	19.995	103.126	19.933	11.849	0.466

File: Wool_Rug_MCC_30K_min_211112_R2.txt
Sample ID:	C:\MCC\MCC Cal\Test\Wool_Rug_MCC_30K_min_211112_R2.txt
Sample Weight (mg):	4.27
Heating Rate (C/s):	0.5
Combustor Temp (C):	900
N2 Flow Rate (cc/min):	80
O2 Flow Rate (cc/min):	20
Calibration File:	C:\MCC\MCC Cal\Coeff1 JN10440_30_210304.txt.txt
T Correction Coefficients:	0	1.024463	0
Time Shift (s):	14
*
Time (s)	Temperature (C)	N2 flow rate (cc/min)	O2 flow rate (cc/min)	Flow Rate (cc/min)	Oxygen (%)	HRR (W/g)	Heating rate (C/s)
-0.001	108.617	80.003	19.995	103.064	19.794	-0.041	-0.039
8.000	108.568	80.003	19.996	103.063	19.793	0.021	-0.000
16.000	108.591	80.003	19.995	103.088	19.793	0.076	0.019
24.000	108.679	80.003	19.994	103.140	19.781	0.933	0.027
32.000	109.028	80.002	19.995	103.180	19.771	1.720	0.069
39.999	109.746	80.006	19.996	103.239	19.765	2.196	0.120
48.000	110.917	80.005	19.994	103.273	19.762	2.404	0.170
55.999	112.502	80.003	19.995	103.302	19.756	2.865	0.238
64.000	114.498	80.006	19.994	103.311	19.749	3.386	0.272
72.000	116.817	80.006	19.993	103.331	19.747	3.537	0.309
80.000	119.503	80.001	19.996	103.334	19.745	3.656	0.364
88.000	122.485	80.003	19.995	103.332	19.746	3.578	0.407
95.999	125.686	80.002	19.995	103.331	19.746	3.578	0.411
103.999	129.055	80.002	19.996	103.335	19.747	3.553	0.437
111.999	132.592	80.003	19.995	103.336	19.746	3.580	0.477
119.999	136.222	80.003	19.994	103.332	19.746	3.604	0.443
127.999	139.959	80.003	19.995	103.329	19.751	3.232	0.486
136.000	143.816	80.005	19.994	103.335	19.748	3.423	0.471
144.000	147.760	80.002	19.995	103.312	19.748	3.435	0.458
152.000	151.782	80.007	19.994	103.320	19.751	3.227	0.503
160.000	155.765	80.004	19.995	103.304	19.753	3.054	0.483
168.000	159.749	80.004	19.994	103.301	19.753	3.091	0.500
176.000	163.753	80.001	19.994	103.297	19.753	3.056	0.501
184.000	167.751	80.004	19.994	103.299	19.750	3.270	0.486
192.000	171.694	80.001	19.995	103.289	19.755	2.916	0.463
200.000	175.697	80.002	19.997	103.286	19.753	3.063	0.495
208.000	179.637	80.006	19.995	103.277	19.756	2.858	0.467
216.000	183.701	80.004	19.994	103.266	19.755	2.905	0.501
224.000	187.681	80.003	19.995	103.273	19.753	3.072	0.477
232.000	191.635	80.004	19.994	103.269	19.755	2.905	0.486
240.000	195.643	80.006	19.994	103.269	19.757	2.798	0.470
248.000	199.640	80.003	19.993	103.274	19.755	2.882	0.486
256.000	203.594	80.005	19.996	103.273	19.749	3.390	0.505
264.000	207.591	80.004	19.995	103.262	19.742	3.861	0.519
272.000	211.537	80.003	19.994	103.259	19.740	4.048	0.508
280.000	215.481	80.004	19.994	103.246	19.737	4.303	0.491
288.000	219.520	80.002	19.996	103.258	19.722	5.401	0.497
296.000	223.484	80.004	19.995	103.239	19.707	6.521	0.478
304.000	227.534	80.004	19.996	103.237	19.698	7.237	0.498
312.000	231.518	80.004	19.994	103.227	19.684	8.265	0.486
320.000	235.524	80.005	19.993	103.222	19.682	8.415	0.496
328.000	239.514	80.007	19.994	103.223	19.680	8.575	0.504
336.000	243.517	80.005	19.995	103.223	19.676	8.843	0.477
344.000	247.480	80.004	19.994	103.228	19.671	9.276	0.464
352.000	251.555	80.005	19.995	103.226	19.666	9.666	0.511
360.000	255.501	80.004	19.995	103.229	19.659	10.124	0.501
368.000	259.480	80.003	19.995	103.229	19.648	10.987	0.503
376.000	263.539	80.006	19.995	103.235	19.636	11.914	0.517
384.000	267.411	80.003	19.995	103.232	19.623	12.863	0.534
392.000	271.490	80.005	19.996	103.247	19.611	13.747	0.524
400.000	275.472	80.005	19.996	103.250	19.589	15.464	0.536
408.000	279.476	80.007	19.994	103.245	19.568	17.000	0.469
416.000	283.448	80.003	19.995	103.259	19.551	18.323	0.516
424.000	287.444	80.004	19.995	103.262	19.522	20.493	0.494
432.000	291.463	80.005	19.994	103.264	19.496	22.454	0.509
440.000	295.478	80.003	19.994	103.267	19.463	24.989	0.498
448.000	299.546	80.002	19.995	103.295	19.429	27.501	0.491
456.000	303.580	80.003	19.995	103.297	19.391	30.394	0.516
464.000	307.658	80.005	19.995	103.296	19.358	32.876	0.534
472.000	311.643	80.004	19.994	103.297	19.332	34.820	0.472
480.000	315.780	80.005	19.996	103.297	19.304	36.956	0.507
488.000	319.845	80.005	19.995	103.304	19.287	38.279	0.521
496.000	323.895	80.004	19.995	103.303	19.277	39.006	0.502
504.000	327.906	80.002	19.994	103.300	19.267	39.771	0.492
512.000	331.991	80.005	19.994	103.309	19.258	40.432	0.509
520.000	336.062	80.003	19.993	103.310	19.256	40.552	0.489
528.000	340.097	80.004	19.994	103.307	19.251	40.929	0.493
536.000	344.086	80.005	19.995	103.316	19.255	40.678	0.510
544.000	348.084	80.007	19.995	103.299	19.266	39.856	0.488
552.000	352.159	80.004	19.994	103.286	19.279	38.820	0.524
560.000	356.147	80.005	19.994	103.270	19.306	36.804	0.486
568.000	360.184	80.007	19.995	103.265	19.330	34.979	0.524
576.000	364.267	80.005	19.996	103.260	19.355	33.108	0.506
584.000	368.292	80.002	19.995	103.232	19.382	31.032	0.505
592.000	372.307	80.005	19.995	103.223	19.402	29.512	0.521
600.000	376.392	80.004	19.994	103.221	19.425	27.824	0.516
608.000	380.440	80.003	19.994	103.218	19.444	26.386	0.515
616.000	384.461	80.004	19.994	103.217	19.465	24.772	0.501
624.000	388.540	80.004	19.994	103.212	19.487	23.149	0.508
632.000	392.570	80.007	19.993	103.220	19.505	21.790	0.505
640.000	396.652	80.006	19.994	103.205	19.521	20.583	0.508
648.000	400.716	80.006	19.994	103.213	19.538	19.288	0.517
656.000	404.755	80.005	19.995	103.196	19.547	18.574	0.517
664.000	408.783	80.004	19.994	103.195	19.561	17.535	0.486
672.000	412.822	80.004	19.995	103.189	19.575	16.457	0.480
680.000	416.817	80.003	19.996	103.182	19.594	15.050	0.503
688.000	420.854	80.006	19.995	103.203	19.608	13.986	0.527
696.000	424.868	80.002	19.994	103.196	19.627	12.538	0.506
704.000	428.819	80.001	19.994	103.187	19.636	11.865	0.454
712.000	432.895	80.004	19.995	103.188	19.650	10.837	0.510
720.000	436.951	80.004	19.994	103.184	19.656	10.389	0.500
728.000	440.993	80.007	19.994	103.181	19.662	9.953	0.498
736.000	445.008	80.006	19.994	103.179	19.667	9.531	0.492
744.000	448.983	80.003	19.995	103.179	19.672	9.198	0.481
752.000	453.003	80.005	19.995	103.174	19.681	8.485	0.490
760.000	457.061	80.003	19.994	103.172	19.684	8.303	0.506
768.000	461.104	80.003	19.996	103.179	19.689	7.917	0.512
776.000	465.130	80.003	19.996	103.176	19.697	7.278	0.521
784.000	469.169	80.004	19.995	103.176	19.703	6.813	0.505
792.000	473.265	80.005	19.994	103.169	19.708	6.475	0.523
800.000	477.378	80.006	19.995	103.174	19.716	5.822	0.542
808.000	481.454	80.005	19.995	103.151	19.723	5.342	0.518
816.000	485.538	80.006	19.993	103.165	19.731	4.704	0.507
824.000	489.595	80.007	19.993	103.156	19.736	4.334	0.529
832.000	493.676	80.003	19.995	103.164	19.743	3.786	0.508
840.000	497.727	80.004	19.994	103.151	19.744	3.730	0.534
848.000	501.800	80.003	19.994	103.152	19.749	3.387	0.493
856.000	505.824	80.004	19.994	103.153	19.755	2.908	0.526
864.000	509.820	80.002	19.995	103.159	19.760	2.548	0.466
872.000	513.762	80.003	19.995	103.143	19.765	2.133	0.470
880.000	517.754	80.006	19.994	103.141	19.773	1.556	0.515
888.000	521.506	80.005	19.994	103.146	19.777	1.235	0.447
896.000	525.424	80.004	19.995	103.150	19.778	1.182	0.478
904.000	529.291	80.008	19.994	103.154	19.783	0.793	0.473
912.000	533.270	80.006	19.994	103.156	19.783	0.820	0.500
920.000	537.330	80.004	19.994	103.146	19.787	0.510	0.491
928.000	541.394	80.003	19.995	103.160	19.789	0.341	0.492
936.000	545.457	80.005	19.995	103.152	19.790	0.273	0.525
944.000	549.505	80.004	19.995	103.148	19.792	0.140	0.502
952.000	553.615	80.003	19.996	103.147	19.787	0.473	0.561
960.000	557.869	80.004	19.996	103.155	19.788	0.442	0.534
968.000	562.308	80.004	19.996	103.171	19.787	0.508	0.583
976.000	566.816	80.006	19.994	103.175	19.784	0.719	0.571
984.000	571.410	80.007	19.994	103.155	19.782	0.880	0.549
992.000	576.083	80.006	19.994	103.159	19.784	0.762	0.601
1000.000	580.612	80.005	19.995	103.151	19.786	0.614	0.598
1008.000	585.030	80.004	19.994	103.170	19.783	0.812	0.540
1016.000	589.446	80.005	19.994	103.150	19.789	0.323	0.540
1024.000	593.845	80.002	19.995	103.146	19.790	0.269	0.504
1032.000	598.173	80.002	19.995	103.146	19.796	-0.199	0.532
1039.999	602.401	80.003	19.995	103.145	19.802	-0.637	0.525
1047.999	606.497	80.005	19.996	103.142	19.804	-0.754	0.493
1055.999	610.472	80.006	19.996	103.144	19.808	-1.079	0.483
1063.999	614.471	80.006	19.996	103.142	19.810	-1.227	0.500
1071.999	618.463	80.008	19.995	103.141	19.808	-1.118	0.541
1079.999	622.388	80.004	19.995	103.141	19.813	-1.488	0.518
1087.999	626.376	80.003	19.993	103.151	19.811	-1.307	0.513
1095.999	630.355	80.004	19.994	103.149	19.814	-1.523	0.506
1103.999	634.387	80.004	19.994	103.149	19.816	-1.689	0.492
1111.999	638.422	80.002	19.994	103.153	19.816	-1.698	0.487
1119.999	642.477	80.003	19.995	103.167	19.811	-1.336	0.505
1128.000	646.418	80.005	19.995	103.166	19.808	-1.118	0.461
1135.999	650.464	80.006	19.995	103.176	19.814	-1.533	0.501
1143.999	654.429	80.005	19.996	103.177	19.814	-1.540	0.509
1152.000	658.439	80.005	19.995	103.187	19.813	-1.439	0.488
1159.999	662.328	80.004	19.996	103.182	19.819	-1.895	0.512
1167.999	666.123	80.003	19.994	103.186	19.815	-1.589	0.462
1176.000	669.758	80.003	19.994	103.205	19.818	-1.809	0.440
1184.000	673.451	80.004	19.995	103.194	19.817	-1.748	0.468
1191.999	677.183	80.004	19.995	103.207	19.814	-1.540	0.469
1199.999	680.956	80.004	19.994	103.219	19.809	-1.174	0.469
1207.999	684.816	80.006	19.994	103.221	19.808	-1.057	0.486
1215.999	688.821	80.005	19.994	103.227	19.813	-1.454	0.515
1223.999	692.929	80.003	19.995	103.230	19.808	-1.078	0.515
1231.999	697.027	80.005	19.995	103.255	19.810	-1.230	0.503
1239.999	701.115	80.005	19.995	103.230	19.818	-1.828	0.479
1247.999	705.135	80.002	19.995	103.225	19.807	-1.043	0.483
1255.999	709.081	80.004	19.995	103.249	19.809	-1.185	0.485
1263.999	713.137	80.004	19.995	103.224	19.816	-1.657	0.484
1271.999	717.214	80.003	19.995	103.222	19.815	-1.589	0.518
1279.999	721.202	80.001	19.994	103.197	19.817	-1.780	0.507
1287.999	725.258	80.006	19.995	103.181	19.817	-1.735	0.511
1295.999	729.334	80.006	19.994	103.182	19.825	-2.380	0.531
1303.999	733.386	80.004	19.995	103.165	19.828	-2.573	0.471
1311.999	737.557	80.006	19.995	103.143	19.824	-2.311	0.495
1319.999	741.800	80.006	19.995	103.138	19.828	-2.552	0.530
1323.499	743.618	80.004	19.994	103.135	19.832	-2.917	0.505