Folder: fsri_materials_database/01_Data/Wool_Rug/MCC (part 2)

File: Wool_Rug_MCC_30K_min_211115_O3.txt
Sample ID:	C:\MCC\MCC Cal\Test\Wool_Rug_MCC_30K_min_211115_R3.txt
Sample Weight (mg):	4.78
Heating Rate (C/s):	0.5
Combustor Temp (C):	900
N2 Flow Rate (cc/min):	80
O2 Flow Rate (cc/min):	20
Calibration File:	C:\MCC\MCC Cal\Coeff1 JN10440_30_210304.txt.txt
T Correction Coefficients:	0	1.024463	0
Time Shift (s):	14
*
Time (s)	Temperature (C)	N2 flow rate (cc/min)	O2 flow rate (cc/min)	Flow Rate (cc/min)	Oxygen (%)	HRR (W/g)	Heating rate (C/s)
0.000	104.848	80.005	19.994	103.074	20.102	-0.140	0.012
8.000	104.856	80.005	19.994	103.061	20.102	-0.144	0.005
16.000	104.833	80.005	19.994	103.074	20.104	-0.230	-0.039
24.000	104.836	80.003	19.994	103.062	20.102	-0.138	0.012
32.001	104.868	80.005	19.994	103.060	20.103	-0.184	0.028
40.000	104.865	80.001	19.994	103.048	20.101	-0.030	-0.021
48.000	104.881	80.006	19.995	103.185	20.103	-0.186	0.011
56.000	105.400	80.004	19.994	103.298	20.104	-0.227	0.121
64.000	106.536	80.005	19.995	103.288	20.099	0.059	0.203
72.000	108.200	80.006	19.995	103.303	20.101	-0.048	0.206
80.001	110.194	80.006	19.994	103.293	20.105	-0.306	0.239
88.000	112.487	80.003	19.994	103.286	20.097	0.222	0.311
96.000	114.954	80.004	19.995	103.324	20.103	-0.222	0.322
104.000	117.641	80.005	19.994	103.296	20.098	0.138	0.345
112.000	120.562	80.006	19.993	103.327	20.103	-0.188	0.374
120.000	123.662	80.004	19.993	103.324	20.099	0.050	0.398
128.000	127.054	80.005	19.993	103.335	20.098	0.114	0.447
136.000	130.538	80.004	19.994	103.333	20.102	-0.094	0.443
144.001	134.237	80.004	19.995	103.363	20.104	-0.255	0.440
152.000	138.074	80.006	19.994	103.341	20.102	-0.113	0.477
160.000	142.015	80.007	19.995	103.306	20.102	-0.113	0.486
168.000	146.017	80.003	19.994	103.318	20.101	-0.037	0.518
176.000	149.996	80.005	19.993	103.292	20.098	0.120	0.506
184.000	153.801	80.004	19.995	103.331	20.104	-0.271	0.468
192.001	157.710	80.006	19.994	103.282	20.100	0.004	0.493
200.000	161.554	80.003	19.994	103.259	20.097	0.186	0.486
208.000	165.447	80.006	19.994	103.320	20.103	-0.161	0.469
216.000	169.361	80.007	19.992	103.265	20.102	-0.124	0.504
224.000	173.267	80.006	19.994	103.281	20.099	0.048	0.489
232.000	177.102	80.007	19.995	103.270	20.104	-0.233	0.460
240.000	180.981	80.008	19.995	103.290	20.096	0.308	0.471
248.000	184.789	80.005	19.995	103.295	20.096	0.275	0.495
256.000	188.723	80.002	19.995	103.288	20.091	0.633	0.504
264.000	192.669	80.003	19.995	103.272	20.083	1.133	0.516
272.000	196.614	80.007	19.995	103.274	20.078	1.518	0.484
280.000	200.596	80.004	19.994	103.257	20.066	2.275	0.488
288.000	204.663	80.004	19.995	103.259	20.046	3.638	0.514
296.000	208.701	80.006	19.993	103.262	20.027	4.929	0.519
304.000	212.788	80.006	19.994	103.237	20.010	6.098	0.511
312.000	216.861	80.006	19.994	103.251	19.996	7.030	0.511
320.000	220.900	80.008	19.996	103.240	19.983	7.872	0.518
328.000	224.915	80.004	19.994	103.216	19.974	8.526	0.526
336.000	228.922	80.003	19.994	103.217	19.968	8.931	0.504
344.000	232.901	80.002	19.995	103.216	19.964	9.151	0.515
352.000	236.875	80.003	19.995	103.202	19.955	9.761	0.504
360.000	240.830	80.004	19.994	103.219	19.946	10.371	0.501
368.000	244.837	80.003	19.994	103.216	19.934	11.207	0.493
376.000	248.848	80.007	19.995	103.239	19.909	12.875	0.522
384.000	252.884	80.005	19.993	103.235	19.892	14.045	0.498
392.000	256.929	80.006	19.994	103.239	19.866	15.792	0.487
400.000	260.964	80.008	19.993	103.218	19.838	17.686	0.500
408.000	264.922	80.007	19.993	103.188	19.814	19.269	0.506
416.000	268.907	80.003	19.995	103.210	19.784	21.289	0.506
424.000	272.965	80.003	19.995	103.192	19.757	23.122	0.504
432.000	276.948	80.004	19.996	103.225	19.727	25.148	0.498
440.000	280.955	80.004	19.995	103.236	19.702	26.795	0.500
448.000	284.904	80.002	19.996	103.221	19.682	28.185	0.475
456.000	288.926	80.005	19.995	103.246	19.659	29.748	0.494
464.000	293.056	80.008	19.993	103.221	19.641	30.912	0.530
472.000	297.062	80.006	19.994	103.242	19.623	32.175	0.465
480.000	301.179	80.007	19.994	103.247	19.607	33.241	0.538
488.000	305.274	80.007	19.994	103.252	19.591	34.326	0.512
496.000	309.520	80.008	19.994	103.277	19.569	35.802	0.663
504.000	313.611	80.008	19.994	103.276	19.552	36.930	0.404
512.000	317.652	80.005	19.995	103.279	19.531	38.375	0.500
520.000	321.747	80.006	19.995	103.278	19.516	39.357	0.482
528.000	325.901	80.004	19.994	103.261	19.509	39.802	0.528
536.000	330.034	80.006	19.995	103.253	19.515	39.391	0.522
544.000	334.172	80.007	19.996	103.219	19.529	38.488	0.542
552.000	338.200	80.006	19.994	103.209	19.555	36.702	0.480
560.000	342.247	80.008	19.994	103.231	19.590	34.366	0.466
568.000	346.267	80.008	19.993	103.182	19.622	32.223	0.510
576.000	350.298	80.005	19.995	103.182	19.657	29.835	0.487
584.000	354.327	80.005	19.995	103.232	19.685	27.964	0.507
592.000	358.201	80.006	19.993	103.220	19.710	26.258	0.475
600.000	362.133	80.005	19.994	103.248	19.740	24.238	0.501
608.000	366.019	80.005	19.994	103.216	19.761	22.850	0.459
616.000	369.980	80.005	19.995	103.225	19.783	21.403	0.492
624.000	373.916	80.007	19.994	103.248	19.800	20.255	0.496
632.000	377.924	80.007	19.995	103.244	19.816	19.185	0.497
640.000	381.965	80.006	19.994	103.237	19.833	18.012	0.498
648.000	386.161	80.008	19.993	103.262	19.845	17.205	0.548
656.000	390.224	80.007	19.994	103.254	19.856	16.443	0.570
664.000	394.298	80.005	19.993	103.251	19.864	15.884	0.525
672.000	398.359	80.005	19.995	103.251	19.870	15.504	0.522
680.000	402.458	80.006	19.994	103.253	19.874	15.256	0.498
688.000	406.534	80.006	19.994	103.246	19.873	15.277	0.513
696.000	410.720	80.005	19.995	103.246	19.872	15.382	0.554
704.000	414.848	80.007	19.994	103.264	19.872	15.407	0.515
712.000	419.014	80.007	19.995	103.257	19.865	15.863	0.516
720.000	423.133	80.005	19.995	103.270	19.848	17.009	0.521
728.000	427.223	80.007	19.995	103.264	19.831	18.163	0.492
736.000	431.283	80.007	19.994	103.284	19.809	19.593	0.474
744.000	435.377	80.004	19.993	103.266	19.781	21.551	0.493
752.000	439.496	80.005	19.994	103.294	19.746	23.854	0.476
760.000	443.577	80.005	19.994	103.302	19.722	25.482	0.518
768.000	447.627	80.006	19.995	103.309	19.706	26.563	0.496
776.000	451.701	80.003	19.994	103.333	19.697	27.162	0.504
784.000	455.664	80.006	19.995	103.333	19.694	27.379	0.489
792.000	459.713	80.005	19.994	103.337	19.690	27.657	0.509
800.000	463.795	80.007	19.996	103.336	19.693	27.496	0.500
808.000	467.855	80.006	19.995	103.333	19.690	27.672	0.518
816.000	471.994	80.008	19.994	103.334	19.687	27.879	0.510
824.000	476.147	80.004	19.996	103.349	19.697	27.223	0.509
832.000	480.209	80.004	19.996	103.340	19.693	27.451	0.505
840.000	484.228	80.004	19.994	103.348	19.701	26.897	0.474
848.000	488.229	80.003	19.993	103.341	19.707	26.506	0.475
856.000	492.218	80.005	19.994	103.342	19.716	25.898	0.483
864.000	496.164	80.007	19.995	103.348	19.722	25.492	0.506
872.000	500.074	80.006	19.993	103.328	19.727	25.200	0.506
880.000	503.981	80.006	19.994	103.339	19.740	24.276	0.465
888.000	507.991	80.006	19.996	103.339	19.749	23.651	0.547
896.000	512.088	80.006	19.994	103.332	19.752	23.510	0.497
904.000	516.155	80.005	19.994	103.335	19.755	23.286	0.494
912.000	520.248	80.004	19.994	103.361	19.747	23.813	0.509
920.000	524.344	80.004	19.995	103.368	19.747	23.843	0.485
928.000	528.438	80.005	19.995	103.371	19.737	24.511	0.540
936.000	532.605	80.006	19.995	103.361	19.737	24.508	0.502
944.000	536.812	80.006	19.995	103.334	19.752	23.500	0.541
952.000	540.854	80.007	19.994	103.345	19.778	21.740	0.478
960.000	544.725	80.005	19.994	103.351	19.802	20.129	0.500
968.000	548.487	80.005	19.992	103.299	19.831	18.141	0.459
976.000	552.182	80.007	19.993	103.297	19.857	16.402	0.456
984.000	555.988	80.006	19.994	103.293	19.893	13.964	0.482
992.000	559.753	80.004	19.994	103.278	19.924	11.843	0.465
1000.000	563.602	80.005	19.994	103.252	19.944	10.497	0.476
1008.000	567.532	80.004	19.994	103.271	19.971	8.704	0.498
1016.000	571.411	80.004	19.995	103.277	19.991	7.350	0.488
1024.000	575.342	80.005	19.996	103.212	20.013	5.861	0.508
1032.000	579.318	80.007	19.994	103.242	20.032	4.602	0.550
1040.001	583.381	80.006	19.993	103.231	20.047	3.557	0.532
1048.001	587.572	80.003	19.993	103.197	20.056	2.963	0.521
1056.000	591.736	80.007	19.994	103.202	20.065	2.378	0.514
1064.001	595.961	80.006	19.994	103.205	20.074	1.753	0.516
1072.000	599.969	80.004	19.993	103.182	20.076	1.636	0.516
1080.000	603.933	80.003	19.995	103.198	20.071	1.988	0.462
1088.000	607.948	80.005	19.994	103.211	20.077	1.567	0.514
1096.000	611.971	80.003	19.993	103.200	20.070	2.038	0.486
1104.001	616.000	80.002	19.994	103.215	20.082	1.249	0.493
1112.000	619.952	80.005	19.995	103.216	20.076	1.656	0.472
1120.000	623.939	80.005	19.992	103.232	20.072	1.882	0.512
1128.000	628.060	80.005	19.993	103.200	20.070	2.020	0.521
1136.000	632.363	80.006	19.995	103.227	20.066	2.274	0.554
1144.001	636.746	80.007	19.993	103.218	20.069	2.121	0.570
1152.000	641.047	80.005	19.995	103.242	20.070	2.035	0.560
1160.000	645.350	80.005	19.994	103.246	20.066	2.284	0.577
1168.000	649.429	80.005	19.994	103.284	20.063	2.520	0.512
1176.001	653.474	80.004	19.993	103.239	20.059	2.750	0.494
1184.000	657.538	80.003	19.994	103.259	20.056	2.985	0.492
1192.000	661.640	80.004	19.995	103.275	20.053	3.184	0.518
1200.000	665.676	80.005	19.995	103.257	20.053	3.163	0.493
1208.000	669.749	80.006	19.995	103.299	20.061	2.661	0.523
1216.000	673.874	80.005	19.994	103.319	20.058	2.854	0.545
1224.000	678.114	80.007	19.994	103.292	20.054	3.114	0.526
1232.000	682.378	80.005	19.995	103.307	20.055	3.078	0.553
1240.000	686.520	80.005	19.994	103.326	20.052	3.246	0.495
1248.000	690.726	80.006	19.994	103.305	20.057	2.941	0.528
1256.000	694.945	80.007	19.995	103.325	20.054	3.090	0.527
1264.001	699.158	80.005	19.994	103.331	20.057	2.911	0.546
1272.001	703.303	80.004	19.995	103.294	20.050	3.362	0.514
1280.000	707.314	80.007	19.995	103.323	20.051	3.287	0.480
1288.000	711.335	80.006	19.994	103.286	20.058	2.841	0.483
1296.000	715.338	80.006	19.995	103.222	20.058	2.836	0.508
1304.000	719.442	80.008	19.995	103.213	20.067	2.199	0.502
1312.001	723.494	80.006	19.992	103.173	20.066	2.326	0.544
1320.000	727.476	80.004	19.995	103.183	20.065	2.356	0.522
1328.000	731.448	80.005	19.995	103.143	20.069	2.072	0.532
1336.000	735.470	80.006	19.995	103.156	20.064	2.428	0.532
1344.000	739.386	80.005	19.993	103.173	20.066	2.273	0.488
1352.000	743.305	80.005	19.996	103.177	20.065	2.363	0.500
1353.000	743.816	80.004	19.994	103.179	20.070	2.014	0.500

File: Wool_Rug_MCC_30K_min_211116_R4.txt
Sample ID:	C:\MCC\MCC Cal\Test\Wool_Rug\Wool_Rug_MCC_30K_min_211116_R4.txt
Sample Weight (mg):	4.85
Heating Rate (C/s):	0.5
Combustor Temp (C):	900
N2 Flow Rate (cc/min):	80
O2 Flow Rate (cc/min):	20
Calibration File:	C:\MCC\MCC Cal\Coeff1 JN10440_30_210304.txt.txt
T Correction Coefficients:	0	1.024463	0
Time Shift (s):	14
*
Time (s)	Temperature (C)	N2 flow rate (cc/min)	O2 flow rate (cc/min)	Flow Rate (cc/min)	Oxygen (%)	HRR (W/g)	Heating rate (C/s)
0.000	110.566	80.006	19.998	103.091	20.002	0.007	0.006
8.000	110.526	80.006	19.997	103.101	20.001	0.076	-0.016
16.000	110.519	80.009	19.996	103.104	20.002	0.020	-0.002
24.000	110.527	80.007	19.995	103.088	20.002	-0.025	-0.014
32.000	110.518	80.006	19.994	103.094	20.005	-0.182	-0.014
40.000	110.547	80.006	19.996	103.090	20.005	-0.200	-0.010
48.000	110.530	80.007	19.996	103.081	20.009	-0.438	0.011
56.000	110.526	80.007	19.994	103.073	20.006	-0.290	0.026
64.001	110.457	80.005	19.996	103.072	20.008	-0.420	0.032
72.000	110.476	80.008	19.994	103.079	20.003	-0.063	-0.007
80.001	110.384	80.006	19.994	103.105	20.007	-0.357	-0.042
88.000	110.322	80.006	19.997	103.076	20.008	-0.411	-0.007
96.001	110.307	80.005	20.001	103.069	20.010	-0.499	-0.017
104.000	110.267	80.005	20.001	103.059	20.008	-0.370	0.010
112.000	110.206	80.005	19.995	103.087	20.012	-0.664	-0.011
120.001	110.180	80.005	19.995	103.412	19.961	2.709	-0.000
128.000	111.711	80.006	19.995	103.670	19.909	6.226	0.300
136.000	114.874	80.007	19.996	103.646	19.906	6.391	0.475
144.000	119.259	80.004	19.996	103.608	19.909	6.228	0.613
152.000	124.501	80.009	19.996	103.572	19.914	5.885	0.677
160.000	130.348	80.010	19.995	103.525	19.926	5.037	0.766
168.000	136.449	80.008	19.994	103.493	19.932	4.668	0.762
176.000	142.691	80.008	19.995	103.450	19.937	4.356	0.783
184.000	148.922	80.007	19.994	103.419	19.946	3.733	0.797
192.000	155.042	80.008	19.995	103.406	19.952	3.303	0.743
200.000	160.997	80.005	19.999	103.371	19.956	3.066	0.720
208.000	166.833	80.002	19.991	103.352	19.964	2.543	0.748
216.000	172.319	80.008	19.995	103.335	19.970	2.142	0.688
224.000	177.603	80.005	19.996	103.336	19.969	2.176	0.627
232.000	182.811	80.009	19.991	103.334	19.971	2.090	0.638
240.000	187.886	80.008	19.992	103.311	19.970	2.154	0.620
248.000	192.703	80.004	19.995	103.304	19.973	1.924	0.575
256.000	197.435	80.009	19.990	103.293	19.974	1.895	0.597
264.000	202.011	80.007	19.995	103.284	19.973	1.915	0.560
272.000	206.485	80.007	19.998	103.274	19.969	2.192	0.561
280.000	210.831	80.008	19.996	103.272	19.965	2.433	0.542
288.000	215.028	80.006	19.997	103.253	19.957	2.981	0.536
296.000	219.135	80.005	19.996	103.249	19.946	3.696	0.500
304.000	223.159	80.007	19.996	103.246	19.933	4.573	0.519
312.000	227.064	80.006	19.994	103.243	19.923	5.264	0.484
320.000	230.964	80.007	19.997	103.220	19.913	5.945	0.451
328.000	234.892	80.009	19.995	103.221	19.910	6.108	0.487
336.000	238.704	80.009	19.994	103.220	19.910	6.098	0.466
344.000	242.498	80.010	19.994	103.234	19.907	6.301	0.466
352.000	246.377	80.005	19.994	103.241	19.893	7.251	0.476
360.000	250.284	80.006	19.997	103.252	19.892	7.314	0.490
368.000	254.223	80.007	19.995	103.254	19.885	7.798	0.494
376.000	258.127	80.006	19.996	103.252	19.872	8.606	0.493
384.000	262.054	80.006	19.996	103.243	19.860	9.458	0.497
392.000	266.014	80.007	19.996	103.243	19.848	10.249	0.519
400.000	269.999	80.009	19.994	103.246	19.834	11.155	0.482
408.000	274.080	80.008	19.995	103.253	19.817	12.315	0.505
416.000	278.133	80.007	19.995	103.253	19.795	13.747	0.532
424.000	282.150	80.008	19.994	103.253	19.769	15.505	0.533
432.000	286.153	80.006	19.994	103.261	19.740	17.386	0.494
440.000	290.182	80.006	19.994	103.265	19.708	19.538	0.496
448.000	294.243	80.006	19.997	103.282	19.678	21.502	0.522
456.000	298.308	80.008	19.996	103.290	19.637	24.256	0.509
464.000	302.330	80.005	19.996	103.289	19.596	26.979	0.503
472.000	306.322	80.006	19.996	103.295	19.560	29.385	0.499
480.000	310.358	80.008	19.997	103.300	19.526	31.638	0.499
488.000	314.441	80.007	19.995	103.322	19.501	33.311	0.528
496.000	318.425	80.007	19.993	103.300	19.476	34.978	0.513
504.000	322.396	80.008	19.995	103.323	19.468	35.466	0.494
512.000	326.370	80.008	19.995	103.325	19.456	36.263	0.498
520.000	330.411	80.006	19.994	103.321	19.454	36.412	0.498
528.000	334.460	80.006	19.995	103.310	19.447	36.927	0.531
536.000	338.516	80.006	19.995	103.319	19.433	37.855	0.549
544.000	342.606	80.005	19.995	103.329	19.437	37.538	0.504
552.000	346.640	80.007	19.994	103.331	19.441	37.270	0.531
560.000	350.772	80.008	19.995	103.311	19.455	36.372	0.500
568.000	354.858	80.007	19.996	103.291	19.480	34.654	0.512
576.000	358.880	80.007	19.994	103.272	19.514	32.412	0.492
584.000	362.826	80.010	19.994	103.258	19.550	30.011	0.486
592.000	366.762	80.006	19.995	103.250	19.582	27.897	0.490
600.000	370.640	80.005	19.995	103.242	19.615	25.732	0.501
608.000	374.540	80.008	19.995	103.218	19.645	23.675	0.489
616.000	378.485	80.006	19.994	103.217	19.673	21.824	0.498
624.000	382.395	80.006	19.996	103.216	19.698	20.159	0.504
632.000	386.393	80.007	19.996	103.217	19.721	18.672	0.518
640.000	390.387	80.008	19.995	103.209	19.744	17.154	0.514
648.000	394.474	80.007	19.995	103.214	19.763	15.854	0.580
656.000	398.420	80.008	19.995	103.203	19.771	15.369	0.568
664.000	402.976	80.008	19.996	103.201	19.788	14.194	1.132
672.000	406.582	80.006	19.995	103.208	19.797	13.637	0.524
680.001	410.588	80.007	19.994	103.200	19.813	12.554	0.453
688.000	414.595	80.006	19.994	103.193	19.832	11.280	0.486
696.000	418.586	80.007	19.995	103.202	19.853	9.902	0.502
704.000	422.586	80.006	19.995	103.190	19.872	8.600	0.509
712.000	426.668	80.007	19.995	103.204	19.889	7.471	0.515
720.001	430.746	80.007	19.996	103.180	19.897	7.002	0.498
728.000	434.843	80.008	19.995	103.177	19.906	6.392	0.521
736.000	438.873	80.007	19.995	103.178	19.917	5.677	0.490
744.000	442.946	80.007	19.996	103.177	19.924	5.190	0.507
752.000	446.957	80.003	19.995	103.172	19.933	4.605	0.494
760.001	450.956	80.006	19.996	103.178	19.943	3.926	0.507
768.000	455.002	80.006	19.995	103.175	19.951	3.391	0.511
776.000	458.964	80.005	19.995	103.177	19.959	2.866	0.504
784.000	463.048	80.005	19.996	103.169	19.969	2.217	0.496
792.001	467.117	80.007	19.994	103.170	19.975	1.772	0.514
800.000	471.263	80.007	19.995	103.173	19.983	1.292	0.468
808.000	475.464	80.007	19.994	103.168	19.994	0.547	0.499
816.000	479.733	80.008	19.995	103.168	20.001	0.090	0.527
824.000	483.926	80.006	19.995	103.155	20.013	-0.696	0.518
832.000	488.164	80.004	19.995	103.140	20.015	-0.871	0.533
840.000	492.292	80.005	19.996	103.141	20.023	-1.366	0.515
848.000	496.519	80.005	19.995	103.136	20.036	-2.278	0.529
856.000	500.629	80.006	19.995	103.135	20.040	-2.549	0.512
864.000	504.777	80.005	19.996	103.144	20.051	-3.269	0.501
872.000	508.890	80.006	19.995	103.140	20.056	-3.563	0.552
880.000	512.912	80.006	19.996	103.140	20.065	-4.200	0.496
888.000	517.039	80.006	19.995	103.142	20.074	-4.744	0.518
896.000	521.121	80.009	19.994	103.136	20.076	-4.880	0.524
904.000	525.209	80.007	19.995	103.137	20.078	-5.044	0.512
912.000	529.282	80.006	19.996	103.137	20.082	-5.316	0.516
920.000	533.355	80.005	19.995	103.136	20.086	-5.565	0.528
928.000	537.470	80.005	19.996	103.137	20.086	-5.580	0.518
936.000	541.547	80.006	19.996	103.140	20.090	-5.811	0.517
944.000	545.657	80.004	19.993	103.142	20.092	-6.000	0.524
952.000	549.772	80.007	19.994	103.134	20.095	-6.189	0.521
960.000	553.890	80.005	19.994	103.134	20.096	-6.265	0.510
968.000	557.964	80.007	19.994	103.134	20.098	-6.364	0.487
976.000	562.070	80.009	19.994	103.136	20.100	-6.523	0.513
984.000	566.126	80.006	19.994	103.138	20.099	-6.401	0.550
992.000	570.176	80.004	19.995	103.135	20.100	-6.487	0.505
1000.000	574.282	80.004	19.996	103.134	20.101	-6.575	0.542
1008.000	578.321	80.006	19.997	103.140	20.102	-6.647	0.509
1016.000	582.326	80.005	19.996	103.139	20.110	-7.163	0.508
1024.000	586.358	80.008	19.996	103.128	20.110	-7.159	0.516
1032.000	590.393	80.007	19.994	103.110	20.111	-7.248	0.496
1040.000	594.472	80.007	19.995	103.132	20.117	-7.638	0.518
1048.000	598.561	80.006	19.995	103.122	20.115	-7.511	0.525
1056.000	602.621	80.006	19.994	103.135	20.128	-8.333	0.530
1064.000	606.672	80.005	19.995	103.136	20.127	-8.321	0.513
1072.000	610.814	80.006	19.994	103.135	20.130	-8.505	0.494
1080.000	614.912	80.005	19.995	103.131	20.136	-8.860	0.534
1088.001	619.001	80.005	19.996	103.137	20.138	-9.044	0.514
1096.000	623.067	80.005	19.996	103.135	20.137	-8.948	0.535
1104.000	627.108	80.006	19.995	103.127	20.135	-8.790	0.503
1112.000	631.141	80.005	19.996	103.132	20.137	-8.978	0.507
1120.000	635.228	80.005	19.995	103.130	20.141	-9.191	0.517
1128.001	639.267	80.009	19.994	103.137	20.137	-8.986	0.493
1136.001	643.288	80.006	19.994	103.134	20.138	-9.019	0.514
1144.000	647.288	80.006	19.995	103.145	20.140	-9.127	0.495
1152.000	651.311	80.005	19.994	103.151	20.139	-9.074	0.510
1160.000	655.291	80.005	19.995	103.153	20.137	-8.949	0.483
1168.001	659.281	80.004	19.995	103.167	20.137	-8.958	0.542
1176.000	663.324	80.006	19.995	103.172	20.134	-8.739	0.494
1184.000	667.336	80.007	19.995	103.182	20.137	-8.935	0.521
1192.001	671.410	80.005	19.996	103.180	20.134	-8.782	0.492
1200.000	675.489	80.004	19.995	103.205	20.137	-8.963	0.510
1208.001	679.566	80.008	19.994	103.221	20.137	-8.969	0.505
1216.001	683.647	80.005	19.995	103.213	20.136	-8.897	0.519
1224.000	687.630	80.006	19.996	103.230	20.139	-9.119	0.503
1232.001	691.677	80.006	19.994	103.247	20.135	-8.833	0.498
1240.000	695.612	80.005	19.994	103.255	20.135	-8.801	0.479
1248.000	699.704	80.003	19.994	103.259	20.134	-8.781	0.505
1256.000	703.631	80.005	19.995	103.258	20.130	-8.521	0.469
1264.001	707.695	80.007	19.995	103.257	20.135	-8.860	0.519
1272.000	711.639	80.007	19.995	103.254	20.134	-8.746	0.528
1280.000	715.665	80.006	19.995	103.251	20.130	-8.463	0.504
1288.000	719.713	80.008	19.995	103.216	20.132	-8.660	0.523
1296.000	723.713	80.005	19.995	103.214	20.136	-8.867	0.520
1304.000	727.793	80.004	19.994	103.189	20.141	-9.214	0.480
1312.000	731.791	80.006	19.995	103.178	20.144	-9.437	0.514
1320.000	735.760	80.006	19.994	103.146	20.145	-9.485	0.502
1328.000	739.774	80.006	19.996	103.144	20.149	-9.720	0.502
1335.500	743.508	80.006	19.995	103.137	20.153	-10.040	0.477