Folder: fsri_materials_database/01_Data/Latex_Pillow_Inner_Fabric/MCC

Note: 01_Data/README.md
# Materials and Products Database
## 01_Data

Raw data generated from each apparatus are included here in plain-text format. The data is organized first by material, next by the short name of test apparatus used, and where applicable additional filtering by test settings.

### material.json

Each material directory contains a json file of the same name as the material. This file links the data stored in the repository as well as data and graphs produced by the accompanying scripts (__02_Scripts__) to the respective landing page for the material on the front-end website.

File: Latex_Pillow_Inner_Fabric_MCC_30K_min_211210_R1.txt
Sample ID:	C:\MCC\MCC Cal\Test\LatexPillow_B_Inner_Fabric_MCC_30K_min_211210_R1.txt
Sample Weight (mg):	4.42
Heating Rate (C/s):	0.5
Combustor Temp (C):	900
N2 Flow Rate (cc/min):	80
O2 Flow Rate (cc/min):	20
Calibration File:	C:\MCC\MCC Cal\Coeff1 JN10440_30_210304.txt.txt
T Correction Coefficients:	0	1.024463	0
Time Shift (s):	14
*
Time (s)	Temperature (C)	N2 flow rate (cc/min)	O2 flow rate (cc/min)	Flow Rate (cc/min)	Oxygen (%)	HRR (W/g)	Heating rate (C/s)
0.000	108.624	80.009	19.998	103.085	20.269	-0.284	0.017
8.000	108.656	80.008	19.994	103.102	20.263	0.176	0.024
16.000	108.760	80.005	19.994	103.160	20.253	0.914	0.016
24.000	109.252	80.003	19.996	103.218	20.238	1.962	0.090
32.000	110.118	80.005	19.996	103.267	20.231	2.518	0.134
40.000	111.406	80.004	19.995	103.282	20.231	2.493	0.178
48.000	113.068	80.006	19.995	103.289	20.228	2.700	0.226
56.001	115.047	80.007	19.995	103.287	20.230	2.580	0.262
64.000	117.229	80.008	19.995	103.289	20.227	2.771	0.312
72.000	119.679	80.007	19.995	103.291	20.226	2.824	0.322
80.000	122.316	80.007	19.994	103.324	20.221	3.197	0.342
88.000	125.184	80.009	19.995	103.326	20.217	3.518	0.384
96.000	128.237	80.007	19.994	103.327	20.215	3.622	0.412
104.000	131.489	80.005	19.995	103.330	20.215	3.681	0.390
112.001	134.845	80.005	19.995	103.328	20.219	3.390	0.448
120.000	138.370	80.007	19.997	103.326	20.216	3.576	0.452
128.000	142.039	80.005	19.995	103.325	20.217	3.488	0.470
136.000	145.750	80.007	19.994	103.326	20.219	3.354	0.483
144.001	149.643	80.007	19.995	103.321	20.217	3.486	0.470
152.000	153.533	80.007	19.995	103.327	20.221	3.181	0.466
160.000	157.441	80.009	19.995	103.327	20.221	3.200	0.478
168.000	161.404	80.009	19.993	103.326	20.219	3.337	0.495
176.001	165.408	80.007	19.994	103.318	20.223	3.058	0.507
184.000	169.420	80.006	19.995	103.306	20.227	2.770	0.501
192.000	173.462	80.005	19.995	103.288	20.227	2.805	0.541
200.000	177.411	80.007	19.995	103.290	20.223	3.086	0.476
208.000	181.377	80.005	19.995	103.291	20.226	2.887	0.484
216.000	185.369	80.005	19.995	103.289	20.227	2.770	0.516
224.000	189.397	80.007	19.996	103.289	20.228	2.718	0.506
232.000	193.376	80.008	19.994	103.290	20.233	2.371	0.532
240.000	197.302	80.007	19.994	103.290	20.228	2.672	0.504
248.000	201.275	80.009	19.995	103.284	20.231	2.518	0.477
256.000	205.182	80.007	19.994	103.276	20.227	2.806	0.489
264.000	209.141	80.006	19.995	103.281	20.235	2.189	0.469
272.000	213.077	80.007	19.994	103.283	20.232	2.437	0.497
280.000	217.108	80.006	19.997	103.279	20.227	2.758	0.512
288.000	221.057	80.005	19.994	103.278	20.231	2.495	0.512
296.000	224.996	80.005	19.996	103.274	20.232	2.447	0.487
304.001	229.064	80.008	19.996	103.266	20.232	2.427	0.533
312.000	233.096	80.007	19.997	103.256	20.232	2.389	0.511
320.001	237.115	80.007	19.996	103.251	20.235	2.166	0.527
328.000	241.111	80.007	19.995	103.256	20.237	2.078	0.475
336.000	245.151	80.008	19.996	103.247	20.237	2.082	0.536
344.000	249.093	80.005	19.995	103.251	20.240	1.835	0.495
352.000	253.057	80.005	19.995	103.252	20.237	2.029	0.478
360.000	256.936	80.006	19.996	103.253	20.233	2.322	0.453
368.000	260.867	80.006	19.995	103.254	20.238	1.995	0.494
376.000	264.753	80.005	19.995	103.243	20.236	2.144	0.482
384.000	268.662	80.008	19.994	103.246	20.239	1.899	0.496
392.000	272.713	80.009	19.996	103.247	20.236	2.110	0.495
400.000	276.652	80.007	19.996	103.247	20.237	2.067	0.497
408.000	280.622	80.007	19.996	103.241	20.239	1.925	0.472
416.000	284.614	80.008	19.995	103.240	20.239	1.891	0.465
424.000	288.645	80.008	19.993	103.249	20.241	1.755	0.491
432.000	292.699	80.004	19.994	103.253	20.239	1.873	0.494
440.000	296.786	80.005	19.995	103.248	20.240	1.859	0.498
448.000	300.857	80.006	19.995	103.248	20.242	1.708	0.513
456.000	304.943	80.007	19.994	103.243	20.239	1.915	0.503
464.000	309.065	80.006	19.994	103.239	20.236	2.139	0.519
472.000	313.220	80.005	19.995	103.222	20.240	1.818	0.517
480.000	317.290	80.006	19.997	103.241	20.240	1.850	0.531
488.000	321.354	80.007	19.995	103.222	20.241	1.734	0.535
496.000	325.372	80.008	19.996	103.223	20.242	1.652	0.524
504.000	329.431	80.007	19.997	103.227	20.242	1.660	0.483
512.001	333.443	80.005	19.995	103.211	20.240	1.824	0.503
520.001	337.464	80.007	19.996	103.215	20.237	2.019	0.498
528.000	341.537	80.007	19.996	103.213	20.237	2.047	0.496
536.001	345.497	80.006	19.996	103.232	20.241	1.762	0.500
544.000	349.560	80.007	19.997	103.219	20.238	1.955	0.559
552.001	353.670	80.007	19.995	103.220	20.238	1.989	0.507
560.000	357.692	80.008	19.996	103.234	20.235	2.207	0.490
568.000	361.763	80.005	19.995	103.230	20.226	2.817	0.531
576.000	365.776	80.007	19.996	103.234	20.220	3.322	0.508
584.000	369.878	80.009	19.995	103.235	20.205	4.390	0.512
592.000	373.963	80.006	19.996	103.242	20.192	5.348	0.514
600.000	378.094	80.005	19.996	103.249	20.171	6.838	0.538
608.000	382.283	80.008	19.995	103.253	20.142	9.003	0.538
616.000	386.468	80.006	19.994	103.271	20.125	10.194	0.508
624.000	390.655	80.005	19.996	103.276	20.092	12.587	0.524
632.000	394.863	80.007	19.994	103.296	20.029	17.253	0.537
640.000	399.028	80.008	19.995	103.316	19.999	19.402	0.539
648.000	403.119	80.007	19.995	103.327	19.931	24.404	0.526
656.000	407.185	80.008	19.995	103.366	19.832	31.627	0.533
664.000	411.242	80.008	19.996	103.369	19.697	41.479	0.523
672.000	415.165	80.008	19.996	103.443	19.553	52.007	0.495
680.000	419.135	80.005	19.995	103.540	19.326	68.692	0.500
688.000	423.109	80.004	19.996	103.659	19.078	86.929	0.523
696.000	427.074	80.007	19.997	103.729	18.818	106.095	0.512
704.000	431.092	80.005	19.995	103.751	18.546	126.084	0.486
712.000	435.066	80.007	19.998	103.857	18.309	143.543	0.473
720.000	439.079	80.007	19.995	103.998	18.084	160.218	0.504
728.000	443.122	80.008	19.996	104.022	17.908	173.161	0.513
736.000	447.165	80.009	19.995	104.071	17.793	181.550	0.497
744.000	451.252	80.009	19.994	104.068	17.802	180.748	0.523
752.000	455.301	80.007	19.995	104.015	18.000	166.040	0.533
760.000	459.312	80.007	19.994	103.882	18.387	137.457	0.407
768.000	463.491	80.006	19.996	103.736	18.866	102.289	0.633
776.000	467.602	80.006	19.994	103.605	19.349	66.888	0.535
784.000	471.720	80.006	19.996	103.466	19.673	43.224	0.495
792.000	475.947	80.006	19.997	103.372	19.871	28.738	0.519
800.000	480.097	80.009	19.995	103.328	19.993	19.840	0.504
808.000	484.178	80.008	19.994	103.301	20.074	13.897	0.523
816.000	488.335	80.006	19.995	103.284	20.123	10.362	0.536
824.000	492.490	80.009	19.995	103.260	20.157	7.885	0.531
832.000	496.771	80.011	19.995	103.244	20.175	6.541	0.527
840.000	500.980	80.007	19.995	103.231	20.194	5.144	0.519
848.000	505.171	80.007	19.995	103.213	20.204	4.446	0.536
856.000	509.473	80.007	19.995	103.205	20.202	4.614	0.551
864.000	513.658	80.007	19.995	103.210	20.209	4.073	0.544
872.000	517.857	80.007	19.995	103.207	20.214	3.694	0.497
880.000	522.040	80.006	19.996	103.191	20.217	3.534	0.539
888.000	526.159	80.007	19.995	103.191	20.213	3.806	0.487
896.000	530.201	80.007	19.995	103.191	20.209	4.067	0.517
904.000	534.275	80.008	19.995	103.201	20.218	3.450	0.510
912.000	538.343	80.011	19.994	103.196	20.216	3.594	0.498
920.000	542.493	80.008	19.995	103.197	20.215	3.636	0.519
928.000	546.558	80.006	19.996	103.195	20.218	3.424	0.527
936.000	550.637	80.008	19.995	103.196	20.220	3.293	0.474
944.000	554.774	80.007	19.995	103.207	20.219	3.377	0.500
952.000	558.906	80.006	19.996	103.185	20.220	3.309	0.516
960.000	563.017	80.006	19.997	103.192	20.213	3.820	0.506
968.000	567.134	80.007	19.995	103.189	20.215	3.620	0.552
976.000	571.119	80.007	19.995	103.195	20.213	3.802	0.509
984.000	575.302	80.007	19.996	103.194	20.217	3.507	0.549
992.000	579.399	80.008	19.997	103.189	20.211	3.953	0.545
1000.000	583.497	80.008	19.995	103.188	20.209	4.070	0.525
1008.001	587.684	80.006	19.995	103.198	20.208	4.175	0.521
1016.000	591.847	80.007	19.995	103.187	20.209	4.118	0.519
1024.000	596.106	80.008	19.995	103.178	20.204	4.479	0.537
1032.001	600.246	80.008	19.996	103.178	20.203	4.509	0.525
1040.001	604.283	80.006	19.996	103.196	20.199	4.842	0.494
1048.000	608.357	80.006	19.996	103.186	20.203	4.557	0.512
1056.000	612.417	80.009	19.996	103.172	20.203	4.512	0.528
1064.001	616.553	80.006	19.994	103.177	20.201	4.651	0.503
1072.000	620.582	80.006	19.995	103.184	20.204	4.477	0.535
1080.000	624.639	80.007	19.995	103.200	20.204	4.475	0.505
1088.000	628.727	80.008	19.994	103.174	20.206	4.295	0.508
1096.001	632.846	80.006	19.994	103.181	20.204	4.457	0.502
1104.000	636.948	80.008	19.995	103.181	20.207	4.248	0.499
1112.000	641.060	80.007	19.995	103.174	20.212	3.898	0.497
1120.000	645.193	80.008	19.994	103.186	20.210	3.988	0.513
1128.000	649.221	80.007	19.995	103.182	20.211	3.926	0.476
1136.000	653.201	80.007	19.995	103.174	20.211	3.918	0.481
1144.000	657.116	80.008	19.995	103.173	20.213	3.777	0.441
1152.000	661.138	80.007	19.995	103.171	20.215	3.647	0.498
1160.001	665.177	80.010	19.995	103.178	20.210	3.984	0.508
1168.002	669.310	80.007	19.996	103.167	20.213	3.821	0.533
1176.000	673.523	80.006	19.996	103.168	20.217	3.527	0.514
1184.000	677.784	80.007	19.996	103.169	20.219	3.391	0.548
1192.000	681.852	80.007	19.996	103.163	20.216	3.609	0.471
1200.000	686.142	80.007	19.996	103.172	20.217	3.527	0.535
1208.001	690.260	80.006	19.994	103.175	20.221	3.214	0.491
1216.000	694.308	80.006	19.995	103.171	20.217	3.487	0.542
1224.001	698.409	80.009	19.995	103.165	20.218	3.416	0.505
1232.000	702.448	80.007	19.994	103.163	20.222	3.122	0.508
1240.001	706.369	80.009	19.996	103.168	20.224	3.028	0.477
1248.000	710.390	80.008	19.995	103.168	20.218	3.433	0.461
1256.000	714.391	80.006	19.996	103.163	20.217	3.515	0.483
1264.001	718.496	80.006	19.996	103.171	20.220	3.314	0.539
1272.001	722.501	80.006	19.996	103.167	20.214	3.689	0.518
1280.000	726.580	80.006	19.995	103.172	20.216	3.601	0.505
1288.001	730.585	80.006	19.995	103.163	20.215	3.630	0.507
1296.000	734.629	80.008	19.995	103.166	20.216	3.600	0.504
1304.000	738.618	80.010	19.995	103.169	20.216	3.552	0.499
1312.000	742.631	80.009	19.995	103.160	20.213	3.805	0.477
1314.000	743.638	80.007	19.994	103.164	20.214	3.685	0.496